##NAMES=Glauberite
##RRUFFID=R050350
##IDEAL CHEMISTRY=Na_2_Ca(S^6+^O_4_)_2_
##LOCALITY=Soda Lake, San Luis Obispo County, California, USA
##OWNER=RRUFF
##SOURCE=California Institute of Technology
##DESCRIPTION=Colorless tabular crystal
##STATUS=The identification of this mineral has been confirmed by X-ray diffraction and chemical analysis
##URL=rruff.info/R050350
##MEASURED CHEMISTRY=Na_1.90_Ca_1.15_(S_.99_O_4_)_2_
130.1285, 285.0799
130.6106, 275.6529
131.0928, 266.1181
131.5749, 256.7461
132.0570, 247.9188
132.5391, 240.1004
133.0212, 233.7951
133.5033, 229.1549
133.9855, 225.1683
134.4676, 221.5595
134.9497, 218.6518
135.4318, 216.7813
135.9139, 215.9184
136.3960, 215.5828
136.8782, 215.2040
137.3603, 214.6816
137.8424, 214.9586
138.3245, 216.4638
138.8066, 218.6517
139.2887, 220.8551
139.7709, 222.8781
140.2530, 225.0847
140.7351, 227.8980
141.2172, 231.2145
141.6993, 235.0877
142.1814, 240.1423
142.6636, 245.9006
143.1457, 250.5417
143.6278, 253.0356
144.1099, 254.9201
144.5920, 257.3455
145.0741, 260.3453
145.5563, 264.0049
146.0384, 268.7117
146.5205, 274.6357
147.0026, 280.0746
147.4847, 283.5556
147.9668, 287.2466
148.4490, 292.6236
148.9311, 299.8999
149.4132, 307.9430
149.8953, 314.8575
150.3774, 319.5010
150.8595, 325.5024
151.3417, 333.9749
151.8238, 343.1497
152.3059, 352.1200
152.7880, 360.4012
153.2701, 367.5308
153.7522, 372.1981
154.2344, 373.4492
154.7165, 372.8046
155.1986, 370.4185
155.6807, 366.1549
156.1628, 359.7872
156.6449, 351.2006
157.1271, 340.5024
157.6092, 327.8564
158.0913, 310.8797
158.5734, 294.9044
159.0555, 281.7311
159.5376, 270.7871
160.0198, 260.5266
160.5019, 250.0321
160.9840, 239.7231
161.4661, 230.8589
161.9482, 223.3526
162.4303, 217.2232
162.9125, 212.8391
163.3946, 210.1485
163.8767, 208.0714
164.3588, 206.1780
164.8409, 204.4933
165.3230, 203.0254
165.8052, 201.7506
166.2873, 200.7273
166.7694, 200.1482
167.2515, 200.1526
167.7336, 200.1185
168.2157, 199.3015
168.6979, 198.3814
169.1800, 198.2476
169.6621, 199.4724
170.1442, 201.5866
170.6263, 203.2367
171.1084, 203.9916
171.5906, 204.9663
172.0727, 206.7108
172.5548, 208.8306
173.0369, 210.7194
173.5190, 211.9117
174.0011, 212.5612
174.4833, 213.9688
174.9654, 216.8829
175.4475, 219.9042
175.9296, 223.0951
176.4117, 226.1660
176.8938, 228.5742
177.3760, 229.7527
177.8581, 229.6288
178.3402, 231.1857
178.8223, 235.9449
179.3044, 240.6828
179.7865, 244.4236
180.2687, 247.1682
180.7508, 249.2617
181.2329, 250.9439
181.7150, 252.1841
182.1971, 253.2209
182.6792, 254.3275
183.1614, 255.0542
183.6435, 255.2129
184.1256, 254.7674
184.6077, 253.6325
185.0898, 251.5188
185.5719, 248.3575
186.0540, 245.7886
186.5362, 244.4600
187.0183, 243.3837
187.5004, 241.9070
187.9825, 239.9903
188.4646, 237.1798
188.9467, 232.3136
189.4289, 225.9594
189.9110, 220.3412
190.3931, 216.0136
190.8752, 212.7041
191.3573, 210.1292
191.8394, 208.4905
192.3216, 206.9771
192.8037, 205.1528
193.2858, 203.0171
193.7679, 200.4468
194.2500, 197.1349
194.7321, 193.3265
195.2143, 189.6055
195.6964, 185.4263
196.1785, 182.3639
196.6606, 181.5842
197.1427, 182.3762
197.6248, 183.2211
198.1070, 183.3323
198.5891, 182.7077
199.0712, 181.2199
199.5533, 177.4516
200.0354, 174.4034
200.5175, 173.7792
200.9997, 174.8022
201.4818, 175.6540
201.9639, 174.7035
202.4460, 171.8767
202.9281, 170.2076
203.4102, 171.4093
203.8924, 172.2793
204.3745, 171.6472
204.8566, 169.8207
205.3387, 167.7812
205.8208, 166.3623
206.3029, 165.6102
206.7851, 165.0320
207.2672, 165.1273
207.7493, 164.9211
208.2314, 163.8314
208.7135, 162.0278
209.1956, 160.1277
209.6778, 158.6825
210.1599, 157.7542
210.6420, 156.8782
211.1241, 155.7410
211.6062, 154.9063
212.0883, 155.1995
212.5705, 156.3150
213.0526, 156.7574
213.5347, 154.9284
214.0168, 150.4446
214.4989, 147.7361
214.9810, 148.0739
215.4632, 149.0213
215.9453, 149.0118
216.4274, 147.9632
216.9095, 146.6936
217.3916, 145.8964
217.8737, 145.5864
218.3559, 145.1296
218.8380, 144.0653
219.3201, 143.1373
219.8022, 143.2239
220.2843, 144.3890
220.7664, 145.4813
221.2486, 145.4398
221.7307, 144.5088
222.2128, 143.7778
222.6949, 143.8057
223.1770, 143.8908
223.6591, 142.9318
224.1413, 140.6924
224.6234, 138.8650
225.1055, 139.4010
225.5876, 141.1858
226.0697, 142.1756
226.5518, 141.1454
227.0340, 139.3880
227.5161, 138.9643
227.9982, 140.2547
228.4803, 141.5594
228.9624, 141.8882
229.4445, 141.6266
229.9267, 141.1696
230.4088, 140.4905
230.8909, 139.8328
231.3730, 139.8673
231.8551, 141.1047
232.3372, 141.7109
232.8194, 140.2879
233.3015, 138.0665
233.7836, 136.4537
234.2657, 136.0703
234.7478, 136.5561
235.2299, 137.1829
235.7121, 138.1346
236.1942, 138.8463
236.6763, 139.1289
237.1584, 139.1426
237.6405, 139.0700
238.1227, 139.0017
238.6048, 138.8413
239.0869, 138.2758
239.5690, 136.8399
240.0511, 135.8315
240.5332, 135.5685
241.0154, 135.7425
241.4975, 136.1045
241.9796, 136.5497
242.4617, 137.0465
242.9438, 137.5418
243.4259, 138.2776
243.9081, 138.5866
244.3902, 138.2507
244.8723, 137.5786
245.3544, 136.7813
245.8365, 135.9479
246.3186, 135.1738
246.8007, 134.6700
247.2829, 134.5555
247.7650, 134.5831
248.2471, 134.6308
248.7292, 134.8537
249.2113, 135.5798
249.6934, 136.8776
250.1756, 138.2707
250.6577, 138.8005
251.1398, 137.4882
251.6219, 136.6879
252.1040, 136.5212
252.5861, 136.7762
253.0683, 137.4049
253.5504, 138.3557
254.0325, 139.3752
254.5146, 140.0510
254.9967, 140.2445
255.4788, 140.2763
255.9610, 140.0101
256.4431, 139.6647
256.9252, 139.3754
257.4073, 139.1871
257.8894, 139.1668
258.3716, 139.4270
258.8537, 140.1302
259.3358, 140.7091
259.8179, 141.0490
260.3000, 141.3362
260.7821, 141.7501
261.2643, 142.3182
261.7464, 142.9173
262.2285, 143.4298
262.7106, 143.8488
263.1927, 144.1460
263.6748, 144.3593
264.1570, 144.4236
264.6391, 144.0841
265.1212, 143.3601
265.6033, 142.8831
266.0854, 143.3607
266.5675, 144.8508
267.0497, 145.9703
267.5318, 146.4120
268.0139, 146.6609
268.4960, 147.1083
268.9781, 147.7688
269.4602, 148.4170
269.9424, 148.8929
270.4245, 149.1966
270.9066, 149.4507
271.3887, 149.4677
271.8708, 149.5821
272.3529, 150.1787
272.8351, 151.2135
273.3172, 152.0857
273.7993, 152.2301
274.2814, 152.0068
274.7635, 152.5512
275.2456, 154.6118
275.7278, 156.6289
276.2099, 157.0555
276.6920, 156.1475
277.1741, 156.1186
277.6562, 158.5204
278.1383, 162.1451
278.6204, 164.2982
279.1025, 164.3401
279.5847, 164.3381
280.0668, 166.4940
280.5489, 170.2269
281.0310, 171.7773
281.5131, 168.7154
281.9952, 163.9239
282.4774, 161.7060
282.9595, 162.4335
283.4416, 163.4497
283.9237, 163.2036
284.4058, 161.9302
284.8879, 160.5974
285.3701, 159.4380
285.8522, 158.2802
286.3343, 156.8470
286.8164, 155.1574
287.2985, 153.6820
287.7806, 152.9688
288.2628, 152.7034
288.7449, 151.7057
289.2270, 149.3129
289.7091, 147.0928
290.1912, 146.7846
290.6733, 147.8405
291.1555, 148.2430
291.6376, 146.3084
292.1197, 143.1278
292.6018, 141.4040
293.0839, 141.7384
293.5660, 142.4239
294.0482, 142.5664
294.5303, 142.2437
295.0124, 141.4811
295.4945, 139.9116
295.9766, 138.1104
296.4587, 137.1438
296.9409, 137.1556
297.4230, 137.5161
297.9051, 138.3641
298.3872, 139.2341
298.8693, 139.4734
299.3514, 138.6918
299.8336, 137.5660
300.3157, 136.9212
300.7978, 136.7773
301.2799, 136.9872
301.7620, 137.8147
302.2441, 138.8200
302.7263, 139.6487
303.2084, 140.2397
303.6905, 140.6432
304.1726, 141.0806
304.6547, 141.5822
305.1368, 141.2673
305.6190, 138.8776
306.1011, 136.4409
306.5832, 135.7616
307.0653, 136.9002
307.5474, 138.1487
308.0295, 137.8935
308.5117, 136.3004
308.9938, 135.4106
309.4759, 135.8789
309.9580, 136.6712
310.4401, 137.2269
310.9222, 137.5240
311.4044, 137.5291
311.8865, 136.9450
312.3686, 135.9842
312.8507, 135.6298
313.3328, 136.2002
313.8149, 136.8660
314.2971, 137.1355
314.7792, 137.1794
315.2613, 137.3200
315.7434, 137.7617
316.2255, 138.3529
316.7076, 138.7966
317.1898, 139.1190
317.6719, 139.2189
318.1540, 139.0281
318.6361, 138.6104
319.1182, 137.9009
319.6003, 136.7333
320.0825, 135.6715
320.5646, 135.5127
321.0467, 136.3495
321.5288, 137.5188
322.0109, 139.6067
322.4930, 141.4419
322.9752, 141.7424
323.4573, 140.2709
323.9394, 138.7589
324.4215, 139.2064
324.9036, 141.5548
325.3857, 142.8862
325.8679, 142.0170
326.3500, 140.6250
326.8321, 139.8148
327.3142, 139.5753
327.7963, 139.6017
328.2784, 139.8529
328.7606, 140.2479
329.2427, 140.3159
329.7248, 139.7210
330.2069, 139.3506
330.6890, 139.9815
331.1711, 141.2018
331.6533, 142.1394
332.1354, 142.2916
332.6175, 141.9721
333.0996, 141.8048
333.5817, 141.8285
334.0638, 141.8770
334.5460, 141.8275
335.0281, 141.7693
335.5102, 141.8631
335.9923, 142.2590
336.4744, 142.5650
336.9565, 142.1760
337.4387, 141.0386
337.9208, 140.1277
338.4029, 139.7664
338.8850, 139.7965
339.3671, 140.1692
339.8492, 140.9146
340.3314, 141.5524
340.8135, 141.5996
341.2956, 141.1663
341.7777, 141.0119
342.2598, 141.5828
342.7419, 141.9924
343.2241, 141.2080
343.7062, 139.4896
344.1883, 138.1803
344.6704, 138.2849
345.1525, 139.1830
345.6346, 139.4738
346.1168, 138.9337
346.5989, 138.2786
347.0810, 138.1076
347.5631, 138.1743
348.0452, 138.0285
348.5273, 137.3615
349.0095, 136.6094
349.4916, 136.1383
349.9737, 135.9441
350.4558, 136.3402
350.9379, 137.9156
351.4200, 139.9224
351.9022, 141.2079
352.3843, 141.6772
352.8664, 141.5308
353.3485, 140.6685
353.8306, 139.2387
354.3127, 137.7177
354.7949, 135.9804
355.2770, 134.6300
355.7591, 134.6960
356.2412, 136.1414
356.7233, 137.2798
357.2054, 137.4840
357.6876, 137.0158
358.1697, 136.1247
358.6518, 134.7687
359.1339, 133.4966
359.6160, 132.6847
360.0981, 132.3580
360.5803, 132.6455
361.0624, 134.2505
361.5445, 135.9632
362.0266, 136.8444
362.5087, 136.9225
362.9908, 136.4703
363.4730, 135.3623
363.9551, 133.9970
364.4372, 133.5879
364.9193, 134.7647
365.4014, 135.7658
365.8835, 135.8132
366.3657, 135.1797
366.8478, 134.2525
367.3299, 133.0564
367.8120, 132.0449
368.2941, 132.0992
368.7762, 133.5191
369.2584, 134.5869
369.7405, 135.0223
370.2226, 135.0284
370.7047, 134.5948
371.1868, 133.7800
371.6689, 133.1496
372.1511, 133.3166
372.6332, 134.3252
373.1153, 134.6453
373.5974, 133.4945
374.0795, 132.4968
374.5616, 132.6054
375.0438, 133.5101
375.5259, 134.3547
376.0080, 134.6681
376.4901, 134.5919
376.9722, 134.6177
377.4543, 134.7909
377.9365, 135.0033
378.4186, 135.5411
378.9007, 135.9783
379.3828, 135.6690
379.8649, 134.4855
380.3470, 133.0876
380.8292, 132.3912
381.3113, 132.5839
381.7934, 132.9992
382.2755, 134.2878
382.7576, 135.2145
383.2397, 134.6563
383.7219, 132.9929
384.2040, 131.6322
384.6861, 131.7612
385.1682, 133.2503
385.6503, 134.0210
386.1324, 132.9408
386.6146, 132.3803
387.0967, 133.0992
387.5788, 134.4527
388.0609, 135.7040
388.5430, 136.5316
389.0251, 136.9356
389.5073, 136.7966
389.9894, 135.4831
390.4715, 134.9840
390.9536, 136.1373
391.4357, 137.4489
391.9178, 137.9541
392.4000, 137.5932
392.8821, 136.9228
393.3642, 136.3900
393.8463, 135.9886
394.3284, 135.9324
394.8105, 136.5073
395.2927, 137.1181
395.7748, 137.7228
396.2569, 138.1959
396.7390, 138.2693
397.2211, 137.6846
397.7032, 136.8933
398.1854, 137.0608
398.6675, 138.6389
399.1496, 139.8059
399.6317, 139.8474
400.1138, 139.4097
400.5959, 138.8946
401.0780, 138.3777
401.5602, 137.8138
402.0423, 136.8345
402.5244, 135.5617
403.0065, 135.5287
403.4886, 137.7653
403.9707, 140.0324
404.4529, 140.6724
404.9350, 140.0973
405.4171, 139.4275
405.8992, 138.8673
406.3813, 138.6268
406.8634, 139.3239
407.3456, 141.1100
407.8277, 142.4159
408.3098, 142.1223
408.7919, 141.0251
409.2740, 140.4733
409.7561, 140.6190
410.2383, 141.1047
410.7204, 142.0446
411.2025, 143.1785
411.6846, 143.6701
412.1667, 143.1842
412.6488, 142.3688
413.1310, 141.9749
413.6131, 141.9792
414.0952, 142.1242
414.5773, 142.5879
415.0594, 143.0249
415.5415, 142.8985
416.0237, 142.2932
416.5058, 142.0768
416.9879, 142.9204
417.4700, 144.5945
417.9521, 145.8289
418.4342, 146.2820
418.9164, 146.7846
419.3985, 147.8534
419.8806, 149.0233
420.3627, 149.4299
420.8448, 148.8089
421.3269, 147.9356
421.8091, 147.9731
422.2912, 149.2707
422.7733, 150.5677
423.2554, 152.0503
423.7375, 153.3698
424.2196, 154.1808
424.7018, 154.6068
425.1839, 155.0417
425.6660, 155.7515
426.1481, 156.7264
426.6302, 157.9535
427.1123, 160.0247
427.5945, 161.5897
428.0766, 162.0351
428.5587, 162.1308
429.0408, 162.4806
429.5229, 163.3203
430.0050, 164.8380
430.4872, 167.5293
430.9693, 171.7950
431.4514, 175.5009
431.9335, 177.9744
432.4156, 180.4395
432.8977, 183.2962
433.3799, 186.5477
433.8620, 190.1420
434.3441, 194.0991
434.8262, 198.3065
435.3083, 202.3100
435.7904, 205.8007
436.2726, 209.9150
436.7547, 215.4289
437.2368, 221.5909
437.7189, 227.8723
438.2010, 234.1960
438.6831, 240.3864
439.1653, 245.9336
439.6474, 251.0749
440.1295, 257.1820
440.6116, 264.4792
441.0937, 272.7389
441.5758, 282.2651
442.0580, 292.6277
442.5401, 302.5479
443.0222, 311.3855
443.5043, 319.7725
443.9864, 328.6726
444.4685, 337.9185
444.9507, 346.1618
445.4328, 352.3670
445.9149, 357.5892
446.3970, 364.0082
446.8791, 371.1986
447.3612, 380.2756
447.8434, 391.2834
448.3255, 404.4761
448.8076, 420.0419
449.2897, 438.1048
449.7718, 458.9746
450.2539, 483.2774
450.7361, 511.3020
451.2182, 539.0233
451.7003, 570.9459
452.1824, 597.7910
452.6645, 618.0007
453.1466, 630.6276
453.6288, 634.0394
454.1109, 627.5165
454.5930, 612.3651
455.0751, 590.2723
455.5572, 555.2628
456.0393, 524.9697
456.5215, 498.4290
457.0036, 476.5539
457.4857, 460.3752
457.9678, 449.4105
458.4499, 441.8480
458.9320, 436.2646
459.4142, 432.9767
459.8963, 433.8190
460.3784, 439.4854
460.8605, 448.3435
461.3426, 459.4872
461.8247, 473.4359
462.3069, 490.8858
462.7890, 512.0094
463.2711, 536.1620
463.7532, 562.2589
464.2353, 590.5456
464.7174, 622.1656
465.1996, 656.1837
465.6817, 695.5753
466.1638, 743.4915
466.6459, 797.9833
467.1280, 854.8853
467.6101, 914.1133
468.0923, 973.7731
468.5744, 1033.774
469.0565, 1093.774
469.5386, 1146.784
470.0207, 1193.120
470.5028, 1227.058
470.9850, 1238.248
471.4671, 1228.423
471.9492, 1198.984
472.4313, 1142.797
472.9134, 1071.404
473.3955, 992.8578
473.8777, 909.7529
474.3598, 828.4606
474.8419, 753.5387
475.3240, 684.9915
475.8061, 624.8590
476.2882, 573.6269
476.7704, 528.6022
477.2525, 489.6686
477.7346, 456.6397
478.2167, 430.0255
478.6988, 409.6300
479.1809, 394.2076
479.6631, 382.0956
480.1452, 373.5140
480.6273, 367.6004
481.1094, 364.9615
481.5915, 364.4551
482.0736, 366.9022
482.5558, 371.0574
483.0379, 375.0600
483.5200, 378.0748
484.0021, 380.2882
484.4842, 382.8723
484.9663, 386.9388
485.4485, 386.2559
485.9306, 378.2097
486.4127, 365.8823
486.8948, 350.2203
487.3769, 331.7497
487.8590, 312.7680
488.3412, 293.7194
488.8233, 275.3489
489.3054, 259.3811
489.7875, 246.0619
490.2696, 233.6136
490.7517, 220.8391
491.2339, 208.7765
491.7160, 199.1018
492.1981, 192.4101
492.6802, 186.4990
493.1623, 180.4241
493.6444, 174.6344
494.1266, 169.9812
494.6087, 166.5666
495.0908, 163.5069
495.5729, 159.9079
496.0550, 155.8036
496.5371, 152.7418
497.0193, 151.6198
497.5014, 150.3346
497.9835, 147.8103
498.4656, 144.8777
498.9477, 142.8723
499.4298, 142.1871
499.9120, 141.8874
500.3941, 140.4820
500.8762, 137.3590
501.3583, 135.5433
501.8404, 136.8089
502.3225, 137.5816
502.8047, 136.1471
503.2868, 133.3575
503.7689, 130.7975
504.2510, 129.1771
504.7331, 128.3730
505.2152, 128.3368
505.6974, 129.2239
506.1795, 129.9415
506.6616, 130.5621
507.1437, 130.6222
507.6258, 129.5316
508.1079, 127.4916
508.5901, 125.6317
509.0722, 124.4119
509.5543, 123.7293
510.0364, 123.6632
510.5185, 124.1960
511.0006, 124.3761
511.4828, 123.5941
511.9649, 122.3373
512.4470, 121.6761
512.9291, 121.7675
513.4112, 121.7884
513.8933, 121.4237
514.3754, 120.9530
514.8575, 120.5247
515.3397, 120.2250
515.8218, 120.4464
516.3039, 121.6365
516.7860, 123.5289
517.2681, 124.1797
517.7502, 122.1333
518.2324, 120.6404
518.7145, 120.5300
519.1966, 120.7701
519.6787, 120.3181
520.1608, 119.0432
520.6429, 117.5725
521.1251, 116.3975
521.6072, 115.5291
522.0893, 115.6571
522.5714, 117.9774
523.0535, 119.3610
523.5356, 117.9489
524.0178, 115.5085
524.4999, 114.1237
524.9820, 114.3734
525.4641, 115.1060
525.9462, 115.3289
526.4283, 115.1431
526.9105, 115.0052
527.3926, 114.9835
527.8747, 114.9921
528.3568, 114.8999
528.8389, 114.7815
529.3210, 114.8973
529.8032, 115.4597
530.2853, 116.0490
530.7674, 116.6765
531.2495, 117.1277
531.7316, 116.8551
532.2137, 115.6896
532.6959, 114.2175
533.1780, 113.1352
533.6601, 112.4737
534.1422, 112.0277
534.6243, 111.7365
535.1064, 111.6829
535.5886, 111.7530
536.0707, 112.1223
536.5528, 113.4896
537.0349, 116.0623
537.5170, 118.3693
537.9991, 117.4853
538.4813, 112.4193
538.9634, 109.3182
539.4455, 109.8847
539.9276, 110.9281
540.4097, 110.9953
540.8918, 110.4576
541.3740, 110.1848
541.8561, 110.6347
542.3382, 111.2298
542.8203, 111.2139
543.3024, 110.6499
543.7845, 110.0790
544.2667, 109.4955
544.7488, 109.2180
545.2309, 109.9558
545.7130, 111.5535
546.1951, 112.4212
546.6772, 111.8513
547.1594, 110.9157
547.6415, 110.1531
548.1236, 109.5875
548.6057, 109.2188
549.0878, 109.0543
549.5699, 109.0021
550.0521, 108.8853
550.5342, 108.5506
551.0163, 108.6469
551.4984, 109.6174
551.9805, 110.4980
552.4626, 110.7767
552.9448, 110.6725
553.4269, 110.7384
553.9090, 111.2666
554.3911, 111.7641
554.8732, 111.2201
555.3553, 109.4333
555.8375, 107.9308
556.3196, 106.6067
556.8017, 106.0044
557.2838, 106.8041
557.7659, 108.5416
558.2480, 109.9282
558.7302, 110.5405
559.2123, 110.5684
559.6944, 109.8381
560.1765, 108.5840
560.6586, 108.0077
561.1407, 108.6457
561.6229, 109.4782
562.1050, 109.0403
562.5871, 107.0104
563.0692, 106.1922
563.5513, 107.5645
564.0334, 109.2042
564.5156, 110.3756
564.9977, 111.0632
565.4798, 111.2631
565.9619, 110.9834
566.4440, 110.5212
566.9261, 110.4141
567.4083, 110.8751
567.8904, 110.8163
568.3725, 109.2437
568.8546, 108.1859
569.3367, 108.8519
569.8188, 110.3663
570.3010, 111.2569
570.7831, 110.9426
571.2652, 110.1086
571.7473, 109.4368
572.2294, 108.9297
572.7115, 108.5722
573.1937, 108.3364
573.6758, 108.3167
574.1579, 108.5875
574.6400, 109.1482
575.1221, 110.0129
575.6042, 111.8476
576.0864, 113.2323
576.5685, 113.2661
577.0506, 112.4356
577.5327, 111.2697
578.0148, 109.9682
578.4969, 109.2245
578.9791, 109.9727
579.4612, 112.3223
579.9433, 113.4016
580.4254, 111.7365
580.9075, 110.5116
581.3896, 110.7247
581.8718, 111.4464
582.3539, 111.5393
582.8360, 110.7973
583.3181, 110.0494
583.8002, 110.1256
584.2823, 110.9434
584.7645, 112.0136
585.2466, 113.5888
585.7287, 114.6748
586.2108, 114.2223
586.6929, 113.2451
587.1750, 113.3269
587.6572, 114.8609
588.1393, 116.2014
588.6214, 116.4544
589.1035, 116.1579
589.5856, 115.8035
590.0677, 115.5226
590.5499, 115.8565
591.0320, 117.3454
591.5141, 119.4423
591.9962, 120.0760
592.4783, 117.0126
592.9604, 115.6396
593.4426, 117.1409
593.9247, 119.3924
594.4068, 121.2251
594.8889, 122.4654
595.3710, 123.1519
595.8531, 123.0880
596.3353, 122.9266
596.8174, 124.5078
597.2995, 128.2250
597.7816, 131.3474
598.2637, 132.7207
598.7458, 133.8999
599.2280, 136.0678
599.7101, 139.1676
600.1922, 142.9236
600.6743, 147.9151
601.1564, 152.9463
601.6385, 156.6429
602.1207, 159.5434
602.6028, 163.5949
603.0849, 169.5237
603.5670, 175.5609
604.0491, 179.2128
604.5313, 179.8459
605.0134, 182.0542
605.4955, 186.6256
605.9776, 191.6471
606.4597, 196.2152
606.9418, 201.0248
607.4240, 207.0053
607.9061, 214.3859
608.3882, 222.5811
608.8703, 230.9542
609.3524, 239.5021
609.8345, 248.2847
610.3167, 256.9070
610.7988, 266.6861
611.2809, 278.2039
611.7630, 291.3445
612.2451, 305.8571
612.7272, 321.4767
613.2094, 339.5168
613.6915, 360.0823
614.1736, 383.7169
614.6557, 411.2390
615.1378, 442.6375
615.6199, 477.0597
616.1021, 514.3009
616.5842, 553.0867
617.0663, 589.6953
617.5484, 631.0075
618.0305, 658.1153
618.5126, 671.0812
618.9948, 671.2639
619.4769, 654.3044
619.9590, 625.4706
620.4411, 594.7185
620.9232, 565.9940
621.4053, 541.1245
621.8875, 523.0485
622.3696, 511.7444
622.8517, 505.3965
623.3338, 505.2794
623.8159, 507.1691
624.2980, 510.2346
624.7802, 512.7480
625.2623, 508.3746
625.7444, 493.2584
626.2265, 475.1741
626.7086, 454.5993
627.1907, 434.4814
627.6729, 418.7331
628.1550, 408.1486
628.6371, 401.8904
629.1192, 399.2598
629.6013, 400.2341
630.0834, 404.6119
630.5656, 411.6760
631.0477, 423.7090
631.5298, 441.1960
632.0119, 462.8568
632.4940, 488.6649
632.9761, 518.0346
633.4583, 549.3824
633.9404, 584.2430
634.4225, 618.4584
634.9046, 647.9830
635.3867, 672.3282
635.8688, 682.8515
636.3510, 675.3326
636.8331, 656.4729
637.3152, 631.3038
637.7973, 598.5452
638.2794, 574.6608
638.7615, 557.9806
639.2437, 552.1427
639.7258, 557.9184
640.2079, 575.7051
640.6900, 607.4852
641.1721, 653.0775
641.6542, 707.4558
642.1364, 767.1156
642.6185, 831.4139
643.1006, 893.1868
643.5827, 961.5236
644.0648, 1006.727
644.5469, 1019.527
645.0291, 1002.540
645.5112, 950.5604
645.9933, 863.7507
646.4754, 767.4635
646.9575, 662.3161
647.4396, 561.5328
647.9218, 477.8903
648.4039, 411.1697
648.8860, 359.1994
649.3681, 321.3649
649.8502, 293.7108
650.3323, 270.5981
650.8145, 252.9812
651.2966, 235.5699
651.7787, 217.4456
652.2608, 200.6157
652.7429, 185.5562
653.2250, 172.2550
653.7072, 160.8484
654.1893, 151.2916
654.6714, 143.2893
655.1535, 136.7388
655.6356, 131.5119
656.1177, 127.2509
656.5999, 124.0166
657.0820, 121.2789
657.5641, 118.9574
658.0462, 116.8476
658.5283, 114.3709
659.0104, 111.2784
659.4926, 109.0839
659.9747, 108.7255
660.4568, 108.6480
660.9389, 107.8537
661.4210, 106.5853
661.9031, 105.4704
662.3853, 104.7511
662.8674, 104.2151
663.3495, 103.4869
663.8316, 102.5228
664.3137, 102.1299
664.7958, 102.8037
665.2780, 103.1448
665.7601, 102.1413
666.2422, 100.6550
666.7243, 99.74921
667.2064, 99.62132
667.6885, 99.31569
668.1707, 98.08175
668.6528, 96.64114
669.1349, 95.84294
669.6170, 95.62714
670.0991, 95.53952
670.5812, 95.38081
671.0634, 95.15895
671.5455, 94.88007
672.0276, 94.53091
672.5097, 94.18316
672.9918, 93.89140
673.4739, 93.54073
673.9561, 92.97874
674.4382, 92.39274
674.9203, 92.00638
675.4024, 91.87749
675.8845, 91.94225
676.3666, 92.39178
676.8488, 92.93188
677.3309, 92.74159
677.8130, 91.80451
678.2951, 91.17854
678.7772, 91.44702
679.2593, 92.14645
679.7415, 92.46545
680.2236, 92.36501
680.7057, 91.93616
681.1878, 90.70119
681.6699, 89.65322
682.1520, 89.40671
682.6342, 89.57063
683.1163, 89.44408
683.5984, 88.84282
684.0805, 88.35976
684.5626, 88.86848
685.0447, 90.10991
685.5269, 90.62458
686.0090, 90.29797
686.4911, 89.78490
686.9732, 89.27354
687.4553, 88.81293
687.9374, 88.50816
688.4196, 88.37636
688.9017, 88.21243
689.3838, 87.76836
689.8659, 87.50207
690.3480, 87.83717
690.8301, 88.49804
691.3123, 89.02467
691.7944, 89.26305
692.2765, 89.33387
692.7586, 89.39523
693.2407, 89.43133
693.7228, 89.17131
694.2050, 88.44657
694.6871, 87.88069
695.1692, 87.86517
695.6513, 87.97954
696.1334, 87.68809
696.6155, 86.99161
697.0977, 86.54305
697.5798, 86.83760
698.0619, 87.16028
698.5440, 86.79695
699.0261, 86.10475
699.5082, 85.89803
699.9904, 86.38493
700.4725, 87.03796
700.9546, 87.27790
701.4367, 87.13786
701.9188, 87.13637
702.4009, 87.37888
702.8831, 87.55026
703.3652, 87.55194
703.8473, 87.46821
704.3294, 87.28091
704.8115, 87.03296
705.2936, 86.94865
705.7758, 87.15736
706.2579, 87.52261
706.7400, 88.25808
707.2221, 89.01121
707.7042, 88.76585
708.1863, 87.34960
708.6685, 85.97810
709.1505, 85.81798
709.6326, 86.66975
710.1147, 87.03767
710.5969, 86.72433
711.0790, 86.27626
711.5611, 85.32337
712.0432, 84.64684
712.5253, 84.96246
713.0074, 85.99995
713.4896, 86.91304
713.9717, 87.52398
714.4538, 87.62800
714.9359, 86.66148
715.4180, 85.12124
715.9001, 84.11657
716.3823, 83.82207
716.8644, 83.97970
717.3465, 84.48906
717.8286, 85.18070
718.3107, 85.40073
718.7928, 84.70482
719.2750, 84.38087
719.7571, 84.92300
720.2392, 85.36531
720.7213, 84.95112
721.2034, 84.14922
721.6855, 84.00166
722.1677, 84.99148
722.6498, 85.89926
723.1319, 85.45625
723.6140, 84.27957
724.0961, 83.65755
724.5782, 83.66152
725.0604, 83.67551
725.5425, 83.33898
726.0246, 82.90379
726.5067, 82.91606
726.9888, 83.61561
727.4709, 84.03176
727.9531, 83.94521
728.4352, 83.83148
728.9173, 83.92061
729.3994, 84.03693
729.8815, 83.83862
730.3636, 83.27409
730.8458, 82.93273
731.3279, 83.59273
731.8100, 84.55003
732.2921, 84.42033
732.7742, 83.39291
733.2563, 82.92155
733.7385, 83.59956
734.2206, 84.56270
734.7027, 84.66815
735.1848, 83.83391
735.6669, 83.38358
736.1490, 83.68918
736.6312, 83.91104
737.1133, 83.87599
737.5954, 83.73274
738.0775, 83.66356
738.5596, 83.63580
739.0417, 83.39890
739.5239, 82.64665
740.0060, 81.83967
740.4881, 81.48749
740.9702, 81.51778
741.4523, 81.74510
741.9344, 82.12878
742.4166, 82.63461
742.8987, 83.28149
743.3808, 83.98666
743.8629, 84.29810
744.3450, 83.69276
744.8271, 83.65388
745.3093, 84.98997
745.7914, 86.16322
746.2735, 86.34258
746.7556, 85.74638
747.2377, 84.82735
747.7198, 83.61962
748.2020, 82.58265
748.6841, 82.12316
749.1662, 82.03696
749.6483, 82.01939
750.1304, 82.03596
750.6125, 82.12312
751.0947, 82.31987
751.5768, 82.46556
752.0589, 82.19010
752.5410, 81.26682
753.0231, 81.03056
753.5052, 82.28642
753.9874, 83.14925
754.4695, 82.61726
754.9516, 81.69180
755.4337, 81.48702
755.9158, 82.10806
756.3979, 82.76279
756.8801, 83.23008
757.3622, 83.43796
757.8443, 83.24924
758.3264, 82.75568
758.8085, 82.05083
759.2906, 81.20177
759.7728, 80.58399
760.2549, 80.60521
760.7370, 81.15755
761.2191, 81.62524
761.7012, 82.15538
762.1833, 82.19038
762.6655, 81.17747
763.1476, 80.11427
763.6297, 79.53007
764.1118, 79.42274
764.5939, 79.83385
765.0760, 81.16594
765.5582, 82.21065
766.0403, 82.03661
766.5224, 81.49950
767.0045, 81.73792
767.4866, 82.57074
767.9688, 82.89224
768.4509, 82.12448
768.9330, 80.97080
769.4151, 80.63985
769.8972, 81.16359
770.3793, 81.60193
770.8615, 81.96745
771.3436, 82.16358
771.8257, 82.12169
772.3078, 81.90035
772.7899, 81.55637
773.2720, 81.07791
773.7542, 80.65150
774.2363, 79.76160
774.7184, 79.53071
775.2005, 81.34131
775.6826, 83.74077
776.1647, 84.70110
776.6469, 83.99495
777.1290, 82.89394
777.6111, 82.33986
778.0932, 82.11227
778.5753, 81.60107
779.0574, 80.83273
779.5396, 80.73154
780.0217, 81.68455
780.5038, 82.54634
780.9859, 82.34929
781.4680, 81.35345
781.9501, 80.68599
782.4323, 80.35885
782.9144, 80.33462
783.3965, 80.88625
783.8786, 81.47019
784.3607, 81.91933
784.8428, 82.13842
785.3250, 81.92385
785.8071, 81.20881
786.2892, 80.48904
786.7713, 80.09751
787.2534, 80.02543
787.7355, 80.43656
788.2177, 81.23090
788.6998, 81.64946
789.1819, 81.37082
789.6640, 81.08231
790.1461, 81.75527
790.6282, 83.38106
791.1104, 83.86806
791.5925, 82.45220
792.0746, 81.17822
792.5567, 80.16014
793.0388, 79.59479
793.5209, 79.96931
794.0031, 80.94924
794.4852, 81.40715
794.9673, 80.72557
795.4494, 80.01958
795.9315, 79.89743
796.4136, 80.20448
796.8958, 81.13269
797.3779, 82.36411
797.8600, 82.63772
798.3421, 81.26741
798.8242, 79.38432
799.3063, 78.90649
799.7885, 79.88228
800.2706, 80.86516
800.7527, 82.03157
801.2348, 82.60423
801.7169, 81.98616
802.1990, 80.87843
802.6812, 80.21198
803.1633, 79.98302
803.6454, 79.80843
804.1275, 79.79900
804.6096, 79.66428
805.0917, 78.78427
805.5739, 78.07378
806.0560, 78.84280
806.5381, 80.80735
807.0202, 82.39148
807.5023, 82.64736
807.9844, 82.19517
808.4666, 81.68909
808.9487, 81.19677
809.4308, 81.07701
809.9129, 81.37738
810.3950, 81.53058
810.8771, 81.15321
811.3593, 80.56863
811.8414, 80.43304
812.3235, 80.83241
812.8056, 81.36543
813.2877, 82.49969
813.7698, 83.17310
814.2520, 82.77039
814.7341, 82.00023
815.2162, 81.53505
815.6983, 81.43190
816.1804, 81.44986
816.6625, 81.45517
817.1447, 81.58347
817.6268, 82.20654
818.1089, 82.89986
818.5910, 82.81997
819.0731, 82.00229
819.5552, 81.35327
820.0374, 81.49709
820.5195, 81.97905
821.0016, 81.71017
821.4837, 80.65276
821.9658, 80.34081
822.4479, 81.15616
822.9301, 81.77028
823.4122, 81.27898
823.8943, 80.39713
824.3764, 80.49283
824.8585, 81.85703
825.3406, 82.65842
825.8228, 82.34211
826.3049, 82.05315
826.7870, 82.44472
827.2691, 82.88384
827.7512, 82.42552
828.2333, 81.24174
828.7155, 80.62914
829.1976, 81.57966
829.6797, 82.83757
830.1618, 82.96968
830.6439, 82.32607
831.1260, 81.55844
831.6082, 80.81963
832.0903, 80.54692
832.5724, 81.03400
833.0545, 81.89228
833.5366, 82.40254
834.0187, 82.56624
834.5009, 82.32130
834.9830, 81.33995
835.4651, 80.60774
835.9472, 80.47239
836.4293, 80.77431
836.9114, 81.50036
837.3936, 82.60837
837.8757, 83.31624
838.3578, 83.37158
838.8399, 83.17475
839.3220, 82.50126
839.8041, 81.91936
840.2863, 82.21347
840.7684, 83.13671
841.2505, 83.74495
841.7326, 83.56359
842.2147, 83.04724
842.6968, 82.66852
843.1790, 82.39754
843.6611, 82.19374
844.1432, 82.03934
844.6253, 81.66293
845.1074, 80.88555
845.5895, 80.27544
846.0717, 80.74623
846.5538, 82.30649
847.0359, 82.64005
847.5180, 80.89830
848.0001, 79.58696
848.4822, 79.30193
848.9644, 79.50588
849.4465, 80.17013
849.9286, 81.01696
850.4107, 81.19209
850.8928, 80.18642
851.3749, 79.35273
851.8571, 79.17902
852.3392, 79.35387
852.8213, 79.80268
853.3034, 80.34924
853.7855, 80.78660
854.2676, 81.02351
854.7498, 80.89289
855.2319, 80.00159
855.7140, 78.75000
856.1961, 78.03938
856.6782, 77.82616
857.1603, 77.84542
857.6425, 78.05409
858.1246, 78.16960
858.6067, 77.90355
859.0888, 77.42439
859.5709, 77.39619
860.0530, 78.04092
860.5352, 78.54902
861.0173, 78.78249
861.4994, 79.02007
861.9815, 78.44011
862.4636, 78.41302
862.9457, 82.04620
863.4279, 89.96369
863.9100, 93.56174
864.3921, 86.73046
864.8742, 79.55897
865.3563, 77.32701
865.8384, 77.77073
866.3206, 78.54948
866.8027, 79.09038
867.2848, 78.89220
867.7669, 77.08230
868.2490, 76.74300
868.7311, 84.65465
869.2133, 96.84621
869.6954, 101.4481
870.1775, 97.91201
870.6596, 91.75302
871.1417, 85.11842
871.6238, 79.65709
872.1060, 77.93933
872.5881, 79.93969
873.0702, 81.10414
873.5523, 81.28627
874.0344, 80.97626
874.5165, 79.90800
874.9987, 78.79774
875.4808, 78.32577
875.9629, 78.26816
876.4450, 77.92526
876.9271, 76.91991
877.4092, 76.35449
877.8914, 76.76752
878.3735, 77.35070
878.8556, 77.70195
879.3377, 77.85231
879.8198, 77.83131
880.3019, 77.68502
880.7841, 77.69064
881.2662, 78.26473
881.7483, 78.87450
882.2304, 78.74552
882.7125, 78.15883
883.1946, 77.76255
883.6768, 77.65960
884.1589, 77.62451
884.6410, 77.49571
885.1231, 77.46696
885.6052, 78.04978
886.0873, 79.27076
886.5695, 80.03236
887.0516, 80.23183
887.5337, 80.25161
888.0158, 80.11427
888.4979, 80.06706
888.9800, 80.54463
889.4622, 81.54378
889.9443, 81.85448
890.4264, 80.46542
890.9085, 79.85234
891.3906, 81.06066
891.8727, 82.31115
892.3549, 82.44195
892.8370, 81.82616
893.3191, 81.29976
893.8012, 81.06127
894.2833, 80.75539
894.7654, 78.93061
895.2476, 78.18132
895.7297, 82.64830
896.2118, 88.93669
896.6939, 90.67891
897.1760, 87.29846
897.6581, 83.57136
898.1403, 82.82497
898.6224, 83.45445
899.1045, 81.61908
899.5866, 78.69939
900.0687, 82.77943
900.5508, 94.30660
901.0330, 101.1048
901.5151, 96.95829
901.9972, 87.96004
902.4793, 82.83926
902.9614, 81.59976
903.4435, 81.12926
903.9257, 81.62788
904.4078, 82.42017
904.8899, 83.83284
905.3720, 84.90609
905.8541, 84.71391
906.3362, 83.60789
906.8184, 82.65428
907.3005, 81.83854
907.7826, 81.26299
908.2647, 80.70530
908.7468, 80.65434
909.2289, 81.95786
909.7111, 83.54750
910.1932, 84.00249
910.6753, 83.26444
911.1574, 82.51362
911.6395, 82.43027
912.1216, 82.37706
912.6038, 81.62838
913.0859, 80.70924
913.5680, 80.41840
914.0501, 80.69144
914.5322, 81.08966
915.0143, 81.40981
915.4965, 81.39677
915.9786, 80.45284
916.4607, 78.97494
916.9428, 78.41298
917.4249, 78.72014
917.9070, 79.39971
918.3892, 80.37923
918.8713, 81.14120
919.3534, 81.21156
919.8355, 80.86340
920.3176, 81.00096
920.7997, 81.91420
921.2819, 82.20351
921.7640, 81.59091
922.2461, 80.84687
922.7282, 80.05532
923.2103, 79.46038
923.6924, 79.46581
924.1746, 80.03450
924.6567, 80.52421
925.1388, 80.73604
925.6209, 81.10770
926.1030, 82.40052
926.5851, 83.21712
927.0673, 81.87945
927.5494, 79.62843
928.0315, 78.93813
928.5136, 80.44612
928.9957, 81.85355
929.4778, 81.67184
929.9600, 81.19359
930.4421, 81.59407
930.9242, 82.34386
931.4063, 82.36538
931.8884, 81.76854
932.3705, 81.80373
932.8527, 83.26186
933.3348, 84.98442
933.8169, 85.38733
934.2990, 84.88971
934.7811, 84.54271
935.2632, 84.39690
935.7454, 84.36993
936.2275, 84.43437
936.7096, 84.71856
937.1917, 85.42480
937.6738, 86.33969
938.1559, 86.48895
938.6381, 85.70168
939.1202, 85.63940
939.6023, 86.71154
940.0844, 87.69032
940.5665, 87.89532
941.0486, 87.73174
941.5308, 87.79258
942.0129, 88.07414
942.4950, 88.63094
942.9771, 89.75989
943.4592, 90.71846
943.9413, 91.52383
944.4235, 92.01871
944.9056, 91.85603
945.3877, 91.36969
945.8698, 91.27822
946.3519, 91.72223
946.8340, 92.32423
947.3162, 93.24437
947.7983, 94.00562
948.2804, 94.27221
948.7625, 94.29890
949.2446, 94.21346
949.7267, 94.17130
950.2089, 94.65598
950.6910, 96.13979
951.1731, 97.33574
951.6552, 96.94977
952.1373, 95.91496
952.6194, 95.09901
953.1016, 94.68436
953.5837, 94.96434
954.0658, 95.95638
954.5479, 97.19768
955.0300, 98.39966
955.5121, 99.45699
955.9943, 100.1252
956.4763, 100.4798
956.9584, 100.6655
957.4406, 100.7531
957.9227, 101.5517
958.4048, 103.5141
958.8869, 105.3360
959.3690, 105.0932
959.8511, 103.1300
960.3333, 102.2011
960.8154, 102.3734
961.2975, 103.1517
961.7796, 104.5210
962.2617, 106.2928
962.7438, 108.5425
963.2260, 110.8512
963.7081, 112.2427
964.1902, 112.4550
964.6723, 113.1637
965.1544, 114.5242
965.6365, 116.1273
966.1187, 118.1594
966.6008, 120.1344
967.0829, 121.3058
967.5650, 122.1409
968.0471, 124.2011
968.5292, 128.3527
969.0114, 131.6619
969.4935, 133.0058
969.9756, 134.3034
970.4577, 136.1250
970.9398, 138.5412
971.4219, 141.8076
971.9041, 145.7482
972.3862, 149.5855
972.8683, 152.9695
973.3504, 156.3714
973.8325, 159.6161
974.3146, 163.3811
974.7968, 168.6882
975.2789, 174.7871
975.7610, 180.1205
976.2431, 184.5114
976.7252, 189.3443
977.2073, 195.1912
977.6895, 202.4026
978.1716, 211.6733
978.6537, 222.3907
979.1358, 233.4293
979.6179, 245.0154
980.1000, 258.4566
980.5822, 274.2034
981.0643, 290.8963
981.5464, 306.7531
982.0285, 322.9239
982.5106, 341.0930
982.9927, 361.5569
983.4749, 385.7326
983.9570, 413.7970
984.4391, 446.0516
984.9212, 482.3358
985.4033, 524.8993
985.8854, 575.6213
986.3676, 635.5958
986.8497, 713.7925
987.3318, 811.0579
987.8139, 918.3397
988.2960, 1035.887
988.7781, 1154.769
989.2603, 1271.988
989.7424, 1382.910
990.2245, 1477.924
990.7066, 1554.617
991.1887, 1634.386
991.6708, 1710.924
992.1530, 1807.596
992.6351, 1931.367
993.1172, 2074.967
993.5993, 2230.583
994.0814, 2403.257
994.5635, 2606.523
995.0457, 2839.438
995.5278, 3105.343
996.0099, 3395.795
996.4920, 3731.986
996.9741, 4099.199
997.4562, 4531.237
997.9384, 5039.671
998.4205, 5637.112
998.9026, 6362.263
999.3847, 7243.765
999.8668, 8183.147
1000.349, 9338.709
1000.831, 10340.56
1001.313, 11203.01
1001.795, 11685.20
1002.277, 11489.94
1002.760, 10668.52
1003.242, 9508.850
1003.724, 7956.604
1004.206, 6461.046
1004.688, 5145.616
1005.170, 4042.234
1005.652, 3200.150
1006.134, 2565.602
1006.616, 2082.632
1007.099, 1724.661
1007.581, 1447.615
1008.063, 1240.002
1008.545, 1076.548
1009.027, 947.2737
1009.509, 842.6976
1009.991, 755.2123
1010.473, 680.9975
1010.956, 616.5671
1011.438, 560.3002
1011.920, 511.7600
1012.402, 470.8795
1012.884, 436.2776
1013.366, 407.3144
1013.848, 382.9063
1014.330, 361.8756
1014.812, 343.3091
1015.295, 324.8821
1015.777, 305.9537
1016.259, 288.7514
1016.741, 275.1897
1017.223, 264.4450
1017.705, 255.8847
1018.187, 248.7668
1018.669, 240.3871
1019.151, 230.7345
1019.634, 221.5861
1020.116, 213.6009
1020.598, 206.6815
1021.080, 201.0072
1021.562, 196.0201
1022.044, 189.8213
1022.526, 182.6498
1023.008, 177.3674
1023.491, 174.2495
1023.973, 171.3844
1024.455, 167.9684
1024.937, 164.5927
1025.419, 162.0524
1025.901, 160.0229
1026.383, 156.7301
1026.865, 152.0229
1027.348, 148.4824
1027.830, 146.5156
1028.312, 144.7120
1028.794, 142.4679
1029.276, 139.9748
1029.758, 137.4136
1030.240, 134.8402
1030.722, 132.8595
1031.204, 131.6239
1031.687, 130.3802
1032.169, 129.1911
1032.651, 127.5123
1033.133, 124.7445
1033.615, 122.0089
1034.097, 120.9979
1034.579, 121.5318
1035.061, 120.7155
1035.543, 117.5621
1036.026, 115.7603
1036.508, 116.6729
1036.990, 116.9461
1037.472, 114.5969
1037.954, 111.2358
1038.436, 108.8502
1038.918, 107.4260
1039.400, 106.5028
1039.883, 106.4049
1040.365, 106.2065
1040.847, 105.5714
1041.329, 105.2112
1041.811, 105.8682
1042.293, 106.6769
1042.775, 106.3581
1043.257, 104.9521
1043.740, 104.0351
1044.222, 103.8446
1044.704, 103.7764
1045.186, 104.2636
1045.668, 104.3279
1046.150, 103.2902
1046.632, 101.7603
1047.114, 100.2988
1047.596, 98.96496
1048.078, 98.18018
1048.561, 98.65865
1049.043, 98.65238
1049.525, 97.55336
1050.007, 96.39421
1050.489, 95.40233
1050.971, 94.79121
1051.453, 95.15508
1051.935, 96.29463
1052.418, 96.49239
1052.900, 94.74552
1053.382, 93.29832
1053.864, 92.70732
1054.346, 92.35899
1054.828, 91.60284
1055.310, 91.12926
1055.792, 92.38759
1056.275, 94.94440
1056.757, 95.78942
1057.239, 93.05535
1057.721, 91.08722
1058.203, 92.09598
1058.685, 93.00093
1059.167, 91.54951
1059.649, 89.44464
1060.131, 88.73990
1060.614, 89.38649
1061.096, 90.15752
1061.578, 90.85226
1062.060, 91.33357
1062.542, 91.44942
1063.024, 91.45539
1063.506, 91.56683
1063.988, 91.59687
1064.470, 91.17561
1064.953, 90.45706
1065.435, 90.09972
1065.917, 90.38802
1066.399, 90.64868
1066.881, 90.56724
1067.363, 90.43873
1067.845, 90.34220
1068.327, 90.35849
1068.810, 90.68275
1069.292, 91.18401
1069.774, 91.48688
1070.256, 91.50323
1070.738, 91.23288
1071.220, 89.97754
1071.702, 89.25865
1072.184, 90.58018
1072.667, 92.40397
1073.149, 93.10138
1073.631, 92.87512
1074.113, 92.58006
1074.595, 92.39597
1075.077, 92.69687
1075.559, 94.22869
1076.041, 95.59037
1076.523, 95.81383
1077.005, 95.64510
1077.488, 95.55614
1077.970, 95.76163
1078.452, 96.71074
1078.934, 98.50445
1079.416, 99.89876
1079.898, 99.94225
1080.380, 99.96346
1080.862, 100.5002
1081.344, 101.4648
1081.827, 103.1943
1082.309, 105.1181
1082.791, 106.2208
1083.273, 106.3334
1083.755, 106.0340
1084.237, 104.5402
1084.719, 104.1366
1085.201, 106.6231
1085.684, 109.9387
1086.166, 112.3092
1086.648, 114.4269
1087.130, 117.8296
1087.612, 122.4901
1088.094, 126.4642
1088.576, 128.4550
1089.058, 130.7593
1089.541, 134.1786
1090.023, 138.4774
1090.505, 143.8139
1090.987, 149.7257
1091.469, 155.6183
1091.951, 161.5282
1092.433, 167.9617
1092.915, 175.0079
1093.397, 182.7110
1093.880, 191.3425
1094.362, 200.2991
1094.844, 209.3660
1095.326, 218.3731
1095.808, 226.7568
1096.290, 234.9319
1096.772, 244.1755
1097.254, 254.6367
1097.736, 266.7402
1098.219, 280.9276
1098.701, 296.3012
1099.183, 312.2341
1099.665, 329.4405
1100.147, 348.8560
1100.629, 369.9787
1101.111, 391.5244
1101.593, 413.2675
1102.076, 437.2564
1102.558, 466.3771
1103.040, 494.7497
1103.522, 521.1019
1104.004, 545.5883
1104.486, 570.5875
1104.968, 592.6527
1105.450, 607.3931
1105.932, 614.1570
1106.415, 609.9719
1106.897, 590.9637
1107.379, 565.8312
1107.861, 534.5570
1108.343, 499.5056
1108.825, 458.0843
1109.307, 415.9285
1109.789, 379.4735
1110.271, 348.7438
1110.754, 319.7308
1111.236, 290.8825
1111.718, 266.2368
1112.200, 247.3007
1112.682, 231.0526
1113.164, 216.9841
1113.646, 204.5024
1114.128, 192.5666
1114.611, 181.7401
1115.093, 174.2868
1115.575, 171.2090
1116.057, 168.3973
1116.539, 166.4799
1117.021, 163.8465
1117.503, 159.1714
1117.985, 154.8786
1118.468, 152.2546
1118.950, 151.2602
1119.432, 152.1905
1119.914, 155.3055
1120.396, 157.1248
1120.878, 156.9489
1121.360, 156.8932
1121.842, 156.5750
1122.324, 157.5809
1122.807, 160.9575
1123.289, 165.6718
1123.771, 170.3142
1124.253, 175.0799
1124.735, 181.7296
1125.217, 190.7534
1125.699, 200.0932
1126.181, 209.4706
1126.663, 219.8528
1127.146, 231.8474
1127.628, 244.1447
1128.110, 255.3388
1128.592, 266.0807
1129.074, 278.3379
1129.556, 292.1472
1130.038, 306.2647
1130.520, 320.5434
1131.003, 335.8775
1131.485, 352.2443
1131.967, 371.4002
1132.449, 394.5039
1132.931, 421.0126
1133.413, 450.1146
1133.895, 481.9889
1134.377, 517.6542
1134.859, 557.4203
1135.342, 603.3374
1135.824, 655.6669
1136.306, 712.5717
1136.788, 773.1207
1137.270, 839.6241
1137.752, 916.3553
1138.234, 995.9722
1138.716, 1067.429
1139.198, 1125.813
1139.681, 1150.542
1140.163, 1140.919
1140.645, 1097.728
1141.127, 1023.363
1141.609, 931.1976
1142.091, 828.6224
1142.573, 725.6652
1143.055, 633.6237
1143.538, 553.3903
1144.020, 488.4635
1144.502, 436.8456
1144.984, 394.0908
1145.466, 358.8127
1145.948, 330.8186
1146.430, 309.8035
1146.912, 293.5412
1147.395, 280.1844
1147.877, 270.3917
1148.359, 265.9534
1148.841, 264.7765
1149.323, 263.8328
1149.805, 263.5715
1150.287, 265.9644
1150.769, 271.2076
1151.251, 277.2769
1151.734, 282.9369
1152.216, 289.5619
1152.698, 298.5269
1153.180, 308.3016
1153.662, 318.6748
1154.144, 328.2617
1154.626, 335.8958
1155.108, 341.1675
1155.590, 343.5632
1156.073, 342.9506
1156.555, 339.3491
1157.037, 331.7253
1157.519, 322.5167
1158.001, 311.8394
1158.483, 300.7749
1158.965, 289.1631
1159.447, 278.0962
1159.930, 269.2565
1160.412, 262.7760
1160.894, 257.8529
1161.376, 253.9987
1161.858, 252.3688
1162.340, 253.6457
1162.822, 256.4450
1163.304, 259.8093
1163.786, 264.8837
1164.269, 272.8095
1164.751, 283.3121
1165.233, 295.6891
1165.715, 310.1995
1166.197, 325.3428
1166.679, 341.0571
1167.161, 357.9561
1167.643, 377.5858
1168.125, 395.1281
1168.608, 408.6650
1169.090, 416.5375
1169.572, 416.3523
1170.054, 408.2739
1170.536, 392.9493
1171.018, 370.0766
1171.500, 344.9876
1171.982, 317.9711
1172.465, 291.3563
1172.947, 265.8083
1173.429, 243.0461
1173.911, 224.4517
1174.393, 209.6510
1174.875, 198.6961
1175.357, 190.6796
1175.839, 181.8728
1176.322, 172.6092
1176.804, 164.4581
1177.286, 157.6866
1177.768, 152.2559
1178.250, 148.1061
1178.732, 144.9332
1179.214, 142.7383
1179.696, 140.9314
1180.178, 138.5175
1180.661, 136.0686
1181.143, 134.5176
1181.625, 133.6757
1182.107, 133.2017
1182.589, 132.8616
1183.071, 132.0018
1183.553, 130.0914
1184.035, 128.5379
1184.517, 128.7331
1185.000, 129.0268
1185.482, 128.2793
1185.964, 127.0018
1186.446, 125.3255
1186.928, 123.7476
1187.410, 123.2769
1187.892, 124.1020
1188.374, 125.0955
1188.857, 126.4464
1189.339, 127.2599
1189.821, 126.9191
1190.303, 126.5196
1190.785, 126.3974
1191.267, 126.6450
1191.749, 127.6841
1192.231, 129.1358
1192.714, 129.4644
1193.196, 128.2775
1193.678, 127.4832
1194.160, 127.1833
1194.642, 126.9689
1195.124, 126.6594
1195.606, 126.7675
1196.088, 127.7125
1196.570, 128.8974
1197.052, 129.4936
1197.535, 129.5963
1198.017, 129.4545
1198.499, 129.1012
1198.981, 130.2516
1199.463, 132.9137
1199.945, 134.5443
1200.427, 134.4401
1200.909, 133.4983
1201.392, 132.2318
1201.874, 131.4042
1202.356, 132.4318
1202.838, 134.4927
1203.320, 136.1136
1203.802, 137.2389
1204.284, 137.5620
1204.766, 137.3082
1205.249, 137.1169
1205.731, 137.2248
1206.213, 137.6904
1206.695, 138.5850
1207.177, 139.7617
1207.659, 141.5306
1208.141, 143.0927
1208.623, 143.5476
1209.105, 143.5078
1209.588, 143.7011
1210.070, 144.1480
1210.552, 144.4823
1211.034, 144.5387
1211.516, 145.3795
1211.998, 148.2602
1212.480, 150.4850
1212.962, 150.7864
1213.444, 151.0002
1213.927, 152.4691
1214.409, 154.0362
1214.891, 154.3270
1215.373, 153.6328
1215.855, 153.1812
1216.337, 152.7871
1216.819, 153.6208
1217.301, 156.1862
1217.784, 157.9654
1218.266, 158.3475
1218.748, 158.3274
1219.230, 158.4218
1219.712, 158.5011
1220.194, 158.2272
1220.676, 158.0600
1221.158, 160.1164
1221.641, 163.7101
1222.123, 164.7715
1222.605, 163.6391
1223.087, 163.4097
1223.569, 164.7147
1224.051, 166.1694
1224.533, 167.0137
1225.015, 167.5305
1225.497, 167.9190
1225.979, 168.2247
1226.462, 168.4197
1226.944, 168.6266
1227.426, 168.9848
1227.908, 169.4952
1228.390, 169.9903
1228.872, 170.5467
1229.354, 171.8582
1229.836, 174.7900
1230.319, 176.6541
1230.801, 175.1990
1231.283, 174.2379
1231.765, 175.5900
1232.247, 177.8687
1232.729, 180.7619
1233.211, 183.4171
1233.693, 184.0867
1234.176, 182.8790
1234.658, 183.0860
1235.140, 185.5029
1235.622, 186.8669
1236.104, 186.7711
1236.586, 186.4410
1237.068, 185.9937
1237.550, 186.7225
1238.032, 189.8513
1238.515, 193.3761
1238.997, 193.4466
1239.479, 191.3493
1239.961, 192.9974
1240.443, 197.2842
1240.925, 198.9233
1241.407, 198.0100
1241.889, 197.5303
1242.371, 198.3234
1242.854, 199.4436
1243.336, 200.3496
1243.818, 201.1384
1244.300, 201.6263
1244.782, 202.3385
1245.264, 204.6731
1245.746, 206.8224
1246.228, 205.6081
1246.711, 202.8867
1247.193, 202.7896
1247.675, 205.7800
1248.157, 208.8884
1248.639, 212.3029
1249.121, 213.9366
1249.603, 211.0502
1250.085, 209.6289
1250.568, 213.0072
1251.050, 216.5569
1251.532, 217.0452
1252.014, 216.0061
1252.496, 215.8761
1252.978, 216.6346
1253.460, 218.3744
1253.942, 221.3389
1254.424, 222.1217
1254.906, 220.3949
1255.389, 220.6911
1255.871, 224.2111
1256.353, 227.4243
1256.835, 228.0279
1257.317, 227.7926
1257.799, 229.1600
1258.281, 231.0470
1258.763, 231.1860
1259.246, 230.6093
1259.728, 231.2644
1260.210, 232.7868
1260.692, 234.0731
1261.174, 234.8592
1261.656, 235.1223
1262.138, 234.6214
1262.620, 234.8402
1263.103, 237.1664
1263.585, 239.4146
1264.067, 240.7979
1264.549, 241.5581
1265.031, 241.5773
1265.513, 241.2961
1265.995, 241.3757
1266.477, 241.6990
1266.959, 241.5263
1267.442, 240.4227
1267.924, 240.8140
1268.406, 243.1993
1268.888, 244.7336
1269.370, 244.8152
1269.852, 244.4586
1270.334, 244.1120
1270.816, 244.1851
1271.298, 245.3232
1271.781, 246.5913
1272.263, 245.5743
1272.745, 243.4371
1273.227, 243.1655
1273.709, 244.1514
1274.191, 244.7904
1274.673, 244.8454
1275.155, 244.5264
1275.638, 243.9416
1276.120, 243.5573
1276.602, 243.5306
1277.084, 243.9327
1277.566, 245.1503
1278.048, 246.3847
1278.530, 247.6443
1279.012, 248.2581
##END=



