##NAMES=Glauberite
##RRUFFID=R070322
##IDEAL CHEMISTRY=Na_2_Ca(S^6+^O_4_)_2_
##LOCALITY=Salton Sea, Imperial County, California, USA
##OWNER=RRUFF
##SOURCE=James Shigley
##DESCRIPTION=Colorless tabular crystal
##STATUS=The identification of this mineral has been confirmed by X-ray diffraction.
##URL=rruff.info/R070322
158.8221, 23132.29
159.3042, 23260.94
159.7863, 23381.94
160.2684, 23480.76
160.7505, 23538.47
161.2326, 23561.53
161.7148, 23595.60
162.1969, 23671.49
162.6790, 23763.59
163.1611, 23846.20
163.6432, 23887.93
164.1253, 23937.01
164.6075, 24027.30
165.0896, 24160.31
165.5717, 24288.94
166.0538, 24377.13
166.5359, 24446.18
167.0180, 24526.78
167.5002, 24635.67
167.9823, 24758.99
168.4644, 24885.12
168.9465, 25012.06
169.4286, 25149.68
169.9107, 25329.18
170.3929, 25525.01
170.8750, 25687.99
171.3571, 25759.76
171.8392, 25798.32
172.3213, 25868.04
172.8034, 25982.62
173.2856, 26107.19
173.7677, 26214.55
174.2498, 26306.48
174.7319, 26387.18
175.2140, 26446.18
175.6961, 26498.69
176.1783, 26571.59
176.6604, 26678.39
177.1425, 26789.79
177.6246, 26860.68
178.1067, 26896.96
178.5888, 26941.90
179.0710, 27046.14
179.5531, 27181.25
180.0352, 27279.48
180.5173, 27309.42
180.9994, 27309.63
181.4815, 27343.46
181.9637, 27410.28
182.4458, 27480.62
182.9279, 27524.94
183.4100, 27550.85
183.8921, 27588.48
184.3742, 27651.94
184.8564, 27730.30
185.3385, 27794.36
185.8206, 27843.56
186.3027, 27891.95
186.7848, 27959.11
187.2669, 28041.75
187.7491, 28116.78
188.2312, 28168.14
188.7133, 28205.02
189.1954, 28265.96
189.6775, 28354.15
190.1596, 28450.72
190.6418, 28533.20
191.1239, 28601.59
191.6060, 28671.57
192.0881, 28758.81
192.5702, 28858.47
193.0524, 28924.36
193.5345, 28950.92
194.0166, 28958.00
194.4987, 28966.68
194.9808, 28975.69
195.4629, 29005.74
195.9451, 29075.85
196.4272, 29185.85
196.9093, 29282.44
197.3914, 29365.61
197.8735, 29432.78
198.3556, 29470.99
198.8378, 29474.69
199.3199, 29483.92
199.8020, 29523.17
200.2841, 29594.18
200.7662, 29665.17
201.2483, 29737.34
201.7305, 29805.72
202.2126, 29853.49
202.6947, 29874.51
203.1768, 29897.82
203.6589, 29946.53
204.1410, 30026.08
204.6232, 30089.80
205.1053, 30133.73
205.5874, 30159.12
206.0695, 30159.28
206.5516, 30116.49
207.0337, 30094.99
207.5159, 30153.61
207.9980, 30314.73
208.4801, 30443.06
208.9622, 30515.20
209.4443, 30542.03
209.9264, 30577.14
210.4086, 30624.89
210.8907, 30672.36
211.3728, 30707.22
211.8549, 30724.53
212.3370, 30746.68
212.8191, 30775.34
213.3013, 30810.94
213.7834, 30863.08
214.2655, 30941.72
214.7476, 31021.12
215.2297, 31075.89
215.7118, 31096.35
216.1940, 31120.98
216.6761, 31159.66
217.1582, 31211.40
217.6403, 31249.76
218.1224, 31271.98
218.6045, 31284.01
219.0867, 31285.65
219.5688, 31260.26
220.0509, 31265.43
220.5330, 31322.71
221.0151, 31434.41
221.4972, 31520.90
221.9794, 31574.88
222.4615, 31612.69
222.9436, 31652.20
223.4257, 31696.05
223.9078, 31736.13
224.3899, 31766.18
224.8721, 31784.42
225.3542, 31824.50
225.8363, 31906.14
226.3184, 31991.29
226.8005, 32030.88
227.2827, 31994.32
227.7648, 31970.30
228.2469, 31984.91
228.7290, 32044.30
229.2111, 32092.62
229.6932, 32121.71
230.1754, 32145.74
230.6575, 32186.14
231.1396, 32258.11
231.6217, 32318.36
232.1038, 32347.22
232.5859, 32332.09
233.0681, 32356.95
233.5502, 32445.79
234.0323, 32557.14
234.5144, 32629.32
234.9965, 32636.53
235.4786, 32647.40
235.9608, 32685.78
236.4429, 32760.22
236.9250, 32819.41
237.4071, 32856.63
237.8892, 32882.27
238.3713, 32913.51
238.8535, 32956.86
239.3356, 32994.70
239.8177, 33018.59
240.2998, 33021.48
240.7819, 33037.63
241.2640, 33068.09
241.7462, 33111.41
242.2283, 33166.80
242.7104, 33242.16
243.1925, 33316.78
243.6746, 33386.31
244.1567, 33455.29
244.6389, 33502.63
245.1210, 33518.89
245.6031, 33519.11
246.0852, 33528.54
246.5673, 33546.54
247.0494, 33574.97
247.5316, 33617.20
248.0137, 33680.04
248.4958, 33733.18
248.9779, 33771.41
249.4600, 33802.63
249.9421, 33839.56
250.4243, 33880.47
250.9064, 33930.77
251.3885, 33997.27
251.8706, 34092.77
252.3527, 34161.57
252.8348, 34197.28
253.3170, 34210.34
253.7991, 34217.90
254.2812, 34215.01
254.7633, 34215.93
255.2454, 34225.82
255.7275, 34245.25
256.2097, 34270.14
256.6918, 34295.92
257.1739, 34330.01
257.6560, 34391.70
258.1381, 34498.96
258.6202, 34597.06
259.1024, 34665.24
259.5845, 34697.20
260.0666, 34721.29
260.5487, 34732.55
261.0308, 34739.65
261.5129, 34758.05
261.9951, 34787.14
262.4772, 34828.95
262.9593, 34890.52
263.4414, 34982.58
263.9235, 35042.89
264.4056, 35060.53
264.8878, 35057.23
265.3699, 35069.20
265.8520, 35096.34
266.3341, 35139.77
266.8162, 35211.41
267.2983, 35321.84
267.7805, 35384.18
268.2626, 35382.75
268.7447, 35349.88
269.2268, 35338.28
269.7089, 35349.50
270.1910, 35376.39
270.6732, 35421.24
271.1553, 35486.55
271.6374, 35544.00
272.1195, 35593.99
272.6016, 35635.62
273.0837, 35661.13
273.5659, 35665.84
274.0480, 35679.00
274.5301, 35719.52
275.0122, 35789.00
275.4943, 35830.83
275.9764, 35838.14
276.4586, 35830.73
276.9407, 35831.21
277.4228, 35837.51
277.9049, 35868.94
278.3870, 35945.45
278.8691, 36064.00
279.3513, 36149.98
279.8334, 36195.56
280.3155, 36228.73
280.7976, 36297.97
281.2798, 36405.44
281.7619, 36485.03
282.2440, 36500.20
282.7261, 36460.54
283.2082, 36436.10
283.6903, 36426.29
284.1725, 36433.84
284.6546, 36467.29
285.1367, 36525.57
285.6188, 36589.02
286.1009, 36660.59
286.5830, 36732.62
287.0652, 36763.09
287.5473, 36745.76
288.0294, 36722.53
288.5115, 36743.12
288.9936, 36802.95
289.4757, 36862.96
289.9579, 36910.70
290.4400, 36949.30
290.9221, 36990.17
291.4042, 37033.85
291.8863, 37072.79
292.3684, 37087.41
292.8506, 37086.73
293.3327, 37112.82
293.8148, 37205.07
294.2969, 37317.35
294.7790, 37343.52
295.2611, 37283.43
295.7433, 37225.58
296.2254, 37259.94
296.7075, 37359.34
297.1896, 37445.31
297.6717, 37490.89
298.1538, 37517.24
298.6360, 37552.68
299.1181, 37597.16
299.6002, 37645.88
300.0823, 37705.97
300.5644, 37766.99
301.0465, 37807.71
301.5287, 37811.70
302.0108, 37806.81
302.4929, 37825.01
302.9750, 37863.35
303.4571, 37903.82
303.9392, 37938.64
304.4214, 37967.24
304.9035, 37985.88
305.3856, 37979.86
305.8677, 37985.43
306.3498, 38054.63
306.8319, 38168.05
307.3141, 38258.70
307.7962, 38259.55
308.2783, 38230.09
308.7604, 38229.85
309.2425, 38278.69
309.7246, 38340.95
310.2068, 38408.19
310.6889, 38473.04
311.1710, 38517.29
311.6531, 38508.61
312.1352, 38490.43
312.6173, 38495.91
313.0995, 38536.06
313.5816, 38583.09
314.0637, 38631.85
314.5458, 38678.20
315.0279, 38714.75
315.5100, 38723.12
315.9922, 38732.68
316.4743, 38763.79
316.9564, 38826.70
317.4385, 38878.25
317.9206, 38892.30
318.4027, 38889.15
318.8849, 38897.20
319.3670, 38930.57
319.8491, 38970.68
320.3312, 39003.41
320.8133, 39021.22
321.2954, 39073.41
321.7776, 39229.28
322.2597, 39401.68
322.7418, 39497.68
323.2239, 39408.22
323.7060, 39336.73
324.1881, 39341.76
324.6703, 39432.58
325.1524, 39503.33
325.6345, 39526.79
326.1166, 39537.31
326.5987, 39562.98
327.0808, 39635.09
327.5630, 39685.44
328.0451, 39694.11
328.5272, 39663.93
329.0093, 39657.61
329.4914, 39687.66
329.9735, 39730.20
330.4557, 39770.96
330.9378, 39814.88
331.4199, 39847.13
331.9020, 39855.61
332.3841, 39849.82
332.8662, 39879.68
333.3484, 39964.96
333.8305, 40055.48
334.3126, 40125.18
334.7947, 40169.37
335.2768, 40202.82
335.7589, 40217.56
336.2411, 40226.70
336.7232, 40270.32
337.2053, 40362.34
337.6874, 40447.20
338.1695, 40490.14
338.6516, 40482.39
339.1338, 40512.77
339.6159, 40597.02
340.0980, 40696.60
340.5801, 40737.79
341.0622, 40714.52
341.5443, 40692.72
342.0265, 40695.76
342.5086, 40722.86
342.9907, 40776.87
343.4728, 40865.08
343.9549, 40949.67
344.4370, 40972.37
344.9192, 40939.73
345.4013, 40914.69
345.8834, 40919.16
346.3655, 40947.23
346.8476, 40984.25
347.3297, 41029.93
347.8119, 41086.18
348.2940, 41168.23
348.7761, 41263.98
349.2582, 41333.52
349.7403, 41353.94
350.2225, 41356.80
350.7046, 41394.00
351.1867, 41460.71
351.6688, 41517.18
352.1509, 41524.91
352.6331, 41506.77
353.1152, 41494.09
353.5973, 41487.05
354.0794, 41499.89
354.5615, 41567.60
355.0436, 41670.42
355.5258, 41748.16
356.0079, 41745.00
356.4900, 41714.91
356.9721, 41702.23
357.4542, 41713.59
357.9363, 41743.09
358.4185, 41804.05
358.9006, 41879.20
359.3827, 41938.64
359.8648, 41950.48
360.3469, 41959.62
360.8290, 41985.93
361.3112, 42030.91
361.7933, 42096.56
362.2754, 42226.60
362.7575, 42361.95
363.2396, 42438.70
363.7217, 42380.77
364.2039, 42323.44
364.6860, 42295.02
365.1681, 42296.65
365.6502, 42325.96
366.1323, 42411.66
366.6144, 42507.43
367.0966, 42581.60
367.5787, 42617.49
368.0608, 42649.93
368.5429, 42679.22
369.0250, 42706.25
369.5071, 42734.55
369.9893, 42761.33
370.4714, 42792.43
370.9535, 42835.00
371.4356, 42910.22
371.9177, 42943.09
372.3998, 42905.68
372.8820, 42839.14
373.3641, 42842.93
373.8462, 42945.78
374.3283, 43044.04
374.8104, 43090.91
375.2925, 43080.99
375.7747, 43087.23
376.2568, 43111.18
376.7389, 43148.26
377.2210, 43198.19
377.7031, 43262.71
378.1852, 43314.61
378.6674, 43342.11
379.1495, 43350.64
379.6316, 43363.60
380.1137, 43380.99
380.5958, 43401.84
381.0779, 43421.42
381.5601, 43442.43
382.0422, 43476.61
382.5243, 43528.77
383.0064, 43593.42
383.4885, 43672.83
383.9706, 43763.56
384.4528, 43834.86
384.9349, 43842.32
385.4170, 43823.18
385.8991, 43843.72
386.3812, 43922.62
386.8633, 44013.77
387.3455, 44084.62
387.8276, 44135.25
388.3097, 44166.72
388.7918, 44160.03
389.2739, 44146.34
389.7560, 44152.80
390.2382, 44183.06
390.7203, 44214.24
391.2024, 44226.27
391.6845, 44234.92
392.1666, 44258.65
392.6487, 44316.57
393.1309, 44378.51
393.6130, 44437.45
394.0951, 44492.45
394.5772, 44533.54
395.0593, 44543.10
395.5414, 44547.55
396.0236, 44563.36
396.5057, 44621.52
396.9878, 44657.08
397.4699, 44642.85
397.9520, 44598.70
398.4341, 44586.95
398.9163, 44620.10
399.3984, 44673.05
399.8805, 44743.26
400.3626, 44848.47
400.8447, 44915.62
401.3268, 44923.67
401.8090, 44909.11
402.2911, 44922.95
402.7732, 44970.44
403.2553, 45033.68
403.7374, 45117.33
404.2195, 45218.57
404.7017, 45281.47
405.1838, 45296.82
405.6659, 45298.95
406.1480, 45319.45
406.6301, 45358.69
407.1122, 45395.03
407.5944, 45423.82
408.0765, 45448.38
408.5586, 45471.50
409.0407, 45493.46
409.5228, 45527.93
410.0049, 45597.75
410.4871, 45686.98
410.9692, 45747.73
411.4513, 45770.53
411.9334, 45784.20
412.4155, 45823.63
412.8976, 45881.75
413.3798, 45936.37
413.8619, 45982.86
414.3440, 46018.62
414.8261, 46036.02
415.3082, 46035.22
415.7903, 46037.58
416.2725, 46043.95
416.7546, 46066.11
417.2367, 46119.70
417.7188, 46258.72
418.2009, 46374.74
418.6830, 46401.20
419.1652, 46358.77
419.6473, 46322.16
420.1294, 46303.06
420.6115, 46305.95
421.0937, 46337.98
421.5758, 46420.84
422.0579, 46486.78
422.5400, 46519.08
423.0221, 46531.09
423.5042, 46544.88
423.9864, 46543.22
424.4685, 46563.96
424.9506, 46631.54
425.4327, 46752.79
425.9148, 46816.64
426.3969, 46788.75
426.8791, 46742.62
427.3612, 46742.53
427.8433, 46800.72
428.3254, 46866.52
428.8075, 46933.49
429.2896, 47003.16
429.7718, 47086.38
430.2539, 47189.49
430.7360, 47274.11
431.2181, 47301.25
431.7002, 47276.76
432.1823, 47286.29
432.6645, 47335.61
433.1466, 47414.22
433.6287, 47522.96
434.1108, 47653.78
434.5929, 47766.76
435.0750, 47834.74
435.5572, 47878.10
436.0393, 47931.17
436.5214, 47993.55
437.0035, 48057.36
437.4856, 48085.42
437.9677, 48119.49
438.4499, 48227.21
438.9320, 48470.79
439.4141, 48715.09
439.8962, 48850.57
440.3783, 48909.75
440.8604, 48980.51
441.3426, 49094.18
441.8247, 49234.87
442.3068, 49402.15
442.7889, 49604.79
443.2710, 49790.89
443.7531, 49943.44
444.2353, 50073.19
444.7174, 50194.68
445.1995, 50293.24
445.6816, 50399.85
446.1637, 50506.13
446.6458, 50615.55
447.1280, 50783.10
447.6101, 51042.07
448.0922, 51323.56
448.5743, 51587.10
449.0564, 51825.33
449.5385, 52072.97
450.0207, 52333.88
450.5028, 52600.91
450.9849, 52876.19
451.4670, 53172.91
451.9491, 53399.84
452.4312, 53531.02
452.9134, 53563.79
453.3955, 53479.65
453.8776, 53275.94
454.3597, 52980.29
454.8418, 52577.59
455.3239, 52094.10
455.8061, 51650.66
456.2882, 51259.04
456.7703, 50934.98
457.2524, 50712.77
457.7345, 50581.13
458.2166, 50489.95
458.6988, 50414.90
459.1809, 50363.56
459.6630, 50348.10
460.1451, 50371.60
460.6272, 50415.76
461.1093, 50489.55
461.5915, 50570.76
462.0736, 50630.18
462.5557, 50622.43
463.0378, 50626.40
463.5199, 50680.72
464.0020, 50778.20
464.4842, 50864.56
464.9663, 50900.25
465.4484, 50942.25
465.9305, 51020.71
466.4126, 51148.21
466.8947, 51295.11
467.3769, 51482.08
467.8590, 51678.79
468.3411, 51841.21
468.8232, 51974.16
469.3053, 52059.82
469.7874, 52087.91
470.2696, 52060.70
470.7517, 52018.89
471.2338, 51961.43
471.7159, 51893.08
472.1980, 51816.48
472.6801, 51731.43
473.1623, 51643.50
473.6444, 51550.42
474.1265, 51459.46
474.6086, 51388.55
475.0907, 51334.19
475.5728, 51273.61
476.0550, 51170.50
476.5371, 51061.66
477.0192, 51014.33
477.5013, 51030.89
477.9834, 51065.32
478.4655, 51074.86
478.9477, 51083.36
479.4298, 51123.08
479.9119, 51225.01
480.3940, 51333.79
480.8761, 51426.99
481.3582, 51504.86
481.8404, 51566.75
482.3225, 51581.04
482.8046, 51605.14
483.2867, 51681.18
483.7688, 51848.68
484.2509, 51942.70
484.7331, 51884.58
485.2152, 51779.87
485.6973, 51726.84
486.1794, 51763.67
486.6615, 51786.58
487.1436, 51776.54
487.6258, 51741.37
488.1079, 51718.60
488.5900, 51711.85
489.0721, 51707.88
489.5542, 51701.68
490.0363, 51693.28
490.5185, 51671.36
491.0006, 51630.30
491.4827, 51594.19
491.9648, 51602.43
492.4470, 51647.32
492.9291, 51687.07
493.4112, 51705.57
493.8933, 51712.15
494.3754, 51723.27
494.8575, 51736.79
495.3397, 51738.67
495.8218, 51695.14
496.3039, 51646.99
496.7860, 51646.05
497.2681, 51712.75
497.7502, 51775.11
498.2324, 51787.09
498.7145, 51774.15
499.1966, 51771.15
499.6787, 51782.54
500.1608, 51811.20
500.6429, 51872.79
501.1251, 51963.36
501.6072, 52022.60
502.0893, 52008.11
502.5714, 51996.12
503.0535, 52027.11
503.5356, 52136.84
504.0178, 52200.81
504.4999, 52198.49
504.9820, 52168.46
505.4641, 52173.72
505.9462, 52223.62
506.4283, 52257.77
506.9105, 52246.23
507.3926, 52208.43
507.8747, 52222.84
508.3568, 52291.07
508.8389, 52386.09
509.3210, 52515.63
509.8032, 52657.50
510.2853, 52750.37
510.7674, 52783.35
511.2495, 52781.12
511.7316, 52739.94
512.2137, 52683.58
512.6959, 52660.82
513.1780, 52728.65
513.6601, 52805.89
514.1422, 52834.82
514.6243, 52821.91
515.1064, 52815.33
515.5886, 52837.66
516.0707, 52869.61
516.5528, 52899.13
517.0349, 52921.30
517.5170, 52948.55
517.9991, 52982.27
518.4813, 53021.43
518.9634, 53065.59
519.4455, 53120.88
519.9276, 53170.52
520.4097, 53210.28
520.8918, 53240.97
521.3740, 53275.81
521.8561, 53320.43
522.3382, 53350.61
522.8203, 53329.18
523.3024, 53262.64
523.7845, 53271.41
524.2667, 53375.15
524.7488, 53505.51
525.2309, 53591.78
525.7130, 53638.35
526.1951, 53657.53
526.6772, 53636.36
527.1594, 53606.95
527.6415, 53606.13
528.1236, 53630.13
528.6057, 53662.77
529.0878, 53702.84
529.5699, 53742.54
530.0521, 53774.88
530.5342, 53797.92
531.0163, 53819.73
531.4984, 53836.78
531.9805, 53856.73
532.4626, 53887.83
532.9448, 53925.68
533.4269, 53982.83
533.9090, 54084.05
534.3911, 54208.15
534.8732, 54261.77
535.3553, 54203.70
535.8375, 54153.43
536.3196, 54170.51
536.8017, 54259.58
537.2838, 54320.88
537.7659, 54351.68
538.2480, 54365.53
538.7302, 54364.26
539.2123, 54353.33
539.6944, 54376.59
540.1765, 54458.87
540.6586, 54551.20
541.1407, 54573.59
541.6229, 54544.82
542.1050, 54532.95
542.5871, 54593.52
543.0692, 54674.90
543.5513, 54729.36
544.0334, 54754.12
544.5156, 54779.00
544.9977, 54818.20
545.4798, 54863.10
545.9619, 54907.38
546.4440, 54961.06
546.9261, 54997.39
547.4083, 54992.39
547.8904, 54971.80
548.3725, 54983.46
548.8546, 55051.32
549.3367, 55111.11
549.8188, 55138.93
550.3010, 55140.15
550.7831, 55186.62
551.2652, 55293.36
551.7473, 55395.45
552.2294, 55439.72
552.7115, 55432.23
553.1937, 55427.66
553.6758, 55428.18
554.1579, 55440.56
554.6400, 55486.91
555.1221, 55553.50
555.6042, 55599.26
556.0864, 55592.72
556.5685, 55576.78
557.0506, 55595.21
557.5327, 55640.11
558.0148, 55681.95
558.4969, 55682.19
558.9791, 55693.32
559.4612, 55764.55
559.9433, 55922.96
560.4254, 56023.98
560.9075, 55983.58
561.3896, 55906.56
561.8718, 55886.49
562.3539, 55967.59
562.8360, 56029.82
563.3181, 56055.04
563.8002, 56060.07
564.2823, 56089.34
564.7645, 56149.50
565.2466, 56202.81
565.7287, 56231.52
566.2108, 56240.71
566.6929, 56251.61
567.1750, 56263.87
567.6572, 56283.81
568.1393, 56313.90
568.6214, 56355.70
569.1035, 56418.04
569.5856, 56510.43
570.0677, 56592.09
570.5499, 56619.31
571.0320, 56616.34
571.5141, 56621.93
571.9962, 56660.55
572.4783, 56700.14
572.9604, 56725.32
573.4426, 56739.12
573.9247, 56758.71
574.4068, 56791.44
574.8889, 56826.09
575.3710, 56856.98
575.8531, 56881.20
576.3353, 56914.71
576.8174, 56957.15
577.2995, 57008.96
577.7816, 57077.93
578.2637, 57167.21
578.7458, 57234.96
579.2280, 57272.46
579.7101, 57290.76
580.1922, 57300.33
580.6743, 57304.50
581.1564, 57322.20
581.6385, 57379.76
582.1207, 57446.43
582.6028, 57473.50
583.0849, 57466.21
583.5670, 57467.27
584.0491, 57508.08
584.5313, 57563.28
585.0134, 57616.17
585.4955, 57667.84
585.9776, 57704.73
586.4597, 57682.51
586.9418, 57660.89
587.4240, 57712.31
587.9061, 57934.01
588.3882, 58078.74
588.8703, 58102.96
589.3524, 58038.00
589.8345, 57966.17
590.3167, 57879.29
590.7988, 57817.05
591.2809, 57804.61
591.7630, 57832.54
592.2451, 57846.90
592.7272, 57846.22
593.2094, 57868.36
593.6915, 57978.29
594.1736, 58126.69
594.6557, 58212.47
595.1378, 58206.23
595.6199, 58186.35
596.1021, 58203.42
596.5842, 58245.64
597.0663, 58296.36
597.5485, 58358.59
598.0306, 58418.69
598.5127, 58475.36
598.9948, 58527.04
599.4769, 58567.29
599.9590, 58578.89
600.4412, 58600.59
600.9233, 58651.12
601.4054, 58734.27
601.8875, 58787.84
602.3696, 58804.62
602.8517, 58808.50
603.3339, 58805.19
603.8160, 58798.12
604.2981, 58844.83
604.7802, 58960.55
605.2623, 59098.43
605.7444, 59201.29
606.2266, 59277.63
606.7087, 59345.35
607.1908, 59409.33
607.6729, 59471.10
608.1550, 59537.93
608.6371, 59604.86
609.1193, 59658.06
609.6014, 59664.05
610.0835, 59678.61
610.5656, 59734.66
611.0477, 59841.44
611.5298, 59930.29
612.0120, 59968.21
612.4941, 60017.24
612.9762, 60126.85
613.4583, 60325.29
613.9404, 60477.24
614.4225, 60565.90
614.9047, 60625.63
615.3868, 60705.40
615.8689, 60804.34
616.3510, 60902.44
616.8331, 60995.26
617.3152, 61082.25
617.7974, 61175.07
618.2795, 61264.81
618.7616, 61322.18
619.2437, 61306.61
619.7258, 61270.49
620.2079, 61242.68
620.6901, 61225.68
621.1722, 61238.96
621.6543, 61304.85
622.1364, 61392.58
622.6185, 61485.88
623.1006, 61604.48
623.5828, 61682.95
624.0649, 61711.94
624.5470, 61709.35
625.0291, 61692.27
625.5112, 61657.54
625.9933, 61620.63
626.4755, 61574.11
626.9576, 61541.20
627.4397, 61596.17
627.9218, 61725.10
628.4039, 61821.85
628.8860, 61782.28
629.3682, 61707.70
629.8503, 61741.24
630.3324, 61873.01
630.8145, 62025.30
631.2966, 62142.86
631.7787, 62269.98
632.2609, 62441.55
632.7430, 62671.96
633.2251, 62908.24
633.7072, 63176.55
634.1893, 63421.28
634.6714, 63601.16
635.1536, 63720.75
635.6357, 63758.18
636.1178, 63686.24
636.5999, 63558.08
637.0820, 63450.87
637.5641, 63363.33
638.0463, 63350.37
638.5284, 63447.53
639.0105, 63614.27
639.4926, 63780.13
639.9747, 63946.87
640.4568, 64119.16
640.9390, 64273.64
641.4211, 64454.66
641.9032, 64733.99
642.3853, 65115.01
642.8674, 65444.45
643.3495, 65655.27
643.8317, 65795.98
644.3138, 65906.78
644.7959, 66032.38
645.2780, 66034.86
645.7601, 65840.08
646.2422, 65587.74
646.7244, 65430.72
647.2065, 65373.64
647.6886, 65399.30
648.1707, 65517.14
648.6528, 65698.80
649.1349, 65955.20
649.6171, 66258.02
650.0992, 66418.13
650.5813, 66331.39
651.0634, 66063.66
651.5455, 65640.09
652.0276, 65082.90
652.5098, 64531.58
652.9919, 64012.20
653.4740, 63558.21
653.9561, 63190.26
654.4382, 62912.18
654.9203, 62710.63
655.4025, 62606.15
655.8846, 62558.55
656.3667, 62551.66
656.8488, 62608.51
657.3309, 62638.86
657.8130, 62642.28
658.2952, 62614.23
658.7773, 62522.02
659.2594, 62374.14
659.7415, 62284.61
660.2236, 62294.54
660.7057, 62357.29
661.1879, 62423.62
661.6700, 62489.70
662.1521, 62543.98
662.6342, 62599.84
663.1163, 62625.68
663.5984, 62579.13
664.0806, 62471.62
664.5627, 62396.29
665.0448, 62390.26
665.5269, 62410.05
666.0090, 62438.03
666.4911, 62473.50
666.9733, 62524.38
667.4554, 62602.97
667.9375, 62672.60
668.4196, 62694.61
668.9017, 62671.02
669.3839, 62663.20
669.8660, 62676.71
670.3481, 62705.63
670.8302, 62759.65
671.3123, 62822.53
671.7944, 62859.88
672.2766, 62861.98
672.7587, 62833.55
673.2408, 62735.79
673.7229, 62614.57
674.2050, 62557.67
674.6871, 62671.02
675.1693, 62763.23
675.6514, 62760.03
676.1335, 62686.25
676.6156, 62677.01
677.0977, 62762.57
677.5798, 62843.75
678.0620, 62873.49
678.5441, 62857.70
679.0262, 62846.35
679.5083, 62838.77
679.9904, 62845.66
680.4725, 62842.04
680.9547, 62868.15
681.4368, 63031.21
681.9189, 63359.99
682.4010, 63653.67
682.8831, 63805.05
683.3652, 63836.73
683.8474, 63758.77
684.3295, 63442.54
684.8116, 63224.95
685.2937, 63220.59
685.7758, 63311.27
686.2579, 63345.24
686.7401, 63293.41
687.2222, 63267.44
687.7043, 63297.96
688.1864, 63355.56
688.6685, 63359.87
689.1506, 63314.97
689.6328, 63285.33
690.1149, 63270.10
690.5970, 63306.32
691.0791, 63525.18
691.5612, 63877.24
692.0433, 64106.20
692.5255, 63970.36
693.0076, 63756.19
693.4897, 63642.17
693.9718, 63650.78
694.4539, 63657.27
694.9360, 63629.99
695.4182, 63609.86
695.9003, 63622.28
696.3824, 63678.20
696.8645, 63716.09
697.3466, 63728.24
697.8287, 63742.55
698.3109, 63793.67
698.7930, 63875.18
699.2751, 63961.47
699.7572, 64056.86
700.2393, 64121.05
700.7214, 64079.57
701.2036, 63984.33
701.6857, 63922.11
702.1678, 63947.87
702.6499, 63983.74
703.1320, 64013.91
703.6141, 64032.61
704.0963, 64023.84
704.5784, 63962.43
705.0605, 63911.05
705.5426, 63876.58
706.0247, 63862.82
706.5068, 63900.12
706.9890, 63996.92
707.4711, 64075.28
707.9532, 64071.51
708.4353, 64024.64
708.9174, 64042.99
709.3995, 64120.67
709.8817, 64200.43
710.3638, 64253.39
710.8459, 64283.61
711.3280, 64284.00
711.8101, 64248.68
712.2922, 64233.95
712.7744, 64286.29
713.2565, 64341.73
713.7386, 64353.98
714.2207, 64291.92
714.7028, 64268.21
715.1849, 64289.98
715.6671, 64337.43
716.1492, 64403.41
716.6313, 64483.38
717.1134, 64522.48
717.5955, 64501.38
718.0776, 64467.98
718.5598, 64488.90
719.0419, 64539.19
719.5240, 64569.95
720.0061, 64547.31
720.4882, 64521.69
720.9703, 64497.32
721.4525, 64487.98
721.9346, 64525.78
722.4167, 64694.96
722.8988, 64805.06
723.3809, 64795.91
723.8630, 64703.83
724.3452, 64678.43
724.8273, 64727.63
725.3094, 64787.23
725.7915, 64838.85
726.2736, 64874.90
726.7557, 64854.77
727.2379, 64788.11
727.7200, 64751.13
728.2021, 64828.08
728.6842, 64930.66
729.1663, 64980.68
729.6484, 64969.63
730.1306, 64972.74
730.6127, 65038.58
731.0948, 65101.57
731.5769, 65123.41
732.0590, 65091.26
732.5411, 65072.48
733.0233, 65069.86
733.5054, 65074.36
733.9875, 65074.46
734.4696, 65072.61
734.9517, 65086.67
735.4338, 65119.00
735.9160, 65165.10
736.3981, 65246.62
736.8802, 65330.73
737.3623, 65363.80
737.8444, 65299.96
738.3266, 65244.98
738.8087, 65224.62
739.2908, 65241.93
739.7729, 65308.19
740.2551, 65497.45
740.7372, 65594.85
741.2193, 65543.91
741.7014, 65415.15
742.1835, 65355.96
742.6656, 65367.37
743.1478, 65390.97
743.6299, 65413.28
744.1120, 65431.03
744.5941, 65436.32
745.0762, 65432.23
745.5583, 65428.46
746.0405, 65421.67
746.5226, 65424.16
747.0047, 65445.43
747.4868, 65483.12
747.9689, 65523.20
748.4510, 65559.02
748.9332, 65603.91
749.4153, 65673.82
749.8974, 65762.33
750.3795, 65785.89
750.8616, 65735.33
751.3438, 65690.73
751.8259, 65704.74
752.3080, 65761.47
752.7901, 65842.42
753.2722, 65943.41
753.7543, 66007.48
754.2365, 65952.34
754.7186, 65875.19
755.2007, 65864.70
755.6828, 65947.86
756.1649, 65993.26
756.6470, 65936.42
757.1292, 65873.82
757.6113, 65867.70
758.0934, 65936.69
758.5755, 65974.99
759.0576, 65975.64
759.5397, 65969.95
760.0219, 65989.15
760.5040, 66028.92
760.9861, 66081.06
761.4682, 66148.65
761.9503, 66201.73
762.4324, 66200.66
762.9146, 66178.75
763.3967, 66175.77
763.8788, 66213.99
764.3609, 66250.97
764.8430, 66290.02
765.3251, 66318.32
765.8073, 66316.71
766.2894, 66274.80
766.7715, 66243.66
767.2536, 66230.35
767.7357, 66230.91
768.2178, 66231.82
768.7000, 66239.12
769.1821, 66282.20
769.6642, 66398.07
770.1463, 66508.63
770.6284, 66534.65
771.1105, 66508.45
771.5927, 66492.61
772.0748, 66534.63
772.5569, 66555.41
773.0390, 66519.02
773.5211, 66452.17
774.0032, 66422.63
774.4854, 66436.33
774.9675, 66465.83
775.4496, 66505.90
775.9317, 66553.92
776.4138, 66608.62
776.8959, 66667.09
777.3781, 66716.08
777.8602, 66753.29
778.3423, 66774.09
778.8244, 66759.63
779.3065, 66721.49
779.7886, 66708.14
780.2708, 66762.70
780.7529, 66814.51
781.2350, 66835.56
781.7171, 66830.78
782.1992, 66851.11
782.6813, 66904.84
783.1635, 66949.74
783.6456, 66957.88
784.1277, 66941.44
784.6098, 66934.43
785.0919, 66937.95
785.5740, 66961.13
786.0562, 67024.75
786.5383, 67100.05
787.0204, 67169.78
787.5025, 67232.78
787.9846, 67270.01
788.4667, 67245.84
788.9489, 67225.29
789.4310, 67244.66
789.9131, 67308.62
790.3952, 67312.44
790.8773, 67243.18
791.3594, 67174.14
791.8416, 67170.38
792.3237, 67208.02
792.8058, 67222.00
793.2879, 67209.58
793.7700, 67196.58
794.2521, 67194.87
794.7343, 67204.29
795.2164, 67228.19
795.6985, 67272.19
796.1806, 67306.17
796.6627, 67313.98
797.1448, 67325.69
797.6270, 67366.34
798.1091, 67442.98
798.5912, 67487.70
799.0733, 67496.27
799.5554, 67495.18
800.0375, 67514.20
800.5197, 67540.90
801.0018, 67540.16
801.4839, 67500.37
801.9660, 67493.30
802.4481, 67607.76
802.9302, 67745.93
803.4124, 67825.95
803.8945, 67820.80
804.3766, 67782.51
804.8587, 67680.21
805.3408, 67585.59
805.8229, 67568.31
806.3051, 67627.97
806.7872, 67710.91
807.2693, 67819.84
807.7514, 67908.53
808.2335, 67912.80
808.7156, 67872.56
809.1978, 67849.68
809.6799, 67863.54
810.1620, 67872.96
810.6441, 67839.75
811.1262, 67806.17
811.6083, 67814.07
812.0905, 67875.87
812.5726, 67958.82
813.0547, 68081.08
813.5368, 68186.74
814.0189, 68188.22
814.5010, 68105.74
814.9832, 68055.46
815.4653, 68055.72
815.9474, 68092.84
816.4295, 68204.32
816.9116, 68324.24
817.3937, 68363.43
817.8759, 68241.90
818.3580, 68152.97
818.8401, 68142.42
819.3222, 68178.23
819.8043, 68247.01
820.2864, 68370.21
820.7686, 68419.36
821.2507, 68369.54
821.7328, 68283.62
822.2149, 68225.93
822.6970, 68197.91
823.1791, 68208.63
823.6613, 68270.61
824.1434, 68336.31
824.6255, 68377.73
825.1076, 68403.73
825.5897, 68423.49
826.0718, 68438.48
826.5540, 68445.27
827.0361, 68431.83
827.5182, 68424.13
828.0003, 68463.35
828.4824, 68548.39
828.9645, 68606.19
829.4467, 68620.70
829.9288, 68627.08
830.4109, 68695.08
830.8930, 68771.98
831.3751, 68764.52
831.8572, 68592.60
832.3394, 68463.79
832.8215, 68454.89
833.3036, 68524.55
833.7857, 68633.70
834.2678, 68826.09
834.7499, 68914.70
835.2321, 68859.41
835.7142, 68764.09
836.1963, 68761.91
836.6784, 68830.68
837.1605, 68893.73
837.6426, 68939.02
838.1248, 68963.33
838.6069, 68949.88
839.0890, 68920.73
839.5711, 68898.52
840.0532, 68873.34
840.5353, 68884.25
841.0175, 68942.50
841.4996, 69026.33
841.9817, 69125.55
842.4638, 69243.10
842.9459, 69308.28
843.4280, 69308.70
843.9102, 69286.49
844.3923, 69298.90
844.8744, 69316.05
845.3565, 69273.33
845.8386, 69125.91
846.3207, 69039.27
846.8029, 69150.55
847.2850, 69307.09
847.7671, 69369.97
848.2492, 69284.16
848.7313, 69254.99
849.2134, 69299.89
849.6956, 69357.61
850.1777, 69361.40
850.6598, 69326.75
851.1419, 69304.46
851.6240, 69299.82
852.1061, 69315.50
852.5883, 69368.70
853.0704, 69433.74
853.5525, 69486.66
854.0346, 69516.94
854.5167, 69557.26
854.9988, 69631.25
855.4810, 69687.76
855.9631, 69677.95
856.4452, 69600.21
856.9273, 69568.96
857.4094, 69590.42
857.8915, 69611.45
858.3737, 69565.42
858.8558, 69501.53
859.3379, 69481.08
859.8200, 69512.52
860.3021, 69571.23
860.7842, 69694.11
861.2664, 69799.74
861.7485, 69831.27
862.2306, 69776.66
862.7127, 69781.66
863.1948, 69859.66
863.6769, 69938.45
864.1591, 69946.71
864.6412, 69922.63
865.1233, 69978.20
865.6054, 70108.90
866.0875, 70205.45
866.5696, 70161.74
867.0518, 70098.25
867.5339, 70099.20
868.0160, 70173.97
868.4981, 70215.39
868.9802, 70225.74
869.4623, 70194.56
869.9445, 70080.70
870.4266, 69923.34
870.9087, 69935.91
871.3908, 70102.57
871.8729, 70253.31
872.3550, 70281.62
872.8372, 70253.98
873.3193, 70194.96
873.8014, 70119.27
874.2835, 70098.63
874.7656, 70196.75
875.2477, 70297.60
875.7299, 70379.88
876.2120, 70441.54
876.6941, 70477.46
877.1762, 70487.66
877.6583, 70468.24
878.1404, 70380.15
878.6226, 70300.68
879.1047, 70362.73
879.5869, 70516.45
880.0690, 70634.82
880.5511, 70678.44
881.0332, 70668.17
881.5153, 70547.48
881.9974, 70397.00
882.4796, 70400.95
882.9617, 70595.52
883.4438, 70733.79
883.9259, 70740.16
884.4080, 70697.75
884.8901, 70750.49
885.3723, 70856.61
885.8544, 70915.07
886.3365, 70852.16
886.8186, 70798.09
887.3007, 70829.27
887.7828, 70895.30
888.2650, 70922.48
888.7471, 70884.35
889.2292, 70877.73
889.7113, 70918.42
890.1934, 70974.50
890.6755, 71013.33
891.1577, 71033.64
891.6398, 71025.16
892.1219, 70978.62
892.6040, 70942.05
893.0861, 70946.24
893.5682, 70978.02
894.0504, 71031.93
894.5325, 71137.05
895.0146, 71178.20
895.4967, 71122.66
895.9788, 71063.58
896.4609, 71088.93
896.9431, 71183.92
897.4252, 71261.59
897.9073, 71317.37
898.3894, 71353.27
898.8715, 71346.72
899.3536, 71339.34
899.8358, 71373.29
900.3179, 71456.33
900.8000, 71525.04
901.2821, 71577.05
901.7642, 71607.38
902.2463, 71607.58
902.7285, 71582.58
903.2106, 71571.14
903.6927, 71572.73
904.1748, 71572.05
904.6569, 71551.50
905.1390, 71530.23
905.6212, 71531.83
906.1033, 71551.03
906.5854, 71563.63
907.0675, 71539.70
907.5496, 71538.74
908.0317, 71589.48
908.5139, 71666.70
908.9960, 71687.20
909.4781, 71650.58
909.9602, 71615.06
910.4423, 71588.66
910.9244, 71593.42
911.4066, 71677.04
911.8887, 71807.20
912.3708, 71925.73
912.8529, 72048.09
913.3350, 72106.95
913.8171, 72041.61
914.2993, 71944.20
914.7814, 71953.05
915.2635, 72080.27
915.7456, 72146.39
916.2277, 72117.61
916.7098, 72060.16
917.1920, 72032.08
917.6741, 72032.51
918.1562, 72073.08
918.6383, 72179.55
919.1204, 72238.48
919.6025, 72137.99
920.0847, 72042.24
920.5668, 72083.95
921.0489, 72301.22
921.5310, 72355.56
922.0131, 72226.83
922.4952, 72102.21
922.9774, 72160.52
923.4595, 72306.01
923.9416, 72410.01
924.4237, 72463.59
924.9058, 72478.06
925.3879, 72408.05
925.8701, 72352.46
926.3522, 72369.16
926.8343, 72442.52
927.3164, 72428.78
927.7985, 72314.90
928.2806, 72232.91
928.7628, 72244.47
929.2449, 72322.46
929.7270, 72462.12
930.2091, 72634.21
930.6912, 72763.64
931.1733, 72800.99
931.6555, 72810.55
932.1376, 72798.49
932.6197, 72775.47
933.1018, 72755.73
933.5839, 72738.02
934.0660, 72732.82
934.5482, 72743.30
935.0303, 72762.70
935.5124, 72788.51
935.9945, 72815.62
936.4766, 72834.17
936.9587, 72839.03
937.4409, 72844.05
937.9230, 72830.53
938.4051, 72837.69
938.8872, 72904.63
939.3693, 73049.58
939.8514, 73153.38
940.3336, 73214.47
940.8157, 73237.34
941.2978, 73172.13
941.7799, 73097.85
942.2620, 73157.48
942.7441, 73349.22
943.2263, 73503.05
943.7084, 73539.22
944.1905, 73532.89
944.6726, 73512.01
945.1547, 73476.20
945.6368, 73400.93
946.1190, 73279.05
946.6011, 73235.10
947.0832, 73372.70
947.5653, 73565.27
948.0474, 73654.45
948.5295, 73665.60
949.0117, 73657.83
949.4938, 73617.05
949.9759, 73604.69
950.4580, 73644.21
950.9401, 73707.34
951.4222, 73745.13
951.9044, 73756.77
952.3865, 73819.05
952.8686, 73964.74
953.3507, 74064.07
953.8328, 73893.65
954.3149, 73634.93
954.7971, 73525.21
955.2792, 73648.88
955.7613, 73781.04
956.2434, 73919.40
956.7255, 74016.57
957.2076, 74026.02
957.6898, 73951.41
958.1719, 73934.41
958.6540, 73973.99
959.1361, 74010.07
959.6182, 73972.51
960.1003, 73935.13
960.5825, 73980.50
961.0646, 74094.74
961.5467, 74183.05
962.0288, 74220.81
962.5109, 74239.39
962.9930, 74234.24
963.4752, 74223.65
963.9573, 74273.87
964.4394, 74369.31
964.9215, 74407.15
965.4036, 74313.88
965.8857, 74232.98
966.3679, 74305.98
966.8500, 74449.51
967.3321, 74556.03
967.8142, 74609.59
968.2963, 74618.25
968.7784, 74562.18
969.2606, 74501.10
969.7427, 74498.65
970.2248, 74542.16
970.7069, 74587.63
971.1890, 74631.46
971.6711, 74679.56
972.1533, 74726.06
972.6354, 74785.70
973.1175, 74878.18
973.5996, 75002.11
974.0817, 75098.45
974.5638, 75164.39
975.0460, 75209.37
975.5281, 75219.80
976.0102, 75228.64
976.4923, 75329.15
976.9744, 75489.16
977.4565, 75614.23
977.9387, 75619.40
978.4208, 75633.83
978.9029, 75736.14
979.3850, 75856.64
979.8671, 75880.80
980.3492, 75773.91
980.8314, 75793.70
981.3135, 75991.23
981.7956, 76214.95
982.2777, 76280.41
982.7598, 76275.80
983.2419, 76325.28
983.7241, 76450.68
984.2062, 76600.91
984.6883, 76794.50
985.1704, 76974.48
985.6525, 77103.92
986.1346, 77192.10
986.6168, 77327.96
987.0989, 77512.09
987.5810, 77762.52
988.0631, 78066.55
988.5452, 78462.73
989.0273, 78987.59
989.5095, 79630.40
989.9916, 80359.69
990.4737, 81099.94
990.9558, 82047.81
991.4379, 83236.10
991.9200, 84612.25
992.4022, 86110.11
992.8843, 87715.98
993.3664, 89418.02
993.8485, 91185.58
994.3306, 93125.67
994.8127, 95339.24
995.2949, 97743.88
995.7770, 100249.0
996.2591, 102820.2
996.7412, 105602.6
997.2233, 108564.8
997.7054, 111761.2
998.1876, 115247.4
998.6697, 118967.6
999.1518, 123227.5
999.6339, 127757.1
1000.116, 131538.4
1000.598, 135305.0
1001.080, 136882.7
1001.562, 135185.2
1002.044, 131048.8
1002.527, 125274.5
1003.009, 117756.9
1003.491, 110669.8
1003.973, 104454.7
1004.455, 99088.98
1004.937, 94747.27
1005.419, 91263.00
1005.901, 88566.12
1006.384, 86771.61
1006.866, 85266.33
1007.348, 84020.36
1007.830, 82954.38
1008.312, 82046.64
1008.794, 81286.63
1009.276, 80580.41
1009.758, 79937.30
1010.240, 79407.16
1010.723, 79070.67
1011.205, 78805.53
1011.687, 78544.56
1012.169, 78296.70
1012.651, 78085.44
1013.133, 77909.48
1013.615, 77770.53
1014.097, 77673.25
1014.580, 77600.60
1015.062, 77534.81
1015.544, 77476.04
1016.026, 77427.60
1016.508, 77393.62
1016.990, 77350.46
1017.472, 77256.92
1017.954, 77182.78
1018.436, 77177.60
1018.919, 77236.77
1019.401, 77254.70
1019.883, 77231.31
1020.365, 77197.05
1020.847, 77150.88
1021.329, 77117.66
1021.811, 77137.18
1022.293, 77188.20
1022.776, 77217.63
1023.258, 77184.41
1023.740, 77185.65
1024.222, 77249.26
1024.704, 77319.47
1025.186, 77325.88
1025.668, 77274.27
1026.150, 77159.84
1026.632, 76973.18
1027.115, 76842.63
1027.597, 76888.61
1028.079, 76981.88
1028.561, 77033.04
1029.043, 77042.98
1029.525, 77093.20
1030.007, 77191.48
1030.489, 77257.80
1030.972, 77234.66
1031.454, 77182.34
1031.936, 77185.09
1032.418, 77223.56
1032.900, 77256.09
1033.382, 77266.73
1033.864, 77273.04
1034.346, 77266.38
1034.828, 77269.91
1035.311, 77323.77
1035.793, 77416.60
1036.275, 77467.35
1036.757, 77469.75
1037.239, 77457.16
1037.721, 77449.57
1038.203, 77438.76
1038.685, 77409.08
1039.167, 77365.86
1039.650, 77362.67
1040.132, 77409.48
1040.614, 77451.95
1041.096, 77466.80
1041.578, 77475.38
1042.060, 77513.10
1042.542, 77568.55
1043.024, 77622.47
1043.507, 77678.73
1043.989, 77712.50
1044.471, 77722.26
1044.953, 77706.73
1045.435, 77644.78
1045.917, 77544.52
1046.399, 77526.31
1046.881, 77588.70
1047.364, 77651.82
1047.846, 77652.95
1048.328, 77644.37
1048.810, 77665.40
1049.292, 77708.28
1049.774, 77733.96
1050.256, 77739.25
1050.738, 77735.01
1051.220, 77718.66
1051.703, 77706.35
1052.185, 77729.19
1052.667, 77769.78
1053.149, 77795.98
1053.631, 77795.88
1054.113, 77808.34
1054.595, 77842.81
1055.077, 77894.77
1055.559, 77976.63
1056.042, 78076.58
1056.524, 78103.26
1057.006, 78065.61
1057.488, 78036.84
1057.970, 78067.55
1058.452, 78108.62
1058.934, 78125.80
1059.416, 78133.71
1059.899, 78162.56
1060.381, 78224.90
1060.863, 78265.23
1061.345, 78277.59
1061.827, 78274.22
1062.309, 78248.79
1062.791, 78225.38
1063.273, 78250.08
1063.755, 78325.20
1064.238, 78383.76
1064.720, 78373.84
1065.202, 78392.20
1065.684, 78481.77
1066.166, 78607.84
1066.648, 78670.11
1067.130, 78678.21
1067.612, 78684.35
1068.094, 78716.26
1068.577, 78722.40
1069.059, 78606.47
1069.541, 78495.37
1070.023, 78526.59
1070.505, 78742.19
1070.987, 78839.26
1071.469, 78804.77
1071.951, 78790.67
1072.434, 78976.90
1072.916, 79187.36
1073.398, 79188.34
1073.880, 79031.44
1074.362, 78906.69
1074.844, 78818.82
1075.326, 78836.74
1075.808, 79017.56
1076.291, 79221.88
1076.773, 79232.37
1077.255, 79109.60
1077.737, 79015.09
1078.219, 78971.85
1078.701, 78971.59
1079.183, 79071.65
1079.665, 79150.59
1080.147, 79132.34
1080.630, 79040.95
1081.112, 79016.00
1081.594, 79056.57
1082.076, 79141.23
1082.558, 79291.96
1083.040, 79425.94
1083.522, 79433.46
1084.004, 79395.13
1084.486, 79428.02
1084.969, 79602.16
1085.451, 79671.67
1085.933, 79611.15
1086.415, 79539.77
1086.897, 79561.80
1087.379, 79627.16
1087.861, 79637.21
1088.343, 79607.63
1088.826, 79612.59
1089.308, 79744.09
1089.790, 79816.69
1090.272, 79756.98
1090.754, 79674.02
1091.236, 79777.61
1091.718, 80016.34
1092.200, 80132.97
1092.682, 80078.98
1093.165, 80043.86
1093.647, 80207.88
1094.129, 80371.15
1094.611, 80389.05
1095.093, 80287.50
1095.575, 80256.31
1096.057, 80298.25
1096.539, 80340.94
1097.022, 80349.65
1097.504, 80362.80
1097.986, 80411.82
1098.468, 80493.59
1098.950, 80612.22
1099.432, 80817.50
1099.914, 80905.00
1100.396, 80825.72
1100.879, 80782.46
1101.361, 81000.05
1101.843, 81318.03
1102.325, 81388.03
1102.807, 81274.53
1103.289, 81227.45
1103.771, 81437.77
1104.253, 81588.81
1104.735, 81613.30
1105.218, 81576.73
1105.700, 81564.63
1106.182, 81571.15
1106.664, 81577.38
1107.146, 81581.59
1107.628, 81551.30
1108.110, 81413.00
1108.592, 81288.38
1109.074, 81262.11
1109.557, 81305.30
1110.039, 81307.60
1110.521, 81268.70
1111.003, 81203.74
1111.485, 81104.36
1111.967, 81021.66
1112.449, 81000.59
1112.931, 81026.48
1113.414, 81096.66
1113.896, 81227.61
1114.378, 81302.92
1114.860, 81316.09
1115.342, 81300.59
1115.824, 81252.16
1116.306, 81205.96
1116.788, 81229.97
1117.271, 81298.71
1117.753, 81355.80
1118.235, 81370.55
1118.717, 81393.88
1119.199, 81437.49
1119.681, 81474.81
1120.163, 81462.70
1120.645, 81425.61
1121.127, 81436.73
1121.609, 81496.86
1122.092, 81576.79
1122.574, 81696.19
1123.056, 81789.20
1123.538, 81825.35
1124.020, 81831.74
1124.502, 81862.11
1124.984, 81913.41
1125.466, 81956.91
1125.949, 81984.66
1126.431, 82022.91
1126.913, 82105.66
1127.395, 82191.92
1127.877, 82234.53
1128.359, 82245.54
1128.841, 82343.77
1129.323, 82535.00
1129.806, 82715.72
1130.288, 82834.08
1130.770, 82956.60
1131.252, 83156.37
1131.734, 83398.61
1132.216, 83638.07
1132.698, 83873.17
1133.180, 84089.54
1133.662, 84275.76
1134.145, 84486.63
1134.627, 84764.62
1135.109, 85086.96
1135.591, 85441.67
1136.073, 85808.86
1136.555, 86128.58
1137.037, 86349.78
1137.519, 86586.40
1138.001, 86875.52
1138.484, 87115.80
1138.966, 87226.91
1139.448, 87198.39
1139.930, 86953.68
1140.412, 86510.18
1140.894, 86076.29
1141.376, 85721.03
1141.858, 85399.54
1142.341, 85089.89
1142.823, 84810.59
1143.305, 84594.19
1143.787, 84434.51
1144.269, 84285.03
1144.751, 84130.98
1145.233, 84067.09
1145.715, 84202.82
1146.198, 84392.66
1146.680, 84568.48
1147.162, 84726.89
1147.644, 84821.15
1148.126, 84861.03
1148.608, 84978.70
1149.090, 85246.75
1149.572, 85526.79
1150.054, 85700.85
1150.536, 85846.34
1151.019, 86031.92
1151.501, 86257.16
1151.983, 86571.63
1152.465, 86982.44
1152.947, 87338.89
1153.429, 87560.88
1153.911, 87690.81
1154.393, 87753.02
1154.876, 87752.98
1155.358, 87696.21
1155.840, 87596.02
1156.322, 87417.83
1156.804, 87154.98
1157.286, 86847.16
1157.768, 86494.93
1158.250, 86138.17
1158.733, 85817.14
1159.215, 85536.16
1159.697, 85296.34
1160.179, 85093.74
1160.661, 84940.08
1161.143, 84845.75
1161.625, 84774.34
1162.107, 84642.16
1162.589, 84521.43
1163.072, 84574.63
1163.554, 84798.52
1164.036, 84947.97
1164.518, 84930.68
1165.000, 84880.19
1165.482, 84805.84
1165.964, 84747.55
1166.446, 84812.02
1166.928, 84941.20
1167.411, 85002.59
1167.893, 84964.64
1168.375, 84910.44
1168.857, 84869.16
1169.339, 84810.48
1169.821, 84711.85
1170.303, 84596.23
1170.785, 84525.57
1171.268, 84494.66
1171.750, 84492.70
1172.232, 84546.34
1172.714, 84550.00
1173.196, 84390.70
1173.678, 84237.30
1174.160, 84207.51
1174.642, 84275.75
1175.125, 84263.64
1175.607, 84188.74
1176.089, 84148.91
1176.571, 84234.69
1177.053, 84306.35
1177.535, 84282.78
1178.017, 84230.96
1178.499, 84213.72
1178.981, 84230.36
1179.464, 84218.28
1179.946, 84180.47
1180.428, 84174.16
1180.910, 84295.67
1181.392, 84392.37
1181.874, 84335.73
1182.356, 84226.59
1182.838, 84222.30
1183.320, 84326.34
1183.803, 84451.42
1184.285, 84593.11
1184.767, 84675.88
1185.249, 84551.66
1185.731, 84437.39
1186.213, 84536.59
1186.695, 84758.02
1187.177, 84824.88
1187.660, 84723.90
1188.142, 84676.24
1188.624, 84721.96
1189.106, 84792.20
1189.588, 84860.63
1190.070, 84900.13
1190.552, 84866.95
1191.034, 84775.94
1191.516, 84735.43
1191.999, 84750.27
1192.481, 84765.87
1192.963, 84763.05
1193.445, 84776.68
1193.927, 84873.07
1194.409, 84982.20
1194.891, 85021.28
1195.373, 84983.86
1195.855, 84996.56
1196.338, 85068.89
1196.820, 85104.42
1197.302, 85043.93
1197.784, 84976.20
1198.266, 84995.84
1198.748, 85067.31
1199.230, 85159.58
1199.712, 85280.76
1200.195, 85327.81
1200.677, 85291.92
1201.159, 85239.88
1201.641, 85170.72
1202.123, 85149.20
1202.605, 85322.30
1203.087, 85568.21
1203.569, 85683.11
1204.052, 85603.74
1204.534, 85519.88
1205.016, 85424.41
1205.498, 85363.27
1205.980, 85379.34
1206.462, 85436.90
1206.944, 85528.77
1207.426, 85624.48
1207.908, 85638.88
1208.391, 85497.44
1208.873, 85492.02
1209.355, 85657.47
1209.837, 85836.44
1210.319, 85896.07
1210.801, 85894.95
1211.283, 85874.98
1211.765, 85849.48
1212.247, 85865.37
1212.730, 85964.08
1213.212, 85957.13
1213.694, 85795.55
1214.176, 85670.05
1214.658, 85841.27
1215.140, 86094.43
1215.622, 86175.08
1216.104, 86099.63
1216.587, 86046.54
1217.069, 86020.39
1217.551, 86049.76
1218.033, 86149.46
1218.515, 86261.40
1218.997, 86317.11
1219.479, 86351.91
1219.961, 86425.55
1220.443, 86531.43
1220.926, 86530.62
1221.408, 86374.15
1221.890, 86303.13
1222.372, 86394.79
1222.854, 86514.99
1223.336, 86491.19
1223.818, 86413.55
1224.300, 86377.84
1224.782, 86398.55
1225.265, 86455.45
1225.747, 86556.30
1226.229, 86656.63
1226.711, 86747.83
1227.193, 86819.20
1227.675, 86854.58
1228.157, 86864.60
1228.639, 86845.86
1229.122, 86791.73
1229.604, 86837.69
1230.086, 87010.49
1230.568, 87095.60
1231.050, 86964.02
1231.532, 86807.49
1232.014, 86877.18
1232.496, 87034.16
1232.979, 87093.20
1233.461, 87022.27
1233.943, 87046.72
1234.425, 87179.45
1234.907, 87273.85
1235.389, 87239.70
1235.871, 87171.94
1236.353, 87125.87
1236.835, 87124.27
1237.318, 87223.83
1237.800, 87452.71
1238.282, 87531.77
1238.764, 87453.80
1239.246, 87360.34
1239.728, 87307.64
1240.210, 87300.38
1240.692, 87374.28
1241.175, 87481.20
1241.657, 87550.97
1242.139, 87573.02
1242.621, 87628.79
1243.103, 87719.30
1243.585, 87795.27
1244.067, 87834.31
1244.549, 87841.98
1245.031, 87767.55
1245.514, 87696.75
1245.996, 87773.25
1246.478, 88024.16
1246.960, 88042.38
1247.442, 87835.20
1247.924, 87690.38
1248.406, 87897.61
1248.888, 88104.73
1249.370, 88063.13
1249.853, 87937.41
1250.335, 87957.87
1250.817, 88117.50
1251.299, 88206.37
1251.781, 88217.92
1252.263, 88202.21
1252.745, 88162.52
1253.227, 88134.86
1253.710, 88135.97
1254.192, 88157.19
1254.674, 88187.19
1255.156, 88227.92
1255.638, 88304.96
1256.120, 88415.17
1256.602, 88506.28
1257.084, 88547.33
1257.567, 88564.49
1258.049, 88558.77
1258.531, 88546.15
1259.013, 88537.09
1259.495, 88540.23
1259.977, 88602.35
1260.459, 88720.05
1260.941, 88818.65
1261.423, 88861.20
1261.906, 88877.56
1262.388, 88859.73
1262.870, 88844.77
1263.352, 88909.47
1263.834, 89011.09
1264.316, 89037.31
1264.798, 88985.55
1265.280, 88959.48
1265.762, 89021.19
1266.245, 89059.44
1266.727, 89050.70
1267.209, 89020.93
1267.691, 88992.98
1268.173, 88974.45
1268.655, 88974.28
1269.137, 88994.06
1269.619, 89047.63
1270.102, 89143.45
1270.584, 89250.28
1271.066, 89367.04
1271.548, 89472.30
1272.030, 89533.17
1272.512, 89567.86
1272.994, 89596.15
1273.476, 89618.35
1273.958, 89627.77
1274.441, 89627.41
1274.923, 89584.66
1275.405, 89473.32
1275.887, 89406.74
1276.369, 89561.48
1276.851, 89772.35
1277.333, 89892.16
1277.815, 89918.96
1278.297, 89879.19
1278.780, 89766.34
1279.262, 89746.77
1279.744, 89873.90
1280.226, 90004.33
1280.708, 89994.81
1281.190, 89972.02
1281.672, 90057.34
1282.154, 90200.55
1282.637, 90183.32
1283.119, 90028.26
1283.601, 89956.89
1284.083, 90023.52
1284.565, 90116.63
1285.047, 90215.23
1285.529, 90265.78
1286.011, 90223.89
1286.494, 90135.56
1286.976, 90132.52
1287.458, 90195.39
1287.940, 90263.52
1288.422, 90325.67
1288.904, 90382.64
1289.386, 90433.72
1289.868, 90482.65
1290.350, 90537.48
1290.833, 90580.13
1291.315, 90549.34
1291.797, 90486.80
1292.279, 90484.16
1292.761, 90568.02
1293.243, 90616.18
1293.725, 90597.70
1294.207, 90590.57
1294.689, 90622.80
1295.172, 90672.38
1295.654, 90698.83
1296.136, 90727.55
1296.618, 90805.28
1297.100, 90945.30
1297.582, 91025.30
1298.064, 91042.06
1298.546, 91013.95
1299.029, 90926.03
1299.511, 90862.16
1299.993, 90947.29
1300.475, 91072.52
1300.957, 91127.16
1301.439, 91118.95
1301.921, 91112.93
1302.403, 91110.05
1302.885, 91146.97
1303.368, 91251.59
1303.850, 91320.23
1304.332, 91218.13
1304.814, 91121.81
1305.296, 91161.59
1305.778, 91280.63
1306.260, 91235.08
1306.742, 91083.90
1307.224, 91084.84
1307.707, 91333.46
1308.189, 91548.00
##END=



