##NAMES=Glaucodot
##RRUFFID=R070644
##IDEAL CHEMISTRY=Co^3+^Fe^3+^(AsS)^3-^_2_
##LOCALITY=Hakansboda, Lindesberg, Västmanland, Sweden
##OWNER=RRUFF
##SOURCE=Michael Scott
##DESCRIPTION=Pair of grey metallic crystals with chalcopyrite embedded in epoxy.
##STATUS=The identification of this mineral is confirmed by single-crystal X-ray diffraction and chemical analysis.
##URL=rruff.info/R070644
##MEASURED CHEMISTRY=(Co_0.53_Fe_0.45_Ni_0.02_)_Σ=1_As_1.00_(S_0.90_As_0.10_)_Σ=1_ ; the included dark prisms are actinolite
146.2870, 239.3366
146.7691, 248.7124
147.2512, 256.6138
147.7334, 261.9355
148.2155, 264.2056
148.6976, 266.2201
149.1797, 267.9741
149.6618, 269.4767
150.1439, 270.7273
150.6261, 268.2851
151.1082, 268.6657
151.5903, 274.7231
152.0724, 291.4232
152.5545, 302.6733
153.0366, 302.3861
153.5188, 295.9963
154.0009, 294.1929
154.4830, 307.3894
154.9651, 318.8520
155.4472, 320.7079
155.9293, 303.6852
156.4115, 289.2746
156.8936, 281.2721
157.3757, 279.0479
157.8578, 280.1775
158.3399, 286.6011
158.8221, 294.6436
159.3042, 301.9778
159.7863, 308.8112
160.2684, 314.1057
160.7505, 316.6018
161.2326, 316.7127
161.7148, 317.4479
162.1969, 321.9491
162.6790, 326.9802
163.1611, 329.3731
163.6432, 328.3933
164.1253, 324.3218
164.6075, 315.3052
165.0896, 301.2063
165.5717, 289.4391
166.0538, 285.5423
166.5359, 286.3519
167.0180, 287.2945
167.5002, 286.2695
167.9823, 284.7932
168.4644, 283.3013
168.9465, 281.4873
169.4286, 282.0138
169.9107, 289.1796
170.3929, 300.2080
170.8750, 309.4395
171.3571, 314.9973
171.8392, 316.7533
172.3213, 313.1750
172.8034, 302.5029
173.2856, 291.7916
173.7677, 287.9331
174.2498, 289.6683
174.7319, 292.7072
175.2140, 295.3306
175.6961, 297.4132
176.1783, 298.4251
176.6604, 297.5334
177.1425, 296.8499
177.6246, 299.7773
178.1067, 305.7632
178.5888, 311.4177
179.0710, 315.6764
179.5531, 317.7447
180.0352, 314.9778
180.5173, 304.1476
180.9994, 290.8875
181.4815, 285.1308
181.9637, 286.6550
182.4458, 290.0545
182.9279, 290.9771
183.4100, 289.9854
183.8921, 288.9886
184.3742, 287.0338
184.8564, 286.0786
185.3385, 293.0281
185.8206, 308.6582
186.3027, 323.4970
186.7848, 325.7350
187.2669, 317.0934
187.7491, 310.9903
188.2312, 315.2378
188.7133, 325.7899
189.1954, 326.0230
189.6775, 314.2528
190.1596, 299.6576
190.6418, 292.8331
191.1239, 293.7166
191.6060, 297.5717
192.0881, 305.5847
192.5702, 316.5377
193.0524, 317.8296
193.5345, 307.0127
194.0166, 292.9076
194.4987, 290.2993
194.9808, 299.9271
195.4629, 309.9283
195.9451, 314.7633
196.4272, 314.5844
196.9093, 313.4673
197.3914, 311.3675
197.8735, 308.5999
198.3556, 305.2436
198.8378, 301.0166
199.3199, 298.0282
199.8020, 298.4852
200.2841, 302.7955
200.7662, 304.0765
201.2483, 301.0554
201.7305, 295.5949
202.2126, 292.3815
202.6947, 291.8818
203.1768, 291.8874
203.6589, 291.2050
204.1410, 289.8206
204.6232, 287.6968
205.1053, 284.2345
205.5874, 280.2888
206.0695, 279.1318
206.5516, 281.6943
207.0337, 284.6009
207.5159, 285.8008
207.9980, 285.2809
208.4801, 282.7893
208.9622, 277.3207
209.4443, 269.8723
209.9264, 265.3876
210.4086, 264.3324
210.8907, 265.3142
211.3728, 267.7219
211.8549, 272.2872
212.3370, 275.8089
212.8191, 277.6316
213.3013, 277.9396
213.7834, 278.1808
214.2655, 277.8014
214.7476, 278.2550
215.2297, 281.8168
215.7118, 291.3243
216.1940, 295.8164
216.6761, 291.4889
217.1582, 278.9158
217.6403, 271.3669
218.1224, 269.9440
218.6045, 272.1681
219.0867, 276.2776
219.5688, 283.5141
220.0509, 289.8049
220.5330, 295.2566
221.0151, 300.0652
221.4972, 297.3280
221.9794, 282.1176
222.4615, 264.8390
222.9436, 257.1669
223.4257, 264.1023
223.9078, 270.2889
224.3899, 271.2843
224.8721, 266.3611
225.3542, 266.4063
225.8363, 274.2398
226.3184, 284.3646
226.8005, 290.3951
227.2827, 291.0675
227.7648, 289.9174
228.2469, 287.6233
228.7290, 284.1390
229.2111, 279.7284
229.6932, 273.1253
230.1754, 266.6723
230.6575, 263.7175
231.1396, 266.5099
231.6217, 268.8272
232.1038, 268.4672
232.5859, 264.4504
233.0681, 263.2568
233.5502, 266.5219
234.0323, 271.4289
234.5144, 273.8281
234.9965, 272.3639
235.4786, 270.6561
235.9608, 270.0125
236.4429, 271.0247
236.9250, 270.1964
237.4071, 266.0740
237.8892, 261.0204
238.3713, 258.9071
238.8535, 261.1197
239.3356, 263.9791
239.8177, 266.5677
240.2998, 269.1351
240.7819, 270.3160
241.2640, 269.1082
241.7462, 267.1154
242.2283, 267.1071
242.7104, 269.6831
243.1925, 273.3285
243.6746, 278.6236
244.1567, 288.0760
244.6389, 289.6858
245.1210, 278.1616
245.6031, 261.9542
246.0852, 257.0811
246.5673, 270.8255
247.0494, 283.4644
247.5316, 287.1457
248.0137, 277.8725
248.4958, 273.5929
248.9779, 277.4488
249.4600, 284.5556
249.9421, 285.4408
250.4243, 277.1742
250.9064, 267.9340
251.3885, 260.1703
251.8706, 253.2634
252.3527, 249.9981
252.8348, 251.0050
253.3170, 255.2356
253.7991, 261.6127
254.2812, 272.8674
254.7633, 280.9032
255.2454, 282.0292
255.7275, 274.2114
256.2097, 267.0376
256.6918, 261.1253
257.1739, 255.5157
257.6560, 247.2193
258.1381, 232.4315
258.6202, 222.8552
259.1024, 224.2865
259.5845, 240.1447
260.0666, 252.8295
260.5487, 262.0246
261.0308, 268.2477
261.5129, 273.2015
261.9951, 277.9653
262.4772, 278.7051
262.9593, 272.0250
263.4414, 254.7647
263.9235, 245.2869
264.4056, 245.4575
264.8878, 251.6008
265.3699, 258.1093
265.8520, 266.0415
266.3341, 271.4403
266.8162, 271.6636
267.2983, 265.3377
267.7805, 263.2524
268.2626, 267.4215
268.7447, 273.6129
269.2268, 273.4151
269.7089, 264.4820
270.1910, 257.6021
270.6732, 257.8783
271.1553, 266.2841
271.6374, 272.2535
272.1195, 275.2177
272.6016, 276.5869
273.0837, 278.5055
273.5659, 281.1180
274.0480, 283.6162
274.5301, 286.4580
275.0122, 289.7545
275.4943, 288.5789
275.9764, 281.3441
276.4586, 272.6230
276.9407, 269.2290
277.4228, 271.5438
277.9049, 276.1549
278.3870, 283.8407
278.8691, 294.1936
279.3513, 296.0722
279.8334, 287.0055
280.3155, 275.8190
280.7976, 275.8504
281.2798, 287.6176
281.7619, 298.4611
282.2440, 303.4359
282.7261, 303.2117
283.2082, 302.4903
283.6903, 301.0715
284.1725, 299.8925
284.6546, 300.6011
285.1367, 303.0971
285.6188, 304.8798
286.1009, 304.7062
286.5830, 303.0677
287.0652, 302.1095
287.5473, 301.9168
288.0294, 301.9443
288.5115, 301.3900
288.9936, 300.3780
289.4757, 300.0630
289.9579, 302.1581
290.4400, 304.9060
290.9221, 302.6096
291.4042, 294.9399
291.8863, 286.3309
292.3684, 280.1514
292.8506, 276.5314
293.3327, 276.0816
293.8148, 280.8464
294.2969, 287.8232
294.7790, 291.3314
295.2611, 291.3690
295.7433, 289.5243
296.2254, 286.3307
296.7075, 282.2311
297.1896, 278.4045
297.6717, 273.9841
298.1538, 270.9476
298.6360, 273.7209
299.1181, 281.8522
299.6002, 289.6983
300.0823, 295.3523
300.5644, 297.4445
301.0465, 292.5684
301.5287, 275.4746
302.0108, 256.5484
302.4929, 247.6553
302.9750, 247.7270
303.4571, 251.1301
303.9392, 256.6263
304.4214, 262.3749
304.9035, 265.9982
305.3856, 266.6697
305.8677, 265.3435
306.3498, 261.2373
306.8319, 255.3478
307.3141, 251.1216
307.7962, 252.3510
308.2783, 255.4672
308.7604, 256.9655
309.2425, 255.7719
309.7246, 253.6199
310.2068, 251.2210
310.6889, 248.6707
311.1710, 246.1916
311.6531, 240.5859
312.1352, 237.1001
312.6173, 241.3686
313.0995, 257.9403
313.5816, 271.3763
314.0637, 271.2259
314.5458, 263.1386
315.0279, 257.7792
315.5100, 261.6427
315.9922, 267.4931
316.4743, 271.5279
316.9564, 272.9303
317.4385, 274.0808
317.9206, 276.0088
318.4027, 278.0991
318.8849, 279.4914
319.3670, 279.1487
319.8491, 278.7780
320.3312, 279.1197
320.8133, 280.3900
321.2954, 281.3871
321.7776, 279.8560
322.2597, 278.7092
322.7418, 281.0511
323.2239, 293.5057
323.7060, 303.3236
324.1881, 306.6695
324.6703, 302.8992
325.1524, 299.5087
325.6345, 296.8920
326.1166, 294.9403
326.5987, 293.5366
327.0808, 292.2675
327.5630, 292.0570
328.0451, 294.0030
328.5272, 297.8999
329.0093, 299.1097
329.4914, 295.0792
329.9735, 290.6570
330.4557, 289.4426
330.9378, 296.1727
331.4199, 297.5201
331.9020, 289.5020
332.3841, 274.8183
332.8662, 266.9631
333.3484, 268.8088
333.8305, 273.2441
334.3126, 277.3604
334.7947, 282.7706
335.2768, 281.9018
335.7589, 270.7597
336.2411, 255.1346
336.7232, 250.6830
337.2053, 261.0485
337.6874, 272.0516
338.1695, 277.2269
338.6516, 276.0564
339.1338, 272.2905
339.6159, 264.3631
340.0980, 256.4865
340.5801, 258.6644
341.0622, 272.5640
341.5443, 281.0932
342.0265, 273.5378
342.5086, 252.3575
342.9907, 240.4556
343.4728, 238.8864
343.9549, 242.8773
344.4370, 249.3915
344.9192, 257.7669
345.4013, 261.5738
345.8834, 256.1328
346.3655, 245.1165
346.8476, 237.5661
347.3297, 233.4878
347.8119, 232.9486
348.2940, 239.6160
348.7761, 250.4216
349.2582, 255.6763
349.7403, 250.0525
350.2225, 240.4232
350.7046, 237.1593
351.1867, 239.4664
351.6688, 241.4422
352.1509, 235.8990
352.6331, 228.0526
353.1152, 226.9718
353.5973, 238.7811
354.0794, 250.0569
354.5615, 244.8258
355.0436, 228.3442
355.5258, 216.6088
356.0079, 225.2569
356.4900, 238.7008
356.9721, 242.1071
357.4542, 230.1370
357.9363, 218.5219
358.4185, 217.5605
358.9006, 222.7672
359.3827, 226.3809
359.8648, 224.1053
360.3469, 220.4652
360.8290, 216.9896
361.3112, 213.4680
361.7933, 212.7560
362.2754, 217.8223
362.7575, 225.3676
363.2396, 231.8329
363.7217, 238.5838
364.2039, 241.9263
364.6860, 239.1238
365.1681, 230.0907
365.6502, 223.4849
366.1323, 222.5289
366.6144, 222.8986
367.0966, 221.6050
367.5787, 216.4473
368.0608, 212.2103
368.5429, 209.0508
369.0250, 206.9961
369.5071, 206.2650
369.9893, 207.3372
370.4714, 209.1636
370.9535, 211.4072
371.4356, 214.6624
371.9177, 216.9655
372.3998, 218.3811
372.8820, 218.7842
373.3641, 217.4224
373.8462, 213.1678
374.3283, 210.1445
374.8104, 211.3426
375.2925, 217.6101
375.7747, 217.2020
376.2568, 208.0818
376.7389, 196.3186
377.2210, 190.0575
377.7031, 189.5566
378.1852, 190.9275
378.6674, 193.5302
379.1495, 197.0170
379.6316, 200.3771
380.1137, 203.6940
380.5958, 205.8725
381.0779, 205.7616
381.5601, 203.5453
382.0422, 199.8062
382.5243, 193.4013
383.0064, 187.0957
383.4885, 187.2276
383.9706, 192.8096
384.4528, 196.5576
384.9349, 191.2451
385.4170, 181.4475
385.8991, 174.6892
386.3812, 172.3910
386.8633, 172.0273
387.3455, 172.5125
387.8276, 173.1806
388.3097, 172.4975
388.7918, 166.5213
389.2739, 160.9196
389.7560, 161.2709
390.2382, 168.5144
390.7203, 175.4763
391.2024, 178.0138
391.6845, 178.2252
392.1666, 178.5513
392.6487, 182.2838
393.1309, 183.9162
393.6130, 179.1468
394.0951, 168.7551
394.5772, 161.9808
395.0593, 164.5293
395.5414, 169.3041
396.0236, 171.8532
396.5057, 170.4289
396.9878, 168.1011
397.4699, 163.8312
397.9520, 158.6791
398.4341, 155.9754
398.9163, 156.4112
399.3984, 158.6188
399.8805, 162.8712
400.3626, 171.4199
400.8447, 174.8465
401.3268, 169.5455
401.8090, 161.7844
402.2911, 161.1860
402.7732, 171.2424
403.2553, 179.3841
403.7374, 182.3009
404.2195, 180.1719
404.7017, 175.3010
405.1838, 166.3141
405.6659, 158.2628
406.1480, 156.6209
406.6301, 161.4775
407.1122, 165.7082
407.5944, 168.1581
408.0765, 169.1263
408.5586, 169.0058
409.0407, 167.8136
409.5228, 166.3508
410.0049, 164.4691
410.4871, 162.7208
410.9692, 163.1077
411.4513, 166.3024
411.9334, 169.7429
412.4155, 170.2207
412.8976, 168.5353
413.3798, 167.0000
413.8619, 167.0903
414.3440, 167.6034
414.8261, 167.4986
415.3082, 166.7362
415.7903, 165.0804
416.2725, 160.0400
416.7546, 154.8865
417.2367, 153.3857
417.7188, 161.1973
418.2009, 168.0119
418.6830, 167.9041
419.1652, 162.5660
419.6473, 158.2048
420.1294, 158.3638
420.6115, 158.9406
421.0937, 157.4982
421.5758, 152.3867
422.0579, 148.1934
422.5400, 144.7413
423.0221, 142.7015
423.5042, 143.1758
423.9864, 149.2982
424.4685, 154.4163
424.9506, 156.6812
425.4327, 155.7589
425.9148, 155.9052
426.3969, 157.4356
426.8791, 159.6716
427.3612, 162.3270
427.8433, 166.0497
428.3254, 168.2966
428.8075, 169.2005
429.2896, 168.1644
429.7718, 161.7332
430.2539, 148.5454
430.7360, 137.0791
431.2181, 133.4967
431.7002, 137.2158
432.1823, 139.8095
432.6645, 140.8171
433.1466, 140.8494
433.6287, 139.7524
434.1108, 138.0125
434.5929, 138.2603
435.0750, 145.2074
435.5572, 153.2444
436.0393, 150.0052
436.5214, 136.0525
437.0035, 123.2973
437.4856, 123.2435
437.9677, 129.6225
438.4499, 133.2721
438.9320, 129.1612
439.4141, 126.4010
439.8962, 134.7570
440.3783, 149.8148
440.8604, 160.4391
441.3426, 159.9951
441.8247, 154.8865
442.3068, 146.9116
442.7889, 134.6217
443.2710, 127.5274
443.7531, 131.7223
444.2353, 141.0288
444.7174, 148.6903
445.1995, 158.5416
445.6816, 161.3137
446.1637, 149.8832
446.6458, 126.5303
447.1280, 115.1776
447.6101, 122.8186
448.0922, 134.7846
448.5743, 143.3283
449.0564, 147.8503
449.5385, 150.5452
450.0207, 150.8649
450.5028, 149.9423
450.9849, 150.3194
451.4670, 152.5646
451.9491, 153.1061
452.4312, 149.2026
452.9134, 141.8810
453.3955, 139.8157
453.8776, 143.5876
454.3597, 148.4599
454.8418, 148.5829
455.3239, 145.4996
455.8061, 146.4380
456.2882, 155.6565
456.7703, 165.5172
457.2524, 162.9293
457.7345, 150.6617
458.2166, 139.9298
458.6988, 138.4781
459.1809, 141.5981
459.6630, 145.0830
460.1451, 148.8111
460.6272, 150.7577
461.1093, 147.0084
461.5915, 141.5352
462.0736, 139.3625
462.5557, 147.8396
463.0378, 154.3189
463.5199, 152.7090
464.0020, 144.0646
464.4842, 136.6246
464.9663, 130.7410
465.4484, 127.5610
465.9305, 127.8414
466.4126, 133.7377
466.8947, 139.4350
467.3769, 146.2239
467.8590, 152.2408
468.3411, 153.9176
468.8232, 148.1681
469.3053, 144.3432
469.7874, 145.9844
470.2696, 152.6024
470.7517, 154.4424
471.2338, 150.1861
471.7159, 145.2101
472.1980, 145.3266
472.6801, 150.3374
473.1623, 151.1704
473.6444, 145.3586
474.1265, 137.1866
474.6086, 133.5607
475.0907, 134.1433
475.5728, 136.7476
476.0550, 143.0616
476.5371, 149.6850
477.0192, 149.8102
477.5013, 143.1405
477.9834, 136.4050
478.4655, 136.2677
478.9477, 138.7177
479.4298, 138.2523
479.9119, 129.2611
480.3940, 121.9942
480.8761, 123.1056
481.3582, 130.3531
481.8404, 137.3218
482.3225, 144.3808
482.8046, 148.6543
483.2867, 147.3531
483.7688, 136.9581
484.2509, 132.4386
484.7331, 143.1375
485.2152, 156.0853
485.6973, 158.6552
486.1794, 141.5379
486.6615, 130.1629
487.1436, 129.9830
487.6258, 138.2980
488.1079, 141.7423
488.5900, 138.3013
489.0721, 135.5063
489.5542, 139.4104
490.0363, 150.1452
490.5185, 152.6752
491.0006, 144.7709
491.4827, 134.7516
491.9648, 134.8981
492.4470, 143.2819
492.9291, 149.3482
493.4112, 148.5665
493.8933, 144.2267
494.3754, 139.5371
494.8575, 134.9820
495.3397, 133.8778
495.8218, 143.5111
496.3039, 155.2645
496.7860, 159.0683
497.2681, 151.9994
497.7502, 143.0205
498.2324, 134.8972
498.7145, 128.2743
499.1966, 123.8748
499.6787, 122.8553
500.1608, 123.2228
500.6429, 124.2865
501.1251, 126.0872
501.6072, 129.5467
502.0893, 138.6254
502.5714, 145.9690
503.0535, 147.6262
503.5356, 139.8663
504.0178, 135.3754
504.4999, 134.9350
504.9820, 137.1137
505.4641, 140.1931
505.9462, 144.4833
506.4283, 148.1544
506.9105, 151.2896
507.3926, 153.2379
507.8747, 150.4151
508.3568, 142.5606
508.8389, 134.4547
509.3210, 127.6101
509.8032, 123.1665
510.2853, 125.7389
510.7674, 137.5107
511.2495, 149.3861
511.7316, 151.1901
512.2137, 146.2439
512.6959, 141.3137
513.1780, 138.5982
513.6601, 137.3391
514.1422, 136.9640
514.6243, 137.5496
515.1064, 139.6520
515.5886, 146.4570
516.0707, 152.7794
516.5528, 155.0836
517.0349, 150.4817
517.5170, 147.0372
517.9991, 147.4303
518.4813, 148.6552
518.9634, 146.7038
519.4455, 139.0763
519.9276, 132.5507
520.4097, 128.5044
520.8918, 126.7395
521.3740, 125.3066
521.8561, 123.8117
522.3382, 123.9540
522.8203, 127.9499
523.3024, 135.4293
523.7845, 140.5416
524.2667, 142.8504
524.7488, 143.2802
525.2309, 142.9977
525.7130, 141.8447
526.1951, 139.0851
526.6772, 132.1784
527.1594, 125.6923
527.6415, 126.9295
528.1236, 134.0649
528.6057, 139.1012
529.0878, 134.5659
529.5699, 128.0545
530.0521, 125.5237
530.5342, 128.5163
531.0163, 131.8248
531.4984, 133.7177
531.9805, 135.1367
532.4626, 137.0923
532.9448, 141.9896
533.4269, 144.6184
533.9090, 143.0303
534.3911, 138.6025
534.8732, 137.1784
535.3553, 141.1689
535.8375, 143.5340
536.3196, 139.6411
536.8017, 128.8279
537.2838, 125.9042
537.7659, 132.6519
538.2480, 141.3312
538.7302, 143.5974
539.2123, 140.1888
539.6944, 135.7124
540.1765, 130.3881
540.6586, 125.8600
541.1407, 124.7171
541.6229, 126.3686
542.1050, 128.6449
542.5871, 129.9335
543.0692, 131.6191
543.5513, 136.0974
544.0334, 143.3912
544.5156, 148.1557
544.9977, 146.8514
545.4798, 142.5790
545.9619, 137.5254
546.4440, 128.8838
546.9261, 124.2702
547.4083, 128.2731
547.8904, 136.2773
548.3725, 139.6128
548.8546, 133.9766
549.3367, 130.9065
549.8188, 134.3463
550.3010, 143.4981
550.7831, 148.5303
551.2652, 148.3591
551.7473, 147.6898
552.2294, 151.9259
552.7115, 159.9989
553.1937, 159.3455
553.6758, 147.4137
554.1579, 133.2284
554.6400, 127.9176
555.1221, 129.4157
555.6042, 131.8772
556.0864, 133.0560
556.5685, 134.4689
557.0506, 139.2872
557.5327, 146.0593
558.0148, 149.2681
558.4969, 140.4710
558.9791, 131.6112
559.4612, 131.0932
559.9433, 141.7240
560.4254, 150.4684
560.9075, 156.5298
561.3896, 158.7080
561.8718, 155.8031
562.3539, 141.9967
562.8360, 133.2659
563.3181, 132.9907
563.8002, 137.5111
564.2823, 137.2653
564.7645, 130.7635
565.2466, 126.2676
565.7287, 127.8829
566.2108, 134.2511
566.6929, 139.2293
567.1750, 142.7971
567.6572, 144.5191
568.1393, 142.7585
568.6214, 139.0555
569.1035, 136.7762
569.5856, 136.8022
570.0677, 136.7306
570.5499, 133.8322
571.0320, 129.6596
571.5141, 126.6510
571.9962, 126.5763
572.4783, 126.9594
572.9604, 126.0485
573.4426, 124.4494
573.9247, 125.3335
574.4068, 131.7698
574.8889, 138.4616
575.3710, 143.2427
575.8531, 145.5368
576.3353, 149.3090
576.8174, 157.1214
577.2995, 162.5555
577.7816, 156.8825
578.2637, 138.4543
578.7458, 127.8067
579.2280, 129.8804
579.7101, 137.3714
580.1922, 136.5130
580.6743, 128.8289
581.1564, 122.9242
581.6385, 124.5020
582.1207, 129.1852
582.6028, 131.4974
583.0849, 131.6327
583.5670, 131.2909
584.0491, 131.8957
584.5313, 132.1484
585.0134, 130.3950
585.4955, 124.9438
585.9776, 122.2648
586.4597, 127.1949
586.9418, 134.4247
587.4240, 137.8103
587.9061, 134.3817
588.3882, 131.4020
588.8703, 128.8771
589.3524, 127.5037
589.8345, 130.4135
590.3167, 139.3246
590.7988, 145.8763
591.2809, 145.4883
591.7630, 139.5734
592.2451, 135.1628
592.7272, 132.2975
593.2094, 129.9354
593.6915, 126.8911
594.1736, 123.7978
594.6557, 121.7387
595.1378, 120.8434
595.6199, 121.3577
596.1021, 124.6429
596.5842, 129.1585
597.0663, 132.7216
597.5485, 133.9653
598.0306, 134.7645
598.5127, 136.8045
598.9948, 139.1781
599.4769, 137.7686
599.9590, 125.8409
600.4412, 118.0499
600.9233, 121.0875
601.4054, 136.0852
601.8875, 143.4863
602.3696, 141.1022
602.8517, 136.3427
603.3339, 135.8837
603.8160, 139.2835
604.2981, 140.8921
604.7802, 140.0548
605.2623, 137.3593
605.7444, 133.0694
606.2266, 127.4645
606.7087, 121.4186
607.1908, 113.3876
607.6729, 106.8395
608.1550, 104.5871
608.6371, 106.0748
609.1193, 109.4171
609.6014, 117.0430
610.0835, 123.6147
610.5656, 126.3514
611.0477, 124.7452
611.5298, 121.7956
612.0120, 115.5626
612.4941, 110.1124
612.9762, 108.7638
613.4583, 113.4023
613.9404, 114.8485
614.4225, 111.4487
614.9047, 107.0513
615.3868, 107.5001
615.8689, 112.4760
616.3510, 117.8761
616.8331, 123.1160
617.3152, 127.3561
617.7974, 128.7499
618.2795, 127.8575
618.7616, 126.9469
619.2437, 127.1468
619.7258, 127.8895
620.2079, 129.2332
620.6901, 131.1361
621.1722, 131.8325
621.6543, 131.0378
622.1364, 128.5970
622.6185, 123.7244
623.1006, 112.2480
623.5828, 107.9129
624.0649, 114.5277
624.5470, 124.7908
625.0291, 129.6975
625.5112, 128.1436
625.9933, 127.3609
626.4755, 129.2527
626.9576, 131.7976
627.4397, 128.5861
627.9218, 120.8201
628.4039, 117.6715
628.8860, 128.7783
629.3682, 144.4471
629.8503, 151.9545
630.3324, 151.8162
630.8145, 148.0097
631.2966, 139.4439
631.7787, 130.4496
632.2609, 123.6215
632.7430, 118.8721
633.2251, 118.0102
633.7072, 125.6700
634.1893, 134.7752
634.6714, 139.6357
635.1536, 139.4446
635.6357, 136.2186
636.1178, 128.2650
636.5999, 119.3056
637.0820, 116.9233
637.5641, 121.3990
638.0463, 125.9451
638.5284, 127.8598
639.0105, 128.9611
639.4926, 134.2709
639.9747, 142.8410
640.4568, 149.0555
640.9390, 149.0823
641.4211, 145.5344
641.9032, 138.9648
642.3853, 129.4681
642.8674, 123.9707
643.3495, 129.6554
643.8317, 137.3709
644.3138, 140.6851
644.7959, 135.8525
645.2780, 132.4293
645.7601, 131.5530
646.2422, 131.1001
646.7244, 127.8255
647.2065, 120.6297
647.6886, 116.7338
648.1707, 118.2431
648.6528, 122.5321
649.1349, 125.2091
649.6171, 126.1939
650.0992, 125.0632
650.5813, 118.9654
651.0634, 112.2916
651.5455, 111.6963
652.0276, 115.9936
652.5098, 118.8412
652.9919, 112.6939
653.4740, 107.2701
653.9561, 110.3167
654.4382, 124.7714
654.9203, 134.0726
655.4025, 131.8635
655.8846, 127.4373
656.3667, 127.2378
656.8488, 133.6060
657.3309, 137.1977
657.8130, 137.5690
658.2952, 135.3786
658.7773, 130.1078
659.2594, 122.1640
659.7415, 117.0461
660.2236, 116.5961
660.7057, 118.9405
661.1879, 122.6282
661.6700, 127.0402
662.1521, 130.3990
662.6342, 130.9344
663.1163, 130.9268
663.5984, 131.7912
664.0806, 133.4475
664.5627, 134.9273
665.0448, 136.4748
665.5269, 137.3304
666.0090, 137.5638
666.4911, 137.4893
666.9733, 133.2551
667.4554, 121.2626
667.9375, 112.2470
668.4196, 119.3669
668.9017, 141.7709
669.3839, 149.5310
669.8660, 137.4090
670.3481, 122.6172
670.8302, 129.2082
671.3123, 147.9129
671.7944, 158.1349
672.2766, 148.7419
672.7587, 136.8395
673.2408, 133.5363
673.7229, 135.7366
674.2050, 137.2944
674.6871, 136.8157
675.1693, 135.1335
675.6514, 129.9819
676.1335, 123.0766
676.6156, 124.6382
677.0977, 139.0777
677.5798, 151.9559
678.0620, 156.7666
678.5441, 154.1697
679.0262, 149.0087
679.5083, 141.0081
679.9904, 134.2722
680.4725, 132.4232
680.9547, 133.9516
681.4368, 137.2899
681.9189, 142.6752
682.4010, 145.5904
682.8831, 139.5724
683.3652, 131.1753
683.8474, 127.3481
684.3295, 134.9108
684.8116, 138.6953
685.2937, 133.1038
685.7758, 124.0802
686.2579, 119.0016
686.7401, 118.0311
687.2222, 121.0546
687.7043, 129.7177
688.1864, 140.7893
688.6685, 146.9807
689.1506, 148.3718
689.6328, 146.1520
690.1149, 138.1782
690.5970, 128.6237
691.0791, 124.6439
691.5612, 125.1316
692.0433, 124.5663
692.5255, 115.1255
693.0076, 107.5219
693.4897, 112.1882
693.9718, 131.6615
694.4539, 139.6887
694.9360, 119.7980
695.4182, 99.62782
695.9003, 94.71801
696.3824, 109.7587
696.8645, 120.6652
697.3466, 127.0379
697.8287, 130.3226
698.3109, 131.5443
698.7930, 130.8855
699.2751, 128.7108
699.7572, 124.3801
700.2393, 121.2161
700.7214, 124.1343
701.2036, 130.3126
701.6857, 135.0560
702.1678, 136.4889
702.6499, 136.4423
703.1320, 134.4718
703.6141, 131.5387
704.0963, 130.2285
704.5784, 133.6548
705.0605, 133.8863
705.5426, 127.1947
706.0247, 116.1504
706.5068, 113.5390
706.9890, 120.4007
707.4711, 126.7727
707.9532, 124.8135
708.4353, 119.1696
708.9174, 124.9614
709.3995, 140.7626
709.8817, 152.3059
710.3638, 143.7552
710.8459, 130.4347
711.3280, 127.1404
711.8101, 136.7799
712.2922, 143.6772
712.7744, 140.7641
713.2565, 135.5814
713.7386, 133.2722
714.2207, 135.1030
714.7028, 136.5998
715.1849, 137.7776
715.6671, 138.6188
716.1492, 139.7814
716.6313, 141.0293
717.1134, 139.0214
717.5955, 132.3786
718.0776, 125.0074
718.5598, 120.3619
719.0419, 118.7117
719.5240, 120.7066
720.0061, 130.0212
720.4882, 138.8302
720.9703, 143.2201
721.4525, 144.5576
721.9346, 146.0058
722.4167, 149.7963
722.8988, 151.3507
723.3809, 149.4169
723.8630, 144.6510
724.3452, 139.1430
724.8273, 132.6244
725.3094, 127.3791
725.7915, 124.4401
726.2736, 123.6100
726.7557, 125.0339
727.2379, 128.4607
727.7200, 131.9106
728.2021, 135.4220
728.6842, 137.4727
729.1663, 136.1803
729.6484, 131.2978
730.1306, 126.7450
730.6127, 122.4210
731.0948, 119.8228
731.5769, 120.1196
732.0590, 124.5222
732.5411, 126.6522
733.0233, 126.0359
733.5054, 124.2101
733.9875, 122.4479
734.4696, 120.7062
734.9517, 118.3538
735.4338, 115.0379
735.9160, 112.7370
736.3981, 114.3512
736.8802, 117.9985
737.3623, 120.9912
737.8444, 122.8305
738.3266, 123.5016
738.8087, 121.6230
739.2908, 119.0435
739.7729, 118.6427
740.2551, 122.8204
740.7372, 124.7796
741.2193, 122.6979
741.7014, 118.8711
742.1835, 118.2845
742.6656, 120.9760
743.1478, 124.1003
743.6299, 126.5126
744.1120, 129.1757
744.5941, 135.9899
745.0762, 144.6726
745.5583, 148.3428
746.0405, 135.5983
746.5226, 124.2969
747.0047, 128.4196
747.4868, 144.4755
747.9689, 150.9829
748.4510, 135.7234
748.9332, 123.1483
749.4153, 121.8694
749.8974, 130.7588
750.3795, 136.2654
750.8616, 138.0546
751.3438, 138.9595
751.8259, 142.4491
752.3080, 146.0047
752.7901, 141.5019
753.2722, 129.3131
753.7543, 119.4513
754.2365, 121.2220
754.7186, 126.2591
755.2007, 127.7631
755.6828, 124.2729
756.1649, 121.3899
756.6470, 118.5632
757.1292, 117.8996
757.6113, 121.4713
758.0934, 130.9663
758.5755, 136.8835
759.0576, 138.7572
759.5397, 138.7647
760.0219, 139.6043
760.5040, 140.4840
760.9861, 138.1451
761.4682, 131.4355
761.9503, 125.2268
762.4324, 124.0423
762.9146, 125.2283
763.3967, 125.6349
763.8788, 123.8587
764.3609, 122.3389
764.8430, 122.7574
765.3251, 122.8946
765.8073, 119.0185
766.2894, 108.4836
766.7715, 105.3903
767.2536, 114.1140
767.7357, 126.5298
768.2178, 127.8367
768.7000, 120.5611
769.1821, 115.1499
769.6642, 114.9479
770.1463, 117.8150
770.6284, 125.5301
771.1105, 134.5120
771.5927, 137.8378
772.0748, 127.3672
772.5569, 117.8660
773.0390, 111.4134
773.5211, 108.5649
774.0032, 112.6512
774.4854, 126.8017
774.9675, 135.6785
775.4496, 132.6206
775.9317, 123.1764
776.4138, 121.5441
776.8959, 126.5209
777.3781, 131.4962
777.8602, 132.8919
778.3423, 132.9108
778.8244, 133.5341
779.3065, 134.4544
779.7886, 134.2747
780.2708, 134.2379
780.7529, 131.0081
781.2350, 121.2925
781.7171, 106.4500
782.1992, 99.92912
782.6813, 103.3171
783.1635, 108.9649
783.6456, 113.7927
784.1277, 117.7608
784.6098, 120.5785
785.0919, 122.3434
785.5740, 124.1377
786.0562, 128.4908
786.5383, 131.8668
787.0204, 129.8960
787.5025, 122.4117
787.9846, 117.6767
788.4667, 119.9925
788.9489, 123.3167
789.4310, 125.5633
789.9131, 126.7508
790.3952, 125.7688
790.8773, 122.1451
791.3594, 118.5914
791.8416, 117.7494
792.3237, 118.4806
792.8058, 117.2723
793.2879, 113.9909
793.7700, 111.5815
794.2521, 111.9565
794.7343, 114.1484
795.2164, 117.9159
795.6985, 123.9801
796.1806, 128.0840
796.6627, 128.1480
797.1448, 128.0534
797.6270, 131.1677
798.1091, 138.5211
798.5912, 139.6861
799.0733, 133.5831
799.5554, 126.7995
800.0375, 126.5063
800.5197, 129.9152
801.0018, 132.0648
801.4839, 132.3366
801.9660, 130.7320
802.4481, 125.0017
802.9302, 118.7868
803.4124, 115.2323
803.8945, 115.9630
804.3766, 116.9920
804.8587, 119.0544
805.3408, 120.4422
805.8229, 117.9547
806.3051, 111.6552
806.7872, 112.7491
807.2693, 123.1960
807.7514, 134.9568
808.2335, 141.6165
808.7156, 143.6131
809.1978, 140.5499
809.6799, 130.2846
810.1620, 121.9628
810.6441, 121.1707
811.1262, 123.1251
811.6083, 123.3021
812.0905, 121.8770
812.5726, 116.6577
813.0547, 104.0826
813.5368, 94.58324
814.0189, 106.8555
814.5010, 135.5881
814.9832, 147.6737
815.4653, 135.3677
815.9474, 117.5607
816.4295, 108.8836
816.9116, 106.1021
817.3937, 105.6668
817.8759, 109.2895
818.3580, 110.1476
818.8401, 102.8920
819.3222, 94.88586
819.8043, 93.75665
820.2864, 101.5902
820.7686, 106.0011
821.2507, 104.7086
821.7328, 103.3094
822.2149, 112.1191
822.6970, 126.3191
823.1791, 133.2861
823.6613, 128.6870
824.1434, 121.2874
824.6255, 113.5157
825.1076, 107.6559
825.5897, 106.3737
826.0718, 114.5598
826.5540, 121.1417
827.0361, 125.9476
827.5182, 129.3945
828.0003, 131.9554
828.4824, 133.6128
828.9645, 134.3098
829.4467, 133.7583
829.9288, 133.3846
830.4109, 135.4457
830.8930, 138.5525
831.3751, 140.6845
831.8572, 141.5085
832.3394, 140.8264
832.8215, 138.2666
833.3036, 134.2495
833.7857, 128.7794
834.2678, 119.7714
834.7499, 116.0885
835.2321, 119.5360
835.7142, 125.5146
836.1963, 127.7698
836.6784, 127.6046
837.1605, 131.1038
837.6426, 141.0403
838.1248, 147.1656
838.6069, 135.9398
839.0890, 119.1905
839.5711, 110.3530
840.0532, 117.5547
840.5353, 122.8766
841.0175, 123.3996
841.4996, 123.4639
841.9817, 128.6783
842.4638, 139.4560
842.9459, 145.5095
843.4280, 145.7493
843.9102, 141.8377
844.3923, 131.6104
844.8744, 119.7303
845.3565, 114.0422
845.8386, 116.9237
846.3207, 122.6896
846.8029, 133.4849
847.2850, 143.2686
847.7671, 146.6094
848.2492, 140.9421
848.7313, 135.1934
849.2134, 128.5888
849.6956, 123.9976
850.1777, 125.5081
850.6598, 131.4769
851.1419, 136.7541
851.6240, 140.9178
852.1061, 142.4912
852.5883, 140.5940
853.0704, 135.4858
853.5525, 125.7893
854.0346, 106.9498
854.5167, 98.36283
854.9988, 105.5949
855.4810, 117.0590
855.9631, 126.1697
856.4452, 132.9868
856.9273, 132.0728
857.4094, 122.7583
857.8915, 113.3285
858.3737, 111.9557
858.8558, 114.3988
859.3379, 115.3758
859.8200, 114.1564
860.3021, 113.0978
860.7842, 111.0908
861.2664, 111.4009
861.7485, 116.7767
862.2306, 128.2325
862.7127, 134.2900
863.1948, 134.0575
863.6769, 132.5641
864.1591, 134.5405
864.6412, 137.6562
865.1233, 134.8302
865.6054, 126.4362
866.0875, 120.3666
866.5696, 123.4315
867.0518, 128.5147
867.5339, 131.5881
868.0160, 132.2687
868.4981, 131.2140
868.9802, 127.0962
869.4623, 124.0523
869.9445, 124.1478
870.4266, 126.9185
870.9087, 131.1657
871.3908, 136.6634
871.8729, 140.5079
872.3550, 141.4581
872.8372, 139.6607
873.3193, 133.4374
873.8014, 123.8722
874.2835, 117.0529
874.7656, 114.3908
875.2477, 114.9889
875.7299, 120.5159
876.2120, 128.7716
876.6941, 129.9943
877.1762, 124.2033
877.6583, 120.3125
878.1404, 123.5997
878.6226, 129.3938
879.1047, 131.6981
879.5869, 131.5049
880.0690, 131.4305
880.5511, 134.0574
881.0332, 135.0521
881.5153, 131.6358
881.9974, 126.2650
882.4796, 124.4985
882.9617, 127.4456
883.4438, 126.9278
883.9259, 119.1788
884.4080, 110.8876
884.8901, 115.3527
885.3723, 127.4438
885.8544, 135.0019
886.3365, 131.1728
886.8186, 126.2868
887.3007, 124.2333
887.7828, 124.0817
888.2650, 124.4680
888.7471, 125.2187
889.2292, 127.3574
889.7113, 132.0687
890.1934, 135.6929
890.6755, 130.8765
891.1577, 121.0196
891.6398, 117.2626
892.1219, 122.5827
892.6040, 129.5851
893.0861, 136.1907
893.5682, 140.2120
894.0504, 138.5033
894.5325, 125.2309
895.0146, 121.0434
895.4967, 129.8393
895.9788, 140.5062
896.4609, 143.1177
896.9431, 139.0429
897.4252, 136.7290
897.9073, 136.6292
898.3894, 136.3420
898.8715, 134.3822
899.3536, 131.1875
899.8358, 125.3693
900.3179, 116.2255
900.8000, 114.5417
901.2821, 127.1636
901.7642, 138.4695
902.2463, 140.5391
902.7285, 134.8496
903.2106, 133.5262
903.6927, 136.3693
904.1748, 137.9822
904.6569, 133.6345
905.1390, 127.5124
905.6212, 122.3621
906.1033, 118.8497
906.5854, 119.0817
907.0675, 129.6855
907.5496, 136.5107
908.0317, 133.1270
908.5139, 124.9045
908.9960, 132.1532
909.4781, 154.9368
909.9602, 167.5040
910.4423, 156.2626
910.9244, 137.8281
911.4066, 130.5125
911.8887, 130.9207
912.3708, 132.7419
912.8529, 135.0931
913.3350, 137.1666
913.8171, 138.5896
914.2993, 139.8218
914.7814, 142.2666
915.2635, 146.3162
915.7456, 145.4196
916.2277, 137.6177
916.7098, 129.1986
917.1920, 127.7794
917.6741, 130.3890
918.1562, 133.1331
918.6383, 135.7168
919.1204, 136.4644
919.6025, 133.3164
920.0847, 129.3675
920.5668, 126.1158
921.0489, 123.1450
921.5310, 125.5373
922.0131, 134.2365
922.4952, 140.4316
922.9774, 132.7516
923.4595, 120.0807
923.9416, 116.5326
924.4237, 122.3741
924.9058, 127.8549
925.3879, 129.2701
925.8701, 129.2653
926.3522, 128.8533
926.8343, 128.0603
927.3164, 126.6274
927.7985, 124.2791
928.2806, 123.8678
928.7628, 128.2176
929.2449, 133.8186
929.7270, 134.0444
930.2091, 130.9459
930.6912, 130.0887
931.1733, 137.6245
931.6555, 143.1965
932.1376, 143.1234
932.6197, 139.4058
933.1018, 134.7001
933.5839, 128.7237
934.0660, 123.0520
934.5482, 117.1207
935.0303, 114.0738
935.5124, 122.3286
935.9945, 135.0726
936.4766, 139.2699
936.9587, 127.7276
937.4409, 119.3876
937.9230, 124.2380
938.4051, 131.6471
938.8872, 132.8610
939.3693, 126.0439
939.8514, 124.9464
940.3336, 130.4519
940.8157, 135.3801
941.2978, 131.8009
941.7799, 124.8747
942.2620, 121.4100
942.7441, 121.8904
943.2263, 125.6329
943.7084, 140.6633
944.1905, 149.6287
944.6726, 141.9369
945.1547, 121.7886
945.6368, 117.9872
946.1190, 131.6272
946.6011, 142.3626
947.0832, 138.3802
947.5653, 129.6026
948.0474, 129.7693
948.5295, 135.5730
949.0117, 139.3210
949.4938, 136.1246
949.9759, 133.3630
950.4580, 131.6723
950.9401, 131.6771
951.4222, 135.4639
951.9044, 143.1653
952.3865, 147.3453
952.8686, 146.3648
953.3507, 143.8531
953.8328, 144.6746
954.3149, 145.7944
954.7971, 142.6569
955.2792, 132.7168
955.7613, 125.2063
956.2434, 120.9723
956.7255, 120.1310
957.2076, 123.5421
957.6898, 131.0979
958.1719, 139.1017
958.6540, 147.5628
959.1361, 152.9216
959.6182, 151.5304
960.1003, 146.9460
960.5825, 140.2323
961.0646, 132.5323
961.5467, 129.8348
962.0288, 137.6056
962.5109, 143.6777
962.9930, 144.5641
963.4752, 142.4789
963.9573, 143.1712
964.4394, 146.0756
964.9215, 147.8817
965.4036, 147.9472
965.8857, 145.6217
966.3679, 137.4108
966.8500, 127.7626
967.3321, 122.5944
967.8142, 125.8719
968.2963, 128.0239
968.7784, 128.8367
969.2606, 128.8435
969.7427, 127.9520
970.2248, 126.6748
970.7069, 127.5536
971.1890, 130.7344
971.6711, 132.6607
972.1533, 128.0474
972.6354, 123.8338
973.1175, 125.2799
973.5996, 132.4400
974.0817, 140.4999
974.5638, 151.9781
975.0460, 154.5992
975.5281, 137.8149
976.0102, 114.0068
976.4923, 111.7669
976.9744, 124.9328
977.4565, 135.4019
977.9387, 133.0862
978.4208, 129.2973
978.9029, 127.7573
979.3850, 127.0766
979.8671, 124.6875
980.3492, 119.6023
980.8314, 119.9401
981.3135, 127.9190
981.7956, 135.3718
982.2777, 129.1830
982.7598, 118.6730
983.2419, 119.1491
983.7241, 134.6429
984.2062, 145.6622
984.6883, 143.8786
985.1704, 138.5818
985.6525, 132.6854
986.1346, 126.4952
986.6168, 122.9293
987.0989, 122.0083
987.5810, 124.3581
988.0631, 135.0597
988.5452, 145.2542
989.0273, 145.8824
989.5095, 139.3453
989.9916, 131.6204
990.4737, 120.8858
990.9558, 113.6511
991.4379, 110.6240
991.9200, 111.5742
992.4022, 117.6650
992.8843, 127.7071
993.3664, 137.4922
993.8485, 146.6301
994.3306, 152.4113
994.8127, 149.3929
995.2949, 144.5943
995.7770, 145.2895
996.2591, 153.3421
996.7412, 154.4562
997.2233, 146.6777
997.7054, 139.0562
998.1876, 137.3497
998.6697, 139.5546
999.1518, 142.2300
999.6339, 145.0104
1000.116, 146.4915
1000.598, 144.0809
1001.080, 142.5710
1001.562, 144.5839
1002.044, 148.0783
1002.527, 149.3636
1003.009, 148.2834
1003.491, 147.1912
1003.973, 146.6382
1004.455, 145.6982
1004.937, 142.0000
1005.419, 137.9794
1005.901, 137.5397
1006.384, 143.0556
1006.866, 144.3956
1007.348, 136.3591
1007.830, 130.2896
1008.312, 134.2090
1008.794, 145.8092
1009.276, 152.0824
1009.758, 153.2030
1010.240, 151.0002
1010.723, 141.3994
1011.205, 133.8841
1011.687, 135.7592
1012.169, 144.3338
1012.651, 152.4198
1013.133, 161.7801
1013.615, 164.2407
1014.097, 156.9883
1014.580, 146.7216
1015.062, 141.1321
1015.544, 139.7700
1016.026, 143.3427
1016.508, 153.4081
1016.990, 159.6634
1017.472, 155.2932
1017.954, 148.2028
1018.436, 142.4515
1018.919, 138.0712
1019.401, 135.0253
1019.883, 133.3164
1020.365, 131.9967
1020.847, 128.7034
1021.329, 127.0484
1021.811, 133.6326
1022.293, 144.4801
1022.776, 149.7529
1023.258, 142.1129
1023.740, 138.2641
1024.222, 141.4938
1024.704, 146.2306
1025.186, 142.7249
1025.668, 134.2059
1026.150, 133.1571
1026.632, 141.9165
1027.115, 149.4860
1027.597, 146.3604
1028.079, 142.2122
1028.561, 145.1417
1029.043, 154.6845
1029.525, 156.5128
1030.007, 149.6139
1030.489, 143.1383
1030.972, 141.4089
1031.454, 142.2852
1031.936, 142.2742
1032.418, 142.5956
1032.900, 145.8317
1033.382, 159.4925
1033.864, 166.2176
1034.346, 161.7790
1034.828, 153.5607
1035.311, 149.9776
1035.793, 150.2089
1036.275, 147.9223
1036.757, 142.5632
1037.239, 140.5189
1037.721, 149.9388
1038.203, 161.1652
1038.685, 168.0462
1039.167, 170.3872
1039.650, 169.6606
1040.132, 165.2020
1040.614, 160.5948
1041.096, 157.2222
1041.578, 154.1653
1042.060, 148.9185
1042.542, 143.2502
1043.024, 140.4696
1043.507, 142.3275
1043.989, 145.9089
1044.471, 153.2158
1044.953, 159.1572
1045.435, 158.3817
1045.917, 151.6768
1046.399, 150.2756
1046.881, 154.1389
1047.364, 157.9118
1047.846, 159.4055
1048.328, 158.2481
1048.810, 152.6406
1049.292, 143.8790
1049.774, 137.3808
1050.256, 133.1743
1050.738, 131.5910
1051.220, 133.2979
1051.703, 136.0232
1052.185, 134.3793
1052.667, 132.1745
1053.149, 138.0226
1053.631, 157.0664
1054.113, 167.3334
1054.595, 155.5043
1055.077, 142.0365
1055.559, 137.2910
1056.042, 139.9373
1056.524, 140.5218
1057.006, 139.3717
1057.488, 139.1645
1057.970, 142.8946
1058.452, 146.4391
1058.934, 147.2338
1059.416, 146.0414
1059.899, 144.1553
1060.381, 140.8177
1060.863, 139.8716
1061.345, 141.9600
1061.827, 145.0559
1062.309, 147.7938
1062.791, 149.8581
1063.273, 150.4703
1063.755, 149.6189
1064.238, 148.9018
1064.720, 149.5404
1065.202, 149.2341
1065.684, 146.7949
1066.166, 143.3284
1066.648, 142.3643
1067.130, 143.3342
1067.612, 143.2869
1068.094, 140.3392
1068.577, 138.4599
1069.059, 139.8900
1069.541, 143.7336
1070.023, 150.4508
1070.505, 162.3044
1070.987, 161.3440
1071.469, 146.1819
1071.951, 131.7324
1072.434, 129.4526
1072.916, 132.6106
1073.398, 134.1790
1073.880, 134.3574
1074.362, 134.3200
1074.844, 132.8752
1075.326, 133.8388
1075.808, 138.3717
1076.291, 144.2876
1076.773, 149.4912
1077.255, 153.5203
1077.737, 154.4135
1078.219, 151.7551
1078.701, 148.8278
1079.183, 149.1162
1079.665, 147.4659
1080.147, 139.2820
1080.630, 126.8695
1081.112, 125.2564
1081.594, 134.0652
1082.076, 141.7418
1082.558, 143.8322
1083.040, 143.3671
1083.522, 142.1634
1084.004, 140.4491
1084.486, 138.2344
1084.969, 133.8770
1085.451, 134.4208
1085.933, 141.3944
1086.415, 147.4934
1086.897, 146.5782
1087.379, 141.3271
1087.861, 134.0940
1088.343, 126.2730
1088.826, 123.1377
1089.308, 132.6610
1089.790, 138.8174
1090.272, 137.4419
1090.754, 133.0647
1091.236, 133.0469
1091.718, 136.3604
1092.200, 138.2628
1092.682, 137.9883
1093.165, 137.0925
1093.647, 136.7995
1094.129, 135.8944
1094.611, 132.3589
1095.093, 127.1384
1095.575, 128.6899
1096.057, 137.4227
1096.539, 142.1935
1097.022, 136.4397
1097.504, 129.7903
1097.986, 134.7059
1098.468, 143.8208
1098.950, 146.5524
1099.432, 137.9378
1099.914, 131.5730
1100.396, 127.0868
1100.879, 126.3590
1101.361, 133.5667
1101.843, 144.2217
1102.325, 151.4436
1102.807, 154.6873
1103.289, 152.2550
1103.771, 134.1141
1104.253, 123.4808
1104.735, 126.9332
1105.218, 135.5845
1105.700, 135.9848
1106.182, 130.4107
1106.664, 130.4860
1107.146, 137.5774
1107.628, 144.4981
1108.110, 149.2011
1108.592, 150.0595
1109.074, 143.7121
1109.557, 132.9365
1110.039, 128.9441
1110.521, 131.7698
1111.003, 137.0018
1111.485, 144.0724
1111.967, 150.7612
1112.449, 155.3196
1112.931, 158.0027
1113.414, 158.9605
1113.896, 158.0753
1114.378, 156.3011
1114.860, 153.7691
1115.342, 149.6620
1115.824, 141.4935
1116.306, 133.1864
1116.788, 132.1528
1117.271, 135.7502
1117.753, 138.0769
1118.235, 135.4785
1118.717, 134.4066
1119.199, 135.9879
1119.681, 137.7937
1120.163, 137.0217
1120.645, 134.5999
1121.127, 133.5532
1121.609, 133.7996
1122.092, 133.2863
1122.574, 127.5878
1123.056, 125.4445
1123.538, 132.0029
1124.020, 141.7768
1124.502, 142.6939
1124.984, 135.9851
1125.466, 132.5427
1125.949, 134.7424
1126.431, 136.9611
1126.913, 133.1068
1127.395, 129.7202
1127.877, 133.3268
1128.359, 142.5229
1128.841, 144.9216
1129.323, 140.1279
1129.806, 135.6005
1130.288, 134.3120
1130.770, 133.8317
1131.252, 129.1786
1131.734, 125.0656
1132.216, 129.3116
1132.698, 147.9138
1133.180, 154.2321
1133.662, 145.6429
1134.145, 135.6364
1134.627, 132.6911
1135.109, 133.6407
1135.591, 133.7645
1136.073, 133.7220
1136.555, 135.1781
1137.037, 145.7609
1137.519, 145.5777
1138.001, 129.5839
1138.484, 110.9710
1138.966, 102.9195
1139.448, 103.1046
1139.930, 108.4049
1140.412, 117.7711
1140.894, 124.0806
1141.376, 120.7568
1141.858, 118.8017
1142.341, 121.5046
1142.823, 126.6724
1143.305, 130.9690
1143.787, 134.2867
1144.269, 136.4498
1144.751, 137.5193
1145.233, 136.4037
1145.715, 128.0501
1146.198, 122.1281
1146.680, 126.5985
1147.162, 137.4619
1147.644, 131.4778
1148.126, 110.5366
1148.608, 101.7353
1149.090, 118.3614
1149.572, 136.4360
1150.054, 138.0872
1150.536, 132.3108
1151.019, 126.5492
1151.501, 120.7362
1151.983, 121.7602
1152.465, 129.9506
1152.947, 136.8453
1153.429, 137.6859
1153.911, 135.4092
1154.393, 128.3748
1154.876, 121.5242
1155.358, 125.1228
1155.840, 146.1217
1156.322, 156.7510
1156.804, 155.6497
1157.286, 148.8889
1157.768, 135.5009
1158.250, 123.3671
1158.733, 126.4123
1159.215, 139.9904
1159.697, 145.1411
1160.179, 132.3418
1160.661, 126.5945
1161.143, 132.5458
1161.625, 141.0956
1162.107, 142.7679
1162.589, 139.4076
1163.072, 131.8660
1163.554, 120.8698
1164.036, 115.3771
1164.518, 122.3744
1165.000, 126.4533
1165.482, 121.8675
1165.964, 116.0118
1166.446, 126.9443
1166.928, 145.9500
1167.411, 152.1401
1167.893, 139.7751
1168.375, 128.5641
1168.857, 125.4383
1169.339, 123.9406
1169.821, 121.5826
1170.303, 119.3014
1170.785, 122.0207
1171.268, 127.2829
1171.750, 125.4452
1172.232, 107.1574
1172.714, 98.08416
1173.196, 120.6905
1173.678, 143.9930
1174.160, 147.9675
1174.642, 136.0585
1175.125, 129.0854
1175.607, 126.6913
1176.089, 127.3800
1176.571, 136.0450
1177.053, 140.1544
1177.535, 128.9568
1178.017, 114.5062
1178.499, 108.1319
1178.981, 109.6862
1179.464, 109.6561
1179.946, 108.1487
1180.428, 108.9436
1180.910, 116.8598
1181.392, 125.0327
1181.874, 130.4396
1182.356, 133.5116
1182.838, 135.2061
1183.320, 135.5852
1183.803, 131.2168
1184.285, 121.5934
1184.767, 115.6649
1185.249, 122.5865
1185.731, 133.1097
1186.213, 144.0957
1186.695, 153.0353
1187.177, 152.6979
1187.660, 142.4200
1188.142, 131.7580
1188.624, 121.6298
1189.106, 117.0110
1189.588, 129.7480
1190.070, 143.7122
1190.552, 143.2368
1191.034, 130.4705
1191.516, 124.4820
1191.999, 125.6110
1192.481, 131.4410
1192.963, 142.9164
1193.445, 153.0328
1193.927, 152.8934
1194.409, 149.1445
1194.891, 149.1725
1195.373, 153.5968
1195.855, 152.4557
1196.338, 144.6953
1196.820, 140.9810
1197.302, 147.7739
1197.784, 155.5254
1198.266, 152.7005
1198.748, 145.1949
1199.230, 140.0442
1199.712, 138.0052
1200.195, 139.1532
1200.677, 144.1017
1201.159, 147.8907
1201.641, 147.1250
1202.123, 144.7717
1202.605, 143.2719
1203.087, 142.8601
1203.569, 144.3630
1204.052, 150.1712
1204.534, 149.4422
1205.016, 140.6771
1205.498, 134.3264
1205.980, 142.2117
1206.462, 152.6296
1206.944, 151.5295
1207.426, 142.5626
1207.908, 133.5535
1208.391, 122.5106
1208.873, 120.7052
1209.355, 130.2855
1209.837, 139.9894
1210.319, 139.3867
1210.801, 134.3296
1211.283, 130.0198
1211.765, 126.9259
1212.247, 126.2845
1212.730, 129.3020
1213.212, 130.9379
1213.694, 130.7686
1214.176, 128.6591
1214.658, 122.2569
1215.140, 115.4034
1215.622, 112.2384
1216.104, 112.7759
1216.587, 115.6377
1217.069, 121.4433
1217.551, 126.8317
1218.033, 131.4977
1218.515, 134.5929
1218.997, 135.4246
1219.479, 133.9927
1219.961, 128.2350
1220.443, 118.9236
1220.926, 116.8453
1221.408, 124.5846
1221.890, 130.2126
1222.372, 130.3663
1222.854, 129.6153
1223.336, 134.5285
1223.818, 140.9053
1224.300, 143.6691
1224.782, 142.0450
1225.265, 141.6137
1225.747, 143.3482
1226.229, 140.4712
1226.711, 127.9601
1227.193, 118.1491
1227.675, 133.1030
1228.157, 155.1318
1228.639, 161.3192
1229.122, 147.3891
1229.604, 141.2840
1230.086, 144.5216
1230.568, 144.6651
1231.050, 134.4527
1231.532, 124.3294
1232.014, 129.1404
1232.496, 139.5063
1232.979, 143.0962
1233.461, 137.9246
1233.943, 136.5083
1234.425, 139.1133
1234.907, 142.9772
1235.389, 147.3023
1235.871, 151.5387
1236.353, 157.1187
1236.835, 161.3265
1237.318, 158.9564
1237.800, 148.1380
1238.282, 147.0881
1238.764, 156.3412
1239.246, 164.4919
1239.728, 164.1511
1240.210, 161.3519
1240.692, 162.0572
1241.175, 162.7421
1241.657, 157.9462
1242.139, 145.9763
1242.621, 139.5653
1243.103, 138.6882
1243.585, 139.7652
1244.067, 142.7428
1244.549, 144.5424
1245.031, 140.5552
1245.514, 135.5954
1245.996, 137.2100
1246.478, 146.4316
1246.960, 149.3292
1247.442, 145.8775
1247.924, 139.9400
1248.406, 129.3754
1248.888, 122.2079
1249.370, 126.7727
1249.853, 135.0934
1250.335, 135.4308
1250.817, 128.2307
1251.299, 129.4417
1251.781, 139.0923
1252.263, 147.2323
1252.745, 147.2421
1253.227, 144.8868
1253.710, 142.1120
1254.192, 138.8613
1254.674, 133.5689
1255.156, 127.1792
1255.638, 128.3722
1256.120, 136.8281
1256.602, 142.7805
1257.084, 135.3789
1257.567, 132.0662
1258.049, 141.4505
1258.531, 153.5259
1259.013, 150.8283
1259.495, 139.0702
1259.977, 143.8236
1260.459, 164.6251
1260.941, 174.4641
1261.423, 145.9833
1261.906, 125.5506
1262.388, 124.4019
1262.870, 133.9310
1263.352, 145.8943
1263.834, 157.6794
1264.316, 162.7367
1264.798, 160.7491
1265.280, 156.0839
1265.762, 145.5374
1266.245, 140.1969
1266.727, 143.1731
1267.209, 149.3492
1267.691, 153.0836
1268.173, 154.5660
1268.655, 153.4454
1269.137, 149.9109
1269.619, 147.0786
1270.102, 144.5112
1270.584, 145.3104
1271.066, 151.3479
1271.548, 156.7629
1272.030, 152.5539
1272.512, 144.5257
1272.994, 138.1588
1273.476, 134.4976
1273.958, 136.4991
1274.441, 145.7986
1274.923, 152.4287
1275.405, 153.8710
1275.887, 153.4733
1276.369, 156.4625
1276.851, 157.9478
1277.333, 150.4619
1277.815, 136.2816
1278.297, 130.7571
1278.780, 134.3009
1279.262, 139.5122
1279.744, 145.5359
1280.226, 147.7548
1280.708, 136.2155
1281.190, 125.2923
1281.672, 127.1895
1282.154, 137.8534
1282.637, 143.2959
1283.119, 143.8959
1283.601, 142.8019
1284.083, 140.4632
1284.565, 138.2369
1285.047, 137.2033
1285.529, 136.1285
1286.011, 133.8809
1286.494, 131.5360
1286.976, 135.0215
1287.458, 141.0672
1287.940, 135.4888
1288.422, 112.9063
1288.904, 100.0668
1289.386, 113.2700
1289.868, 130.2680
1290.350, 145.4254
1290.833, 158.1898
1291.315, 169.3917
1291.797, 176.6030
1292.279, 172.3369
1292.761, 153.0354
1293.243, 143.1208
1293.725, 148.4903
1294.207, 154.2467
1294.689, 156.1504
1295.172, 154.7195
1295.654, 146.9215
1296.136, 138.3589
1296.618, 137.7479
1297.100, 147.2660
1297.582, 152.2317
1298.064, 152.6194
1298.546, 147.3856
1299.029, 133.2932
1299.511, 122.9014
1299.993, 135.9902
1300.475, 154.4134
1300.957, 159.3158
1301.439, 152.3316
1301.921, 144.4533
1302.403, 135.9922
1302.885, 138.2391
1303.368, 157.6783
1303.850, 173.4814
1304.332, 166.3982
1304.814, 155.2487
1305.296, 151.5801
1305.778, 153.5563
1306.260, 155.9715
1306.742, 158.2344
1307.224, 156.9033
1307.707, 149.7228
1308.189, 147.1380
1308.671, 158.6118
1309.153, 168.5015
1309.635, 170.6620
1310.117, 168.5763
1310.599, 171.0596
##END=



