##NAMES=Glaucophane
##RRUFFID=R070515
##IDEAL CHEMISTRY=[box]Na_2_(Mg_3_Al_2_)Si_8_O_22_(OH)_2_
##LOCALITY=La Beaume, near Turin, Piedmont, Italy
##OWNER=RRUFF
##SOURCE=James Shigley
##DESCRIPTION=Black, prismatic crystals in a calcite matrix
##STATUS=The identification of this mineral is confirmed by single-crystal X-ray diffraction and chemical analysis.
##URL=rruff.info/R070515
##MEASURED CHEMISTRY=([box]_0.96_Na_0.04_)_Σ=1_(Na_1.93_Ca_0.07_)_Σ=2_((Mg_1.63_Fe^2+^_1.41_)_Σ=3.04_(Al_1.00_Fe^3+^_0.96_)_Σ=1.96_)(Si_7.93_Al_0.07_)_Σ=8_O_22_((OH)_1.90_F_0.10_)_Σ=2_; OH estimated by difference and charge balance
154.1839, 1903.735
154.6660, 1934.180
155.1481, 1955.338
155.6303, 1982.255
156.1124, 2026.202
156.5945, 2076.667
157.0766, 2117.234
157.5587, 2136.096
158.0408, 2136.837
158.5230, 2147.151
159.0051, 2178.109
159.4872, 2207.870
159.9693, 2224.935
160.4514, 2228.766
160.9335, 2236.146
161.4157, 2264.513
161.8978, 2311.038
162.3799, 2341.068
162.8620, 2334.202
163.3441, 2332.075
163.8262, 2344.670
164.3084, 2368.253
164.7905, 2395.700
165.2726, 2422.811
165.7547, 2449.510
166.2368, 2470.127
166.7189, 2469.059
167.2011, 2478.893
167.6832, 2509.472
168.1653, 2557.308
168.6474, 2614.193
169.1295, 2674.495
169.6116, 2738.154
170.0938, 2809.002
170.5759, 2891.151
171.0580, 2975.465
171.5401, 3072.426
172.0222, 3170.287
172.5043, 3245.825
172.9865, 3281.370
173.4686, 3276.944
173.9507, 3263.294
174.4328, 3253.183
174.9149, 3222.993
175.3970, 3163.167
175.8792, 3076.105
176.3613, 2967.553
176.8434, 2838.279
177.3255, 2688.222
177.8076, 2553.506
178.2897, 2439.411
178.7719, 2330.005
179.2540, 2214.215
179.7361, 2096.835
180.2182, 1992.235
180.7003, 1910.849
181.1824, 1852.269
181.6646, 1806.927
182.1467, 1778.492
182.6288, 1755.932
183.1109, 1734.660
183.5930, 1715.570
184.0751, 1702.286
184.5573, 1698.122
185.0394, 1702.869
185.5215, 1706.009
186.0036, 1707.315
186.4857, 1707.720
186.9678, 1705.960
187.4500, 1703.326
187.9321, 1703.402
188.4142, 1709.059
188.8963, 1719.927
189.3784, 1728.114
189.8605, 1731.589
190.3427, 1734.999
190.8248, 1739.303
191.3069, 1744.890
191.7890, 1752.328
192.2711, 1761.760
192.7532, 1773.318
193.2354, 1789.148
193.7175, 1811.479
194.1996, 1834.667
194.6817, 1859.208
195.1638, 1883.194
195.6459, 1900.662
196.1281, 1905.949
196.6102, 1902.173
197.0923, 1914.627
197.5744, 1954.661
198.0565, 1994.808
198.5386, 2027.191
199.0208, 2052.653
199.5029, 2072.391
199.9850, 2085.821
200.4671, 2095.271
200.9492, 2115.754
201.4313, 2154.575
201.9135, 2193.300
202.3956, 2224.815
202.8777, 2252.050
203.3598, 2281.480
203.8419, 2316.193
204.3240, 2355.707
204.8061, 2398.424
205.2883, 2456.011
205.7704, 2503.342
206.2525, 2532.009
206.7346, 2545.955
207.2167, 2552.087
207.6988, 2553.373
208.1810, 2549.507
208.6631, 2538.904
209.1452, 2531.021
209.6273, 2506.187
210.1094, 2449.686
210.5915, 2375.507
211.0737, 2305.765
211.5558, 2250.254
212.0379, 2203.312
212.5200, 2150.795
213.0021, 2086.855
213.4842, 2027.044
213.9664, 1975.092
214.4485, 1928.307
214.9306, 1882.720
215.4127, 1837.065
215.8948, 1792.134
216.3769, 1748.832
216.8591, 1702.710
217.3412, 1666.509
217.8233, 1649.105
218.3054, 1639.363
218.7875, 1625.404
219.2696, 1603.585
219.7518, 1576.033
220.2339, 1545.399
220.7160, 1507.267
221.1981, 1475.723
221.6802, 1452.145
222.1623, 1434.653
222.6445, 1423.624
223.1266, 1418.638
223.6087, 1414.541
224.0908, 1403.845
224.5729, 1380.901
225.0550, 1366.033
225.5372, 1368.326
226.0193, 1372.500
226.5014, 1365.115
226.9835, 1344.777
227.4656, 1321.024
227.9477, 1304.464
228.4298, 1297.211
228.9120, 1289.579
229.3941, 1280.603
229.8762, 1271.989
230.3583, 1264.366
230.8404, 1257.989
231.3225, 1253.318
231.8047, 1250.862
232.2868, 1250.826
232.7689, 1251.763
233.2510, 1257.907
233.7331, 1261.030
234.2152, 1254.275
234.6974, 1240.149
235.1795, 1227.667
235.6616, 1224.251
236.1437, 1230.096
236.6258, 1231.650
237.1079, 1223.820
237.5901, 1217.623
238.0722, 1217.594
238.5543, 1222.071
239.0364, 1227.301
239.5185, 1231.080
240.0006, 1233.385
240.4828, 1233.968
240.9649, 1231.969
241.4470, 1229.238
241.9291, 1224.471
242.4112, 1219.528
242.8933, 1217.848
243.3755, 1221.476
243.8576, 1228.029
244.3397, 1229.093
244.8218, 1220.221
245.3039, 1210.817
245.7860, 1198.450
246.2682, 1187.168
246.7503, 1181.395
247.2324, 1182.804
247.7145, 1189.718
248.1966, 1199.235
248.6787, 1217.594
249.1609, 1227.757
249.6430, 1226.329
250.1251, 1219.123
250.6072, 1208.736
251.0893, 1196.574
251.5714, 1185.735
252.0535, 1182.242
252.5357, 1192.300
253.0178, 1194.056
253.4999, 1178.265
253.9820, 1162.000
254.4641, 1156.715
254.9462, 1162.514
255.4284, 1170.467
255.9105, 1170.999
256.3926, 1162.930
256.8747, 1154.249
257.3568, 1145.578
257.8390, 1135.698
258.3211, 1122.113
258.8032, 1106.435
259.2853, 1093.124
259.7674, 1085.984
260.2495, 1084.791
260.7317, 1084.927
261.2138, 1088.591
261.6959, 1090.902
262.1780, 1090.404
262.6601, 1087.415
263.1422, 1082.274
263.6244, 1074.231
264.1065, 1064.813
264.5886, 1059.046
265.0707, 1057.134
265.5528, 1058.922
266.0349, 1067.084
266.5170, 1077.461
266.9991, 1085.730
267.4813, 1090.829
267.9634, 1091.654
268.4455, 1083.356
268.9276, 1061.848
269.4097, 1047.826
269.8918, 1057.501
270.3740, 1073.437
270.8561, 1081.694
271.3382, 1078.938
271.8203, 1071.273
272.3024, 1062.143
272.7845, 1051.569
273.2667, 1047.448
273.7488, 1056.072
274.2309, 1068.212
274.7130, 1074.340
275.1951, 1074.001
275.6772, 1074.253
276.1594, 1082.798
276.6415, 1096.177
277.1236, 1099.859
277.6057, 1086.390
278.0878, 1072.500
278.5699, 1079.742
279.0521, 1103.891
279.5342, 1117.434
280.0163, 1100.206
280.4984, 1070.076
280.9805, 1055.122
281.4626, 1058.951
281.9448, 1069.069
282.4269, 1078.483
282.9090, 1086.543
283.3911, 1090.552
283.8732, 1085.225
284.3553, 1079.338
284.8375, 1080.127
285.3196, 1087.290
285.8017, 1097.304
286.2838, 1109.557
286.7659, 1122.561
287.2480, 1130.917
287.7302, 1132.544
288.2123, 1132.321
288.6944, 1130.477
289.1765, 1128.245
289.6586, 1129.196
290.1407, 1135.479
290.6229, 1143.737
291.1050, 1145.598
291.5871, 1134.481
292.0692, 1129.341
292.5513, 1137.571
293.0334, 1150.856
293.5156, 1159.100
293.9977, 1159.947
294.4798, 1159.597
294.9619, 1166.938
295.4440, 1186.905
295.9261, 1200.384
296.4083, 1204.178
296.8904, 1204.594
297.3725, 1203.839
297.8546, 1203.034
298.3367, 1204.000
298.8188, 1208.524
299.3010, 1216.846
299.7831, 1224.846
300.2652, 1235.861
300.7473, 1243.084
301.2294, 1241.181
301.7115, 1234.414
302.1937, 1230.231
302.6758, 1233.166
303.1579, 1241.580
303.6400, 1249.415
304.1221, 1258.455
304.6042, 1263.789
305.0864, 1264.646
305.5685, 1261.924
306.0506, 1255.392
306.5327, 1245.083
307.0148, 1234.029
307.4969, 1226.814
307.9791, 1224.140
308.4612, 1222.905
308.9433, 1228.604
309.4254, 1231.236
309.9075, 1222.028
310.3896, 1201.816
310.8718, 1182.229
311.3539, 1174.263
311.8360, 1176.839
312.3181, 1178.248
312.8002, 1177.239
313.2823, 1175.934
313.7644, 1176.214
314.2466, 1177.292
314.7287, 1177.108
315.2108, 1174.866
315.6929, 1170.732
316.1750, 1163.001
316.6571, 1150.081
317.1393, 1142.608
317.6214, 1151.816
318.1035, 1168.809
318.5856, 1177.311
319.0677, 1171.191
319.5498, 1162.506
320.0320, 1161.595
320.5141, 1166.381
320.9962, 1166.392
321.4783, 1155.412
321.9604, 1141.191
322.4425, 1139.248
322.9247, 1152.992
323.4068, 1163.147
323.8889, 1159.721
324.3710, 1151.268
324.8531, 1150.319
325.3352, 1159.436
325.8174, 1170.975
326.2995, 1176.771
326.7816, 1175.442
327.2637, 1174.917
327.7458, 1173.618
328.2279, 1174.429
328.7101, 1180.985
329.1922, 1191.637
329.6743, 1201.108
330.1564, 1205.908
330.6385, 1206.319
331.1206, 1204.514
331.6028, 1196.040
332.0849, 1190.605
332.5670, 1191.595
333.0491, 1195.853
333.5312, 1200.351
334.0133, 1203.803
334.4955, 1205.073
334.9776, 1200.836
335.4597, 1185.305
335.9418, 1177.349
336.4239, 1184.628
336.9060, 1193.493
337.3882, 1195.874
337.8703, 1191.029
338.3524, 1182.717
338.8345, 1173.675
339.3166, 1163.852
339.7987, 1154.489
340.2809, 1142.849
340.7630, 1135.595
341.2451, 1140.659
341.7272, 1151.182
342.2093, 1153.145
342.6914, 1135.445
343.1736, 1110.562
343.6557, 1102.476
344.1378, 1113.919
344.6199, 1125.619
345.1020, 1131.170
345.5841, 1131.912
346.0663, 1128.887
346.5484, 1121.205
347.0305, 1113.411
347.5126, 1109.198
347.9947, 1107.408
348.4768, 1103.900
348.9590, 1096.930
349.4411, 1090.017
349.9232, 1087.061
350.4053, 1087.777
350.8874, 1092.268
351.3695, 1107.711
351.8517, 1122.230
352.3338, 1122.817
352.8159, 1110.033
353.2980, 1095.646
353.7801, 1087.535
354.2622, 1085.391
354.7444, 1086.353
355.2265, 1092.761
355.7086, 1098.911
356.1907, 1102.274
356.6728, 1104.572
357.1549, 1109.459
357.6371, 1118.376
358.1192, 1127.599
358.6013, 1128.686
359.0834, 1109.617
359.5655, 1105.062
360.0476, 1126.036
360.5298, 1150.703
361.0119, 1165.143
361.4940, 1168.885
361.9761, 1169.694
362.4582, 1174.121
362.9403, 1182.040
363.4224, 1190.420
363.9045, 1198.939
364.3867, 1208.428
364.8688, 1223.012
365.3509, 1237.610
365.8330, 1243.140
366.3151, 1232.816
366.7972, 1219.234
367.2794, 1222.481
367.7615, 1243.976
368.2436, 1268.235
368.7257, 1294.774
369.2078, 1319.039
369.6899, 1335.851
370.1721, 1344.498
370.6542, 1352.966
371.1363, 1366.302
371.6184, 1382.266
372.1005, 1396.130
372.5826, 1407.143
373.0648, 1416.706
373.5469, 1424.422
374.0290, 1431.018
374.5111, 1443.640
374.9932, 1471.313
375.4753, 1497.001
375.9575, 1505.316
376.4396, 1503.126
376.9217, 1511.339
377.4038, 1541.128
377.8859, 1583.679
378.3680, 1616.197
378.8502, 1631.901
379.3323, 1645.992
379.8144, 1659.374
380.2965, 1670.704
380.7786, 1678.635
381.2607, 1683.095
381.7429, 1685.168
382.2250, 1686.548
382.7071, 1687.699
383.1892, 1681.785
383.6713, 1662.818
384.1534, 1642.545
384.6356, 1622.871
385.1177, 1604.425
385.5998, 1588.412
386.0819, 1576.057
386.5640, 1564.340
387.0461, 1546.233
387.5283, 1519.676
388.0104, 1497.562
388.4925, 1489.375
388.9746, 1482.310
389.4567, 1463.366
389.9388, 1431.758
390.4210, 1402.993
390.9031, 1390.146
391.3852, 1386.055
391.8673, 1373.109
392.3494, 1348.004
392.8315, 1322.870
393.3137, 1306.543
393.7958, 1298.531
394.2779, 1293.445
394.7600, 1292.547
395.2421, 1293.047
395.7242, 1294.562
396.2064, 1296.301
396.6885, 1296.842
397.1706, 1295.752
397.6527, 1292.337
398.1348, 1284.823
398.6169, 1267.407
399.0991, 1257.314
399.5812, 1262.802
400.0633, 1268.847
400.5454, 1261.408
401.0275, 1243.236
401.5096, 1230.304
401.9918, 1237.927
402.4739, 1262.697
402.9560, 1269.501
403.4381, 1240.529
403.9202, 1218.744
404.4023, 1218.660
404.8845, 1228.246
405.3666, 1235.384
405.8487, 1236.479
406.3308, 1232.311
406.8129, 1221.511
407.2950, 1204.302
407.7772, 1190.855
408.2593, 1183.949
408.7414, 1179.749
409.2235, 1176.942
409.7056, 1174.675
410.1877, 1168.430
410.6699, 1152.794
411.1520, 1134.878
411.6341, 1122.075
412.1162, 1114.364
412.5983, 1110.451
413.0804, 1111.952
413.5625, 1114.852
414.0446, 1105.611
414.5268, 1073.662
415.0089, 1050.492
415.4910, 1048.506
415.9731, 1054.441
416.4552, 1054.044
416.9373, 1045.017
417.4195, 1034.019
417.9016, 1028.073
418.3837, 1027.726
418.8658, 1024.575
419.3479, 1013.585
419.8300, 1005.246
420.3122, 1007.255
420.7943, 1012.012
421.2764, 1007.209
421.7585, 987.1393
422.2406, 961.8387
422.7227, 947.7097
423.2049, 946.1638
423.6870, 946.3163
424.1691, 948.1882
424.6512, 949.5911
425.1333, 948.6742
425.6154, 945.7628
426.0976, 942.9323
426.5797, 940.9878
427.0618, 939.7866
427.5439, 939.0551
428.0260, 938.7801
428.5081, 939.4343
428.9903, 941.9214
429.4724, 945.1151
429.9545, 945.7443
430.4366, 942.7399
430.9187, 939.5175
431.4008, 935.9315
431.8830, 933.0866
432.3651, 933.2518
432.8472, 936.4455
433.3293, 938.9452
433.8114, 936.2789
434.2935, 927.6364
434.7757, 925.4792
435.2578, 938.0016
435.7399, 947.8900
436.2220, 947.9168
436.7041, 943.6627
437.1862, 943.0653
437.6684, 949.3132
438.1505, 959.1824
438.6326, 968.4656
439.1147, 977.3043
439.5968, 984.3575
440.0789, 990.6683
440.5611, 993.4345
441.0432, 989.7966
441.5253, 981.0574
442.0074, 972.3170
442.4895, 964.1810
442.9716, 958.1129
443.4538, 957.1036
443.9359, 960.7364
444.4180, 964.4031
444.9001, 966.9468
445.3822, 967.1790
445.8643, 961.5790
446.3465, 948.0153
446.8286, 935.2608
447.3107, 923.9450
447.7928, 914.6721
448.2749, 908.8740
448.7570, 906.1027
449.2392, 903.8804
449.7213, 900.0682
450.2034, 894.9653
450.6855, 891.6558
451.1676, 893.3285
451.6497, 892.4728
452.1319, 884.4095
452.6140, 875.2903
453.0961, 872.2385
453.5782, 876.6625
454.0603, 882.0675
454.5424, 881.0430
455.0246, 874.3055
455.5067, 869.9014
455.9888, 869.5905
456.4709, 869.1259
456.9530, 863.6547
457.4352, 856.1012
457.9173, 852.8146
458.3994, 858.0140
458.8815, 863.8884
459.3636, 865.3751
459.8457, 863.3503
460.3279, 859.3885
460.8100, 853.7292
461.2921, 848.3025
461.7742, 845.9200
462.2563, 847.6694
462.7384, 847.9890
463.2205, 844.4992
463.7026, 842.0383
464.1848, 843.3157
464.6669, 847.3289
465.1490, 852.8606
465.6311, 859.5513
466.1132, 864.7886
466.5953, 862.0302
467.0775, 848.5887
467.5596, 836.4312
468.0417, 823.7109
468.5238, 815.7704
469.0059, 818.0270
469.4880, 828.5955
469.9702, 839.1319
470.4523, 846.9108
470.9344, 851.3018
471.4165, 849.2804
471.8986, 841.0563
472.3807, 836.0370
472.8629, 839.2166
473.3450, 846.9614
473.8271, 851.5198
474.3092, 851.3224
474.7913, 853.5507
475.2734, 862.7531
475.7556, 872.6287
476.2377, 876.9023
476.7198, 876.0043
477.2019, 874.6172
477.6840, 876.0062
478.1661, 879.7326
478.6483, 883.9416
479.1304, 891.2437
479.6125, 894.5172
480.0946, 886.7741
480.5767, 879.2862
481.0588, 883.3788
481.5410, 899.0403
482.0231, 914.1055
482.5052, 916.1248
482.9873, 909.7537
483.4694, 913.1354
483.9515, 929.7042
484.4337, 940.8227
484.9158, 933.4246
485.3979, 915.3055
485.8800, 903.5325
486.3621, 898.9025
486.8442, 899.0849
487.3264, 907.5713
487.8085, 918.2473
488.2906, 922.8201
488.7727, 920.4280
489.2548, 916.4291
489.7369, 915.6198
490.2191, 917.5920
490.7012, 915.9467
491.1833, 904.6463
491.6654, 897.0415
492.1475, 897.0396
492.6296, 900.2922
493.1118, 903.4789
493.5939, 905.5432
494.0760, 905.4064
494.5581, 900.7188
495.0402, 892.3845
495.5223, 885.4161
496.0045, 878.2648
496.4866, 877.4420
496.9687, 894.5742
497.4508, 918.3376
497.9329, 926.5546
498.4150, 909.5189
498.8972, 893.8294
499.3793, 894.0036
499.8614, 903.1443
500.3435, 911.9479
500.8256, 918.4622
501.3077, 922.6752
501.7899, 924.3480
502.2720, 923.5351
502.7541, 922.7906
503.2362, 917.8744
503.7183, 918.2574
504.2004, 930.2444
504.6826, 945.6808
505.1647, 956.3961
505.6468, 960.5652
506.1289, 961.3613
506.6110, 960.8577
507.0931, 959.3799
507.5753, 959.4384
508.0574, 961.2759
508.5395, 964.0822
509.0216, 966.2521
509.5037, 969.5840
509.9858, 977.7100
510.4680, 993.0436
510.9501, 1008.220
511.4322, 1020.812
511.9143, 1030.823
512.3964, 1037.078
512.8785, 1039.824
513.3607, 1043.050
513.8428, 1050.882
514.3249, 1062.430
514.8070, 1066.602
515.2891, 1051.594
515.7712, 1044.091
516.2534, 1050.689
516.7355, 1063.935
517.2176, 1078.845
517.6997, 1093.653
518.1818, 1106.161
518.6639, 1114.851
519.1461, 1119.629
519.6282, 1119.048
520.1103, 1111.737
520.5924, 1104.948
521.0745, 1101.794
521.5566, 1101.698
522.0388, 1102.556
522.5209, 1103.153
523.0030, 1108.299
523.4851, 1122.748
523.9672, 1140.509
524.4493, 1157.031
524.9315, 1171.055
525.4136, 1180.369
525.8957, 1182.677
526.3778, 1180.294
526.8599, 1183.582
527.3420, 1197.240
527.8242, 1208.393
528.3063, 1215.433
528.7884, 1220.072
529.2705, 1222.374
529.7526, 1223.086
530.2347, 1224.720
530.7169, 1227.956
531.1990, 1233.639
531.6811, 1245.770
532.1632, 1264.234
532.6453, 1276.848
533.1274, 1276.360
533.6096, 1271.192
534.0917, 1275.960
534.5738, 1292.979
535.0559, 1307.420
535.5380, 1317.097
536.0201, 1324.317
536.5022, 1329.058
536.9843, 1332.668
537.4664, 1336.929
537.9485, 1342.606
538.4307, 1351.575
538.9128, 1369.137
539.3949, 1398.636
539.8770, 1422.574
540.3591, 1437.763
540.8412, 1449.206
541.3234, 1458.875
541.8055, 1467.223
542.2876, 1474.940
542.7697, 1480.664
543.2518, 1488.321
543.7339, 1501.892
544.2161, 1520.158
544.6982, 1541.864
545.1803, 1567.255
545.6624, 1587.830
546.1445, 1592.815
546.6266, 1580.831
547.1088, 1576.875
547.5909, 1586.902
548.0730, 1596.939
548.5551, 1602.720
549.0372, 1607.086
549.5193, 1614.625
550.0015, 1625.983
550.4836, 1635.776
550.9657, 1638.606
551.4478, 1635.073
551.9299, 1628.123
552.4120, 1616.557
552.8942, 1606.441
553.3763, 1604.730
553.8584, 1604.289
554.3405, 1590.359
554.8226, 1556.916
555.3047, 1528.803
555.7869, 1518.299
556.2690, 1513.654
556.7511, 1505.417
557.2332, 1492.201
557.7153, 1473.142
558.1974, 1446.696
558.6796, 1417.313
559.1617, 1399.086
559.6438, 1398.237
560.1259, 1393.278
560.6080, 1380.388
561.0901, 1364.102
561.5723, 1343.726
562.0544, 1321.577
562.5365, 1304.074
563.0186, 1296.083
563.5007, 1291.275
563.9828, 1282.417
564.4650, 1270.815
564.9471, 1262.452
565.4292, 1259.645
565.9113, 1255.841
566.3934, 1242.745
566.8755, 1219.022
567.3577, 1200.947
567.8398, 1191.213
568.3219, 1183.089
568.8040, 1173.398
569.2861, 1165.035
569.7682, 1162.886
570.2504, 1167.466
570.7325, 1172.376
571.2146, 1170.473
571.6967, 1163.291
572.1788, 1158.197
572.6609, 1155.272
573.1431, 1154.449
573.6252, 1156.954
574.1073, 1160.765
574.5894, 1162.935
575.0715, 1164.953
575.5536, 1160.418
576.0358, 1141.960
576.5179, 1121.155
577.0000, 1106.303
577.4821, 1097.514
577.9642, 1092.877
578.4464, 1091.570
578.9285, 1092.046
579.4106, 1091.552
579.8927, 1090.438
580.3748, 1086.586
580.8569, 1077.761
581.3391, 1068.723
581.8212, 1062.458
582.3033, 1057.998
582.7854, 1052.869
583.2675, 1044.618
583.7496, 1038.941
584.2318, 1044.209
584.7139, 1053.447
585.1960, 1052.430
585.6781, 1039.278
586.1602, 1023.821
586.6423, 1014.134
587.1245, 1009.776
587.6066, 1007.697
588.0887, 1012.809
588.5708, 1012.295
589.0529, 1000.070
589.5350, 985.7216
590.0172, 976.8583
590.4993, 973.1595
590.9814, 968.7872
591.4635, 957.6163
591.9456, 946.2158
592.4277, 945.7905
592.9099, 954.5921
593.3920, 961.7110
593.8741, 963.9644
594.3562, 962.2947
594.8383, 957.4578
595.3204, 948.9991
595.8026, 940.4672
596.2847, 932.6286
596.7668, 923.7339
597.2489, 907.7574
597.7310, 893.0842
598.2131, 892.5936
598.6953, 907.9061
599.1774, 923.8164
599.6595, 925.9177
600.1416, 917.0437
600.6237, 906.0604
601.1058, 892.3741
601.5880, 882.8965
602.0701, 882.5029
602.5522, 886.2818
603.0343, 885.3382
603.5164, 878.7990
603.9985, 872.0795
604.4807, 864.5249
604.9628, 858.1360
605.4449, 854.0831
605.9270, 852.1118
606.4091, 852.8378
606.8912, 856.4547
607.3734, 858.3151
607.8555, 849.3873
608.3376, 830.1611
608.8197, 819.3196
609.3018, 820.8617
609.7839, 822.6200
610.2661, 817.2272
610.7482, 807.8467
611.2303, 801.4228
611.7124, 799.8201
612.1945, 796.3938
612.6766, 786.7938
613.1588, 776.3594
613.6409, 768.9214
614.1230, 764.9935
614.6051, 765.0056
615.0872, 769.4200
615.5693, 775.9698
616.0515, 780.3770
616.5336, 782.4958
617.0157, 783.2176
617.4978, 782.0093
617.9799, 780.2429
618.4620, 778.3791
618.9442, 776.6198
619.4263, 775.6751
619.9084, 776.9865
620.3905, 776.3275
620.8726, 769.1357
621.3547, 760.3587
621.8369, 756.9619
622.3190, 758.6750
622.8011, 759.5004
623.2832, 755.1125
623.7653, 748.3013
624.2474, 747.2682
624.7296, 753.6616
625.2117, 760.3248
625.6938, 767.5069
626.1759, 773.5601
626.6580, 779.3820
627.1401, 783.3959
627.6223, 780.8014
628.1044, 765.3593
628.5865, 751.8528
629.0686, 749.4821
629.5507, 754.3458
630.0328, 763.1631
630.5150, 774.0660
630.9971, 779.8508
631.4792, 773.9458
631.9613, 760.8962
632.4434, 759.6873
632.9255, 777.1428
633.4077, 788.5712
633.8898, 786.2018
634.3719, 781.0575
634.8539, 779.0259
635.3361, 779.7293
635.8182, 781.1859
636.3003, 781.4804
636.7824, 784.3308
637.2645, 797.0259
637.7466, 812.3212
638.2288, 816.2025
638.7109, 807.3446
639.1930, 796.3705
639.6751, 791.1684
640.1572, 791.4417
640.6393, 796.2644
641.1215, 808.3194
641.6036, 818.4506
642.0857, 824.6498
642.5678, 829.1254
643.0499, 832.0320
643.5320, 834.1990
644.0142, 838.3666
644.4963, 847.7949
644.9784, 856.0662
645.4605, 857.8123
645.9426, 855.7756
646.4247, 852.5433
646.9069, 849.5156
647.3890, 852.2594
647.8711, 866.1202
648.3532, 888.1640
648.8353, 905.5078
649.3174, 917.8573
649.7996, 926.3307
650.2817, 927.6671
650.7638, 928.2758
651.2459, 929.8934
651.7280, 933.9230
652.2101, 945.0120
652.6923, 968.8821
653.1744, 993.5577
653.6565, 1010.502
654.1386, 1024.103
654.6207, 1040.950
655.1028, 1061.841
655.5850, 1083.787
656.0671, 1104.481
656.5492, 1124.622
657.0313, 1147.026
657.5134, 1172.449
657.9955, 1197.515
658.4777, 1221.783
658.9598, 1245.608
659.4419, 1268.236
659.9240, 1290.633
660.4061, 1316.375
660.8882, 1348.927
661.3704, 1380.180
661.8525, 1403.605
662.3346, 1425.037
662.8167, 1450.105
663.2988, 1480.150
663.7809, 1518.224
664.2631, 1567.885
664.7452, 1620.166
665.2273, 1649.685
665.7094, 1652.259
666.1915, 1660.788
666.6736, 1683.572
667.1558, 1705.712
667.6379, 1715.951
668.1200, 1717.724
668.6021, 1719.426
669.0842, 1724.354
669.5663, 1724.094
670.0485, 1715.693
670.5306, 1701.125
671.0127, 1677.162
671.4948, 1648.568
671.9769, 1628.944
672.4590, 1626.675
672.9412, 1629.506
673.4233, 1616.586
673.9054, 1588.322
674.3875, 1556.956
674.8696, 1521.692
675.3517, 1489.017
675.8339, 1462.681
676.3160, 1441.720
676.7981, 1424.442
677.2802, 1414.649
677.7623, 1398.604
678.2444, 1368.725
678.7266, 1337.592
679.2087, 1313.713
679.6908, 1294.545
680.1729, 1274.419
680.6550, 1251.076
681.1371, 1225.994
681.6193, 1198.781
682.1014, 1171.088
682.5835, 1148.768
683.0656, 1132.304
683.5477, 1119.101
684.0298, 1109.290
684.5120, 1099.571
684.9941, 1083.146
685.4762, 1055.908
685.9583, 1035.831
686.4404, 1028.311
686.9225, 1021.301
687.4047, 1011.572
687.8868, 999.3115
688.3689, 983.7482
688.8510, 965.0974
689.3331, 948.5637
689.8152, 939.0154
690.2974, 933.1132
690.7795, 925.9022
691.2616, 917.5952
691.7437, 909.2202
692.2258, 900.9690
692.7079, 894.6150
693.1901, 893.2582
693.6722, 897.1756
694.1543, 893.3307
694.6364, 874.2941
695.1185, 859.5238
695.6006, 856.0424
696.0828, 856.3412
696.5649, 855.2935
697.0470, 852.4751
697.5291, 848.2715
698.0112, 841.6988
698.4933, 834.9194
698.9755, 828.6488
699.4576, 823.4914
699.9397, 821.4029
700.4218, 822.1973
700.9039, 822.4186
701.3860, 819.1488
701.8682, 813.4433
702.3503, 808.5123
702.8324, 804.3622
703.3145, 801.1332
703.7966, 799.4625
704.2787, 797.6928
704.7609, 793.5673
705.2430, 788.2823
705.7251, 786.2518
706.2072, 791.8522
706.6893, 793.7574
707.1714, 786.6730
707.6536, 776.9615
708.1357, 767.4506
708.6178, 760.0445
709.0999, 758.1263
709.5820, 763.5349
710.0641, 772.2265
710.5463, 779.5378
711.0284, 785.7030
711.5105, 794.4153
711.9926, 806.5486
712.4747, 806.5069
712.9568, 781.4893
713.4390, 747.9773
713.9211, 739.2823
714.4032, 766.2675
714.8853, 783.0861
715.3674, 785.9435
715.8495, 783.5480
716.3317, 773.5034
716.8138, 762.4754
717.2959, 759.4472
717.7780, 765.5617
718.2601, 770.6069
718.7422, 765.4693
719.2244, 759.0372
719.7065, 762.9154
720.1886, 773.2772
720.6707, 779.8154
721.1528, 779.5864
721.6349, 774.9990
722.1171, 767.4426
722.5992, 758.0328
723.0813, 755.4324
723.5634, 762.3314
724.0455, 766.4968
724.5276, 763.6523
725.0098, 759.3157
725.4919, 757.0233
725.9740, 757.0137
726.4561, 760.8563
726.9382, 774.3811
727.4203, 784.0868
727.9025, 783.5958
728.3846, 779.5854
728.8667, 778.0645
729.3488, 778.5027
729.8309, 776.6132
730.3130, 769.7885
730.7952, 762.9280
731.2773, 764.3266
731.7594, 771.1130
732.2415, 770.7465
732.7236, 761.9722
733.2057, 757.1195
733.6878, 763.8220
734.1699, 775.4626
734.6520, 778.9905
735.1342, 771.3687
735.6163, 766.7916
736.0984, 767.4470
736.5805, 768.5182
737.0626, 767.1098
737.5447, 766.3015
738.0269, 770.6200
738.5090, 780.2880
738.9911, 788.2971
739.4732, 789.4348
739.9553, 789.9889
740.4374, 796.4506
740.9196, 805.3416
741.4017, 810.9035
741.8838, 811.7327
742.3659, 808.1829
742.8480, 799.1162
743.3301, 788.1429
743.8123, 788.2409
744.2944, 800.3531
744.7765, 803.3182
745.2586, 791.1342
745.7407, 775.4926
746.2228, 763.3291
746.7050, 755.0875
747.1871, 752.7103
747.6692, 763.7822
748.1513, 768.1735
748.6334, 757.4564
749.1155, 747.7520
749.5977, 749.5038
750.0798, 757.9263
750.5619, 764.1199
751.0440, 765.5661
751.5261, 765.2377
752.0082, 765.7211
752.4904, 765.2767
752.9725, 759.5526
753.4546, 750.6634
753.9367, 746.1865
754.4188, 748.6651
754.9009, 754.1022
755.3831, 757.9586
755.8652, 760.5672
756.3473, 764.9872
756.8294, 771.7195
757.3115, 778.4807
757.7936, 786.2806
758.2758, 791.5087
758.7579, 789.0371
759.2400, 780.0204
759.7221, 775.0380
760.2042, 776.1584
760.6863, 778.5772
761.1685, 783.4884
761.6506, 787.6586
762.1327, 786.1114
762.6148, 782.1483
763.0969, 784.8347
763.5790, 798.7418
764.0612, 812.5970
764.5433, 815.0095
765.0254, 811.2108
765.5075, 810.0657
765.9896, 811.7040
766.4717, 813.2328
766.9539, 813.4544
767.4360, 813.1087
767.9181, 812.0594
768.4002, 810.5107
768.8823, 820.0128
769.3644, 847.4226
769.8466, 864.3973
770.3287, 856.4352
770.8108, 842.5076
771.2929, 842.2946
771.7750, 854.5413
772.2571, 865.7089
772.7393, 879.3854
773.2214, 886.3546
773.7035, 876.7572
774.1856, 866.0881
774.6677, 870.7977
775.1498, 884.9818
775.6320, 890.0558
776.1141, 877.4532
776.5962, 859.5190
777.0783, 843.4834
777.5604, 831.4297
778.0425, 829.8401
778.5247, 836.4922
779.0068, 840.2043
779.4889, 836.2606
779.9710, 826.7995
780.4531, 813.5790
780.9352, 796.9077
781.4174, 784.2225
781.8995, 775.7760
782.3816, 769.8742
782.8637, 764.2573
783.3458, 763.9269
783.8279, 779.3058
784.3101, 808.3337
784.7922, 817.7240
785.2743, 787.5654
785.7564, 766.0969
786.2385, 766.0542
786.7206, 771.9889
787.2028, 774.9614
787.6849, 774.6818
788.1670, 772.9692
788.6491, 770.3799
789.1312, 766.7438
789.6133, 759.5117
790.0955, 752.7966
790.5776, 754.0144
791.0597, 760.5839
791.5418, 763.7357
792.0239, 760.4452
792.5060, 754.3127
792.9882, 748.5144
793.4703, 743.6150
793.9524, 743.3497
794.4345, 748.2653
794.9166, 750.6709
795.3987, 748.0023
795.8809, 744.5110
796.3630, 743.9849
796.8451, 745.8527
797.3272, 746.7641
797.8093, 747.4925
798.2914, 745.9122
798.7736, 739.1376
799.2557, 733.1373
799.7378, 731.8835
800.2199, 732.9727
800.7020, 732.2034
801.1841, 728.6482
801.6663, 724.7455
802.1484, 720.9620
802.6305, 717.7776
803.1126, 714.3843
803.5947, 712.3250
804.0768, 714.8112
804.5590, 722.0262
805.0411, 730.6163
805.5232, 739.0943
806.0053, 745.6919
806.4874, 746.0156
806.9695, 741.2874
807.4517, 737.2289
807.9338, 734.7856
808.4159, 734.5483
808.8980, 737.5428
809.3801, 741.2909
809.8622, 739.0602
810.3444, 728.6516
810.8265, 721.7056
811.3086, 718.6931
811.7907, 718.2979
812.2728, 720.5974
812.7549, 724.8415
813.2371, 731.6700
813.7192, 741.4299
814.2013, 744.9727
814.6834, 735.2176
815.1655, 727.2057
815.6476, 726.6841
816.1298, 728.8967
816.6119, 730.1223
817.0940, 730.0515
817.5761, 729.6292
818.0582, 729.4226
818.5403, 728.3617
819.0225, 724.2404
819.5046, 719.6058
819.9867, 717.0404
820.4688, 717.2280
820.9509, 722.2421
821.4330, 732.6662
821.9152, 743.6360
822.3973, 749.7726
822.8794, 751.6182
823.3615, 750.7217
823.8436, 747.0865
824.3257, 742.3364
824.8079, 736.0649
825.2900, 733.3481
825.7721, 739.9137
826.2542, 752.8301
826.7363, 758.2626
827.2184, 753.7842
827.7006, 747.4929
828.1827, 736.9855
828.6648, 728.1837
829.1469, 723.5966
829.6290, 722.5100
830.1111, 724.5052
830.5933, 729.9360
831.0754, 735.4655
831.5575, 743.5427
832.0396, 747.9334
832.5217, 742.4868
833.0038, 734.1439
833.4859, 730.2293
833.9680, 731.1580
834.4501, 733.6805
834.9323, 737.0450
835.4144, 739.5771
835.8965, 737.2419
836.3786, 734.4561
836.8607, 741.0369
837.3428, 754.2248
837.8250, 760.5307
838.3071, 754.2853
838.7892, 744.5612
839.2713, 742.4648
839.7534, 746.5976
840.2355, 751.6540
840.7177, 757.6299
841.1998, 760.9777
841.6819, 760.4693
842.1640, 759.2285
842.6461, 760.4747
843.1282, 762.9219
843.6104, 760.1022
844.0925, 748.6335
844.5746, 741.8589
845.0567, 743.1697
845.5388, 745.1615
846.0209, 743.3324
846.5031, 740.3058
846.9852, 740.6153
847.4673, 744.7913
847.9494, 748.5264
848.4315, 752.3635
848.9136, 754.5223
849.3958, 752.3826
849.8779, 749.8438
850.3600, 751.1651
850.8421, 755.5991
851.3242, 759.1446
851.8063, 760.4754
852.2885, 760.2119
852.7706, 755.1279
853.2527, 751.3757
853.7348, 759.2449
854.2169, 773.6912
854.6990, 781.5901
855.1812, 778.8015
855.6633, 772.2692
856.1454, 767.2405
856.6275, 763.8738
857.1096, 762.3494
857.5917, 762.7870
858.0739, 767.5050
858.5560, 776.5338
859.0381, 781.3974
859.5202, 775.6281
860.0023, 763.9095
860.4844, 755.5738
860.9666, 750.4456
861.4487, 753.1743
861.9308, 766.0556
862.4129, 777.7673
862.8950, 784.0042
863.3771, 786.5977
863.8593, 787.4833
864.3414, 786.6580
864.8235, 785.9332
865.3056, 785.7756
865.7877, 784.9380
866.2698, 783.2140
866.7520, 780.8177
867.2341, 778.0961
867.7162, 774.7365
868.1983, 768.8978
868.6804, 757.8033
869.1625, 754.2379
869.6447, 770.8397
870.1268, 784.3724
870.6089, 777.6915
871.0910, 764.8389
871.5731, 763.4526
872.0552, 774.2421
872.5374, 786.4194
873.0195, 797.6747
873.5016, 803.7556
873.9837, 795.4196
874.4658, 784.0580
874.9479, 787.6214
875.4301, 801.1832
875.9122, 805.4237
876.3943, 793.4196
876.8764, 780.9103
877.3585, 786.3835
877.8406, 801.5354
878.3228, 810.1412
878.8049, 813.0013
879.2870, 812.7245
879.7691, 810.0304
880.2512, 805.5743
880.7333, 799.1338
881.2155, 794.1036
881.6976, 800.1121
882.1797, 817.0593
882.6618, 825.8416
883.1439, 824.7540
883.6260, 822.1475
884.1082, 820.6830
884.5903, 820.6354
885.0724, 822.4813
885.5545, 826.1166
886.0366, 830.3729
886.5187, 837.0550
887.0009, 839.6674
887.4830, 834.9173
887.9651, 829.5031
888.4472, 826.4738
888.9293, 825.8271
889.4114, 828.2487
889.8936, 835.0767
890.3757, 839.2697
890.8578, 836.1497
891.3399, 836.0413
891.8220, 847.1795
892.3041, 858.4066
892.7863, 857.1851
893.2684, 846.7107
893.7505, 841.9771
894.2326, 850.6760
894.7147, 856.1735
895.1968, 847.5047
895.6790, 837.9620
896.1611, 839.7875
896.6432, 846.4971
897.1253, 845.5955
897.6074, 835.3770
898.0895, 826.5316
898.5717, 827.4700
899.0538, 829.7578
899.5359, 825.3502
900.0180, 817.6528
900.5001, 810.1926
900.9822, 804.3063
901.4644, 801.9839
901.9465, 804.1042
902.4286, 809.6171
902.9107, 822.7769
903.3928, 835.9832
903.8749, 828.1594
904.3571, 805.9255
904.8392, 798.0357
905.3213, 809.2710
905.8034, 815.8714
906.2855, 799.4016
906.7676, 774.2985
907.2498, 772.5618
907.7319, 791.2785
908.2140, 801.0012
908.6961, 800.0293
909.1782, 797.9979
909.6603, 798.3162
910.1425, 799.6435
910.6246, 800.5128
911.1067, 801.0795
911.5888, 802.8651
912.0709, 806.9403
912.5530, 806.0045
913.0352, 796.6586
913.5173, 789.4643
913.9994, 790.2144
914.4815, 796.4837
914.9636, 805.9221
915.4457, 820.2072
915.9279, 821.2574
916.4100, 797.7635
916.8921, 781.4880
917.3742, 782.6926
917.8563, 788.0056
918.3384, 787.7124
918.8206, 784.3657
919.3027, 785.1176
919.7848, 792.3568
920.2669, 797.1235
920.7490, 798.1747
921.2311, 797.5718
921.7133, 794.9858
922.1954, 791.8587
922.6775, 788.8372
923.1596, 786.4010
923.6417, 786.5086
924.1238, 791.8047
924.6060, 795.3508
925.0881, 794.0771
925.5702, 791.2659
926.0523, 786.3091
926.5344, 782.6406
927.0165, 787.8450
927.4987, 801.5071
927.9808, 808.5093
928.4629, 795.6008
928.9450, 781.9904
929.4271, 780.2456
929.9092, 783.5109
930.3914, 785.3118
930.8734, 785.5764
931.3555, 786.3450
931.8376, 788.2440
932.3198, 789.7156
932.8019, 789.5530
933.2840, 788.4041
933.7661, 784.6017
934.2482, 781.4109
934.7303, 786.4766
935.2125, 798.4014
935.6946, 808.6094
936.1767, 813.0999
936.6588, 811.4265
937.1409, 798.1892
937.6230, 781.0197
938.1052, 774.8254
938.5873, 777.7725
939.0694, 783.9847
939.5515, 791.5947
940.0336, 799.2133
940.5157, 806.2297
940.9979, 810.7327
941.4800, 807.9265
941.9621, 799.8954
942.4442, 794.8278
942.9263, 792.7839
943.4084, 789.5974
943.8906, 784.0095
944.3727, 782.8209
944.8548, 793.8007
945.3369, 810.5212
945.8190, 814.2410
946.3011, 805.7207
946.7833, 797.6254
947.2654, 790.8925
947.7475, 786.0450
948.2296, 783.1017
948.7117, 783.9124
949.1938, 791.9260
949.6760, 804.9946
950.1581, 808.2500
950.6402, 799.7958
951.1223, 800.0607
951.6044, 813.5019
952.0865, 826.8868
952.5687, 834.2099
953.0508, 835.2140
953.5329, 827.7824
954.0150, 812.0165
954.4971, 807.4433
954.9792, 817.9953
955.4614, 825.9788
955.9435, 827.9435
956.4256, 827.8328
956.9077, 826.6302
957.3898, 826.6351
957.8719, 833.7929
958.3541, 850.4591
958.8362, 857.0181
959.3183, 845.6563
959.8004, 841.5482
960.2825, 856.7696
960.7646, 870.7157
961.2468, 864.4039
961.7289, 846.9353
962.2110, 844.4572
962.6931, 863.5531
963.1752, 876.3334
963.6573, 879.3676
964.1395, 881.2614
964.6216, 879.9667
965.1037, 882.2955
965.5858, 897.7753
966.0679, 921.9754
966.5500, 936.9911
967.0322, 939.9045
967.5143, 940.0119
967.9964, 932.7087
968.4785, 928.6286
968.9606, 933.2977
969.4427, 941.0518
969.9249, 945.1062
970.4070, 947.0018
970.8891, 955.7482
971.3712, 979.0623
971.8533, 995.8524
972.3354, 1001.284
972.8176, 1002.708
973.2997, 997.9929
973.7818, 994.5411
974.2639, 1003.875
974.7460, 1023.715
975.2281, 1034.487
975.7103, 1023.239
976.1924, 1019.083
976.6745, 1035.332
977.1566, 1051.774
977.6387, 1055.752
978.1208, 1054.605
978.6030, 1060.776
979.0851, 1073.659
979.5672, 1076.143
980.0493, 1053.042
980.5314, 1035.691
981.0135, 1035.407
981.4957, 1040.726
981.9778, 1049.920
982.4599, 1057.084
982.9420, 1052.086
983.4241, 1034.950
983.9063, 1022.064
984.3884, 1020.720
984.8705, 1021.470
985.3526, 1022.639
985.8347, 1023.208
986.3168, 1024.092
986.7990, 1023.082
987.2811, 1015.589
987.7632, 1001.341
988.2453, 988.4114
988.7274, 979.8220
989.2095, 972.8947
989.6917, 966.7401
990.1738, 961.5935
990.6559, 959.4765
991.1380, 957.8076
991.6201, 951.6268
992.1022, 940.2059
992.5844, 928.9660
993.0665, 917.9736
993.5486, 910.3870
994.0307, 909.2391
994.5128, 910.7540
994.9949, 913.1356
995.4771, 915.2119
995.9592, 915.2140
996.4413, 912.8430
996.9234, 910.5072
997.4055, 907.8693
997.8876, 907.2551
998.3698, 912.1671
998.8519, 917.5448
999.3340, 921.5835
999.8161, 921.6358
1000.298, 910.9385
1000.780, 888.4926
1001.262, 871.3203
1001.745, 866.6385
1002.227, 869.3550
1002.709, 884.2968
1003.191, 898.8917
1003.673, 899.9025
1004.155, 892.1895
1004.637, 887.2063
1005.119, 887.3999
1005.602, 885.7545
1006.084, 875.4697
1006.566, 867.2769
1007.048, 870.6584
1007.530, 875.0198
1008.012, 867.2402
1008.494, 854.2729
1008.976, 852.1769
1009.458, 864.1920
1009.941, 874.0309
1010.423, 873.8292
1010.905, 871.0688
1011.387, 866.0421
1011.869, 863.0327
1012.351, 869.7168
1012.833, 879.6810
1013.315, 878.5475
1013.797, 863.9456
1014.280, 854.6590
1014.762, 865.7601
1015.244, 873.5787
1015.726, 859.8709
1016.208, 846.0354
1016.690, 853.6033
1017.172, 872.2209
1017.654, 881.0737
1018.137, 876.8311
1018.619, 873.6165
1019.101, 877.3047
1019.583, 881.5109
1020.065, 886.1384
1020.547, 888.0859
1021.029, 882.4241
1021.511, 873.7305
1021.993, 869.9683
1022.476, 872.0075
1022.958, 873.4653
1023.440, 870.6307
1023.922, 869.6357
1024.404, 872.4115
1024.886, 877.5669
1025.368, 889.8259
1025.850, 900.8627
1026.333, 894.8009
1026.815, 871.8009
1027.297, 858.7608
1027.779, 861.4127
1028.261, 881.0836
1028.743, 893.5153
1029.225, 899.0950
1029.707, 877.3049
1030.189, 890.8576
1030.672, 890.2533
1031.154, 889.0619
1031.636, 907.5889
1032.118, 889.7798
1032.600, 907.9943
1033.082, 911.8292
1033.564, 919.3676
1034.046, 909.4290
1034.528, 891.7884
1035.011, 888.2477
1035.493, 898.2448
1035.975, 910.1833
1036.457, 928.7191
1036.939, 939.7807
1037.421, 938.1597
1037.903, 934.9543
1038.385, 930.0655
1038.868, 928.6298
1039.350, 938.2648
1039.832, 956.1092
1040.314, 967.4290
1040.796, 968.4665
1041.278, 971.6747
1041.760, 978.7325
1042.242, 985.3802
1042.724, 992.6804
1043.207, 996.0170
1043.689, 988.4506
1044.171, 974.9347
1044.653, 972.8602
1045.135, 988.7452
1045.617, 990.0519
1046.099, 969.0706
1046.581, 952.0156
1047.063, 946.1840
1047.546, 944.0222
1048.028, 940.7291
1048.510, 936.4130
1048.992, 931.1839
1049.474, 924.8719
1049.956, 919.5091
1050.438, 915.8069
1050.920, 909.4596
1051.403, 898.3795
1051.885, 889.1069
1052.367, 885.6632
1052.849, 886.8937
1053.331, 892.3754
1053.813, 901.2859
1054.295, 898.4150
1054.777, 882.6158
1055.260, 870.1928
1055.742, 863.6143
1056.224, 859.8345
1056.706, 857.4016
1057.188, 856.4230
1057.670, 857.2426
1058.152, 859.4608
1058.634, 862.8584
1059.116, 866.8162
1059.599, 863.5023
1060.081, 852.5069
1060.563, 840.4371
1061.045, 829.8586
1061.527, 822.1982
1062.009, 818.9614
1062.491, 819.3558
1062.973, 823.2410
1063.455, 829.0675
1063.938, 830.7448
1064.420, 828.8315
1064.902, 829.1970
1065.384, 832.8770
1065.866, 832.3953
1066.348, 821.0524
1066.830, 807.6484
1067.312, 803.7813
1067.795, 806.5333
1068.277, 813.5558
1068.759, 821.9365
1069.241, 825.1113
1069.723, 822.5276
1070.205, 818.3587
1070.687, 814.6709
1071.169, 810.9149
1071.651, 807.3940
1072.134, 802.8066
1072.616, 792.0693
1073.098, 781.4537
1073.580, 783.9514
1074.062, 795.3748
1074.544, 797.6541
1075.026, 784.1786
1075.508, 774.7076
1075.990, 786.2689
1076.473, 798.5831
1076.955, 798.1942
1077.437, 793.0084
1077.919, 788.0059
1078.401, 785.3724
1078.883, 789.4692
1079.365, 800.6633
1079.847, 807.3446
1080.329, 803.3253
1080.812, 797.9188
1081.294, 791.2908
1081.776, 786.9401
1082.258, 790.9862
1082.740, 795.9581
1083.222, 789.1739
1083.704, 772.1160
1084.186, 764.1599
1084.669, 773.6199
1085.151, 780.2772
1085.633, 785.2003
1086.115, 784.5768
1086.597, 773.0742
1087.079, 760.0024
1087.561, 752.7170
1088.043, 750.5955
1088.526, 752.5722
1089.008, 761.0091
1089.490, 761.1085
1089.972, 747.4825
1090.454, 743.1277
1090.936, 757.3822
1091.418, 768.1708
1091.900, 759.9758
1092.382, 743.0259
1092.865, 734.1245
1093.347, 732.9105
1093.829, 736.5554
1094.311, 745.3983
1094.793, 748.3318
1095.275, 743.8053
1095.757, 739.7470
1096.239, 739.6152
1096.721, 741.2197
1097.204, 742.4784
1097.686, 743.2700
1098.168, 741.5643
1098.650, 739.2661
1099.132, 746.5258
1099.614, 760.7861
1100.096, 766.8804
1100.578, 761.5687
1101.061, 754.6613
1101.543, 752.7630
1102.025, 751.5571
1102.507, 744.0026
1102.989, 735.4272
1103.471, 732.8521
1103.953, 735.4922
1104.435, 744.6871
1104.917, 757.0189
1105.400, 762.2709
1105.882, 756.4454
1106.364, 746.7554
1106.846, 733.0397
1107.328, 722.8231
1107.810, 723.8863
1108.292, 728.2413
1108.774, 728.3171
1109.256, 725.6848
1109.739, 725.7577
1110.221, 728.8466
1110.703, 726.1984
1111.185, 704.8175
1111.667, 693.8083
1112.149, 708.4380
1112.631, 723.7634
1113.113, 729.1620
1113.596, 728.3403
1114.078, 721.9741
1114.560, 712.9763
1115.042, 713.4047
1115.524, 728.6022
1116.006, 735.6899
1116.488, 731.9528
1116.970, 726.0341
1117.453, 718.1551
1117.935, 712.4764
1118.417, 712.5110
1118.899, 714.7099
1119.381, 713.1136
1119.863, 707.9534
1120.345, 700.0300
1120.827, 689.0654
1121.309, 689.4510
1121.792, 702.8356
1122.274, 708.4144
1122.756, 697.7019
1123.238, 687.1869
1123.720, 693.2388
1124.202, 706.8082
1124.684, 710.9954
1125.166, 708.1519
1125.648, 702.1075
1126.131, 695.0664
1126.613, 692.8568
1127.095, 696.1729
1127.577, 702.7445
1128.059, 711.8705
1128.541, 717.8852
1129.023, 713.6840
1129.505, 706.2040
1129.988, 701.9049
1130.470, 698.3912
1130.952, 691.7519
1131.434, 683.5297
1131.916, 677.6887
1132.398, 675.0042
1132.880, 673.6437
1133.362, 672.7707
1133.844, 673.3442
1134.327, 676.1916
1134.809, 679.9097
1135.291, 686.5416
1135.773, 691.5110
1136.255, 687.9568
1136.737, 678.1260
1137.219, 672.5584
1137.701, 671.6884
1138.183, 674.0648
1138.666, 683.4830
1139.148, 686.5060
1139.630, 677.6246
1140.112, 669.6569
1140.594, 670.9889
1141.076, 674.8569
1141.558, 670.3324
1142.040, 659.8674
1142.523, 658.8792
1143.005, 666.8250
1143.487, 670.4449
1143.969, 668.8998
1144.451, 666.8046
1144.933, 665.6425
1145.415, 664.8412
1145.897, 664.2225
1146.380, 662.4102
1146.862, 655.3503
1147.344, 647.1849
1147.826, 646.0322
1148.308, 649.2305
1148.790, 650.9096
1149.272, 651.1920
1149.754, 655.1348
1150.236, 664.1730
1150.719, 667.8405
1151.201, 655.4478
1151.683, 641.8811
1152.165, 631.3100
1152.647, 626.8423
1153.129, 636.3666
1153.611, 649.8593
1154.093, 653.3469
1154.575, 647.4252
1155.058, 642.0880
1155.540, 638.4095
1156.022, 635.5192
1156.504, 635.2756
1156.986, 632.1381
1157.468, 621.0579
1157.950, 613.7416
1158.432, 618.5040
1158.915, 629.9084
1159.397, 641.0677
1159.879, 650.6030
1160.361, 643.7872
1160.843, 619.9507
1161.325, 609.8098
1161.807, 615.6307
1162.289, 621.2755
1162.771, 621.6130
1163.254, 619.8479
1163.736, 618.2235
1164.218, 616.6141
1164.700, 614.2031
1165.182, 612.1244
1165.664, 614.0928
1166.146, 617.2104
1166.628, 615.0239
1167.110, 608.4561
1167.593, 601.6430
1168.075, 596.1550
1168.557, 595.1156
1169.039, 603.0876
1169.521, 611.2718
1170.003, 617.1064
1170.485, 619.6541
1170.967, 616.0987
1171.450, 610.4940
1171.932, 607.0809
1172.414, 605.7849
1172.896, 605.6274
1173.378, 607.6390
1173.860, 605.7273
1174.342, 595.7859
1174.824, 591.6822
1175.307, 597.1288
1175.789, 604.6144
1176.271, 611.1895
1176.753, 616.0983
1177.235, 618.4767
1177.717, 618.4691
1178.199, 615.1536
1178.681, 609.4697
1179.163, 610.6362
1179.646, 617.0449
1180.128, 616.1666
1180.610, 606.5132
1181.092, 597.0773
1181.574, 592.4594
1182.056, 590.6383
1182.538, 590.2002
1183.020, 591.0612
1183.502, 593.9307
1183.984, 597.3575
1184.467, 601.4808
1184.949, 603.9725
1185.431, 598.9400
1185.913, 587.7863
1186.395, 582.1973
1186.877, 586.4954
1187.359, 592.3086
1187.841, 600.1553
1188.324, 606.2127
1188.806, 609.5342
1189.288, 610.5005
1189.770, 607.4143
1190.252, 604.5983
1190.734, 610.4941
1191.216, 622.3987
1191.698, 615.7167
1192.181, 588.3911
1192.663, 582.2517
1193.145, 599.4509
1193.627, 605.3990
1194.109, 591.4824
1194.591, 579.1784
1195.073, 582.0458
1195.555, 589.5326
1196.037, 589.0146
1196.520, 584.6293
1197.002, 581.7755
1197.484, 580.1500
1197.966, 580.2289
1198.448, 580.7731
1198.930, 576.8185
1199.412, 569.6002
1199.894, 572.2137
1200.376, 594.5811
1200.859, 611.5068
1201.341, 615.4695
1201.823, 611.5220
1202.305, 593.4108
1202.787, 576.7529
1203.269, 572.9775
1203.751, 576.4002
1204.233, 578.5329
1204.716, 579.8179
1205.198, 585.9889
1205.680, 598.9386
1206.162, 599.4560
1206.644, 585.8132
1207.126, 579.8934
1207.608, 587.2825
1208.090, 592.7919
1208.573, 586.8682
1209.055, 579.3332
1209.537, 583.7795
1210.019, 592.8621
1210.501, 594.8676
1210.983, 593.0699
1211.465, 592.8419
1211.947, 593.0121
1212.429, 588.6508
1212.911, 580.6041
1213.394, 577.7366
1213.876, 585.7016
1214.358, 588.2863
1214.840, 571.9388
1215.322, 561.2334
1215.804, 570.1528
1216.286, 580.0958
1216.768, 579.5595
1217.251, 575.4274
1217.733, 576.5936
1218.215, 581.6852
1218.697, 584.3234
1219.179, 584.4789
1219.661, 581.6776
1220.143, 576.0191
1220.625, 574.3619
1221.108, 577.7905
1221.590, 582.3036
1222.072, 585.8896
1222.554, 586.6989
1223.036, 581.7793
1223.518, 575.3212
1224.000, 569.4811
1224.482, 567.6569
1224.964, 577.2026
1225.447, 591.5327
1225.929, 601.9371
1226.411, 607.1866
1226.893, 607.9400
1227.375, 603.8257
1227.857, 599.2316
1228.339, 595.0585
1228.821, 590.0129
1229.303, 582.0095
1229.786, 576.6172
1230.268, 576.0079
1230.750, 578.8325
1231.232, 584.5519
1231.714, 591.3649
1232.196, 594.5319
1232.678, 595.1603
1233.160, 602.3765
1233.643, 613.6052
1234.125, 616.1393
1234.607, 610.3023
1235.089, 603.6599
1235.571, 598.7415
1236.053, 594.9902
1236.535, 592.5770
1237.017, 589.2084
1237.500, 580.1195
1237.982, 573.3907
1238.464, 578.0147
1238.946, 583.9836
1239.428, 579.7432
1239.910, 571.6969
1240.392, 574.3615
1240.874, 586.0512
1241.356, 588.5677
1241.839, 578.2169
1242.321, 571.0029
1242.803, 565.9895
1243.285, 573.1895
1243.767, 595.8736
1244.249, 611.0948
1244.731, 606.4285
1245.213, 597.2061
1245.695, 600.9931
1246.178, 607.3571
1246.660, 595.6747
1247.142, 578.4019
1247.624, 574.9546
1248.106, 580.2933
1248.588, 587.5403
1249.070, 593.0415
1249.552, 588.8160
1250.035, 572.4582
1250.517, 564.9849
1250.999, 581.4777
1251.481, 591.3660
1251.963, 587.3512
1252.445, 581.7567
1252.927, 577.5450
1253.409, 574.3005
1253.891, 571.3477
1254.374, 570.1706
1254.856, 574.0921
1255.338, 581.4030
1255.820, 583.5557
1256.302, 582.5048
1256.784, 588.6998
1257.266, 599.0279
1257.748, 597.8066
##END=



