##NAMES=Gmelinite-Ca
##RRUFFID=R061130
##IDEAL CHEMISTRY=Ca_2_(Si_8_Al_4_)O_24_&#183;11H_2_O
##LOCALITY=Fara Vicentino, Vicenza, Veneto, Italy
##OWNER=RRUFF
##SOURCE=Michael Scott
##DESCRIPTION=Pale orange tabular crystals lining vesicles in basalt
##STATUS=The identification of this mineral is confirmed by single-crystal X-ray diffraction and chemical analysis.
##URL=rruff.info/R061130
##MEASURED CHEMISTRY=(Ca_1.70_Na_0.21_K_0.09_)(Si_8.30_Al_3.70_)O_24_Â·11H_2_O; H_2_O estimated by difference
149.7549, 2124.262
150.2370, 2118.190
150.7191, 2118.456
151.2012, 2132.301
151.6833, 2139.174
152.1654, 2135.599
152.6476, 2127.078
153.1297, 2118.486
153.6118, 2111.290
154.0939, 2102.978
154.5760, 2088.086
155.0581, 2059.129
155.5403, 2034.693
156.0224, 2013.161
156.5045, 1996.923
156.9866, 1988.708
157.4687, 1989.334
157.9508, 1996.650
158.4330, 2006.356
158.9151, 2025.882
159.3972, 2037.877
159.8793, 2035.810
160.3614, 2029.304
160.8435, 2028.268
161.3257, 2036.320
161.8078, 2049.517
162.2899, 2059.638
162.7720, 2060.569
163.2541, 2066.597
163.7362, 2081.656
164.2184, 2100.679
164.7005, 2118.760
165.1826, 2134.250
165.6647, 2146.877
166.1468, 2155.866
166.6289, 2158.044
167.1111, 2161.773
167.5932, 2172.350
168.0753, 2183.375
168.5574, 2185.298
169.0395, 2174.312
169.5216, 2157.555
170.0038, 2149.687
170.4859, 2155.279
170.9680, 2159.533
171.4501, 2160.067
171.9322, 2158.140
172.4143, 2155.470
172.8965, 2152.629
173.3786, 2149.126
173.8607, 2143.667
174.3428, 2135.357
174.8249, 2127.795
175.3070, 2123.637
175.7892, 2120.152
176.2713, 2111.776
176.7534, 2095.904
177.2355, 2078.795
177.7176, 2073.538
178.1997, 2083.181
178.6819, 2088.154
179.1640, 2078.692
179.6461, 2062.708
180.1282, 2052.821
180.6103, 2052.817
181.0924, 2058.607
181.5745, 2066.010
182.0567, 2075.661
182.5388, 2082.101
183.0209, 2083.870
183.5030, 2081.411
183.9851, 2074.175
184.4672, 2060.860
184.9494, 2046.607
185.4315, 2038.555
185.9136, 2036.196
186.3957, 2035.530
186.8778, 2037.143
187.3599, 2039.286
187.8421, 2037.881
188.3242, 2030.870
188.8063, 2024.234
189.2884, 2027.960
189.7705, 2040.592
190.2526, 2048.344
190.7348, 2041.433
191.2169, 2028.180
191.6990, 2023.975
192.1811, 2032.776
192.6632, 2045.075
193.1453, 2051.219
193.6275, 2052.568
194.1096, 2054.276
194.5917, 2059.388
195.0738, 2065.466
195.5559, 2068.539
196.0380, 2068.040
196.5202, 2065.160
197.0023, 2058.887
197.4844, 2050.551
197.9665, 2044.617
198.4486, 2045.178
198.9307, 2048.009
199.4129, 2046.190
199.8950, 2038.665
200.3771, 2029.181
200.8592, 2018.316
201.3413, 2007.414
201.8234, 2000.127
202.3056, 1999.828
202.7877, 2002.811
203.2698, 2005.046
203.7519, 2007.106
204.2340, 2005.271
204.7161, 1991.635
205.1983, 1972.736
205.6804, 1960.763
206.1625, 1964.790
206.6446, 1973.015
207.1267, 1969.439
207.6088, 1952.504
208.0910, 1934.516
208.5731, 1920.003
209.0552, 1909.601
209.5373, 1905.374
210.0194, 1912.261
210.5015, 1920.443
210.9837, 1918.550
211.4658, 1906.010
211.9479, 1891.085
212.4300, 1873.558
212.9121, 1857.753
213.3942, 1850.500
213.8764, 1855.870
214.3585, 1863.957
214.8406, 1865.782
215.3227, 1861.340
215.8048, 1854.863
216.2869, 1846.777
216.7691, 1838.125
217.2512, 1830.752
217.7333, 1825.483
218.2154, 1818.885
218.6975, 1805.782
219.1796, 1786.976
219.6618, 1773.294
220.1439, 1769.706
220.6260, 1771.427
221.1081, 1773.776
221.5902, 1777.173
222.0723, 1777.096
222.5545, 1767.771
223.0366, 1751.239
223.5187, 1738.124
224.0008, 1730.713
224.4829, 1728.237
224.9650, 1731.084
225.4472, 1739.118
225.9293, 1744.997
226.4114, 1744.740
226.8935, 1739.148
227.3756, 1729.946
227.8577, 1715.362
228.3399, 1700.981
228.8220, 1692.040
229.3041, 1687.745
229.7862, 1684.197
230.2683, 1678.015
230.7504, 1671.673
231.2325, 1671.659
231.7147, 1680.760
232.1968, 1690.033
232.6789, 1690.923
233.1610, 1686.038
233.6431, 1681.873
234.1252, 1681.594
234.6074, 1682.746
235.0895, 1681.224
235.5716, 1676.384
236.0537, 1671.860
236.5358, 1671.407
237.0179, 1672.951
237.5001, 1671.953
237.9822, 1664.793
238.4643, 1656.785
238.9464, 1653.740
239.4285, 1655.730
239.9106, 1659.090
240.3928, 1662.798
240.8749, 1666.237
241.3570, 1668.320
241.8391, 1668.954
242.3212, 1668.250
242.8033, 1667.062
243.2855, 1665.052
243.7676, 1658.833
244.2497, 1643.668
244.7318, 1626.434
245.2139, 1619.958
245.6960, 1627.692
246.1782, 1636.359
246.6603, 1639.074
247.1424, 1637.165
247.6245, 1634.033
248.1066, 1629.556
248.5887, 1626.274
249.0709, 1628.941
249.5530, 1638.165
250.0351, 1646.422
250.5172, 1650.933
250.9993, 1652.755
251.4814, 1654.036
251.9636, 1655.519
252.4457, 1655.120
252.9278, 1647.875
253.4099, 1633.748
253.8920, 1625.743
254.3741, 1632.090
254.8563, 1642.711
255.3384, 1646.372
255.8205, 1641.738
256.3026, 1634.080
256.7847, 1626.679
257.2668, 1619.874
257.7490, 1617.047
258.2311, 1620.213
258.7132, 1625.879
259.1953, 1634.088
259.6774, 1643.697
260.1595, 1648.245
260.6417, 1641.988
261.1238, 1627.211
261.6059, 1619.024
262.0880, 1620.997
262.5701, 1625.008
263.0522, 1630.156
263.5344, 1634.884
264.0165, 1635.217
264.4986, 1628.641
264.9807, 1617.583
265.4628, 1609.014
265.9449, 1600.522
266.4271, 1597.534
266.9092, 1605.576
267.3913, 1618.282
267.8734, 1627.395
268.3555, 1630.220
268.8376, 1629.018
269.3198, 1627.431
269.8019, 1626.252
270.2840, 1622.709
270.7661, 1610.484
271.2482, 1599.842
271.7303, 1602.110
272.2125, 1617.685
272.6946, 1635.134
273.1767, 1642.119
273.6588, 1636.498
274.1409, 1629.870
274.6230, 1618.257
275.1052, 1609.392
275.5873, 1610.016
276.0694, 1617.443
276.5515, 1622.381
277.0336, 1616.988
277.5157, 1602.108
277.9979, 1596.173
278.4800, 1607.547
278.9621, 1618.503
279.4442, 1626.506
279.9263, 1631.346
280.4084, 1632.949
280.8906, 1631.191
281.3727, 1626.857
281.8548, 1622.089
282.3369, 1613.832
282.8190, 1609.995
283.3011, 1613.087
283.7833, 1619.471
284.2654, 1626.709
284.7475, 1633.802
285.2296, 1640.034
285.7117, 1644.489
286.1938, 1647.825
286.6760, 1647.379
287.1581, 1637.671
287.6402, 1628.772
288.1223, 1627.445
288.6044, 1633.052
289.0865, 1639.480
289.5687, 1641.569
290.0508, 1639.291
290.5329, 1633.906
291.0150, 1619.158
291.4971, 1608.433
291.9792, 1607.856
292.4614, 1614.738
292.9435, 1624.144
293.4256, 1634.735
293.9077, 1644.753
294.3898, 1647.680
294.8719, 1639.565
295.3541, 1633.247
295.8362, 1635.031
296.3183, 1640.253
296.8004, 1643.538
297.2825, 1642.639
297.7646, 1641.841
298.2468, 1648.680
298.7289, 1664.255
299.2110, 1673.963
299.6931, 1670.447
300.1752, 1661.846
300.6573, 1654.787
301.1395, 1649.652
301.6216, 1646.179
302.1037, 1642.456
302.5858, 1639.907
303.0679, 1645.692
303.5500, 1665.033
304.0321, 1684.369
304.5143, 1690.126
304.9964, 1685.060
305.4785, 1679.116
305.9606, 1673.805
306.4427, 1670.134
306.9248, 1667.974
307.4070, 1667.122
307.8891, 1673.878
308.3712, 1699.077
308.8533, 1734.733
309.3354, 1751.656
309.8175, 1734.666
310.2997, 1713.801
310.7818, 1707.162
311.2639, 1710.862
311.7460, 1711.617
312.2281, 1702.396
312.7102, 1689.840
313.1924, 1690.920
313.6745, 1712.393
314.1566, 1728.976
314.6387, 1732.459
315.1208, 1729.776
315.6029, 1728.687
316.0851, 1730.997
316.5672, 1734.952
317.0493, 1739.197
317.5314, 1744.885
318.0135, 1744.524
318.4956, 1727.536
318.9778, 1714.251
319.4599, 1721.344
319.9420, 1743.586
320.4241, 1761.851
320.9062, 1761.826
321.3883, 1745.549
321.8705, 1733.238
322.3526, 1727.286
322.8347, 1722.676
323.3168, 1716.589
323.7989, 1712.192
324.2810, 1715.801
324.7632, 1729.771
325.2453, 1746.194
325.7274, 1748.035
326.2095, 1725.467
326.6916, 1709.983
327.1737, 1708.776
327.6559, 1710.139
328.1380, 1706.462
328.6201, 1697.423
329.1022, 1687.973
329.5843, 1683.398
330.0664, 1683.752
330.5486, 1681.514
331.0307, 1673.767
331.5128, 1667.043
331.9949, 1664.355
332.4770, 1664.497
332.9591, 1665.239
333.4413, 1665.599
333.9234, 1665.838
334.4055, 1667.788
334.8876, 1673.042
335.3697, 1672.776
335.8518, 1655.071
336.3340, 1634.613
336.8161, 1628.973
337.2982, 1643.531
337.7803, 1656.412
338.2624, 1646.671
338.7445, 1619.968
339.2267, 1602.410
339.7088, 1602.679
340.1909, 1607.191
340.6730, 1597.987
341.1551, 1577.047
341.6372, 1564.209
342.1194, 1570.472
342.6015, 1584.159
343.0836, 1593.270
343.5657, 1597.060
344.0478, 1598.052
344.5299, 1597.452
345.0121, 1595.419
345.4942, 1593.232
345.9763, 1589.614
346.4584, 1587.258
346.9405, 1590.338
347.4226, 1594.849
347.9048, 1591.535
348.3869, 1576.400
348.8690, 1558.138
349.3511, 1552.847
349.8332, 1572.036
350.3153, 1582.802
350.7975, 1577.744
351.2796, 1570.148
351.7617, 1570.838
352.2438, 1579.366
352.7259, 1587.167
353.2080, 1586.316
353.6902, 1576.800
354.1723, 1568.122
354.6544, 1559.167
355.1365, 1552.454
355.6186, 1547.710
356.1007, 1545.781
356.5829, 1548.451
357.0650, 1556.791
357.5471, 1567.867
358.0292, 1576.975
358.5113, 1585.345
358.9934, 1587.621
359.4756, 1574.969
359.9577, 1561.568
360.4398, 1557.297
360.9219, 1562.248
361.4040, 1567.889
361.8861, 1566.369
362.3683, 1559.529
362.8504, 1556.883
363.3325, 1560.259
363.8146, 1564.847
364.2967, 1567.974
364.7788, 1570.054
365.2610, 1571.487
365.7431, 1570.571
366.2252, 1571.025
366.7073, 1579.916
367.1894, 1595.393
367.6715, 1603.096
368.1537, 1595.245
368.6358, 1579.069
369.1179, 1567.354
369.6000, 1560.026
370.0821, 1555.824
370.5642, 1555.637
371.0464, 1557.886
371.5285, 1561.255
372.0106, 1565.393
372.4927, 1569.333
372.9748, 1572.148
373.4569, 1573.763
373.9391, 1575.379
374.4212, 1575.399
374.9033, 1577.094
375.3854, 1582.421
375.8675, 1590.147
376.3496, 1599.292
376.8318, 1609.562
377.3139, 1618.090
377.7960, 1617.979
378.2781, 1604.041
378.7602, 1590.620
379.2423, 1573.596
379.7245, 1560.697
380.2066, 1558.170
380.6887, 1565.489
381.1708, 1576.890
381.6529, 1589.263
382.1350, 1602.017
382.6172, 1607.881
383.0993, 1604.347
383.5814, 1597.637
384.0635, 1583.501
384.5456, 1570.161
385.0277, 1570.974
385.5099, 1593.775
385.9920, 1621.799
386.4741, 1635.275
386.9562, 1634.840
387.4383, 1631.424
387.9204, 1624.370
388.4026, 1619.862
388.8847, 1628.069
389.3668, 1648.540
389.8489, 1662.563
390.3310, 1657.192
390.8131, 1645.526
391.2953, 1644.133
391.7774, 1653.800
392.2595, 1664.723
392.7416, 1669.876
393.2237, 1670.843
393.7058, 1677.147
394.1880, 1695.045
394.6701, 1709.898
395.1522, 1715.064
395.6343, 1716.015
396.1164, 1721.184
396.5985, 1732.858
397.0807, 1745.083
397.5628, 1748.598
398.0449, 1738.417
398.5270, 1737.326
399.0091, 1750.485
399.4912, 1766.510
399.9734, 1783.654
400.4555, 1799.590
400.9376, 1810.025
401.4197, 1811.247
401.9018, 1807.938
402.3839, 1813.413
402.8660, 1829.288
403.3481, 1849.847
403.8303, 1885.495
404.3124, 1917.571
404.7945, 1927.175
405.2766, 1912.909
405.7587, 1898.216
406.2408, 1901.723
406.7230, 1919.044
407.2051, 1935.715
407.6872, 1951.013
408.1693, 1964.114
408.6514, 1973.296
409.1335, 1979.762
409.6157, 1986.673
410.0978, 1991.417
410.5799, 2000.013
411.0620, 2019.744
411.5441, 2046.383
412.0262, 2069.547
412.5084, 2085.868
412.9905, 2095.970
413.4726, 2100.215
413.9547, 2095.745
414.4368, 2092.683
414.9189, 2090.937
415.4011, 2090.662
415.8832, 2093.029
416.3653, 2097.095
416.8474, 2100.701
417.3295, 2102.723
417.8116, 2102.582
418.2938, 2097.035
418.7759, 2078.726
419.2580, 2067.209
419.7401, 2071.375
420.2222, 2078.356
420.7043, 2076.826
421.1865, 2065.354
421.6686, 2051.769
422.1507, 2044.510
422.6328, 2042.622
423.1149, 2035.653
423.5970, 2020.263
424.0792, 2005.730
424.5613, 1996.142
425.0434, 1991.152
425.5255, 1991.479
426.0076, 2000.237
426.4897, 2009.394
426.9719, 2012.361
427.4540, 2010.162
427.9361, 2006.152
428.4182, 2000.804
428.9003, 1995.443
429.3824, 1991.805
429.8646, 1990.091
430.3467, 1988.942
430.8288, 1983.350
431.3109, 1982.550
431.7930, 1997.150
432.2751, 2022.231
432.7573, 2042.968
433.2394, 2050.722
433.7215, 2049.783
434.2036, 2053.595
434.6857, 2066.635
435.1678, 2077.217
435.6500, 2079.593
436.1321, 2083.540
436.6142, 2099.562
437.0963, 2125.776
437.5784, 2148.801
438.0605, 2156.669
438.5427, 2151.935
439.0248, 2146.797
439.5069, 2135.815
439.9890, 2137.048
440.4711, 2170.648
440.9532, 2215.339
441.4354, 2247.602
441.9175, 2261.969
442.3996, 2271.341
442.8817, 2283.179
443.3638, 2297.082
443.8459, 2311.575
444.3281, 2325.938
444.8102, 2343.644
445.2923, 2370.542
445.7744, 2405.931
446.2565, 2429.837
446.7386, 2430.286
447.2208, 2431.789
447.7029, 2444.544
448.1850, 2465.816
448.6671, 2492.180
449.1492, 2522.211
449.6313, 2551.948
450.1135, 2573.939
450.5956, 2583.293
451.0777, 2600.123
451.5598, 2629.584
452.0419, 2661.114
452.5240, 2693.573
453.0062, 2724.366
453.4883, 2748.658
453.9704, 2762.503
454.4525, 2771.913
454.9346, 2790.143
455.4167, 2819.120
455.8989, 2842.268
456.3810, 2847.751
456.8631, 2853.776
457.3452, 2880.934
457.8273, 2927.897
458.3094, 2968.658
458.7916, 2987.179
459.2737, 2997.786
459.7558, 3018.668
460.2379, 3049.363
460.7200, 3077.317
461.2021, 3094.882
461.6843, 3106.378
462.1664, 3124.311
462.6485, 3155.718
463.1306, 3181.301
463.6127, 3198.688
464.0948, 3210.075
464.5770, 3212.673
465.0591, 3209.532
465.5412, 3212.421
466.0233, 3232.972
466.5054, 3266.791
466.9875, 3283.219
467.4697, 3267.812
467.9518, 3260.076
468.4339, 3275.933
468.9160, 3298.224
469.3981, 3310.450
469.8802, 3310.135
470.3624, 3310.394
470.8445, 3325.996
471.3266, 3350.490
471.8087, 3363.009
472.2908, 3361.169
472.7729, 3352.555
473.2551, 3338.203
473.7372, 3321.234
474.2193, 3311.193
474.7014, 3308.507
475.1835, 3312.023
475.6656, 3325.520
476.1478, 3343.252
476.6299, 3359.452
477.1120, 3372.226
477.5941, 3377.481
478.0762, 3369.117
478.5583, 3346.471
479.0405, 3335.733
479.5226, 3344.635
480.0047, 3357.299
480.4868, 3376.593
480.9689, 3395.493
481.4510, 3405.113
481.9332, 3403.298
482.4153, 3397.546
482.8974, 3397.070
483.3795, 3401.249
483.8616, 3398.764
484.3438, 3384.045
484.8259, 3372.559
485.3080, 3380.555
485.7901, 3397.765
486.2722, 3404.869
486.7543, 3392.768
487.2365, 3380.066
487.7186, 3383.441
488.2007, 3393.658
488.6828, 3388.844
489.1649, 3363.635
489.6470, 3335.730
490.1292, 3325.124
490.6113, 3334.116
491.0934, 3329.617
491.5755, 3303.511
492.0576, 3275.303
492.5397, 3248.104
493.0219, 3223.024
493.5040, 3202.535
493.9861, 3187.057
494.4682, 3170.960
494.9503, 3145.648
495.4324, 3110.526
495.9146, 3080.997
496.3967, 3064.703
496.8788, 3042.594
497.3609, 2998.338
497.8430, 2943.546
498.3251, 2896.604
498.8073, 2861.462
499.2894, 2836.099
499.7715, 2827.998
500.2536, 2828.032
500.7357, 2812.911
501.2178, 2777.298
501.6999, 2731.409
502.1820, 2682.842
502.6642, 2631.498
503.1463, 2588.772
503.6284, 2558.503
504.1105, 2531.489
504.5926, 2509.091
505.0747, 2486.787
505.5569, 2457.534
506.0390, 2420.205
506.5211, 2381.380
507.0032, 2349.892
507.4853, 2326.001
507.9674, 2298.097
508.4496, 2262.719
508.9317, 2228.959
509.4138, 2202.324
509.8959, 2178.988
510.3780, 2153.868
510.8601, 2125.221
511.3423, 2096.996
511.8244, 2071.282
512.3065, 2048.073
512.7886, 2028.564
513.2708, 2013.125
513.7529, 1996.402
514.2350, 1973.423
514.7171, 1945.042
515.1992, 1921.259
515.6813, 1907.596
516.1635, 1890.768
516.6456, 1865.186
517.1277, 1837.297
517.6098, 1812.318
518.0919, 1791.780
518.5740, 1777.116
519.0562, 1772.655
519.5383, 1775.641
520.0204, 1761.899
520.5025, 1719.754
520.9846, 1688.668
521.4667, 1696.747
521.9489, 1716.107
522.4310, 1718.982
522.9131, 1701.484
523.3952, 1681.772
523.8773, 1666.544
524.3594, 1655.660
524.8416, 1651.372
525.3237, 1652.788
525.8058, 1650.878
526.2879, 1639.555
526.7700, 1622.274
527.2521, 1610.130
527.7343, 1606.626
528.2164, 1603.524
528.6985, 1601.551
529.1806, 1599.366
529.6627, 1596.607
530.1448, 1592.851
530.6270, 1586.890
531.1091, 1577.152
531.5912, 1566.228
532.0733, 1561.015
532.5554, 1562.673
533.0375, 1561.684
533.5197, 1554.621
534.0018, 1545.343
534.4839, 1537.792
534.9660, 1531.703
535.4481, 1524.409
535.9302, 1508.687
536.4124, 1497.248
536.8945, 1506.948
537.3766, 1528.742
537.8587, 1536.978
538.3408, 1521.739
538.8229, 1498.212
539.3051, 1489.647
539.7872, 1501.412
540.2693, 1505.348
540.7514, 1498.134
541.2335, 1486.647
541.7156, 1463.927
542.1978, 1441.257
542.6799, 1437.995
543.1620, 1461.862
543.6441, 1488.452
544.1262, 1489.575
544.6083, 1470.334
545.0905, 1455.821
545.5726, 1448.823
546.0547, 1446.504
546.5368, 1448.437
547.0189, 1453.526
547.5010, 1456.922
547.9832, 1459.044
548.4653, 1458.941
548.9474, 1453.449
549.4295, 1447.343
549.9116, 1446.986
550.3937, 1452.006
550.8758, 1456.283
551.3579, 1454.924
551.8400, 1448.867
552.3221, 1441.990
552.8043, 1433.725
553.2864, 1426.088
553.7685, 1418.496
554.2506, 1412.476
554.7327, 1409.588
555.2148, 1409.615
555.6970, 1410.297
556.1791, 1409.117
556.6612, 1409.099
557.1433, 1416.962
557.6254, 1430.051
558.1075, 1435.039
558.5897, 1426.007
559.0718, 1411.405
559.5539, 1403.415
560.0360, 1403.374
560.5181, 1404.722
561.0002, 1408.031
561.4824, 1411.901
561.9645, 1416.826
562.4466, 1421.620
562.9287, 1426.214
563.4108, 1430.466
563.8929, 1428.992
564.3751, 1408.856
564.8572, 1374.766
565.3393, 1360.638
565.8214, 1373.387
566.3035, 1389.995
566.7856, 1399.037
567.2678, 1401.563
567.7499, 1401.530
568.2320, 1399.543
568.7141, 1393.707
569.1962, 1377.844
569.6783, 1361.784
570.1605, 1357.010
570.6426, 1361.866
571.1247, 1364.461
571.6068, 1356.308
572.0889, 1343.430
572.5710, 1345.481
573.0532, 1371.191
573.5353, 1384.214
574.0174, 1365.849
574.4995, 1347.173
574.9816, 1350.189
575.4637, 1368.595
575.9459, 1380.503
576.4280, 1374.191
576.9101, 1364.362
577.3922, 1363.068
577.8743, 1367.967
578.3564, 1374.978
578.8386, 1383.143
579.3207, 1386.589
579.8028, 1378.024
580.2849, 1357.736
580.7670, 1345.195
581.2491, 1347.732
581.7313, 1349.317
582.2134, 1346.861
582.6955, 1343.210
583.1776, 1340.303
583.6597, 1338.755
584.1418, 1339.308
584.6240, 1343.640
585.1061, 1349.933
585.5882, 1355.418
586.0703, 1360.044
586.5524, 1359.994
587.0345, 1352.728
587.5167, 1342.248
587.9988, 1333.662
588.4809, 1326.947
588.9630, 1322.759
589.4451, 1321.703
589.9272, 1322.557
590.4094, 1325.385
590.8915, 1329.541
591.3736, 1335.805
591.8557, 1343.909
592.3378, 1348.492
592.8199, 1337.962
593.3021, 1314.474
593.7842, 1312.543
594.2663, 1342.796
594.7484, 1362.882
595.2305, 1344.185
595.7126, 1308.392
596.1948, 1292.642
596.6769, 1301.990
597.1590, 1310.516
597.6411, 1308.999
598.1232, 1305.138
598.6053, 1304.091
599.0875, 1306.507
599.5696, 1313.139
600.0517, 1324.437
600.5338, 1337.556
601.0159, 1347.537
601.4980, 1354.035
601.9802, 1359.161
602.4623, 1365.765
602.9444, 1366.872
603.4265, 1356.172
603.9086, 1339.173
604.3907, 1323.878
604.8729, 1310.803
605.3550, 1302.765
605.8371, 1304.538
606.3192, 1310.705
606.8013, 1313.096
607.2834, 1311.651
607.7656, 1312.099
608.2477, 1318.316
608.7298, 1327.472
609.2119, 1331.768
609.6940, 1329.484
610.1761, 1326.244
610.6583, 1321.164
611.1404, 1316.206
611.6225, 1311.589
612.1046, 1307.871
612.5867, 1306.690
613.0688, 1309.938
613.5510, 1311.773
614.0331, 1304.525
614.5152, 1292.669
614.9973, 1287.151
615.4794, 1289.294
615.9615, 1292.216
616.4437, 1290.834
616.9258, 1286.509
617.4079, 1285.037
617.8900, 1291.563
618.3721, 1292.447
618.8542, 1279.942
619.3364, 1268.732
619.8185, 1269.513
620.3006, 1278.838
620.7827, 1286.868
621.2648, 1289.212
621.7469, 1288.505
622.2291, 1285.678
622.7112, 1282.120
623.1933, 1284.339
623.6754, 1294.000
624.1575, 1301.854
624.6396, 1299.275
625.1218, 1289.139
625.6039, 1287.852
626.0860, 1311.037
626.5681, 1321.701
627.0502, 1305.897
627.5323, 1287.364
628.0145, 1283.682
628.4966, 1292.136
628.9787, 1300.110
629.4608, 1300.951
629.9429, 1298.898
630.4250, 1300.312
630.9072, 1304.201
631.3893, 1305.146
631.8714, 1302.088
632.3535, 1296.372
632.8356, 1288.187
633.3177, 1278.232
633.7999, 1271.148
634.2820, 1268.951
634.7641, 1266.702
635.2462, 1262.337
635.7283, 1259.099
636.2104, 1259.348
636.6926, 1262.918
637.1747, 1269.197
637.6568, 1279.229
638.1389, 1288.034
638.6210, 1285.444
639.1031, 1273.685
639.5853, 1269.514
640.0674, 1277.152
640.5495, 1285.360
641.0316, 1285.208
641.5137, 1278.203
641.9958, 1273.234
642.4780, 1269.362
642.9601, 1268.672
643.4422, 1274.566
643.9243, 1281.031
644.4064, 1283.380
644.8885, 1282.329
645.3707, 1281.644
645.8528, 1283.858
646.3349, 1285.222
646.8170, 1278.316
647.2991, 1265.024
647.7813, 1257.085
648.2634, 1256.643
648.7455, 1259.449
649.2276, 1263.734
649.7097, 1268.460
650.1918, 1269.148
650.6740, 1264.202
651.1561, 1257.677
651.6382, 1242.652
652.1203, 1232.437
652.6024, 1242.737
653.0845, 1264.559
653.5667, 1274.936
654.0488, 1261.811
654.5309, 1241.903
655.0130, 1235.792
655.4951, 1240.507
655.9772, 1244.196
656.4594, 1245.551
656.9415, 1244.892
657.4236, 1241.405
657.9057, 1236.979
658.3878, 1237.613
658.8699, 1251.658
659.3521, 1255.939
659.8342, 1240.190
660.3163, 1224.995
660.7984, 1223.198
661.2805, 1229.658
661.7626, 1233.607
662.2448, 1231.021
662.7269, 1226.731
663.2090, 1226.156
663.6911, 1227.356
664.1732, 1223.448
664.6553, 1214.148
665.1375, 1210.540
665.6196, 1220.024
666.1017, 1235.198
666.5838, 1240.713
667.0659, 1233.746
667.5480, 1224.628
668.0302, 1206.241
668.5123, 1193.779
668.9944, 1198.094
669.4765, 1209.383
669.9586, 1213.828
670.4407, 1208.060
670.9229, 1200.033
671.4050, 1194.750
671.8871, 1191.049
672.3692, 1185.850
672.8513, 1179.953
673.3334, 1179.031
673.8156, 1185.792
674.2977, 1195.151
674.7798, 1199.502
675.2619, 1197.943
675.7440, 1198.675
676.2261, 1204.381
676.7083, 1208.638
677.1904, 1211.704
677.6725, 1211.439
678.1546, 1203.304
678.6367, 1187.802
679.1188, 1175.919
679.6010, 1174.466
680.0831, 1177.575
680.5652, 1181.233
681.0473, 1184.838
681.5294, 1187.578
682.0115, 1189.142
682.4937, 1188.338
682.9758, 1182.931
683.4579, 1174.202
683.9400, 1174.307
684.4221, 1189.021
684.9042, 1197.687
685.3864, 1193.166
685.8685, 1183.485
686.3506, 1171.467
686.8327, 1159.022
687.3148, 1155.015
687.7969, 1170.081
688.2791, 1183.369
688.7612, 1182.428
689.2433, 1175.333
689.7254, 1172.419
690.2075, 1174.293
690.6896, 1175.089
691.1718, 1170.609
691.6539, 1163.555
692.1360, 1160.383
692.6181, 1161.325
693.1002, 1161.346
693.5823, 1158.457
694.0645, 1157.900
694.5466, 1164.333
695.0287, 1175.690
695.5108, 1185.451
695.9929, 1194.823
696.4750, 1200.123
696.9572, 1200.769
697.4393, 1197.154
697.9214, 1185.776
698.4035, 1171.161
698.8856, 1161.958
699.3677, 1161.622
699.8499, 1165.255
700.3320, 1168.837
700.8141, 1171.969
701.2962, 1172.299
701.7783, 1169.700
702.2604, 1169.990
702.7426, 1176.706
703.2247, 1185.374
703.7068, 1188.956
704.1889, 1186.848
704.6710, 1182.493
705.1531, 1170.403
705.6353, 1162.804
706.1174, 1167.769
706.5995, 1175.657
707.0816, 1175.022
707.5637, 1165.381
708.0458, 1157.828
708.5280, 1161.284
709.0101, 1167.397
709.4922, 1165.978
709.9743, 1160.303
710.4564, 1159.787
710.9385, 1166.289
711.4207, 1172.157
711.9028, 1169.829
712.3849, 1161.686
712.8670, 1161.077
713.3491, 1171.890
713.8312, 1177.997
714.3134, 1175.282
714.7955, 1169.039
715.2776, 1161.980
715.7597, 1154.469
716.2418, 1147.427
716.7239, 1139.585
717.2061, 1134.726
717.6882, 1136.110
718.1703, 1139.573
718.6524, 1142.126
719.1345, 1143.268
719.6166, 1142.397
720.0988, 1139.132
720.5809, 1136.099
721.0630, 1137.551
721.5451, 1142.661
722.0272, 1146.691
722.5093, 1149.565
722.9915, 1149.528
723.4736, 1144.567
723.9557, 1138.350
724.4378, 1137.500
724.9199, 1144.035
725.4020, 1146.762
725.8842, 1139.908
726.3663, 1136.634
726.8484, 1145.104
727.3305, 1156.190
727.8126, 1160.645
728.2947, 1157.522
728.7769, 1151.173
729.2590, 1143.584
729.7411, 1134.224
730.2232, 1119.312
730.7053, 1102.741
731.1874, 1094.058
731.6696, 1094.865
732.1517, 1100.733
732.6338, 1109.096
733.1159, 1117.844
733.5980, 1118.108
734.0801, 1106.355
734.5623, 1102.016
735.0444, 1113.127
735.5265, 1123.007
736.0086, 1118.493
736.4907, 1105.705
736.9728, 1097.568
737.4550, 1095.168
737.9371, 1096.154
738.4192, 1104.433
738.9013, 1111.720
739.3834, 1110.000
739.8655, 1103.790
740.3477, 1102.605
740.8298, 1109.187
741.3119, 1116.478
741.7940, 1117.834
742.2761, 1114.771
742.7582, 1110.184
743.2404, 1104.304
743.7225, 1098.750
744.2046, 1093.710
744.6867, 1091.489
745.1688, 1095.815
745.6509, 1106.064
746.1331, 1107.826
746.6152, 1092.531
747.0973, 1083.747
747.5793, 1091.899
748.0615, 1101.291
748.5436, 1102.001
749.0257, 1095.762
749.5078, 1088.409
749.9899, 1079.403
750.4720, 1073.644
750.9542, 1076.419
751.4363, 1081.600
751.9184, 1082.473
752.4005, 1079.743
752.8826, 1077.107
753.3647, 1076.249
753.8469, 1077.259
754.3290, 1081.682
754.8111, 1088.495
755.2932, 1089.511
755.7753, 1083.606
756.2574, 1085.052
756.7396, 1102.488
757.2217, 1122.446
757.7038, 1126.497
758.1859, 1113.175
758.6680, 1104.263
759.1501, 1104.792
759.6323, 1103.327
760.1144, 1095.447
760.5965, 1087.219
761.0786, 1083.477
761.5607, 1083.773
762.0428, 1085.191
762.5250, 1088.223
763.0071, 1089.231
763.4892, 1084.004
763.9713, 1076.363
764.4534, 1070.685
764.9355, 1067.569
765.4177, 1066.975
765.8998, 1068.927
766.3819, 1072.039
766.8640, 1075.122
767.3461, 1077.879
767.8282, 1075.995
768.3104, 1068.628
768.7925, 1061.430
769.2746, 1056.168
769.7567, 1053.148
770.2388, 1052.811
770.7209, 1055.162
771.2031, 1060.040
771.6852, 1072.864
772.1673, 1080.946
772.6494, 1080.097
773.1315, 1075.280
773.6136, 1068.212
774.0958, 1060.615
774.5779, 1057.283
775.0600, 1062.694
775.5421, 1067.151
776.0242, 1064.039
776.5063, 1056.230
776.9885, 1044.197
777.4706, 1030.852
777.9527, 1025.002
778.4348, 1030.937
778.9169, 1042.024
779.3990, 1048.542
779.8812, 1051.343
780.3633, 1059.300
780.8454, 1073.797
781.3275, 1079.800
781.8096, 1068.844
782.2917, 1054.303
782.7739, 1053.037
783.2560, 1065.342
783.7381, 1072.822
784.2202, 1071.099
784.7023, 1070.633
785.1844, 1073.802
785.6666, 1077.547
786.1487, 1079.881
786.6308, 1081.035
787.1129, 1082.036
787.5950, 1083.244
788.0771, 1084.099
788.5593, 1081.615
789.0414, 1080.726
789.5235, 1090.261
790.0056, 1105.298
790.4877, 1111.872
790.9698, 1105.241
791.4520, 1095.936
791.9341, 1097.547
792.4162, 1105.387
792.8983, 1101.107
793.3804, 1085.710
793.8625, 1082.511
794.3447, 1100.204
794.8268, 1117.112
795.3089, 1111.079
795.7910, 1086.630
796.2731, 1074.100
796.7552, 1078.785
797.2374, 1083.782
797.7195, 1092.165
798.2016, 1095.293
798.6837, 1085.134
799.1658, 1067.834
799.6479, 1054.150
800.1301, 1045.164
800.6122, 1039.839
801.0943, 1040.212
801.5764, 1041.872
802.0585, 1043.265
802.5406, 1043.643
803.0228, 1042.096
803.5049, 1038.543
803.9870, 1033.798
804.4691, 1027.819
804.9512, 1021.707
805.4333, 1016.105
805.9155, 1011.674
806.3976, 1011.372
806.8797, 1015.186
807.3618, 1017.888
807.8439, 1015.908
808.3260, 1011.566
808.8082, 1009.343
809.2903, 1009.096
809.7724, 1014.306
810.2545, 1029.664
810.7366, 1035.845
811.2188, 1020.488
811.7009, 996.4775
812.1830, 980.3339
812.6651, 972.4691
813.1472, 969.8399
813.6293, 975.7054
814.1115, 982.2441
814.5936, 991.1398
815.0757, 997.4046
815.5578, 995.4127
816.0399, 987.4446
816.5220, 980.5154
817.0042, 975.8046
817.4863, 975.4485
817.9684, 987.6345
818.4505, 999.4933
818.9326, 992.7769
819.4147, 974.7007
819.8969, 965.3170
820.3790, 971.1368
820.8611, 981.5997
821.3432, 987.5507
821.8253, 989.3710
822.3074, 986.3190
822.7896, 979.2661
823.2717, 974.9562
823.7538, 975.0420
824.2359, 976.9076
824.7180, 978.7465
825.2001, 980.3443
825.6823, 980.6582
826.1644, 978.7881
826.6465, 979.6394
827.1286, 987.4933
827.6107, 990.3339
828.0928, 976.5759
828.5750, 958.1777
829.0571, 956.4113
829.5392, 973.8784
830.0213, 981.9518
830.5034, 970.9837
830.9855, 960.1730
831.4677, 953.4846
831.9498, 950.9850
832.4319, 954.7070
832.9140, 962.6484
833.3961, 968.5489
833.8782, 969.8775
834.3604, 969.1893
834.8425, 967.8912
835.3246, 965.7277
835.8067, 960.9747
836.2888, 955.2355
836.7709, 953.4902
837.2531, 957.1371
837.7352, 960.6353
838.2173, 957.5687
838.6994, 950.5588
839.1815, 945.4070
839.6636, 942.3481
840.1458, 944.1331
840.6279, 951.5438
841.1100, 959.8088
841.5921, 965.9619
842.0742, 969.1702
842.5563, 965.8032
843.0385, 953.1863
843.5206, 947.3534
844.0027, 951.6869
844.4848, 956.3743
844.9669, 957.8717
845.4490, 957.0260
845.9312, 954.4902
846.4133, 950.0367
846.8954, 946.7371
847.3775, 946.5904
847.8596, 944.8441
848.3417, 936.8160
848.8239, 930.2339
849.3060, 933.3213
849.7881, 942.2385
850.2702, 946.2455
850.7523, 941.3253
851.2344, 936.2709
851.7166, 935.8975
852.1987, 936.5421
852.6808, 933.8205
853.1629, 930.3470
853.6450, 932.0706
854.1271, 939.4629
854.6093, 945.9208
855.0914, 946.1829
855.5735, 943.3266
856.0556, 940.5688
856.5377, 938.4690
857.0198, 939.3724
857.5020, 943.0359
857.9841, 945.2258
858.4662, 943.4917
858.9483, 940.8390
859.4304, 942.8190
859.9125, 949.0219
860.3947, 952.2947
860.8768, 952.5975
861.3589, 950.3188
861.8410, 945.6771
862.3231, 937.4851
862.8052, 922.3516
863.2874, 903.1392
863.7695, 897.0132
864.2516, 910.2426
864.7337, 922.5874
865.2158, 936.9363
865.6979, 945.1185
866.1801, 937.1030
866.6622, 923.4586
867.1443, 920.3978
867.6264, 929.7699
868.1085, 935.0276
868.5906, 932.1568
869.0728, 927.5653
869.5549, 919.1359
870.0370, 913.2067
870.5191, 919.1686
871.0012, 932.4158
871.4833, 938.0477
871.9655, 929.6613
872.4476, 918.7197
872.9297, 908.6833
873.4118, 901.8404
873.8939, 899.9245
874.3760, 903.0381
874.8582, 914.8707
875.3403, 933.9141
875.8224, 945.4390
876.3045, 934.6611
876.7866, 916.6149
877.2687, 916.1711
877.7509, 925.5219
878.2330, 922.4330
878.7151, 906.3676
879.1972, 892.1398
879.6793, 887.2063
880.1614, 889.4614
880.6436, 897.9566
881.1257, 911.2770
881.6078, 919.6390
882.0899, 922.9366
882.5720, 923.2435
883.0541, 920.7984
883.5363, 916.8309
884.0184, 911.7501
884.5005, 906.5917
884.9826, 905.0833
885.4647, 908.1886
885.9468, 911.9063
886.4290, 918.6032
886.9111, 920.4576
887.3932, 909.9570
887.8753, 897.1587
888.3574, 895.9670
888.8395, 906.8039
889.3217, 913.6530
889.8038, 913.0677
890.2859, 913.6374
890.7680, 919.4246
891.2501, 923.5128
891.7322, 919.3315
892.2144, 911.2547
892.6965, 908.3035
893.1786, 912.7319
893.6607, 915.4189
894.1428, 910.3560
894.6249, 906.8771
895.1071, 913.6637
895.5892, 921.8428
896.0713, 919.6503
896.5534, 908.9288
897.0355, 901.2079
897.5176, 901.4891
897.9998, 905.0946
898.4819, 913.1354
898.9640, 919.2590
899.4461, 912.8797
899.9282, 899.7880
900.4103, 892.9932
900.8925, 895.5684
901.3746, 901.0353
901.8567, 905.5399
902.3388, 908.4493
902.8209, 907.3902
903.3030, 904.3406
903.7852, 905.2850
904.2673, 909.8848
904.7494, 911.5484
905.2315, 907.2119
905.7136, 902.5518
906.1957, 905.9216
906.6779, 914.8964
907.1600, 919.2072
907.6421, 919.0630
908.1242, 918.4912
908.6063, 918.5007
909.0884, 914.3912
909.5706, 901.8964
910.0527, 886.0676
910.5348, 877.9480
911.0169, 877.8916
911.4990, 883.5498
911.9811, 896.9038
912.4633, 907.9736
912.9454, 913.6520
913.4275, 916.1451
913.9096, 918.0292
914.3917, 918.5859
914.8738, 912.9100
915.3560, 895.1602
915.8381, 885.1177
916.3202, 887.9968
916.8023, 891.8069
917.2844, 891.9742
917.7665, 889.8610
918.2487, 886.3049
918.7308, 881.1458
919.2129, 879.5430
919.6950, 883.2789
920.1771, 888.0931
920.6592, 897.1703
921.1414, 903.3658
921.6235, 899.1270
922.1056, 890.1505
922.5877, 888.2757
923.0698, 896.4335
923.5519, 898.6798
924.0341, 884.0600
924.5162, 871.5757
924.9983, 870.1102
925.4804, 873.6213
925.9625, 877.7860
926.4446, 881.4240
926.9268, 882.8842
927.4089, 880.8242
927.8910, 880.7076
928.3731, 890.2911
928.8552, 897.9658
929.3373, 890.8392
929.8195, 877.9221
930.3016, 872.1641
930.7837, 875.0771
931.2658, 881.7859
931.7479, 891.5792
932.2300, 899.0732
932.7122, 898.5405
933.1943, 893.7422
933.6764, 887.3839
934.1585, 881.3724
934.6406, 879.8635
935.1227, 883.4436
935.6049, 887.8025
936.0870, 889.9473
936.5691, 890.7205
937.0512, 891.8916
937.5333, 892.3798
938.0154, 888.7603
938.4976, 881.8536
938.9797, 876.1396
939.4618, 873.3970
939.9439, 872.8331
940.4260, 874.6315
940.9081, 877.0206
941.3903, 873.6316
941.8724, 866.6422
942.3545, 867.1648
942.8366, 876.2277
943.3187, 886.5295
943.8008, 894.3727
944.2830, 898.6270
944.7651, 896.1652
945.2471, 888.5989
945.7292, 885.5081
946.2114, 886.7538
946.6935, 887.8589
947.1756, 887.8651
947.6577, 888.5311
948.1398, 891.3987
948.6219, 894.3109
949.1041, 891.6925
949.5862, 883.3021
950.0683, 883.1827
950.5504, 893.3660
951.0325, 895.3038
951.5146, 881.2563
951.9968, 869.8599
952.4789, 878.5260
952.9610, 898.3817
953.4431, 901.2012
953.9252, 881.4586
954.4073, 872.9305
954.8895, 879.2985
955.3716, 885.9760
955.8537, 888.4854
956.3358, 889.1230
956.8179, 890.3734
957.3000, 891.5842
957.7822, 888.9526
958.2643, 879.3409
958.7464, 874.6189
959.2285, 876.3514
959.7106, 880.7363
960.1927, 887.7194
960.6749, 895.1405
961.1570, 900.9702
961.6391, 905.1374
962.1212, 907.0452
962.6033, 908.3051
963.0854, 904.0236
963.5676, 886.9907
964.0497, 873.6730
964.5318, 873.8242
965.0139, 879.7401
965.4960, 881.1018
965.9781, 877.8315
966.4603, 878.0482
966.9424, 887.8986
967.4245, 891.9965
967.9066, 883.1556
968.3887, 874.9907
968.8708, 875.8896
969.3530, 880.8011
969.8351, 881.6188
970.3172, 877.7503
970.7993, 877.1497
971.2814, 882.5843
971.7635, 888.3859
972.2457, 896.3741
972.7278, 901.5181
973.2099, 896.1013
973.6920, 887.6987
974.1741, 892.6014
974.6563, 914.0275
975.1384, 921.7994
975.6205, 895.9199
976.1026, 875.9952
976.5847, 877.8882
977.0668, 884.8542
977.5490, 884.2376
978.0311, 879.8483
978.5132, 881.2378
978.9953, 890.4807
979.4774, 897.7542
979.9595, 897.9935
980.4417, 899.3326
980.9238, 906.6791
981.4059, 914.6428
981.8880, 919.7905
982.3701, 921.7369
982.8522, 919.8622
983.3344, 913.5635
983.8165, 907.9609
984.2986, 903.1929
984.7807, 901.3555
985.2628, 903.4294
985.7449, 908.8754
986.2271, 920.9097
986.7092, 935.0965
987.1913, 941.1650
987.6734, 935.9120
988.1555, 928.5121
988.6376, 918.1218
989.1198, 911.6031
989.6019, 915.9865
990.0840, 923.1259
990.5661, 925.0563
991.0482, 922.6468
991.5303, 919.6799
992.0125, 916.4830
992.4946, 917.2325
992.9767, 930.8204
993.4588, 940.3970
993.9409, 931.8532
994.4230, 917.9980
994.9052, 911.3184
995.3873, 911.6232
995.8694, 915.0323
996.3515, 921.4241
996.8336, 924.3299
997.3157, 914.9561
997.7979, 908.0986
998.2800, 916.6667
998.7621, 929.2438
999.2442, 932.9362
999.7263, 929.4035
1000.208, 927.1609
1000.691, 928.4830
1001.173, 932.2460
1001.655, 943.7951
1002.137, 950.8524
1002.619, 940.6585
1003.101, 926.1053
1003.583, 920.2584
1004.065, 922.7939
1004.547, 928.6863
1005.030, 937.2615
1005.512, 943.8623
1005.994, 946.0925
1006.476, 946.1650
1006.958, 945.6628
1007.440, 943.5143
1007.922, 936.0564
1008.404, 926.1917
1008.887, 922.7470
1009.369, 929.2261
1009.851, 934.1668
1010.333, 929.0626
1010.815, 925.3090
1011.297, 932.2990
1011.779, 941.5213
1012.261, 944.4067
1012.743, 941.7724
1013.226, 937.2513
1013.708, 931.1310
1014.190, 928.5873
1014.672, 935.7329
1015.154, 942.0553
1015.636, 939.6983
1016.118, 936.0222
1016.600, 940.1887
1017.083, 948.6683
1017.565, 950.9888
1018.047, 944.1771
1018.529, 937.8890
1019.011, 937.0077
1019.493, 935.5082
1019.975, 926.5276
1020.457, 919.4377
1020.939, 924.8356
1021.422, 938.0456
1021.904, 947.6430
1022.386, 951.1879
1022.868, 955.3120
1023.350, 964.9799
1023.832, 971.4918
1024.314, 971.2746
1024.796, 966.9718
1025.279, 956.4432
1025.761, 944.9172
1026.243, 943.2899
1026.725, 953.8615
1027.207, 960.4891
1027.689, 957.3330
1028.171, 953.0448
1028.653, 949.4418
1029.135, 946.1646
1029.618, 942.9374
1030.100, 939.8438
1030.582, 936.1558
1031.064, 931.6920
1031.546, 931.9680
1032.028, 944.3875
1032.510, 951.9293
1032.992, 948.6362
1033.474, 942.6890
1033.957, 935.8051
1034.439, 930.6445
1034.921, 932.5465
1035.403, 941.6530
1035.885, 946.0569
1036.367, 943.2000
1036.849, 938.4685
1037.331, 925.9507
1037.814, 919.0602
1038.296, 931.5992
1038.778, 947.5146
1039.260, 944.5951
1039.742, 924.9318
1040.224, 916.9336
1040.706, 928.2235
1041.188, 936.8876
1041.671, 941.6194
1042.153, 944.9039
1042.635, 947.1068
1043.117, 948.8980
1043.599, 951.3722
1044.081, 954.0574
1044.563, 954.4427
1045.045, 952.9478
1045.527, 947.2418
1046.010, 933.0144
1046.492, 924.8541
1046.974, 929.1372
1047.456, 938.1152
1047.938, 946.1108
1048.420, 952.5889
1048.902, 956.2582
1049.384, 957.7021
1049.866, 951.5892
1050.349, 934.3241
1050.831, 924.9875
1051.313, 930.8109
1051.795, 936.9374
1052.277, 931.2659
1052.759, 920.7818
1053.241, 920.8576
1053.723, 931.5699
1054.205, 944.5314
1054.688, 960.6006
1055.170, 965.3338
1055.652, 954.6622
1056.134, 945.7374
1056.616, 949.3493
1057.098, 957.7848
1057.580, 959.3248
1058.062, 955.0735
1058.545, 949.6431
1059.027, 943.5474
1059.509, 944.1302
1059.991, 952.0436
1060.473, 959.6270
1060.955, 963.3578
1061.437, 964.8262
1061.919, 965.6956
1062.401, 965.8787
1062.884, 964.9774
1063.366, 963.2189
1063.848, 961.5353
1064.330, 959.8904
1064.812, 957.3008
1065.294, 953.5717
1065.776, 950.4260
1066.258, 949.0994
1066.740, 949.6616
1067.223, 951.7427
1067.705, 956.0179
1068.187, 967.7972
1068.669, 982.1446
1069.151, 983.8828
1069.633, 971.7981
1070.115, 960.4050
1070.597, 958.0280
1071.080, 960.2263
1071.562, 966.8248
1072.044, 972.2097
1072.526, 965.9315
1073.008, 956.0478
1073.490, 959.0938
1073.972, 972.2737
1074.454, 975.9469
1074.937, 960.9728
1075.419, 948.4426
1075.901, 951.6599
1076.383, 960.4889
1076.865, 972.3621
1077.347, 982.9636
1077.829, 988.0134
1078.311, 988.2966
1078.793, 985.5012
1079.276, 979.7841
1079.758, 976.3940
1080.240, 979.0240
1080.722, 981.4225
1081.204, 979.1440
1081.686, 978.4159
1082.168, 984.4366
1082.650, 994.1525
1083.132, 1004.526
1083.615, 1015.028
1084.097, 1018.526
1084.579, 1010.837
1085.061, 1001.769
1085.543, 985.7880
1086.025, 976.7215
1086.507, 984.3134
1086.989, 996.1571
1087.472, 1000.955
1087.954, 999.4319
1088.436, 993.9267
1088.918, 981.1942
1089.400, 976.2042
1089.882, 981.9712
1090.364, 986.0379
1090.846, 983.4448
1091.328, 984.5303
1091.811, 999.3068
1092.293, 1017.246
1092.775, 1015.560
1093.257, 995.2458
1093.739, 980.7705
1094.221, 972.1481
1094.703, 973.8094
1095.185, 986.8441
1095.667, 995.1926
1096.150, 990.3940
1096.632, 984.5370
1097.114, 994.2175
1097.596, 1010.872
1098.078, 1010.721
1098.560, 997.3135
1099.042, 979.5367
1099.524, 961.6601
1100.007, 962.9447
1100.489, 986.2643
1100.971, 1002.358
1101.453, 986.7333
1101.935, 964.3549
1102.417, 968.0590
1102.899, 983.5244
1103.381, 991.5221
1103.864, 993.4171
1104.346, 993.4832
1104.828, 992.6675
1105.310, 990.8649
1105.792, 988.1281
1106.274, 983.4104
1106.756, 973.2959
1107.238, 964.1657
1107.720, 961.1783
1108.203, 960.9152
1108.685, 960.9670
1109.167, 960.4492
1109.649, 957.1533
1110.131, 950.8026
1110.613, 949.2604
1111.095, 961.4000
1111.577, 968.5034
1112.059, 959.8636
1112.542, 952.5814
1113.024, 959.9995
1113.506, 970.6815
1113.988, 969.0977
1114.470, 957.7576
1114.952, 951.5865
1115.434, 952.2479
1115.916, 954.0925
1116.399, 959.7889
1116.881, 959.9594
1117.363, 949.7029
1117.845, 939.0476
1118.327, 935.3357
1118.809, 935.4655
1119.291, 932.8862
1119.773, 927.9585
1120.255, 930.0996
1120.738, 939.6624
1121.220, 943.1547
1121.702, 938.6912
1122.184, 936.2305
1122.666, 940.2692
1123.148, 944.2170
1123.630, 940.8513
1124.112, 933.5987
1124.594, 929.1153
1125.077, 926.8715
1125.559, 925.6415
1126.041, 925.3124
1126.523, 925.5333
1127.005, 926.5115
1127.487, 931.4509
1127.969, 943.6942
1128.451, 948.8608
1128.934, 922.0381
1129.416, 893.9912
1129.898, 899.6919
1130.380, 919.5302
1130.862, 931.9575
1131.344, 934.2675
1131.826, 925.4183
1132.308, 905.4523
1132.791, 893.2472
1133.273, 904.7615
1133.755, 911.8718
1134.237, 898.1037
1134.719, 885.7907
1135.201, 891.3800
1135.683, 903.3638
1136.165, 907.2903
1136.647, 904.0265
1137.130, 902.0530
1137.612, 902.3177
1138.094, 901.0685
1138.576, 897.2486
1139.058, 894.4387
1139.540, 893.7788
1140.022, 893.7194
1140.504, 893.8930
1140.986, 892.4625
1141.469, 885.2664
1141.951, 873.7969
1142.433, 869.3699
1142.915, 871.8971
1143.397, 881.3619
1143.879, 896.9074
1144.361, 904.1433
1144.843, 898.2972
1145.326, 889.9284
1145.808, 887.9178
1146.290, 887.1101
1146.772, 876.5243
1147.254, 863.7631
1147.736, 866.2116
1148.218, 876.1761
1148.700, 874.9587
1149.182, 863.2916
1149.665, 855.2225
1150.147, 856.0289
1150.629, 858.8225
1151.111, 861.4611
1151.593, 862.2007
1152.075, 857.7125
1152.557, 853.1786
1153.039, 856.3220
1153.521, 860.2712
1154.004, 851.3952
1154.486, 831.0853
1154.968, 820.4675
1155.450, 829.2904
1155.932, 832.6685
1156.414, 822.1591
1156.896, 819.7861
1157.378, 838.9287
1157.861, 853.5771
1158.343, 842.1943
1158.825, 820.1754
1159.307, 817.4305
1159.789, 831.9012
1160.271, 832.7717
1160.753, 819.5260
1161.235, 816.2491
1161.718, 825.2878
1162.200, 831.4479
1162.682, 829.3079
1163.164, 824.4922
1163.646, 821.3871
1164.128, 819.1959
1164.610, 816.9203
1165.092, 814.5106
1165.574, 810.9860
1166.057, 807.6094
1166.539, 806.2590
1167.021, 807.6957
1167.503, 815.4819
1167.985, 830.5869
1168.467, 837.4540
1168.949, 812.4910
1169.431, 796.8925
1169.913, 828.1739
1170.396, 858.4138
1170.878, 847.8171
1171.360, 819.4594
1171.842, 803.9792
1172.324, 800.7706
1172.806, 794.0626
1173.288, 778.7113
1173.770, 774.6490
1174.253, 790.3686
1174.735, 797.0684
1175.217, 783.7819
1175.699, 775.4266
1176.181, 787.3809
1176.663, 807.1213
1177.145, 819.3768
1177.627, 823.9014
1178.109, 817.1389
1178.592, 801.0219
1179.074, 789.6993
1179.556, 783.8357
1180.038, 783.2305
1180.520, 786.7770
1181.002, 787.4770
1181.484, 781.1150
1181.966, 773.6739
1182.448, 768.2768
1182.931, 767.8802
1183.413, 783.0994
1183.895, 799.2429
1184.377, 795.1064
1184.859, 778.8356
1185.341, 769.5929
1185.823, 769.6649
1186.305, 766.9272
1186.788, 753.3885
1187.270, 747.0328
1187.752, 758.4164
1188.234, 767.8046
1188.716, 769.2043
1189.198, 765.8381
1189.680, 756.8560
1190.162, 747.6034
1190.645, 748.4865
1191.127, 758.5425
1191.609, 762.9095
1192.091, 761.1880
1192.573, 759.9660
1193.055, 759.7774
1193.537, 757.3610
1194.019, 751.8188
1194.501, 748.2982
1194.984, 750.8552
1195.466, 754.3640
1195.948, 750.7725
1196.430, 744.5865
1196.912, 745.8096
1197.394, 747.9141
1197.876, 731.7102
1198.358, 708.8344
1198.840, 716.3443
1199.323, 757.7274
1199.805, 783.6324
1200.287, 766.2062
1200.769, 749.5419
1201.251, 746.5384
1201.733, 749.1957
1202.215, 761.8425
1202.697, 770.8118
1203.180, 761.6365
1203.662, 744.3420
1204.144, 737.4962
1204.626, 740.8751
1205.108, 746.0113
1205.590, 753.0205
1206.072, 762.7753
1206.554, 775.9589
1207.036, 777.4070
1207.519, 762.2641
1208.001, 748.2358
1208.483, 748.2142
1208.965, 753.2628
1209.447, 751.6739
1209.929, 746.3854
1210.411, 739.6438
1210.893, 734.5456
1211.375, 737.6837
1211.858, 746.4632
1212.340, 753.8235
1212.822, 758.3582
1213.304, 763.5210
1213.786, 774.4540
1214.268, 776.4636
1214.750, 755.4041
1215.232, 737.3114
1215.715, 734.3268
1216.197, 735.7827
1216.679, 734.3240
1217.161, 732.8663
1217.643, 736.8311
1218.125, 745.1305
1218.607, 748.0000
1219.089, 745.2585
1219.572, 736.7231
1220.054, 722.5673
1220.536, 723.2028
1221.018, 742.6738
1221.500, 758.8706
1221.982, 758.8223
1222.464, 753.7908
1222.946, 758.0971
1223.428, 762.5275
1223.911, 752.0941
1224.393, 737.0383
1224.875, 729.9224
1225.357, 728.5218
1225.839, 727.5283
1226.321, 726.2320
1226.803, 726.0685
1227.285, 727.4852
1227.767, 729.5955
1228.250, 734.4085
1228.732, 736.4029
1229.214, 732.8197
1229.696, 729.5917
1230.178, 729.8313
1230.660, 731.0836
1231.142, 730.6478
1231.624, 729.1016
1232.107, 727.1859
1232.589, 725.4974
1233.071, 731.9260
1233.553, 743.6855
1234.035, 744.1748
1234.517, 733.4846
1234.999, 725.8845
1235.481, 726.5867
1235.964, 728.8115
1236.446, 728.5837
1236.928, 726.9585
1237.410, 722.1285
1237.892, 719.1434
1238.374, 724.3885
1238.856, 731.1674
1239.338, 732.0762
1239.820, 728.7534
1240.302, 725.2147
1240.785, 721.4963
1241.267, 725.0151
1241.749, 740.5347
1242.231, 746.3132
1242.713, 739.5198
1243.195, 731.0903
1243.677, 723.7656
1244.159, 720.7793
1244.641, 724.8032
1245.124, 728.5539
##END=



