##NAMES=Gmelinite-Na
##RRUFFID=R050371
##IDEAL CHEMISTRY=Na_4_(Si_8_Al_4_)O_24_&#183;11H_2_O
##LOCALITY=Cairns Bay, Flinders Range, Australia
##OWNER=RRUFF
##SOURCE=Eugene Schlepp
##DESCRIPTION=Colorless to pink crystals lining a basalt vug
##STATUS=The identification of this mineral has been confirmed by X-ray diffraction and chemical analysis
##URL=rruff.info/R050371
##MEASURED CHEMISTRY=Na_3.81_(Si_8.13_Al_3.88_)O_24_Â·4.27H_2_O
92.35352, 35.14867
92.83563, 33.96679
93.31775, 33.46418
93.79987, 33.52040
94.28198, 34.24065
94.76410, 36.00665
95.24622, 39.04853
95.72833, 43.00386
96.21045, 47.05105
96.69257, 51.19393
97.17468, 55.65627
97.65680, 60.58899
98.13892, 66.00817
98.62103, 71.74353
99.10315, 77.30560
99.58527, 82.98823
100.0674, 90.79539
100.5495, 101.0504
101.0316, 112.5759
101.5137, 123.4881
101.9958, 133.2643
102.4780, 144.5235
102.9601, 158.1240
103.4422, 174.2811
103.9243, 191.4451
104.4064, 210.3979
104.8885, 229.9545
105.3707, 248.3566
105.8528, 264.7164
106.3349, 280.9433
106.8170, 297.6709
107.2991, 315.5216
107.7813, 332.7076
108.2634, 349.2950
108.7455, 365.3080
109.2276, 380.2340
109.7097, 393.2286
110.1918, 405.8809
110.6740, 418.8686
111.1561, 430.8082
111.6382, 444.6567
112.1203, 460.8968
112.6024, 479.4599
113.0845, 499.0363
113.5667, 518.2343
114.0488, 538.9426
114.5309, 562.6758
115.0130, 592.4413
115.4951, 622.5270
115.9772, 651.2003
116.4594, 678.7204
116.9415, 706.6541
117.4236, 736.8369
117.9057, 767.3665
118.3878, 796.0842
118.8699, 821.3840
119.3521, 845.5937
119.8342, 870.7473
120.3163, 897.1602
120.7984, 922.3054
121.2805, 943.7302
121.7626, 962.9011
122.2448, 982.3260
122.7269, 1005.612
123.2090, 1028.545
123.6911, 1046.562
124.1732, 1058.576
124.6553, 1068.210
125.1375, 1077.721
125.6196, 1087.333
126.1017, 1097.748
126.5838, 1109.453
127.0659, 1122.245
127.5480, 1135.926
128.0302, 1150.750
128.5123, 1166.043
128.9944, 1180.681
129.4765, 1194.769
129.9586, 1209.293
130.4407, 1224.833
130.9229, 1241.366
131.4050, 1259.023
131.8871, 1277.710
132.3692, 1297.176
132.8513, 1317.168
133.3334, 1335.759
133.8156, 1346.870
134.2977, 1349.584
134.7798, 1348.768
135.2619, 1347.914
135.7440, 1347.745
136.2261, 1348.191
136.7083, 1349.210
137.1904, 1351.243
137.6725, 1352.675
138.1546, 1351.882
138.6367, 1348.756
139.1188, 1344.349
139.6010, 1338.903
140.0831, 1332.462
140.5652, 1324.545
141.0473, 1314.435
141.5294, 1303.711
142.0115, 1294.747
142.4937, 1288.321
142.9758, 1281.492
143.4579, 1273.007
143.9400, 1262.256
144.4221, 1252.826
144.9042, 1244.983
145.3864, 1238.178
145.8685, 1231.701
146.3506, 1225.500
146.8327, 1219.553
147.3148, 1213.828
147.7969, 1208.564
148.2791, 1203.065
148.7612, 1197.464
149.2433, 1191.663
149.7254, 1185.288
150.2075, 1177.390
150.6896, 1169.819
151.1718, 1163.353
151.6539, 1159.040
152.1360, 1154.305
152.6181, 1148.988
153.1002, 1143.207
153.5823, 1137.332
154.0645, 1132.041
154.5466, 1126.121
155.0287, 1119.023
155.5108, 1110.123
155.9929, 1100.566
156.4750, 1089.932
156.9572, 1078.575
157.4393, 1068.231
157.9214, 1060.294
158.4035, 1052.734
158.8856, 1044.269
159.3677, 1033.979
159.8499, 1023.363
160.3320, 1012.351
160.8141, 1001.176
161.2962, 991.2065
161.7783, 984.4352
162.2604, 978.4720
162.7426, 971.3453
163.2247, 962.2593
163.7068, 952.0914
164.1889, 940.4327
164.6710, 927.5479
165.1531, 915.6242
165.6353, 906.0936
166.1174, 897.9667
166.5995, 890.1785
167.0816, 882.6787
167.5637, 875.1321
168.0458, 867.1915
168.5280, 858.9171
169.0101, 850.6868
169.4922, 842.4468
169.9743, 834.5295
170.4564, 827.4583
170.9385, 822.3941
171.4207, 817.6994
171.9028, 811.8652
172.3849, 804.8327
172.8670, 797.4199
173.3491, 789.8087
173.8312, 782.2302
174.3134, 775.0967
174.7955, 768.8080
175.2776, 763.0418
175.7597, 757.4899
176.2418, 752.0997
176.7239, 746.9399
177.2061, 741.9489
177.6882, 737.1066
178.1703, 732.4523
178.6524, 727.9261
179.1345, 723.5568
179.6166, 719.6089
180.0988, 716.1579
180.5809, 712.5917
181.0630, 707.8089
181.5451, 702.1234
182.0272, 697.0040
182.5093, 693.4987
182.9915, 691.0441
183.4736, 688.2791
183.9557, 684.9888
184.4378, 681.7166
184.9199, 679.4404
185.4020, 678.0162
185.8842, 676.1317
186.3663, 672.6706
186.8484, 668.0882
187.3305, 664.2631
187.8126, 661.4505
188.2947, 659.0219
188.7769, 655.7663
189.2590, 651.7401
189.7411, 648.0956
190.2232, 645.4990
190.7053, 643.8676
191.1874, 642.6715
191.6696, 641.9824
192.1517, 641.4760
192.6338, 640.5932
193.1159, 639.3329
193.5980, 637.7804
194.0801, 635.7761
194.5623, 633.3825
195.0444, 631.4799
195.5265, 630.3200
196.0086, 629.4528
196.4907, 627.7175
196.9728, 624.9714
197.4550, 622.5158
197.9371, 621.3411
198.4192, 621.4699
198.9013, 621.3987
199.3834, 621.1465
199.8655, 620.4765
200.3477, 618.4644
200.8298, 614.7821
201.3119, 611.2636
201.7940, 609.3304
202.2761, 609.2105
202.7582, 608.0274
203.2404, 605.1980
203.7225, 601.4084
204.2046, 598.7483
204.6867, 597.6022
205.1688, 596.2736
205.6509, 593.4620
206.1331, 588.8165
206.6152, 584.9808
207.0973, 582.3912
207.5794, 580.6433
208.0615, 578.4175
208.5436, 575.4843
209.0258, 572.6659
209.5079, 570.6127
209.9900, 569.5652
210.4721, 568.1674
210.9542, 566.2520
211.4363, 563.9277
211.9185, 561.5403
212.4006, 559.0529
212.8827, 556.5479
213.3648, 554.1310
213.8469, 551.7919
214.3290, 549.4208
214.8112, 546.8199
215.2933, 544.2238
215.7754, 542.5491
216.2575, 542.3083
216.7396, 542.0076
217.2217, 540.6900
217.7038, 537.9928
218.1860, 535.3665
218.6681, 532.7889
219.1502, 530.3824
219.6323, 528.8022
220.1144, 528.6841
220.5965, 528.3369
221.0787, 526.6452
221.5608, 522.9076
222.0429, 519.8456
222.5250, 518.0768
223.0071, 517.0626
223.4892, 514.8858
223.9714, 511.2861
224.4535, 506.9276
224.9356, 502.0328
225.4177, 496.3966
225.8998, 490.7499
226.3819, 484.9340
226.8641, 479.1299
227.3462, 474.1580
227.8283, 470.1288
228.3104, 466.7559
228.7925, 463.9995
229.2746, 462.0732
229.7568, 460.1999
230.2389, 458.3619
230.7210, 456.5348
231.2031, 454.7752
231.6852, 453.4298
232.1673, 451.6401
232.6495, 448.7651
233.1316, 443.5823
233.6137, 440.1224
234.0958, 439.1175
234.5779, 439.7964
235.0600, 440.0374
235.5422, 439.6651
236.0243, 439.1159
236.5064, 438.5934
236.9885, 438.2126
237.4706, 437.6146
237.9527, 436.8390
238.4349, 435.8427
238.9170, 434.3988
239.3991, 431.8307
239.8812, 429.8279
240.3633, 429.3463
240.8454, 431.6133
241.3276, 432.2306
241.8097, 430.1660
242.2918, 426.8275
242.7739, 425.5119
243.2560, 427.8005
243.7381, 429.6649
244.2203, 429.3778
244.7024, 425.8371
245.1845, 423.2873
245.6666, 422.1134
246.1487, 421.7519
246.6308, 421.0529
247.1130, 419.6143
247.5951, 418.5010
248.0772, 418.2531
248.5593, 419.3149
249.0414, 419.5677
249.5235, 418.6588
250.0057, 417.1589
250.4878, 416.0015
250.9699, 415.3834
251.4520, 414.7509
251.9341, 413.9570
252.4162, 412.9998
252.8984, 411.7979
253.3805, 409.9872
253.8626, 408.2037
254.3447, 407.5730
254.8268, 408.8563
255.3089, 409.7118
255.7911, 409.3430
256.2732, 407.5724
256.7553, 406.1045
257.2374, 405.0707
257.7195, 404.2070
258.2017, 403.1234
258.6838, 401.5437
259.1659, 400.3647
259.6480, 399.8908
260.1301, 400.1567
260.6122, 400.3685
261.0944, 400.7120
261.5765, 400.7704
262.0586, 399.8580
262.5407, 397.2970
263.0228, 395.7218
263.5049, 396.1590
263.9871, 398.4837
264.4692, 399.2200
264.9513, 397.7650
265.4334, 395.7049
265.9155, 394.4515
266.3976, 394.1963
266.8798, 394.2029
267.3619, 394.4834
267.8440, 394.9616
268.3261, 394.9875
268.8082, 394.4799
269.2903, 393.6918
269.7725, 392.6048
270.2546, 390.9666
270.7367, 390.3219
271.2188, 391.2607
271.7009, 393.2905
272.1830, 394.2410
272.6652, 393.7838
273.1473, 393.1211
273.6294, 393.1489
274.1115, 394.0271
274.5936, 394.5556
275.0757, 394.4502
275.5579, 394.0353
276.0400, 394.3723
276.5221, 395.6555
277.0042, 396.8907
277.4863, 397.2608
277.9684, 396.6461
278.4506, 396.9022
278.9327, 398.4059
279.4148, 400.5244
279.8969, 401.8222
280.3790, 402.1743
280.8611, 402.6045
281.3433, 403.6034
281.8254, 405.1782
282.3075, 407.3539
282.7896, 410.5098
283.2717, 413.4679
283.7538, 413.5317
284.2360, 410.5414
284.7181, 408.8384
285.2002, 411.3008
285.6823, 417.3124
286.1644, 420.9567
286.6465, 421.7613
287.1287, 421.7876
287.6108, 423.8722
288.0929, 427.8905
288.5750, 431.6045
289.0571, 434.0270
289.5392, 435.4849
290.0214, 437.1426
290.5035, 438.9838
290.9856, 441.0811
291.4677, 443.5074
291.9498, 446.2670
292.4319, 449.3197
292.9141, 452.8574
293.3962, 456.5997
293.8783, 459.8157
294.3604, 462.4868
294.8425, 465.1187
295.3246, 468.2070
295.8068, 471.6579
296.2889, 475.1111
296.7710, 478.6089
297.2531, 481.9814
297.7352, 484.7049
298.2173, 486.8524
298.6995, 489.1677
299.1816, 491.9445
299.6637, 495.2816
300.1458, 499.3259
300.6279, 504.1552
301.1100, 509.6483
301.5922, 516.1007
302.0743, 523.2122
302.5564, 529.7619
303.0385, 534.4455
303.5206, 538.3317
304.0027, 543.0684
304.4849, 548.8843
304.9670, 555.2604
305.4491, 561.7846
305.9312, 568.4418
306.4133, 575.1985
306.8954, 581.9536
307.3776, 588.8698
307.8597, 596.0020
308.3418, 603.4300
308.8239, 611.0619
309.3060, 618.9060
309.7881, 626.9901
310.2703, 635.0949
310.7524, 643.2639
311.2345, 651.4498
311.7166, 659.4908
312.1987, 667.3940
312.6808, 675.3249
313.1630, 683.4803
313.6451, 691.7430
314.1272, 700.0624
314.6093, 708.7961
315.0914, 717.1017
315.5735, 724.2162
316.0557, 730.3311
316.5378, 736.4858
317.0199, 743.3432
317.5020, 750.2524
317.9841, 756.8965
318.4662, 763.4372
318.9484, 769.1374
319.4305, 773.9701
319.9126, 777.8007
320.3947, 780.2703
320.8768, 780.7734
321.3589, 780.2772
321.8411, 779.2503
322.3232, 777.8329
322.8053, 775.7123
323.2874, 773.1204
323.7695, 769.7366
324.2516, 765.0533
324.7338, 757.8265
325.2159, 750.3580
325.6980, 743.4451
326.1801, 737.3313
326.6622, 730.7275
327.1443, 724.0215
327.6265, 716.5484
328.1086, 707.5887
328.5907, 695.8348
329.0728, 684.1765
329.5549, 672.9969
330.0370, 662.2553
330.5192, 651.8425
331.0013, 641.9435
331.4834, 632.1452
331.9655, 622.0439
332.4476, 611.3601
332.9297, 600.7703
333.4119, 590.1574
333.8940, 579.6902
334.3761, 570.3020
334.8582, 562.4366
335.3403, 555.2463
335.8224, 548.4364
336.3046, 542.1609
336.7867, 535.7094
337.2688, 528.9102
337.7509, 521.9999
338.2330, 515.2350
338.7151, 508.5841
339.1973, 502.3332
339.6794, 496.5886
340.1615, 491.4203
340.6436, 486.4154
341.1257, 481.7097
341.6078, 477.0098
342.0899, 471.6360
342.5721, 465.5730
343.0542, 460.3994
343.5363, 456.8989
344.0184, 454.6951
344.5005, 451.9887
344.9826, 448.7266
345.4648, 445.5301
345.9469, 443.0024
346.4290, 441.0656
346.9111, 439.4506
347.3932, 438.2306
347.8753, 437.0880
348.3575, 435.1707
348.8396, 432.5746
349.3217, 430.3849
349.8038, 429.6476
350.2859, 429.8567
350.7680, 429.8524
351.2502, 429.5206
351.7323, 428.8592
352.2144, 427.5287
352.6965, 425.7939
353.1786, 424.4956
353.6607, 424.4319
354.1429, 424.8694
354.6250, 424.9941
355.1071, 424.7787
355.5892, 424.2095
356.0713, 422.9048
356.5534, 421.3271
357.0356, 420.1592
357.5177, 419.8985
357.9998, 419.9282
358.4819, 419.8160
358.9640, 419.6033
359.4461, 419.5244
359.9283, 419.8324
360.4104, 420.2523
360.8925, 420.5246
361.3746, 420.3999
361.8567, 420.4398
362.3388, 420.8941
362.8210, 421.6737
363.3031, 422.5899
363.7852, 423.7208
364.2673, 424.8584
364.7494, 425.9096
365.2315, 426.8568
365.7137, 427.7470
366.1958, 428.4760
366.6779, 429.1832
367.1600, 430.0387
367.6421, 431.0222
368.1242, 432.1975
368.6064, 433.6705
369.0885, 435.4679
369.5706, 437.1017
370.0527, 438.5382
370.5348, 439.8528
371.0169, 441.0641
371.4991, 441.6910
371.9812, 443.0370
372.4633, 445.4362
372.9454, 448.6216
373.4275, 451.6391
373.9096, 454.6146
374.3918, 457.2660
374.8739, 459.2582
375.3560, 460.3209
375.8381, 462.0861
376.3202, 464.7018
376.8023, 467.7950
377.2845, 470.7914
377.7666, 473.6154
378.2487, 476.6127
378.7308, 479.8177
379.2129, 483.2620
379.6950, 486.9230
380.1772, 490.8570
380.6593, 494.8597
381.1414, 498.9312
381.6235, 502.9973
382.1056, 506.6151
382.5877, 509.4116
383.0699, 512.0540
383.5520, 515.7300
384.0341, 520.4359
384.5162, 525.7734
384.9983, 531.9852
385.4804, 538.6307
385.9626, 544.5490
386.4447, 549.4167
386.9268, 554.6796
387.4089, 562.3513
387.8910, 571.5901
388.3731, 580.3300
388.8553, 586.6432
389.3374, 592.6883
389.8195, 600.5880
390.3016, 610.1864
390.7837, 620.2826
391.2658, 629.9882
391.7480, 639.7498
392.2301, 650.0793
392.7122, 661.5701
393.1943, 673.0240
393.6764, 683.1317
394.1585, 692.6415
394.6407, 703.4504
395.1228, 717.5867
395.6049, 732.1666
396.0870, 745.6589
396.5691, 757.1166
397.0512, 769.7693
397.5334, 785.3409
398.0155, 802.1473
398.4976, 817.8663
398.9797, 830.2225
399.4618, 843.7993
399.9439, 860.0562
400.4261, 878.9586
400.9082, 896.7159
401.3903, 912.6511
401.8724, 928.0565
402.3545, 943.7325
402.8366, 959.3317
403.3188, 975.7413
403.8009, 993.8384
404.2830, 1012.407
404.7651, 1028.068
405.2472, 1039.697
405.7293, 1051.234
406.2115, 1064.804
406.6936, 1080.418
407.1757, 1093.920
407.6578, 1105.453
408.1399, 1114.579
408.6220, 1120.677
409.1042, 1123.781
409.5863, 1125.290
410.0684, 1125.604
410.5505, 1124.521
411.0326, 1121.754
411.5147, 1117.262
411.9969, 1110.607
412.4790, 1100.984
412.9611, 1088.907
413.4432, 1075.817
413.9253, 1061.829
414.4074, 1046.635
414.8896, 1029.828
415.3717, 1011.522
415.8538, 992.0403
416.3359, 970.8143
416.8180, 949.0834
417.3001, 928.3748
417.7823, 908.4256
418.2644, 888.6628
418.7465, 868.0089
419.2286, 847.1963
419.7107, 827.1450
420.1928, 807.5329
420.6750, 789.0830
421.1571, 772.5321
421.6392, 757.2824
422.1213, 742.2253
422.6034, 726.9397
423.0855, 711.9410
423.5677, 697.1489
424.0498, 682.4081
424.5319, 668.8497
425.0140, 656.4586
425.4961, 645.2500
425.9782, 635.2114
426.4604, 626.6569
426.9425, 618.8311
427.4246, 611.6277
427.9067, 605.0280
428.3888, 599.4866
428.8709, 595.6561
429.3531, 591.7543
429.8352, 586.3517
430.3173, 578.8918
430.7994, 573.2579
431.2815, 569.9026
431.7636, 567.8226
432.2458, 565.5150
432.7279, 562.9442
433.2100, 560.6373
433.6921, 558.8431
434.1742, 557.4294
434.6563, 555.9326
435.1385, 554.3225
435.6206, 552.8599
436.1027, 551.7967
436.5848, 551.0545
437.0669, 550.3217
437.5490, 549.3691
438.0312, 548.8568
438.5133, 549.7191
438.9954, 551.6590
439.4775, 553.8404
439.9596, 556.2625
440.4417, 558.4766
440.9239, 559.6721
441.4060, 559.8073
441.8881, 560.7247
442.3702, 564.2033
442.8523, 568.6283
443.3344, 572.4628
443.8166, 574.5989
444.2987, 576.8976
444.7808, 579.5587
445.2629, 582.7593
445.7450, 587.0647
446.2271, 594.0452
446.7093, 600.7650
447.1914, 605.9059
447.6735, 608.7524
448.1556, 612.2186
448.6377, 616.0198
449.1198, 620.5888
449.6020, 626.5499
450.0841, 634.6287
450.5662, 642.2817
451.0483, 648.8510
451.5304, 654.7428
452.0125, 661.6355
452.4947, 669.7901
452.9768, 678.3163
453.4589, 686.5765
453.9410, 694.6110
454.4231, 703.9341
454.9052, 714.8915
455.3874, 726.5033
455.8695, 737.6937
456.3516, 748.5793
456.8337, 759.5478
457.3158, 770.4975
457.7979, 781.9552
458.2801, 795.3947
458.7622, 810.5113
459.2443, 825.6722
459.7264, 839.1322
460.2085, 852.1016
460.6906, 865.7988
461.1728, 880.2587
461.6549, 896.0394
462.1370, 914.0223
462.6191, 933.2633
463.1012, 951.9740
463.5833, 968.1072
464.0655, 984.8931
464.5476, 1004.184
465.0297, 1025.575
465.5118, 1046.437
465.9939, 1063.909
466.4760, 1081.795
466.9582, 1102.190
467.4403, 1127.401
467.9224, 1151.627
468.4045, 1173.705
468.8866, 1195.050
469.3687, 1218.053
469.8509, 1242.504
470.3330, 1268.345
470.8151, 1295.858
471.2972, 1324.893
471.7793, 1353.347
472.2614, 1380.841
472.7436, 1409.602
473.2257, 1441.928
473.7078, 1478.037
474.1899, 1512.850
474.6720, 1545.945
475.1541, 1578.376
475.6363, 1611.054
476.1184, 1644.172
476.6005, 1679.091
477.0826, 1717.695
477.5647, 1757.554
478.0468, 1794.329
478.5290, 1828.503
479.0111, 1864.461
479.4932, 1907.032
479.9753, 1952.379
480.4574, 1995.828
480.9395, 2036.017
481.4217, 2076.386
481.9038, 2118.585
482.3859, 2161.742
482.8680, 2204.058
483.3501, 2243.130
483.8322, 2282.992
484.3144, 2327.088
484.7965, 2374.485
485.2786, 2417.357
485.7607, 2450.132
486.2428, 2480.964
486.7249, 2514.234
487.2071, 2552.141
487.6892, 2587.018
488.1713, 2618.947
488.6534, 2647.775
489.1355, 2673.746
489.6176, 2696.996
490.0998, 2717.464
490.5819, 2735.276
491.0640, 2750.714
491.5461, 2764.999
492.0282, 2778.504
492.5103, 2789.126
492.9925, 2795.283
493.4746, 2797.259
493.9567, 2796.434
494.4388, 2793.120
494.9209, 2785.867
495.4030, 2772.003
495.8852, 2752.803
496.3673, 2731.156
496.8494, 2708.887
497.3315, 2683.992
497.8136, 2654.151
498.2957, 2619.683
498.7779, 2583.277
499.2600, 2546.390
499.7421, 2507.535
500.2242, 2465.685
500.7063, 2420.158
501.1884, 2372.289
501.6706, 2323.085
502.1527, 2271.815
502.6348, 2218.534
503.1169, 2162.874
503.5990, 2105.693
504.0811, 2046.905
504.5633, 1987.195
505.0454, 1927.265
505.5275, 1867.132
506.0096, 1808.540
506.4917, 1752.991
506.9738, 1700.346
507.4560, 1646.116
507.9381, 1589.658
508.4202, 1533.309
508.9023, 1479.031
509.3844, 1426.843
509.8665, 1377.427
510.3487, 1331.464
510.8308, 1287.310
511.3129, 1241.764
511.7950, 1195.389
512.2772, 1150.806
512.7593, 1109.227
513.2414, 1070.372
513.7235, 1033.642
514.2056, 998.9667
514.6877, 965.4591
515.1699, 931.7535
515.6520, 899.3583
516.1341, 869.8926
516.6162, 844.8693
517.0983, 820.3826
517.5804, 794.3015
518.0626, 767.9041
518.5447, 743.2903
519.0268, 721.7820
519.5089, 700.9689
519.9910, 680.1910
520.4731, 659.4757
520.9553, 640.5792
521.4374, 624.2164
521.9195, 608.9183
522.4016, 593.8334
522.8837, 578.9587
523.3658, 565.0707
523.8480, 552.2302
524.3301, 540.2337
524.8122, 529.1786
525.2943, 519.0572
525.7764, 508.8481
526.2585, 497.9813
526.7407, 487.2333
527.2228, 478.1777
527.7049, 470.5007
528.1870, 462.6555
528.6691, 452.6280
529.1512, 442.3573
529.6334, 434.4633
530.1155, 429.1246
530.5976, 423.8357
531.0797, 416.5432
531.5618, 408.7169
532.0439, 401.9111
532.5261, 396.9014
533.0082, 392.2537
533.4903, 387.7435
533.9724, 383.2867
534.4545, 378.5827
534.9366, 373.0898
535.4188, 367.9969
535.9009, 363.8062
536.3830, 360.4893
536.8651, 356.5464
537.3472, 351.6250
537.8293, 346.8030
538.3115, 342.9928
538.7936, 340.3130
539.2757, 337.0659
539.7578, 332.9767
540.2399, 328.9414
540.7220, 326.5376
541.2042, 325.4351
541.6863, 323.4850
542.1684, 319.4869
542.6505, 314.9200
543.1326, 312.0407
543.6147, 310.4868
544.0969, 308.8101
544.5790, 305.7023
545.0611, 302.4697
545.5432, 300.5179
546.0253, 300.0513
546.5074, 298.9432
546.9896, 295.1895
547.4717, 291.0587
547.9538, 288.4166
548.4359, 289.3838
548.9180, 289.3777
549.4001, 287.5236
549.8823, 284.6533
550.3644, 282.1320
550.8465, 279.9731
551.3286, 278.1248
551.8107, 276.7426
552.2928, 275.6964
552.7750, 273.8957
553.2571, 271.1247
553.7392, 268.6179
554.2213, 267.3467
554.7034, 267.1099
555.1855, 266.8384
555.6677, 266.5419
556.1498, 265.7424
556.6319, 263.3203
557.1140, 260.0903
557.5961, 257.8355
558.0782, 257.5268
558.5604, 257.5604
559.0425, 256.7063
559.5246, 255.2122
560.0067, 253.6272
560.4888, 251.5790
560.9709, 250.0451
561.4531, 249.9734
561.9352, 251.3661
562.4173, 251.6902
562.8994, 249.6329
563.3815, 247.2096
563.8636, 245.4017
564.3458, 244.4583
564.8279, 243.4557
565.3100, 242.1851
565.7921, 241.1075
566.2742, 241.0165
566.7563, 242.0500
567.2385, 242.7065
567.7206, 242.6101
568.2027, 242.0237
568.6848, 241.4249
569.1669, 240.8182
569.6490, 240.3010
570.1312, 239.8939
570.6133, 239.6142
571.0954, 239.6276
571.5775, 239.9024
572.0596, 239.9412
572.5417, 239.0517
573.0239, 238.0013
573.5060, 237.5841
573.9881, 238.3252
574.4702, 238.6213
574.9523, 237.6629
575.4344, 236.1189
575.9166, 234.8413
576.3987, 233.7517
576.8808, 233.1088
577.3629, 233.0877
577.8450, 233.5151
578.3271, 233.8183
578.8093, 233.9519
579.2914, 234.0804
579.7735, 234.1977
580.2556, 234.3381
580.7377, 235.0334
581.2198, 236.3606
581.7020, 237.3164
582.1841, 236.5541
582.6662, 234.8351
583.1483, 234.0443
583.6304, 234.5385
584.1125, 235.4348
584.5947, 236.4175
585.0768, 237.1863
585.5589, 237.2875
586.0410, 235.8883
586.5231, 234.5668
587.0052, 234.0551
587.4873, 234.1372
587.9694, 234.2320
588.4515, 233.8696
588.9337, 233.9047
589.4158, 234.9327
589.8979, 236.9675
590.3800, 237.5601
590.8621, 235.9014
591.3442, 234.2226
591.8264, 234.1468
592.3085, 235.8111
592.7906, 236.7470
593.2727, 236.7712
593.7548, 236.4292
594.2369, 236.2189
594.7191, 236.1586
595.2012, 236.3920
595.6833, 237.1291
596.1654, 237.8143
596.6475, 237.7418
597.1296, 237.1420
597.6118, 236.5485
598.0939, 236.1814
598.5760, 235.9120
599.0581, 235.5648
599.5402, 235.1970
600.0223, 235.2300
600.5045, 236.2185
600.9866, 237.2413
601.4687, 237.9457
601.9508, 238.3641
602.4329, 238.2716
602.9150, 237.3818
603.3972, 236.3791
603.8793, 235.9204
604.3614, 236.0596
604.8435, 236.1118
605.3256, 235.9875
605.8077, 235.7630
606.2899, 235.6758
606.7720, 235.6338
607.2541, 235.1638
607.7362, 233.5827
608.2183, 232.0135
608.7004, 232.1600
609.1826, 233.5506
609.6647, 234.5449
610.1468, 234.1585
610.6289, 233.2523
611.1110, 232.1371
611.5931, 230.8115
612.0753, 230.0067
612.5574, 230.2574
613.0395, 230.7708
613.5216, 231.1823
614.0037, 231.8291
614.4858, 231.3706
614.9680, 229.2140
615.4501, 226.7494
615.9322, 225.8438
616.4143, 226.6013
616.8964, 226.8795
617.3785, 226.1469
617.8607, 225.0005
618.3428, 224.5156
618.8249, 224.5455
619.3070, 224.4789
619.7891, 224.0085
620.2712, 223.3234
620.7534, 222.3818
621.2355, 221.3078
621.7176, 220.7119
622.1997, 221.2974
622.6818, 222.1187
623.1639, 222.8197
623.6461, 223.4617
624.1282, 223.2833
624.6103, 221.2415
625.0924, 219.1980
625.5745, 218.3509
626.0566, 219.1028
626.5388, 219.9409
627.0209, 220.9407
627.5030, 221.8188
627.9851, 222.1386
628.4672, 221.9153
628.9493, 221.4666
629.4315, 220.6539
629.9136, 220.0340
630.3957, 220.8662
630.8778, 222.6718
631.3599, 224.0086
631.8420, 223.5188
632.3242, 222.8300
632.8063, 223.2534
633.2884, 224.6239
633.7705, 225.9438
634.2526, 226.9436
634.7347, 227.7459
635.2169, 228.3659
635.6990, 228.7553
636.1811, 229.2699
636.6632, 230.0341
637.1453, 230.7671
637.6274, 231.1263
638.1096, 230.9619
638.5917, 231.5399
639.0738, 233.0393
639.5559, 234.9382
640.0380, 236.9050
640.5201, 238.8003
641.0023, 239.8630
641.4844, 239.5668
641.9665, 239.0790
642.4486, 239.7752
642.9307, 241.2328
643.4128, 242.5156
643.8950, 242.9561
644.3771, 243.4118
644.8592, 244.5243
645.3413, 246.0958
645.8234, 247.0893
646.3055, 246.6263
646.7877, 246.2876
647.2698, 246.6653
647.7519, 247.7993
648.2340, 248.4980
648.7161, 248.6186
649.1982, 248.6877
649.6804, 249.1755
650.1625, 250.0109
650.6446, 250.5727
651.1267, 250.8380
651.6088, 250.7391
652.0909, 249.8997
652.5731, 248.7139
653.0552, 247.8944
653.5373, 247.7281
654.0194, 247.6972
654.5015, 247.7315
654.9836, 247.6260
655.4658, 247.0812
655.9479, 245.8105
656.4300, 244.3426
656.9121, 242.4288
657.3942, 240.3943
657.8763, 239.2874
658.3585, 239.7669
658.8406, 239.5583
659.3227, 237.6209
659.8048, 234.4129
660.2869, 232.5442
660.7690, 232.0548
661.2512, 231.7020
661.7333, 230.6970
662.2154, 229.2727
662.6975, 227.8502
663.1796, 226.4439
663.6617, 225.0210
664.1439, 223.5920
664.6260, 222.1183
665.1081, 220.5735
665.5902, 218.9915
666.0723, 217.2752
666.5544, 215.2933
667.0366, 213.2419
667.5187, 211.2705
668.0008, 209.2052
668.4829, 207.6513
668.9650, 206.8769
669.4471, 206.3783
669.9293, 205.2885
670.4114, 203.6010
670.8935, 201.9541
671.3756, 200.4375
671.8577, 199.1667
672.3398, 198.6319
672.8220, 198.5468
673.3041, 197.9536
673.7862, 195.5659
674.2683, 193.1772
674.7504, 192.3489
675.2325, 192.7695
675.7147, 192.8287
676.1968, 191.5721
676.6789, 190.2659
677.1610, 189.6192
677.6431, 189.6871
678.1252, 189.0310
678.6074, 187.3046
679.0895, 185.5127
679.5716, 184.3200
680.0537, 183.7177
680.5358, 183.1661
681.0179, 182.6618
681.5001, 182.1743
681.9822, 181.6864
682.4643, 181.1954
682.9464, 180.7135
683.4285, 180.2463
683.9106, 179.7539
684.3928, 179.2032
684.8749, 178.6073
685.3570, 177.9735
685.8391, 176.6512
686.3212, 176.0857
686.8033, 177.3145
687.2855, 179.1717
687.7676, 179.7552
688.2497, 178.5433
688.7318, 177.3853
689.2139, 176.6824
689.6960, 176.2432
690.1782, 175.3251
690.6603, 173.9885
691.1424, 173.4214
691.6245, 174.8568
692.1066, 176.9454
692.5887, 177.4451
693.0709, 176.6628
693.5530, 175.9157
694.0351, 176.1845
694.5172, 176.5051
694.9993, 176.0946
695.4814, 174.8796
695.9636, 174.2260
696.4457, 174.9777
696.9278, 175.6973
697.4099, 175.5987
697.8920, 174.4496
698.3741, 174.1290
698.8563, 174.8308
699.3384, 175.7638
699.8205, 176.3715
700.3026, 176.6316
700.7847, 176.2747
701.2668, 175.1694
701.7490, 174.2368
702.2311, 174.8445
702.7132, 176.0027
703.1953, 176.2607
703.6774, 174.7831
704.1595, 173.3622
704.6417, 172.6217
705.1238, 172.3514
705.6059, 172.2752
706.0880, 172.2396
706.5701, 172.6475
707.0522, 173.8902
707.5344, 175.3435
708.0165, 175.4725
708.4986, 174.1667
708.9807, 173.2874
709.4628, 173.5114
709.9449, 174.3233
710.4271, 174.9135
710.9092, 175.2785
711.3913, 175.4263
711.8734, 175.1016
712.3555, 174.7780
712.8376, 174.8838
713.3198, 175.3224
713.8019, 175.5890
714.2840, 175.5267
714.7661, 175.2822
715.2482, 174.8843
715.7303, 174.3389
716.2125, 173.6943
716.6946, 172.7610
717.1767, 172.2339
717.6588, 172.7738
718.1409, 174.1943
718.6230, 175.0905
719.1052, 175.4696
719.5873, 175.3668
720.0694, 174.3073
720.5515, 173.0310
721.0336, 172.5980
721.5157, 173.2327
721.9979, 173.8248
722.4800, 173.7459
722.9621, 173.4832
723.4442, 173.4055
723.9263, 173.4937
724.4084, 173.9619
724.8906, 175.2295
725.3727, 176.3876
725.8548, 176.3597
726.3369, 175.0469
726.8190, 174.0189
727.3011, 173.4768
727.7833, 173.2122
728.2654, 172.9411
728.7475, 172.7508
729.2296, 172.9041
729.7117, 173.6820
730.1938, 174.3829
730.6760, 174.3991
731.1581, 174.0585
731.6402, 173.8672
732.1223, 174.4626
732.6044, 174.5453
733.0865, 173.5720
733.5687, 172.1260
734.0508, 171.5029
734.5329, 171.9261
735.0150, 172.1953
735.4971, 171.8218
735.9792, 171.3026
736.4614, 172.0328
736.9435, 173.7535
737.4256, 175.1314
737.9077, 175.3039
738.3898, 174.9904
738.8719, 174.6615
739.3541, 174.3673
739.8362, 174.2891
740.3183, 174.4335
740.8004, 174.8618
741.2825, 175.8974
741.7646, 177.3921
742.2468, 177.9997
742.7289, 177.3631
743.2110, 176.7255
743.6931, 176.6289
744.1752, 177.0119
744.6573, 177.4687
745.1395, 178.0046
745.6216, 178.9299
746.1037, 181.0136
746.5858, 183.2998
747.0679, 184.4166
747.5500, 184.3544
748.0322, 184.3681
748.5143, 184.6615
748.9964, 185.5012
749.4785, 187.3741
749.9606, 190.7605
750.4427, 192.6660
750.9249, 192.4402
751.4070, 191.8864
751.8891, 192.2533
752.3712, 193.5300
752.8533, 194.8699
753.3354, 196.2730
753.8176, 197.6325
754.2997, 198.7697
754.7818, 199.8275
755.2639, 201.0272
755.7460, 202.3882
756.2281, 203.9229
756.7103, 205.9401
757.1924, 207.9449
757.6745, 209.4907
758.1566, 210.4515
758.6387, 211.0312
759.1208, 210.9407
759.6030, 210.8246
760.0851, 211.5425
760.5672, 213.1456
761.0493, 213.9802
761.5314, 213.7419
762.0135, 213.2185
762.4957, 213.6036
762.9778, 214.3303
763.4599, 214.1690
763.9420, 212.2768
764.4241, 210.7924
764.9063, 211.6365
765.3884, 213.2534
765.8705, 213.7259
766.3526, 211.8164
766.8347, 210.1321
767.3168, 208.7451
767.7990, 207.6475
768.2811, 206.9316
768.7632, 206.6275
769.2453, 206.0784
769.7274, 205.1246
770.2095, 203.9649
770.6917, 202.7886
771.1738, 201.6360
771.6559, 200.5700
772.1380, 199.5412
772.6201, 198.7191
773.1022, 198.4510
773.5844, 198.4031
774.0665, 197.9780
774.5486, 196.8078
775.0307, 195.6812
775.5128, 194.6775
775.9949, 193.7826
776.4771, 193.0013
776.9592, 192.3323
777.4413, 191.6557
777.9234, 190.8730
778.4055, 190.1584
778.8876, 189.8578
779.3698, 189.8456
779.8519, 189.7962
780.3340, 189.5961
780.8161, 189.2925
781.2982, 188.7871
781.7803, 188.1915
782.2625, 187.8350
782.7446, 188.0896
783.2267, 187.9525
783.7088, 186.9510
784.1909, 185.5756
784.6730, 185.2929
785.1552, 186.0911
785.6373, 187.1839
786.1194, 188.5486
786.6015, 189.7072
787.0836, 189.8948
787.5657, 189.2800
788.0479, 188.3132
788.5300, 186.6392
789.0121, 185.2522
789.4942, 184.6937
789.9763, 184.8178
790.4584, 185.0222
790.9406, 185.4654
791.4227, 185.6294
791.9048, 185.2842
792.3869, 184.6069
792.8690, 184.1337
793.3511, 183.8571
793.8333, 183.7221
794.3154, 183.8301
794.7975, 183.9578
795.2796, 183.9369
795.7617, 183.7218
796.2438, 183.1692
796.7260, 181.8915
797.2081, 180.6113
797.6902, 179.7708
798.1723, 179.1925
798.6544, 178.0643
799.1365, 176.0919
799.6187, 174.3920
800.1008, 173.4423
800.5829, 172.9482
801.0650, 172.0364
801.5471, 170.7557
802.0292, 169.3892
802.5114, 168.2243
802.9935, 166.9387
803.4756, 165.0293
803.9577, 162.7229
804.4398, 160.8115
804.9219, 159.4433
805.4041, 158.6170
805.8862, 158.5931
806.3683, 159.0890
806.8504, 158.9407
807.3325, 158.0923
807.8146, 156.8143
808.2968, 154.9778
808.7789, 152.9623
809.2610, 151.6974
809.7431, 151.0393
810.2252, 150.4004
810.7073, 149.2730
811.1895, 148.2546
811.6716, 147.8399
812.1537, 147.8658
812.6358, 147.7129
813.1179, 147.1632
813.6000, 146.6119
814.0822, 146.2256
814.5643, 145.8764
815.0464, 144.9419
815.5285, 143.4080
816.0106, 142.2840
816.4927, 142.2977
816.9749, 142.6281
817.4570, 141.6576
817.9391, 139.9335
818.4212, 139.0052
818.9033, 140.8525
819.3854, 142.3106
819.8676, 141.5960
820.3497, 139.4033
820.8318, 138.2182
821.3139, 138.5045
821.7960, 138.7215
822.2781, 138.4391
822.7603, 137.9055
823.2424, 137.7489
823.7245, 137.9131
824.2066, 138.0488
824.6887, 138.0706
825.1708, 137.9362
825.6530, 137.6132
826.1351, 137.1018
826.6172, 136.4178
827.0993, 135.0927
827.5814, 134.1891
828.0635, 134.1378
828.5457, 134.5145
829.0278, 134.3748
829.5099, 133.6237
829.9920, 132.9943
830.4741, 132.6509
830.9562, 132.5426
831.4384, 132.6327
831.9205, 132.8904
832.4026, 133.2854
832.8847, 134.3879
833.3668, 134.7887
833.8489, 132.8851
834.3311, 130.0331
834.8132, 128.6429
835.2953, 129.7274
835.7774, 130.5041
836.2595, 130.6087
836.7416, 130.3920
837.2238, 130.4980
837.7059, 130.8614
838.1880, 130.8483
838.6701, 130.2442
839.1522, 129.4562
839.6343, 128.8117
840.1165, 128.2774
840.5986, 127.8126
841.0807, 127.3605
841.5628, 127.0570
842.0449, 127.0628
842.5270, 127.1410
843.0092, 127.0785
843.4913, 126.8811
843.9734, 126.4720
844.4555, 125.7974
844.9376, 125.0886
845.4197, 124.5252
845.9019, 124.1533
846.3840, 124.1900
846.8661, 124.8307
847.3482, 125.1213
847.8303, 123.9692
848.3124, 122.5587
848.7946, 122.0030
849.2767, 122.7214
849.7588, 123.4532
850.2409, 124.3524
850.7230, 124.9720
851.2051, 124.6758
851.6873, 123.6556
852.1694, 123.2591
852.6515, 123.5916
853.1336, 123.9516
853.6157, 123.4678
854.0978, 122.9149
854.5800, 123.3066
855.0621, 124.9569
855.5442, 125.7103
856.0263, 124.2127
856.5084, 122.6799
856.9905, 122.2663
857.4727, 122.9741
857.9548, 123.2627
858.4369, 123.1091
858.9190, 122.8056
859.4011, 122.6302
859.8832, 122.4012
860.3654, 121.6583
860.8475, 120.4855
861.3296, 119.6283
861.8117, 119.6565
862.2938, 119.8593
862.7759, 119.7742
863.2581, 119.4849
863.7402, 119.9122
864.2223, 121.4315
864.7044, 122.3386
865.1865, 121.6469
865.6686, 120.0430
866.1508, 119.2617
866.6329, 119.1635
867.1150, 119.1770
867.5971, 118.8923
868.0792, 118.7330
868.5613, 119.1423
869.0435, 119.8921
869.5256, 120.2444
870.0077, 120.0080
870.4898, 119.6656
870.9719, 119.3944
871.4540, 118.9735
871.9362, 117.4511
872.4183, 115.0818
872.9004, 114.0233
873.3825, 115.4660
873.8646, 117.3370
874.3467, 117.5229
874.8289, 116.8465
875.3110, 116.5476
875.7931, 118.0098
876.2752, 118.3811
876.7573, 116.6565
877.2394, 114.5002
877.7216, 114.0436
878.2037, 115.4065
878.6858, 116.4378
879.1679, 116.8930
879.6500, 116.9730
880.1321, 116.6703
880.6143, 116.2323
881.0964, 116.0466
881.5785, 116.2392
882.0606, 116.4286
882.5427, 116.5877
883.0248, 116.6068
883.5070, 116.4056
883.9891, 115.9524
884.4712, 115.4120
884.9533, 114.7401
885.4354, 114.2252
885.9175, 114.2118
886.3997, 114.4824
886.8818, 114.5224
887.3639, 114.3437
887.8460, 114.3770
888.3281, 115.2559
888.8102, 116.0492
889.2924, 116.1286
889.7745, 115.5396
890.2566, 115.1621
890.7387, 115.0710
891.2208, 114.9702
891.7029, 114.7045
892.1851, 114.3656
892.6672, 114.2062
893.1493, 114.1912
893.6314, 114.1701
894.1135, 114.1244
894.5956, 113.9921
895.0778, 113.5747
895.5599, 113.0537
896.0420, 112.9415
896.5241, 113.6110
897.0062, 113.9294
897.4883, 113.6372
897.9705, 113.0203
898.4526, 112.4933
898.9347, 112.0827
899.4168, 111.9279
899.8989, 112.1009
900.3810, 112.4188
900.8632, 112.9701
901.3453, 113.4735
901.8274, 113.5817
902.3095, 112.7157
902.7916, 112.4261
903.2737, 112.9435
903.7559, 113.7093
904.2380, 114.4374
904.7201, 115.0575
905.2022, 114.5754
905.6843, 112.9132
906.1664, 111.4026
906.6486, 111.3561
907.1307, 111.8267
907.6128, 111.9310
908.0949, 111.5554
908.5770, 111.3586
909.0591, 111.5633
909.5413, 111.7787
910.0234, 111.8582
910.5055, 111.8158
910.9876, 111.6491
911.4697, 111.3750
911.9518, 111.3025
912.4340, 111.7993
912.9161, 112.4275
913.3982, 112.8467
913.8803, 113.0351
914.3624, 112.9282
914.8445, 112.0588
915.3267, 111.4700
915.8088, 111.4001
916.2909, 111.6572
916.7730, 111.9467
917.2551, 112.2625
917.7372, 112.3573
918.2194, 112.1809
918.7015, 111.7524
919.1836, 110.6382
919.6657, 109.4645
920.1478, 109.1768
920.6299, 110.6087
921.1121, 111.5811
921.5942, 111.7048
922.0763, 111.3974
922.5584, 110.7808
923.0405, 109.8208
923.5226, 109.7731
924.0048, 110.7216
924.4869, 111.7546
924.9690, 112.0145
925.4511, 112.0342
925.9332, 112.5210
926.4153, 113.4822
926.8975, 114.1180
927.3796, 113.7275
927.8617, 113.5297
928.3438, 114.1502
928.8259, 115.2883
929.3080, 115.1814
929.7902, 113.8562
930.2723, 112.7590
930.7544, 112.5593
931.2365, 112.8819
931.7186, 113.7211
932.2007, 114.7026
932.6829, 115.0561
933.1650, 113.5981
933.6471, 112.7981
934.1292, 113.1819
934.6113, 114.1580
935.0934, 115.0751
935.5756, 115.9351
936.0577, 116.0276
936.5398, 115.1546
937.0219, 114.1930
937.5040, 114.0268
937.9861, 114.2554
938.4683, 114.4556
938.9504, 114.5713
939.4325, 114.5787
939.9146, 114.3142
940.3967, 114.1502
940.8788, 114.3402
941.3610, 114.8444
941.8431, 115.1105
942.3252, 115.1497
942.8073, 115.2254
943.2894, 115.8422
943.7715, 116.2980
944.2537, 115.4592
944.7358, 113.8243
945.2179, 113.2553
945.7000, 115.5197
946.1821, 116.9533
946.6642, 116.6512
947.1464, 115.4584
947.6285, 115.1656
948.1106, 115.6589
948.5927, 116.1439
949.0748, 116.4910
949.5569, 116.5493
950.0391, 115.6630
950.5212, 114.6722
951.0033, 114.6499
951.4854, 116.5931
951.9675, 117.4617
952.4496, 116.5693
952.9318, 115.7337
953.4139, 116.6600
953.8960, 118.9618
954.3781, 120.2944
954.8602, 120.6547
955.3423, 120.9441
955.8245, 122.0303
956.3066, 123.0237
956.7887, 123.1520
957.2708, 122.5174
957.7529, 122.2227
958.2350, 122.5675
958.7172, 122.5646
959.1993, 121.6911
959.6814, 120.6525
960.1635, 121.2467
960.6456, 122.9956
961.1277, 124.3320
961.6099, 124.4859
962.0920, 124.6499
962.5741, 125.6515
963.0562, 126.9445
963.5383, 127.8947
964.0204, 128.4167
964.5026, 128.7369
964.9847, 128.7426
965.4668, 128.9352
965.9489, 129.9932
966.4310, 131.5010
966.9131, 132.5070
967.3953, 133.0035
967.8774, 133.8066
968.3595, 135.8302
968.8416, 137.7416
969.3237, 138.9524
969.8058, 139.5158
970.2880, 139.3618
970.7701, 138.3116
971.2522, 138.1109
971.7343, 139.6268
972.2164, 141.8017
972.6985, 143.2420
973.1807, 144.2128
973.6628, 145.2208
974.1449, 146.5814
974.6270, 147.7509
975.1091, 148.5695
975.5912, 149.2283
976.0734, 149.8206
976.5555, 150.3358
977.0376, 151.3122
977.5197, 152.7935
978.0018, 154.1432
978.4839, 154.6737
978.9661, 154.9450
979.4482, 155.5724
979.9303, 156.5671
980.4124, 157.3417
980.8945, 157.6499
981.3766, 157.9994
981.8588, 158.5353
982.3409, 159.2160
982.8230, 159.9074
983.3051, 160.6291
983.7872, 161.5202
984.2693, 162.7797
984.7515, 163.9260
985.2336, 164.5358
985.7157, 164.8689
986.1978, 165.2375
986.6799, 165.4924
987.1620, 166.3171
987.6442, 168.0043
988.1263, 169.4383
988.6084, 169.0892
989.0905, 167.8301
989.5726, 167.9197
990.0547, 169.3640
990.5369, 170.9267
991.0190, 172.1609
991.5011, 173.1656
991.9832, 174.0136
992.4653, 174.6747
992.9474, 174.9620
993.4296, 174.8327
993.9117, 174.6846
994.3938, 174.5543
994.8759, 174.6383
995.3580, 175.2141
995.8401, 176.1793
996.3223, 177.4711
996.8044, 179.5816
997.2865, 180.8279
997.7686, 180.3648
998.2507, 179.7531
998.7328, 180.3186
999.2150, 181.9807
999.6971, 182.8412
1000.179, 182.9059
1000.661, 183.1827
1001.143, 184.6671
1001.626, 186.3752
1002.108, 187.7354
1002.590, 188.6768
1003.072, 189.0031
1003.554, 188.1929
1004.036, 188.1140
1004.518, 189.3683
1005.000, 191.1071
1005.482, 191.8190
1005.965, 191.8385
1006.447, 191.9870
1006.929, 192.4190
1007.411, 193.1421
1007.893, 194.6882
1008.375, 196.0946
1008.857, 196.5752
1009.339, 196.0390
1009.822, 195.9590
1010.304, 196.3789
1010.786, 196.7715
1011.268, 196.4894
1011.750, 196.2054
1012.232, 197.0078
1012.714, 198.5383
1013.196, 199.7619
1013.678, 200.4185
1014.161, 200.5745
1014.643, 199.9049
1015.125, 199.1490
1015.607, 199.7247
1016.089, 201.3142
1016.571, 201.6935
1017.053, 200.4065
1017.535, 199.4220
1018.018, 201.0336
1018.500, 202.9451
1018.982, 203.0651
1019.464, 201.2297
1019.946, 200.4616
1020.428, 201.0329
1020.910, 201.6898
1021.392, 201.9322
1021.874, 201.8935
1022.357, 201.8120
1022.839, 201.6551
1023.321, 201.3436
1023.803, 200.7500
1024.285, 200.1321
1024.767, 199.4964
1025.249, 198.9011
1025.731, 198.4202
1026.214, 198.0521
1026.696, 197.7363
1027.178, 197.4741
1027.660, 197.0818
1028.142, 196.0893
1028.624, 195.1609
1029.106, 195.0100
1029.588, 195.5572
1030.070, 195.8841
1030.553, 195.9217
1031.035, 195.8012
1031.517, 195.6168
1031.999, 195.1829
1032.481, 194.0108
1032.963, 192.3271
1033.445, 190.4984
1033.927, 188.2359
1034.410, 187.2012
1034.892, 189.8210
1035.374, 192.4975
1035.856, 192.5739
1036.338, 189.9826
1036.820, 188.2511
1037.302, 187.4211
1037.784, 186.6874
1038.266, 185.2660
1038.749, 183.9732
1039.231, 183.8996
1039.713, 184.5898
1040.195, 184.9528
1040.677, 184.7248
1041.159, 184.2457
1041.641, 183.4528
1042.123, 182.5871
1042.605, 181.9293
1043.088, 181.4334
1043.570, 180.9983
1044.052, 180.6126
1044.534, 180.2570
1045.016, 179.7974
1045.498, 179.5001
1045.980, 179.6157
1046.462, 180.0083
1046.945, 179.9774
1047.427, 179.5017
1047.909, 179.2498
1048.391, 179.4847
1048.873, 179.9318
1049.355, 180.6523
1049.837, 181.2544
1050.319, 181.1182
1050.802, 179.4061
1051.284, 178.7792
1051.766, 179.6974
1052.248, 180.7370
1052.730, 180.5219
1053.212, 179.6815
1053.694, 180.4910
1054.176, 182.6008
1054.658, 184.3709
1055.141, 184.5343
1055.623, 184.7495
1056.105, 185.7246
1056.587, 187.0456
1057.069, 187.9527
1057.551, 188.4099
1058.033, 190.0068
1058.515, 193.1094
1058.997, 195.8888
1059.480, 196.1666
1059.962, 195.7544
1060.444, 196.3707
1060.926, 198.1847
1061.408, 199.8903
1061.890, 201.4153
1062.372, 202.8591
1062.854, 204.0919
1063.337, 205.4901
1063.819, 208.0136
1064.301, 211.1933
1064.783, 213.9846
1065.265, 216.0270
1065.747, 217.8105
1066.229, 219.1361
1066.711, 220.6105
1067.193, 222.7509
1067.676, 225.4924
1068.158, 227.8240
1068.640, 229.7880
1069.122, 231.8700
1069.604, 234.5901
1070.086, 237.3343
1070.568, 239.6903
1071.050, 241.8249
1071.532, 244.0538
1072.015, 246.3272
1072.497, 249.0740
1072.979, 252.5025
1073.461, 255.8010
1073.943, 257.7687
1074.425, 259.2543
1074.907, 261.4770
1075.389, 264.5061
1075.872, 267.7448
1076.354, 271.6687
1076.836, 274.7679
1077.318, 276.2506
1077.800, 277.0029
1078.282, 279.1132
1078.764, 282.3001
1079.246, 285.6430
1079.729, 289.0885
1080.211, 292.0785
1080.693, 293.9194
1081.175, 295.5070
1081.657, 297.4456
1082.139, 299.7417
1082.621, 302.2133
1083.103, 304.8783
1083.585, 307.8608
1084.068, 311.5643
1084.550, 315.2787
1085.032, 318.4099
1085.514, 321.0225
1085.996, 323.0432
1086.478, 323.7115
1086.960, 325.7155
1087.442, 329.5490
1087.924, 333.4317
1088.406, 335.5468
1088.889, 336.6144
1089.371, 337.7922
1089.853, 339.1799
1090.335, 340.9613
1090.817, 343.6430
1091.299, 346.1676
1091.781, 348.2186
1092.263, 350.0675
1092.746, 352.2847
1093.228, 354.7465
1093.710, 356.7434
1094.192, 358.1078
1094.674, 359.4563
1095.156, 361.4285
1095.638, 363.2931
1096.120, 364.2495
1096.603, 364.5337
1097.085, 366.2980
1097.567, 369.6219
1098.049, 372.2301
1098.531, 373.1015
1099.013, 373.3300
1099.495, 373.8218
1099.977, 374.4967
1100.459, 375.2615
1100.942, 376.0776
1101.424, 377.1546
1101.906, 378.7010
1102.388, 379.8428
1102.870, 379.8839
1103.352, 379.2222
1103.834, 378.2753
1104.316, 377.2721
1104.798, 376.8799
1105.281, 377.6357
1105.763, 378.7251
1106.245, 380.6088
1106.727, 381.9378
1107.209, 380.5179
1107.691, 377.1784
1108.173, 375.6979
1108.655, 376.1600
1109.138, 376.5685
1109.620, 375.8747
1110.102, 374.7537
1110.584, 373.1398
1111.066, 371.4846
1111.548, 370.9967
1112.030, 371.6327
1112.512, 371.1756
1112.995, 369.0520
1113.477, 366.9418
1113.959, 366.5235
1114.441, 366.5839
1114.923, 366.1102
1115.405, 365.0519
1115.887, 363.9996
1116.369, 362.9961
1116.851, 361.6925
1117.333, 359.9380
1117.816, 357.8859
1118.298, 355.1864
1118.780, 352.5560
1119.262, 351.2174
1119.744, 352.2322
1120.226, 352.0008
1120.708, 350.0815
1121.190, 347.7377
1121.673, 345.5091
1122.155, 343.4879
1122.637, 341.9734
1123.119, 340.7900
1123.601, 339.4509
1124.083, 337.7203
1124.565, 335.8786
1125.047, 334.0041
1125.530, 332.0026
1126.012, 329.6583
1126.494, 327.0664
1126.976, 324.7418
1127.458, 322.6906
1127.940, 320.8161
1128.422, 319.3971
1128.904, 317.7479
1129.386, 315.1538
1129.869, 312.3801
1130.351, 310.8003
1130.833, 310.3859
1131.315, 309.6005
1131.797, 308.2673
1132.279, 306.4242
1132.761, 303.5011
1133.243, 300.6128
1133.725, 298.8392
1134.208, 297.9035
1134.690, 296.2121
1135.172, 293.6590
1135.654, 291.0323
1136.136, 288.4178
1136.618, 286.0706
1137.100, 284.5449
1137.582, 283.2638
1138.065, 281.5719
1138.547, 279.3333
1139.029, 277.2522
1139.511, 275.4512
1139.993, 273.3693
1140.475, 270.6687
1140.957, 267.7586
1141.439, 265.0472
1141.922, 262.6438
1142.404, 260.7587
1142.886, 259.8299
1143.368, 258.3725
1143.850, 256.1041
1144.332, 253.7675
1144.814, 251.9404
1145.296, 250.3490
1145.778, 248.1469
1146.260, 245.5528
1146.743, 243.1394
1147.225, 241.2884
1147.707, 239.4714
1148.189, 237.5529
1148.671, 235.6539
1149.153, 233.9211
1149.635, 232.3076
1150.117, 230.5905
1150.600, 228.7448
1151.082, 226.6646
1151.564, 224.1682
1152.046, 221.5491
1152.528, 218.7057
1153.010, 215.9852
1153.492, 214.0152
1153.974, 212.7121
1154.457, 210.9292
1154.939, 208.5966
1155.421, 206.3574
1155.903, 204.5279
1156.385, 203.0423
1156.867, 202.2572
1157.349, 201.6822
1157.831, 200.0951
1158.313, 197.4682
1158.796, 195.0897
1159.278, 193.1814
1159.760, 191.3723
1160.242, 189.2615
1160.724, 187.1904
1161.206, 185.5405
1161.688, 184.2282
1162.170, 182.5984
1162.652, 180.6027
1163.135, 178.7477
1163.617, 177.1890
1164.099, 175.7546
1164.581, 174.4334
1165.063, 173.0081
1165.545, 171.1355
1166.027, 168.7308
1166.509, 166.6811
1166.992, 164.9787
1167.474, 163.6474
1167.956, 162.8515
1168.438, 162.1489
1168.920, 161.0059
1169.402, 159.5517
1169.884, 157.8678
1170.366, 155.7219
1170.849, 154.3260
1171.331, 153.8606
1171.813, 153.5296
1172.295, 153.0999
1172.777, 152.3139
1173.259, 150.2852
1173.741, 147.6776
1174.223, 145.8589
1174.705, 145.8824
1175.188, 145.4386
1175.670, 144.2937
1176.152, 143.2054
1176.634, 143.0031
1177.116, 143.1168
1177.598, 142.3434
1178.080, 140.8885
1178.562, 139.4082
1179.044, 138.0962
1179.527, 136.7299
1180.009, 135.1310
1180.491, 133.7773
1180.973, 133.4383
1181.455, 133.5586
1181.937, 132.6310
1182.419, 130.8783
1182.901, 129.6103
1183.384, 129.9671
1183.866, 129.9462
1184.348, 129.0908
1184.830, 127.9959
1185.312, 127.4058
1185.794, 127.1699
1186.276, 127.0929
1186.758, 127.0856
1187.240, 126.4612
1187.723, 124.1639
1188.205, 122.1944
1188.687, 120.9586
1189.169, 120.3697
1189.651, 120.4854
1190.133, 121.1121
1190.615, 121.7940
1191.097, 122.4702
1191.579, 122.6563
1192.062, 121.7461
1192.544, 120.7614
1193.026, 119.9832
1193.508, 119.3987
1193.990, 119.0642
1194.472, 118.9014
1194.954, 118.5489
1195.436, 117.8827
1195.919, 117.5905
1196.401, 118.8995
1196.883, 119.5247
1197.365, 118.2357
1197.847, 115.8364
1198.329, 114.5141
1198.811, 114.1340
1199.293, 114.2538
1199.776, 114.9045
1200.258, 115.3649
1200.740, 115.0326
1201.222, 114.7179
1201.704, 114.9314
1202.186, 115.4384
1202.668, 115.2514
1203.150, 114.5100
1203.632, 113.7324
1204.115, 112.9923
1204.597, 112.5002
1205.079, 112.4268
1205.561, 112.5921
1206.043, 112.9532
1206.525, 113.4584
1207.007, 114.0092
1207.489, 114.4863
1207.971, 114.2954
1208.454, 112.6815
1208.936, 111.4229
1209.418, 111.3762
1209.900, 111.9118
1210.382, 112.9131
1210.864, 114.1973
1211.346, 114.2084
1211.828, 113.2051
1212.311, 112.4662
1212.793, 112.9439
1213.275, 113.1869
1213.757, 112.2972
1214.239, 111.3244
1214.721, 111.1674
1215.203, 111.6726
1215.685, 111.6137
1216.167, 111.0714
1216.650, 110.4792
1217.132, 109.4564
1217.614, 109.2369
1218.096, 110.9340
1218.578, 112.8073
1219.060, 113.3253
1219.542, 112.6407
1220.024, 111.4322
1220.506, 109.9172
1220.989, 109.1780
1221.471, 110.7425
1221.953, 111.8366
1222.435, 111.4409
1222.917, 110.5504
1223.399, 110.1053
1223.881, 110.0408
1224.363, 110.0216
1224.846, 110.0607
1225.328, 110.3173
1225.810, 111.2606
1226.292, 111.8962
1226.774, 111.9674
1227.256, 111.6984
1227.738, 111.3170
1228.220, 110.8184
1228.703, 109.9180
1229.185, 108.7498
1229.667, 108.2853
1230.149, 109.4577
1230.631, 110.8242
1231.113, 112.3961
1231.595, 113.5062
1232.077, 112.8457
1232.559, 111.1371
1233.042, 110.4807
1233.524, 110.9047
1234.006, 111.3619
1234.488, 111.1257
1234.970, 111.3973
1235.452, 112.6951
1235.934, 114.0352
1236.416, 113.8762
1236.898, 112.8170
1237.381, 112.1703
1237.863, 112.0104
1238.345, 111.8296
1238.827, 111.0660
1239.309, 110.9949
1239.791, 112.0838
1240.273, 113.3925
1240.755, 113.5642
1241.238, 113.1094
1241.720, 112.9391
1242.202, 113.1182
1242.684, 113.3091
1243.166, 113.3472
1243.648, 113.6674
1244.130, 114.5233
1244.612, 115.2243
1245.094, 114.2527
1245.577, 112.8687
1246.059, 113.3652
1246.541, 115.7479
1247.023, 116.8999
1247.505, 116.1128
1247.987, 115.3947
1248.469, 115.1244
1248.951, 115.1925
1249.433, 115.7602
1249.916, 116.3962
1250.398, 116.4933
1250.880, 116.0455
1251.362, 115.8737
1251.844, 116.0208
1252.326, 116.4329
1252.808, 117.1888
1253.290, 117.8233
1253.773, 117.5351
1254.255, 117.1056
1254.737, 117.4376
1255.219, 118.4798
1255.701, 119.0837
1256.183, 119.2059
1256.665, 119.2484
1257.147, 119.2829
1257.630, 119.3562
1258.112, 119.5741
1258.594, 119.7987
1259.076, 119.7032
1259.558, 119.4941
1260.040, 120.3973
1260.522, 122.3823
1261.004, 123.3115
1261.486, 122.5732
1261.969, 121.7104
1262.451, 121.8805
1262.933, 122.3425
1263.415, 122.5810
1263.897, 122.7121
1264.379, 123.2431
1264.861, 124.1003
1265.343, 124.6606
1265.825, 124.7297
1266.308, 124.9583
1266.790, 126.0801
1267.272, 127.0671
1267.754, 127.4880
1268.236, 127.3962
1268.718, 126.3755
1269.200, 124.9428
1269.682, 125.3321
1270.165, 128.2138
1270.647, 130.4009
1271.129, 130.0253
1271.611, 129.3249
1272.093, 128.9044
1272.575, 128.7170
1273.057, 128.6474
1273.539, 128.7359
1274.021, 128.9822
1274.504, 129.3526
1274.986, 130.5276
1275.468, 133.5049
1275.950, 135.3417
1276.432, 134.9333
1276.914, 133.5000
1277.396, 132.3220
1277.878, 131.6917
1278.360, 132.3934
1278.843, 134.5991
1279.325, 135.5881
1279.807, 134.7688
1280.289, 134.5690
1280.771, 135.8372
1281.253, 137.3866
1281.735, 137.8321
1282.217, 137.7678
1282.700, 137.6783
1283.182, 137.6659
1283.664, 138.4158
1284.146, 140.0314
1284.628, 141.1378
1285.110, 141.3177
1285.592, 141.3316
1286.074, 141.9252
1286.557, 142.5688
1287.039, 142.7284
1287.521, 142.5942
1288.003, 142.9741
1288.485, 143.8155
1288.967, 144.4402
1289.449, 144.6507
1289.931, 145.0438
1290.413, 146.4586
1290.896, 147.5965
1291.378, 147.7314
1291.860, 147.2734
1292.342, 147.0510
1292.824, 147.1252
1293.306, 147.9243
1293.788, 149.5972
1294.270, 150.6850
1294.752, 150.1984
1295.235, 149.4583
1295.717, 148.5595
1296.199, 148.0045
1296.681, 149.0169
1297.163, 150.8559
1297.645, 152.3640
1298.127, 153.3841
1298.609, 153.4097
1299.092, 151.7846
1299.574, 151.0315
1300.056, 151.8626
1300.538, 153.3103
1301.020, 154.4655
1301.502, 155.4091
1301.984, 156.2500
1302.466, 156.9604
1302.948, 157.3391
1303.431, 157.3344
1303.913, 157.3779
1304.395, 157.5646
1304.877, 157.8000
##END=



