##NAMES=Golyshevite
##RRUFFID=R061047
##IDEAL CHEMISTRY=Na_10_Ca_9_Zr^4+^_3_Fe^2+^_2_SiNb^5+^(Si_3_O_9_)_2_(Si_9_O_27_)_2_(OH)_3_(CO_3_)&#183;H_2_O
##LOCALITY=Mica mine, Kovdor, Kola, Russia
##OWNER=RRUFF
##SOURCE=Michael Scott
##DESCRIPTION=Dark brown vitreous blebs
##STATUS=The identification of this mineral has been confirmed only by single crystal X-ray diffraction.
##URL=rruff.info/R061047
122.4864, 6564.971
122.9685, 6815.945
123.4506, 7049.448
123.9327, 7243.390
124.4148, 7361.282
124.8969, 7416.337
125.3791, 7459.164
125.8612, 7513.457
126.3433, 7578.655
126.8254, 7656.314
127.3075, 7759.251
127.7896, 7862.979
128.2718, 7922.012
128.7539, 7936.552
129.2360, 7946.288
129.7181, 7985.839
130.2002, 8051.227
130.6823, 8126.507
131.1645, 8201.426
131.6466, 8281.204
132.1287, 8388.520
132.6108, 8525.532
133.0929, 8677.622
133.5750, 8820.678
134.0572, 8955.131
134.5393, 9102.685
135.0214, 9279.514
135.5035, 9485.233
135.9856, 9696.613
136.4677, 9912.213
136.9499, 10130.40
137.4320, 10350.53
137.9141, 10576.63
138.3962, 10785.93
138.8783, 10967.02
139.3604, 11118.18
139.8426, 11242.58
140.3247, 11338.39
140.8068, 11406.70
141.2889, 11463.68
141.7710, 11515.06
142.2531, 11546.18
142.7353, 11541.05
143.2174, 11489.03
143.6995, 11422.07
144.1816, 11345.10
144.6637, 11255.77
145.1458, 11165.68
145.6280, 11083.61
146.1101, 10994.61
146.5922, 10874.31
147.0743, 10702.25
147.5564, 10523.46
148.0385, 10352.71
148.5207, 10194.51
149.0028, 10036.62
149.4849, 9877.728
149.9670, 9718.702
150.4491, 9569.587
150.9312, 9428.127
151.4134, 9298.195
151.8955, 9182.832
152.3776, 9097.226
152.8597, 9010.299
153.3418, 8916.375
153.8239, 8817.650
154.3060, 8731.228
154.7882, 8670.855
155.2703, 8617.250
155.7524, 8556.886
156.2345, 8470.361
156.7166, 8393.059
157.1987, 8338.250
157.6809, 8307.671
158.1630, 8273.161
158.6451, 8223.151
159.1272, 8166.623
159.6093, 8113.080
160.0914, 8065.849
160.5736, 8021.316
161.0557, 7976.179
161.5378, 7927.741
162.0199, 7887.061
162.5020, 7867.225
162.9841, 7857.771
163.4663, 7839.075
163.9484, 7799.022
164.4305, 7750.007
164.9126, 7699.122
165.3947, 7645.225
165.8768, 7595.256
166.3590, 7553.035
166.8411, 7518.419
167.3232, 7489.010
167.8053, 7462.420
168.2874, 7441.306
168.7695, 7429.040
169.2517, 7435.028
169.7338, 7441.628
170.2159, 7429.766
170.6980, 7402.467
171.1801, 7383.355
171.6622, 7400.866
172.1444, 7434.184
172.6265, 7453.167
173.1086, 7424.629
173.5907, 7387.935
174.0728, 7390.377
174.5549, 7433.868
175.0371, 7477.077
175.5192, 7475.518
176.0013, 7446.445
176.4834, 7427.867
176.9655, 7441.937
177.4476, 7475.564
177.9298, 7513.569
178.4119, 7557.302
178.8940, 7596.036
179.3761, 7617.053
179.8582, 7623.133
180.3403, 7625.964
180.8224, 7629.422
181.3046, 7634.403
181.7867, 7642.818
182.2688, 7654.586
182.7509, 7670.107
183.2330, 7688.862
183.7151, 7710.823
184.1973, 7739.572
184.6794, 7783.599
185.1615, 7837.730
185.6436, 7881.862
186.1257, 7911.605
186.6078, 7930.865
187.0900, 7940.999
187.5721, 7941.628
188.0542, 7952.827
188.5363, 8002.451
189.0184, 8083.385
189.5005, 8149.335
189.9827, 8183.159
190.4648, 8195.176
190.9469, 8218.369
191.4290, 8254.048
191.9111, 8290.879
192.3932, 8316.287
192.8754, 8330.585
193.3575, 8345.774
193.8396, 8362.697
194.3217, 8383.047
194.8038, 8418.790
195.2859, 8473.187
195.7681, 8533.649
196.2502, 8587.827
196.7323, 8635.615
197.2144, 8676.231
197.6965, 8709.247
198.1786, 8734.662
198.6608, 8752.491
199.1429, 8760.444
199.6250, 8764.475
200.1071, 8775.102
200.5892, 8793.265
201.0714, 8811.666
201.5535, 8824.820
202.0356, 8831.505
202.5177, 8847.414
202.9998, 8877.760
203.4819, 8912.506
203.9641, 8922.864
204.4462, 8901.302
204.9283, 8881.454
205.4104, 8889.410
205.8925, 8934.188
206.3746, 8951.715
206.8568, 8930.548
207.3389, 8881.438
207.8210, 8842.388
208.3031, 8816.719
208.7852, 8792.937
209.2673, 8764.293
209.7494, 8731.386
210.2316, 8691.682
210.7137, 8639.767
211.1958, 8580.462
211.6779, 8544.067
212.1600, 8540.981
212.6421, 8541.019
213.1243, 8515.661
213.6064, 8454.060
214.0885, 8402.352
214.5706, 8371.711
215.0527, 8360.470
215.5348, 8340.052
216.0170, 8310.854
216.4991, 8271.328
216.9812, 8214.950
217.4633, 8128.964
217.9454, 8059.895
218.4275, 8023.453
218.9097, 8021.962
219.3918, 8006.518
219.8739, 7973.726
220.3560, 7931.164
220.8381, 7886.843
221.3202, 7841.876
221.8024, 7793.968
222.2845, 7740.466
222.7666, 7678.509
223.2487, 7632.234
223.7308, 7613.010
224.2129, 7600.995
224.6951, 7565.760
225.1772, 7493.660
225.6593, 7422.998
226.1414, 7364.133
226.6235, 7318.596
227.1056, 7280.523
227.5878, 7254.321
228.0699, 7232.491
228.5520, 7200.139
229.0341, 7151.537
229.5162, 7102.234
229.9983, 7058.443
230.4805, 7025.617
230.9626, 6981.877
231.4447, 6917.083
231.9268, 6845.291
232.4089, 6800.389
232.8910, 6796.688
233.3732, 6796.845
233.8553, 6787.136
234.3374, 6769.078
234.8195, 6735.664
235.3016, 6673.568
235.7837, 6598.777
236.2658, 6558.782
236.7480, 6575.316
237.2301, 6596.116
237.7122, 6595.110
238.1943, 6557.073
238.6764, 6530.327
239.1585, 6519.295
239.6407, 6520.348
240.1228, 6520.028
240.6049, 6517.680
241.0870, 6514.831
241.5691, 6513.379
242.0512, 6519.080
242.5334, 6512.496
243.0155, 6482.817
243.4976, 6438.358
243.9797, 6421.256
244.4618, 6448.507
244.9439, 6480.571
245.4261, 6492.398
245.9082, 6469.553
246.3903, 6456.349
246.8724, 6459.354
247.3545, 6475.687
247.8366, 6488.264
248.3188, 6496.568
248.8009, 6501.828
249.2830, 6505.336
249.7651, 6509.243
250.2472, 6507.012
250.7293, 6494.924
251.2115, 6475.226
251.6936, 6463.836
252.1757, 6459.957
252.6578, 6466.054
253.1399, 6487.671
253.6220, 6540.106
254.1042, 6573.532
254.5863, 6575.477
255.0684, 6549.637
255.5505, 6534.245
256.0326, 6530.823
256.5147, 6535.687
256.9969, 6547.902
257.4790, 6573.652
257.9611, 6591.010
258.4432, 6593.474
258.9253, 6582.334
259.4074, 6579.514
259.8896, 6589.209
260.3717, 6600.967
260.8538, 6605.617
261.3359, 6599.830
261.8180, 6595.434
262.3001, 6595.438
262.7823, 6599.182
263.2644, 6596.688
263.7465, 6582.442
264.2286, 6570.450
264.7107, 6575.405
265.1928, 6603.611
265.6750, 6629.004
266.1571, 6644.667
266.6392, 6651.911
267.1213, 6674.236
267.6034, 6723.369
268.0855, 6767.393
268.5677, 6769.177
269.0498, 6713.745
269.5319, 6674.667
270.0140, 6670.420
270.4961, 6697.770
270.9782, 6716.073
271.4604, 6720.138
271.9425, 6726.453
272.4246, 6755.966
272.9067, 6815.986
273.3888, 6862.227
273.8709, 6879.855
274.3531, 6873.515
274.8352, 6882.867
275.3173, 6911.491
275.7994, 6946.726
276.2815, 6974.404
276.7636, 6992.118
277.2457, 7019.136
277.7278, 7065.843
278.2100, 7126.318
278.6921, 7159.116
279.1742, 7157.307
279.6563, 7149.882
280.1384, 7167.251
280.6205, 7210.387
281.1027, 7253.899
281.5848, 7293.376
282.0669, 7328.079
282.5490, 7352.570
283.0311, 7365.248
283.5132, 7375.306
283.9954, 7389.173
284.4775, 7407.042
284.9596, 7434.395
285.4417, 7477.169
285.9238, 7529.340
286.4059, 7565.338
286.8881, 7582.347
287.3702, 7602.403
287.8523, 7649.199
288.3344, 7720.589
288.8165, 7791.500
289.2986, 7858.938
289.7808, 7920.650
290.2629, 7968.866
290.7450, 8002.642
291.2271, 8031.025
291.7092, 8055.630
292.1913, 8079.229
292.6735, 8118.399
293.1556, 8184.729
293.6377, 8262.513
294.1198, 8314.220
294.6019, 8340.286
295.0840, 8367.013
295.5662, 8418.061
296.0483, 8488.749
296.5304, 8563.132
297.0125, 8639.776
297.4946, 8716.196
297.9767, 8787.013
298.4589, 8852.663
298.9410, 8913.997
299.4231, 8960.823
299.9052, 9003.586
300.3873, 9068.137
300.8694, 9176.490
301.3516, 9287.819
301.8337, 9344.927
302.3158, 9353.765
302.7979, 9356.208
303.2800, 9375.212
303.7621, 9408.109
304.2443, 9453.277
304.7264, 9515.614
305.2085, 9579.834
305.6906, 9635.369
306.1727, 9681.280
306.6548, 9715.898
307.1370, 9739.951
307.6191, 9751.477
308.1012, 9745.538
308.5833, 9714.526
309.0654, 9679.412
309.5475, 9659.492
310.0297, 9649.772
310.5118, 9634.426
310.9939, 9605.896
311.4760, 9567.645
311.9581, 9520.929
312.4402, 9462.719
312.9224, 9403.894
313.4045, 9354.546
313.8866, 9309.018
314.3687, 9255.174
314.8508, 9180.583
315.3329, 9100.318
315.8151, 9021.821
316.2972, 8940.009
316.7793, 8874.539
317.2614, 8844.047
317.7435, 8834.305
318.2256, 8818.552
318.7078, 8790.809
319.1899, 8752.573
319.6720, 8700.234
320.1541, 8625.614
320.6362, 8562.148
321.1183, 8524.220
321.6005, 8502.695
322.0826, 8484.181
322.5647, 8475.065
323.0468, 8460.013
323.5289, 8429.078
324.0110, 8374.019
324.4932, 8332.548
324.9753, 8319.396
325.4574, 8320.129
325.9395, 8317.684
326.4216, 8299.105
326.9037, 8288.340
327.3859, 8292.740
327.8680, 8315.490
328.3501, 8337.906
328.8322, 8354.775
329.3143, 8373.718
329.7964, 8402.322
330.2786, 8442.792
330.7607, 8490.356
331.2428, 8545.398
331.7249, 8607.674
332.2070, 8673.492
332.6891, 8745.146
333.1712, 8818.786
333.6534, 8891.619
334.1355, 8965.862
334.6176, 9035.604
335.0997, 9097.151
335.5818, 9151.551
336.0639, 9216.427
336.5461, 9295.708
337.0282, 9379.102
337.5103, 9462.127
337.9924, 9545.023
338.4745, 9623.152
338.9566, 9698.074
339.4388, 9766.744
339.9209, 9818.337
340.4030, 9848.832
340.8851, 9874.668
341.3672, 9907.385
341.8493, 9948.198
342.3315, 9986.371
342.8136, 10028.21
343.2957, 10059.20
343.7778, 10038.39
344.2599, 9963.077
344.7420, 9882.438
345.2242, 9829.321
345.7063, 9798.833
346.1884, 9765.807
346.6705, 9730.658
347.1526, 9685.723
347.6347, 9615.998
348.1169, 9523.860
348.5990, 9425.855
349.0811, 9331.070
349.5632, 9237.970
350.0453, 9140.831
350.5274, 9038.615
351.0096, 8939.456
351.4917, 8858.269
351.9738, 8787.804
352.4559, 8705.511
352.9380, 8598.446
353.4201, 8476.184
353.9023, 8350.432
354.3844, 8221.571
354.8665, 8093.724
355.3486, 7962.767
355.8307, 7837.072
356.3128, 7727.118
356.7950, 7655.889
357.2771, 7590.714
357.7592, 7506.654
358.2413, 7405.358
358.7234, 7302.996
359.2055, 7199.072
359.6877, 7102.522
360.1698, 7022.573
360.6519, 6978.300
361.1340, 6932.230
361.6161, 6865.239
362.0982, 6781.623
362.5804, 6699.099
363.0625, 6621.945
363.5446, 6549.000
364.0267, 6478.899
364.5088, 6405.667
364.9909, 6344.660
365.4731, 6305.895
365.9552, 6281.591
366.4373, 6252.835
366.9194, 6210.045
367.4015, 6168.260
367.8836, 6132.257
368.3658, 6101.483
368.8479, 6078.552
369.3300, 6073.565
369.8121, 6073.353
370.2942, 6057.982
370.7763, 6012.835
371.2585, 5971.322
371.7406, 5944.999
372.2227, 5938.218
372.7048, 5913.795
373.1869, 5856.923
373.6690, 5797.301
374.1512, 5769.243
374.6333, 5787.420
375.1154, 5798.108
375.5975, 5789.303
376.0796, 5762.777
376.5617, 5737.188
377.0439, 5713.993
377.5260, 5688.353
378.0081, 5651.760
378.4902, 5602.031
378.9723, 5570.017
379.4544, 5563.701
379.9366, 5574.997
380.4187, 5586.337
380.9008, 5598.146
381.3829, 5603.968
381.8650, 5593.976
382.3471, 5572.615
382.8293, 5561.421
383.3114, 5562.950
383.7935, 5573.800
384.2756, 5591.186
384.7577, 5614.440
385.2398, 5640.009
385.7219, 5667.495
386.2040, 5695.801
386.6862, 5720.085
387.1683, 5738.907
387.6504, 5765.762
388.1325, 5822.589
388.6146, 5895.807
389.0967, 5957.957
389.5789, 5984.106
390.0610, 6005.344
390.5431, 6048.788
391.0252, 6113.582
391.5073, 6178.127
391.9894, 6235.538
392.4716, 6285.638
392.9537, 6327.515
393.4358, 6347.843
393.9179, 6375.197
394.4000, 6428.839
394.8821, 6501.262
395.3643, 6562.387
395.8464, 6603.708
396.3285, 6630.926
396.8106, 6645.344
397.2927, 6637.972
397.7748, 6634.165
398.2570, 6634.649
398.7391, 6640.583
399.2212, 6654.681
399.7033, 6692.953
400.1854, 6722.929
400.6675, 6733.614
401.1497, 6719.750
401.6318, 6710.430
402.1139, 6710.772
402.5960, 6711.724
403.0781, 6702.060
403.5602, 6676.783
404.0424, 6652.611
404.5245, 6633.615
405.0066, 6619.289
405.4887, 6603.081
405.9708, 6585.727
406.4529, 6564.377
406.9351, 6533.309
407.4172, 6491.402
407.8993, 6457.897
408.3814, 6437.013
408.8635, 6424.250
409.3456, 6412.645
409.8278, 6402.216
410.3099, 6383.695
410.7920, 6344.014
411.2741, 6290.897
411.7562, 6250.808
412.2383, 6226.257
412.7205, 6212.181
413.2026, 6209.583
413.6847, 6213.300
414.1668, 6207.715
414.6489, 6178.503
415.1310, 6139.816
415.6132, 6108.443
416.0953, 6084.344
416.5774, 6059.451
417.0595, 6025.600
417.5416, 5988.058
418.0237, 5952.424
418.5059, 5917.280
418.9880, 5888.454
419.4701, 5874.954
419.9522, 5872.467
420.4343, 5863.959
420.9164, 5845.214
421.3986, 5817.249
421.8807, 5778.741
422.3628, 5721.376
422.8449, 5670.390
423.3270, 5631.606
423.8091, 5602.421
424.2913, 5577.506
424.7734, 5568.622
425.2555, 5552.388
425.7376, 5520.523
426.2197, 5469.416
426.7018, 5424.517
427.1840, 5383.881
427.6661, 5350.505
428.1482, 5328.901
428.6303, 5325.554
429.1124, 5316.865
429.5945, 5296.425
430.0767, 5267.706
430.5588, 5248.876
431.0409, 5243.343
431.5230, 5236.776
432.0051, 5215.756
432.4872, 5180.316
432.9694, 5157.695
433.4515, 5151.914
433.9336, 5155.188
434.4157, 5156.500
434.8978, 5155.834
435.3799, 5152.607
435.8621, 5137.448
436.3442, 5121.073
436.8263, 5132.173
437.3084, 5172.228
437.7905, 5216.040
438.2726, 5235.949
438.7548, 5244.521
439.2369, 5265.042
439.7190, 5318.730
440.2011, 5373.333
440.6832, 5399.618
441.1653, 5402.527
441.6474, 5403.231
442.1295, 5399.746
442.6117, 5406.062
443.0938, 5435.031
443.5759, 5499.134
444.0580, 5563.110
444.5401, 5623.023
445.0222, 5673.660
445.5044, 5705.336
445.9865, 5697.940
446.4686, 5689.003
446.9507, 5689.538
447.4328, 5701.130
447.9149, 5714.288
448.3971, 5731.464
448.8792, 5748.314
449.3613, 5761.651
449.8434, 5770.310
450.3255, 5777.349
450.8076, 5781.155
451.2898, 5783.672
451.7719, 5792.613
452.2540, 5808.419
452.7361, 5828.942
453.2182, 5856.827
453.7003, 5892.114
454.1825, 5916.155
454.6646, 5926.999
455.1467, 5929.611
455.6288, 5928.759
456.1109, 5924.906
456.5930, 5921.410
457.0752, 5919.485
457.5573, 5918.959
458.0394, 5921.535
458.5215, 5926.960
459.0036, 5928.636
459.4857, 5925.071
459.9679, 5913.442
460.4500, 5888.331
460.9321, 5842.945
461.4142, 5794.361
461.8963, 5756.899
462.3784, 5725.481
462.8606, 5687.638
463.3427, 5631.014
463.8248, 5571.110
464.3069, 5518.422
464.7890, 5474.803
465.2711, 5427.486
465.7533, 5372.091
466.2354, 5311.828
466.7175, 5250.434
467.1996, 5181.905
467.6817, 5119.942
468.1638, 5070.398
468.6460, 5030.460
469.1281, 4979.210
469.6102, 4910.557
470.0923, 4839.180
470.5744, 4770.937
471.0565, 4705.813
471.5387, 4645.604
472.0208, 4591.416
472.5029, 4540.583
472.9850, 4489.857
473.4671, 4439.762
473.9492, 4383.177
474.4314, 4312.941
474.9135, 4235.369
475.3956, 4174.613
475.8777, 4130.688
476.3598, 4090.929
476.8419, 4044.675
477.3241, 3994.677
477.8062, 3947.223
478.2883, 3903.829
478.7704, 3863.968
479.2525, 3825.486
479.7346, 3789.893
480.2168, 3761.750
480.6989, 3749.719
481.1810, 3740.748
481.6631, 3722.012
482.1452, 3691.248
482.6273, 3670.282
483.1095, 3674.446
483.5916, 3689.513
484.0737, 3702.527
484.5558, 3711.919
485.0379, 3717.883
485.5201, 3716.497
486.0022, 3710.637
486.4843, 3712.065
486.9664, 3720.874
487.4485, 3737.318
487.9306, 3765.385
488.4128, 3811.876
488.8949, 3837.013
489.3770, 3829.206
489.8591, 3816.760
490.3412, 3839.164
490.8233, 3902.138
491.3055, 3958.029
491.7876, 3993.490
492.2697, 4014.479
492.7518, 4035.899
493.2339, 4057.460
493.7160, 4086.848
494.1982, 4130.850
494.6803, 4186.499
495.1624, 4246.664
495.6445, 4312.313
496.1266, 4377.210
496.6087, 4441.551
497.0908, 4501.441
497.5729, 4550.845
498.0551, 4566.341
498.5372, 4586.762
499.0193, 4647.495
499.5014, 4743.126
499.9835, 4826.231
500.4656, 4864.428
500.9478, 4892.322
501.4299, 4932.708
501.9120, 4995.881
502.3941, 5058.842
502.8762, 5123.625
503.3583, 5184.818
503.8405, 5232.557
504.3226, 5251.953
504.8047, 5279.565
505.2868, 5327.927
505.7689, 5395.616
506.2510, 5451.167
506.7332, 5495.049
507.2153, 5524.754
507.6974, 5532.141
508.1795, 5516.182
508.6616, 5513.040
509.1437, 5529.871
509.6259, 5554.394
510.1080, 5569.543
510.5901, 5575.253
511.0722, 5570.583
511.5543, 5546.402
512.0364, 5515.126
512.5186, 5501.138
513.0007, 5503.303
513.4828, 5498.925
513.9649, 5458.608
514.4470, 5407.777
514.9291, 5378.188
515.4113, 5391.627
515.8934, 5399.128
516.3755, 5370.947
516.8576, 5321.209
517.3397, 5276.860
517.8218, 5252.523
518.3040, 5227.347
518.7861, 5192.411
519.2682, 5145.458
519.7503, 5105.823
520.2324, 5073.854
520.7145, 5048.627
521.1967, 5032.980
521.6788, 5037.496
522.1609, 5019.485
522.6430, 4966.178
523.1251, 4897.829
523.6072, 4861.665
524.0894, 4861.036
524.5715, 4858.728
525.0536, 4832.242
525.5357, 4792.318
526.0178, 4783.523
526.4999, 4806.720
526.9821, 4833.877
527.4642, 4836.418
527.9463, 4826.720
528.4284, 4828.820
528.9105, 4850.221
529.3926, 4877.942
529.8748, 4901.130
530.3569, 4922.647
530.8390, 4947.754
531.3211, 4977.151
531.8032, 5011.994
532.2853, 5053.502
532.7675, 5101.969
533.2496, 5154.581
533.7317, 5208.771
534.2138, 5268.773
534.6959, 5338.340
535.1780, 5420.960
535.6602, 5506.341
536.1423, 5593.590
536.6244, 5685.173
537.1065, 5787.521
537.5886, 5900.929
538.0707, 6022.937
538.5529, 6158.881
539.0350, 6303.783
539.5171, 6431.349
539.9992, 6540.506
540.4813, 6642.479
540.9634, 6742.535
541.4456, 6842.499
541.9277, 6945.811
542.4098, 7053.146
542.8919, 7161.677
543.3740, 7268.349
543.8561, 7371.876
544.3383, 7468.919
544.8204, 7534.603
545.3025, 7613.476
545.7846, 7743.339
546.2667, 7916.141
546.7488, 8080.735
547.2310, 8210.595
547.7131, 8331.854
548.1952, 8458.542
548.6773, 8590.707
549.1594, 8730.095
549.6415, 8883.960
550.1237, 9040.397
550.6058, 9184.838
551.0879, 9308.792
551.5700, 9438.314
552.0521, 9577.062
552.5342, 9724.907
553.0164, 9885.853
553.4985, 10062.17
553.9806, 10232.70
554.4627, 10383.83
554.9448, 10519.33
555.4269, 10650.11
555.9091, 10777.16
556.3912, 10901.62
556.8733, 11028.15
557.3554, 11151.31
557.8375, 11258.80
558.3196, 11336.71
558.8018, 11414.08
559.2839, 11519.38
559.7660, 11640.07
560.2481, 11747.90
560.7302, 11826.60
561.2123, 11895.35
561.6945, 11959.51
562.1766, 12017.56
562.6587, 12081.40
563.1408, 12149.20
563.6229, 12223.83
564.1050, 12313.76
564.5872, 12444.87
565.0693, 12522.22
565.5514, 12528.64
566.0335, 12493.40
566.5156, 12473.88
566.9977, 12472.69
567.4799, 12450.37
567.9620, 12393.01
568.4441, 12304.74
568.9262, 12206.35
569.4083, 12095.19
569.8904, 11941.91
570.3726, 11701.13
570.8547, 11414.38
571.3368, 11127.53
571.8189, 10849.14
572.3010, 10573.08
572.7831, 10300.62
573.2653, 10028.63
573.7474, 9758.303
574.2295, 9494.555
574.7116, 9223.320
575.1937, 8933.785
575.6758, 8629.539
576.1580, 8336.371
576.6401, 8052.816
577.1222, 7779.113
577.6042, 7514.863
578.0864, 7256.103
578.5685, 7012.508
579.0506, 6777.948
579.5327, 6570.289
580.0148, 6420.576
580.4969, 6325.471
580.9791, 6194.883
581.4612, 6007.579
581.9433, 5799.927
582.4254, 5631.612
582.9075, 5492.825
583.3896, 5354.610
583.8718, 5195.597
584.3539, 5037.374
584.8360, 4894.069
585.3181, 4766.851
585.8002, 4657.181
586.2823, 4579.447
586.7645, 4511.042
587.2466, 4439.016
587.7287, 4361.992
588.2108, 4280.668
588.6929, 4175.502
589.1750, 4076.826
589.6572, 4018.047
590.1393, 4024.947
590.6214, 4015.591
591.1035, 3975.383
591.5856, 3914.570
592.0677, 3857.281
592.5499, 3802.426
593.0320, 3761.545
593.5141, 3744.434
593.9962, 3745.495
594.4783, 3744.721
594.9604, 3742.181
595.4426, 3746.330
595.9247, 3768.801
596.4068, 3800.377
596.8889, 3828.139
597.3710, 3848.572
597.8531, 3868.695
598.3353, 3890.015
598.8174, 3914.566
599.2995, 3945.256
599.7816, 3979.141
600.2637, 4022.805
600.7458, 4085.321
601.2280, 4161.476
601.7101, 4223.563
602.1922, 4261.253
602.6743, 4301.402
603.1564, 4354.810
603.6385, 4422.371
604.1207, 4491.465
604.6028, 4562.633
605.0849, 4634.791
605.5670, 4709.123
606.0491, 4783.772
606.5313, 4848.606
607.0134, 4900.613
607.4955, 4948.502
607.9776, 5007.941
608.4597, 5070.863
608.9418, 5121.721
609.4240, 5147.738
609.9061, 5164.418
610.3882, 5180.572
610.8703, 5195.333
611.3524, 5203.104
611.8345, 5200.757
612.3167, 5192.714
612.7988, 5181.082
613.2809, 5166.378
613.7630, 5145.571
614.2451, 5115.676
614.7272, 5083.698
615.2094, 5059.443
615.6915, 5045.976
616.1736, 5013.992
616.6557, 4956.094
617.1378, 4887.480
617.6199, 4833.191
618.1021, 4790.598
618.5842, 4746.204
619.0663, 4693.836
619.5484, 4637.736
620.0305, 4580.687
620.5126, 4523.337
620.9948, 4467.567
621.4769, 4404.089
621.9590, 4351.017
622.4411, 4328.309
622.9232, 4345.022
623.4053, 4340.327
623.8875, 4289.034
624.3696, 4220.858
624.8517, 4155.775
625.3338, 4090.157
625.8159, 4038.089
626.2980, 4004.180
626.7802, 3979.695
627.2623, 3947.836
627.7444, 3907.727
628.2265, 3878.529
628.7086, 3871.033
629.1907, 3873.319
629.6729, 3860.430
630.1550, 3834.071
630.6371, 3803.732
631.1192, 3767.635
631.6013, 3735.442
632.0834, 3720.155
632.5656, 3722.711
633.0477, 3723.427
633.5298, 3708.477
634.0119, 3691.342
634.4940, 3683.133
634.9761, 3699.309
635.4583, 3698.461
635.9404, 3666.335
636.4225, 3625.194
636.9046, 3603.650
637.3867, 3607.192
637.8688, 3611.862
638.3510, 3613.669
638.8331, 3613.252
639.3152, 3609.557
639.7973, 3603.159
640.2794, 3603.203
640.7615, 3625.552
641.2437, 3652.574
641.7258, 3648.159
642.2079, 3615.887
642.6900, 3595.362
643.1721, 3628.953
643.6542, 3673.677
644.1364, 3690.489
644.6185, 3660.801
645.1006, 3647.972
645.5827, 3680.657
646.0648, 3729.398
646.5469, 3764.902
647.0291, 3778.139
647.5112, 3796.228
647.9933, 3823.197
648.4754, 3854.272
648.9575, 3878.064
649.4396, 3894.313
649.9218, 3910.576
650.4039, 3927.277
650.8860, 3947.289
651.3681, 3984.714
651.8502, 4035.260
652.3323, 4071.311
652.8145, 4060.746
653.2966, 4037.395
653.7787, 4030.074
654.2608, 4041.364
654.7429, 4064.850
655.2250, 4106.147
655.7072, 4153.411
656.1893, 4198.430
656.6714, 4242.618
657.1535, 4278.906
657.6356, 4302.888
658.1177, 4322.730
658.5999, 4348.043
659.0820, 4379.379
659.5641, 4413.847
660.0462, 4453.488
660.5283, 4492.427
661.0104, 4517.316
661.4926, 4530.510
661.9747, 4544.996
662.4568, 4563.138
662.9389, 4588.541
663.4210, 4634.631
663.9031, 4695.751
664.3853, 4740.942
664.8674, 4728.604
665.3495, 4715.971
665.8316, 4742.387
666.3137, 4823.181
666.7958, 4880.478
667.2780, 4892.338
667.7601, 4895.956
668.2422, 4920.053
668.7243, 4974.651
669.2064, 5004.458
669.6885, 4998.451
670.1707, 4984.456
670.6528, 5004.972
671.1349, 5054.476
671.6170, 5098.731
672.0991, 5127.311
672.5812, 5148.290
673.0634, 5169.235
673.5455, 5190.513
674.0276, 5212.810
674.5097, 5242.328
674.9918, 5267.650
675.4739, 5275.498
675.9561, 5269.373
676.4382, 5282.570
676.9203, 5340.508
677.4024, 5396.577
677.8845, 5432.289
678.3666, 5445.027
678.8488, 5466.803
679.3309, 5501.771
679.8130, 5533.405
680.2951, 5544.491
680.7772, 5539.071
681.2593, 5541.661
681.7415, 5555.260
682.2236, 5573.279
682.7057, 5589.808
683.1878, 5606.097
683.6699, 5624.630
684.1520, 5647.349
684.6342, 5670.897
685.1163, 5700.335
685.5984, 5728.810
686.0805, 5744.246
686.5626, 5723.409
687.0447, 5715.401
687.5268, 5734.738
688.0089, 5772.682
688.4910, 5791.635
688.9731, 5787.515
689.4553, 5782.162
689.9374, 5781.655
690.4195, 5787.863
690.9016, 5816.257
691.3837, 5865.097
691.8658, 5903.969
692.3480, 5903.406
692.8301, 5884.629
693.3122, 5869.894
693.7943, 5861.309
694.2764, 5860.345
694.7585, 5869.008
695.2407, 5884.779
695.7228, 5906.677
696.2049, 5951.939
696.6870, 5972.686
697.1691, 5956.167
697.6512, 5927.361
698.1334, 5917.477
698.6155, 5928.112
699.0976, 5947.093
699.5797, 5975.128
700.0618, 6005.809
700.5439, 6031.771
701.0261, 6051.604
701.5082, 6059.751
701.9903, 6042.497
702.4724, 6021.853
702.9545, 6018.169
703.4366, 6027.078
703.9188, 6033.630
704.4009, 6032.916
704.8830, 6028.268
705.3651, 6019.118
705.8472, 6005.505
706.3293, 5996.613
706.8115, 5997.063
707.2936, 5994.001
707.7757, 5977.847
708.2578, 5948.736
708.7399, 5930.220
709.2220, 5924.923
709.7042, 5910.186
710.1863, 5855.209
710.6684, 5778.158
711.1505, 5714.125
711.6326, 5670.059
712.1147, 5631.711
712.5969, 5611.356
713.0790, 5582.835
713.5611, 5517.005
714.0432, 5368.500
714.5253, 5232.229
715.0074, 5118.468
715.4896, 5018.965
715.9717, 4921.556
716.4538, 4831.780
716.9359, 4723.932
717.4180, 4584.425
717.9001, 4431.366
718.3823, 4305.510
718.8644, 4204.820
719.3465, 4112.804
719.8286, 4022.439
720.3107, 3936.984
720.7928, 3865.471
721.2750, 3804.795
721.7571, 3738.857
722.2392, 3651.171
722.7213, 3566.558
723.2034, 3498.565
723.6855, 3448.933
724.1677, 3402.303
724.6498, 3356.380
725.1319, 3317.679
725.6140, 3291.975
726.0961, 3280.134
726.5782, 3262.962
727.0604, 3239.483
727.5425, 3216.555
728.0246, 3202.109
728.5067, 3192.549
728.9888, 3177.647
729.4709, 3152.652
729.9531, 3139.225
730.4352, 3166.918
730.9173, 3206.157
731.3994, 3225.696
731.8815, 3187.996
732.3636, 3173.229
732.8458, 3195.281
733.3279, 3236.912
733.8100, 3275.882
734.2921, 3313.962
734.7742, 3340.372
735.2563, 3349.569
735.7385, 3351.378
736.2206, 3366.250
736.7027, 3391.403
737.1848, 3412.957
737.6669, 3414.053
738.1490, 3419.713
738.6312, 3462.635
739.1133, 3530.174
739.5954, 3582.751
740.0775, 3590.779
740.5596, 3597.152
741.0417, 3616.829
741.5239, 3648.691
742.0060, 3688.650
742.4881, 3746.196
742.9702, 3788.892
743.4523, 3792.329
743.9344, 3764.401
744.4166, 3761.936
744.8987, 3785.101
745.3808, 3810.511
745.8629, 3821.408
746.3450, 3823.528
746.8271, 3826.836
747.3093, 3832.935
747.7914, 3825.272
748.2735, 3775.550
748.7556, 3723.381
749.2377, 3702.654
749.7198, 3742.013
750.2020, 3739.862
750.6841, 3674.391
751.1662, 3598.021
751.6483, 3569.029
752.1304, 3588.409
752.6125, 3577.492
753.0947, 3522.704
753.5768, 3457.792
754.0589, 3421.040
754.5410, 3404.148
755.0231, 3392.674
755.5052, 3384.573
755.9874, 3376.401
756.4695, 3369.969
756.9516, 3361.168
757.4337, 3343.692
757.9158, 3313.410
758.3979, 3278.333
758.8801, 3235.959
759.3622, 3191.830
759.8443, 3157.167
760.3264, 3132.807
760.8085, 3111.915
761.2906, 3092.836
761.7728, 3075.860
762.2549, 3062.122
762.7370, 3050.911
763.2191, 3039.504
763.7012, 3029.309
764.1833, 3015.900
764.6655, 2994.135
765.1476, 2965.899
765.6297, 2940.709
766.1118, 2916.082
766.5939, 2899.489
767.0760, 2898.318
767.5582, 2908.953
768.0403, 2896.628
768.5224, 2858.487
769.0045, 2818.795
769.4866, 2788.594
769.9688, 2768.089
770.4509, 2765.426
770.9330, 2778.079
771.4151, 2779.300
771.8972, 2738.072
772.3793, 2689.120
772.8615, 2659.733
773.3436, 2654.447
773.8257, 2645.230
774.3078, 2629.653
774.7899, 2607.580
775.2720, 2574.771
775.7542, 2528.009
776.2363, 2501.669
776.7184, 2497.562
777.2005, 2505.306
777.6826, 2526.043
778.1647, 2550.098
778.6469, 2548.835
779.1290, 2516.486
779.6111, 2487.303
780.0932, 2486.465
780.5753, 2499.420
781.0574, 2513.772
781.5396, 2531.822
782.0217, 2540.759
782.5038, 2537.706
782.9859, 2527.330
783.4680, 2510.803
783.9501, 2485.433
784.4323, 2476.055
784.9144, 2489.101
785.3965, 2504.224
785.8786, 2490.111
786.3607, 2458.539
786.8428, 2437.875
787.3250, 2437.239
787.8071, 2443.432
788.2892, 2456.137
788.7713, 2467.514
789.2534, 2467.658
789.7355, 2434.593
790.2177, 2417.857
790.6998, 2430.332
791.1819, 2452.474
791.6640, 2452.636
792.1461, 2428.875
792.6282, 2406.039
793.1104, 2388.356
793.5925, 2375.331
794.0746, 2366.324
794.5567, 2361.244
795.0388, 2359.826
795.5209, 2371.562
796.0031, 2375.348
796.4852, 2353.689
796.9672, 2317.617
797.4493, 2290.128
797.9315, 2278.085
798.4136, 2268.186
798.8957, 2259.424
799.3778, 2250.938
799.8599, 2239.877
800.3420, 2226.327
800.8242, 2215.672
801.3063, 2211.406
801.7884, 2209.233
802.2705, 2203.532
802.7526, 2194.961
803.2347, 2185.139
803.7169, 2168.204
804.1990, 2157.043
804.6811, 2165.728
805.1632, 2186.058
805.6453, 2183.940
806.1274, 2144.768
806.6096, 2114.343
807.0917, 2109.499
807.5738, 2119.971
808.0559, 2106.623
808.5380, 2072.268
809.0201, 2048.356
809.5023, 2061.445
809.9844, 2085.747
810.4665, 2093.928
810.9486, 2089.499
811.4307, 2085.546
811.9128, 2091.737
812.3950, 2094.120
812.8771, 2082.636
813.3592, 2061.499
813.8413, 2057.779
814.3234, 2077.290
814.8055, 2092.578
815.2877, 2087.281
815.7698, 2071.360
816.2519, 2081.011
816.7340, 2111.296
817.2161, 2131.491
817.6982, 2112.317
818.1804, 2084.641
818.6625, 2069.830
819.1446, 2067.718
819.6267, 2071.207
820.1088, 2085.995
820.5909, 2098.168
821.0731, 2102.494
821.5552, 2100.134
822.0373, 2100.906
822.5194, 2104.959
823.0015, 2110.757
823.4836, 2119.416
823.9658, 2128.493
824.4479, 2129.835
824.9300, 2125.597
825.4121, 2128.700
825.8942, 2155.040
826.3763, 2182.320
826.8585, 2199.305
827.3406, 2205.017
827.8227, 2206.292
828.3048, 2200.763
828.7869, 2195.227
829.2690, 2191.016
829.7512, 2189.228
830.2333, 2200.252
830.7154, 2223.176
831.1975, 2239.541
831.6796, 2230.433
832.1617, 2213.915
832.6439, 2209.088
833.1260, 2215.205
833.6081, 2221.792
834.0902, 2218.169
834.5723, 2222.106
835.0544, 2244.254
835.5366, 2282.283
836.0187, 2305.476
836.5008, 2310.245
836.9829, 2317.735
837.4650, 2343.072
837.9471, 2377.819
838.4293, 2402.939
838.9114, 2418.700
839.3935, 2427.750
839.8756, 2420.557
840.3577, 2416.855
840.8398, 2430.843
841.3220, 2461.839
841.8041, 2492.371
842.2862, 2519.320
842.7683, 2548.597
843.2504, 2584.294
843.7325, 2624.101
844.2147, 2652.513
844.6968, 2669.772
845.1789, 2691.127
845.6610, 2731.084
846.1431, 2776.054
846.6252, 2803.911
847.1074, 2820.323
847.5895, 2853.389
848.0716, 2936.032
848.5537, 3013.197
849.0358, 3057.698
849.5179, 3077.980
850.0001, 3124.619
850.4822, 3203.628
850.9643, 3281.071
851.4464, 3341.896
851.9285, 3392.421
852.4106, 3439.001
852.8928, 3485.433
853.3749, 3545.596
853.8570, 3639.249
854.3391, 3737.430
854.8212, 3822.132
855.3033, 3896.531
855.7855, 3973.343
856.2676, 4049.091
856.7497, 4134.625
857.2318, 4235.654
857.7139, 4346.275
858.1960, 4451.871
858.6782, 4553.620
859.1603, 4654.672
859.6424, 4757.904
860.1245, 4862.426
860.6066, 4972.757
861.0887, 5083.242
861.5709, 5177.090
862.0530, 5230.037
862.5351, 5289.984
863.0172, 5371.947
863.4993, 5465.834
863.9814, 5550.320
864.4636, 5622.932
864.9457, 5704.861
865.4278, 5806.588
865.9099, 5911.085
866.3920, 5991.739
866.8741, 6052.107
867.3563, 6103.005
867.8384, 6142.402
868.3205, 6179.815
868.8026, 6222.523
869.2847, 6263.980
869.7668, 6292.362
870.2490, 6299.766
870.7311, 6315.736
871.2132, 6346.999
871.6953, 6382.959
872.1774, 6409.269
872.6595, 6425.396
873.1417, 6427.553
873.6238, 6409.396
874.1059, 6390.503
874.5880, 6386.827
875.0701, 6390.372
875.5522, 6391.328
876.0344, 6384.707
876.5165, 6379.420
876.9986, 6373.986
877.4807, 6371.912
877.9628, 6379.839
878.4449, 6396.707
878.9271, 6409.862
879.4092, 6418.237
879.8913, 6419.817
880.3734, 6405.697
880.8555, 6387.037
881.3376, 6376.545
881.8198, 6376.199
882.3019, 6386.081
882.7840, 6416.450
883.2661, 6447.563
883.7482, 6462.842
884.2303, 6458.460
884.7125, 6469.484
885.1946, 6496.897
885.6767, 6536.619
886.1588, 6589.960
886.6409, 6650.556
887.1230, 6710.922
887.6052, 6770.396
888.0873, 6825.501
888.5694, 6866.632
889.0515, 6910.150
889.5336, 6966.403
890.0157, 7035.322
890.4979, 7107.069
890.9800, 7180.688
891.4621, 7257.999
891.9442, 7346.621
892.4263, 7437.370
892.9084, 7503.958
893.3906, 7549.989
893.8727, 7604.956
894.3548, 7704.930
894.8369, 7800.562
895.3190, 7854.874
895.8011, 7873.143
896.2833, 7916.558
896.7654, 7995.952
897.2475, 8074.785
897.7296, 8142.197
898.2117, 8197.624
898.6938, 8224.718
899.1760, 8232.493
899.6581, 8259.584
900.1402, 8351.751
900.6223, 8444.570
901.1044, 8488.497
901.5865, 8502.561
902.0687, 8533.642
902.5508, 8602.312
903.0329, 8657.114
903.5150, 8684.967
903.9971, 8701.187
904.4792, 8732.040
904.9614, 8776.671
905.4435, 8833.913
905.9256, 8911.423
906.4077, 8979.997
906.8898, 9003.671
907.3719, 9008.066
907.8540, 9027.509
908.3361, 9083.096
908.8182, 9134.253
909.3004, 9178.352
909.7825, 9219.496
910.2646, 9261.802
910.7467, 9305.011
911.2288, 9347.452
911.7109, 9388.491
912.1931, 9431.733
912.6752, 9482.844
913.1573, 9536.926
913.6394, 9587.341
914.1215, 9630.998
914.6036, 9684.064
915.0858, 9765.979
915.5679, 9837.221
916.0500, 9865.700
916.5321, 9853.716
917.0142, 9897.819
917.4963, 9998.949
917.9785, 10092.29
918.4606, 10121.21
918.9427, 10125.57
919.4248, 10142.48
919.9069, 10173.71
920.3890, 10218.38
920.8712, 10302.53
921.3533, 10369.01
921.8354, 10397.07
922.3175, 10394.49
922.7996, 10394.87
923.2817, 10397.96
923.7639, 10394.42
924.2460, 10369.07
924.7281, 10349.32
925.2102, 10393.08
925.6923, 10465.23
926.1744, 10491.51
926.6566, 10382.89
927.1387, 10308.94
927.6208, 10322.47
928.1029, 10369.44
928.5850, 10369.49
929.0671, 10320.95
929.5493, 10263.42
930.0314, 10202.21
930.5135, 10137.41
930.9956, 10066.16
931.4777, 9993.894
931.9598, 9932.699
932.4420, 9893.166
932.9241, 9837.781
933.4062, 9741.021
933.8883, 9639.860
934.3704, 9558.453
934.8525, 9499.392
935.3347, 9435.306
935.8168, 9366.234
936.2989, 9293.390
936.7810, 9205.845
937.2631, 9122.849
937.7452, 9078.368
938.2274, 9070.970
938.7095, 9050.337
939.1916, 8987.338
939.6737, 8923.249
940.1558, 8876.706
940.6379, 8841.473
941.1201, 8779.640
941.6022, 8690.976
942.0843, 8602.093
942.5664, 8518.025
943.0485, 8448.650
943.5306, 8414.207
944.0128, 8404.373
944.4949, 8396.402
944.9770, 8401.637
945.4591, 8381.699
945.9412, 8312.867
946.4233, 8232.519
946.9055, 8207.002
947.3876, 8235.205
947.8697, 8234.309
948.3518, 8188.158
948.8339, 8122.887
949.3160, 8048.104
949.7982, 7979.343
950.2803, 7937.511
950.7624, 7936.288
951.2445, 7929.860
951.7266, 7913.039
952.2087, 7888.305
952.6909, 7858.023
953.1730, 7821.983
953.6551, 7767.146
954.1372, 7694.287
954.6193, 7630.551
955.1014, 7607.715
955.5836, 7594.384
956.0657, 7560.910
956.5478, 7509.011
957.0299, 7462.226
957.5120, 7428.238
957.9941, 7395.093
958.4763, 7363.100
958.9584, 7327.885
959.4405, 7270.096
959.9226, 7194.541
960.4047, 7134.864
960.8868, 7113.209
961.3690, 7095.322
961.8511, 7049.652
962.3332, 6991.798
962.8153, 6944.246
963.2974, 6908.954
963.7795, 6889.568
964.2617, 6895.979
964.7438, 6900.008
965.2259, 6861.803
965.7080, 6793.687
966.1901, 6748.604
966.6722, 6733.607
967.1544, 6708.660
967.6365, 6625.184
968.1186, 6537.566
968.6007, 6491.644
969.0828, 6491.783
969.5649, 6485.219
970.0471, 6467.021
970.5292, 6457.271
971.0113, 6471.151
971.4934, 6497.113
971.9755, 6508.375
972.4576, 6506.321
972.9398, 6497.038
973.4219, 6475.782
973.9040, 6456.209
974.3861, 6445.830
974.8682, 6440.337
975.3503, 6430.893
975.8325, 6416.009
976.3146, 6403.551
976.7967, 6395.698
977.2788, 6386.595
977.7609, 6361.861
978.2430, 6332.681
978.7252, 6320.438
979.2073, 6333.094
979.6894, 6344.820
980.1715, 6347.733
980.6536, 6345.590
981.1357, 6342.006
981.6179, 6337.296
982.1000, 6317.725
982.5821, 6282.677
983.0642, 6244.763
983.5463, 6206.018
984.0284, 6174.081
984.5106, 6162.728
984.9927, 6167.174
985.4748, 6167.239
985.9569, 6158.815
986.4390, 6142.557
986.9211, 6114.673
987.4033, 6082.417
987.8854, 6060.738
988.3675, 6048.533
988.8496, 6037.999
989.3317, 6027.353
989.8138, 6017.307
990.2960, 6008.252
990.7781, 6000.202
991.2602, 5993.535
991.7423, 5988.876
992.2244, 5983.017
992.7065, 5973.906
993.1887, 5968.382
993.6708, 5973.818
994.1529, 5986.874
994.6350, 5998.180
995.1171, 6007.208
995.5992, 6011.509
996.0814, 6007.310
996.5635, 6000.237
997.0456, 5991.521
997.5277, 5982.111
998.0098, 5975.199
998.4919, 5970.771
998.9741, 5968.038
999.4562, 5966.167
999.9383, 5967.178
1000.420, 5982.933
1000.903, 6001.292
1001.385, 5998.258
1001.867, 5953.113
1002.349, 5919.590
1002.831, 5918.894
1003.313, 5926.225
1003.795, 5925.441
1004.277, 5916.502
1004.759, 5898.981
1005.242, 5872.542
1005.724, 5853.304
1006.206, 5863.940
1006.688, 5877.890
1007.170, 5866.971
1007.652, 5834.797
1008.134, 5814.251
1008.616, 5808.325
1009.099, 5814.739
1009.581, 5837.026
1010.063, 5866.354
1010.545, 5889.735
1011.027, 5905.393
1011.509, 5903.531
1011.991, 5872.438
1012.473, 5847.743
1012.955, 5850.105
1013.438, 5868.367
1013.920, 5893.183
1014.402, 5928.188
1014.884, 5948.557
1015.366, 5951.943
1015.848, 5955.223
1016.330, 5975.145
1016.812, 6001.225
1017.294, 6012.020
1017.777, 6011.695
1018.259, 6024.191
1018.741, 6077.006
1019.223, 6119.755
1019.705, 6132.084
1020.187, 6131.672
1020.669, 6164.570
1021.151, 6226.667
1021.633, 6272.439
1022.116, 6285.841
1022.598, 6297.355
1023.080, 6341.525
1023.562, 6393.386
1024.044, 6424.727
1024.526, 6423.131
1025.008, 6428.461
1025.490, 6441.199
1025.973, 6459.213
1026.455, 6483.325
1026.937, 6511.110
1027.419, 6540.576
1027.901, 6569.407
1028.383, 6585.038
1028.865, 6555.740
1029.347, 6543.051
1029.829, 6590.173
1030.312, 6659.575
1030.794, 6682.099
1031.276, 6654.929
1031.758, 6629.856
1032.240, 6615.336
1032.722, 6610.076
1033.204, 6612.134
1033.686, 6623.218
1034.169, 6651.551
1034.651, 6706.364
1035.133, 6729.164
1035.615, 6703.267
1036.097, 6669.903
1036.579, 6644.337
1037.061, 6628.231
1037.543, 6636.007
1038.026, 6661.310
1038.508, 6676.516
1038.990, 6649.001
1039.472, 6630.063
1039.954, 6656.570
1040.436, 6699.390
1040.918, 6712.342
1041.400, 6688.944
1041.882, 6677.263
1042.365, 6683.519
1042.847, 6691.126
1043.329, 6679.424
1043.811, 6661.998
1044.293, 6655.991
1044.775, 6663.149
1045.257, 6670.035
1045.739, 6665.458
1046.221, 6674.954
1046.704, 6713.826
1047.186, 6767.714
1047.668, 6794.709
1048.150, 6800.362
1048.632, 6806.647
1049.114, 6820.143
1049.596, 6839.128
1050.078, 6865.088
1050.561, 6894.868
1051.043, 6921.666
1051.525, 6938.120
1052.007, 6987.563
1052.489, 7073.389
1052.971, 7167.873
1053.453, 7253.083
1053.935, 7331.550
1054.417, 7402.523
1054.900, 7467.652
1055.382, 7535.722
1055.864, 7594.720
1056.346, 7679.512
1056.828, 7808.112
1057.310, 7951.751
1057.792, 8048.983
1058.274, 8115.738
1058.756, 8217.438
1059.239, 8374.502
1059.721, 8537.187
1060.203, 8692.013
1060.685, 8827.995
1061.167, 8928.394
1061.649, 8992.271
1062.131, 9104.735
1062.613, 9270.813
1063.096, 9423.255
1063.578, 9514.987
1064.060, 9583.695
1064.542, 9683.105
1065.024, 9792.275
1065.506, 9863.999
1065.988, 9845.454
1066.470, 9856.969
1066.953, 9916.648
1067.435, 9984.962
1067.917, 10010.51
1068.399, 10008.65
1068.881, 10026.69
1069.363, 10067.70
1069.845, 10108.73
1070.327, 10137.34
1070.809, 10162.15
1071.292, 10187.67
1071.774, 10212.25
1072.256, 10228.67
1072.738, 10236.67
1073.220, 10253.16
1073.702, 10290.07
1074.184, 10317.02
1074.666, 10294.81
1075.148, 10250.34
1075.630, 10216.05
1076.113, 10203.13
1076.595, 10179.80
1077.077, 10147.80
1077.559, 10101.62
1078.041, 10038.99
1078.523, 9960.064
1079.005, 9851.795
1079.487, 9724.798
1079.970, 9614.098
1080.452, 9560.057
1080.934, 9488.675
1081.416, 9382.480
1081.898, 9255.772
1082.380, 9127.069
1082.862, 8995.962
1083.344, 8859.185
1083.827, 8717.730
1084.309, 8574.857
1084.791, 8425.225
1085.273, 8283.976
1085.755, 8171.045
1086.237, 8079.707
1086.719, 7960.541
1087.201, 7807.982
1087.683, 7670.171
1088.166, 7567.984
1088.648, 7480.583
1089.130, 7386.798
1089.612, 7288.942
1090.094, 7189.374
1090.576, 7085.584
1091.058, 6989.356
1091.540, 6903.296
1092.022, 6822.234
1092.505, 6746.997
1092.987, 6673.291
1093.469, 6585.262
1093.951, 6486.253
1094.433, 6386.719
1094.915, 6298.314
1095.397, 6203.192
1095.879, 6093.803
1096.362, 5976.805
1096.844, 5855.792
1097.326, 5732.381
1097.808, 5628.442
1098.290, 5546.485
1098.772, 5458.251
1099.254, 5324.954
1099.736, 5190.745
1100.219, 5085.746
1100.701, 5009.483
1101.183, 4953.370
1101.665, 4928.474
1102.147, 4858.150
1102.629, 4708.782
1103.111, 4546.374
1103.593, 4457.351
1104.075, 4410.460
1104.557, 4364.611
1105.040, 4317.021
1105.522, 4248.504
1106.004, 4143.839
1106.486, 4047.917
1106.968, 3987.996
1107.450, 3950.097
1107.932, 3892.396
1108.414, 3821.361
1108.897, 3755.485
1109.379, 3708.168
1109.861, 3661.280
1110.343, 3612.958
1110.825, 3560.785
1111.307, 3497.365
1111.789, 3424.735
1112.271, 3370.010
1112.754, 3333.812
1113.236, 3297.968
1113.718, 3241.500
1114.200, 3188.868
1114.682, 3162.872
1115.164, 3151.814
1115.646, 3121.874
1116.128, 3070.611
1116.610, 3016.574
1117.093, 2959.930
1117.575, 2912.885
1118.057, 2893.875
1118.539, 2886.580
1119.021, 2876.153
1119.503, 2860.966
1119.985, 2834.840
1120.467, 2793.995
1120.949, 2752.996
1121.432, 2715.263
1121.914, 2682.709
1122.396, 2664.437
1122.878, 2652.529
1123.360, 2630.246
1123.842, 2583.987
1124.324, 2550.281
1124.806, 2542.040
1125.289, 2534.403
1125.771, 2507.198
1126.253, 2467.140
1126.735, 2445.519
1127.217, 2439.013
1127.699, 2432.460
1128.181, 2417.075
1128.663, 2401.921
1129.146, 2395.693
1129.628, 2386.970
1130.110, 2358.505
1130.592, 2311.306
1131.074, 2277.666
1131.556, 2259.888
1132.038, 2245.851
1132.520, 2236.054
1133.002, 2218.609
1133.484, 2176.303
1133.967, 2120.130
1134.449, 2087.327
1134.931, 2080.377
1135.413, 2075.411
1135.895, 2069.206
1136.377, 2058.049
1136.859, 2033.464
1137.341, 2004.789
1137.824, 1981.783
1138.306, 1965.768
1138.788, 1952.128
1139.270, 1942.957
1139.752, 1927.585
1140.234, 1899.940
1140.716, 1867.934
1141.198, 1840.580
1141.681, 1819.216
1142.163, 1809.425
1142.645, 1825.309
1143.127, 1814.192
1143.609, 1759.902
1144.091, 1706.163
1144.573, 1684.039
1145.055, 1680.340
1145.537, 1657.662
1146.020, 1622.092
1146.502, 1593.719
1146.984, 1586.193
1147.466, 1578.590
1147.948, 1565.781
1148.430, 1553.346
1148.912, 1549.780
1149.394, 1551.945
1149.876, 1539.151
1150.359, 1512.755
1150.841, 1490.634
1151.323, 1489.682
1151.805, 1487.433
1152.287, 1474.888
1152.769, 1455.257
1153.251, 1431.713
1153.733, 1404.581
1154.216, 1377.467
1154.698, 1350.153
1155.180, 1333.302
1155.662, 1344.616
1156.144, 1360.224
1156.626, 1364.738
1157.108, 1359.755
1157.590, 1348.584
1158.073, 1330.808
1158.555, 1319.752
1159.037, 1320.699
1159.519, 1321.704
1160.001, 1313.411
1160.483, 1298.203
1160.965, 1273.212
1161.447, 1238.058
1161.929, 1227.548
1162.411, 1245.725
1162.894, 1258.385
1163.376, 1250.028
1163.858, 1231.615
1164.340, 1210.637
1164.822, 1190.772
1165.304, 1176.664
1165.786, 1168.980
1166.268, 1168.706
1166.751, 1177.734
1167.233, 1186.902
1167.715, 1187.014
1168.197, 1186.252
1168.679, 1207.927
1169.161, 1237.542
1169.643, 1241.930
1170.125, 1176.962
1170.608, 1146.978
1171.090, 1164.809
1171.572, 1191.135
1172.054, 1186.287
1172.536, 1165.824
1173.018, 1161.700
1173.500, 1170.753
1173.982, 1173.785
1174.464, 1156.884
1174.947, 1144.024
1175.429, 1139.022
1175.911, 1138.000
1176.393, 1137.171
1176.875, 1136.155
1177.357, 1133.931
1177.839, 1130.473
1178.321, 1126.620
1178.803, 1125.683
1179.286, 1119.699
1179.768, 1103.921
1180.250, 1085.721
1180.732, 1078.561
1181.214, 1080.424
1181.696, 1086.740
1182.178, 1097.381
1182.660, 1104.285
1183.142, 1100.539
1183.625, 1095.979
1184.107, 1095.617
1184.589, 1096.457
1185.071, 1087.699
1185.553, 1071.967
1186.035, 1060.850
1186.517, 1059.525
1186.999, 1055.527
1187.482, 1034.595
1187.964, 1018.088
1188.446, 1020.951
1188.928, 1038.583
1189.410, 1041.438
1189.892, 1033.150
1190.374, 1035.638
1190.856, 1068.044
1191.339, 1092.185
1191.821, 1081.400
1192.303, 1060.824
1192.785, 1049.713
1193.267, 1047.574
1193.749, 1044.708
1194.231, 1040.917
1194.713, 1034.343
1195.195, 1018.136
1195.677, 1005.846
1196.160, 1003.967
1196.642, 1010.045
1197.124, 1025.846
1197.606, 1051.889
1198.088, 1052.205
1198.570, 1027.808
1199.052, 1006.029
1199.534, 1005.972
1200.017, 1011.753
1200.499, 1016.362
1200.981, 1020.315
1201.463, 1026.865
1201.945, 1036.383
1202.427, 1027.682
1202.909, 999.4626
1203.391, 978.4082
1203.874, 995.9079
1204.356, 1015.018
1204.838, 1007.815
1205.320, 986.6653
1205.802, 977.0102
1206.284, 978.9950
1206.766, 990.0715
1207.248, 1010.993
1207.730, 1024.793
1208.213, 1013.344
1208.695, 994.6826
1209.177, 977.6172
1209.659, 964.0239
1210.141, 958.4882
1210.623, 961.0607
1211.105, 971.1296
1211.587, 990.2852
1212.069, 1004.101
1212.552, 996.5353
1213.034, 982.0602
1213.516, 966.1885
1213.998, 952.5568
1214.480, 962.5598
1214.962, 995.9933
1215.444, 1012.627
1215.926, 998.5250
1216.409, 979.6940
1216.891, 976.4847
1217.373, 977.9562
1217.855, 974.1275
1218.337, 966.0432
1218.819, 965.3798
1219.301, 971.9657
1219.783, 978.8036
1220.266, 984.8571
1220.748, 987.0926
1221.230, 975.9849
1221.712, 965.9011
1222.194, 972.8094
1222.676, 995.2607
1223.158, 999.1258
1223.640, 985.4014
1224.122, 974.9166
1224.604, 976.8224
1225.087, 983.7319
1225.569, 999.4030
1226.051, 1010.496
1226.533, 1001.626
1227.015, 972.8275
1227.497, 958.5203
1227.979, 958.0436
1228.461, 962.1584
1228.944, 968.9783
1229.426, 975.1326
1229.908, 977.0020
1230.390, 978.4958
1230.872, 985.5242
1231.354, 998.4953
1231.836, 996.2043
1232.318, 979.8989
1232.801, 965.0897
1233.283, 962.2874
1233.765, 960.9789
1234.247, 955.9060
1234.729, 949.5466
1235.211, 943.1085
1235.693, 936.7577
1236.175, 941.6542
1236.657, 956.3013
1237.140, 965.1954
1237.622, 950.6302
1238.104, 938.7031
1238.586, 943.6021
1239.068, 954.4437
1239.550, 959.4561
1240.032, 959.6294
1240.514, 965.3587
1240.996, 976.2017
1241.479, 983.4199
1241.961, 982.7920
1242.443, 976.0428
1242.925, 956.1576
1243.407, 938.6007
1243.889, 947.5820
1244.371, 977.1951
1244.853, 997.2651
1245.336, 1006.414
1245.818, 1009.908
1246.300, 1009.212
1246.782, 1003.758
1247.264, 991.6351
1247.746, 977.9653
1248.228, 970.4204
1248.710, 967.0301
1249.193, 959.8640
1249.675, 949.0334
1250.157, 942.9503
1250.639, 954.0197
1251.121, 957.1598
1251.603, 943.3027
1252.085, 925.7977
1252.567, 925.3433
1253.049, 935.3604
1253.531, 941.5096
1254.014, 942.7519
1254.496, 945.7421
1254.978, 955.5793
1255.460, 961.9195
1255.942, 961.8675
1256.424, 959.4885
1256.906, 959.5121
1257.388, 961.6094
1257.871, 967.9351
1258.353, 977.9940
1258.835, 977.3835
1259.317, 958.3157
1259.799, 943.0275
1260.281, 935.5229
1260.763, 935.2972
1261.245, 950.8422
1261.728, 967.8202
1262.210, 962.2686
1262.692, 933.4794
1263.174, 920.7614
1263.656, 927.8355
1264.138, 943.9941
1264.620, 970.0489
1265.102, 991.8100
1265.584, 989.5682
1266.067, 976.6462
1266.549, 964.9193
1267.031, 955.9820
1267.513, 953.5087
1267.995, 958.6870
1268.477, 959.9678
1268.959, 953.9236
1269.441, 946.1537
1269.923, 939.0933
1270.406, 935.0357
1270.888, 936.2292
1271.370, 942.1766
1271.852, 954.0527
1272.334, 971.6906
1272.816, 980.6547
1273.298, 976.5721
1273.780, 968.6996
1274.263, 963.8657
1274.745, 957.6968
1275.227, 944.9058
1275.709, 929.4248
1276.191, 928.8754
1276.673, 940.4269
1277.155, 945.8310
1277.637, 939.6678
1278.120, 933.4927
1278.602, 931.9033
1279.084, 934.1094
1279.566, 942.5582
1280.048, 952.0020
1280.530, 942.0576
1281.012, 921.1602
1281.494, 916.1899
1281.976, 935.2627
1282.458, 955.4102
1282.941, 977.4047
1283.423, 985.7757
1283.905, 970.0451
1284.387, 944.0650
1284.869, 937.5285
1285.351, 941.4613
1285.833, 938.8330
1286.315, 925.1573
1286.798, 913.4820
1287.280, 903.1666
1287.762, 900.3758
1288.244, 908.3753
1288.726, 922.4740
1289.208, 942.5005
1289.690, 960.7670
1290.172, 965.6977
##END=



