##NAMES=Golyshevite
##RRUFFID=R061047
##IDEAL CHEMISTRY=Na_10_Ca_9_Zr^4+^_3_Fe^2+^_2_SiNb^5+^(Si_3_O_9_)_2_(Si_9_O_27_)_2_(OH)_3_(CO_3_)&#183;H_2_O
##LOCALITY=Mica mine, Kovdor, Kola, Russia
##OWNER=RRUFF
##SOURCE=Michael Scott
##DESCRIPTION=Dark brown vitreous blebs
##STATUS=The identification of this mineral has been confirmed only by single crystal X-ray diffraction.
##URL=rruff.info/R061047
138.4018, 4437.028
138.8840, 4636.051
139.3661, 4865.878
139.8482, 5110.584
140.3303, 5364.538
140.8124, 5625.835
141.2945, 5886.926
141.7766, 6144.667
142.2588, 6408.770
142.7409, 6691.088
143.2230, 6981.556
143.7051, 7259.414
144.1872, 7516.189
144.6693, 7751.312
145.1515, 7971.050
145.6336, 8184.855
146.1157, 8369.547
146.5978, 8516.187
147.0799, 8625.215
147.5620, 8695.625
148.0442, 8719.915
148.5263, 8707.310
149.0084, 8688.852
149.4905, 8675.271
149.9726, 8638.528
150.4547, 8551.415
150.9369, 8417.784
151.4190, 8277.840
151.9011, 8144.639
152.3832, 8017.446
152.8653, 7892.143
153.3474, 7770.058
153.8296, 7648.761
154.3117, 7520.084
154.7938, 7383.884
155.2759, 7267.363
155.7580, 7192.904
156.2401, 7142.030
156.7223, 7087.458
157.2044, 7016.001
157.6865, 6955.796
158.1686, 6941.062
158.6507, 6975.894
159.1328, 7021.968
159.6150, 7067.063
160.0971, 7113.112
160.5792, 7163.305
161.0613, 7221.221
161.5434, 7278.713
162.0255, 7324.850
162.5077, 7357.609
162.9898, 7387.599
163.4719, 7409.029
163.9540, 7433.870
164.4361, 7478.762
164.9182, 7556.058
165.4004, 7640.558
165.8825, 7689.187
166.3646, 7690.938
166.8467, 7692.726
167.3288, 7719.963
167.8109, 7752.709
168.2931, 7770.307
168.7752, 7762.866
169.2573, 7743.126
169.7394, 7735.361
170.2215, 7747.462
170.7036, 7751.476
171.1858, 7732.047
171.6679, 7703.793
172.1500, 7680.877
172.6321, 7669.540
173.1142, 7664.546
173.5963, 7653.109
174.0785, 7626.882
174.5606, 7613.789
175.0427, 7632.508
175.5248, 7661.975
176.0069, 7679.716
176.4890, 7675.161
176.9711, 7659.295
177.4533, 7656.250
177.9354, 7671.182
178.4175, 7689.292
178.8996, 7707.287
179.3817, 7725.669
179.8638, 7744.873
180.3460, 7764.990
180.8281, 7786.240
181.3102, 7808.055
181.7923, 7824.705
182.2744, 7853.676
182.7565, 7901.612
183.2387, 7959.711
183.7208, 8022.508
184.2029, 8088.799
184.6850, 8151.549
185.1671, 8190.935
185.6492, 8184.866
186.1314, 8195.621
186.6135, 8236.911
187.0956, 8296.009
187.5777, 8362.374
188.0598, 8432.353
188.5419, 8503.663
189.0241, 8574.292
189.5062, 8652.348
189.9883, 8712.522
190.4704, 8738.016
190.9525, 8753.297
191.4346, 8780.503
191.9168, 8828.478
192.3989, 8890.087
192.8810, 8951.727
193.3631, 9016.851
193.8452, 9074.805
194.3273, 9117.335
194.8095, 9156.865
195.2916, 9205.928
195.7737, 9268.943
196.2558, 9337.899
196.7379, 9398.363
197.2200, 9451.154
197.7022, 9491.335
198.1843, 9511.064
198.6664, 9524.592
199.1485, 9541.916
199.6306, 9566.582
200.1127, 9598.341
200.5949, 9638.151
201.0770, 9694.481
201.5591, 9741.637
202.0412, 9781.377
202.5233, 9811.290
203.0054, 9829.627
203.4876, 9835.960
203.9697, 9830.937
204.4518, 9813.474
204.9339, 9773.721
205.4160, 9742.796
205.8981, 9722.203
206.3803, 9709.227
206.8624, 9706.323
207.3445, 9712.244
207.8266, 9717.698
208.3087, 9708.493
208.7908, 9678.021
209.2730, 9648.434
209.7551, 9617.496
210.2372, 9589.284
210.7193, 9569.967
211.2014, 9558.743
211.6835, 9546.101
212.1656, 9516.759
212.6478, 9459.420
213.1299, 9420.724
213.6120, 9416.340
214.0941, 9416.687
214.5762, 9407.291
215.0583, 9386.868
215.5405, 9362.454
216.0226, 9341.925
216.5047, 9327.360
216.9868, 9308.066
217.4689, 9284.178
217.9510, 9255.943
218.4332, 9220.686
218.9153, 9180.220
219.3974, 9139.641
219.8795, 9102.174
220.3616, 9066.956
220.8438, 9043.386
221.3259, 9060.477
221.8080, 9062.788
222.2901, 9019.988
222.7722, 8943.705
223.2543, 8867.475
223.7365, 8820.117
224.2186, 8801.144
224.7007, 8773.721
225.1828, 8730.458
225.6649, 8685.168
226.1470, 8638.784
226.6292, 8593.419
227.1113, 8552.788
227.5934, 8520.581
228.0755, 8495.498
228.5576, 8466.654
229.0397, 8428.638
229.5219, 8393.296
230.0040, 8366.552
230.4861, 8343.928
230.9682, 8317.613
231.4503, 8281.894
231.9324, 8240.994
232.4146, 8211.646
232.8967, 8197.798
233.3788, 8190.733
233.8609, 8194.319
234.3430, 8200.394
234.8251, 8199.337
235.3073, 8186.621
235.7894, 8165.245
236.2715, 8140.477
236.7536, 8106.326
237.2357, 8081.980
237.7178, 8074.199
238.2000, 8075.511
238.6821, 8082.026
239.1642, 8093.037
239.6463, 8101.934
240.1284, 8096.710
240.6105, 8073.205
241.0927, 8049.125
241.5748, 8026.946
242.0569, 8006.308
242.5390, 7984.053
243.0211, 7959.833
243.5032, 7942.955
243.9854, 7951.568
244.4675, 7991.970
244.9496, 8013.396
245.4317, 7984.098
245.9138, 7950.164
246.3959, 7939.170
246.8781, 7952.987
247.3602, 7975.180
247.8423, 7993.905
248.3244, 8009.229
248.8065, 8018.395
249.2886, 8012.102
249.7707, 8009.324
250.2529, 8025.944
250.7350, 8058.148
251.2171, 8086.675
251.6992, 8093.793
252.1813, 8084.704
252.6634, 8086.052
253.1456, 8104.741
253.6277, 8124.728
254.1098, 8131.731
254.5919, 8131.387
255.0740, 8138.603
255.5561, 8171.580
256.0383, 8214.880
256.5204, 8231.572
257.0025, 8213.514
257.4846, 8192.364
257.9667, 8186.881
258.4489, 8191.551
258.9310, 8199.494
259.4131, 8216.430
259.8952, 8229.576
260.3773, 8216.374
260.8594, 8173.849
261.3416, 8138.717
261.8237, 8136.061
262.3058, 8150.264
262.7879, 8154.081
263.2700, 8138.813
263.7521, 8121.983
264.2343, 8118.453
264.7163, 8126.780
265.1985, 8135.417
265.6806, 8141.197
266.1627, 8143.565
266.6448, 8141.553
267.1269, 8133.446
267.6090, 8126.286
268.0912, 8123.591
268.5733, 8124.529
269.0554, 8127.947
269.5375, 8134.907
270.0196, 8141.209
270.5017, 8137.121
270.9839, 8120.464
271.4660, 8112.430
271.9481, 8123.953
272.4302, 8145.188
272.9123, 8161.423
273.3944, 8169.523
273.8766, 8179.081
274.3587, 8204.710
274.8408, 8250.217
275.3229, 8274.209
275.8050, 8250.514
276.2871, 8220.997
276.7693, 8222.681
277.2514, 8255.373
277.7335, 8292.239
278.2156, 8312.076
278.6977, 8314.526
279.1798, 8318.489
279.6620, 8321.102
280.1441, 8327.661
280.6262, 8341.641
281.1083, 8361.591
281.5904, 8383.799
282.0725, 8406.025
282.5547, 8428.616
283.0368, 8453.555
283.5189, 8497.403
284.0010, 8523.812
284.4831, 8513.459
284.9652, 8486.519
285.4474, 8470.083
285.9295, 8475.047
286.4116, 8491.438
286.8937, 8497.358
287.3758, 8476.489
287.8579, 8470.221
288.3401, 8485.316
288.8222, 8509.810
289.3043, 8536.157
289.7864, 8562.077
290.2685, 8587.837
290.7506, 8614.621
291.2328, 8645.233
291.7149, 8667.352
292.1970, 8672.792
292.6791, 8677.831
293.1612, 8689.861
293.6433, 8708.469
294.1255, 8728.621
294.6076, 8744.641
295.0897, 8757.115
295.5718, 8782.774
296.0539, 8829.598
296.5360, 8880.870
297.0182, 8935.821
297.5003, 8990.399
297.9824, 9036.373
298.4645, 9066.583
298.9466, 9090.677
299.4287, 9137.395
299.9109, 9221.123
300.3930, 9292.611
300.8751, 9324.931
301.3572, 9344.526
301.8393, 9377.521
302.3214, 9432.415
302.8036, 9490.396
303.2857, 9527.917
303.7678, 9544.023
304.2499, 9560.506
304.7320, 9575.437
305.2141, 9599.728
305.6963, 9650.958
306.1784, 9729.068
306.6605, 9792.695
307.1426, 9811.599
307.6247, 9795.543
308.1068, 9773.183
308.5890, 9744.095
309.0711, 9718.847
309.5532, 9713.793
310.0353, 9722.803
310.5174, 9721.603
310.9995, 9699.095
311.4817, 9665.644
311.9638, 9632.521
312.4459, 9599.982
312.9280, 9564.917
313.4101, 9523.243
313.8922, 9477.593
314.3744, 9439.270
314.8565, 9409.624
315.3386, 9385.682
315.8207, 9375.914
316.3028, 9371.440
316.7849, 9345.214
317.2671, 9281.691
317.7492, 9200.487
318.2313, 9150.047
318.7134, 9149.156
319.1955, 9142.048
319.6776, 9118.334
320.1598, 9086.599
320.6419, 9054.249
321.1240, 9023.454
321.6061, 8994.400
322.0882, 8966.829
322.5703, 8938.121
323.0525, 8921.229
323.5346, 8924.378
324.0167, 8929.971
324.4988, 8929.333
324.9809, 8922.826
325.4630, 8915.066
325.9452, 8909.802
326.4273, 8906.420
326.9094, 8897.673
327.3915, 8876.903
327.8736, 8858.427
328.3557, 8838.620
328.8379, 8824.683
329.3200, 8826.874
329.8021, 8850.094
330.2842, 8885.720
330.7663, 8918.729
331.2484, 8950.488
331.7306, 8976.317
332.2127, 8991.917
332.6948, 9004.274
333.1769, 9014.604
333.6590, 9024.288
334.1411, 9040.398
334.6233, 9072.408
335.1053, 9119.066
335.5875, 9160.745
336.0696, 9186.533
336.5517, 9221.989
337.0338, 9296.524
337.5159, 9394.724
337.9980, 9472.724
338.4802, 9503.678
338.9623, 9507.424
339.4444, 9507.211
339.9265, 9501.247
340.4086, 9510.906
340.8907, 9557.224
341.3729, 9624.383
341.8550, 9677.229
342.3371, 9716.051
342.8192, 9737.285
343.3013, 9724.457
343.7834, 9691.568
344.2656, 9678.751
344.7477, 9702.572
345.2298, 9740.131
345.7119, 9755.982
346.1940, 9748.178
346.6761, 9726.982
347.1583, 9684.609
347.6404, 9634.691
348.1225, 9589.268
348.6046, 9549.366
349.0867, 9510.146
349.5688, 9467.352
350.0510, 9421.078
350.5331, 9370.986
351.0152, 9315.937
351.4973, 9259.075
351.9794, 9197.135
352.4615, 9134.668
352.9437, 9082.148
353.4258, 9046.082
353.9079, 9014.720
354.3900, 8954.365
354.8721, 8839.613
355.3542, 8742.248
355.8364, 8675.738
356.3185, 8621.547
356.8006, 8566.201
357.2827, 8507.176
357.7648, 8449.829
358.2469, 8401.635
358.7291, 8363.245
359.2112, 8318.268
359.6933, 8265.725
360.1754, 8206.323
360.6575, 8133.257
361.1396, 8054.422
361.6218, 7988.335
362.1039, 7948.195
362.5860, 7922.267
363.0681, 7890.147
363.5502, 7850.701
364.0323, 7815.042
364.5145, 7788.290
364.9966, 7768.583
365.4787, 7753.965
365.9608, 7748.873
366.4429, 7736.821
366.9250, 7700.285
367.4072, 7650.677
367.8893, 7612.857
368.3714, 7592.789
368.8535, 7586.292
369.3356, 7591.760
369.8177, 7611.950
370.2999, 7624.871
370.7820, 7625.901
371.2641, 7622.035
371.7462, 7614.674
372.2283, 7606.057
372.7104, 7603.645
373.1926, 7613.975
373.6747, 7633.379
374.1568, 7638.218
374.6389, 7613.330
375.1210, 7591.696
375.6031, 7581.740
376.0853, 7574.756
376.5674, 7559.369
377.0495, 7532.814
377.5316, 7504.167
378.0137, 7486.597
378.4958, 7482.477
378.9780, 7480.903
379.4601, 7488.672
379.9422, 7492.840
380.4243, 7488.666
380.9064, 7476.229
381.3885, 7456.130
381.8707, 7422.484
382.3528, 7384.432
382.8349, 7371.656
383.3170, 7392.946
383.7991, 7411.125
384.2813, 7400.323
384.7634, 7381.698
385.2455, 7381.192
385.7276, 7407.361
386.2097, 7436.264
386.6918, 7444.917
387.1740, 7441.338
387.6561, 7455.199
388.1382, 7497.883
388.6203, 7546.130
389.1024, 7570.634
389.5845, 7570.336
390.0667, 7579.032
390.5488, 7608.355
391.0309, 7642.002
391.5130, 7664.835
391.9951, 7679.503
392.4772, 7700.796
392.9594, 7738.637
393.4415, 7789.262
393.9236, 7834.459
394.4057, 7881.060
394.8878, 7913.442
395.3699, 7917.159
395.8521, 7912.683
396.3342, 7922.086
396.8163, 7949.444
397.2984, 7980.868
397.7805, 8002.323
398.2626, 8015.853
398.7448, 8005.586
399.2269, 7934.986
399.7090, 7877.411
400.1911, 7874.561
400.6732, 7903.623
401.1553, 7915.993
401.6375, 7882.530
402.1196, 7826.483
402.6017, 7789.611
403.0838, 7774.573
403.5659, 7762.945
404.0480, 7754.098
404.5302, 7741.890
405.0123, 7718.456
405.4944, 7682.433
405.9765, 7645.865
406.4586, 7614.479
406.9407, 7586.866
407.4228, 7560.675
407.9049, 7535.511
408.3871, 7511.159
408.8692, 7484.078
409.3513, 7455.926
409.8334, 7448.830
410.3155, 7494.663
410.7976, 7526.210
411.2798, 7503.549
411.7619, 7449.228
412.2440, 7404.427
412.7261, 7385.562
413.2082, 7380.650
413.6903, 7366.557
414.1725, 7331.097
414.6546, 7312.604
415.1367, 7332.494
415.6188, 7347.949
416.1009, 7326.878
416.5830, 7277.846
417.0652, 7234.331
417.5473, 7222.522
418.0294, 7234.084
418.5115, 7236.065
418.9936, 7225.057
419.4757, 7212.717
419.9579, 7210.914
420.4400, 7206.095
420.9221, 7179.275
421.4042, 7123.406
421.8863, 7072.559
422.3684, 7063.049
422.8506, 7079.962
423.3327, 7074.364
423.8148, 7033.884
424.2969, 6986.483
424.7790, 6958.791
425.2611, 6949.080
425.7433, 6930.783
426.2254, 6896.791
426.7075, 6859.006
427.1896, 6822.266
427.6717, 6787.104
428.1538, 6753.014
428.6360, 6719.523
429.1181, 6688.726
429.6002, 6665.036
430.0823, 6651.537
430.5644, 6639.999
431.0465, 6634.668
431.5287, 6627.573
432.0108, 6609.839
432.4929, 6584.766
432.9750, 6565.373
433.4571, 6563.880
433.9392, 6574.871
434.4214, 6570.416
434.9035, 6540.058
435.3856, 6517.602
435.8677, 6522.052
436.3498, 6535.375
436.8319, 6539.285
437.3141, 6529.385
437.7962, 6521.688
438.2783, 6530.402
438.7604, 6550.881
439.2425, 6568.764
439.7246, 6581.159
440.2068, 6595.201
440.6889, 6621.474
441.1710, 6657.059
441.6531, 6674.395
442.1352, 6651.517
442.6173, 6631.340
443.0995, 6639.831
443.5816, 6665.588
444.0637, 6686.438
444.5458, 6693.990
445.0279, 6693.105
445.5100, 6690.846
445.9922, 6682.043
446.4743, 6685.711
446.9564, 6723.424
447.4385, 6751.707
447.9206, 6738.812
448.4027, 6698.495
448.8849, 6667.105
449.3670, 6668.569
449.8491, 6689.565
450.3312, 6695.553
450.8133, 6681.977
451.2954, 6672.526
451.7776, 6678.181
452.2597, 6687.804
452.7418, 6691.505
453.2239, 6688.668
453.7060, 6684.977
454.1881, 6672.374
454.6703, 6664.930
455.1524, 6692.522
455.6345, 6757.002
456.1166, 6823.687
456.5987, 6877.530
457.0808, 6913.407
457.5630, 6904.997
458.0451, 6814.810
458.5272, 6734.945
459.0093, 6689.596
459.4914, 6661.192
459.9735, 6629.155
460.4557, 6589.977
460.9378, 6554.622
461.4199, 6537.143
461.9020, 6538.888
462.3841, 6530.184
462.8662, 6503.362
463.3484, 6474.859
463.8305, 6450.623
464.3126, 6427.290
464.7947, 6400.641
465.2768, 6369.718
465.7589, 6333.473
466.2411, 6288.221
466.7232, 6235.180
467.2053, 6184.514
467.6874, 6136.584
468.1695, 6093.574
468.6516, 6063.188
469.1338, 6041.723
469.6159, 6009.269
470.0980, 5950.188
470.5801, 5890.764
471.0622, 5848.114
471.5443, 5818.167
472.0265, 5792.681
472.5086, 5768.797
472.9907, 5741.367
473.4728, 5699.743
473.9549, 5629.818
474.4370, 5581.968
474.9192, 5573.085
475.4013, 5566.675
475.8834, 5545.478
476.3655, 5512.209
476.8476, 5476.521
477.3297, 5443.377
477.8118, 5412.136
478.2939, 5380.397
478.7761, 5347.390
479.2582, 5318.859
479.7403, 5293.544
480.2224, 5276.475
480.7045, 5277.723
481.1866, 5295.630
481.6688, 5301.072
482.1509, 5264.273
482.6330, 5221.189
483.1151, 5219.122
483.5972, 5253.203
484.0793, 5280.700
484.5615, 5278.879
485.0436, 5256.937
485.5257, 5238.241
486.0078, 5215.759
486.4899, 5208.309
486.9720, 5227.714
487.4542, 5253.305
487.9363, 5273.893
488.4184, 5286.895
488.9005, 5290.520
489.3826, 5281.324
489.8647, 5264.100
490.3469, 5257.477
490.8290, 5264.528
491.3111, 5273.684
491.7932, 5276.882
492.2753, 5284.229
492.7574, 5307.152
493.2396, 5346.275
493.7217, 5384.449
494.2038, 5415.772
494.6859, 5438.731
495.1680, 5446.193
495.6501, 5438.747
496.1323, 5434.165
496.6144, 5442.515
497.0965, 5461.622
497.5786, 5484.620
498.0607, 5520.752
498.5428, 5546.598
499.0250, 5549.230
499.5071, 5548.139
499.9892, 5559.898
500.4713, 5585.290
500.9534, 5615.741
501.4355, 5645.419
501.9177, 5674.021
502.3998, 5699.264
502.8819, 5717.494
503.3640, 5740.711
503.8461, 5777.795
504.3282, 5818.338
504.8104, 5856.954
505.2925, 5892.767
505.7746, 5917.382
506.2567, 5918.598
506.7388, 5908.306
507.2209, 5904.271
507.7031, 5907.849
508.1852, 5921.028
508.6673, 5948.453
509.1494, 5983.615
509.6315, 6003.511
510.1136, 5996.598
510.5958, 5992.578
511.0779, 5997.557
511.5600, 6003.873
512.0421, 6002.717
512.5242, 5995.644
513.0063, 5993.522
513.4885, 6006.905
513.9706, 6029.995
514.4527, 6038.139
514.9348, 6027.973
515.4169, 6011.424
515.8990, 5982.302
516.3812, 5954.543
516.8633, 5942.481
517.3454, 5946.868
517.8275, 5948.636
518.3096, 5935.550
518.7917, 5915.912
519.2739, 5903.091
519.7560, 5896.230
520.2381, 5881.511
520.7202, 5849.388
521.2023, 5808.215
521.6844, 5779.342
522.1666, 5767.442
522.6487, 5761.834
523.1308, 5768.786
523.6129, 5776.813
524.0950, 5775.744
524.5771, 5768.467
525.0593, 5765.159
525.5414, 5771.775
526.0235, 5787.717
526.5056, 5819.103
526.9877, 5873.778
527.4698, 5897.699
527.9520, 5856.350
528.4341, 5800.558
528.9162, 5775.825
529.3983, 5780.867
529.8804, 5799.161
530.3625, 5839.250
530.8447, 5879.741
531.3268, 5892.144
531.8089, 5887.585
532.2910, 5904.056
532.7731, 5958.644
533.2552, 6034.388
533.7374, 6100.679
534.2195, 6148.126
534.7016, 6213.028
535.1837, 6311.650
535.6658, 6409.950
536.1479, 6490.147
536.6301, 6560.102
537.1122, 6636.163
537.5943, 6725.619
538.0764, 6823.395
538.5585, 6929.680
539.0406, 7042.111
539.5228, 7130.512
540.0049, 7182.064
540.4870, 7227.866
540.9691, 7297.271
541.4512, 7386.312
541.9333, 7464.121
542.4155, 7520.731
542.8976, 7575.623
543.3797, 7642.133
543.8618, 7710.265
544.3439, 7760.896
544.8260, 7791.539
545.3082, 7823.800
545.7903, 7883.330
546.2724, 7970.166
546.7545, 8045.646
547.2366, 8096.693
547.7188, 8157.486
548.2009, 8244.928
548.6830, 8343.065
549.1651, 8436.798
549.6472, 8523.488
550.1293, 8604.805
550.6115, 8676.413
551.0936, 8745.162
551.5757, 8823.069
552.0578, 8910.773
552.5399, 9008.109
553.0220, 9117.977
553.5042, 9234.152
553.9863, 9335.887
554.4684, 9413.569
554.9505, 9489.519
555.4326, 9554.765
555.9147, 9626.204
556.3969, 9723.254
556.8790, 9837.743
557.3611, 9944.236
557.8432, 10028.62
558.3253, 10092.94
558.8074, 10135.11
559.2896, 10153.02
559.7717, 10180.98
560.2538, 10233.21
560.7359, 10289.26
561.2180, 10325.94
561.7001, 10345.86
562.1823, 10367.76
562.6644, 10396.90
563.1465, 10426.39
563.6286, 10444.99
564.1107, 10462.76
564.5928, 10502.01
565.0750, 10568.77
565.5571, 10642.63
566.0392, 10699.49
566.5213, 10738.68
567.0034, 10768.57
567.4855, 10796.85
567.9677, 10803.42
568.4498, 10775.77
568.9319, 10728.17
569.4140, 10680.38
569.8961, 10638.16
570.3782, 10577.62
570.8604, 10488.92
571.3425, 10369.60
571.8246, 10203.49
572.3067, 9992.582
572.7888, 9780.215
573.2709, 9591.518
573.7531, 9419.303
574.2352, 9240.791
574.7173, 9039.280
575.1994, 8858.937
575.6815, 8725.038
576.1636, 8589.770
576.6458, 8419.238
577.1279, 8222.050
577.6100, 8025.587
578.0921, 7840.095
578.5742, 7669.792
579.0563, 7526.294
579.5385, 7407.638
580.0206, 7285.416
580.5027, 7152.140
580.9848, 7018.358
581.4669, 6895.105
581.9490, 6782.029
582.4311, 6668.446
582.9132, 6540.099
583.3953, 6427.230
583.8774, 6353.533
584.3596, 6295.417
584.8417, 6223.127
585.3238, 6131.788
585.8059, 6040.367
586.2880, 5967.364
586.7701, 5909.282
587.2523, 5839.280
587.7344, 5749.849
588.2165, 5673.142
588.6986, 5625.450
589.1807, 5592.545
589.6628, 5560.306
590.1450, 5528.890
590.6271, 5490.747
591.1092, 5428.026
591.5913, 5370.380
592.0734, 5345.004
592.5555, 5345.507
593.0377, 5355.054
593.5198, 5366.714
594.0019, 5374.888
594.4840, 5368.247
594.9661, 5342.056
595.4482, 5325.787
595.9304, 5317.014
596.4125, 5322.304
596.8946, 5350.446
597.3767, 5390.502
597.8588, 5429.073
598.3409, 5464.426
598.8231, 5491.603
599.3052, 5497.722
599.7873, 5497.686
600.2694, 5516.615
600.7515, 5555.639
601.2336, 5601.426
601.7158, 5646.945
602.1979, 5691.669
602.6800, 5733.140
603.1621, 5760.416
603.6442, 5805.698
604.1263, 5880.001
604.6085, 5960.960
605.0906, 6046.075
605.5727, 6127.665
606.0548, 6188.871
606.5369, 6215.023
607.0190, 6238.772
607.5012, 6303.499
607.9833, 6395.575
608.4654, 6469.023
608.9475, 6515.353
609.4296, 6549.792
609.9117, 6584.658
610.3939, 6618.524
610.8760, 6640.746
611.3581, 6634.583
611.8402, 6638.847
612.3223, 6672.451
612.8044, 6705.709
613.2866, 6712.728
613.7687, 6696.190
614.2508, 6678.144
614.7329, 6676.160
615.2150, 6674.911
615.6971, 6641.000
616.1793, 6578.650
616.6614, 6536.540
617.1435, 6531.354
617.6256, 6534.843
618.1077, 6518.532
618.5898, 6482.027
619.0720, 6446.714
619.5541, 6418.385
620.0362, 6384.283
620.5183, 6334.721
621.0004, 6281.555
621.4825, 6235.508
621.9647, 6198.717
622.4468, 6168.276
622.9289, 6142.110
623.4110, 6120.329
623.8931, 6105.322
624.3752, 6097.522
624.8574, 6085.954
625.3395, 6068.776
625.8216, 6043.357
626.3037, 6000.790
626.7858, 5937.351
627.2679, 5898.428
627.7501, 5908.487
628.2322, 5916.379
628.7143, 5898.323
629.1964, 5868.416
629.6785, 5845.912
630.1606, 5834.898
630.6428, 5825.247
631.1249, 5807.364
631.6070, 5783.221
632.0891, 5759.054
632.5712, 5734.623
633.0533, 5712.801
633.5355, 5695.082
634.0176, 5679.838
634.4997, 5663.819
634.9818, 5646.124
635.4639, 5634.979
635.9460, 5641.555
636.4282, 5643.428
636.9103, 5624.150
637.3924, 5595.451
637.8745, 5577.437
638.3566, 5574.585
638.8387, 5570.387
639.3209, 5538.809
639.8030, 5489.503
640.2851, 5475.267
640.7672, 5500.480
641.2493, 5534.626
641.7314, 5568.916
642.2136, 5602.444
642.6957, 5638.153
643.1778, 5680.932
643.6599, 5696.022
644.1420, 5652.812
644.6241, 5610.456
645.1063, 5600.583
645.5884, 5610.878
646.0705, 5623.425
646.5526, 5631.889
647.0347, 5633.821
647.5168, 5615.840
647.9990, 5586.808
648.4811, 5600.078
648.9632, 5662.936
649.4453, 5715.875
649.9274, 5731.031
650.4095, 5727.488
650.8917, 5734.352
651.3738, 5752.956
651.8559, 5774.451
652.3380, 5804.545
652.8201, 5830.784
653.3022, 5843.356
653.7844, 5849.735
654.2665, 5861.181
654.7486, 5880.710
655.2307, 5902.475
655.7128, 5916.333
656.1949, 5927.512
656.6771, 5960.333
657.1592, 6017.276
657.6413, 6065.570
658.1234, 6090.867
658.6055, 6102.848
659.0876, 6113.813
659.5698, 6121.272
660.0519, 6140.445
660.5340, 6184.137
661.0161, 6224.927
661.4982, 6243.103
661.9803, 6256.600
662.4625, 6299.356
662.9446, 6374.668
663.4267, 6432.914
663.9088, 6412.147
664.3909, 6348.536
664.8730, 6331.139
665.3552, 6358.961
665.8373, 6392.965
666.3194, 6421.038
666.8015, 6442.346
667.2836, 6454.522
667.7657, 6455.334
668.2479, 6461.136
668.7300, 6469.711
669.2121, 6485.439
669.6942, 6515.627
670.1763, 6549.934
670.6584, 6579.365
671.1406, 6601.652
671.6227, 6616.319
672.1048, 6615.792
672.5869, 6611.548
673.0690, 6626.176
673.5511, 6654.593
674.0333, 6666.304
674.5154, 6649.838
674.9975, 6635.616
675.4796, 6662.518
675.9617, 6731.580
676.4438, 6775.371
676.9260, 6777.392
677.4081, 6776.948
677.8902, 6780.513
678.3723, 6784.999
678.8544, 6777.410
679.3365, 6763.657
679.8187, 6780.377
680.3008, 6873.850
680.7829, 6977.600
681.2650, 7024.021
681.7471, 7035.389
682.2292, 7074.835
682.7114, 7152.546
683.1935, 7196.102
683.6756, 7130.000
684.1577, 6979.485
684.6398, 6891.511
685.1219, 6872.072
685.6041, 6902.119
686.0862, 7027.147
686.5683, 7154.028
687.0504, 7212.164
687.5325, 7214.907
688.0146, 7215.548
688.4968, 7239.717
688.9789, 7245.277
689.4610, 7193.502
689.9431, 7121.747
690.4252, 7072.567
690.9073, 7051.430
691.3895, 7048.124
691.8716, 7057.625
692.3537, 7074.469
692.8358, 7083.990
693.3179, 7084.909
693.8000, 7099.666
694.2822, 7137.477
694.7643, 7174.909
695.2464, 7195.985
695.7285, 7203.629
696.2106, 7208.896
696.6927, 7204.515
697.1749, 7211.334
697.6570, 7248.178
698.1391, 7283.689
698.6212, 7290.753
699.1033, 7279.076
699.5854, 7272.406
700.0676, 7280.606
700.5497, 7299.404
701.0318, 7316.996
701.5139, 7341.157
701.9960, 7420.961
702.4781, 7562.359
702.9603, 7639.771
703.4424, 7574.582
703.9245, 7440.830
704.4066, 7384.678
704.8887, 7436.597
705.3708, 7468.311
705.8530, 7463.708
706.3351, 7458.214
706.8172, 7464.043
707.2993, 7474.736
707.7814, 7481.911
708.2635, 7484.012
708.7457, 7484.767
709.2278, 7493.979
709.7099, 7497.242
710.1920, 7466.280
710.6741, 7415.200
711.1563, 7386.672
711.6384, 7394.102
712.1205, 7423.166
712.6026, 7470.156
713.0847, 7527.091
713.5668, 7483.332
714.0490, 7295.914
714.5311, 7127.152
715.0132, 7022.629
715.4953, 6946.815
715.9774, 6872.059
716.4595, 6797.364
716.9417, 6712.182
717.4238, 6606.757
717.9059, 6500.363
718.3880, 6399.116
718.8701, 6302.098
719.3522, 6206.021
719.8344, 6112.324
720.3165, 6029.265
720.7986, 5962.755
721.2807, 5905.917
721.7628, 5847.453
722.2449, 5788.083
722.7271, 5729.330
723.2091, 5670.806
723.6912, 5619.819
724.1733, 5584.420
724.6555, 5557.675
725.1376, 5515.941
725.6197, 5439.655
726.1018, 5385.185
726.5839, 5362.557
727.0660, 5349.063
727.5482, 5335.605
728.0303, 5324.028
728.5124, 5320.803
728.9945, 5328.859
729.4766, 5331.176
729.9587, 5304.268
730.4409, 5274.772
730.9230, 5279.073
731.4051, 5309.762
731.8872, 5339.440
732.3693, 5357.833
732.8514, 5369.246
733.3336, 5377.647
733.8157, 5383.509
734.2978, 5395.149
734.7799, 5413.388
735.2620, 5434.988
735.7441, 5461.327
736.2263, 5488.059
736.7084, 5507.483
737.1905, 5520.453
737.6726, 5543.163
738.1547, 5590.547
738.6368, 5630.309
739.1190, 5647.910
739.6011, 5657.333
740.0832, 5667.330
740.5653, 5681.912
741.0474, 5708.700
741.5295, 5756.873
742.0117, 5807.022
742.4938, 5833.240
742.9759, 5841.472
743.4580, 5848.869
743.9401, 5857.775
744.4222, 5864.250
744.9044, 5865.030
745.3865, 5864.111
745.8686, 5872.532
746.3507, 5894.885
746.8328, 5911.592
747.3149, 5926.309
747.7971, 5929.935
748.2792, 5912.161
748.7613, 5884.232
749.2434, 5860.955
749.7255, 5843.978
750.2076, 5825.798
750.6898, 5803.956
751.1719, 5780.519
751.6540, 5757.992
752.1361, 5734.409
752.6182, 5703.588
753.1003, 5665.994
753.5825, 5634.800
754.0646, 5626.661
754.5467, 5628.019
755.0288, 5602.915
755.5109, 5555.016
755.9930, 5524.827
756.4752, 5523.677
756.9573, 5525.111
757.4394, 5504.433
757.9215, 5467.417
758.4036, 5448.100
758.8857, 5458.584
759.3679, 5463.368
759.8500, 5454.619
760.3321, 5444.907
760.8142, 5443.589
761.2963, 5445.007
761.7784, 5437.159
762.2606, 5415.852
762.7427, 5391.924
763.2248, 5368.659
763.7069, 5345.899
764.1890, 5319.386
764.6711, 5293.872
765.1533, 5283.006
765.6354, 5290.331
766.1175, 5296.995
766.5996, 5279.023
767.0817, 5244.397
767.5638, 5220.364
768.0460, 5206.850
768.5281, 5200.735
769.0102, 5203.212
769.4923, 5203.379
769.9744, 5188.261
770.4565, 5159.307
770.9387, 5138.029
771.4208, 5124.011
771.9029, 5118.800
772.3850, 5130.250
772.8671, 5143.246
773.3492, 5154.560
773.8314, 5159.702
774.3135, 5145.807
774.7956, 5099.330
775.2777, 5060.363
775.7598, 5053.308
776.2419, 5057.341
776.7241, 5056.774
777.2062, 5049.620
777.6883, 5033.233
778.1704, 5006.967
778.6525, 4983.974
779.1346, 4985.151
779.6168, 5001.047
780.0989, 4994.814
780.5810, 4967.413
781.0631, 4953.552
781.5452, 4966.327
782.0273, 4988.654
782.5095, 5003.053
782.9916, 5009.405
783.4737, 5005.739
783.9558, 4982.637
784.4379, 4967.553
784.9200, 4970.529
785.4022, 4977.339
785.8843, 4981.907
786.3664, 4982.930
786.8485, 4976.417
787.3306, 4955.928
787.8127, 4940.088
788.2949, 4937.272
788.7770, 4940.050
789.2591, 4947.398
789.7412, 4954.427
790.2233, 4950.268
790.7054, 4931.550
791.1876, 4913.690
791.6697, 4915.478
792.1518, 4927.116
792.6339, 4922.450
793.1160, 4906.174
793.5981, 4915.717
794.0803, 4963.494
794.5624, 5001.868
795.0445, 4978.937
795.5266, 4904.542
796.0087, 4842.888
796.4908, 4791.924
796.9730, 4763.473
797.4551, 4773.793
797.9372, 4785.805
798.4193, 4766.333
798.9014, 4728.508
799.3835, 4715.861
799.8657, 4748.786
800.3478, 4763.213
800.8299, 4731.880
801.3120, 4699.463
801.7941, 4694.936
802.2762, 4704.168
802.7584, 4701.899
803.2405, 4682.797
803.7226, 4665.796
804.2047, 4664.940
804.6868, 4671.023
805.1689, 4675.742
805.6511, 4679.032
806.1332, 4681.678
806.6153, 4683.597
807.0974, 4682.636
807.5795, 4676.552
808.0616, 4667.771
808.5438, 4664.218
809.0259, 4665.762
809.5080, 4655.415
809.9901, 4627.236
810.4722, 4608.037
810.9543, 4616.820
811.4365, 4640.636
811.9186, 4651.569
812.4007, 4647.543
812.8828, 4637.584
813.3649, 4605.786
813.8470, 4588.500
814.3292, 4605.745
814.8113, 4635.364
815.2934, 4658.868
815.7755, 4674.315
816.2576, 4678.773
816.7397, 4660.511
817.2219, 4644.172
817.7040, 4647.032
818.1861, 4653.485
818.6682, 4646.568
819.1503, 4627.528
819.6324, 4604.649
820.1146, 4579.953
820.5967, 4565.403
821.0788, 4582.756
821.5609, 4616.507
822.0430, 4636.312
822.5251, 4640.492
823.0073, 4630.337
823.4894, 4606.151
823.9715, 4580.497
824.4536, 4568.910
824.9357, 4570.087
825.4178, 4570.670
825.9000, 4567.817
826.3821, 4583.661
826.8642, 4633.352
827.3463, 4679.934
827.8284, 4689.843
828.3105, 4671.548
828.7927, 4664.709
829.2748, 4682.871
829.7569, 4690.656
830.2390, 4681.391
830.7211, 4669.368
831.2032, 4655.575
831.6854, 4645.374
832.1675, 4648.613
832.6496, 4667.442
833.1317, 4681.803
833.6138, 4678.926
834.0959, 4675.250
834.5781, 4685.549
835.0602, 4698.805
835.5423, 4695.452
836.0244, 4677.728
836.5065, 4670.133
836.9886, 4691.248
837.4708, 4717.116
837.9529, 4708.869
838.4350, 4684.927
838.9171, 4696.888
839.3992, 4742.792
839.8813, 4776.163
840.3635, 4774.817
840.8456, 4756.667
841.3277, 4744.753
841.8098, 4739.259
842.2919, 4744.265
842.7740, 4761.661
843.2562, 4776.033
843.7383, 4780.501
844.2204, 4787.957
844.7025, 4813.646
845.1846, 4852.888
845.6667, 4874.850
846.1489, 4870.546
846.6310, 4864.806
847.1131, 4845.215
847.5952, 4838.947
848.0773, 4870.027
848.5594, 4917.099
849.0416, 4945.556
849.5237, 4949.591
850.0058, 4955.495
850.4879, 4962.818
850.9700, 4981.499
851.4521, 5027.465
851.9343, 5080.536
852.4164, 5119.955
852.8985, 5143.122
853.3806, 5152.919
853.8627, 5144.004
854.3448, 5138.332
854.8270, 5158.594
855.3091, 5193.098
855.7912, 5226.683
856.2733, 5257.325
856.7554, 5272.510
857.2375, 5268.863
857.7197, 5299.552
858.2018, 5462.620
858.6839, 5702.986
859.1660, 5822.439
859.6481, 5827.340
860.1302, 5791.367
860.6124, 5728.668
861.0945, 5677.603
861.5766, 5670.529
862.0587, 5698.007
862.5408, 5732.316
863.0229, 5779.646
863.5051, 5803.750
863.9872, 5789.525
864.4692, 5782.647
864.9514, 5806.105
865.4335, 5846.852
865.9156, 5886.059
866.3977, 5923.416
866.8798, 5961.360
867.3619, 6012.053
867.8441, 6046.694
868.3262, 6049.264
868.8083, 6043.398
869.2904, 6046.153
869.7725, 6055.345
870.2546, 6061.046
870.7368, 6058.842
871.2189, 6059.474
871.7010, 6063.023
872.1831, 6074.504
872.6652, 6108.103
873.1473, 6147.390
873.6295, 6163.458
874.1116, 6152.676
874.5937, 6142.297
875.0758, 6152.709
875.5579, 6167.975
876.0400, 6170.240
876.5222, 6166.253
877.0043, 6167.688
877.4864, 6175.379
877.9685, 6186.909
878.4506, 6201.556
878.9327, 6209.660
879.4149, 6186.763
879.8970, 6147.630
880.3791, 6152.194
880.8612, 6196.493
881.3433, 6226.365
881.8254, 6225.199
882.3076, 6215.969
882.7897, 6219.604
883.2718, 6233.436
883.7539, 6245.811
884.2360, 6255.391
884.7181, 6277.486
885.2003, 6319.374
885.6824, 6353.582
886.1645, 6361.099
886.6466, 6359.924
887.1287, 6383.330
887.6108, 6437.006
888.0930, 6468.218
888.5751, 6458.881
889.0572, 6457.348
889.5393, 6479.891
890.0214, 6507.504
890.5035, 6523.680
890.9857, 6533.184
891.4678, 6552.032
891.9499, 6585.442
892.4320, 6619.173
892.9141, 6641.586
893.3962, 6674.813
893.8784, 6743.479
894.3605, 6821.560
894.8426, 6874.853
895.3247, 6900.476
895.8068, 6919.100
896.2889, 6932.626
896.7711, 6948.963
897.2532, 6973.859
897.7353, 7002.358
898.2174, 7030.395
898.6995, 7057.291
899.1816, 7083.967
899.6638, 7110.753
900.1459, 7133.930
900.6280, 7143.044
901.1101, 7152.687
901.5922, 7184.704
902.0743, 7230.729
902.5565, 7274.562
903.0386, 7311.492
903.5207, 7339.400
904.0028, 7355.779
904.4849, 7366.923
904.9670, 7381.816
905.4492, 7399.665
905.9313, 7416.042
906.4134, 7431.900
906.8955, 7456.721
907.3776, 7494.058
907.8597, 7537.098
908.3419, 7581.412
908.8240, 7622.102
909.3061, 7627.817
909.7882, 7597.001
910.2703, 7605.966
910.7524, 7670.357
911.2346, 7746.735
911.7167, 7815.912
912.1988, 7865.695
912.6809, 7867.218
913.1630, 7813.286
913.6451, 7794.874
914.1273, 7819.061
914.6094, 7859.989
915.0915, 7918.542
915.5736, 7979.861
916.0557, 8036.728
916.5378, 8085.165
917.0200, 8107.550
917.5021, 8078.958
917.9842, 8076.483
918.4663, 8112.392
918.9484, 8158.971
919.4305, 8218.396
919.9127, 8275.295
920.3948, 8314.346
920.8769, 8335.490
921.3590, 8340.738
921.8411, 8298.545
922.3232, 8286.085
922.8054, 8336.426
923.2875, 8401.182
923.7696, 8462.829
924.2517, 8512.382
924.7338, 8532.884
925.2159, 8519.920
925.6981, 8511.759
926.1802, 8528.165
926.6623, 8543.864
927.1444, 8547.838
927.6265, 8543.634
928.1086, 8531.584
928.5908, 8515.188
929.0729, 8501.411
929.5550, 8491.688
930.0371, 8490.003
930.5192, 8511.285
931.0013, 8530.027
931.4835, 8521.809
931.9656, 8495.141
932.4477, 8464.608
932.9298, 8432.844
933.4119, 8395.291
933.8940, 8346.993
934.3762, 8298.089
934.8583, 8258.804
935.3404, 8225.935
935.8225, 8199.158
936.3046, 8174.521
936.7867, 8138.347
937.2689, 8088.705
937.7510, 8047.206
938.2331, 8036.976
938.7152, 8041.173
939.1973, 8034.864
939.6794, 8018.849
940.1616, 7990.043
940.6437, 7951.736
941.1258, 7924.930
941.6079, 7919.457
942.0900, 7919.078
942.5721, 7902.063
943.0543, 7874.122
943.5364, 7856.374
944.0185, 7847.067
944.5006, 7833.353
944.9827, 7812.858
945.4648, 7790.780
945.9470, 7769.708
946.4291, 7753.589
946.9112, 7753.552
947.3933, 7768.082
947.8754, 7769.478
948.3575, 7756.867
948.8397, 7748.740
949.3218, 7750.502
949.8039, 7756.617
950.2860, 7765.005
950.7681, 7769.497
951.2502, 7745.705
951.7324, 7687.956
952.2145, 7658.403
952.6966, 7665.595
953.1787, 7672.428
953.6608, 7665.715
954.1429, 7652.156
954.6251, 7637.922
955.1072, 7623.444
955.5893, 7610.604
956.0714, 7598.837
956.5535, 7590.276
957.0356, 7581.655
957.5178, 7587.111
957.9999, 7626.249
958.4820, 7664.329
958.9641, 7643.708
959.4462, 7564.342
959.9283, 7545.289
960.4105, 7632.542
960.8926, 7679.381
961.3747, 7649.797
961.8568, 7604.510
962.3389, 7576.742
962.8210, 7554.958
963.3032, 7514.199
963.7853, 7447.008
964.2674, 7409.689
964.7495, 7418.316
965.2316, 7432.135
965.7137, 7449.675
966.1959, 7465.173
966.6780, 7478.042
967.1601, 7485.530
967.6422, 7480.151
968.1243, 7457.713
968.6064, 7437.281
969.0886, 7412.994
969.5707, 7399.360
970.0528, 7408.400
970.5349, 7422.145
971.0170, 7425.292
971.4991, 7421.266
971.9813, 7422.393
972.4634, 7432.347
972.9455, 7440.140
973.4276, 7447.822
973.9097, 7448.915
974.3918, 7429.937
974.8740, 7411.561
975.3561, 7419.295
975.8382, 7446.906
976.3203, 7461.792
976.8024, 7452.023
977.2845, 7444.115
977.7667, 7441.964
978.2488, 7444.668
978.7309, 7449.429
979.2130, 7460.409
979.6951, 7487.987
980.1772, 7528.485
980.6594, 7557.645
981.1415, 7569.254
981.6236, 7569.771
982.1057, 7547.115
982.5878, 7528.959
983.0699, 7540.016
983.5521, 7561.375
984.0342, 7564.832
984.5163, 7549.114
984.9984, 7536.449
985.4805, 7537.186
985.9626, 7536.657
986.4448, 7503.088
986.9269, 7492.956
987.4090, 7583.963
987.8911, 7707.632
988.3732, 7752.273
988.8553, 7703.929
989.3375, 7645.057
989.8196, 7587.870
990.3017, 7550.220
990.7838, 7556.632
991.2659, 7569.822
991.7480, 7554.663
992.2302, 7526.569
992.7123, 7517.121
993.1944, 7531.998
993.6765, 7548.813
994.1586, 7557.805
994.6407, 7567.508
995.1229, 7583.252
995.6050, 7600.361
996.0871, 7608.296
996.5692, 7616.438
997.0513, 7649.230
997.5334, 7711.697
998.0156, 7758.493
998.4977, 7761.436
998.9798, 7753.671
999.4619, 7739.026
999.9440, 7732.859
1000.426, 7760.834
1000.908, 7805.374
1001.390, 7824.172
1001.872, 7806.602
1002.355, 7796.843
1002.837, 7831.476
1003.319, 7859.227
1003.801, 7846.433
1004.283, 7818.408
1004.765, 7793.525
1005.247, 7775.818
1005.729, 7769.105
1006.211, 7774.756
1006.694, 7781.582
1007.176, 7786.116
1007.658, 7788.820
1008.140, 7784.429
1008.622, 7782.957
1009.104, 7797.260
1009.586, 7821.946
1010.068, 7844.807
1010.551, 7863.328
1011.033, 7870.627
1011.515, 7849.184
1011.997, 7833.431
1012.479, 7846.271
1012.961, 7870.037
1013.443, 7887.906
1013.925, 7901.692
1014.407, 7920.876
1014.890, 7948.387
1015.372, 7972.621
1015.854, 7987.801
1016.336, 7999.777
1016.818, 8012.588
1017.300, 8022.408
1017.782, 8018.682
1018.264, 8010.476
1018.747, 8020.192
1019.229, 8054.534
1019.711, 8090.173
1020.193, 8123.964
1020.675, 8150.861
1021.157, 8160.265
1021.639, 8169.229
1022.121, 8201.016
1022.603, 8242.723
1023.086, 8256.406
1023.568, 8229.638
1024.050, 8227.145
1024.532, 8306.390
1025.014, 8363.186
1025.496, 8324.077
1025.978, 8276.669
1026.460, 8297.193
1026.943, 8364.536
1027.425, 8427.379
1027.907, 8479.896
1028.389, 8513.045
1028.871, 8509.738
1029.353, 8506.692
1029.835, 8518.721
1030.317, 8531.901
1030.799, 8535.707
1031.282, 8532.946
1031.764, 8527.521
1032.246, 8517.777
1032.728, 8523.152
1033.210, 8564.389
1033.692, 8595.834
1034.174, 8589.854
1034.656, 8587.992
1035.139, 8632.981
1035.621, 8694.699
1036.103, 8713.160
1036.585, 8679.472
1037.067, 8656.440
1037.549, 8643.680
1038.031, 8646.788
1038.513, 8677.790
1038.995, 8712.780
1039.478, 8743.221
1039.960, 8767.090
1040.442, 8781.404
1040.924, 8785.968
1041.406, 8781.493
1041.888, 8755.436
1042.370, 8743.229
1042.852, 8759.890
1043.334, 8773.478
1043.817, 8759.888
1044.299, 8742.017
1044.781, 8755.674
1045.263, 8800.499
1045.745, 8830.151
1046.227, 8838.215
1046.709, 8848.580
1047.191, 8866.987
1047.674, 8878.953
1048.156, 8871.112
1048.638, 8865.118
1049.120, 8891.213
1049.602, 8944.577
1050.084, 8980.528
1050.566, 8993.129
1051.048, 9016.793
1051.531, 9058.993
1052.013, 9089.794
1052.495, 9090.689
1052.977, 9095.085
1053.459, 9140.920
1053.941, 9218.643
1054.423, 9291.781
1054.905, 9359.725
1055.387, 9426.110
1055.870, 9491.519
1056.352, 9542.896
1056.834, 9572.769
1057.316, 9612.262
1057.798, 9691.122
1058.280, 9796.430
1058.762, 9893.031
1059.244, 9983.939
1059.726, 10102.59
1060.209, 10247.22
1060.691, 10361.75
1061.173, 10431.76
1061.655, 10503.88
1062.137, 10615.19
1062.619, 10736.13
1063.101, 10813.08
1063.583, 10856.86
1064.066, 10900.40
1064.548, 10944.94
1065.030, 10993.46
1065.512, 11044.85
1065.994, 11088.24
1066.476, 11118.23
1066.958, 11131.06
1067.440, 11105.21
1067.922, 11070.07
1068.405, 11087.64
1068.887, 11135.63
1069.369, 11157.38
1069.851, 11153.19
1070.333, 11166.28
1070.815, 11215.56
1071.297, 11260.85
1071.779, 11261.71
1072.261, 11246.48
1072.744, 11236.62
1073.226, 11235.76
1073.708, 11256.38
1074.190, 11288.80
1074.672, 11303.23
1075.154, 11292.49
1075.636, 11293.40
1076.118, 11351.58
1076.600, 11397.99
1077.083, 11367.38
1077.565, 11326.18
1078.047, 11352.83
1078.529, 11405.24
1079.011, 11397.15
1079.493, 11320.23
1079.975, 11251.69
1080.457, 11221.90
1080.940, 11194.59
1081.422, 11166.83
1081.904, 11129.50
1082.386, 11064.11
1082.868, 10995.15
1083.350, 10955.77
1083.832, 10942.56
1084.314, 10921.14
1084.797, 10883.48
1085.279, 10846.78
1085.761, 10805.90
1086.243, 10774.44
1086.725, 10757.20
1087.207, 10750.03
1087.689, 10756.34
1088.171, 10767.72
1088.653, 10755.48
1089.135, 10706.73
1089.618, 10696.19
1090.100, 10747.43
1090.582, 10770.90
1091.064, 10737.45
1091.546, 10697.80
1092.028, 10680.97
1092.510, 10685.06
1092.992, 10713.15
1093.475, 10762.05
1093.957, 10765.05
1094.439, 10718.05
1094.921, 10693.54
1095.403, 10703.17
1095.885, 10710.85
1096.367, 10700.26
1096.849, 10673.79
1097.332, 10628.32
1097.814, 10577.71
1098.296, 10571.24
1098.778, 10595.11
1099.260, 10584.22
1099.742, 10539.60
1100.224, 10497.36
1100.706, 10469.35
1101.188, 10450.75
1101.671, 10438.60
1102.153, 10431.44
1102.635, 10427.28
1103.117, 10426.82
1103.599, 10435.33
1104.081, 10446.98
1104.563, 10444.40
1105.045, 10430.51
1105.527, 10430.87
1106.010, 10458.42
1106.492, 10492.04
1106.974, 10525.05
1107.456, 10548.84
1107.938, 10552.07
1108.420, 10545.45
1108.902, 10536.20
1109.384, 10528.75
1109.867, 10528.87
1110.349, 10537.57
1110.831, 10556.38
1111.313, 10598.58
1111.795, 10632.52
1112.277, 10637.48
1112.759, 10642.92
1113.241, 10665.73
1113.724, 10701.35
1114.206, 10744.67
1114.688, 10795.17
1115.170, 10843.28
1115.652, 10897.16
1116.134, 10930.74
1116.616, 10920.08
1117.098, 10937.31
1117.580, 11022.30
1118.063, 11115.25
1118.545, 11161.60
1119.027, 11177.71
1119.509, 11211.18
1119.991, 11264.65
1120.473, 11302.03
1120.955, 11321.39
1121.437, 11345.57
1121.919, 11378.94
1122.402, 11424.00
1122.884, 11483.30
1123.366, 11542.11
1123.848, 11573.51
1124.330, 11592.55
1124.812, 11653.41
1125.294, 11741.21
1125.776, 11802.41
1126.259, 11834.56
1126.741, 11853.05
1127.223, 11865.26
1127.705, 11885.63
1128.187, 11922.34
1128.669, 11978.80
1129.151, 12077.11
1129.633, 12182.58
1130.115, 12242.01
1130.598, 12281.99
1131.080, 12365.50
1131.562, 12483.48
1132.044, 12553.47
1132.526, 12531.87
1133.008, 12526.14
1133.490, 12591.33
1133.972, 12674.52
1134.454, 12756.70
1134.937, 12838.71
1135.419, 12929.19
1135.901, 13017.35
1136.383, 13078.52
1136.865, 13107.16
1137.347, 13146.70
1137.829, 13191.25
1138.311, 13260.53
1138.794, 13375.09
1139.276, 13480.60
1139.758, 13553.47
1140.240, 13609.33
1140.722, 13662.28
1141.204, 13713.83
1141.686, 13765.40
1142.168, 13814.82
1142.651, 13904.04
1143.133, 14035.93
1143.615, 14159.51
1144.097, 14263.00
1144.579, 14344.54
1145.061, 14400.93
1145.543, 14456.50
1146.025, 14552.51
1146.507, 14668.33
1146.990, 14755.96
1147.472, 14822.30
1147.954, 14875.46
1148.436, 14924.99
1148.918, 14995.40
1149.400, 15093.20
1149.882, 15206.46
1150.364, 15346.50
1150.846, 15458.34
1151.329, 15457.46
1151.811, 15453.61
1152.293, 15562.25
1152.775, 15716.49
1153.257, 15819.99
1153.739, 15876.45
1154.221, 15943.20
1154.703, 16034.61
1155.186, 16126.73
1155.668, 16210.39
1156.150, 16300.74
1156.632, 16418.14
1157.114, 16522.86
1157.596, 16585.58
1158.078, 16628.37
1158.560, 16682.49
1159.042, 16746.72
1159.525, 16804.19
1160.007, 16844.07
1160.489, 16954.10
1160.971, 17153.39
1161.453, 17301.21
1161.935, 17350.38
1162.417, 17367.44
1162.899, 17399.41
1163.381, 17454.75
1163.864, 17564.71
1164.346, 17704.29
1164.828, 17793.83
1165.310, 17846.62
1165.792, 17898.75
1166.274, 17956.47
1166.756, 18021.47
1167.238, 18092.73
1167.721, 18148.09
1168.203, 18150.79
1168.685, 18165.19
1169.167, 18264.23
1169.649, 18372.92
1170.131, 18424.09
1170.613, 18441.61
1171.095, 18459.34
1171.578, 18482.21
1172.060, 18508.60
1172.542, 18538.35
1173.024, 18571.62
1173.506, 18593.84
1173.988, 18644.11
1174.470, 18765.10
1174.952, 18861.03
1175.434, 18862.66
1175.917, 18829.39
1176.399, 18850.08
1176.881, 18914.63
1177.363, 18950.18
1177.845, 18955.55
1178.327, 18959.19
1178.809, 18962.78
1179.291, 18955.67
1179.773, 18935.05
1180.256, 18912.89
1180.738, 18897.86
1181.220, 18880.30
1181.702, 18826.97
1182.184, 18777.50
1182.666, 18822.27
1183.148, 18906.54
1183.630, 18934.58
1184.113, 18909.37
1184.595, 18861.25
1185.077, 18803.37
1185.559, 18775.23
1186.041, 18824.94
1186.523, 18852.76
1187.005, 18790.29
1187.487, 18728.21
1187.969, 18737.73
1188.452, 18754.79
1188.934, 18692.40
1189.416, 18587.26
1189.898, 18551.12
1190.380, 18596.12
1190.862, 18613.07
1191.344, 18596.93
1191.826, 18570.03
1192.308, 18533.98
1192.791, 18491.90
1193.273, 18442.73
1193.755, 18410.03
1194.237, 18424.16
1194.719, 18450.73
1195.201, 18396.92
1195.683, 18297.95
1196.165, 18269.85
1196.648, 18289.81
1197.130, 18280.54
1197.612, 18233.86
1198.094, 18177.54
1198.576, 18122.39
1199.058, 18077.13
1199.540, 18055.84
1200.022, 18035.39
1200.505, 18002.85
1200.987, 17964.32
1201.469, 17915.36
1201.951, 17869.86
1202.433, 17859.62
1202.915, 17872.86
1203.397, 17835.62
1203.879, 17718.82
1204.361, 17647.90
1204.844, 17641.26
1205.326, 17635.86
1205.808, 17625.79
1206.290, 17595.25
1206.772, 17530.38
1207.254, 17468.07
1207.736, 17457.29
1208.218, 17473.95
1208.700, 17442.64
1209.183, 17382.01
1209.665, 17366.41
1210.147, 17385.41
1210.629, 17387.61
1211.111, 17367.94
1211.593, 17359.78
1212.075, 17378.52
1212.557, 17395.39
1213.040, 17391.65
1213.522, 17376.80
1214.004, 17344.32
1214.486, 17316.23
1214.968, 17307.63
1215.450, 17316.45
1215.932, 17355.07
##END=



