##NAMES=Gonnardite
##RRUFFID=R100080
##IDEAL CHEMISTRY=(Na,Ca)_2_(Si,Al)_5_O_10_&#183;3H_2_O
##LOCALITY=Rio Chiavone nero, Fara, Breganze, Vicenza, Italy
##OWNER=RRUFF
##SOURCE=Ivano Rocchetti
##DESCRIPTION=White spherical aggregate of acicular crystals, associated with colorless analcime
##STATUS=The identification of this mineral has been confirmed by single-crystal X-ray diffraction.
##URL=rruff.info/R100080
112.2642, 88.64937
112.7463, 88.70756
113.2285, 89.06174
113.7106, 89.35403
114.1927, 89.50096
114.6748, 89.64657
115.1569, 90.05647
115.6390, 90.93410
116.1212, 91.54546
116.6033, 91.41730
117.0854, 91.05184
117.5675, 90.97453
118.0496, 91.47960
118.5317, 92.41303
119.0139, 93.02537
119.4960, 92.76851
119.9781, 92.75884
120.4602, 93.51499
120.9423, 94.65614
121.4244, 95.50262
121.9066, 95.50651
122.3887, 94.59772
122.8708, 93.78428
123.3529, 92.98124
123.8350, 92.31185
124.3171, 91.96818
124.7993, 91.89397
125.2814, 91.75609
125.7635, 91.19787
126.2456, 90.10381
126.7277, 89.06391
127.2098, 88.02879
127.6920, 87.07736
128.1741, 86.31629
128.6562, 85.79154
129.1383, 85.35488
129.6204, 84.90665
130.1025, 84.45380
130.5847, 83.77776
131.0668, 82.53471
131.5489, 80.94115
132.0310, 79.77530
132.5131, 79.34930
132.9952, 79.26658
133.4774, 79.22072
133.9595, 79.19913
134.4416, 79.07528
134.9237, 78.70779
135.4058, 78.06377
135.8879, 77.39615
136.3701, 76.60802
136.8522, 75.90604
137.3343, 75.43855
137.8164, 75.23663
138.2985, 75.20155
138.7806, 75.19592
139.2628, 75.36149
139.7449, 75.26985
140.2270, 74.62440
140.7091, 73.86714
141.1912, 73.44062
141.6733, 73.54478
142.1555, 73.98915
142.6376, 74.11988
143.1197, 73.73317
143.6018, 73.22976
144.0839, 72.43971
144.5660, 71.57900
145.0482, 70.98483
145.5303, 70.86911
146.0124, 71.17748
146.4945, 71.49761
146.9766, 71.85633
147.4587, 72.19666
147.9409, 72.58320
148.4230, 72.96826
148.9051, 73.11504
149.3872, 72.71944
149.8693, 71.92693
150.3514, 71.58897
150.8336, 72.05195
151.3157, 72.77038
151.7978, 73.25109
152.2799, 73.45731
152.7620, 73.63904
153.2441, 73.97012
153.7263, 74.40827
154.2084, 74.91367
154.6905, 75.57696
155.1726, 76.28130
155.6547, 76.72274
156.1368, 76.71090
156.6190, 76.77972
157.1011, 77.34798
157.5832, 78.19688
158.0653, 78.90859
158.5474, 79.21339
159.0295, 79.13039
159.5117, 78.89426
159.9938, 78.08496
160.4759, 77.55317
160.9580, 77.83115
161.4401, 78.68424
161.9222, 79.48814
162.4044, 79.63863
162.8865, 78.99229
163.3686, 78.52718
163.8507, 78.44790
164.3328, 78.35783
164.8149, 78.06422
165.2971, 77.56967
165.7792, 77.02183
166.2613, 76.60428
166.7434, 76.43703
167.2255, 76.03292
167.7076, 75.34065
168.1898, 74.48685
168.6719, 73.51210
169.1540, 72.43642
169.6361, 71.34093
170.1182, 70.32910
170.6003, 69.39951
171.0825, 68.59046
171.5646, 68.06090
172.0467, 67.59576
172.5288, 66.87615
173.0109, 65.77624
173.4930, 64.62180
173.9752, 64.06010
174.4573, 64.17614
174.9394, 64.10622
175.4215, 63.48121
175.9036, 62.48797
176.3857, 61.51577
176.8679, 60.60432
177.3500, 59.85901
177.8321, 59.44855
178.3142, 59.39643
178.7963, 59.33770
179.2784, 59.06852
179.7606, 58.60110
180.2427, 58.03611
180.7248, 57.27320
181.2069, 56.53482
181.6890, 56.04467
182.1711, 55.82477
182.6533, 55.66401
183.1354, 55.36411
183.6175, 54.91083
184.0996, 54.43239
184.5817, 53.82249
185.0638, 53.28097
185.5460, 52.96600
186.0281, 52.90645
186.5102, 52.96185
186.9923, 52.95024
187.4744, 52.86841
187.9565, 52.71959
188.4387, 52.58345
188.9208, 52.34562
189.4029, 51.86033
189.8850, 51.09536
190.3671, 50.22754
190.8492, 49.59233
191.3314, 49.39204
191.8135, 49.11625
192.2956, 48.49236
192.7777, 47.90506
193.2598, 47.77096
193.7419, 48.24256
194.2241, 49.05143
194.7062, 49.55079
195.1883, 49.54810
195.6704, 49.41211
196.1525, 49.06196
196.6346, 48.61085
197.1168, 48.17689
197.5989, 47.80981
198.0810, 47.50205
198.5631, 47.23675
199.0452, 47.01803
199.5273, 46.83117
200.0095, 46.63111
200.4916, 46.46757
200.9737, 46.44954
201.4558, 46.65380
201.9379, 46.97703
202.4200, 47.13161
202.9022, 47.17154
203.3843, 47.01889
203.8664, 46.39948
204.3485, 45.52872
204.8306, 45.06413
205.3127, 45.43479
205.7949, 46.22337
206.2770, 46.49979
206.7591, 46.13753
207.2412, 45.60819
207.7233, 45.11738
208.2054, 44.66620
208.6876, 44.27012
209.1697, 43.91432
209.6518, 43.64593
210.1339, 43.51815
210.6160, 43.55877
211.0981, 43.66831
211.5803, 43.79899
212.0624, 43.95094
212.5445, 44.05593
213.0266, 44.17461
213.5087, 44.16634
213.9908, 43.81453
214.4730, 43.02768
214.9551, 42.23422
215.4372, 41.95678
215.9193, 42.27533
216.4014, 42.60580
216.8836, 42.80373
217.3657, 42.94232
217.8478, 43.04493
218.3299, 43.11501
218.8120, 43.20081
219.2941, 43.41669
219.7763, 43.86436
220.2584, 44.09577
220.7405, 43.87238
221.2226, 43.51764
221.7047, 43.25353
222.1868, 43.13843
222.6690, 43.06660
223.1511, 42.82070
223.6332, 42.17505
224.1153, 41.89163
224.5974, 42.37120
225.0795, 42.97123
225.5617, 43.24091
226.0438, 43.05139
226.5259, 42.56670
227.0080, 42.02000
227.4901, 41.16734
227.9722, 40.74546
228.4544, 41.09627
228.9365, 41.62639
229.4186, 41.83148
229.9007, 41.58759
230.3828, 41.18282
230.8649, 41.13157
231.3471, 41.78965
231.8292, 42.24354
232.3113, 42.49076
232.7934, 42.55774
233.2755, 42.38328
233.7576, 41.97548
234.2398, 41.51853
234.7219, 41.32760
235.2040, 41.61739
235.6861, 41.80940
236.1682, 41.87917
236.6503, 41.86775
237.1325, 41.76681
237.6146, 41.58288
238.0967, 41.41981
238.5788, 41.45662
239.0609, 41.87600
239.5430, 42.05511
240.0252, 41.81266
240.5073, 41.39931
240.9894, 41.03382
241.4715, 40.76756
241.9536, 40.59380
242.4357, 40.53522
242.9179, 40.64388
243.4000, 40.62840
243.8821, 40.33552
244.3642, 39.96358
244.8463, 39.73955
245.3284, 39.71169
245.8106, 39.75096
246.2927, 39.66596
246.7748, 39.44193
247.2569, 39.43207
247.7390, 40.02391
248.2211, 40.71340
248.7033, 40.79049
249.1854, 40.08854
249.6675, 39.25824
250.1496, 39.01780
250.6317, 39.27035
251.1138, 39.39461
251.5960, 39.17539
252.0781, 38.79685
252.5602, 38.45514
253.0423, 38.15457
253.5244, 37.97436
254.0065, 38.09063
254.4887, 38.40181
254.9708, 38.63178
255.4529, 38.70547
255.9350, 38.66208
256.4171, 38.53157
256.8992, 38.29810
257.3813, 38.05538
257.8635, 37.89003
258.3456, 37.75956
258.8277, 37.58695
259.3098, 37.32143
259.7919, 37.02076
260.2740, 36.77586
260.7562, 36.60114
261.2383, 36.41967
261.7204, 36.05580
262.2025, 35.69091
262.6846, 35.60339
263.1667, 36.02573
263.6489, 36.57246
264.1310, 36.62693
264.6131, 36.05689
265.0952, 35.57022
265.5773, 35.56405
266.0594, 35.77311
266.5416, 35.96949
267.0237, 36.08768
267.5058, 36.18928
267.9879, 36.38868
268.4700, 36.72690
268.9521, 36.97096
269.4343, 36.98461
269.9164, 36.89922
270.3985, 36.78741
270.8806, 36.66252
271.3627, 36.55208
271.8448, 36.52262
272.3270, 36.60980
272.8091, 36.58942
273.2912, 36.35330
273.7733, 36.02116
274.2554, 35.56928
274.7375, 35.00790
275.2197, 34.57447
275.7018, 34.59988
276.1839, 35.16590
276.6660, 35.65532
277.1481, 36.05441
277.6302, 36.29255
278.1124, 36.24915
278.5945, 35.95085
279.0766, 35.59784
279.5587, 35.39324
280.0408, 35.35576
280.5229, 35.29185
281.0051, 35.08601
281.4872, 34.95049
281.9693, 35.07513
282.4514, 35.38003
282.9335, 35.58974
283.4156, 35.38751
283.8978, 34.75834
284.3799, 34.43470
284.8620, 34.78682
285.3441, 35.08781
285.8262, 35.03664
286.3083, 34.73676
286.7905, 34.44021
287.2726, 34.32631
287.7547, 34.37724
288.2368, 34.43053
288.7189, 34.52717
289.2010, 34.57223
289.6832, 34.52465
290.1653, 34.41475
290.6474, 34.24937
291.1295, 33.99836
291.6116, 33.75270
292.0938, 33.93521
292.5759, 35.10347
293.0580, 35.89038
293.5401, 35.91541
294.0222, 35.50292
294.5043, 34.95194
294.9865, 34.38631
295.4686, 33.87763
295.9507, 33.61111
296.4328, 33.70177
296.9149, 33.85010
297.3970, 34.06988
297.8792, 34.29274
298.3613, 34.48806
298.8434, 34.63975
299.3255, 34.69888
299.8076, 34.52871
300.2897, 33.87802
300.7719, 33.58421
301.2540, 33.94582
301.7361, 34.42699
302.2182, 34.76706
302.7003, 34.88445
303.1824, 34.76347
303.6646, 34.27111
304.1467, 33.14284
304.6288, 32.63266
305.1109, 33.33604
305.5930, 34.09573
306.0751, 34.36889
306.5573, 34.18174
307.0394, 33.87159
307.5215, 33.74353
308.0036, 33.81416
308.4857, 33.81269
308.9678, 33.51952
309.4500, 33.37051
309.9321, 33.61269
310.4142, 34.09730
310.8963, 34.51161
311.3784, 34.63604
311.8605, 34.51196
312.3427, 34.46464
312.8248, 34.56161
313.3069, 34.66302
313.7890, 34.78130
314.2711, 34.87818
314.7532, 34.87665
315.2354, 34.73080
315.7175, 34.53350
316.1996, 34.56308
316.6817, 34.98399
317.1638, 35.38683
317.6459, 35.82422
318.1281, 36.17484
318.6102, 36.27350
319.0923, 36.08423
319.5744, 35.79226
320.0565, 35.73120
320.5386, 36.08320
321.0208, 36.24072
321.5029, 35.97765
321.9850, 35.69564
322.4671, 35.64938
322.9492, 35.86239
323.4313, 36.18862
323.9135, 36.48307
324.3956, 36.74419
324.8777, 36.97689
325.3598, 37.14752
325.8419, 37.32117
326.3240, 37.55842
326.8062, 37.82592
327.2883, 38.03248
327.7704, 38.09398
328.2525, 38.02131
328.7346, 38.01360
329.2167, 38.16807
329.6989, 38.27896
330.1810, 38.21315
330.6631, 38.09114
331.1452, 38.11020
331.6273, 38.39105
332.1094, 38.83207
332.5916, 39.10488
333.0737, 39.06989
333.5558, 39.10303
334.0379, 39.34528
334.5200, 39.63612
335.0021, 39.78497
335.4843, 39.73662
335.9664, 39.66024
336.4485, 39.89403
336.9306, 40.65290
337.4127, 41.07337
337.8948, 40.80684
338.3770, 40.39783
338.8591, 40.12401
339.3412, 40.02579
339.8233, 40.02094
340.3055, 40.04097
340.7876, 40.08826
341.2697, 40.13257
341.7518, 40.09691
342.2339, 40.14001
342.7160, 40.45422
343.1982, 40.90424
343.6803, 41.17253
344.1624, 41.01091
344.6445, 40.50050
345.1266, 40.04210
345.6087, 39.65173
346.0909, 39.29267
346.5730, 38.83661
347.0551, 38.43453
347.5372, 38.34845
348.0193, 38.74948
348.5014, 39.28362
348.9836, 39.23979
349.4657, 38.41306
349.9478, 37.69714
350.4299, 37.33980
350.9120, 37.17169
351.3941, 37.11585
351.8763, 37.15367
352.3584, 37.23677
352.8405, 37.39705
353.3226, 37.64479
353.8047, 37.59173
354.2868, 36.93053
354.7690, 36.21131
355.2511, 35.72451
355.7332, 35.46965
356.2153, 35.39450
356.6974, 35.60749
357.1795, 35.99630
357.6617, 36.10455
358.1438, 35.84822
358.6259, 35.46834
359.1080, 35.02175
359.5901, 34.56502
360.0722, 34.18822
360.5544, 33.92396
361.0365, 33.75354
361.5186, 33.66517
362.0007, 33.66793
362.4828, 33.68403
362.9649, 33.66133
363.4471, 33.65034
363.9292, 33.74842
364.4113, 34.00944
364.8934, 34.17852
365.3755, 33.98199
365.8576, 33.49037
366.3398, 33.10393
366.8219, 32.95735
367.3040, 32.87647
367.7861, 32.65382
368.2682, 32.30574
368.7503, 32.00911
369.2325, 31.73956
369.7146, 31.59304
370.1967, 31.86508
370.6788, 32.66991
371.1609, 33.32923
371.6430, 33.14857
372.1252, 32.38105
372.6073, 31.88539
373.0894, 32.00693
373.5715, 32.25019
374.0536, 32.20738
374.5357, 31.92373
375.0179, 31.67653
375.5000, 31.62907
375.9821, 31.67487
376.4642, 31.51554
376.9463, 30.95189
377.4284, 30.65720
377.9106, 31.19598
378.3927, 32.09887
378.8748, 32.48792
379.3569, 32.09362
379.8390, 31.44536
380.3211, 31.25837
380.8033, 31.66084
381.2854, 31.75782
381.7675, 31.15553
382.2496, 30.46297
382.7317, 30.14374
383.2138, 30.21929
383.6960, 30.50036
384.1781, 30.89358
384.6602, 31.37666
385.1423, 31.64572
385.6244, 31.59348
386.1065, 31.49193
386.5887, 31.34730
387.0708, 31.22747
387.5529, 31.28677
388.0350, 31.60359
388.5171, 32.00999
388.9992, 32.13583
389.4814, 31.76090
389.9635, 31.41979
390.4456, 31.08380
390.9277, 30.79948
391.4098, 30.60103
391.8919, 30.49501
392.3741, 30.47501
392.8562, 30.54986
393.3383, 30.74343
393.8204, 30.84943
394.3025, 30.68826
394.7846, 30.63115
395.2668, 30.97223
395.7489, 31.49312
396.2310, 31.75424
396.7131, 31.47520
397.1952, 30.84491
397.6773, 30.53509
398.1595, 30.80453
398.6416, 30.97397
399.1237, 30.84058
399.6058, 30.65183
400.0879, 30.66167
400.5700, 30.91155
401.0522, 31.18453
401.5343, 31.17525
402.0164, 30.81213
402.4985, 30.59344
402.9806, 30.63233
403.4627, 30.73678
403.9449, 30.81289
404.4270, 30.88596
404.9091, 31.05005
405.3912, 31.44351
405.8733, 31.93038
406.3554, 32.00829
406.8376, 31.44006
407.3197, 31.05905
407.8018, 31.50047
408.2839, 32.15527
408.7660, 32.34407
409.2481, 31.84382
409.7303, 31.22359
410.2124, 31.03420
410.6945, 31.25780
411.1766, 31.64262
411.6587, 32.32742
412.1408, 32.90516
412.6230, 32.90681
413.1051, 32.41392
413.5872, 32.02375
414.0693, 32.04939
414.5514, 32.30839
415.0335, 32.55244
415.5157, 32.77526
415.9978, 32.89571
416.4799, 32.80106
416.9620, 32.56924
417.4441, 32.44298
417.9262, 32.40311
418.4084, 32.50718
418.8905, 32.89772
419.3726, 33.46151
419.8547, 33.91047
420.3368, 34.14838
420.8189, 34.22474
421.3011, 34.15781
421.7832, 33.85574
422.2653, 33.80694
422.7474, 34.22650
423.2295, 34.81098
423.7116, 35.34282
424.1938, 35.78900
424.6759, 36.18725
425.1580, 36.59597
425.6401, 36.99730
426.1222, 37.05621
426.6043, 36.32345
427.0865, 35.82444
427.5686, 35.91238
428.0507, 36.35478
428.5328, 36.83411
429.0149, 37.22766
429.4970, 37.59168
429.9792, 38.04712
430.4613, 38.74696
430.9434, 39.19548
431.4255, 39.13935
431.9076, 39.09946
432.3897, 39.48024
432.8719, 40.17285
433.3540, 40.72507
433.8361, 40.72954
434.3182, 40.29428
434.8003, 40.22976
435.2824, 40.84883
435.7646, 41.36739
436.2467, 41.40773
436.7288, 41.34605
437.2109, 41.66310
437.6930, 42.51491
438.1751, 43.43061
438.6573, 43.71809
439.1394, 43.31277
439.6215, 43.19542
440.1036, 43.67722
440.5857, 44.28583
441.0678, 44.80094
441.5500, 45.19461
442.0321, 45.39144
442.5142, 45.20012
442.9963, 44.84963
443.4784, 44.77568
443.9605, 45.00698
444.4427, 45.30119
444.9248, 45.62388
445.4069, 45.88799
445.8890, 45.92379
446.3711, 45.62653
446.8532, 45.37595
447.3354, 45.62298
447.8175, 46.04081
448.2996, 45.78582
448.7817, 44.58967
449.2638, 43.24263
449.7459, 42.67369
450.2281, 42.94320
450.7102, 42.83104
451.1923, 42.01555
451.6744, 41.05300
452.1565, 40.24136
452.6386, 39.57259
453.1208, 38.97334
453.6029, 38.40722
454.0850, 37.86896
454.5671, 37.34510
455.0492, 36.89892
455.5313, 36.37559
456.0135, 35.63934
456.4956, 34.91491
456.9777, 34.35199
457.4598, 33.98549
457.9419, 33.80479
458.4240, 33.83992
458.9062, 34.09693
459.3883, 34.12836
459.8704, 33.67291
460.3525, 33.27615
460.8346, 33.05246
461.3167, 32.95514
461.7989, 32.94006
462.2810, 32.99192
462.7631, 33.05441
463.2452, 33.07253
463.7273, 33.07022
464.2094, 32.86361
464.6916, 32.07572
465.1737, 31.42028
465.6558, 31.44799
466.1379, 31.99658
466.6200, 32.43646
467.1021, 32.36403
467.5843, 31.98786
468.0664, 31.69774
468.5485, 31.49336
469.0306, 31.36831
469.5127, 31.30718
469.9948, 31.34072
470.4770, 31.57788
470.9591, 32.14495
471.4412, 32.45046
471.9233, 31.99925
472.4054, 31.13529
472.8875, 30.41249
473.3697, 29.91662
473.8518, 29.77503
474.3339, 30.27481
474.8160, 31.38839
475.2981, 31.82156
475.7802, 30.98766
476.2624, 30.10999
476.7445, 29.68659
477.2266, 29.61447
477.7087, 29.70160
478.1908, 29.87410
478.6729, 30.08458
479.1551, 30.25841
479.6372, 30.45333
480.1193, 30.45843
480.6014, 30.01699
481.0835, 29.64083
481.5656, 29.67403
482.0478, 30.02641
482.5299, 30.41299
483.0120, 30.66480
483.4941, 30.77374
483.9762, 30.68251
484.4583, 30.29434
484.9405, 29.89986
485.4226, 29.38981
485.9047, 29.00511
486.3868, 29.04482
486.8689, 29.50272
487.3510, 29.94704
487.8332, 29.95045
488.3153, 29.61274
488.7974, 29.44992
489.2795, 29.56391
489.7616, 29.64575
490.2437, 29.36250
490.7259, 28.95834
491.2080, 28.84693
491.6901, 29.25308
492.1722, 29.66250
492.6543, 29.54457
493.1364, 29.12560
493.6186, 29.18462
494.1007, 30.03400
494.5828, 30.89959
495.0649, 30.78661
495.5470, 29.56918
496.0291, 28.79553
496.5113, 28.66084
496.9934, 28.84313
497.4755, 29.39391
497.9576, 30.10656
498.4397, 30.47440
498.9218, 30.23292
499.4040, 29.70608
499.8861, 29.64432
500.3682, 30.53157
500.8503, 30.98960
501.3324, 30.59797
501.8145, 30.18868
502.2967, 30.37329
502.7788, 31.02436
503.2609, 31.55965
503.7430, 31.52491
504.2251, 31.12432
504.7072, 31.21468
505.1894, 32.12204
505.6715, 32.77124
506.1536, 32.54397
506.6357, 32.18394
507.1178, 32.30877
507.5999, 32.98077
508.0821, 33.74561
508.5642, 34.37278
509.0463, 34.83207
509.5284, 34.90724
510.0105, 34.44448
510.4926, 34.23641
510.9748, 34.93573
511.4569, 36.20525
511.9390, 37.22572
512.4211, 37.85892
512.9032, 38.40545
513.3853, 38.94895
513.8674, 39.51811
514.3495, 40.20390
514.8317, 41.03125
515.3138, 41.78304
515.7959, 42.16764
516.2780, 42.12995
516.7601, 42.65614
517.2422, 44.26228
517.7244, 45.76080
518.2065, 46.70314
518.6886, 47.30572
519.1707, 47.81889
519.6528, 48.35101
520.1349, 49.04596
520.6171, 50.24613
521.0992, 52.23896
521.5813, 53.56018
522.0634, 53.29877
522.5455, 53.25533
523.0276, 54.22540
523.5098, 55.86457
523.9919, 57.47668
524.4740, 58.76036
524.9561, 59.89312
525.4382, 61.14934
525.9203, 62.52418
526.4025, 63.90055
526.8846, 65.27930
527.3667, 66.59901
527.8488, 67.90121
528.3309, 69.15012
528.8130, 70.08501
529.2952, 70.43624
529.7773, 70.58785
530.2594, 70.89097
530.7415, 71.31454
531.2236, 71.75729
531.7057, 72.24904
532.1879, 72.51704
532.6700, 72.00220
533.1521, 70.31339
533.6342, 68.66670
534.1163, 67.09692
534.5984, 65.56979
535.0806, 64.13850
535.5627, 62.73677
536.0448, 61.19070
536.5269, 59.39210
537.0090, 57.41253
537.4911, 55.47246
537.9733, 53.46572
538.4554, 51.70382
538.9375, 50.42764
539.4196, 49.22589
539.9017, 47.82013
540.3839, 46.23429
540.8660, 44.69036
541.3481, 43.33978
541.8302, 42.11987
542.3123, 40.89275
542.7944, 39.65652
543.2766, 38.43110
543.7587, 37.11018
544.2408, 35.91665
544.7229, 35.22975
545.2050, 35.11772
545.6871, 34.87380
546.1693, 34.10232
546.6514, 33.17726
547.1335, 32.49127
547.6156, 32.05800
548.0977, 31.72388
548.5798, 31.41035
549.0620, 31.10588
549.5441, 30.77453
550.0262, 30.34144
550.5083, 29.98367
550.9904, 29.69267
551.4725, 29.48366
551.9547, 29.41678
552.4368, 29.45331
552.9189, 29.45803
553.4010, 29.31732
553.8831, 29.08216
554.3652, 28.96940
554.8474, 29.03216
555.3295, 29.08485
555.8116, 29.26597
556.2937, 29.28761
556.7758, 28.77421
557.2579, 27.76973
557.7401, 26.93751
558.2222, 26.72412
558.7043, 26.91024
559.1864, 27.23909
559.6685, 27.70234
560.1506, 27.86207
560.6328, 27.35000
561.1149, 26.55152
561.5970, 26.38079
562.0791, 27.06571
562.5612, 27.51592
563.0433, 27.40481
563.5255, 27.07655
564.0076, 26.77375
564.4897, 26.52347
564.9718, 26.26713
565.4539, 25.95808
565.9360, 25.64591
566.4182, 25.50586
566.9003, 25.62119
567.3824, 25.75631
567.8645, 25.90841
568.3466, 26.06163
568.8287, 26.23327
569.3109, 26.40203
569.7930, 26.50377
570.2751, 26.50513
570.7572, 26.40948
571.2393, 26.20817
571.7214, 25.89583
572.2036, 25.53064
572.6857, 24.99906
573.1678, 24.57539
573.6499, 24.66427
574.1320, 25.24863
574.6141, 25.71021
575.0963, 25.90347
575.5784, 25.88658
576.0605, 25.58459
576.5426, 25.09939
577.0247, 24.73040
577.5068, 24.61230
577.9890, 24.69874
578.4711, 24.92474
578.9532, 25.41291
579.4353, 25.72342
579.9174, 25.76090
580.3995, 25.74073
580.8817, 25.77758
581.3638, 25.83187
581.8459, 25.80431
582.3280, 25.64329
582.8101, 25.41904
583.2922, 25.23143
583.7744, 25.08026
584.2565, 24.98386
584.7386, 24.99248
585.2207, 24.98683
585.7029, 24.84671
586.1850, 24.62766
586.6671, 24.46412
587.1492, 24.31348
587.6313, 24.32713
588.1135, 24.78127
588.5956, 25.46721
589.0777, 25.88878
589.5598, 25.91860
590.0419, 25.74520
590.5240, 25.56053
591.0062, 25.37000
591.4883, 25.05788
591.9704, 24.31661
592.4525, 23.83877
592.9346, 23.93589
593.4167, 24.31534
593.8989, 24.70274
594.3810, 25.00536
594.8631, 25.19490
595.3452, 25.22938
595.8273, 25.11633
596.3094, 24.90310
596.7916, 24.45887
597.2737, 24.21178
597.7558, 24.60309
598.2379, 25.15982
598.7200, 25.35122
599.2021, 25.08675
599.6843, 24.80162
600.1664, 24.75372
600.6485, 24.79864
601.1306, 24.71919
601.6127, 24.51148
602.0948, 24.29598
602.5770, 24.12970
603.0591, 24.02435
603.5412, 24.01716
604.0233, 24.23998
604.5054, 24.34246
604.9875, 24.25789
605.4697, 24.11384
605.9518, 23.99693
606.4339, 23.88998
606.9160, 23.69914
607.3981, 23.34933
607.8802, 22.99401
608.3624, 22.98208
608.8445, 23.36491
609.3266, 23.68852
609.8087, 23.87340
610.2908, 23.99370
610.7729, 24.13720
611.2551, 24.26863
611.7372, 24.26662
612.2193, 23.93625
612.7014, 23.66884
613.1835, 23.92130
613.6656, 24.41810
614.1478, 24.49352
614.6299, 23.98618
615.1120, 23.33144
615.5941, 22.93870
616.0762, 22.80818
616.5583, 22.89583
617.0405, 23.57075
617.5226, 24.00058
618.0047, 23.87004
618.4868, 23.54343
618.9689, 23.35269
619.4510, 23.35854
619.9332, 23.45582
620.4153, 23.61250
620.8974, 23.77832
621.3795, 23.71925
621.8616, 23.37351
622.3438, 23.14348
622.8259, 23.26804
623.3080, 23.50272
623.7901, 23.48043
624.2722, 23.18220
624.7543, 23.01027
625.2365, 23.24943
625.7186, 23.50727
626.2007, 23.46440
626.6828, 23.16669
627.1649, 22.70285
627.6470, 22.09959
628.1292, 21.61939
628.6113, 21.75982
629.0934, 22.78634
629.5755, 23.32177
630.0576, 22.85331
630.5397, 22.42251
631.0219, 22.30803
631.5040, 22.42086
631.9861, 22.67141
632.4682, 23.04100
632.9503, 23.34537
633.4324, 23.38709
633.9146, 23.22846
634.3967, 23.01591
634.8788, 22.74051
635.3609, 22.63021
635.8430, 22.90301
636.3251, 23.38823
636.8073, 23.57363
637.2894, 23.34609
637.7715, 23.14571
638.2536, 22.96214
638.7357, 22.89128
639.2178, 23.09656
639.7000, 23.48355
640.1821, 23.79956
640.6642, 23.90982
641.1463, 23.85706
641.6284, 23.69059
642.1105, 23.36884
642.5927, 23.16669
643.0748, 23.21058
643.5569, 23.24732
644.0390, 23.09340
644.5211, 22.83893
645.0032, 22.67323
645.4854, 22.67130
645.9675, 22.68942
646.4496, 22.56186
646.9317, 22.40910
647.4138, 22.48787
647.8959, 22.82331
648.3781, 23.20255
648.8602, 23.46465
649.3423, 23.64252
649.8244, 23.89069
650.3065, 24.55969
650.7886, 24.75409
651.2708, 23.98020
651.7529, 23.14511
652.2350, 22.86654
652.7171, 23.05814
653.1992, 23.32578
653.6813, 23.50149
654.1635, 23.55246
654.6456, 23.35240
655.1277, 22.92997
655.6098, 22.66584
656.0919, 22.67138
656.5740, 22.73524
657.0562, 22.68959
657.5383, 22.54264
658.0204, 22.38953
658.5025, 22.10054
658.9846, 21.96873
659.4667, 22.20435
659.9489, 22.56335
660.4310, 22.76417
660.9131, 22.80222
661.3952, 22.89781
661.8773, 23.24335
662.3594, 23.71233
662.8416, 23.85296
663.3237, 23.55344
663.8058, 23.34507
664.2879, 23.45025
664.7700, 23.53598
665.2521, 23.26835
665.7343, 22.77427
666.2164, 22.49341
666.6985, 22.62468
667.1806, 22.90107
667.6627, 23.30236
668.1448, 23.67189
668.6270, 23.59661
669.1091, 23.03289
669.5912, 22.49894
670.0733, 22.46102
670.5554, 22.85053
671.0375, 23.17443
671.5197, 23.41082
672.0018, 23.61151
672.4839, 23.83486
672.9660, 23.98244
673.4481, 23.91734
673.9302, 23.70687
674.4124, 23.58802
674.8945, 23.74064
675.3766, 23.94062
675.8587, 23.86664
676.3408, 23.58158
676.8229, 23.37954
677.3051, 23.32904
677.7872, 23.33245
678.2693, 23.30835
678.7514, 23.25991
679.2335, 23.22333
679.7156, 23.14329
680.1978, 23.14779
680.6799, 23.30419
681.1620, 23.51541
681.6441, 23.80091
682.1262, 24.07782
682.6083, 24.08372
683.0905, 23.58083
683.5726, 22.88918
684.0547, 22.61971
684.5368, 22.77253
685.0189, 23.06486
685.5010, 23.56970
685.9832, 23.90454
686.4653, 23.55457
686.9474, 22.71754
687.4295, 22.42109
687.9116, 23.30591
688.3937, 23.88747
688.8759, 23.37043
689.3580, 22.58896
689.8401, 22.43351
690.3222, 22.88922
690.8043, 23.38526
691.2864, 23.55451
691.7686, 23.50873
692.2507, 23.53255
692.7328, 23.65962
693.2149, 23.62978
693.6970, 23.31649
694.1791, 22.97306
694.6613, 22.72958
695.1434, 22.58968
695.6255, 22.58296
696.1076, 22.78014
696.5897, 22.97581
697.0718, 23.03295
697.5540, 23.06330
698.0361, 23.29000
698.5182, 23.65579
699.0003, 23.79130
699.4824, 23.44646
699.9645, 22.86035
700.4467, 22.61963
700.9288, 22.79418
701.4109, 23.06650
701.8930, 23.54832
702.3751, 23.96692
702.8572, 24.31811
703.3394, 24.48427
703.8215, 24.15068
704.3036, 23.07629
704.7857, 22.24314
705.2678, 22.49910
705.7499, 23.18440
706.2321, 23.32474
706.7142, 22.96356
707.1963, 22.81526
707.6784, 23.27721
708.1605, 24.00580
708.6426, 24.30259
709.1248, 24.02615
709.6069, 23.82309
710.0890, 23.75333
710.5711, 23.68723
711.0532, 23.56047
711.5353, 23.42080
712.0175, 23.34112
712.4996, 23.33773
712.9817, 23.32919
713.4638, 23.35861
713.9459, 23.29870
714.4280, 22.81457
714.9102, 22.02289
715.3923, 21.53156
715.8744, 21.60757
716.3565, 22.03018
716.8386, 22.52720
717.3207, 23.14898
717.8029, 23.46036
718.2850, 23.06281
718.7671, 22.84523
719.2492, 23.34219
719.7313, 23.89833
720.2134, 23.72429
720.6956, 22.80491
721.1777, 22.00810
721.6598, 21.90558
722.1419, 22.16204
722.6240, 22.44298
723.1061, 22.72097
723.5883, 22.87037
724.0704, 22.84758
724.5525, 22.79307
725.0346, 22.86050
725.5167, 23.04555
725.9988, 23.18505
726.4810, 23.30097
726.9631, 23.33533
727.4452, 23.20272
727.9273, 23.05406
728.4094, 23.02770
728.8915, 23.09469
729.3737, 23.11633
729.8558, 23.03030
730.3379, 22.86960
730.8200, 22.56106
731.3021, 22.21344
731.7842, 22.19378
732.2664, 22.55927
732.7485, 22.93906
733.2306, 23.06044
733.7127, 22.96749
734.1948, 22.81845
734.6769, 22.44909
735.1591, 22.32958
735.6412, 22.71360
736.1233, 23.08787
736.6054, 23.18455
737.0875, 23.08568
737.5696, 22.95448
738.0518, 22.83137
738.5339, 22.74396
739.0160, 22.74093
739.4981, 22.77757
739.9802, 22.74842
740.4623, 22.66056
740.9445, 22.65345
741.4266, 22.81272
741.9087, 23.01426
742.3908, 23.02266
742.8729, 22.77502
743.3550, 22.60361
743.8372, 22.39629
744.3193, 22.41128
744.8014, 22.90960
745.2835, 23.55198
745.7656, 24.04513
746.2477, 24.32777
746.7299, 24.29222
747.2120, 23.58181
747.6941, 22.74634
748.1762, 22.48035
748.6583, 22.63423
749.1404, 22.73837
749.6226, 22.65750
750.1047, 22.48149
750.5868, 22.27215
751.0689, 22.05163
751.5510, 22.09801
752.0331, 22.75220
752.5153, 23.01342
752.9974, 22.19370
753.4795, 21.39541
753.9616, 21.43467
754.4437, 22.08701
754.9258, 22.55890
755.4080, 22.55620
755.8901, 22.42620
756.3722, 22.28524
756.8543, 22.22239
757.3364, 22.46441
757.8185, 22.96169
758.3007, 23.36297
758.7828, 23.45376
759.2649, 23.32706
759.7470, 23.13500
760.2291, 22.81049
760.7112, 22.76818
761.1934, 23.26740
761.6755, 23.65970
762.1576, 23.64246
762.6397, 23.34557
763.1218, 22.84642
763.6039, 22.11315
764.0861, 21.52689
764.5682, 21.15445
765.0503, 21.03646
765.5324, 21.43921
766.0145, 22.06333
766.4966, 22.25571
766.9788, 21.87551
767.4609, 21.48421
767.9430, 21.71775
768.4251, 22.39979
768.9072, 22.58074
769.3893, 22.14597
769.8715, 21.79465
770.3536, 21.67741
770.8357, 21.72366
771.3178, 21.97107
771.7999, 22.35478
772.2820, 22.53351
772.7642, 22.29528
773.2463, 22.11084
773.7284, 22.17426
774.2105, 22.29218
774.6926, 22.31663
775.1747, 22.23766
775.6569, 22.04244
776.1390, 21.70321
776.6211, 21.45700
777.1032, 21.69761
777.5853, 22.34059
778.0674, 23.02112
778.5496, 23.77299
779.0317, 23.97414
779.5138, 23.13137
779.9959, 21.84653
780.4780, 21.15091
780.9601, 21.13477
781.4423, 21.39419
781.9244, 22.38478
782.4065, 23.08656
782.8886, 23.05200
783.3707, 22.63932
783.8528, 22.12710
784.3350, 21.62052
784.8171, 21.30349
785.2992, 21.35508
785.7813, 21.57670
786.2634, 21.74740
786.7455, 21.87040
787.2277, 21.95917
787.7098, 22.01600
788.1919, 22.02520
788.6740, 21.97348
789.1561, 21.86559
789.6382, 21.70252
790.1204, 21.39991
790.6025, 21.24931
791.0846, 21.38548
791.5667, 21.54671
792.0488, 21.64263
792.5309, 21.68110
793.0131, 21.65527
793.4952, 21.54687
793.9773, 21.50643
794.4594, 21.65940
794.9415, 21.86466
795.4236, 22.05079
795.9058, 22.17168
796.3879, 22.07948
796.8700, 21.75526
797.3521, 21.48694
797.8342, 21.62450
798.3163, 22.05268
798.7985, 22.13564
799.2806, 21.80571
799.7627, 21.52663
800.2448, 21.41911
800.7269, 21.36150
801.2090, 21.26195
801.6912, 21.12293
802.1733, 20.95596
802.6554, 20.53960
803.1375, 20.44790
803.6196, 21.20098
804.1017, 21.94038
804.5839, 21.97450
805.0660, 21.51385
805.5481, 21.05974
806.0302, 20.79572
806.5123, 20.67664
806.9944, 20.70594
807.4766, 20.83206
807.9587, 20.94574
808.4408, 21.04127
808.9229, 21.07656
809.4050, 21.01841
809.8871, 21.02275
810.3693, 21.34043
810.8514, 21.96318
811.3335, 22.08063
811.8156, 21.28345
812.2977, 20.66406
812.7798, 20.36392
813.2620, 20.29955
813.7441, 20.47920
814.2262, 20.85005
814.7083, 21.32233
815.1904, 22.00712
815.6725, 22.44885
816.1547, 22.24775
816.6368, 21.77012
817.1189, 21.39768
817.6010, 21.13924
818.0831, 20.82975
818.5652, 20.40542
819.0474, 20.13429
819.5295, 20.46293
820.0116, 21.30731
820.4937, 21.90400
820.9758, 22.23987
821.4579, 22.39300
821.9401, 22.34525
822.4222, 22.19633
822.9043, 22.04002
823.3864, 21.87644
823.8685, 21.69036
824.3506, 21.48125
824.8328, 21.25339
825.3149, 20.85404
825.7970, 20.57234
826.2791, 20.69977
826.7612, 21.10168
827.2433, 21.44589
827.7255, 21.61337
828.2076, 21.71120
828.6897, 21.83925
829.1718, 21.95265
829.6539, 21.95888
830.1360, 21.87455
830.6182, 21.79654
831.1003, 21.76177
831.5824, 21.72155
832.0645, 21.60978
832.5466, 21.43567
833.0287, 21.32548
833.5109, 21.29854
833.9930, 21.27764
834.4751, 21.23887
834.9572, 21.21150
835.4393, 21.26607
835.9214, 21.35195
836.4036, 21.30088
836.8857, 20.97711
837.3678, 20.76661
837.8499, 20.85356
838.3320, 21.00247
838.8141, 21.01536
839.2963, 20.97162
839.7784, 21.06814
840.2605, 21.35654
840.7426, 21.63955
841.2247, 21.72661
841.7068, 21.69544
842.1890, 21.75410
842.6711, 21.85436
843.1532, 21.65667
843.6353, 21.06179
844.1174, 20.49057
844.5995, 20.33687
845.0817, 20.49392
845.5638, 20.45661
846.0459, 20.05122
846.5280, 19.94860
847.0101, 20.42902
847.4922, 20.91659
847.9744, 21.10637
848.4565, 21.12333
848.9386, 21.14894
849.4207, 21.20025
849.9028, 21.23697
850.3849, 21.27478
850.8671, 21.26653
851.3492, 21.09461
851.8313, 20.90657
852.3134, 20.96762
852.7955, 21.25974
853.2776, 21.44709
853.7598, 21.26514
854.2419, 20.94747
854.7240, 20.85431
855.2061, 20.93461
855.6882, 20.96347
856.1703, 20.91547
856.6525, 20.99841
857.1346, 21.36884
857.6167, 21.77997
858.0988, 21.70811
858.5809, 21.02697
859.0630, 20.73731
859.5452, 21.20808
860.0273, 21.41024
860.5094, 20.67677
860.9915, 19.83039
861.4736, 19.62589
861.9557, 19.98571
862.4379, 20.37007
862.9200, 20.87236
863.4021, 21.12116
863.8842, 20.66660
864.3663, 20.17038
864.8484, 20.34859
865.3306, 20.95681
865.8127, 21.28345
866.2948, 21.05827
866.7769, 20.68612
867.2590, 20.54095
867.7411, 20.54228
868.2233, 20.61272
868.7054, 20.69918
869.1875, 20.42136
869.6696, 19.66266
870.1517, 19.06731
870.6339, 19.30463
871.1160, 20.13934
871.5981, 20.47548
872.0802, 20.14340
872.5623, 19.92999
873.0444, 19.94884
873.5266, 20.03155
874.0087, 20.12180
874.4908, 20.20053
874.9729, 20.23546
875.4550, 20.22617
875.9371, 20.17636
876.4193, 20.06150
876.9014, 19.93603
877.3835, 19.84160
877.8656, 19.73624
878.3477, 19.48460
878.8298, 19.15963
879.3120, 19.09804
879.7941, 19.58076
880.2762, 20.08035
880.7583, 20.02476
881.2404, 19.66258
881.7225, 19.41648
882.2047, 19.30122
882.6868, 19.14981
883.1689, 18.89032
883.6510, 18.68184
884.1331, 18.75666
884.6152, 19.06718
885.0974, 19.23947
885.5795, 19.25273
886.0616, 19.29660
886.5437, 19.47446
887.0258, 19.53190
887.5079, 19.17259
887.9901, 18.54678
888.4722, 18.26242
888.9543, 18.57914
889.4364, 18.74388
889.9185, 18.65274
890.4006, 18.53353
890.8828, 18.39638
891.3649, 18.32655
891.8470, 18.49623
892.3291, 18.89241
892.8112, 19.13455
893.2933, 18.96389
893.7755, 18.71464
894.2576, 18.62287
894.7397, 18.55498
895.2218, 18.22281
895.7039, 17.74000
896.1860, 17.60657
896.6682, 18.07564
897.1503, 18.66130
897.6324, 18.75830
898.1145, 18.50277
898.5966, 18.25679
899.0787, 18.03703
899.5609, 17.87354
900.0430, 17.77277
900.5251, 17.78631
901.0072, 17.99017
901.4893, 18.32430
901.9714, 18.49624
902.4536, 18.48697
902.9357, 18.36291
903.4178, 17.99928
903.8999, 17.76037
904.3820, 17.96127
904.8641, 18.33669
905.3463, 18.40445
905.8284, 18.12085
906.3105, 17.91329
906.7926, 17.90188
907.2747, 17.85474
907.7568, 17.60340
908.2390, 17.36581
908.7211, 17.36089
909.2032, 17.54046
909.6853, 17.70810
910.1674, 17.79253
910.6495, 17.86287
911.1317, 17.94534
911.6138, 18.05341
912.0959, 18.25802
912.5780, 18.48923
913.0601, 18.58227
913.5422, 18.49850
914.0244, 18.32440
914.5065, 18.10228
914.9886, 17.89319
915.4707, 17.86841
915.9528, 17.98909
916.4349, 17.99406
916.9171, 17.84695
917.3992, 17.69169
917.8813, 17.60579
918.3634, 17.55565
918.8455, 17.48333
919.3276, 17.38642
919.8098, 17.30124
920.2919, 17.19852
920.7740, 17.18299
921.2561, 17.29467
921.7382, 17.48425
922.2203, 17.81353
922.7025, 18.19107
923.1846, 18.25357
923.6667, 17.78452
924.1488, 17.47649
924.6309, 17.52241
925.1130, 17.59497
925.5952, 17.51495
926.0773, 17.39561
926.5594, 17.42764
927.0415, 17.59720
927.5236, 17.63906
928.0057, 17.32403
928.4879, 17.02496
928.9700, 16.99329
929.4521, 17.10482
929.9342, 17.20633
930.4163, 17.31763
930.8984, 17.60126
931.3806, 18.10325
931.8627, 18.50385
932.3448, 18.44166
932.8269, 18.08001
933.3090, 17.64954
933.7911, 17.20859
934.2733, 17.08112
934.7554, 17.31031
935.2375, 17.50722
935.7196, 17.40852
936.2017, 17.12376
936.6838, 16.84399
937.1660, 16.56016
937.6481, 16.45734
938.1302, 16.55121
938.6123, 16.79207
939.0944, 17.26450
939.5765, 17.66142
940.0587, 17.61666
940.5408, 17.21085
941.0229, 17.03566
941.5050, 17.25455
941.9871, 17.40435
942.4692, 17.41622
942.9514, 17.42025
943.4335, 17.46556
943.9156, 17.53235
944.3977, 17.56780
944.8798, 17.73260
945.3619, 17.69775
945.8441, 18.10937
946.3262, 18.47130
946.8083, 18.74250
947.2904, 18.84769
947.7725, 18.60205
948.2546, 18.16990
948.7368, 17.87777
949.2189, 17.82174
949.7010, 17.96759
950.1831, 18.60746
950.6652, 19.15421
951.1473, 18.76293
951.6295, 17.95283
952.1116, 17.73885
952.5937, 18.15949
953.0758, 18.50598
953.5579, 18.36359
954.0400, 18.06654
954.5222, 18.09319
955.0043, 18.32603
955.4864, 18.42476
955.9685, 18.38824
956.4506, 18.29490
956.9327, 18.16855
957.4149, 18.07838
957.8970, 18.09441
958.3791, 18.17358
958.8612, 18.18949
959.3433, 18.14102
959.8254, 18.04343
960.3076, 17.89747
960.7897, 17.67663
961.2718, 17.29864
961.7539, 16.99607
962.2360, 17.10885
962.7181, 17.61265
963.2003, 17.93236
963.6824, 18.03904
964.1645, 18.01313
964.6466, 17.68610
965.1287, 17.44662
965.6108, 17.60124
966.0930, 17.92615
966.5751, 18.10114
967.0572, 18.11200
967.5393, 18.05577
968.0214, 17.91436
968.5035, 17.74365
968.9857, 17.42109
969.4678, 17.19891
969.9499, 17.39248
970.4320, 17.80801
970.9141, 17.99323
971.3962, 17.82290
971.8784, 17.60057
972.3605, 17.45328
972.8426, 17.31260
973.3247, 16.98007
973.8068, 16.72082
974.2889, 16.99928
974.7711, 17.69985
975.2532, 18.22499
975.7353, 18.28164
976.2174, 18.22714
976.6995, 18.42277
977.1816, 18.67624
977.6638, 18.73621
978.1459, 18.62197
978.6280, 18.33254
979.1101, 17.92127
979.5922, 17.68532
980.0743, 17.86510
980.5565, 18.18543
981.0386, 18.13840
981.5207, 17.85748
982.0028, 17.84536
982.4849, 18.10221
982.9670, 18.39449
983.4492, 18.64406
983.9313, 18.76164
984.4134, 18.64241
984.8955, 18.36435
985.3776, 18.16073
985.8597, 18.03133
986.3419, 17.98749
986.8240, 18.03374
987.3061, 18.15874
987.7882, 18.38889
988.2703, 18.60536
988.7524, 18.66790
989.2346, 18.58311
989.7167, 18.38304
990.1988, 17.91398
990.6809, 17.84290
991.1630, 18.55122
991.6451, 19.03756
992.1273, 18.57297
992.6094, 17.80951
993.0915, 17.81122
993.5736, 18.64358
994.0557, 19.00647
994.5378, 18.35970
995.0200, 18.03571
995.5021, 18.46329
995.9842, 18.91957
996.4663, 18.95921
996.9484, 18.79852
997.4305, 18.83473
997.9127, 19.12070
998.3948, 19.27032
998.8769, 19.12110
999.3590, 18.96084
999.8411, 18.81841
1000.323, 18.75196
1000.805, 18.86273
1001.287, 19.06593
1001.770, 19.21850
1002.252, 19.29610
1002.734, 19.20903
1003.216, 18.63184
1003.698, 18.21671
1004.180, 18.51763
1004.662, 19.05452
1005.144, 19.38893
1005.627, 19.46717
1006.109, 19.28102
1006.591, 18.81231
1007.073, 18.41519
1007.555, 18.46865
1008.037, 18.58121
1008.519, 18.30102
1009.001, 17.86045
1009.483, 17.60803
1009.966, 17.58511
1010.448, 17.72183
1010.930, 17.99050
1011.412, 18.29901
1011.894, 18.70600
1012.376, 18.99009
1012.858, 18.58711
1013.340, 17.82230
1013.823, 17.56450
1014.305, 17.90058
1014.787, 18.36864
1015.269, 18.71588
1015.751, 18.89611
1016.233, 18.69876
1016.715, 18.96193
1017.197, 18.45631
1017.679, 18.96351
1018.162, 19.12173
1018.644, 18.79742
1019.126, 18.44579
1019.608, 18.37206
1020.090, 18.42273
1020.572, 18.31589
1021.054, 18.08489
1021.536, 17.96605
1022.018, 17.95901
1022.501, 18.00167
1022.983, 18.08094
1023.465, 18.19425
1023.947, 18.36276
1024.429, 18.47982
1024.911, 18.23218
1025.393, 17.60414
1025.875, 17.42573
1026.358, 17.76368
1026.840, 17.98999
1027.322, 17.92398
1027.804, 17.79135
1028.286, 17.75526
1028.768, 17.79712
1029.250, 17.88951
1029.732, 18.05482
1030.214, 18.06586
1030.697, 17.83613
1031.179, 17.78263
1031.661, 18.12486
1032.143, 18.41116
1032.625, 18.26171
1033.107, 17.81030
1033.589, 17.42166
1034.071, 17.07640
1034.553, 16.87164
1035.036, 16.74936
1035.518, 16.92354
1036.000, 17.72134
1036.482, 18.42628
1036.964, 18.39226
1037.446, 17.86464
1037.928, 17.56513
1038.410, 17.56115
1038.893, 17.54098
1039.375, 17.37206
1039.857, 17.40503
1040.339, 17.97989
1040.821, 18.51630
1041.303, 18.51941
1041.785, 18.15262
1042.267, 17.87006
1042.750, 17.68966
1043.232, 17.53356
1043.714, 17.43570
1044.196, 17.31574
1044.678, 17.02614
1045.160, 16.82903
1045.642, 17.01000
1046.124, 17.41194
1046.606, 17.65626
1047.089, 17.69847
1047.571, 17.67368
1048.053, 17.55976
1048.535, 17.42858
1049.017, 17.14328
1049.499, 16.99211
1049.981, 17.29993
1050.463, 17.87931
1050.945, 18.36175
1051.428, 18.74646
1051.910, 18.76731
1052.392, 18.06112
1052.874, 17.40321
1053.356, 16.97084
1053.838, 16.74113
1054.320, 16.77481
1054.802, 16.96752
1055.285, 17.15537
1055.767, 17.32295
1056.249, 17.35405
1056.731, 16.94815
1057.213, 16.75906
1057.695, 17.32648
1058.177, 17.91471
1058.659, 17.85547
1059.141, 17.43337
1059.624, 17.21939
1060.106, 17.31244
1060.588, 17.52863
1061.070, 18.04940
1061.552, 18.36291
1062.034, 18.08569
1062.516, 17.69760
1062.998, 17.58593
1063.480, 17.62707
1063.963, 17.51678
1064.445, 17.22426
1064.927, 17.11963
1065.409, 17.76408
1065.891, 18.04519
1066.373, 16.93989
1066.855, 15.85798
1067.337, 16.05307
1067.820, 16.93096
1068.302, 17.54412
1068.784, 17.73389
1069.266, 17.72135
1069.748, 17.40635
1070.230, 17.22248
1070.712, 17.48973
1071.194, 17.82877
1071.677, 18.07668
1072.159, 18.14274
1072.641, 17.78173
1073.123, 17.09175
1073.605, 16.74088
1074.087, 17.18241
1074.569, 17.48606
1075.051, 16.93541
1075.533, 16.39289
1076.016, 16.59644
1076.498, 17.10580
1076.980, 17.30557
1077.462, 17.19724
1077.944, 17.17285
1078.426, 17.41806
1078.908, 17.56135
1079.390, 17.31050
1079.873, 17.03473
1080.355, 17.02138
1080.837, 17.08779
1081.319, 16.97761
1081.801, 16.74213
1082.283, 16.60981
1082.765, 16.64703
1083.247, 16.79015
1083.729, 17.06431
1084.212, 17.37076
1084.694, 17.78630
1085.176, 18.09690
1085.658, 17.99401
1086.140, 17.62779
1086.622, 17.38321
1087.104, 17.35452
1087.586, 17.36754
1088.068, 17.33188
1088.551, 17.34195
1089.033, 17.47758
1089.515, 17.64928
1089.997, 17.81519
1090.479, 17.94328
1090.961, 17.99707
1091.443, 17.96911
1091.925, 17.85299
1092.408, 17.43565
1092.890, 17.21791
1093.372, 17.69185
1093.854, 18.13815
1094.336, 17.92900
1094.818, 17.40911
1095.300, 17.12716
1095.782, 17.12488
1096.265, 17.08755
1096.747, 16.83427
1097.229, 16.70982
1097.711, 16.93344
1098.193, 17.20032
1098.675, 17.50002
1099.157, 17.62581
1099.639, 17.15904
1100.121, 16.28455
1100.604, 15.84051
1101.086, 16.10853
1101.568, 16.47612
1102.050, 16.91235
1102.532, 17.25578
1103.014, 17.42846
1103.496, 17.48553
1103.978, 17.46323
1104.460, 17.37212
1104.943, 17.20522
1105.425, 16.93417
1105.907, 16.75269
1106.389, 16.83969
1106.871, 16.82113
1107.353, 16.43126
1107.835, 16.05869
1108.317, 15.97547
1108.800, 16.09099
1109.282, 16.30099
1109.764, 16.60833
1110.246, 16.67898
1110.728, 16.11380
1111.210, 15.86697
1111.692, 16.45512
1112.174, 16.93807
1112.656, 16.84473
1113.139, 16.41538
1113.621, 15.79596
1114.103, 15.04547
1114.585, 14.72856
1115.067, 15.12470
1115.549, 15.45948
1116.031, 15.78181
1116.513, 15.96674
1116.995, 15.84328
1117.478, 15.71133
1117.960, 15.93173
1118.442, 15.72451
1118.924, 15.62158
1119.406, 15.66075
1119.888, 15.33726
1120.370, 15.53101
1120.852, 15.60273
1121.335, 15.30765
1121.817, 15.06117
1122.299, 15.16330
1122.781, 15.45076
1123.263, 15.63360
1123.745, 15.70945
1124.227, 15.78337
1124.709, 15.87104
1125.192, 15.89799
1125.674, 15.84571
1126.156, 15.75558
1126.638, 15.63581
1127.120, 15.50563
1127.602, 15.36323
1128.084, 15.24714
1128.566, 15.43447
1129.048, 15.29540
1129.531, 15.11586
1130.013, 15.27942
1130.495, 14.75843
1130.977, 14.76359
1131.459, 14.89254
1131.941, 14.80632
1132.423, 14.66643
1132.905, 14.94106
1133.387, 15.57097
1133.870, 15.54088
1134.352, 14.87671
1134.834, 14.20835
1135.316, 13.66558
1135.798, 13.58167
1136.280, 14.16342
1136.762, 14.89747
1137.244, 15.12872
1137.727, 14.99022
1138.209, 14.84233
1138.691, 14.68717
1139.173, 14.50079
1139.655, 14.30651
1140.137, 14.31148
1140.619, 14.55902
1141.101, 14.64606
1141.583, 14.19137
1142.066, 13.57118
1142.548, 13.31365
1143.030, 13.33962
1143.512, 13.61033
1143.994, 13.99967
1144.476, 14.21891
1144.958, 14.21631
1145.440, 14.02481
1145.922, 13.64078
1146.405, 13.38622
1146.887, 13.67811
1147.369, 14.14791
1147.851, 14.52341
1148.333, 14.70637
1148.815, 14.39041
1149.297, 13.79431
1149.779, 13.48078
1150.262, 13.59816
1150.744, 13.86237
1151.226, 14.23118
1151.708, 14.50313
1152.190, 14.50405
1152.672, 14.39616
1153.154, 14.33794
1153.636, 14.24876
1154.119, 13.88368
1154.601, 13.34079
1155.083, 13.13533
1155.565, 13.48745
1156.047, 13.89945
1156.529, 14.47500
1157.011, 14.73433
1157.493, 14.16455
1157.975, 13.47249
1158.458, 13.18737
1158.940, 13.25066
1159.422, 13.54390
1159.904, 14.08582
1160.386, 14.39511
1160.868, 14.41448
1161.350, 14.21869
1161.832, 13.46201
1162.314, 12.95713
1162.797, 13.23676
1163.279, 13.73158
1163.761, 13.81328
1164.243, 13.58862
1164.725, 13.56559
1165.207, 13.81736
1165.689, 14.03100
1166.171, 14.25464
1166.654, 14.25351
1167.136, 13.85069
1167.618, 13.60876
1168.100, 13.98102
1168.582, 13.71925
1169.064, 13.74435
1169.546, 13.86760
1170.028, 13.71877
1170.510, 14.02539
1170.993, 14.19650
1171.475, 14.16727
1171.957, 14.17482
1172.439, 14.31019
1172.921, 14.46660
1173.403, 14.55246
1173.885, 14.57892
1174.367, 14.57703
1174.849, 14.53262
1175.332, 14.29798
1175.814, 13.97661
1176.296, 14.03722
1176.778, 14.48997
1177.260, 14.92957
1177.742, 15.15853
1178.224, 15.11728
1178.706, 14.55614
1179.189, 13.91474
1179.671, 13.79135
1180.153, 13.93636
1180.635, 14.05076
1181.117, 14.09800
1181.599, 14.02262
1182.081, 13.86582
1182.563, 13.90084
1183.046, 14.33844
1183.528, 14.70807
1184.010, 14.69349
1184.492, 14.56049
1184.974, 14.42810
1185.456, 14.32141
1185.938, 14.27623
1186.420, 14.26472
1186.902, 14.20867
1187.385, 14.09124
1187.867, 14.03181
1188.349, 14.08704
1188.831, 14.15126
1189.313, 14.18207
1189.795, 14.24505
1190.277, 14.46798
1190.759, 14.65577
1191.241, 14.55742
1191.724, 14.59723
1192.206, 14.15087
1192.688, 14.29366
1193.170, 14.25322
1193.652, 13.86944
1194.134, 13.85090
1194.616, 14.48364
1195.098, 15.01482
1195.581, 15.02850
1196.063, 14.68236
1196.545, 14.11946
1197.027, 13.45776
1197.509, 13.21098
1197.991, 13.36390
1198.473, 13.82296
1198.955, 14.52626
1199.438, 14.71457
1199.920, 14.21795
1200.402, 13.73960
1200.884, 13.75336
1201.366, 13.94813
1201.848, 13.90624
1202.330, 13.76190
1202.812, 13.80623
1203.294, 13.92808
1203.776, 13.80166
1204.259, 13.54900
1204.741, 13.69837
1205.223, 14.31777
1205.705, 14.70429
1206.187, 14.33595
1206.669, 13.95177
1207.151, 14.16931
1207.633, 14.45714
1208.116, 14.38921
1208.598, 14.16151
1209.080, 13.93400
1209.562, 13.78472
1210.044, 13.86355
1210.526, 14.21593
1211.008, 14.52247
1211.490, 14.77243
1211.973, 14.89783
1212.455, 14.81993
1212.937, 14.69401
1213.419, 14.53668
1213.901, 14.41949
1214.383, 14.47068
1214.865, 14.59543
1215.347, 14.41022
1215.829, 14.60421
1216.312, 14.86277
1216.794, 14.75898
1217.276, 15.32222
1217.758, 15.28691
1218.240, 14.96144
1218.722, 14.44852
1219.204, 14.05213
1219.686, 14.14469
1220.168, 14.52503
1220.651, 14.74977
1221.133, 14.80499
1221.615, 14.45230
1222.097, 13.87195
1222.579, 13.95440
1223.061, 14.70293
1223.543, 15.10171
1224.025, 14.67125
1224.508, 14.13460
1224.990, 14.07233
1225.472, 14.27332
1225.954, 14.72823
1226.436, 15.15707
1226.918, 15.27527
1227.400, 15.11093
1227.882, 14.58719
1228.365, 13.85287
1228.847, 13.50331
1229.329, 13.80514
1229.811, 14.06763
1230.293, 14.03489
1230.775, 14.02398
1231.257, 14.25649
1231.739, 14.41424
1232.221, 14.14421
1232.703, 13.78928
1233.186, 13.78961
1233.668, 14.10694
1234.150, 14.52140
1234.632, 15.13470
1235.114, 15.41250
1235.596, 15.28590
1236.078, 15.12137
1236.560, 14.99580
1237.043, 14.88280
1237.525, 14.76068
1238.007, 14.69285
1238.489, 14.79134
1238.971, 14.95946
1239.453, 14.91784
1239.935, 14.72231
1240.417, 14.49434
1240.900, 14.29575
1241.382, 14.36098
1241.864, 14.66424
1242.346, 14.79296
1242.828, 14.53607
1243.310, 14.34891
1243.792, 14.71732
1244.274, 15.15620
1244.756, 15.22682
1245.239, 15.23023
1245.721, 15.59263
1246.203, 16.01031
1246.685, 15.86190
1247.167, 15.25218
1247.649, 15.04306
1248.131, 15.55532
1248.613, 15.88450
1249.095, 15.89377
1249.578, 15.74010
1250.060, 15.25241
1250.542, 14.93213
1251.024, 15.09647
1251.506, 15.45419
1251.988, 15.68433
1252.470, 15.79255
1252.952, 15.74951
1253.435, 15.54579
1253.917, 15.68528
1254.399, 15.58702
1254.881, 16.19138
1255.363, 15.70463
1255.845, 15.45692
1256.327, 15.79669
1256.809, 16.27195
1257.292, 16.51568
1257.774, 16.51751
1258.256, 16.03132
1258.738, 15.47730
1259.220, 15.53236
1259.702, 15.91675
1260.184, 16.14063
1260.666, 16.17620
1261.148, 16.18143
1261.630, 16.19832
1262.113, 16.29581
1262.595, 16.65092
1263.077, 16.86200
1263.559, 16.68703
1264.041, 16.50124
1264.523, 16.56637
1265.005, 16.61932
1265.487, 16.34759
1265.970, 15.94477
1266.452, 15.86812
1266.934, 16.12249
1267.416, 16.38342
1267.898, 16.67648
1268.380, 16.75925
1268.862, 16.59940
1269.344, 16.35924
1269.827, 16.08818
1270.309, 16.03205
1270.791, 16.39204
1271.273, 16.84962
1271.755, 16.92632
1272.237, 17.09822
1272.719, 16.89401
1273.201, 17.02168
1273.683, 16.83137
1274.166, 16.49375
1274.648, 16.51959
1275.130, 16.91576
1275.612, 17.14493
1276.094, 16.97488
1276.576, 16.77028
1277.058, 16.63778
1277.540, 16.55011
1278.022, 16.46170
1278.505, 16.45379
1278.987, 16.69859
1279.469, 16.95681
1279.951, 16.90030
1280.433, 16.63620
1280.915, 16.61770
1281.397, 16.88027
1281.879, 17.16678
1282.362, 17.49362
1282.844, 17.62194
1283.326, 17.51065
1283.808, 17.47250
1284.290, 17.63501
1284.772, 17.66430
1285.254, 17.28706
1285.736, 16.50307
##END=



