##NAMES=Gorceixite
##RRUFFID=R060158
##IDEAL CHEMISTRY=BaAl_3_(PO_4_)(PO_3_OH)(OH)_6_
##LOCALITY=16 miles north of the Hess River, Mayo Mining District, Yukon Territory, Canada
##OWNER=RRUFF
##SOURCE=Mark Mauthner
##DESCRIPTION=Aggregate of purple-grey colored crystals imbedded in a matrix of quartz and penikisite R060160
##STATUS=The identification of this mineral is confirmed by single-crystal X-ray diffraction and chemical analysis.
##URL=rruff.info/R060158
##MEASURED CHEMISTRY=(Ba_0.91_Sr_0.09_)_Σ=1_Al_3.00_(P_1.00_O_4_)(P_1.00_O_3_OH)((OH)_5.50_F_0.50_)_Σ=6_ ; = lighter phase. The darker gray phase  (Ba_0.75_Sr_0.25_)_Σ=1_Al_3.00_(P_1.00_O_4_)(P_1.00_O_3_OH)((OH)_5.53_F_0.47_)_Σ=6_ ; H not measured but estimated by differe
92.02539, 112.5063
92.50751, 112.6851
92.98962, 113.5845
93.47174, 114.1645
93.95386, 114.6249
94.43597, 114.2023
94.91809, 112.6324
95.40021, 110.3293
95.88232, 108.2062
96.36444, 106.3130
96.84656, 104.5402
97.32867, 102.8290
97.81078, 101.2635
98.29290, 100.0061
98.77502, 99.18610
99.25713, 98.75453
99.73925, 97.84330
100.2214, 96.04008
100.7035, 94.28043
101.1856, 92.97798
101.6677, 92.14483
102.1498, 91.53201
102.6320, 90.83090
103.1141, 89.88467
103.5962, 89.26833
104.0783, 89.29056
104.5604, 89.50191
105.0425, 89.38618
105.5247, 88.76165
106.0068, 87.86272
106.4889, 87.10223
106.9710, 86.53735
107.4531, 85.79741
107.9352, 84.53376
108.4173, 82.86232
108.8995, 81.42254
109.3816, 80.48284
109.8637, 79.86777
110.3458, 79.37842
110.8279, 78.99934
111.3100, 78.71767
111.7922, 78.56921
112.2743, 78.63973
112.7564, 78.56005
113.2385, 78.06719
113.7206, 77.46086
114.2027, 77.00760
114.6849, 76.83887
115.1670, 76.86868
115.6491, 76.80128
116.1312, 76.58152
116.6133, 76.31020
117.0954, 76.04860
117.5776, 75.74317
118.0597, 75.26339
118.5418, 74.47681
119.0239, 73.37031
119.5060, 72.83214
119.9881, 73.14537
120.4703, 73.62707
120.9524, 74.12301
121.4345, 74.57262
121.9166, 74.88470
122.3987, 74.97762
122.8808, 74.80773
123.3630, 74.45387
123.8451, 73.85917
124.3272, 73.10880
124.8093, 72.17574
125.2914, 70.99796
125.7735, 69.96532
126.2557, 69.74344
126.7378, 70.15418
127.2199, 70.44821
127.7020, 70.21764
128.1841, 69.62984
128.6662, 69.23084
129.1483, 69.19105
129.6305, 69.26854
130.1126, 69.28738
130.5947, 69.24583
131.0768, 69.15955
131.5589, 69.03884
132.0410, 68.88321
132.5232, 68.69890
133.0053, 68.27894
133.4874, 67.97386
133.9695, 68.04641
134.4516, 68.52214
134.9337, 69.15125
135.4159, 69.55161
135.8980, 69.58972
136.3801, 69.63438
136.8622, 69.65256
137.3443, 69.71022
137.8264, 69.89798
138.3086, 70.24483
138.7907, 70.66548
139.2728, 70.91719
139.7549, 70.84780
140.2370, 70.77546
140.7191, 70.68501
141.2013, 70.61136
141.6834, 70.60434
142.1655, 70.69072
142.6476, 70.86374
143.1297, 71.09058
143.6118, 71.49565
144.0939, 71.81804
144.5761, 71.82869
145.0582, 71.61123
145.5403, 71.55766
146.0224, 71.94346
146.5045, 72.67477
146.9866, 73.37386
147.4688, 73.96506
147.9509, 74.56956
148.4330, 75.37863
148.9151, 76.44838
149.3972, 77.37514
149.8793, 77.58569
150.3615, 77.57050
150.8436, 77.97430
151.3257, 79.15962
151.8078, 80.83932
152.2899, 82.38676
152.7720, 83.88137
153.2542, 85.08617
153.7363, 85.76053
154.2184, 86.16428
154.7005, 86.69348
155.1826, 87.58727
155.6647, 88.82340
156.1469, 90.16439
156.6290, 91.58675
157.1111, 93.15528
157.5932, 94.87694
158.0753, 96.75998
158.5574, 98.81912
159.0396, 101.1031
159.5217, 103.6594
160.0038, 105.9919
160.4859, 107.9172
160.9680, 109.8200
161.4501, 111.7618
161.9323, 113.7971
162.4144, 116.0391
162.8965, 118.6152
163.3786, 121.6636
163.8607, 124.5376
164.3428, 127.1384
164.8250, 129.6429
165.3071, 132.1345
165.7892, 134.6382
166.2713, 137.1689
166.7534, 139.7848
167.2355, 142.5147
167.7177, 145.0575
168.1998, 147.2046
168.6819, 149.2210
169.1640, 151.4374
169.6461, 153.9298
170.1282, 156.5834
170.6104, 159.3293
171.0925, 162.1504
171.5746, 164.8508
172.0567, 167.2937
172.5388, 169.5425
173.0209, 171.8218
173.5031, 174.3224
173.9852, 176.6170
174.4673, 178.4976
174.9494, 179.9612
175.4315, 180.9688
175.9136, 181.2378
176.3958, 180.8034
176.8779, 180.7285
177.3600, 181.5977
177.8421, 182.5058
178.3242, 183.1680
178.8063, 183.4872
179.2885, 183.1734
179.7706, 181.7615
180.2527, 178.9759
180.7348, 176.2605
181.2169, 174.2996
181.6990, 172.0025
182.1812, 168.6261
182.6633, 164.1180
183.1454, 159.1285
183.6275, 154.5724
184.1096, 150.7710
184.5917, 146.7310
185.0738, 142.2465
185.5560, 137.6982
186.0381, 133.3659
186.5202, 129.3195
187.0023, 125.4423
187.4844, 121.5571
187.9665, 117.4955
188.4487, 113.7069
188.9308, 110.3557
189.4129, 107.2082
189.8950, 103.9890
190.3771, 100.6269
190.8592, 97.33537
191.3414, 94.56512
191.8235, 92.53384
192.3056, 90.63372
192.7877, 88.91770
193.2698, 87.27839
193.7519, 85.51415
194.2341, 83.51820
194.7162, 81.49524
195.1983, 79.88103
195.6804, 78.65449
196.1625, 77.66989
196.6446, 77.08469
197.1268, 76.70972
197.6089, 76.06791
198.0910, 74.89793
198.5731, 73.55544
199.0552, 72.60459
199.5373, 72.06920
200.0195, 71.65376
200.5016, 71.20653
200.9837, 70.74224
201.4658, 70.34079
201.9479, 70.02454
202.4300, 69.78982
202.9122, 69.66903
203.3943, 69.68082
203.8764, 69.61533
204.3585, 69.21482
204.8406, 68.48159
205.3227, 67.92228
205.8048, 67.71108
206.2870, 67.69951
206.7691, 67.84349
207.2512, 68.13258
207.7333, 68.42197
208.2154, 68.55352
208.6975, 68.50645
209.1797, 68.42355
209.6618, 68.34937
210.1439, 68.22881
210.6260, 68.01067
211.1081, 67.69219
211.5902, 67.33225
212.0724, 66.97319
212.5545, 66.55567
213.0366, 66.33774
213.5187, 66.40723
214.0008, 66.60918
214.4829, 66.88548
214.9651, 67.21031
215.4472, 67.55794
215.9293, 67.84767
216.4114, 67.85471
216.8935, 68.31316
217.3756, 69.66040
217.8578, 71.07504
218.3399, 71.90451
218.8220, 72.04631
219.3041, 71.97047
219.7862, 72.39281
220.2683, 73.57630
220.7505, 74.80717
221.2326, 76.14119
221.7147, 77.48727
222.1968, 78.77038
222.6789, 79.97534
223.1610, 81.14109
223.6432, 82.30572
224.1253, 83.32789
224.6074, 84.70394
225.0895, 86.53102
225.5716, 88.65081
226.0537, 90.95391
226.5358, 93.41337
227.0180, 95.97181
227.5001, 98.54619
227.9822, 101.0883
228.4643, 103.8039
228.9464, 106.6494
229.4285, 109.6984
229.9107, 113.0685
230.3928, 116.7908
230.8749, 120.6226
231.3570, 124.1925
231.8391, 127.4591
232.3212, 130.8901
232.8034, 134.6064
233.2855, 138.4975
233.7676, 142.4237
234.2497, 146.3559
234.7318, 150.3436
235.2139, 154.5491
235.6961, 158.9358
236.1782, 163.1809
236.6603, 166.9902
237.1424, 170.6684
237.6245, 174.7447
238.1066, 179.3797
238.5888, 184.1734
239.0709, 188.8203
239.5530, 193.3451
240.0351, 197.8889
240.5172, 202.3891
240.9993, 206.9658
241.4815, 211.7736
241.9636, 216.7933
242.4457, 222.1952
242.9278, 228.5091
243.4099, 235.3039
243.8920, 241.6370
244.3742, 246.6386
244.8563, 250.9628
245.3384, 256.2851
245.8205, 263.1603
246.3026, 269.7583
246.7847, 274.9420
247.2668, 279.2030
247.7490, 283.3000
248.2311, 287.7745
248.7132, 292.1996
249.1953, 295.6660
249.6774, 298.2267
250.1595, 299.5665
250.6417, 299.6563
251.1238, 298.6249
251.6059, 296.6167
252.0880, 293.7877
252.5701, 289.9074
253.0522, 284.2309
253.5344, 276.2298
254.0165, 267.3904
254.4986, 257.8328
254.9807, 247.9727
255.4628, 238.1907
255.9449, 228.7027
256.4271, 219.3654
256.9092, 209.6973
257.3913, 199.3362
257.8734, 189.4187
258.3555, 179.9617
258.8376, 171.0638
259.3198, 162.7532
259.8019, 155.0722
260.2840, 148.0254
260.7661, 141.6642
261.2482, 136.2007
261.7303, 131.0934
262.2125, 126.1059
262.6946, 121.4123
263.1767, 117.1962
263.6588, 113.4869
264.1409, 110.1882
264.6230, 107.1224
265.1052, 104.3888
265.5873, 101.7109
266.0694, 98.85484
266.5515, 96.18184
267.0336, 93.99075
267.5157, 92.34048
267.9979, 91.05553
268.4800, 89.90270
268.9621, 88.94089
269.4442, 88.00369
269.9263, 86.98137
270.4084, 86.05676
270.8906, 85.32676
271.3727, 84.81731
271.8548, 84.53036
272.3369, 84.49403
272.8190, 84.81056
273.3011, 85.04612
273.7833, 85.18164
274.2654, 85.27087
274.7475, 85.17631
275.2296, 84.99934
275.7117, 85.11552
276.1938, 85.95413
276.6760, 87.69321
277.1581, 89.07053
277.6402, 90.17184
278.1223, 90.93668
278.6044, 91.19593
279.0865, 91.06293
279.5686, 90.89442
280.0508, 91.02110
280.5329, 91.46145
281.0150, 91.27929
281.4971, 90.46459
281.9792, 89.18403
282.4613, 87.28671
282.9435, 84.95644
283.4256, 82.55038
283.9077, 80.28149
284.3898, 78.14194
284.8719, 76.20737
285.3540, 74.43678
285.8362, 72.86568
286.3183, 71.60561
286.8004, 70.54284
287.2825, 69.45948
287.7646, 68.22917
288.2467, 66.94156
288.7289, 65.90285
289.2110, 65.18967
289.6931, 64.60797
290.1752, 64.23925
290.6573, 63.96205
291.1394, 63.58353
291.6216, 63.02230
292.1037, 62.39903
292.5858, 61.94585
293.0679, 61.60296
293.5500, 61.59402
294.0321, 61.70699
294.5143, 61.76606
294.9964, 61.77411
295.4785, 61.57836
295.9606, 61.64578
296.4427, 61.60774
296.9248, 61.56538
297.4070, 61.66984
297.8891, 61.50374
298.3712, 62.02544
298.8533, 62.40211
299.3354, 62.54468
299.8175, 62.71490
300.2997, 63.22469
300.7818, 64.15926
301.2639, 64.76463
301.7460, 64.76950
302.2281, 64.66131
302.7102, 64.70308
303.1924, 64.92861
303.6745, 65.34857
304.1566, 66.01973
304.6387, 66.92368
305.1208, 67.67762
305.6029, 68.17638
306.0851, 68.64660
306.5672, 69.31928
307.0493, 70.08415
307.5314, 70.52093
308.0135, 70.28730
308.4956, 69.62891
308.9778, 69.63979
309.4599, 70.81071
309.9420, 71.90896
310.4241, 72.43057
310.9062, 72.61425
311.3883, 72.92138
311.8705, 73.54969
312.3526, 74.36421
312.8347, 75.07984
313.3168, 75.74974
313.7989, 76.23723
314.2810, 76.31676
314.7632, 76.26606
315.2453, 76.48238
315.7274, 77.08035
316.2095, 77.83953
316.6916, 78.48298
317.1737, 79.00043
317.6559, 79.43872
318.1380, 79.72189
318.6201, 79.97435
319.1022, 80.32713
319.5843, 80.79371
320.0664, 81.26841
320.5485, 81.65257
321.0306, 81.93459
321.5128, 82.22958
321.9949, 82.37187
322.4770, 82.66428
322.9591, 83.46029
323.4412, 84.64875
323.9233, 85.67170
324.4055, 86.08389
324.8876, 86.01969
325.3697, 86.42683
325.8518, 87.38544
326.3339, 88.63833
326.8160, 90.26794
327.2982, 92.11911
327.7803, 93.85055
328.2624, 95.27869
328.7445, 96.56123
329.2266, 98.15518
329.7087, 100.2858
330.1909, 102.2763
330.6730, 103.8938
331.1551, 105.3347
331.6372, 106.8185
332.1193, 108.4071
332.6014, 110.1153
333.0836, 111.9814
333.5657, 114.0360
334.0478, 116.1895
334.5299, 118.4979
335.0120, 120.8521
335.4941, 123.2645
335.9763, 125.6845
336.4584, 127.9014
336.9405, 129.6460
337.4226, 130.8641
337.9047, 132.3784
338.3868, 134.2700
338.8690, 136.3551
339.3511, 138.6169
339.8332, 141.0108
340.3153, 143.4474
340.7974, 145.9054
341.2795, 148.3342
341.7617, 150.3450
342.2438, 151.4828
342.7259, 152.8003
343.2080, 154.8139
343.6901, 157.0890
344.1722, 158.8991
344.6544, 159.9294
345.1365, 160.5530
345.6186, 161.5489
346.1007, 163.5589
346.5828, 164.9422
347.0649, 165.3057
347.5471, 165.2537
348.0292, 165.3979
348.5113, 165.8143
348.9934, 166.0360
349.4755, 165.4732
349.9576, 163.9144
350.4398, 162.3660
350.9219, 160.9140
351.4040, 159.3939
351.8861, 157.7774
352.3682, 156.0374
352.8503, 154.0958
353.3325, 151.8808
353.8146, 149.4181
354.2967, 147.0396
354.7788, 144.8653
355.2609, 142.6436
355.7430, 140.2893
356.2252, 137.8684
356.7073, 135.4641
357.1894, 133.1205
357.6715, 130.8171
358.1536, 128.4891
358.6357, 126.3100
359.1179, 123.8134
359.5999, 120.7071
360.0821, 117.4770
360.5642, 114.5443
361.0463, 111.9714
361.5284, 109.5524
362.0105, 107.0225
362.4926, 104.3651
362.9748, 101.6541
363.4569, 98.84365
363.9390, 96.03358
364.4211, 93.16100
364.9032, 90.30204
365.3853, 87.70774
365.8675, 85.60378
366.3496, 83.92567
366.8317, 82.04644
367.3138, 79.69614
367.7959, 77.48734
368.2780, 75.46827
368.7602, 73.69350
369.2423, 72.26360
369.7244, 71.23770
370.2065, 70.45103
370.6886, 69.55520
371.1707, 68.42958
371.6529, 67.51255
372.1350, 67.18516
372.6171, 66.84258
373.0992, 66.00018
373.5813, 64.63633
374.0634, 63.17062
374.5456, 62.05852
375.0277, 61.32145
375.5098, 60.49392
375.9919, 59.31817
376.4740, 58.33822
376.9561, 57.96647
377.4383, 57.97323
377.9204, 57.83300
378.4025, 57.20790
378.8846, 56.24896
379.3667, 55.35448
379.8488, 54.51696
380.3310, 53.76712
380.8131, 53.16565
381.2952, 52.63353
381.7773, 52.11376
382.2594, 51.60534
382.7415, 51.04319
383.2237, 50.25450
383.7058, 49.24050
384.1879, 48.53054
384.6700, 48.39398
385.1521, 48.47552
385.6342, 48.50772
386.1164, 48.47919
386.5985, 48.29620
387.0806, 47.74852
387.5627, 47.02538
388.0448, 46.63145
388.5269, 46.70034
389.0091, 46.78638
389.4912, 46.49711
389.9733, 45.97857
390.4554, 45.54641
390.9375, 45.34390
391.4196, 45.17723
391.9018, 44.82643
392.3839, 44.31726
392.8660, 43.90609
393.3481, 43.73278
393.8302, 43.69883
394.3123, 43.59830
394.7945, 43.40297
395.2766, 43.23783
395.7587, 43.22459
396.2408, 43.25550
396.7229, 43.07497
397.2050, 42.59598
397.6872, 42.18429
398.1693, 42.35015
398.6514, 43.16743
399.1335, 43.52411
399.6156, 43.03595
400.0977, 42.34613
400.5798, 41.85835
401.0620, 41.57697
401.5441, 41.38122
402.0262, 41.20211
402.5083, 41.04463
402.9904, 40.94159
403.4725, 40.95549
403.9547, 40.93792
404.4368, 40.78596
404.9189, 40.61557
405.4010, 40.62630
405.8831, 40.86899
406.3652, 41.13291
406.8474, 41.07931
407.3295, 40.49251
407.8116, 40.22669
408.2937, 40.61127
408.7758, 40.98701
409.2579, 40.91010
409.7401, 40.47306
410.2222, 40.08400
410.7043, 40.06101
411.1864, 40.34364
411.6685, 40.39055
412.1506, 39.83982
412.6328, 39.49775
413.1149, 39.64298
413.5970, 39.98133
414.0791, 40.19220
414.5612, 40.16547
415.0433, 40.01154
415.5255, 39.86958
416.0076, 39.69690
416.4897, 39.68513
416.9718, 40.09250
417.4539, 40.45354
417.9360, 40.44835
418.4182, 40.17459
418.9003, 40.01118
419.3824, 40.29455
419.8645, 40.90071
420.3466, 41.24480
420.8287, 41.15301
421.3109, 41.15888
421.7930, 41.55677
422.2751, 42.12601
422.7572, 42.63837
423.2393, 43.03568
423.7214, 43.34527
424.2036, 43.58360
424.6857, 43.75142
425.1678, 43.86070
425.6499, 43.80637
426.1320, 43.83669
426.6141, 44.21107
427.0963, 44.89045
427.5784, 45.58744
428.0605, 46.24683
428.5426, 46.82646
429.0247, 47.15950
429.5068, 47.21499
429.9890, 47.45743
430.4711, 48.29190
430.9532, 49.51468
431.4353, 50.40820
431.9174, 50.68821
432.3995, 51.05968
432.8817, 52.14587
433.3638, 53.54922
433.8459, 54.28982
434.3280, 53.98290
434.8101, 53.44056
435.2922, 53.82387
435.7744, 55.40556
436.2565, 56.88137
436.7386, 58.29395
437.2207, 59.52019
437.7028, 60.35172
438.1849, 60.87822
438.6671, 61.42899
439.1492, 62.21767
439.6313, 63.22231
440.1134, 64.29809
440.5955, 65.61178
441.0776, 66.79315
441.5598, 67.70058
442.0418, 68.50524
442.5240, 69.36863
443.0061, 70.33224
443.4882, 71.35268
443.9703, 72.38535
444.4524, 73.46567
444.9345, 74.40532
445.4167, 75.02600
445.8988, 75.67900
446.3809, 76.53531
446.8630, 77.50698
447.3451, 78.44141
447.8272, 79.25954
448.3094, 79.94495
448.7915, 80.40697
449.2736, 80.51983
449.7557, 80.76738
450.2378, 81.42128
450.7199, 82.15218
451.2021, 82.73660
451.6842, 83.14840
452.1663, 83.49062
452.6484, 83.83586
453.1305, 84.17795
453.6126, 84.49236
454.0948, 84.80059
454.5769, 85.02278
455.0590, 85.08823
455.5411, 85.03278
456.0232, 84.88316
456.5053, 84.54633
456.9875, 84.25526
457.4696, 84.30984
457.9517, 84.61462
458.4338, 84.69256
458.9159, 84.31252
459.3980, 83.78452
459.8802, 83.62675
460.3623, 83.87911
460.8444, 83.99099
461.3265, 83.82761
461.8086, 83.50758
462.2907, 83.03557
462.7729, 82.46702
463.2550, 82.05750
463.7371, 82.01269
464.2192, 82.25043
464.7013, 82.29253
465.1834, 81.73840
465.6656, 81.72865
466.1477, 81.90076
466.6298, 82.01896
467.1119, 82.08614
467.5940, 81.94952
468.0761, 82.07607
468.5583, 82.09716
469.0404, 82.11391
469.5225, 81.59351
470.0046, 81.14914
470.4867, 80.52415
470.9688, 79.63242
471.4510, 78.57555
471.9331, 77.46260
472.4152, 76.32120
472.8973, 75.29771
473.3794, 74.75896
473.8615, 74.86640
474.3437, 74.76859
474.8258, 74.05834
475.3079, 73.30025
475.7900, 72.84413
476.2721, 72.67665
476.7542, 72.58132
477.2364, 72.36327
477.7185, 72.13995
478.2006, 72.23711
478.6827, 72.71388
479.1648, 73.15792
479.6469, 73.31348
480.1291, 73.32340
480.6112, 73.45193
481.0933, 73.74631
481.5754, 74.05738
482.0575, 74.34590
482.5396, 74.59194
483.0217, 74.74833
483.5038, 74.80350
483.9860, 74.82274
484.4681, 74.90492
484.9502, 75.04839
485.4323, 74.90831
485.9144, 74.36753
486.3965, 73.68880
486.8787, 72.94841
487.3608, 72.15067
487.8429, 71.29797
488.3250, 70.38852
488.8071, 69.41597
489.2892, 68.38219
489.7714, 67.30224
490.2535, 66.09293
490.7356, 64.73543
491.2177, 63.29247
491.6998, 61.77121
492.1819, 60.19556
492.6641, 58.59306
493.1462, 56.96694
493.6283, 55.37122
494.1104, 54.00027
494.5925, 52.97787
495.0746, 51.85310
495.5568, 50.38116
496.0389, 48.87581
496.5210, 47.51445
497.0031, 46.32715
497.4852, 45.31551
497.9673, 44.49554
498.4495, 43.85929
498.9316, 43.47032
499.4137, 43.41011
499.8958, 43.21136
500.3779, 42.45876
500.8600, 41.42950
501.3422, 40.72239
501.8243, 40.50871
502.3064, 40.30438
502.7885, 39.86913
503.2706, 39.27796
503.7527, 38.62209
504.2349, 37.92079
504.7170, 37.27087
505.1991, 36.77525
505.6812, 36.44018
506.1633, 36.11953
506.6454, 35.74968
507.1276, 35.46214
507.6097, 35.29589
508.0918, 35.24548
508.5739, 35.36851
509.0560, 35.67385
509.5381, 35.95771
510.0203, 35.84557
510.5024, 35.13603
510.9845, 34.72169
511.4666, 34.75932
511.9487, 34.93964
512.4308, 35.25420
512.9130, 35.61128
513.3951, 35.86160
513.8772, 35.92433
514.3593, 35.85949
514.8414, 35.72922
515.3235, 35.50494
515.8057, 35.44514
516.2878, 35.78039
516.7699, 36.12604
517.2520, 36.11973
517.7341, 35.80591
518.2162, 35.52483
518.6984, 35.36204
519.1805, 35.34122
519.6626, 35.50753
520.1447, 35.85598
520.6268, 36.34853
521.1089, 37.03996
521.5911, 37.78021
522.0732, 38.15273
522.5553, 37.97351
523.0374, 38.03382
523.5195, 38.71893
524.0016, 39.51917
524.4838, 39.98339
524.9659, 40.10366
525.4480, 40.08897
525.9301, 40.05510
526.4122, 40.05455
526.8943, 40.38968
527.3765, 41.59045
527.8586, 42.35319
528.3407, 42.24850
528.8228, 41.91352
529.3049, 41.80840
529.7870, 42.01274
530.2692, 42.40331
530.7513, 42.90823
531.2334, 43.50966
531.7155, 44.12133
532.1976, 44.76891
532.6797, 45.36247
533.1619, 45.90321
533.6440, 46.34902
534.1261, 46.56910
534.6082, 46.49421
535.0903, 46.59706
535.5724, 47.32198
536.0546, 48.41624
536.5367, 49.37164
537.0188, 50.12654
537.5009, 50.73751
537.9830, 51.19214
538.4651, 51.53344
538.9473, 51.99352
539.4294, 52.66787
539.9115, 53.33028
540.3936, 53.93883
540.8757, 54.49375
541.3578, 54.97969
541.8400, 55.40096
542.3221, 55.81204
542.8042, 56.27451
543.2863, 56.79061
543.7684, 57.21957
544.2505, 57.49975
544.7326, 57.75863
545.2147, 57.98239
545.6968, 58.21542
546.1790, 58.54936
546.6611, 58.99380
547.1432, 59.37257
547.6253, 59.43936
548.1074, 59.22670
548.5895, 59.12953
549.0717, 59.24582
549.5538, 59.30062
550.0359, 59.09496
550.5180, 58.73030
551.0001, 58.34845
551.4822, 57.99858
551.9644, 57.57050
552.4465, 56.91142
552.9286, 56.13897
553.4107, 55.51874
553.8928, 55.10509
554.3749, 54.71511
554.8571, 54.19960
555.3392, 53.55634
555.8213, 52.81799
556.3034, 51.87045
556.7855, 50.98143
557.2676, 50.25880
557.7498, 49.60785
558.2319, 48.94551
558.7140, 48.23877
559.1961, 47.46937
559.6782, 46.57922
560.1603, 45.56976
560.6425, 44.73708
561.1246, 44.18549
561.6067, 43.67587
562.0888, 43.15034
562.5709, 42.61256
563.0530, 42.04060
563.5352, 41.42762
564.0173, 40.87091
564.4994, 40.48768
564.9815, 40.22905
565.4636, 39.88923
565.9457, 39.40345
566.4279, 39.07972
566.9100, 39.20664
567.3921, 39.65196
567.8742, 39.92369
568.3563, 40.03729
568.8384, 39.95606
569.3206, 39.45954
569.8027, 38.86586
570.2848, 38.58070
570.7669, 38.64942
571.2490, 38.84754
571.7311, 38.99830
572.2133, 39.09855
572.6954, 39.10213
573.1775, 38.82979
573.6596, 38.71167
574.1417, 38.88260
574.6238, 39.16842
575.1060, 39.38922
575.5881, 39.54281
576.0702, 39.79598
576.5523, 40.34230
577.0344, 41.09494
577.5165, 41.74290
577.9987, 42.28384
578.4808, 42.71836
578.9629, 42.92460
579.4450, 43.10209
579.9271, 43.51509
580.4092, 44.18266
580.8914, 44.97886
581.3735, 46.09808
581.8556, 47.17059
582.3377, 47.59158
582.8198, 47.47579
583.3019, 47.67894
583.7841, 48.74469
584.2662, 50.33504
584.7483, 51.51333
585.2304, 51.85371
585.7125, 52.48321
586.1946, 53.50362
586.6768, 54.70534
587.1589, 56.07528
587.6410, 57.51591
588.1231, 58.81074
588.6052, 59.79665
589.0873, 60.67790
589.5695, 61.92881
590.0516, 63.62312
590.5337, 65.15409
591.0158, 66.28607
591.4979, 67.37048
591.9800, 68.70739
592.4622, 70.24044
592.9443, 71.73513
593.4264, 73.10394
593.9085, 74.41835
594.3906, 75.72254
594.8727, 77.00520
595.3549, 78.22216
595.8370, 79.34914
596.3191, 80.48554
596.8012, 81.75736
597.2833, 83.17947
597.7654, 84.65817
598.2476, 86.45831
598.7297, 88.00236
599.2118, 88.92159
599.6939, 89.56992
600.1760, 90.43514
600.6581, 91.64748
601.1403, 92.90974
601.6224, 93.86047
602.1045, 94.51920
602.5866, 95.30006
603.0687, 96.32294
603.5508, 97.19662
604.0330, 97.70849
604.5151, 97.96041
604.9972, 98.05331
605.4793, 98.00471
605.9614, 97.76711
606.4435, 97.27339
606.9257, 96.59643
607.4078, 95.88421
607.8899, 95.12792
608.3720, 94.12174
608.8541, 92.72358
609.3362, 91.01595
609.8184, 89.24454
610.3005, 87.47542
610.7826, 85.53926
611.2647, 83.33810
611.7468, 81.06454
612.2289, 78.90532
612.7111, 76.78125
613.1932, 74.41531
613.6753, 71.58663
614.1574, 68.62629
614.6395, 66.24885
615.1216, 64.50831
615.6038, 62.41598
616.0859, 59.61116
616.5680, 56.65282
617.0501, 53.83619
617.5322, 51.20567
618.0143, 49.00237
618.4965, 47.50802
618.9786, 46.19339
619.4607, 44.72092
619.9428, 43.21394
620.4249, 41.90510
620.9070, 40.84757
621.3892, 39.93244
621.8713, 39.06799
622.3534, 38.24977
622.8355, 37.37812
623.3176, 36.38820
623.7997, 35.42640
624.2819, 34.50136
624.7640, 33.62566
625.2461, 32.77893
625.7282, 31.98287
626.2103, 31.33990
626.6924, 31.00500
627.1745, 30.85575
627.6566, 30.58565
628.1387, 30.18542
628.6208, 29.78878
629.1030, 29.45218
629.5851, 29.13299
630.0672, 28.74668
630.5493, 28.28683
631.0314, 27.88741
631.5135, 27.55491
631.9957, 27.29904
632.4778, 27.13753
632.9599, 27.05395
633.4420, 27.05252
633.9241, 27.12820
634.4063, 27.16454
634.8884, 26.97177
635.3705, 26.51003
635.8526, 26.14581
636.3347, 25.92986
636.8168, 25.74677
637.2990, 25.53441
637.7811, 25.33941
638.2632, 25.26982
638.7453, 25.36076
639.2274, 25.32702
639.7095, 24.78034
640.1917, 24.05045
640.6738, 23.77345
641.1559, 23.97624
641.6380, 24.24351
642.1201, 24.37184
642.6022, 24.39251
643.0844, 24.36873
643.5665, 24.24213
644.0486, 24.19685
644.5307, 24.38012
645.0128, 24.50248
645.4949, 24.31963
645.9771, 23.96922
646.4592, 23.75464
646.9413, 23.81412
647.4234, 23.95581
647.9055, 23.88190
648.3876, 23.59815
648.8698, 23.39097
649.3519, 23.26980
649.8340, 23.26123
650.3161, 23.52601
650.7982, 23.87690
651.2803, 23.90533
651.7625, 23.44022
652.2446, 23.02552
652.7267, 22.95312
653.2088, 22.98861
653.6909, 22.84630
654.1730, 22.54218
654.6552, 22.28356
655.1373, 22.19638
655.6194, 22.23873
656.1015, 22.31495
656.5836, 22.46040
657.0657, 22.54766
657.5479, 22.56858
658.0300, 22.52800
658.5121, 22.39761
658.9942, 22.21034
659.4763, 22.01986
659.9584, 21.82852
660.4406, 21.68750
660.9227, 21.68986
661.4048, 21.77324
661.8869, 21.75824
662.3690, 21.61689
662.8511, 21.47968
663.3333, 21.43833
663.8154, 21.47319
664.2975, 21.50247
664.7796, 21.68342
665.2617, 21.54080
665.7438, 21.64123
666.2260, 21.68775
666.7081, 21.68326
667.1902, 21.47497
667.6723, 21.52985
668.1544, 21.47926
668.6365, 21.42435
669.1187, 21.51626
669.6008, 21.33761
670.0829, 21.42720
670.5650, 21.40971
671.0471, 21.44123
671.5292, 21.36663
672.0114, 21.32480
672.4935, 21.38913
672.9756, 21.39469
673.4577, 21.30787
673.9398, 21.34250
674.4219, 21.16015
674.9041, 21.16820
675.3862, 21.25841
675.8683, 21.17693
676.3504, 21.21350
676.8325, 21.20512
677.3146, 20.99240
677.7968, 21.13503
678.2789, 21.12399
678.7610, 20.95515
679.2431, 21.08561
679.7252, 20.93852
680.2073, 20.89051
680.6895, 20.91703
681.1716, 20.86585
681.6537, 20.93720
682.1358, 20.89050
682.6179, 20.83326
683.1000, 20.82205
683.5822, 20.68040
684.0643, 20.78073
684.5464, 20.71577
685.0285, 20.73297
685.5106, 20.76879
685.9927, 20.66202
686.4749, 20.76718
686.9570, 20.69372
687.4391, 20.64465
687.9212, 20.77221
688.4033, 20.97560
688.8854, 21.04510
689.3676, 20.88243
689.8497, 20.71845
690.3318, 20.79069
690.8139, 20.99184
691.2960, 21.09123
691.7781, 21.06643
692.2603, 20.99655
692.7424, 20.91415
693.2245, 20.84631
693.7066, 20.87567
694.1887, 21.15659
694.6708, 21.21579
695.1530, 20.80824
695.6351, 20.44787
696.1172, 20.38445
696.5993, 20.53848
697.0814, 20.77676
697.5635, 21.05842
698.0457, 21.30301
698.5278, 21.43652
699.0099, 21.46801
699.4920, 21.42130
699.9741, 21.29679
700.4562, 21.10118
700.9384, 20.78956
701.4205, 20.47159
701.9026, 20.40408
702.3847, 20.74564
702.8668, 20.91047
703.3489, 20.77924
703.8311, 20.58653
704.3132, 20.38065
704.7953, 20.21471
705.2774, 20.15430
705.7595, 20.21906
706.2416, 20.36855
706.7238, 20.69318
707.2059, 21.08347
707.6880, 20.89833
708.1701, 20.01011
708.6522, 19.51429
709.1343, 20.05137
709.6164, 20.99621
710.0985, 21.35380
710.5806, 21.03925
711.0627, 20.80742
711.5449, 20.78939
712.0270, 20.77497
712.5091, 20.64783
712.9912, 20.47009
713.4733, 20.31214
713.9554, 20.20112
714.4376, 20.17316
714.9197, 20.30640
715.4018, 20.53638
715.8839, 20.58179
716.3660, 20.40988
716.8481, 20.28888
717.3303, 20.28251
717.8124, 20.38627
718.2945, 20.71072
718.7766, 21.22365
719.2587, 21.40265
719.7408, 20.83384
720.2230, 20.35921
720.7051, 20.40769
721.1872, 20.67302
721.6693, 20.79380
722.1514, 20.72642
722.6335, 20.65780
723.1157, 20.75619
723.5978, 20.90439
724.0799, 20.69838
724.5620, 20.07255
725.0441, 19.77890
725.5262, 20.07024
726.0084, 20.52918
726.4905, 20.86113
726.9726, 21.08300
727.4547, 21.25014
727.9368, 21.34808
728.4189, 21.42019
728.9011, 21.45866
729.3832, 21.49229
729.8653, 21.57295
730.3474, 21.67641
730.8295, 21.72718
731.3116, 21.68542
731.7938, 21.55419
732.2759, 21.23845
732.7580, 20.73122
733.2401, 20.66530
733.7222, 21.26785
734.2043, 21.85092
734.6865, 22.02367
735.1686, 21.90648
735.6507, 21.76596
736.1328, 21.58187
736.6149, 21.44625
737.0970, 21.33515
737.5792, 21.31758
738.0613, 21.52219
738.5434, 21.83681
739.0255, 22.03321
739.5076, 22.03841
739.9897, 21.99420
740.4719, 22.04710
740.9540, 22.19537
741.4361, 22.47530
741.9182, 22.93899
742.4003, 23.25254
742.8824, 23.23057
743.3646, 23.07131
743.8467, 23.04880
744.3288, 23.16564
744.8109, 23.19508
745.2930, 22.89995
745.7751, 22.76982
746.2573, 23.24504
746.7394, 23.85749
747.2215, 23.99815
747.7036, 23.63434
748.1857, 23.19797
748.6678, 22.97718
749.1500, 22.95097
749.6321, 23.14118
750.1142, 23.54794
750.5963, 23.81761
751.0784, 23.83184
751.5605, 23.84211
752.0427, 24.07246
752.5248, 24.47536
753.0069, 24.78834
753.4890, 25.02012
753.9711, 25.15749
754.4532, 25.11886
754.9354, 25.05630
755.4175, 25.03163
755.8996, 25.07969
756.3817, 25.27204
756.8638, 25.64808
757.3459, 26.05221
757.8281, 26.26004
758.3102, 26.33893
758.7923, 26.57867
759.2744, 27.00797
759.7565, 27.35018
760.2386, 27.42836
760.7208, 27.43080
761.2029, 27.71544
761.6850, 28.42373
762.1671, 28.83174
762.6492, 28.63834
763.1313, 28.52777
763.6135, 28.81745
764.0956, 29.23818
764.5777, 29.47271
765.0598, 29.49167
765.5419, 29.51218
766.0240, 29.62552
766.5062, 29.86392
766.9883, 30.35244
767.4704, 31.02279
767.9525, 31.60475
768.4346, 32.03865
768.9167, 32.26255
769.3989, 32.15606
769.8810, 31.82188
770.3631, 31.90360
770.8452, 32.66221
771.3273, 33.36794
771.8094, 34.09882
772.2916, 34.64156
772.7737, 34.69268
773.2558, 34.49998
773.7379, 34.58748
774.2200, 35.14370
774.7021, 35.80069
775.1843, 36.37501
775.6664, 36.87182
776.1485, 37.29852
776.6306, 37.65459
777.1127, 37.89467
777.5948, 37.99480
778.0770, 38.12327
778.5591, 38.58300
779.0412, 39.40452
779.5233, 39.88704
780.0054, 39.80336
780.4875, 39.86012
780.9697, 40.37654
781.4518, 41.06785
781.9339, 41.71150
782.4160, 42.29796
782.8981, 42.73009
783.3802, 42.88683
783.8624, 42.99629
784.3445, 43.09516
784.8266, 43.25884
785.3087, 43.64771
785.7908, 44.22197
786.2729, 44.71401
786.7551, 44.92517
787.2372, 45.03520
787.7193, 45.46495
788.2014, 46.20705
788.6835, 46.72151
789.1656, 46.88677
789.6478, 47.04186
790.1299, 47.37999
790.6120, 47.85032
791.0941, 48.34005
791.5762, 48.87986
792.0583, 49.35152
792.5404, 49.71772
793.0225, 50.04861
793.5046, 50.35799
793.9868, 50.66270
794.4689, 50.98875
794.9510, 51.33807
795.4331, 51.68391
795.9152, 52.04278
796.3973, 52.36028
796.8795, 52.45577
797.3616, 52.40265
797.8437, 52.64032
798.3258, 53.29442
798.8079, 53.83760
799.2900, 53.74247
799.7722, 53.17686
800.2543, 53.11015
800.7364, 53.92021
801.2185, 54.45454
801.7006, 54.40776
802.1827, 54.28315
802.6649, 54.30641
803.1470, 54.41396
803.6291, 54.47306
804.1112, 54.44916
804.5933, 54.42321
805.0754, 54.49138
805.5576, 54.53296
806.0397, 54.33433
806.5218, 54.02066
807.0039, 53.87545
807.4860, 54.00268
807.9681, 54.39703
808.4503, 55.21000
808.9324, 56.24546
809.4145, 56.25431
809.8966, 55.00838
810.3787, 54.18410
810.8608, 54.35161
811.3430, 54.77555
811.8251, 54.85184
812.3072, 54.60889
812.7893, 54.29293
813.2714, 53.90948
813.7535, 53.44819
814.2357, 52.72544
814.7178, 52.09275
815.1999, 51.86351
815.6820, 51.90306
816.1641, 51.92277
816.6462, 51.82352
817.1284, 51.66224
817.6105, 51.42458
818.0926, 51.18935
818.5747, 51.18037
819.0568, 51.34990
819.5389, 51.38680
820.0211, 51.18490
820.5032, 50.76675
820.9853, 50.10994
821.4674, 49.24441
821.9495, 48.65160
822.4316, 48.38325
822.9138, 48.26928
823.3959, 48.41956
823.8780, 48.58062
824.3601, 48.59966
824.8422, 48.49959
825.3243, 48.33942
825.8065, 48.11097
826.2886, 47.86840
826.7707, 47.72456
827.2528, 47.49688
827.7349, 46.86098
828.2170, 46.04080
828.6992, 45.61202
829.1813, 45.74857
829.6634, 45.92883
830.1455, 45.51117
830.6276, 44.70462
831.1097, 44.25636
831.5919, 44.16129
832.0740, 43.97201
832.5561, 43.54177
833.0382, 43.07474
833.5203, 42.77801
834.0024, 42.61915
834.4846, 42.33358
834.9667, 41.80956
835.4488, 41.34352
835.9309, 40.86227
836.4130, 40.52989
836.8951, 40.52940
837.3773, 40.70330
837.8594, 40.77760
838.3415, 40.68953
838.8236, 40.53513
839.3057, 40.38658
839.7878, 40.17500
840.2700, 39.74331
840.7521, 39.21650
841.2342, 38.82778
841.7163, 38.65368
842.1984, 38.74415
842.6805, 39.26388
843.1627, 39.92339
843.6448, 39.68651
844.1269, 38.52014
844.6090, 37.75917
845.0911, 37.71551
845.5732, 37.81604
846.0554, 37.66981
846.5375, 37.37963
847.0196, 37.25256
847.5017, 37.44093
847.9838, 37.44151
848.4659, 36.93940
848.9481, 36.62053
849.4302, 36.87176
849.9123, 37.37627
850.3944, 37.78045
850.8765, 38.02842
851.3586, 38.19891
851.8408, 38.14696
852.3229, 38.21733
852.8050, 38.86824
853.2871, 39.77669
853.7692, 40.41340
854.2513, 40.70581
854.7335, 40.78765
855.2156, 40.71326
855.6977, 40.66536
856.1798, 41.08336
856.6619, 41.94413
857.1440, 42.43209
857.6262, 42.41563
858.1083, 42.51987
858.5904, 43.06170
859.0725, 43.77807
859.5546, 44.29427
860.0367, 44.58086
860.5189, 45.00544
861.0010, 45.55402
861.4831, 46.25480
861.9652, 47.25147
862.4473, 48.28615
862.9294, 49.16741
863.4116, 49.92513
863.8937, 50.68178
864.3758, 51.49550
864.8579, 52.26570
865.3400, 52.86544
865.8221, 53.43392
866.3043, 53.98822
866.7864, 54.66148
867.2685, 55.92155
867.7506, 57.85137
868.2327, 59.60340
868.7148, 60.13797
869.1970, 59.89048
869.6791, 60.43146
870.1612, 61.76049
870.6433, 62.74612
871.1254, 63.09562
871.6075, 63.34773
872.0897, 63.89167
872.5718, 64.65722
873.0539, 65.40538
873.5360, 66.01576
874.0181, 66.88450
874.5002, 68.56473
874.9823, 69.85131
875.4644, 70.12049
875.9465, 69.69356
876.4286, 70.10467
876.9108, 70.41935
877.3929, 70.64035
877.8750, 70.61499
878.3571, 70.81022
878.8392, 70.85740
879.3214, 70.85768
879.8035, 70.96221
880.2856, 70.75359
880.7677, 70.77064
881.2498, 70.63802
881.7319, 70.51186
882.2141, 70.23692
882.6962, 69.66171
883.1783, 69.16621
883.6604, 68.86620
884.1425, 68.42828
884.6246, 67.72446
885.1068, 66.95389
885.5889, 66.32774
886.0710, 65.83820
886.5531, 65.46314
887.0352, 65.30175
887.5173, 64.93906
887.9995, 64.07822
888.4816, 63.35141
888.9637, 63.27675
889.4458, 63.56518
889.9279, 63.65625
890.4100, 63.53617
890.8922, 63.22886
891.3743, 62.48378
891.8564, 61.84562
892.3385, 61.66854
892.8206, 61.66380
893.3027, 61.44268
893.7849, 61.02841
894.2670, 60.80919
894.7491, 61.09383
895.2312, 61.38805
895.7133, 61.18278
896.1954, 60.71389
896.6776, 60.26181
897.1597, 59.91299
897.6418, 59.85110
898.1239, 60.15102
898.6060, 60.59505
899.0881, 60.93752
899.5703, 61.18500
900.0524, 61.39760
900.5345, 61.58091
901.0166, 61.55872
901.4987, 61.21726
901.9808, 60.96728
902.4630, 61.20874
902.9451, 61.74578
903.4272, 61.86593
903.9093, 61.27348
904.3914, 60.95531
904.8735, 61.21987
905.3557, 61.37316
905.8378, 61.09520
906.3199, 60.63964
906.8020, 60.27009
907.2841, 59.99925
907.7662, 59.72443
908.2484, 59.37730
908.7305, 59.07986
909.2126, 59.11520
909.6947, 59.03735
910.1768, 58.29630
910.6589, 57.10207
911.1411, 56.03209
911.6232, 55.30555
912.1053, 54.69618
912.5874, 54.09354
913.0695, 53.42862
913.5516, 52.60198
914.0338, 51.62425
914.5159, 50.44461
914.9980, 49.08861
915.4801, 47.89067
915.9622, 47.13751
916.4443, 46.61198
916.9265, 45.79802
917.4086, 44.69418
917.8907, 43.39585
918.3728, 41.82074
918.8549, 40.53823
919.3370, 39.86064
919.8192, 39.46627
920.3013, 38.94942
920.7834, 38.30753
921.2655, 37.46220
921.7476, 36.12942
922.2297, 35.08541
922.7119, 34.77542
923.1940, 34.44668
923.6761, 33.54133
924.1582, 32.34536
924.6403, 31.47168
925.1224, 31.04949
925.6046, 30.63823
926.0867, 30.15847
926.5688, 29.63326
927.0509, 28.95700
927.5330, 28.31932
928.0151, 27.99044
928.4973, 27.93756
928.9794, 27.87223
929.4615, 27.64395
929.9436, 27.39095
930.4257, 27.24937
930.9078, 27.14717
931.3900, 26.93391
931.8721, 26.66041
932.3542, 26.53563
932.8363, 26.61965
933.3184, 26.73351
933.8005, 26.68968
934.2827, 26.55639
934.7648, 26.55425
935.2469, 26.65716
935.7290, 26.51788
936.2111, 26.05981
936.6932, 25.90319
937.1754, 26.47284
937.6575, 27.35288
938.1396, 27.77347
938.6217, 27.69775
939.1038, 27.60415
939.5859, 27.42212
940.0681, 27.42380
940.5502, 27.79801
941.0323, 28.20867
941.5144, 28.31263
941.9965, 28.21530
942.4786, 28.38893
942.9608, 29.10301
943.4429, 29.51988
943.9250, 29.25641
944.4071, 29.10227
944.8892, 29.43265
945.3713, 30.00360
945.8535, 30.55483
946.3356, 31.06161
946.8177, 31.58834
947.2998, 32.30053
947.7819, 32.81958
948.2640, 32.74117
948.7462, 32.56898
949.2283, 32.76534
949.7104, 33.25063
950.1925, 33.78707
950.6746, 34.29905
951.1567, 34.81410
951.6389, 35.40778
952.1210, 35.97196
952.6031, 36.24626
953.0852, 36.42359
953.5673, 36.99097
954.0494, 37.94780
954.5316, 38.89592
955.0137, 39.62613
955.4958, 40.22760
955.9779, 40.62661
956.4600, 40.98954
956.9421, 42.45498
957.4242, 44.96540
957.9063, 46.53458
958.3884, 46.58189
958.8705, 46.42885
959.3527, 47.09173
959.8348, 48.43201
960.3169, 50.12287
960.7990, 52.30358
961.2811, 54.05877
961.7632, 55.14775
962.2454, 56.42439
962.7275, 58.16822
963.2096, 60.25862
963.6917, 62.56646
964.1738, 65.09353
964.6559, 67.93024
965.1381, 71.40488
965.6202, 74.64471
966.1023, 77.11129
966.5844, 79.92032
967.0665, 83.76941
967.5486, 88.14579
968.0308, 92.40115
968.5129, 96.49480
968.9950, 100.5243
969.4771, 104.2164
969.9592, 108.2463
970.4413, 112.9276
970.9235, 117.9425
971.4056, 123.1834
971.8877, 128.4847
972.3698, 133.5093
972.8519, 138.1538
973.3340, 142.9606
973.8162, 148.3124
974.2983, 153.8681
974.7804, 159.4399
975.2625, 164.9540
975.7446, 170.4006
976.2267, 175.6908
976.7089, 180.5984
977.1910, 184.9884
977.6731, 189.1845
978.1552, 193.9524
978.6373, 198.4967
979.1194, 201.5861
979.6016, 203.2709
980.0837, 203.7940
980.5658, 203.1962
981.0479, 201.2169
981.5300, 197.6352
982.0121, 192.9421
982.4943, 188.1560
982.9764, 183.1180
983.4585, 176.6035
983.9406, 168.6497
984.4227, 160.6803
984.9048, 153.1432
985.3870, 145.9370
985.8691, 138.9870
986.3512, 132.2744
986.8333, 125.5770
987.3154, 118.7996
987.7975, 112.8921
988.2797, 107.9488
988.7618, 103.6671
989.2439, 100.0401
989.7260, 96.79894
990.2081, 93.64150
990.6902, 90.59097
991.1724, 87.74397
991.6545, 85.00258
992.1366, 82.69470
992.6187, 80.92280
993.1008, 79.45876
993.5829, 78.44655
994.0651, 77.51337
994.5472, 75.96969
995.0293, 73.79536
995.5114, 72.34335
995.9935, 72.00270
996.4756, 71.83292
996.9578, 71.85751
997.4399, 71.87508
997.9220, 71.85757
998.4041, 71.72205
998.8862, 71.20508
999.3683, 70.26949
999.8505, 69.80699
1000.333, 70.50126
1000.815, 71.09747
1001.297, 71.08205
1001.779, 70.83111
1002.261, 70.63315
1002.743, 70.45663
1003.225, 70.11327
1003.707, 69.55383
1004.190, 69.19753
1004.672, 69.46642
1005.154, 69.76603
1005.636, 69.72363
1006.118, 69.47177
1006.600, 69.07361
1007.082, 68.63308
1007.564, 68.37085
1008.046, 68.36805
1008.529, 68.40689
1009.011, 68.23405
1009.493, 68.08894
1009.975, 68.33515
1010.457, 68.75761
1010.939, 69.00285
1011.421, 69.02153
1011.903, 68.84109
1012.385, 68.46587
1012.868, 68.18478
1013.350, 68.38128
1013.832, 68.85076
1014.314, 69.28899
1014.796, 69.66113
1015.278, 69.81266
1015.760, 69.76778
1016.242, 69.89473
1016.725, 70.43227
1017.207, 70.95593
1017.689, 70.65536
1018.171, 69.85192
1018.653, 69.78789
1019.135, 70.36330
1019.617, 70.78323
1020.099, 70.87778
1020.581, 71.05467
1021.064, 71.61867
1021.546, 72.28163
1022.028, 72.47720
1022.510, 72.24507
1022.992, 71.97287
1023.474, 71.65504
1023.956, 71.79502
1024.438, 72.55677
1024.921, 73.44072
1025.403, 74.09005
1025.885, 74.56410
1026.367, 74.99509
1026.849, 75.38325
1027.331, 75.63372
1027.813, 75.66312
1028.295, 76.08143
1028.777, 77.14620
1029.260, 78.30003
1029.742, 79.02850
1030.224, 79.59300
1030.706, 80.80481
1031.188, 82.91990
1031.670, 84.25301
1032.152, 84.46793
1032.634, 84.90385
1033.116, 86.01659
1033.599, 87.30555
1034.081, 88.36335
1034.563, 89.27270
1035.045, 90.31438
1035.527, 91.57864
1036.009, 92.67174
1036.491, 93.59856
1036.973, 94.34367
1037.456, 94.87424
1037.938, 95.24245
1038.420, 95.38668
1038.902, 95.41976
1039.384, 95.73363
1039.866, 96.40451
1040.348, 97.14824
1040.830, 98.35954
1041.313, 99.07339
1041.795, 98.77259
1042.277, 98.12478
1042.759, 97.73409
1043.241, 97.42791
1043.723, 96.63400
1044.205, 95.11547
1044.687, 93.74203
1045.169, 93.00168
1045.651, 91.81395
1046.134, 89.65783
1046.616, 87.13341
1047.098, 84.68948
1047.580, 82.29305
1048.062, 79.74854
1048.544, 76.97997
1049.026, 74.28442
1049.508, 71.89876
1049.991, 69.34628
1050.473, 66.13773
1050.955, 62.98282
1051.437, 60.45839
1051.919, 58.45724
1052.401, 56.55867
1052.883, 54.69225
1053.365, 53.02503
1053.848, 51.73896
1054.330, 50.46891
1054.812, 48.98960
1055.294, 47.54134
1055.776, 46.28233
1056.258, 45.23345
1056.740, 44.41806
1057.222, 43.84642
1057.704, 43.46205
1058.187, 43.54296
1058.669, 43.43314
1059.151, 42.68795
1059.633, 41.77947
1060.115, 40.97815
1060.597, 40.38529
1061.079, 40.20770
1061.561, 40.53164
1062.043, 40.70978
1062.526, 40.27160
1063.008, 39.95974
1063.490, 40.26263
1063.972, 40.69823
1064.454, 40.88563
1064.936, 40.85264
1065.418, 40.64458
1065.900, 40.26632
1066.383, 40.20702
1066.865, 40.88834
1067.347, 41.63090
1067.829, 42.17003
1068.311, 42.58950
1068.793, 42.91319
1069.275, 43.19156
1069.757, 43.47933
1070.240, 43.79240
1070.722, 44.20234
1071.204, 44.87500
1071.686, 45.47258
1072.168, 45.78520
1072.650, 46.00960
1073.132, 46.20823
1073.614, 46.48624
1074.096, 47.04952
1074.578, 47.89524
1075.061, 48.67406
1075.543, 49.20683
1076.025, 49.70301
1076.507, 50.24009
1076.989, 50.80228
1077.471, 51.40837
1077.953, 52.01838
1078.435, 52.56930
1078.918, 53.05919
1079.400, 53.54097
1079.882, 54.07914
1080.364, 54.52319
1080.846, 54.70432
1081.328, 54.87038
1081.810, 55.38594
1082.292, 55.88920
1082.774, 55.70711
1083.257, 54.97234
1083.739, 54.65894
1084.221, 55.26709
1084.703, 55.79955
1085.185, 55.77559
1085.667, 55.55188
1086.149, 55.32956
1086.631, 55.06384
1087.114, 54.67542
1087.596, 54.17817
1088.078, 53.61578
1088.560, 52.95850
1089.042, 52.44440
1089.524, 52.36610
1090.006, 52.22008
1090.488, 51.63066
1090.970, 50.90373
1091.453, 50.35025
1091.935, 49.93456
1092.417, 49.50944
1092.899, 49.04324
1093.381, 48.51577
1093.863, 47.91024
1094.345, 47.25414
1094.827, 46.43709
1095.309, 45.69328
1095.792, 45.45575
1096.274, 45.35493
1096.756, 44.54835
1097.238, 42.89996
1097.720, 41.54975
1098.202, 41.07721
1098.684, 40.64509
1099.166, 39.80709
1099.649, 39.07395
1100.131, 39.03783
1100.613, 39.21067
1101.095, 38.83582
1101.577, 37.86393
1102.059, 36.77810
1102.541, 35.34264
1103.023, 34.38194
1103.505, 34.52357
1103.988, 34.68401
1104.470, 34.26605
1104.952, 33.56432
1105.434, 32.88163
1105.916, 32.25242
1106.398, 31.68663
1106.880, 31.10400
1107.362, 30.78431
1107.844, 31.06524
1108.327, 31.23853
1108.809, 31.03996
1109.291, 30.62174
1109.773, 30.05697
1110.255, 29.39797
1110.737, 28.76818
1111.219, 28.16761
1111.701, 27.62744
1112.184, 26.96510
1112.666, 26.62552
1113.148, 27.03503
1113.630, 27.46062
1114.112, 27.34502
1114.594, 26.95062
1115.076, 26.82067
1115.558, 27.01718
1116.041, 26.85406
1116.523, 25.99841
1117.005, 25.35281
1117.487, 25.05634
1117.969, 24.91811
1118.451, 24.93524
1118.933, 24.97827
1119.415, 24.82885
1119.897, 24.52560
1120.380, 24.52716
1120.862, 25.10895
1121.344, 25.29466
1121.826, 24.88680
1122.308, 24.41826
1122.790, 23.98675
1123.272, 23.72029
1123.754, 23.78791
1124.236, 24.08582
1124.719, 24.25110
1125.201, 24.23974
1125.683, 24.35552
1126.165, 24.66823
1126.647, 24.82965
1127.129, 24.72731
1127.611, 24.55560
1128.093, 24.43986
1128.576, 24.35323
1129.058, 24.23665
1129.540, 24.09555
1130.022, 24.04451
1130.504, 24.08915
1130.986, 24.16241
1131.468, 24.25394
1131.950, 24.40598
1132.432, 24.66182
1132.915, 24.81408
1133.397, 24.55576
1133.879, 24.06611
1134.361, 23.99686
1134.843, 24.32029
1135.325, 24.81917
1135.807, 25.44653
1136.289, 25.63650
1136.771, 25.21881
1137.254, 24.90863
1137.736, 25.32166
1138.218, 26.00689
1138.700, 26.08807
1139.182, 25.76976
1139.664, 25.69498
1140.146, 25.86041
1140.628, 26.26994
1141.111, 26.84965
1141.593, 27.13502
1142.075, 26.87740
1142.557, 26.54647
1143.039, 26.66320
1143.521, 27.06046
1144.003, 27.65267
1144.485, 28.22637
1144.968, 28.18104
1145.450, 27.70451
1145.932, 27.60416
1146.414, 28.09341
1146.896, 28.55324
1147.378, 28.49012
1147.860, 28.34425
1148.342, 28.60747
1148.824, 28.96612
1149.307, 29.01030
1149.789, 28.89220
1150.271, 28.99501
1150.753, 29.28327
1151.235, 29.29867
1151.717, 28.79406
1152.199, 28.29138
1152.681, 28.15121
1153.163, 28.03858
1153.646, 27.65197
1154.128, 27.24494
1154.610, 27.18759
1155.092, 27.30741
1155.574, 27.12757
1156.056, 26.54772
1156.538, 26.05980
1157.020, 25.94267
1157.503, 25.73891
1157.985, 25.11481
1158.467, 24.58835
1158.949, 24.70646
1159.431, 24.94780
1159.913, 24.53611
1160.395, 23.53887
1160.877, 22.78744
1161.359, 22.35551
1161.842, 22.12115
1162.324, 22.45405
1162.806, 22.38998
1163.288, 21.23726
1163.770, 20.18479
1164.252, 20.25271
1164.734, 20.94200
1165.216, 21.13555
1165.698, 20.78431
1166.181, 20.59045
1166.663, 20.59649
1167.145, 20.62694
1167.627, 20.70366
1168.109, 20.61325
1168.591, 20.21034
1169.073, 19.73804
1169.555, 19.45739
1170.037, 19.36258
1170.520, 19.47053
1171.002, 19.77488
1171.484, 20.08722
1171.966, 20.39091
1172.448, 20.40519
1172.930, 20.05878
1173.412, 19.60353
1173.894, 19.19184
1174.377, 18.91039
1174.859, 18.95459
1175.341, 19.20026
1175.823, 19.33956
1176.305, 19.37910
1176.787, 19.29434
1177.269, 19.12428
1177.751, 19.02545
1178.234, 19.05051
1178.716, 19.12923
1179.198, 19.25146
1179.680, 19.30566
1180.162, 19.08015
1180.644, 18.78817
1181.126, 18.68903
1181.608, 18.73216
1182.090, 18.82273
1182.573, 18.93165
1183.055, 19.04961
1183.537, 19.17992
1184.019, 19.26550
1184.501, 19.28399
1184.983, 19.23920
1185.465, 19.11410
1185.947, 18.94492
1186.429, 18.65685
1186.912, 18.39449
1187.394, 18.46930
1187.876, 18.88975
1188.358, 19.15049
1188.840, 19.23585
1189.322, 19.05444
1189.804, 18.05721
1190.286, 17.51066
1190.769, 18.29896
1191.251, 19.21494
1191.733, 19.16874
1192.215, 18.51655
1192.697, 18.19059
1193.179, 18.24205
1193.661, 18.16583
1194.143, 17.87572
1194.625, 17.82732
1195.108, 18.17892
1195.590, 18.38404
1196.072, 18.16338
1196.554, 17.74693
1197.036, 17.37240
1197.518, 17.06077
1198.000, 16.89591
1198.482, 16.86427
1198.964, 16.81274
1199.447, 16.75222
1199.929, 16.86384
1200.411, 17.16774
1200.893, 17.44248
1201.375, 17.56043
1201.857, 17.57966
1202.339, 17.47578
1202.821, 17.40077
1203.304, 17.80770
1203.786, 18.30579
1204.268, 18.07153
1204.750, 17.33441
1205.232, 16.85435
1205.714, 16.77949
1206.196, 16.68157
1206.678, 16.30331
1207.161, 15.98996
1207.643, 16.02407
1208.125, 16.12144
1208.607, 16.11976
1209.089, 16.04877
1209.571, 15.87516
1210.053, 15.68792
1210.535, 15.67435
1211.017, 15.86565
1211.500, 16.14097
1211.982, 16.70263
1212.464, 17.00783
1212.946, 16.81805
1213.428, 16.57712
1213.910, 16.43701
1214.392, 16.32782
1214.874, 16.19602
1215.356, 16.03483
1215.839, 15.79451
1216.321, 15.43827
1216.803, 15.38255
1217.285, 15.66993
1217.767, 16.01956
1218.249, 16.41106
1218.731, 16.55780
1219.213, 16.29902
1219.696, 15.98880
1220.178, 16.03266
1220.660, 16.26324
1221.142, 16.29333
1221.624, 16.18045
1222.106, 16.06728
1222.588, 15.99374
1223.070, 16.11708
1223.552, 16.40873
1224.035, 16.58847
1224.517, 16.52515
1224.999, 16.38228
1225.481, 16.32317
1225.963, 16.21664
1226.445, 15.83576
1226.927, 15.44258
1227.409, 15.34872
1227.891, 15.42911
1228.374, 15.43044
1228.856, 15.35013
1229.338, 15.38773
1229.820, 15.63096
1230.302, 15.86777
1230.784, 16.10478
1231.266, 16.25261
1231.748, 16.24488
1232.231, 16.17923
1232.713, 16.06519
1233.195, 15.97623
1233.677, 16.05440
1234.159, 16.26442
1234.641, 16.27744
1235.123, 16.04587
1235.605, 15.79920
1236.088, 15.49413
1236.570, 15.54273
1237.052, 16.08915
1237.534, 16.64518
1238.016, 16.90620
1238.498, 16.95567
1238.980, 16.88028
1239.462, 16.71969
1239.944, 16.57638
1240.427, 16.43750
1240.909, 16.22726
1241.391, 15.98770
1241.873, 15.87678
1242.355, 15.91504
1242.837, 15.98652
1243.319, 16.03655
1243.801, 16.06200
1244.283, 16.11225
1244.766, 16.07689
1245.248, 15.68434
1245.730, 15.33528
1246.212, 15.51097
1246.694, 15.97869
1247.176, 16.38563
1247.658, 16.65668
1248.140, 16.58540
1248.622, 15.71141
1249.105, 15.42032
1249.587, 16.36639
1250.069, 16.94724
1250.551, 16.65053
1251.033, 16.15760
1251.515, 15.83459
1251.997, 15.64576
1252.479, 15.53611
1252.962, 15.51182
1253.444, 15.63436
1253.926, 15.90044
1254.408, 16.15192
1254.890, 16.36860
1255.372, 16.37737
1255.854, 16.15062
1256.336, 15.84019
1256.818, 15.53034
1257.301, 15.33813
1257.783, 15.48360
1258.265, 15.71622
1258.747, 15.71133
1259.229, 15.56547
1259.711, 15.37804
1260.193, 15.17188
1260.675, 14.86995
1261.157, 14.55172
1261.640, 14.59146
1262.122, 15.18983
1262.604, 15.71224
1263.086, 16.10211
1263.568, 16.18521
1264.050, 15.60925
1264.532, 15.04905
1265.014, 14.90090
1265.497, 14.98016
1265.979, 15.16119
1266.461, 15.36548
1266.943, 15.20817
1267.425, 14.59682
1267.907, 14.36277
1268.389, 14.54698
1268.871, 14.64929
1269.354, 14.57983
1269.836, 14.55380
1270.318, 14.67108
1270.800, 14.73415
1271.282, 14.52130
1271.764, 14.23275
1272.246, 14.16876
1272.728, 14.26773
1273.210, 14.49974
1273.693, 14.76822
1274.175, 14.91727
1274.657, 14.94110
1275.139, 14.88330
1275.621, 14.76122
1276.103, 14.65700
1276.585, 14.58832
1277.067, 14.56928
1277.549, 14.76591
1278.032, 14.80991
1278.514, 14.30857
1278.996, 13.79033
1279.478, 13.78219
1279.960, 14.02057
1280.442, 13.97136
1280.924, 13.64877
1281.406, 13.50727
1281.889, 13.55236
1282.371, 13.78927
1282.853, 14.23382
1283.335, 14.58634
1283.817, 14.76316
1284.299, 14.72049
1284.781, 14.42163
1285.263, 14.03072
1285.745, 13.71444
1286.228, 13.47239
##END=



