##NAMES=Gordonite
##RRUFFID=R070437
##IDEAL CHEMISTRY=MgAl_2_(PO_4_)_2_(OH)_2_&#183;8H_2_O
##LOCALITY=Amatrice Hill, Stockton, Utah, USA
##OWNER=RRUFF
##SOURCE=Michael Scott
##DESCRIPTION=Aggregates of colorless to pale purple bladed crystals associated with green variscite. The apparent green color of gordonite is due to the variscite.
##STATUS=The identification of this mineral is confirmed by single-crystal X-ray diffraction and chemical analysis.
##URL=rruff.info/R070437
##MEASURED CHEMISTRY=Mg_1.00_Al_2.00_(P_1.00_O_4_)_2_(OH)_2_Â·7.98H_2_O; trace amounts of Fe; OH estimated by charge balance, H_2_O by difference
131.6024, 607.9698
132.0845, 644.8950
132.5666, 677.6856
133.0487, 707.0036
133.5308, 735.0953
134.0130, 761.7906
134.4951, 787.9011
134.9772, 816.2941
135.4593, 847.2014
135.9414, 878.7587
136.4235, 909.0698
136.9057, 937.9604
137.3878, 967.3444
137.8699, 998.7704
138.3520, 1031.210
138.8341, 1058.796
139.3162, 1080.964
139.7984, 1099.528
140.2805, 1117.678
140.7626, 1136.230
141.2447, 1150.012
141.7268, 1156.919
142.2089, 1156.280
142.6911, 1153.284
143.1732, 1147.780
143.6553, 1140.069
144.1374, 1130.034
144.6195, 1115.193
145.1016, 1102.300
145.5838, 1094.872
146.0659, 1097.977
146.5480, 1095.885
147.0301, 1087.008
147.5122, 1072.721
147.9943, 1057.936
148.4765, 1042.025
148.9586, 1026.388
149.4407, 1011.460
149.9228, 997.3760
150.4049, 983.9427
150.8870, 968.9481
151.3692, 952.5150
151.8513, 944.5542
152.3334, 954.3535
152.8155, 967.7621
153.2976, 974.3452
153.7797, 962.3885
154.2619, 954.8626
154.7440, 958.4677
155.2261, 976.1249
155.7082, 987.6298
156.1903, 984.5186
156.6724, 975.8784
157.1546, 972.5513
157.6367, 978.6025
158.1188, 988.3449
158.6009, 999.8734
159.0830, 1012.928
159.5651, 1028.286
160.0473, 1052.459
160.5294, 1079.004
161.0115, 1095.107
161.4936, 1079.516
161.9757, 1064.351
162.4578, 1069.464
162.9400, 1113.562
163.4221, 1152.841
163.9042, 1162.426
164.3863, 1151.211
164.8684, 1148.986
165.3505, 1176.247
165.8327, 1214.519
166.3148, 1248.896
166.7969, 1274.183
167.2790, 1295.616
167.7611, 1314.614
168.2433, 1331.570
168.7254, 1349.081
169.2075, 1374.634
169.6896, 1399.919
170.1717, 1415.014
170.6538, 1411.753
171.1360, 1399.834
171.6181, 1384.138
172.1002, 1364.523
172.5823, 1346.908
173.0644, 1333.361
173.5465, 1324.818
174.0287, 1322.666
174.5108, 1330.154
174.9929, 1343.193
175.4750, 1358.534
175.9571, 1376.477
176.4392, 1393.765
176.9214, 1403.989
177.4035, 1410.256
177.8856, 1421.408
178.3677, 1444.853
178.8498, 1475.521
179.3319, 1506.634
179.8141, 1538.240
180.2962, 1568.061
180.7783, 1592.414
181.2604, 1611.909
181.7425, 1632.162
182.2246, 1659.941
182.7068, 1690.991
183.1889, 1715.360
183.6710, 1728.897
184.1531, 1737.952
184.6352, 1751.172
185.1173, 1768.640
185.5995, 1789.721
186.0816, 1816.427
186.5637, 1846.891
187.0458, 1874.862
187.5279, 1898.303
188.0100, 1918.438
188.4922, 1938.047
188.9743, 1957.483
189.4564, 1973.716
189.9385, 1980.018
190.4206, 1978.265
190.9027, 1983.615
191.3849, 2007.531
191.8670, 2041.813
192.3491, 2053.460
192.8312, 2039.859
193.3133, 2016.984
193.7954, 2005.123
194.2776, 2003.926
194.7597, 1995.912
195.2418, 1970.706
195.7239, 1931.165
196.2060, 1902.682
196.6881, 1890.290
197.1703, 1876.596
197.6524, 1831.660
198.1345, 1754.156
198.6166, 1674.961
199.0987, 1610.178
199.5808, 1559.827
200.0630, 1500.823
200.5451, 1429.187
201.0272, 1354.847
201.5093, 1294.219
201.9914, 1248.273
202.4735, 1212.323
202.9557, 1187.136
203.4378, 1174.086
203.9199, 1154.020
204.4020, 1122.369
204.8841, 1086.297
205.3662, 1064.033
205.8484, 1057.452
206.3305, 1058.245
206.8126, 1063.785
207.2947, 1075.623
207.7768, 1082.313
208.2589, 1081.884
208.7411, 1075.965
209.2232, 1069.575
209.7053, 1061.803
210.1874, 1055.703
210.6695, 1054.469
211.1517, 1060.127
211.6338, 1061.584
212.1159, 1055.641
212.5980, 1044.119
213.0801, 1038.885
213.5622, 1043.382
214.0444, 1047.760
214.5265, 1041.739
215.0086, 1019.224
215.4907, 1006.551
215.9728, 1011.713
216.4549, 1032.740
216.9371, 1042.263
217.4192, 1035.602
217.9013, 1024.202
218.3834, 1019.064
218.8655, 1022.614
219.3476, 1025.847
219.8298, 1026.804
220.3119, 1025.455
220.7940, 1024.728
221.2761, 1024.499
221.7582, 1025.040
222.2403, 1027.701
222.7225, 1035.696
223.2046, 1037.840
223.6867, 1027.510
224.1688, 1002.086
224.6509, 994.9012
225.1330, 1014.296
225.6152, 1044.059
226.0973, 1063.029
226.5794, 1066.833
227.0615, 1068.326
227.5436, 1070.118
228.0257, 1071.859
228.5079, 1075.921
228.9900, 1081.502
229.4721, 1090.074
229.9542, 1103.859
230.4363, 1123.552
230.9184, 1147.207
231.4006, 1176.000
231.8827, 1212.442
232.3648, 1242.302
232.8469, 1262.900
233.3290, 1278.753
233.8111, 1297.413
234.2933, 1318.396
234.7754, 1343.018
235.2575, 1372.190
235.7396, 1407.255
236.2217, 1442.719
236.7038, 1480.562
237.1860, 1518.183
237.6681, 1549.687
238.1502, 1569.083
238.6323, 1591.769
239.1144, 1624.464
239.5965, 1670.768
240.0787, 1717.295
240.5608, 1765.541
241.0429, 1813.462
241.5250, 1855.983
242.0071, 1889.796
242.4892, 1923.389
242.9714, 1961.270
243.4535, 2011.718
243.9356, 2047.779
244.4177, 2063.573
244.8998, 2066.455
245.3819, 2076.699
245.8641, 2102.037
246.3462, 2123.407
246.8283, 2131.436
247.3104, 2120.963
247.7925, 2109.575
248.2746, 2098.406
248.7568, 2086.265
249.2389, 2068.323
249.7210, 2037.413
250.2031, 2011.560
250.6852, 2002.323
251.1674, 2023.998
251.6495, 2027.097
252.1316, 2002.026
252.6137, 1958.906
253.0958, 1930.616
253.5779, 1924.133
254.0601, 1921.626
254.5422, 1914.200
255.0243, 1900.731
255.5064, 1885.098
255.9885, 1865.814
256.4706, 1844.792
256.9528, 1827.782
257.4349, 1815.241
257.9170, 1805.941
258.3991, 1799.889
258.8812, 1799.265
259.3633, 1795.694
259.8455, 1787.338
260.3276, 1775.931
260.8097, 1767.186
261.2918, 1760.043
261.7739, 1757.356
262.2560, 1761.042
262.7382, 1772.463
263.2203, 1786.704
263.7024, 1804.805
264.1845, 1825.283
264.6666, 1843.311
265.1487, 1857.447
265.6309, 1871.801
266.1130, 1888.073
266.5951, 1905.958
267.0772, 1927.806
267.5593, 1954.077
268.0414, 1984.505
268.5236, 2017.272
269.0057, 2052.770
269.4878, 2090.328
269.9699, 2131.384
270.4520, 2177.521
270.9341, 2217.870
271.4163, 2248.238
271.8984, 2273.861
272.3805, 2311.138
272.8626, 2362.414
273.3447, 2419.587
273.8268, 2477.920
274.3090, 2536.771
274.7911, 2600.698
275.2732, 2671.375
275.7553, 2745.313
276.2374, 2811.579
276.7195, 2869.711
277.2017, 2924.397
277.6838, 2980.662
278.1659, 3039.485
278.6480, 3086.948
279.1301, 3120.065
279.6122, 3142.661
280.0944, 3168.139
280.5765, 3198.884
281.0586, 3217.918
281.5407, 3210.899
282.0228, 3177.618
282.5049, 3146.142
282.9871, 3121.702
283.4692, 3096.654
283.9513, 3053.303
284.4334, 2990.882
284.9155, 2919.096
285.3976, 2838.260
285.8798, 2749.708
286.3619, 2671.983
286.8440, 2607.686
287.3261, 2553.016
287.8082, 2499.305
288.2903, 2446.510
288.7725, 2399.156
289.2546, 2361.818
289.7367, 2333.259
290.2188, 2304.722
290.7009, 2275.772
291.1830, 2245.818
291.6652, 2211.245
292.1473, 2172.521
292.6294, 2140.488
293.1115, 2130.560
293.5936, 2133.435
294.0757, 2113.537
294.5579, 2063.479
295.0400, 2003.805
295.5221, 1963.763
296.0042, 1940.209
296.4863, 1916.812
296.9684, 1879.686
297.4506, 1836.366
297.9327, 1808.719
298.4148, 1801.351
298.8969, 1794.855
299.3790, 1763.194
299.8611, 1712.009
300.3433, 1661.254
300.8254, 1620.858
301.3075, 1587.765
301.7896, 1558.531
302.2717, 1532.924
302.7538, 1509.472
303.2360, 1488.335
303.7181, 1468.377
304.2002, 1446.429
304.6823, 1415.661
305.1644, 1384.673
305.6465, 1366.544
306.1287, 1362.665
306.6108, 1359.776
307.0929, 1346.736
307.5750, 1327.028
308.0571, 1306.484
308.5392, 1286.014
309.0214, 1267.111
309.5035, 1251.786
309.9856, 1240.270
310.4677, 1228.495
310.9498, 1209.940
311.4319, 1190.275
311.9141, 1176.993
312.3962, 1181.507
312.8783, 1186.650
313.3604, 1179.085
313.8426, 1159.206
314.3247, 1141.085
314.8068, 1133.615
315.2889, 1131.439
315.7710, 1128.835
316.2531, 1124.013
316.7353, 1118.299
317.2174, 1112.250
317.6995, 1105.846
318.1816, 1098.815
318.6637, 1088.104
319.1458, 1078.216
319.6280, 1072.767
320.1101, 1081.184
320.5922, 1085.495
321.0743, 1077.227
321.5564, 1058.880
322.0385, 1044.494
322.5207, 1041.282
323.0028, 1040.873
323.4849, 1038.042
323.9670, 1024.618
324.4491, 1017.467
324.9312, 1022.763
325.4134, 1037.227
325.8955, 1048.513
326.3776, 1057.852
326.8597, 1061.682
327.3418, 1057.793
327.8239, 1034.042
328.3061, 1019.648
328.7882, 1020.000
329.2703, 1030.231
329.7524, 1038.035
330.2345, 1045.135
330.7166, 1048.104
331.1988, 1045.010
331.6809, 1032.430
332.1630, 1021.779
332.6451, 1013.059
333.1272, 1006.249
333.6093, 1000.703
334.0915, 992.0646
334.5736, 991.6442
335.0557, 1007.169
335.5378, 1045.647
336.0199, 1064.883
336.5020, 1056.344
336.9842, 1036.990
337.4663, 1031.589
337.9484, 1046.322
338.4305, 1058.069
338.9126, 1058.941
339.3947, 1048.833
339.8769, 1043.637
340.3590, 1044.430
340.8411, 1047.848
341.3232, 1050.502
341.8053, 1052.319
342.2874, 1053.616
342.7696, 1053.710
343.2517, 1053.329
343.7338, 1057.564
344.2159, 1067.555
344.6980, 1076.425
345.1801, 1076.426
345.6623, 1068.250
346.1444, 1062.122
346.6265, 1060.507
347.1086, 1061.985
347.5907, 1064.336
348.0728, 1067.506
348.5550, 1069.058
349.0371, 1063.647
349.5192, 1054.620
350.0013, 1053.955
350.4834, 1066.247
350.9655, 1082.667
351.4477, 1089.115
351.9298, 1087.585
352.4119, 1087.488
352.8940, 1098.361
353.3761, 1113.448
353.8582, 1120.744
354.3404, 1117.401
354.8225, 1111.537
355.3046, 1111.404
355.7867, 1114.831
356.2688, 1116.607
356.7509, 1109.623
357.2331, 1102.403
357.7152, 1104.108
358.1973, 1116.205
358.6794, 1129.061
359.1615, 1134.867
359.6436, 1137.964
360.1258, 1144.423
360.6079, 1163.003
361.0900, 1180.281
361.5721, 1186.491
362.0542, 1181.614
362.5363, 1180.174
363.0185, 1193.962
363.5006, 1211.199
363.9827, 1221.174
364.4648, 1213.164
364.9469, 1206.011
365.4290, 1203.363
365.9112, 1205.411
366.3933, 1212.718
366.8754, 1233.188
367.3575, 1253.778
367.8396, 1266.845
368.3217, 1260.346
368.8039, 1260.499
369.2860, 1273.720
369.7681, 1295.152
370.2502, 1310.551
370.7323, 1315.837
371.2144, 1319.164
371.6966, 1323.096
372.1787, 1326.591
372.6608, 1333.013
373.1429, 1341.234
373.6250, 1352.991
374.1071, 1372.175
374.5893, 1402.463
375.0714, 1433.123
375.5535, 1462.480
376.0356, 1491.045
376.5177, 1507.401
376.9998, 1506.462
377.4820, 1501.774
377.9641, 1509.753
378.4462, 1532.255
378.9283, 1555.539
379.4104, 1576.995
379.8925, 1596.358
380.3747, 1611.656
380.8568, 1622.560
381.3389, 1632.249
381.8210, 1644.814
382.3031, 1659.406
382.7852, 1669.403
383.2674, 1672.132
383.7495, 1671.592
384.2316, 1674.515
384.7137, 1680.808
385.1958, 1689.348
385.6779, 1700.537
386.1601, 1713.360
386.6422, 1725.240
387.1243, 1735.798
387.6064, 1746.225
388.0885, 1760.165
388.5706, 1775.466
389.0528, 1786.192
389.5349, 1784.590
390.0170, 1779.789
390.4991, 1780.210
390.9812, 1786.498
391.4633, 1796.168
391.9455, 1810.576
392.4276, 1826.565
392.9097, 1840.126
393.3918, 1848.132
393.8739, 1854.871
394.3561, 1861.577
394.8382, 1868.427
395.3203, 1876.976
395.8024, 1889.613
396.2845, 1902.963
396.7667, 1914.658
397.2488, 1922.591
397.7309, 1930.936
398.2130, 1938.568
398.6951, 1946.801
399.1772, 1959.836
399.6594, 1990.460
400.1415, 2015.065
400.6236, 2023.012
401.1057, 2002.022
401.5878, 1994.021
402.0699, 2008.514
402.5521, 2031.363
403.0342, 2041.962
403.5163, 2037.129
403.9984, 2025.354
404.4805, 2006.462
404.9626, 1980.418
405.4448, 1959.099
405.9269, 1942.246
406.4090, 1930.599
406.8911, 1928.288
407.3732, 1938.080
407.8553, 1937.670
408.3375, 1920.998
408.8196, 1892.696
409.3017, 1865.299
409.7838, 1838.533
410.2659, 1815.672
410.7480, 1799.882
411.2302, 1790.324
411.7123, 1783.525
412.1944, 1779.449
412.6765, 1777.225
413.1586, 1774.491
413.6407, 1772.108
414.1229, 1773.826
414.6050, 1783.900
415.0871, 1798.424
415.5692, 1810.030
416.0513, 1818.311
416.5334, 1829.942
417.0156, 1855.888
417.4977, 1887.597
417.9798, 1911.822
418.4619, 1908.290
418.9440, 1909.415
419.4261, 1941.249
419.9083, 1998.503
420.3904, 2053.307
420.8725, 2091.294
421.3546, 2122.984
421.8367, 2154.550
422.3188, 2184.389
422.8010, 2219.589
423.2831, 2266.786
423.7652, 2320.395
424.2473, 2369.606
424.7294, 2414.682
425.2115, 2453.924
425.6937, 2485.743
426.1758, 2507.450
426.6579, 2531.832
427.1400, 2562.455
427.6221, 2593.575
428.1042, 2620.158
428.5864, 2642.525
429.0685, 2659.677
429.5506, 2671.422
430.0327, 2677.707
430.5148, 2679.952
430.9969, 2681.603
431.4791, 2670.608
431.9612, 2634.852
432.4433, 2572.826
432.9254, 2513.101
433.4075, 2459.697
433.8896, 2408.099
434.3718, 2349.180
434.8539, 2283.130
435.3360, 2216.295
435.8181, 2148.952
436.3002, 2083.954
436.7823, 2032.098
437.2645, 1994.960
437.7466, 1958.324
438.2287, 1902.514
438.7108, 1836.841
439.1929, 1782.328
439.6750, 1755.795
440.1572, 1734.634
440.6393, 1693.930
441.1214, 1637.796
441.6035, 1586.536
442.0856, 1552.546
442.5677, 1528.182
443.0499, 1507.569
443.5320, 1492.021
444.0141, 1474.820
444.4962, 1453.275
444.9783, 1428.378
445.4604, 1401.790
445.9426, 1363.380
446.4247, 1333.218
446.9068, 1321.587
447.3889, 1332.365
447.8710, 1335.741
448.3531, 1321.756
448.8353, 1305.170
449.3174, 1297.657
449.7995, 1311.578
450.2816, 1313.034
450.7637, 1292.239
451.2458, 1256.745
451.7280, 1237.845
452.2101, 1241.066
452.6922, 1247.703
453.1743, 1248.337
453.6564, 1242.276
454.1385, 1237.078
454.6207, 1232.670
455.1028, 1229.504
455.5849, 1228.751
456.0670, 1230.268
456.5491, 1231.626
457.0313, 1232.545
457.5134, 1232.474
457.9955, 1228.245
458.4776, 1220.072
458.9597, 1214.631
459.4418, 1221.567
459.9240, 1233.843
460.4061, 1238.502
460.8882, 1229.956
461.3703, 1220.067
461.8524, 1222.191
462.3345, 1231.028
462.8167, 1234.214
463.2988, 1214.398
463.7809, 1195.767
464.2630, 1197.334
464.7451, 1222.696
465.2272, 1242.001
465.7094, 1235.075
466.1915, 1222.129
466.6736, 1221.286
467.1557, 1254.520
467.6378, 1278.985
468.1199, 1283.331
468.6021, 1272.389
469.0842, 1267.829
469.5663, 1276.319
470.0484, 1283.382
470.5305, 1282.039
471.0126, 1268.382
471.4948, 1259.329
471.9769, 1255.253
472.4590, 1255.191
472.9411, 1259.528
473.4232, 1269.559
473.9053, 1275.370
474.3875, 1272.842
474.8696, 1264.189
475.3517, 1257.436
475.8338, 1252.471
476.3159, 1250.654
476.7981, 1257.073
477.2802, 1267.808
477.7623, 1270.331
478.2444, 1261.828
478.7265, 1247.835
479.2086, 1230.995
479.6908, 1213.480
480.1729, 1200.964
480.6550, 1198.743
481.1371, 1200.917
481.6192, 1202.602
482.1013, 1203.706
482.5835, 1206.705
483.0656, 1219.402
483.5477, 1231.007
484.0298, 1232.066
484.5119, 1210.792
484.9940, 1191.775
485.4762, 1181.228
485.9583, 1176.704
486.4404, 1171.896
486.9225, 1168.921
487.4046, 1162.782
487.8867, 1149.352
488.3689, 1125.312
488.8510, 1115.261
489.3331, 1127.814
489.8152, 1143.880
490.2973, 1142.699
490.7794, 1118.816
491.2616, 1101.269
491.7437, 1095.553
492.2258, 1098.272
492.7079, 1103.000
493.1900, 1110.104
493.6721, 1111.231
494.1543, 1093.582
494.6364, 1065.362
495.1185, 1057.954
495.6006, 1074.797
496.0827, 1095.822
496.5648, 1103.820
497.0470, 1100.825
497.5291, 1090.093
498.0112, 1062.958
498.4933, 1038.551
498.9754, 1034.910
499.4576, 1048.275
499.9397, 1064.815
500.4218, 1086.786
500.9039, 1103.610
501.3860, 1106.663
501.8681, 1089.559
502.3503, 1075.843
502.8324, 1072.936
503.3145, 1075.443
503.7966, 1076.954
504.2787, 1075.048
504.7608, 1074.566
505.2430, 1075.767
505.7251, 1078.776
506.2072, 1085.318
506.6893, 1098.009
507.1714, 1109.504
507.6535, 1115.109
508.1357, 1113.861
508.6178, 1114.816
509.0999, 1118.771
509.5820, 1123.603
510.0641, 1125.949
510.5462, 1126.073
511.0284, 1126.942
511.5105, 1128.576
511.9926, 1132.264
512.4747, 1143.686
512.9568, 1161.530
513.4389, 1174.809
513.9210, 1170.548
514.4031, 1159.616
514.8853, 1156.501
515.3674, 1165.196
515.8495, 1173.500
516.3316, 1169.503
516.8137, 1161.739
517.2958, 1162.014
517.7780, 1185.373
518.2601, 1206.086
518.7422, 1211.316
519.2244, 1203.191
519.7065, 1203.881
520.1886, 1223.100
520.6707, 1245.332
521.1528, 1264.700
521.6349, 1283.026
522.1171, 1292.574
522.5992, 1287.354
523.0813, 1279.353
523.5634, 1287.470
524.0455, 1315.906
524.5276, 1337.218
525.0098, 1340.714
525.4919, 1333.672
525.9740, 1342.338
526.4561, 1367.214
526.9382, 1394.167
527.4203, 1413.312
527.9025, 1427.856
528.3846, 1447.049
528.8667, 1473.259
529.3488, 1495.110
529.8309, 1495.839
530.3130, 1485.914
530.7952, 1482.339
531.2773, 1494.161
531.7594, 1511.881
532.2415, 1535.130
532.7236, 1561.535
533.2057, 1579.909
533.6879, 1577.732
534.1700, 1574.089
534.6521, 1578.508
535.1342, 1594.154
535.6163, 1611.468
536.0984, 1634.262
536.5806, 1655.805
537.0627, 1667.404
537.5448, 1662.529
538.0269, 1664.476
538.5090, 1679.621
538.9911, 1702.755
539.4733, 1715.587
539.9554, 1717.142
540.4375, 1716.299
540.9196, 1715.192
541.4017, 1715.189
541.8839, 1724.312
542.3660, 1743.482
542.8481, 1764.501
543.3302, 1782.963
543.8123, 1797.497
544.2944, 1804.824
544.7766, 1800.216
545.2587, 1794.347
545.7408, 1795.370
546.2229, 1801.667
546.7050, 1809.234
547.1871, 1818.167
547.6693, 1826.509
548.1514, 1831.154
548.6335, 1830.946
549.1156, 1838.191
549.5977, 1864.455
550.0798, 1892.261
550.5620, 1909.100
551.0441, 1907.471
551.5262, 1910.074
552.0083, 1919.680
552.4904, 1932.619
552.9725, 1941.678
553.4547, 1946.316
553.9368, 1949.573
554.4189, 1950.110
554.9010, 1950.399
555.3831, 1961.491
555.8652, 1983.529
556.3474, 2009.079
556.8295, 2031.375
557.3116, 2053.243
557.7937, 2082.568
558.2758, 2123.295
558.7579, 2159.627
559.2401, 2171.424
559.7222, 2171.106
560.2043, 2177.791
560.6864, 2207.229
561.1685, 2236.952
561.6506, 2257.402
562.1328, 2269.503
562.6149, 2279.427
563.0970, 2283.065
563.5791, 2289.419
564.0612, 2302.221
564.5433, 2322.490
565.0255, 2345.739
565.5076, 2373.297
565.9897, 2401.951
566.4718, 2430.371
566.9539, 2459.579
567.4360, 2480.301
567.9182, 2489.907
568.4003, 2491.376
568.8824, 2492.103
569.3645, 2491.513
569.8466, 2482.467
570.3287, 2451.198
570.8109, 2412.882
571.2930, 2395.423
571.7751, 2398.374
572.2572, 2406.166
572.7393, 2412.181
573.2214, 2415.414
573.7036, 2414.252
574.1857, 2406.148
574.6678, 2398.841
575.1499, 2397.038
575.6320, 2397.314
576.1141, 2394.620
576.5963, 2381.982
577.0784, 2373.464
577.5605, 2373.209
578.0426, 2379.754
578.5247, 2384.317
579.0068, 2387.859
579.4890, 2387.359
579.9711, 2380.087
580.4532, 2365.630
580.9353, 2350.834
581.4174, 2334.394
581.8995, 2323.049
582.3817, 2329.394
582.8638, 2348.160
583.3459, 2359.261
583.8280, 2355.590
584.3101, 2346.868
584.7922, 2344.647
585.2744, 2346.227
585.7565, 2344.603
586.2386, 2329.588
586.7207, 2316.110
587.2028, 2318.671
587.6849, 2336.690
588.1671, 2340.945
588.6492, 2309.580
589.1313, 2272.152
589.6134, 2246.941
590.0955, 2239.841
590.5776, 2232.554
591.0598, 2225.889
591.5419, 2218.312
592.0240, 2206.280
592.5061, 2187.763
592.9882, 2176.244
593.4703, 2178.935
593.9525, 2186.554
594.4346, 2172.947
594.9167, 2139.588
595.3988, 2107.210
595.8809, 2089.035
596.3630, 2078.953
596.8452, 2067.111
597.3273, 2053.379
597.8094, 2040.639
598.2915, 2033.795
598.7736, 2027.435
599.2557, 2015.658
599.7379, 1993.720
600.2200, 1973.735
600.7021, 1955.592
601.1842, 1942.426
601.6663, 1939.897
602.1484, 1965.560
602.6306, 1976.670
603.1127, 1958.026
603.5948, 1918.290
604.0769, 1905.017
604.5590, 1926.530
605.0411, 1947.371
605.5233, 1945.875
606.0054, 1925.151
606.4875, 1913.556
606.9696, 1912.063
607.4517, 1910.910
607.9338, 1896.669
608.4160, 1876.503
608.8981, 1866.709
609.3802, 1873.632
609.8623, 1882.944
610.3444, 1884.543
610.8265, 1881.073
611.3087, 1876.999
611.7908, 1870.960
612.2729, 1867.544
612.7550, 1869.961
613.2371, 1877.260
613.7192, 1882.812
614.2014, 1891.118
614.6835, 1891.602
615.1656, 1876.143
615.6477, 1841.459
616.1298, 1824.237
616.6119, 1828.743
617.0941, 1839.972
617.5762, 1845.634
618.0583, 1845.949
618.5404, 1841.036
619.0225, 1829.159
619.5046, 1817.508
619.9868, 1818.631
620.4689, 1827.100
620.9510, 1829.749
621.4331, 1817.012
621.9152, 1800.109
622.3973, 1783.692
622.8795, 1768.553
623.3616, 1757.571
623.8437, 1757.530
624.3258, 1756.769
624.8079, 1749.075
625.2900, 1732.835
625.7722, 1718.909
626.2543, 1707.054
626.7364, 1697.817
627.2185, 1692.952
627.7006, 1693.872
628.1827, 1690.054
628.6649, 1680.619
629.1470, 1666.750
629.6291, 1646.409
630.1112, 1621.781
630.5933, 1604.781
631.0754, 1603.860
631.5576, 1606.866
632.0397, 1595.973
632.5218, 1575.932
633.0039, 1561.755
633.4860, 1569.323
633.9681, 1578.217
634.4503, 1575.384
634.9324, 1559.804
635.4145, 1546.121
635.8966, 1540.199
636.3787, 1534.667
636.8608, 1524.948
637.3430, 1507.587
637.8251, 1496.003
638.3072, 1492.137
638.7893, 1491.268
639.2714, 1488.260
639.7535, 1483.111
640.2357, 1475.938
640.7178, 1466.137
641.1999, 1455.383
641.6820, 1445.119
642.1641, 1435.785
642.6462, 1429.111
643.1284, 1425.426
643.6105, 1425.045
644.0926, 1430.755
644.5747, 1441.159
645.0568, 1447.933
645.5389, 1450.858
646.0211, 1446.870
646.5032, 1432.595
646.9853, 1403.872
647.4674, 1379.114
647.9495, 1356.774
648.4316, 1340.192
648.9138, 1333.504
649.3959, 1338.827
649.8780, 1341.844
650.3601, 1341.199
650.8422, 1338.173
651.3243, 1329.926
651.8065, 1319.282
652.2886, 1322.515
652.7707, 1358.047
653.2528, 1393.388
653.7349, 1378.840
654.2170, 1331.614
654.6992, 1302.600
655.1813, 1343.397
655.6634, 1384.606
656.1455, 1384.603
656.6276, 1341.606
657.1097, 1307.662
657.5919, 1294.289
658.0740, 1286.410
658.5561, 1277.512
659.0382, 1267.139
659.5203, 1257.737
660.0024, 1249.526
660.4846, 1241.629
660.9667, 1232.747
661.4488, 1223.050
661.9309, 1214.998
662.4130, 1209.441
662.8951, 1204.348
663.3773, 1193.458
663.8594, 1181.345
664.3415, 1177.854
664.8236, 1202.306
665.3057, 1222.048
665.7878, 1211.269
666.2700, 1179.724
666.7521, 1160.573
667.2342, 1180.083
667.7163, 1194.679
668.1984, 1186.785
668.6805, 1156.603
669.1627, 1139.927
669.6448, 1141.542
670.1269, 1145.781
670.6090, 1141.750
671.0911, 1129.992
671.5732, 1122.643
672.0554, 1120.552
672.5375, 1119.264
673.0196, 1112.168
673.5017, 1103.114
673.9838, 1099.950
674.4659, 1106.157
674.9481, 1114.082
675.4302, 1122.218
675.9123, 1128.023
676.3944, 1127.936
676.8765, 1117.955
677.3586, 1105.380
677.8408, 1086.458
678.3229, 1066.115
678.8050, 1060.240
679.2871, 1075.726
679.7692, 1088.501
680.2513, 1089.822
680.7335, 1081.740
681.2156, 1072.282
681.6977, 1061.267
682.1799, 1055.742
682.6620, 1064.678
683.1441, 1080.658
683.6262, 1093.393
684.1083, 1102.138
684.5905, 1104.174
685.0726, 1093.524
685.5547, 1077.737
686.0368, 1062.628
686.5189, 1046.658
687.0010, 1037.195
687.4832, 1037.744
687.9653, 1043.911
688.4474, 1052.422
688.9295, 1065.554
689.4116, 1074.494
689.8937, 1078.267
690.3759, 1077.107
690.8580, 1067.850
691.3401, 1051.665
691.8222, 1042.493
692.3043, 1048.513
692.7864, 1061.152
693.2686, 1069.267
693.7507, 1073.725
694.2328, 1077.516
694.7149, 1085.338
695.1970, 1090.311
695.6791, 1085.845
696.1613, 1071.916
696.6434, 1063.569
697.1255, 1065.516
697.6076, 1070.799
698.0897, 1077.345
698.5718, 1085.666
699.0540, 1090.773
699.5361, 1091.984
700.0182, 1092.053
700.5003, 1094.129
700.9824, 1097.459
701.4645, 1097.670
701.9467, 1093.588
702.4288, 1089.800
702.9109, 1090.997
703.3930, 1095.369
703.8751, 1100.122
704.3572, 1103.040
704.8394, 1108.258
705.3215, 1122.728
705.8036, 1139.640
706.2857, 1145.492
706.7678, 1131.866
707.2499, 1119.903
707.7321, 1113.046
708.2142, 1110.331
708.6963, 1109.553
709.1784, 1111.098
709.6605, 1110.512
710.1426, 1101.880
710.6248, 1091.416
711.1069, 1097.408
711.5890, 1117.471
712.0711, 1135.253
712.5532, 1137.126
713.0353, 1134.245
713.5175, 1136.902
713.9996, 1146.357
714.4817, 1151.158
714.9638, 1141.210
715.4459, 1131.211
715.9280, 1130.405
716.4102, 1142.780
716.8923, 1151.078
717.3744, 1154.596
717.8565, 1155.499
718.3386, 1155.008
718.8207, 1153.417
719.3029, 1154.491
719.7850, 1159.436
720.2671, 1164.361
720.7492, 1163.840
721.2313, 1160.230
721.7134, 1157.922
722.1956, 1160.193
722.6777, 1161.276
723.1598, 1155.506
723.6419, 1147.146
724.1240, 1144.681
724.6061, 1159.283
725.0883, 1165.785
725.5704, 1155.272
726.0525, 1135.073
726.5346, 1132.183
727.0167, 1149.286
727.4988, 1162.539
727.9810, 1158.467
728.4631, 1145.201
728.9452, 1142.759
729.4273, 1149.787
729.9094, 1157.578
730.3915, 1163.060
730.8737, 1165.374
731.3558, 1162.745
731.8379, 1155.109
732.3200, 1147.890
732.8021, 1142.955
733.2842, 1138.549
733.7664, 1133.581
734.2485, 1127.635
734.7306, 1123.150
735.2127, 1120.429
735.6948, 1118.452
736.1769, 1115.331
736.6591, 1111.715
737.1412, 1113.430
737.6233, 1121.746
738.1054, 1130.018
738.5875, 1131.855
739.0696, 1129.458
739.5518, 1125.757
740.0339, 1120.837
740.5160, 1116.077
740.9981, 1112.402
741.4802, 1108.993
741.9623, 1104.822
742.4445, 1100.402
742.9266, 1093.614
743.4087, 1081.485
743.8908, 1069.399
744.3729, 1071.304
744.8550, 1087.296
745.3372, 1096.006
745.8193, 1088.300
746.3014, 1073.833
746.7835, 1065.184
747.2656, 1061.942
747.7477, 1062.620
748.2299, 1073.009
748.7120, 1081.050
749.1941, 1078.308
749.6762, 1066.719
750.1583, 1057.159
750.6404, 1050.032
751.1226, 1046.495
751.6047, 1048.688
752.0868, 1055.631
752.5689, 1055.613
753.0510, 1047.607
753.5331, 1040.801
754.0153, 1044.402
754.4974, 1052.664
754.9795, 1050.243
755.4616, 1037.467
755.9437, 1025.297
756.4258, 1020.228
756.9080, 1019.266
757.3901, 1020.505
757.8722, 1023.894
758.3543, 1028.414
758.8364, 1036.655
759.3185, 1043.583
759.8007, 1045.678
760.2828, 1041.385
760.7649, 1039.263
761.2470, 1039.516
761.7291, 1041.225
762.2112, 1045.523
762.6934, 1050.598
763.1755, 1049.585
763.6576, 1040.392
764.1397, 1030.561
764.6218, 1026.658
765.1039, 1025.219
765.5861, 1021.976
766.0682, 1013.241
766.5503, 1007.010
767.0324, 1006.194
767.5145, 1007.691
767.9966, 1007.746
768.4788, 1005.489
768.9609, 1005.376
769.4430, 1008.503
769.9251, 1013.176
770.4072, 1017.869
770.8893, 1021.953
771.3715, 1022.417
771.8536, 1016.367
772.3357, 1009.372
772.8178, 1005.557
773.2999, 1004.373
773.7820, 1004.728
774.2642, 1010.873
774.7463, 1013.088
775.2284, 1005.911
775.7105, 993.7502
776.1926, 988.5249
776.6747, 991.8625
777.1569, 996.3967
777.6390, 1000.892
778.1211, 1004.231
778.6032, 1001.613
779.0853, 994.3117
779.5674, 989.4465
780.0496, 994.5493
780.5317, 1000.807
781.0138, 999.7566
781.4959, 992.8373
781.9780, 987.6046
782.4601, 984.3392
782.9423, 985.6339
783.4244, 995.5923
783.9065, 1012.595
784.3886, 1015.917
784.8707, 1002.046
785.3528, 987.8735
785.8350, 981.9701
786.3171, 982.9692
786.7992, 987.5386
787.2813, 995.3063
787.7634, 1002.047
788.2455, 1005.114
788.7277, 1005.896
789.2098, 1005.445
789.6919, 1003.850
790.1740, 1000.919
790.6561, 993.7478
791.1382, 987.9929
791.6204, 986.9097
792.1025, 991.1169
792.5846, 991.4724
793.0667, 986.7359
793.5488, 983.5584
794.0309, 991.0057
794.5131, 1003.741
794.9952, 1005.539
795.4773, 995.3107
795.9594, 984.8279
796.4415, 981.0040
796.9236, 981.5271
797.4058, 985.3074
797.8879, 993.5831
798.3700, 999.7951
798.8521, 1003.026
799.3342, 1004.405
799.8163, 1003.351
800.2985, 998.7327
800.7806, 1002.204
801.2627, 1015.706
801.7448, 1029.084
802.2269, 1032.046
802.7090, 1027.333
803.1912, 1018.279
803.6733, 1004.093
804.1554, 994.3802
804.6375, 997.1736
805.1196, 1005.930
805.6017, 1015.108
806.0839, 1026.452
806.5660, 1032.934
807.0481, 1032.997
807.5302, 1030.127
808.0123, 1026.992
808.4944, 1023.593
808.9766, 1022.637
809.4587, 1024.752
809.9408, 1027.680
810.4229, 1028.934
810.9050, 1029.362
811.3871, 1030.516
811.8693, 1033.428
812.3514, 1035.251
812.8335, 1034.550
813.3156, 1032.253
813.7977, 1029.261
814.2798, 1024.562
814.7620, 1021.394
815.2441, 1019.682
815.7262, 1019.942
816.2083, 1023.663
816.6904, 1030.312
817.1725, 1037.348
817.6547, 1045.251
818.1368, 1049.536
818.6189, 1041.057
819.1010, 1028.125
819.5831, 1022.006
820.0652, 1029.157
820.5474, 1038.067
821.0295, 1051.076
821.5116, 1061.912
821.9937, 1062.526
822.4758, 1049.988
822.9579, 1039.726
823.4401, 1033.172
823.9222, 1030.487
824.4043, 1031.892
824.8864, 1037.415
825.3685, 1049.036
825.8506, 1071.992
826.3328, 1088.832
826.8149, 1082.708
827.2970, 1065.353
827.7791, 1051.787
828.2612, 1046.835
828.7433, 1042.628
829.2255, 1036.927
829.7076, 1033.805
830.1897, 1042.208
830.6718, 1062.032
831.1539, 1071.454
831.6360, 1063.969
832.1182, 1053.113
832.6003, 1057.414
833.0824, 1069.113
833.5645, 1075.153
834.0466, 1069.096
834.5287, 1061.312
835.0109, 1054.265
835.4930, 1047.914
835.9751, 1040.988
836.4572, 1029.381
836.9393, 1030.223
837.4214, 1048.423
837.9036, 1072.925
838.3857, 1091.050
838.8678, 1102.452
839.3499, 1103.318
839.8320, 1089.362
840.3141, 1075.319
840.7963, 1073.250
841.2784, 1078.009
841.7605, 1083.324
842.2426, 1089.812
842.7247, 1093.639
843.2068, 1093.454
843.6890, 1091.681
844.1711, 1090.988
844.6532, 1091.379
845.1353, 1093.695
845.6174, 1099.178
846.0995, 1102.077
846.5817, 1088.944
847.0638, 1070.082
847.5460, 1064.838
848.0281, 1082.848
848.5102, 1101.830
848.9923, 1116.592
849.4744, 1125.629
849.9565, 1126.957
850.4387, 1116.131
850.9208, 1108.712
851.4029, 1104.791
851.8850, 1105.503
852.3671, 1118.077
852.8492, 1137.174
853.3314, 1138.762
853.8135, 1115.298
854.2956, 1095.435
854.7777, 1108.132
855.2598, 1132.550
855.7419, 1146.852
856.2241, 1140.073
856.7062, 1139.113
857.1883, 1150.872
857.6704, 1162.560
858.1525, 1160.891
858.6346, 1145.300
859.1168, 1139.740
859.5989, 1146.921
860.0810, 1153.641
860.5631, 1142.403
861.0452, 1124.724
861.5273, 1116.580
862.0095, 1121.453
862.4916, 1129.955
862.9737, 1144.079
863.4558, 1156.146
863.9379, 1160.860
864.4200, 1157.070
864.9022, 1150.792
865.3843, 1140.758
865.8664, 1132.820
866.3485, 1133.430
866.8306, 1139.586
867.3127, 1144.488
867.7949, 1147.694
868.2770, 1148.280
868.7591, 1139.065
869.2412, 1132.094
869.7233, 1139.436
870.2054, 1166.372
870.6876, 1176.242
871.1697, 1160.632
871.6518, 1144.158
872.1339, 1140.812
872.6160, 1149.002
873.0981, 1158.542
873.5803, 1169.488
874.0624, 1180.454
874.5445, 1190.550
875.0266, 1200.362
875.5087, 1213.233
875.9908, 1228.386
876.4730, 1233.785
876.9551, 1215.250
877.4372, 1199.234
877.9193, 1194.369
878.4014, 1199.240
878.8835, 1206.283
879.3657, 1215.617
879.8478, 1221.270
880.3299, 1215.935
880.8120, 1207.759
881.2941, 1209.246
881.7762, 1217.977
882.2584, 1225.563
882.7405, 1229.759
883.2226, 1230.944
883.7047, 1228.364
884.1868, 1223.016
884.6689, 1216.315
885.1511, 1207.014
885.6332, 1203.682
886.1153, 1212.229
886.5974, 1223.451
887.0795, 1218.052
887.5616, 1201.462
888.0438, 1188.469
888.5259, 1187.187
889.0080, 1188.979
889.4901, 1193.855
889.9722, 1198.328
890.4543, 1195.228
890.9365, 1179.899
891.4186, 1169.396
891.9007, 1167.536
892.3828, 1168.481
892.8649, 1159.626
893.3470, 1145.270
893.8292, 1141.554
894.3113, 1155.655
894.7934, 1171.785
895.2755, 1181.543
895.7576, 1185.689
896.2397, 1184.643
896.7219, 1172.547
897.2040, 1165.931
897.6861, 1166.730
898.1682, 1169.880
898.6503, 1170.886
899.1324, 1169.764
899.6146, 1165.111
900.0967, 1156.297
900.5788, 1150.122
901.0609, 1154.097
901.5430, 1162.117
902.0251, 1170.210
902.5073, 1179.619
902.9894, 1177.767
903.4715, 1151.409
903.9536, 1130.254
904.4357, 1134.943
904.9178, 1163.723
905.4000, 1179.038
905.8821, 1180.732
906.3642, 1177.155
906.8463, 1172.724
907.3284, 1167.062
907.8105, 1155.768
908.2927, 1140.578
908.7748, 1136.549
909.2569, 1161.730
909.7390, 1183.523
910.2211, 1189.884
910.7032, 1184.590
911.1854, 1187.115
911.6675, 1197.678
912.1496, 1208.783
912.6317, 1218.361
913.1138, 1225.251
913.5959, 1227.914
914.0781, 1226.654
914.5602, 1222.200
915.0423, 1204.531
915.5244, 1196.579
916.0065, 1209.667
916.4886, 1232.440
916.9708, 1244.051
917.4529, 1243.479
917.9350, 1242.780
918.4171, 1244.660
918.8992, 1246.488
919.3813, 1243.344
919.8635, 1238.133
920.3456, 1235.892
920.8277, 1239.061
921.3098, 1242.955
921.7919, 1247.430
922.2740, 1251.166
922.7562, 1252.584
923.2383, 1250.896
923.7204, 1250.888
924.2025, 1252.544
924.6846, 1256.770
925.1667, 1266.247
925.6489, 1278.143
926.1310, 1288.215
926.6131, 1295.936
927.0952, 1302.006
927.5773, 1302.226
928.0594, 1305.324
928.5416, 1317.762
929.0237, 1339.497
929.5058, 1352.427
929.9879, 1355.784
930.4700, 1356.292
930.9521, 1353.025
931.4343, 1351.923
931.9164, 1367.599
932.3985, 1395.536
932.8806, 1418.916
933.3627, 1427.925
933.8448, 1433.188
934.3270, 1435.068
934.8091, 1436.674
935.2912, 1447.499
935.7733, 1469.960
936.2554, 1485.581
936.7375, 1487.559
937.2197, 1485.489
937.7018, 1493.787
938.1839, 1508.857
938.6660, 1523.367
939.1481, 1536.227
939.6302, 1546.653
940.1124, 1552.657
940.5945, 1557.280
941.0766, 1563.432
941.5587, 1571.320
942.0408, 1580.102
942.5229, 1589.752
943.0051, 1599.749
943.4872, 1610.466
943.9693, 1620.901
944.4514, 1630.310
944.9335, 1638.711
945.4156, 1642.880
945.8978, 1635.777
946.3799, 1629.451
946.8620, 1630.370
947.3441, 1638.251
947.8262, 1645.727
948.3083, 1653.169
948.7905, 1656.758
949.2726, 1651.615
949.7547, 1643.025
950.2368, 1637.896
950.7189, 1635.756
951.2010, 1635.055
951.6832, 1638.532
952.1653, 1639.009
952.6474, 1629.976
953.1295, 1619.170
953.6116, 1628.721
954.0938, 1660.014
954.5759, 1670.833
955.0580, 1645.568
955.5401, 1614.705
956.0222, 1616.819
956.5043, 1636.052
956.9865, 1648.074
957.4686, 1638.785
957.9507, 1640.328
958.4328, 1666.339
958.9149, 1695.324
959.3970, 1709.700
959.8792, 1709.175
960.3613, 1710.483
960.8434, 1714.031
961.3255, 1720.353
961.8076, 1733.695
962.2897, 1747.425
962.7719, 1753.296
963.2540, 1751.350
963.7361, 1753.434
964.2182, 1760.220
964.7003, 1773.609
965.1824, 1794.799
965.6646, 1822.598
966.1467, 1855.899
966.6288, 1893.038
967.1109, 1922.543
967.5930, 1935.317
968.0751, 1944.144
968.5573, 1956.308
969.0394, 1972.623
969.5215, 1995.132
970.0036, 2028.738
970.4857, 2059.838
970.9678, 2086.060
971.4500, 2111.724
971.9321, 2139.277
972.4142, 2170.314
972.8963, 2213.316
973.3784, 2270.025
973.8605, 2328.172
974.3427, 2375.216
974.8248, 2422.579
975.3069, 2478.318
975.7890, 2543.238
976.2711, 2615.971
976.7532, 2698.123
977.2354, 2782.636
977.7175, 2864.107
978.1996, 2946.732
978.6817, 3042.457
979.1638, 3149.841
979.6459, 3263.125
980.1281, 3376.797
980.6102, 3498.726
981.0923, 3630.586
981.5744, 3773.239
982.0565, 3933.001
982.5386, 4112.735
983.0208, 4289.344
983.5029, 4457.203
983.9850, 4627.442
984.4671, 4813.667
984.9492, 5014.786
985.4313, 5233.518
985.9135, 5478.431
986.3956, 5709.480
986.8777, 5895.192
987.3598, 6081.388
987.8419, 6298.843
988.3240, 6547.738
988.8062, 6790.189
989.2883, 7026.478
989.7704, 7228.933
990.2525, 7356.991
990.7346, 7459.043
991.2167, 7590.478
991.6989, 7740.679
992.1810, 7856.360
992.6631, 7916.258
993.1452, 7956.565
993.6273, 7985.997
994.1094, 7996.386
994.5916, 7975.705
995.0737, 7922.172
995.5558, 7822.595
996.0379, 7668.839
996.5200, 7487.500
997.0021, 7295.655
997.4843, 7086.746
997.9664, 6853.329
998.4485, 6592.290
998.9306, 6320.035
999.4127, 6036.508
999.8948, 5749.711
1000.377, 5462.605
1000.859, 5179.208
1001.341, 4897.385
1001.823, 4620.372
1002.305, 4361.960
1002.788, 4131.827
1003.270, 3915.941
1003.752, 3702.789
1004.234, 3498.932
1004.716, 3318.244
1005.198, 3162.909
1005.680, 3022.814
1006.162, 2900.528
1006.644, 2786.363
1007.127, 2669.929
1007.609, 2555.612
1008.091, 2451.622
1008.573, 2361.089
1009.055, 2278.721
1009.537, 2204.325
1010.019, 2136.899
1010.501, 2075.537
1010.984, 2020.582
1011.466, 1975.267
1011.948, 1939.299
1012.430, 1904.095
1012.912, 1863.751
1013.394, 1822.345
1013.876, 1779.823
1014.358, 1738.368
1014.841, 1707.494
1015.323, 1693.497
1015.805, 1670.822
1016.287, 1630.169
1016.769, 1585.717
1017.251, 1561.325
1017.733, 1551.601
1018.215, 1546.888
1018.697, 1548.769
1019.180, 1542.781
1019.662, 1510.523
1020.144, 1478.766
1020.626, 1469.300
1021.108, 1484.367
1021.590, 1483.075
1022.072, 1464.926
1022.554, 1442.363
1023.036, 1415.777
1023.519, 1395.223
1024.001, 1398.967
1024.483, 1419.376
1024.965, 1426.546
1025.447, 1402.833
1025.929, 1383.302
1026.411, 1372.300
1026.893, 1369.348
1027.375, 1379.912
1027.858, 1398.622
1028.340, 1402.231
1028.822, 1383.169
1029.304, 1364.780
1029.786, 1364.874
1030.268, 1369.309
1030.750, 1363.967
1031.232, 1346.668
1031.715, 1349.332
1032.197, 1375.738
1032.679, 1397.266
1033.161, 1392.512
1033.643, 1375.777
1034.125, 1365.482
1034.607, 1361.220
1035.089, 1361.927
1035.572, 1376.764
1036.054, 1382.647
1036.536, 1369.620
1037.018, 1353.591
1037.500, 1361.400
1037.982, 1389.114
1038.464, 1404.870
1038.946, 1403.844
1039.428, 1401.048
1039.911, 1406.495
1040.393, 1416.003
1040.875, 1425.999
1041.357, 1436.208
1041.839, 1453.149
1042.321, 1480.725
1042.803, 1498.339
1043.285, 1491.012
1043.767, 1475.029
1044.250, 1481.788
1044.732, 1502.694
1045.214, 1518.738
1045.696, 1512.680
1046.178, 1516.206
1046.660, 1541.507
1047.142, 1571.758
1047.624, 1591.583
1048.107, 1601.352
1048.589, 1605.916
1049.071, 1605.475
1049.553, 1607.432
1050.035, 1621.916
1050.517, 1637.042
1050.999, 1642.573
1051.481, 1639.283
1051.964, 1640.030
1052.446, 1647.182
1052.928, 1650.117
1053.410, 1643.941
1053.892, 1636.327
1054.374, 1640.948
1054.856, 1653.261
1055.338, 1666.027
1055.820, 1681.122
1056.302, 1685.779
1056.785, 1670.046
1057.267, 1649.588
1057.749, 1634.106
1058.231, 1623.117
1058.713, 1607.751
1059.195, 1588.065
1059.677, 1564.808
1060.159, 1535.340
1060.642, 1505.458
1061.124, 1476.043
1061.606, 1449.482
1062.088, 1432.670
1062.570, 1430.365
1063.052, 1420.377
1063.534, 1397.887
1064.016, 1373.612
1064.499, 1361.275
1064.981, 1355.028
1065.463, 1346.033
1065.945, 1332.963
1066.427, 1318.136
1066.909, 1296.773
1067.391, 1280.674
1067.873, 1276.828
1068.355, 1280.552
1068.838, 1270.590
1069.320, 1250.805
1069.802, 1242.946
1070.284, 1267.175
1070.766, 1285.383
1071.248, 1265.246
1071.730, 1231.300
1072.212, 1213.671
1072.694, 1218.065
1073.177, 1217.989
1073.659, 1212.580
1074.141, 1207.992
1074.623, 1209.592
1075.105, 1214.436
1075.587, 1222.545
1076.069, 1231.620
1076.551, 1230.511
1077.034, 1206.363
1077.516, 1188.895
1077.998, 1184.408
1078.480, 1186.497
1078.962, 1183.577
1079.444, 1178.185
1079.926, 1179.485
1080.408, 1190.272
1080.891, 1199.379
1081.373, 1199.093
1081.855, 1196.892
1082.337, 1196.688
1082.819, 1198.552
1083.301, 1204.029
1083.783, 1213.070
1084.265, 1221.593
1084.747, 1229.672
1085.229, 1233.794
1085.712, 1224.495
1086.194, 1211.200
1086.676, 1210.455
1087.158, 1238.785
1087.640, 1242.276
1088.122, 1212.845
1088.604, 1183.442
1089.086, 1188.836
1089.569, 1211.502
1090.051, 1216.805
1090.533, 1207.089
1091.015, 1205.912
1091.497, 1236.371
1091.979, 1256.999
1092.461, 1252.999
1092.943, 1239.927
1093.426, 1252.271
1093.908, 1283.334
1094.390, 1295.426
1094.872, 1277.989
1095.354, 1266.013
1095.836, 1287.631
1096.318, 1318.386
1096.800, 1342.973
1097.282, 1361.145
1097.765, 1372.282
1098.247, 1376.142
1098.729, 1376.929
1099.211, 1374.605
1099.693, 1372.826
1100.175, 1370.434
1100.657, 1372.988
1101.139, 1390.496
1101.622, 1441.220
1102.104, 1470.547
1102.586, 1472.144
1103.068, 1469.672
1103.550, 1486.462
1104.032, 1510.987
1104.514, 1516.208
1104.996, 1506.284
1105.479, 1504.097
1105.961, 1524.819
1106.443, 1546.762
1106.925, 1567.624
1107.407, 1584.890
1107.889, 1591.577
1108.371, 1590.277
1108.853, 1595.832
1109.335, 1611.173
1109.818, 1621.904
1110.300, 1611.488
1110.782, 1600.772
1111.264, 1605.437
1111.746, 1621.677
1112.228, 1627.868
1112.710, 1623.963
1113.192, 1611.783
1113.674, 1587.709
1114.157, 1566.099
1114.639, 1565.620
1115.121, 1573.856
1115.603, 1575.862
1116.085, 1568.552
1116.567, 1559.672
1117.049, 1549.222
1117.531, 1537.205
1118.014, 1524.986
1118.496, 1510.344
1118.978, 1486.589
1119.460, 1457.551
1119.942, 1432.668
1120.424, 1418.143
1120.906, 1403.843
1121.388, 1388.463
1121.870, 1373.487
1122.353, 1357.706
1122.835, 1343.970
1123.317, 1344.034
1123.799, 1357.424
1124.281, 1368.770
1124.763, 1374.862
1125.245, 1371.163
1125.727, 1353.774
1126.209, 1328.221
1126.692, 1304.722
1127.174, 1283.703
1127.656, 1269.506
1128.138, 1263.742
1128.620, 1261.859
1129.102, 1267.584
1129.584, 1270.228
1130.066, 1257.804
1130.549, 1232.196
1131.031, 1218.819
1131.513, 1218.304
1131.995, 1220.681
1132.477, 1223.748
1132.959, 1224.668
1133.441, 1218.592
1133.923, 1209.307
1134.406, 1201.916
1134.888, 1196.457
1135.370, 1194.436
1135.852, 1195.709
1136.334, 1201.086
1136.816, 1219.312
1137.298, 1237.136
1137.780, 1225.151
1138.262, 1194.519
1138.745, 1177.425
1139.227, 1199.559
1139.709, 1211.415
1140.191, 1207.466
1140.673, 1196.056
1141.155, 1183.231
1141.637, 1170.946
1142.119, 1164.214
1142.601, 1163.235
1143.084, 1166.768
1143.566, 1178.173
1144.048, 1189.778
1144.530, 1202.708
1145.012, 1211.513
1145.494, 1200.024
1145.976, 1173.904
1146.458, 1159.794
1146.941, 1163.275
1147.423, 1172.340
1147.905, 1190.160
1148.387, 1200.998
1148.869, 1192.074
1149.351, 1169.088
1149.833, 1165.651
1150.315, 1180.269
1150.797, 1191.177
1151.280, 1190.126
1151.762, 1186.263
1152.244, 1183.947
1152.726, 1184.061
1153.208, 1189.635
1153.690, 1202.254
1154.172, 1197.665
1154.654, 1174.751
1155.136, 1158.576
1155.619, 1165.824
1156.101, 1183.377
1156.583, 1208.570
1157.065, 1232.320
1157.547, 1234.642
1158.029, 1201.071
1158.511, 1190.305
1158.993, 1206.643
1159.476, 1229.795
1159.958, 1250.821
1160.440, 1263.500
1160.922, 1251.630
1161.404, 1223.134
1161.886, 1210.227
1162.368, 1227.423
1162.850, 1238.710
1163.333, 1239.386
1163.815, 1234.340
1164.297, 1227.529
1164.779, 1219.744
1165.261, 1210.999
1165.743, 1201.653
1166.225, 1197.833
1166.707, 1205.480
1167.189, 1211.652
1167.672, 1214.143
1168.154, 1212.312
1168.636, 1200.508
1169.118, 1184.541
1169.600, 1178.808
1170.082, 1187.493
1170.564, 1194.001
1171.046, 1192.012
1171.528, 1187.921
1172.011, 1183.882
1172.493, 1179.553
1172.975, 1174.649
1173.457, 1168.585
1173.939, 1157.802
1174.421, 1136.202
1174.903, 1123.644
1175.385, 1141.094
1175.868, 1157.216
1176.350, 1150.336
1176.832, 1125.639
1177.314, 1118.551
1177.796, 1125.559
1178.278, 1128.036
1178.760, 1111.485
1179.242, 1096.812
1179.724, 1093.757
1180.207, 1096.512
1180.689, 1102.012
1181.171, 1110.158
1181.653, 1109.877
1182.135, 1101.507
1182.617, 1090.964
1183.099, 1076.885
1183.581, 1067.132
1184.063, 1070.053
1184.546, 1077.608
1185.028, 1078.110
1185.510, 1071.365
1185.992, 1062.637
1186.474, 1052.204
1186.956, 1045.493
1187.438, 1047.760
1187.920, 1053.694
1188.403, 1062.713
1188.885, 1072.050
1189.367, 1075.213
1189.849, 1072.004
1190.331, 1063.556
1190.813, 1048.948
1191.295, 1040.126
1191.777, 1052.058
1192.260, 1069.999
1192.742, 1087.262
1193.224, 1100.727
1193.706, 1093.387
1194.188, 1061.982
1194.670, 1043.640
1195.152, 1049.411
1195.634, 1059.687
1196.116, 1051.259
1196.599, 1040.813
1197.081, 1049.378
1197.563, 1077.206
1198.045, 1082.608
1198.527, 1062.585
1199.009, 1049.448
1199.491, 1057.869
1199.973, 1070.045
1200.455, 1065.981
1200.938, 1055.517
1201.420, 1051.197
1201.902, 1055.428
1202.384, 1051.824
1202.866, 1038.448
1203.348, 1032.614
1203.830, 1046.928
1204.312, 1066.635
1204.795, 1077.981
1205.277, 1082.641
1205.759, 1082.247
1206.241, 1074.249
1206.723, 1074.393
1207.205, 1084.498
1207.687, 1090.459
1208.169, 1079.137
1208.651, 1062.938
1209.134, 1056.039
1209.616, 1054.456
1210.098, 1049.862
1210.580, 1036.666
1211.062, 1036.595
1211.544, 1052.659
1212.026, 1066.288
1212.508, 1057.286
1212.990, 1042.740
1213.473, 1040.309
1213.955, 1047.796
1214.437, 1059.964
1214.919, 1082.451
1215.401, 1086.560
1215.883, 1067.254
1216.365, 1045.624
1216.847, 1041.504
1217.330, 1043.864
1217.812, 1039.243
1218.294, 1030.048
1218.776, 1029.683
1219.258, 1043.258
1219.740, 1048.044
1220.222, 1039.565
1220.704, 1030.299
1221.187, 1034.049
1221.669, 1042.872
1222.151, 1049.659
1222.633, 1053.624
1223.115, 1053.553
1223.597, 1047.098
1224.079, 1048.041
1224.561, 1060.747
1225.043, 1073.001
1225.526, 1070.625
1226.008, 1061.334
1226.490, 1051.333
1226.972, 1041.711
1227.454, 1036.509
1227.936, 1035.472
1228.418, 1040.694
1228.900, 1053.775
1229.382, 1069.198
1229.865, 1080.116
1230.347, 1090.651
1230.829, 1111.364
1231.311, 1141.953
1231.793, 1136.268
1232.275, 1088.434
1232.757, 1049.313
1233.239, 1035.100
1233.722, 1034.029
1234.204, 1037.198
1234.686, 1044.437
1235.168, 1058.406
1235.650, 1079.188
1236.132, 1089.728
1236.614, 1089.719
1237.096, 1080.905
1237.578, 1058.151
1238.061, 1040.077
1238.543, 1054.801
1239.025, 1076.379
1239.507, 1072.353
1239.989, 1041.385
1240.471, 1022.439
1240.953, 1015.653
1241.435, 1022.081
1241.917, 1050.430
1242.400, 1076.795
1242.882, 1082.097
1243.364, 1073.995
1243.846, 1058.039
1244.328, 1033.698
1244.810, 1024.481
1245.292, 1030.084
1245.774, 1042.810
1246.257, 1066.556
1246.739, 1084.892
1247.221, 1081.159
1247.703, 1070.593
1248.185, 1070.353
1248.667, 1080.856
1249.149, 1085.964
1249.631, 1085.780
1250.114, 1080.703
1250.596, 1062.092
1251.078, 1049.803
1251.560, 1063.434
1252.042, 1080.753
1252.524, 1078.375
1253.006, 1057.619
1253.488, 1041.204
1253.970, 1030.134
1254.453, 1030.091
1254.935, 1061.631
1255.417, 1082.194
1255.899, 1064.220
1256.381, 1040.166
1256.863, 1043.908
1257.345, 1069.311
1257.827, 1077.171
1258.310, 1069.195
1258.792, 1060.401
1259.274, 1055.011
1259.756, 1054.652
1260.238, 1062.514
1260.720, 1070.708
1261.202, 1069.876
1261.684, 1062.906
1262.167, 1057.507
1262.649, 1054.592
1263.131, 1056.883
1263.613, 1075.924
1264.095, 1083.768
1264.577, 1072.429
1265.059, 1057.527
1265.541, 1057.362
1266.023, 1065.369
1266.505, 1066.334
1266.988, 1061.988
1267.470, 1064.195
1267.952, 1083.813
1268.434, 1097.438
1268.916, 1103.333
1269.398, 1101.364
1269.880, 1081.837
1270.362, 1060.194
1270.845, 1067.292
1271.327, 1095.573
1271.809, 1099.074
1272.291, 1057.904
1272.773, 1043.200
1273.255, 1068.002
1273.737, 1096.196
1274.219, 1086.298
1274.702, 1065.227
1275.184, 1062.440
1275.666, 1073.809
1276.148, 1074.026
1276.630, 1058.760
1277.112, 1055.776
1277.594, 1069.805
1278.076, 1083.610
1278.558, 1081.215
1279.041, 1073.414
1279.523, 1064.360
1280.005, 1057.807
1280.487, 1065.246
1280.969, 1087.042
1281.451, 1097.805
1281.933, 1094.094
1282.415, 1084.671
1282.897, 1070.588
1283.380, 1057.854
1283.862, 1046.821
1284.344, 1041.112
1284.826, 1055.601
1285.308, 1084.901
1285.790, 1085.105
1286.272, 1052.024
1286.754, 1031.043
1287.237, 1065.654
1287.719, 1092.745
1288.201, 1089.352
1288.683, 1070.621
1289.165, 1057.372
1289.647, 1050.667
1290.129, 1057.162
1290.611, 1076.627
1291.094, 1091.275
1291.576, 1093.648
1292.058, 1091.035
1292.540, 1081.882
1293.022, 1074.802
1293.504, 1088.509
1293.986, 1108.950
1294.468, 1110.278
1294.950, 1092.253
1295.432, 1083.341
1295.915, 1089.515
1296.397, 1095.100
1296.879, 1097.344
1297.361, 1097.845
1297.843, 1101.490
1298.325, 1102.055
1298.807, 1087.355
1299.289, 1061.144
1299.772, 1054.892
1300.254, 1071.657
1300.736, 1079.475
1301.218, 1071.624
1301.700, 1066.550
1302.182, 1089.853
1302.664, 1113.146
1303.146, 1111.730
1303.629, 1095.119
1304.111, 1082.111
1304.593, 1072.865
1305.075, 1071.068
1305.557, 1077.350
1306.039, 1083.769
1306.521, 1085.654
1307.003, 1086.198
1307.485, 1086.838
1307.968, 1087.031
1308.450, 1081.107
1308.932, 1074.462
1309.414, 1092.647
1309.896, 1136.440
1310.378, 1155.174
1310.860, 1100.818
1311.342, 1064.196
1311.824, 1066.569
1312.307, 1084.391
1312.789, 1088.044
1313.271, 1084.117
1313.753, 1081.837
1314.235, 1082.090
1314.717, 1084.523
1315.199, 1090.597
1315.681, 1093.253
1316.164, 1091.287
1316.646, 1085.626
1317.128, 1069.935
1317.610, 1057.126
##END=



