##NAMES=Gordaite
##RRUFFID=R100059
##IDEAL CHEMISTRY=NaZn^2+^_4_(S^6+^O_4_)(OH)_6_Cl&#183;6H_2_O
##LOCALITY=San Francisco mine, Sierra Gorda, Chile
##OWNER=RRUFF
##SOURCE=William W Pinch
##DESCRIPTION=Groups of pale bluish-green thin tabular crystals on quartz, associated with dark blue herbertsmithite.
##STATUS=The identification of this mineral has been confirmed by single-crystal X-ray diffraction.
##URL=rruff.info/R100059
91.53320, 479.3291
92.01532, 490.1071
92.49744, 492.8364
92.97955, 490.7586
93.46167, 482.0387
93.94379, 470.8021
94.42590, 460.9309
94.90802, 451.5077
95.39014, 440.1776
95.87225, 426.5533
96.35437, 413.0345
96.83649, 400.4134
97.31860, 388.7477
97.80072, 378.1827
98.28284, 368.4685
98.76495, 359.1743
99.24707, 350.1819
99.72919, 341.4111
100.2113, 333.0981
100.6934, 325.2098
101.1755, 317.6912
101.6577, 310.5117
102.1398, 303.4033
102.6219, 295.9730
103.1040, 290.7531
103.5861, 288.6483
104.0682, 287.2632
104.5504, 285.2740
105.0325, 282.4839
105.5146, 279.5675
105.9967, 277.5150
106.4788, 276.8541
106.9609, 275.6010
107.4431, 273.3481
107.9252, 270.4985
108.4073, 267.5378
108.8894, 264.5570
109.3715, 261.6472
109.8536, 259.0148
110.3358, 256.6746
110.8179, 254.3607
111.3000, 251.6965
111.7821, 248.7658
112.2642, 246.4122
112.7463, 245.0221
113.2285, 244.4056
113.7106, 244.4818
114.1927, 245.3938
114.6748, 246.5804
115.1569, 247.3773
115.6390, 247.9088
116.1212, 247.6587
116.6033, 245.9438
117.0854, 243.6933
117.5675, 241.7464
118.0496, 240.4801
118.5317, 239.8620
119.0139, 239.7658
119.4960, 240.8051
119.9781, 241.7582
120.4602, 242.5195
120.9423, 243.0358
121.4244, 243.2684
121.9066, 243.1935
122.3887, 242.8117
122.8708, 242.0187
123.3529, 240.1242
123.8350, 238.5085
124.3171, 237.8575
124.7993, 238.1753
125.2814, 239.0473
125.7635, 240.2192
126.2456, 241.8368
126.7277, 242.6203
127.2098, 242.0113
127.6920, 240.7974
128.1741, 239.7604
128.6562, 239.0596
129.1383, 238.5160
129.6204, 238.3091
130.1025, 238.4262
130.5847, 237.4909
131.0668, 234.1314
131.5489, 229.0983
132.0310, 225.0544
132.5131, 222.8810
132.9952, 221.5538
133.4774, 220.0568
133.9595, 218.3720
134.4416, 216.8785
134.9237, 216.0677
135.4058, 216.0772
135.8879, 215.7969
136.3701, 214.5471
136.8522, 213.2494
137.3343, 212.5444
137.8164, 212.5688
138.2985, 212.8344
138.7806, 212.4407
139.2628, 210.7871
139.7449, 209.5679
140.2270, 209.2636
140.7091, 209.2400
141.1912, 208.8690
141.6733, 207.8707
142.1555, 206.4933
142.6376, 205.6080
143.1197, 205.8547
143.6018, 205.9097
144.0839, 205.4211
144.5660, 204.6721
145.0482, 204.1588
145.5303, 204.2083
146.0124, 204.7074
146.4945, 204.7971
146.9766, 204.2318
147.4587, 203.5996
147.9409, 203.2757
148.4230, 203.1599
148.9051, 202.7495
149.3872, 201.5630
149.8693, 199.7453
150.3514, 198.3012
150.8336, 197.4150
151.3157, 196.8056
151.7978, 196.1895
152.2799, 195.5313
152.7620, 195.0638
153.2441, 195.1784
153.7263, 195.6023
154.2084, 195.8857
154.6905, 195.8372
155.1726, 195.5542
155.6547, 195.2035
156.1368, 194.6673
156.6190, 194.2974
157.1011, 194.5053
157.5832, 194.9973
158.0653, 195.1928
158.5474, 194.6475
159.0295, 193.4137
159.5117, 192.1814
159.9938, 190.7307
160.4759, 189.5132
160.9580, 188.7524
161.4401, 188.3703
161.9222, 188.1762
162.4044, 188.1039
162.8865, 188.2832
163.3686, 187.7613
163.8507, 185.5914
164.3328, 183.5741
164.8149, 182.6438
165.2971, 182.7492
165.7792, 183.1804
166.2613, 183.1063
166.7434, 182.3111
167.2255, 181.5895
167.7076, 181.1389
168.1898, 180.6202
168.6719, 179.6156
169.1540, 178.0950
169.6361, 176.6158
170.1182, 175.9949
170.6003, 176.6404
171.0825, 177.2004
171.5646, 177.7146
172.0467, 178.0798
172.5288, 178.1069
173.0109, 177.7101
173.4930, 177.1600
173.9752, 176.9369
174.4573, 177.0838
174.9394, 177.1444
175.4215, 176.9593
175.9036, 176.5915
176.3857, 176.1369
176.8679, 175.5155
177.3500, 174.9873
177.8321, 175.0336
178.3142, 175.7372
178.7963, 176.1488
179.2784, 175.2976
179.7606, 173.3963
180.2427, 172.2790
180.7248, 172.9404
181.2069, 174.1697
181.6890, 174.8848
182.1711, 174.9973
182.6533, 174.9477
183.1354, 175.2566
183.6175, 176.0177
184.0996, 176.3964
184.5817, 175.7744
185.0638, 174.9588
185.5460, 174.3622
186.0281, 174.0794
186.5102, 174.0211
186.9923, 174.1323
187.4744, 174.5717
187.9565, 174.7414
188.4387, 174.0815
188.9208, 173.4487
189.4029, 173.5535
189.8850, 174.5903
190.3671, 176.0993
190.8492, 177.2627
191.3314, 178.1120
191.8135, 178.4541
192.2956, 178.0333
192.7777, 177.2931
193.2598, 176.5615
193.7419, 175.9767
194.2241, 175.5406
194.7062, 175.2572
195.1883, 174.9720
195.6704, 175.0701
196.1525, 175.6777
196.6346, 176.6348
197.1168, 177.9877
197.5989, 179.7983
198.0810, 181.5992
198.5631, 181.9360
199.0452, 179.1693
199.5273, 177.1994
200.0095, 177.1601
200.4916, 178.2447
200.9737, 179.1165
201.4558, 179.1510
201.9379, 178.6848
202.4200, 178.7338
202.9022, 179.6480
203.3843, 180.3625
203.8664, 180.2371
204.3485, 179.5849
204.8306, 179.3179
205.3127, 179.9555
205.7949, 181.0769
206.2770, 181.7646
206.7591, 182.0104
207.2412, 181.9243
207.7233, 181.3593
208.2054, 180.4098
208.6876, 179.7014
209.1697, 179.6469
209.6518, 179.8503
210.1339, 179.6861
210.6160, 179.0257
211.0981, 178.3059
211.5803, 177.9616
212.0624, 177.9953
212.5445, 177.8297
213.0266, 176.9794
213.5087, 176.0161
213.9908, 175.5837
214.4730, 175.8718
214.9551, 176.1758
215.4372, 175.5353
215.9193, 173.7280
216.4014, 172.3521
216.8836, 172.2467
217.3657, 172.5378
217.8478, 172.6449
218.3299, 172.4245
218.8120, 172.1980
219.2941, 172.4474
219.7763, 173.3264
220.2584, 174.1773
220.7405, 175.1322
221.2226, 175.8726
221.7047, 176.0688
222.1868, 175.6501
222.6690, 174.9638
223.1511, 174.5589
223.6332, 174.5517
224.1153, 174.5724
224.5974, 174.7320
225.0795, 174.8134
225.5617, 174.5136
226.0438, 173.7941
226.5259, 173.0520
227.0080, 173.0493
227.4901, 174.4697
227.9722, 175.3880
228.4544, 175.5974
228.9365, 175.4509
229.4186, 175.1900
229.9007, 174.8928
230.3828, 174.5056
230.8649, 173.8972
231.3471, 172.5168
231.8292, 171.8553
232.3113, 172.4103
232.7934, 173.3245
233.2755, 173.9973
233.7576, 174.2322
234.2398, 174.0677
234.7219, 173.5151
235.2040, 171.8931
235.6861, 171.1732
236.1682, 172.1050
236.6503, 173.5099
237.1325, 174.4615
237.6146, 174.6892
238.0967, 174.2536
238.5788, 173.1208
239.0609, 170.6465
239.5430, 169.0423
240.0252, 169.0762
240.5073, 169.6788
240.9894, 169.7680
241.4715, 169.0870
241.9536, 168.1472
242.4357, 167.6679
242.9179, 167.8244
243.4000, 167.6561
243.8821, 166.5908
244.3642, 165.3822
244.8463, 165.1127
245.3284, 166.0500
245.8106, 166.9579
246.2927, 165.9972
246.7748, 163.0511
247.2569, 161.2474
247.7390, 162.1300
248.2211, 163.9224
248.7033, 164.2685
249.1854, 162.6674
249.6675, 160.8387
250.1496, 160.8717
250.6317, 162.4297
251.1138, 163.1581
251.5960, 161.7645
252.0781, 159.6222
252.5602, 158.5922
253.0423, 158.9798
253.5244, 159.6939
254.0065, 159.8284
254.4887, 159.5517
254.9708, 159.2868
255.4529, 159.1975
255.9350, 159.1546
256.4171, 158.8879
256.8992, 158.3004
257.3813, 157.9013
257.8635, 158.3117
258.3456, 159.1458
258.8277, 159.7743
259.3098, 159.9432
259.7919, 159.8519
260.2740, 159.7176
260.7562, 159.4972
261.2383, 159.4172
261.7204, 159.8374
262.2025, 160.4204
262.6846, 160.7030
263.1667, 160.3558
263.6489, 159.8916
264.1310, 160.2127
264.6131, 161.5816
265.0952, 162.5911
265.5773, 162.1517
266.0594, 161.2097
266.5416, 160.6315
267.0237, 160.6900
267.5058, 161.0721
267.9879, 161.3682
268.4700, 161.5464
268.9521, 161.7893
269.4343, 162.3375
269.9164, 162.8842
270.3985, 163.0868
270.8806, 162.8275
271.3627, 162.5801
271.8448, 163.0613
272.3270, 164.4675
272.8091, 165.5832
273.2912, 165.7975
273.7733, 165.8250
274.2554, 166.1531
274.7375, 166.8551
275.2197, 167.5452
275.7018, 167.7583
276.1839, 167.4199
276.6660, 167.0807
277.1481, 166.7479
277.6302, 166.4838
278.1124, 166.3249
278.5945, 166.2745
279.0766, 166.3207
279.5587, 166.5152
280.0408, 166.8961
280.5229, 167.0914
281.0051, 166.8820
281.4872, 166.6492
281.9693, 166.4844
282.4514, 166.4238
282.9335, 166.5399
283.4156, 167.1203
283.8978, 168.1960
284.3799, 168.2530
284.8620, 166.0517
285.3441, 164.0245
285.8262, 163.0872
286.3083, 162.9808
286.7905, 163.0428
287.2726, 162.8297
287.7547, 162.3669
288.2368, 161.9009
288.7189, 161.3935
289.2010, 160.9307
289.6832, 160.5063
290.1653, 160.1462
290.6474, 159.9193
291.1295, 159.9002
291.6116, 159.9897
292.0938, 159.7952
292.5759, 159.3453
293.0580, 158.5118
293.5401, 156.9351
294.0222, 155.1318
294.5043, 153.6798
294.9865, 152.8384
295.4686, 152.4369
295.9507, 152.0515
296.4328, 151.5405
296.9149, 151.3297
297.3970, 151.7827
297.8792, 152.3364
298.3613, 152.4741
298.8434, 152.0489
299.3255, 151.3328
299.8076, 150.8268
300.2897, 150.8400
300.7719, 150.3274
301.2540, 148.3196
301.7361, 146.5134
302.2182, 146.1967
302.7003, 147.4578
303.1824, 149.2424
303.6646, 150.3188
304.1467, 150.5294
304.6288, 150.5603
305.1109, 150.1736
305.5930, 149.8248
306.0751, 149.7932
306.5573, 150.0224
307.0394, 150.2602
307.5215, 150.3218
308.0036, 150.2208
308.4857, 149.7155
308.9678, 147.9903
309.4500, 146.6522
309.9321, 146.3336
310.4142, 146.7622
310.8963, 147.3459
311.3784, 147.7071
311.8605, 147.8641
312.3427, 147.9527
312.8248, 147.8447
313.3069, 147.8209
313.7890, 147.9233
314.2711, 148.1398
314.7532, 148.5053
315.2354, 149.0481
315.7175, 149.6389
316.1996, 149.8941
316.6817, 149.6718
317.1638, 149.3030
317.6459, 148.6091
318.1281, 147.9196
318.6102, 147.5631
319.0923, 147.6326
319.5744, 147.9285
320.0565, 148.1332
320.5386, 148.2263
321.0208, 148.2669
321.5029, 148.2869
321.9850, 148.2417
322.4671, 148.0368
322.9492, 147.6992
323.4313, 147.4056
323.9135, 147.4135
324.3956, 147.8545
324.8777, 147.9125
325.3598, 147.2713
325.8419, 146.5381
326.3240, 145.6869
326.8062, 144.9087
327.2883, 144.6310
327.7704, 145.3313
328.2525, 146.9169
328.7346, 147.7204
329.2167, 146.7160
329.6989, 146.0695
330.1810, 146.8172
330.6631, 148.1408
331.1452, 148.7313
331.6273, 147.8189
332.1094, 145.9478
332.5916, 144.8123
333.0737, 144.7469
333.5558, 144.9064
334.0379, 145.3554
334.5200, 145.8137
335.0021, 145.9251
335.4843, 145.5894
335.9664, 145.1742
336.4485, 145.3477
336.9306, 146.4056
337.4127, 147.1667
337.8948, 147.5189
338.3770, 147.5588
338.8591, 147.0954
339.3412, 146.2402
339.8233, 145.5506
340.3055, 145.7780
340.7876, 147.0712
341.2697, 147.7575
341.7518, 147.3103
342.2339, 146.7227
342.7160, 146.2199
343.1982, 145.8789
343.6803, 145.8311
344.1624, 146.3050
344.6445, 147.1215
345.1266, 147.2782
345.6087, 146.0744
346.0909, 145.3742
346.5730, 146.2542
347.0551, 147.7506
347.5372, 148.5867
348.0193, 148.1687
348.5014, 147.1535
348.9836, 146.7565
349.4657, 147.1652
349.9478, 147.5701
350.4299, 147.7567
350.9120, 147.8630
351.3941, 148.0017
351.8763, 148.1914
352.3584, 148.3258
352.8405, 148.1301
353.3226, 147.5794
353.8047, 147.6225
354.2868, 149.0196
354.7690, 150.3841
355.2511, 150.7740
355.7332, 150.3366
356.2153, 149.7953
356.6974, 149.5638
357.1795, 149.5965
357.6617, 149.7180
358.1438, 149.9205
358.6259, 150.2285
359.1080, 150.8511
359.5901, 151.5476
360.0722, 151.8660
360.5544, 151.3728
361.0365, 150.7476
361.5186, 151.1360
362.0007, 152.6983
362.4828, 153.9822
362.9649, 154.1167
363.4471, 153.8200
363.9292, 153.9856
364.4113, 154.8227
364.8934, 155.5775
365.3755, 155.4323
365.8576, 154.6004
366.3398, 154.3134
366.8219, 155.0576
367.3040, 156.1346
367.7861, 156.7564
368.2682, 156.9737
368.7503, 157.3220
369.2325, 158.0503
369.7146, 159.0384
370.1967, 160.2086
370.6788, 161.6319
371.1609, 162.7625
371.6430, 163.0185
372.1252, 162.6147
372.6073, 162.2741
373.0894, 162.0573
373.5715, 161.9587
374.0536, 161.9538
374.5357, 162.0528
375.0179, 162.3601
375.5000, 163.0215
375.9821, 163.8321
376.4642, 164.2659
376.9463, 164.0802
377.4284, 164.1185
377.9106, 164.9470
378.3927, 166.1471
378.8748, 166.9561
379.3569, 167.1472
379.8390, 167.1079
380.3211, 167.3012
380.8033, 167.7498
381.2854, 168.3475
381.7675, 169.2211
382.2496, 170.1424
382.7317, 170.9682
383.2138, 171.6771
383.6960, 172.2798
384.1781, 172.8067
384.6602, 173.2403
385.1423, 173.3748
385.6244, 172.6111
386.1065, 172.2651
386.5887, 173.2187
387.0708, 174.7992
387.5529, 175.8823
388.0350, 175.9737
388.5171, 175.3400
388.9992, 174.5382
389.4814, 172.9592
389.9635, 172.2136
390.4456, 173.3576
390.9277, 174.6261
391.4098, 174.3572
391.8919, 172.4759
392.3741, 170.3162
392.8562, 169.3504
393.3383, 169.8384
393.8204, 169.4843
394.3025, 167.5245
394.7846, 165.5781
395.2668, 164.0006
395.7489, 162.8564
396.2310, 162.2703
396.7131, 162.3780
397.1952, 162.8603
397.6773, 162.5456
398.1595, 160.6682
398.6416, 159.2524
399.1237, 159.0192
399.6058, 159.0189
400.0879, 158.3591
400.5700, 156.8678
401.0522, 155.1510
401.5343, 153.8460
402.0164, 152.9520
402.4985, 152.5424
402.9806, 153.2769
403.4627, 153.8855
403.9449, 153.7348
404.4270, 153.0040
404.9091, 152.2227
405.3912, 151.7109
405.8733, 151.3874
406.3554, 150.9749
406.8376, 150.3690
407.3197, 149.9294
407.8018, 150.0354
408.2839, 150.2694
408.7660, 150.1812
409.2481, 149.6311
409.7303, 148.9352
410.2124, 148.3652
410.6945, 147.9209
411.1766, 147.5212
411.6587, 146.9246
412.1408, 146.6900
412.6230, 147.7180
413.1051, 149.7772
413.5872, 151.0765
414.0693, 150.2819
414.5514, 148.4827
415.0335, 147.3675
415.5157, 147.0577
415.9978, 147.1232
416.4799, 147.4355
416.9620, 147.9045
417.4441, 148.2405
417.9262, 148.3664
418.4084, 148.4468
418.8905, 148.5470
419.3726, 148.6722
419.8547, 148.8694
420.3368, 149.1846
420.8189, 149.4765
421.3011, 149.4787
421.7832, 149.1060
422.2653, 148.8288
422.7474, 148.7462
423.2295, 148.7470
423.7116, 148.7395
424.1938, 148.7171
424.6759, 148.7048
425.1580, 148.7027
425.6401, 148.7210
426.1222, 148.9573
426.6043, 149.7056
427.0865, 150.2940
427.5686, 150.3287
428.0507, 150.1744
428.5328, 150.4498
429.0149, 151.3777
429.4970, 152.4754
429.9792, 152.8308
430.4613, 151.7773
430.9434, 151.4531
431.4255, 152.6732
431.9076, 153.7810
432.3897, 153.5316
432.8719, 152.2415
433.3540, 151.2238
433.8361, 151.5900
434.3182, 153.1097
434.8003, 154.1307
435.2824, 154.5535
435.7646, 154.5708
436.2467, 153.9925
436.7288, 153.2050
437.2109, 152.5468
437.6930, 152.1202
438.1751, 152.0011
438.6573, 152.3925
439.1394, 153.3387
439.6215, 154.1806
440.1036, 154.8373
440.5857, 155.3538
441.0678, 155.8493
441.5500, 156.2659
442.0321, 156.3894
442.5142, 155.8822
442.9963, 155.1052
443.4784, 154.6960
443.9605, 154.6720
444.4427, 154.9064
444.9248, 155.5952
445.4069, 156.3741
445.8890, 156.5769
446.3711, 155.9796
446.8532, 155.3619
447.3354, 155.2021
447.8175, 155.3273
448.2996, 155.3381
448.7817, 155.1276
449.2638, 154.9178
449.7459, 154.9926
450.2281, 155.3741
450.7102, 155.5617
451.1923, 155.4419
451.6744, 155.2077
452.1565, 154.9594
452.6386, 154.6959
453.1208, 154.3811
453.6029, 153.9865
454.0850, 153.5561
454.5671, 153.2147
455.0492, 153.2169
455.5313, 152.9484
456.0135, 152.1175
456.4956, 151.2052
456.9777, 150.4828
457.4598, 150.0528
457.9419, 150.0675
458.4240, 150.8335
458.9062, 152.3750
459.3883, 152.7815
459.8704, 150.6896
460.3525, 148.9539
460.8346, 148.3129
461.3167, 148.3307
461.7989, 148.4990
462.2810, 148.6293
462.7631, 148.6564
463.2452, 148.3886
463.7273, 147.7243
464.2094, 147.3871
464.6916, 147.9735
465.1737, 148.4189
465.6558, 147.8126
466.1379, 146.4638
466.6200, 145.5495
467.1021, 146.1410
467.5843, 147.3894
468.0664, 147.4584
468.5485, 146.1806
469.0306, 144.9250
469.5127, 144.2287
469.9948, 143.9752
470.4770, 144.0415
470.9591, 144.5714
471.4412, 144.8642
471.9233, 144.3377
472.4054, 143.3946
472.8875, 142.7793
473.3697, 142.6317
473.8518, 142.6923
474.3339, 142.8097
474.8160, 142.9661
475.2981, 142.8147
475.7802, 141.8696
476.2624, 141.1341
476.7445, 141.4068
477.2266, 142.1512
477.7087, 142.2415
478.1908, 141.2207
478.6729, 139.7326
479.1551, 138.9598
479.6372, 139.3260
480.1193, 139.4271
480.6014, 138.8065
481.0835, 138.3636
481.5656, 138.8144
482.0478, 139.8959
482.5299, 140.8194
483.0120, 141.0544
483.4941, 140.7640
483.9762, 140.5422
484.4583, 140.4194
484.9405, 140.3074
485.4226, 140.4103
485.9047, 140.3710
486.3868, 139.7545
486.8689, 138.5694
487.3510, 137.4537
487.8332, 137.0220
488.3153, 137.1406
488.7974, 137.1073
489.2795, 136.7880
489.7616, 136.5881
490.2437, 136.9892
490.7259, 137.6161
491.2080, 137.8804
491.6901, 137.5914
492.1722, 137.0916
492.6543, 136.3773
493.1364, 135.6350
493.6186, 135.5424
494.1007, 136.3943
494.5828, 137.3997
495.0649, 137.6575
495.5470, 137.0892
496.0291, 136.4369
496.5113, 135.2161
496.9934, 134.3867
497.4755, 134.8626
497.9576, 136.1768
498.4397, 137.2092
498.9218, 137.4216
499.4040, 137.0287
499.8861, 136.4634
500.3682, 135.4277
500.8503, 134.7927
501.3324, 134.8258
501.8145, 134.9794
502.2967, 134.9046
502.7788, 134.6374
503.2609, 134.4190
503.7430, 134.4263
504.2251, 134.5991
504.7072, 134.7511
505.1894, 135.0265
505.6715, 134.9406
506.1536, 134.0395
506.6357, 132.9548
507.1178, 132.0799
507.5999, 131.4880
508.0821, 131.2562
508.5642, 131.6689
509.0463, 132.4810
509.5284, 132.9170
510.0105, 132.8480
510.4926, 132.7944
510.9748, 133.2553
511.4569, 133.9019
511.9390, 133.9484
512.4211, 133.0537
512.9032, 132.1041
513.3853, 131.2747
513.8674, 130.7485
514.3495, 131.1648
514.8317, 132.6615
515.3138, 133.9155
515.7959, 133.3927
516.2780, 130.8916
516.7601, 129.7101
517.2422, 130.9324
517.7244, 132.0281
518.2065, 132.0794
518.6886, 131.4954
519.1707, 130.8341
519.6528, 130.3158
520.1349, 129.9747
520.6171, 129.9095
521.0992, 130.2137
521.5813, 130.4137
522.0634, 130.2264
522.5455, 130.2248
523.0276, 130.8741
523.5098, 131.8223
523.9919, 132.3928
524.4740, 132.2473
524.9561, 131.7261
525.4382, 131.2116
525.9203, 130.7021
526.4025, 130.5053
526.8846, 130.9280
527.3667, 131.3716
527.8488, 131.0903
528.3309, 130.2249
528.8130, 129.7106
529.2952, 130.0358
529.7773, 130.6615
530.2594, 131.1681
530.7415, 131.5497
531.2236, 131.8594
531.7057, 132.1289
532.1879, 132.3127
532.6700, 132.3084
533.1521, 131.9910
533.6342, 131.7661
534.1163, 131.8547
534.5984, 131.8568
535.0806, 131.3449
535.5627, 130.5035
536.0448, 129.8925
536.5269, 129.8723
537.0090, 130.2647
537.4911, 130.5445
537.9733, 130.7011
538.4554, 130.7679
538.9375, 130.7156
539.4196, 130.6075
539.9017, 130.3284
540.3839, 129.9855
540.8660, 129.9922
541.3481, 130.9140
541.8302, 132.1981
542.3123, 132.4285
542.7944, 131.4563
543.2766, 130.7699
543.7587, 131.1473
544.2408, 131.9533
544.7229, 132.2412
545.2050, 131.9608
545.6871, 131.6675
546.1693, 131.6177
546.6514, 131.6077
547.1335, 131.3565
547.6156, 130.8917
548.0977, 130.4773
548.5798, 130.2539
549.0620, 130.2290
549.5441, 130.4301
550.0262, 131.3702
550.5083, 131.8360
550.9904, 131.3850
551.4725, 130.7876
551.9547, 130.6215
552.4368, 130.8800
552.9189, 131.2597
553.4010, 131.5837
553.8831, 131.7980
554.3652, 131.6054
554.8474, 130.7466
555.3295, 130.1407
555.8116, 130.2392
556.2937, 130.5301
556.7758, 130.7684
557.2579, 130.8992
557.7401, 130.7483
558.2222, 129.9047
558.7043, 128.8355
559.1864, 128.4218
559.6685, 128.6912
560.1506, 128.9784
560.6328, 128.9240
561.1149, 128.7243
561.5970, 128.8616
562.0791, 129.4843
562.5612, 129.8976
563.0433, 129.7654
563.5255, 129.5286
564.0076, 129.6038
564.4897, 129.9451
564.9718, 130.2041
565.4539, 130.1427
565.9360, 129.8885
566.4182, 129.9211
566.9003, 130.7150
567.3824, 130.8815
567.8645, 129.8352
568.3466, 128.6280
568.8287, 127.7347
569.3109, 127.2611
569.7930, 127.3466
570.2751, 128.3360
570.7572, 129.6651
571.2393, 129.9971
571.7214, 129.2337
572.2036, 128.6744
572.6857, 128.8168
573.1678, 129.2440
573.6499, 129.4890
574.1320, 129.5569
574.6141, 129.5610
575.0963, 129.3655
575.5784, 129.2494
576.0605, 129.5599
576.5426, 130.1762
577.0247, 130.7111
577.5068, 130.9996
577.9890, 131.0284
578.4711, 130.7007
578.9532, 129.5531
579.4353, 129.2705
579.9174, 130.6985
580.3995, 132.0359
580.8817, 132.2150
581.3638, 131.6906
581.8459, 131.5010
582.3280, 132.1735
582.8101, 133.0722
583.2922, 132.9966
583.7744, 131.8437
584.2565, 131.2594
584.7386, 131.7124
585.2207, 132.4132
585.7029, 132.8621
586.1850, 133.1159
586.6671, 133.2932
587.1492, 133.2685
587.6313, 133.3834
588.1135, 134.0890
588.5956, 135.1033
589.0777, 135.7187
589.5598, 135.7490
590.0419, 135.5952
590.5240, 135.6665
591.0062, 135.9720
591.4883, 136.2925
591.9704, 136.6452
592.4525, 136.9919
592.9346, 137.3786
593.4167, 137.7265
593.8989, 137.9104
594.3810, 137.9233
594.8631, 137.9323
595.3452, 138.1337
595.8273, 138.5053
596.3094, 138.7169
596.7916, 138.5324
597.2737, 138.7322
597.7558, 140.3969
598.2379, 142.2473
598.7200, 142.7843
599.2021, 141.7335
599.6843, 140.5206
600.1664, 139.7035
600.6485, 139.2354
601.1306, 139.0923
601.6127, 139.2544
602.0948, 139.6153
602.5770, 140.1442
603.0591, 140.7794
603.5412, 141.3684
604.0233, 142.2561
604.5054, 142.4782
604.9875, 141.4245
605.4697, 140.2513
605.9518, 139.8043
606.4339, 139.8672
606.9160, 139.6724
607.3981, 138.7437
607.8802, 137.5571
608.3624, 137.1943
608.8445, 137.8165
609.3266, 137.9494
609.8087, 136.9740
610.2908, 135.9680
610.7729, 135.8595
611.2551, 136.3643
611.7372, 136.6338
612.2193, 136.3405
612.7014, 135.8909
613.1835, 135.5390
613.6656, 135.2507
614.1478, 134.9636
614.6299, 134.6625
615.1120, 134.3189
615.5941, 133.8889
616.0762, 133.3702
616.5583, 132.9529
617.0405, 132.7869
617.5226, 132.5301
618.0047, 131.9600
618.4868, 131.3732
618.9689, 131.1767
619.4510, 131.3548
619.9332, 131.3920
620.4153, 130.6836
620.8974, 129.5255
621.3795, 129.0379
621.8616, 129.3217
622.3438, 129.7625
622.8259, 130.2630
623.3080, 130.7004
623.7901, 130.8833
624.2722, 130.7995
624.7543, 130.7504
625.2365, 131.0209
625.7186, 131.1873
626.2007, 130.6968
626.6828, 129.8025
627.1649, 129.2650
627.6470, 129.4069
628.1292, 129.8732
628.6113, 130.1173
629.0934, 130.1318
629.5755, 129.9464
630.0576, 129.1978
630.5397, 128.6350
631.0219, 128.5679
631.5040, 128.7840
631.9861, 129.0294
632.4682, 129.2362
632.9503, 129.3221
633.4324, 129.0706
633.9146, 128.6382
634.3967, 128.6237
634.8788, 129.1314
635.3609, 129.4910
635.8430, 129.2115
636.3251, 128.5652
636.8073, 128.3885
637.2894, 128.9880
637.7715, 129.2556
638.2536, 128.7185
638.7357, 128.0406
639.2178, 127.7634
639.7000, 127.8035
640.1821, 127.7548
640.6642, 127.3851
641.1463, 126.8962
641.6284, 126.6940
642.1105, 126.8134
642.5927, 127.0693
643.0748, 127.7885
643.5569, 128.1900
644.0390, 127.5399
644.5211, 126.3442
645.0032, 125.6668
645.4854, 125.9354
645.9675, 126.3225
646.4496, 126.3526
646.9317, 126.0973
647.4138, 125.6566
647.8959, 125.0544
648.3781, 124.3211
648.8602, 123.4181
649.3423, 122.4634
649.8244, 122.0481
650.3065, 122.5007
650.7886, 123.0278
651.2708, 124.0918
651.7529, 124.7990
652.2350, 124.1367
652.7171, 122.5824
653.1992, 121.6150
653.6813, 122.1732
654.1635, 123.2826
654.6456, 123.3489
655.1277, 122.4712
655.6098, 121.9199
656.0919, 121.9841
656.5740, 122.2788
657.0562, 122.5671
657.5383, 122.8188
658.0204, 122.8843
658.5025, 122.5914
658.9846, 122.3268
659.4667, 122.0374
659.9489, 121.9322
660.4310, 122.4864
660.9131, 123.5517
661.3952, 124.2609
661.8773, 123.9164
662.3594, 122.8621
662.8416, 122.2371
663.3237, 122.1348
663.8058, 122.1081
664.2879, 122.0097
664.7700, 122.0478
665.2521, 122.6533
665.7343, 123.5468
666.2164, 123.7373
666.6985, 122.3130
667.1806, 120.9538
667.6627, 121.0479
668.1448, 121.9953
668.6270, 122.6660
669.1091, 122.8340
669.5912, 122.8865
670.0733, 123.1594
670.5554, 123.6130
671.0375, 123.9740
671.5197, 124.2628
672.0018, 124.4128
672.4839, 124.5879
672.9660, 124.4935
673.4481, 123.7191
673.9302, 122.4706
674.4124, 121.4030
674.8945, 120.8066
675.3766, 120.6194
675.8587, 120.9356
676.3408, 121.6352
676.8229, 122.1957
677.3051, 122.5205
677.7872, 122.5688
678.2693, 122.1802
678.7514, 121.4336
679.2335, 121.2555
679.7156, 122.4816
680.1978, 123.0945
680.6799, 122.2948
681.1620, 121.1597
681.6441, 120.5463
682.1262, 120.4763
682.6083, 120.5593
683.0905, 120.5416
683.5726, 120.5540
684.0547, 120.9283
684.5368, 121.6615
685.0189, 122.2373
685.5010, 122.6106
685.9832, 122.6737
686.4653, 122.1702
686.9474, 121.2367
687.4295, 120.6040
687.9116, 120.3641
688.3937, 120.3250
688.8759, 120.7192
689.3580, 121.0982
689.8401, 120.8271
690.3222, 120.0330
690.8043, 119.4966
691.2864, 119.7655
691.7686, 120.4681
692.2507, 120.6262
692.7328, 120.0975
693.2149, 119.9920
693.6970, 120.8660
694.1791, 121.5965
694.6613, 121.1115
695.1434, 119.9430
695.6255, 119.2822
696.1076, 119.4707
696.5897, 119.8466
697.0718, 120.2149
697.5540, 120.5429
698.0361, 120.8307
698.5182, 121.0483
699.0003, 121.0493
699.4824, 120.7196
699.9645, 120.2535
700.4467, 120.1618
700.9288, 120.5766
701.4109, 120.8824
701.8930, 121.1078
702.3751, 121.1339
702.8572, 120.6456
703.3394, 120.0110
703.8215, 119.9636
704.3036, 120.8487
704.7857, 121.5112
705.2678, 120.8934
705.7499, 119.8694
706.2321, 119.8411
706.7142, 120.6799
707.1963, 121.0723
707.6784, 120.2874
708.1605, 118.9665
708.6426, 118.4197
709.1248, 118.9282
709.6069, 119.2035
710.0890, 118.9867
710.5711, 118.8403
711.0532, 119.0831
711.5353, 119.4466
712.0175, 119.5315
712.4996, 119.2475
712.9817, 119.0126
713.4638, 119.1677
713.9459, 119.4767
714.4280, 119.6633
714.9102, 119.7043
715.3923, 119.5156
715.8744, 119.0360
716.3565, 118.5301
716.8386, 118.4046
717.3207, 118.7225
717.8029, 118.9655
718.2850, 119.0655
718.7671, 119.1709
719.2492, 119.4417
719.7313, 119.6537
720.2134, 119.5239
720.6956, 119.0523
721.1777, 118.5860
721.6598, 118.2520
722.1419, 118.0871
722.6240, 118.2514
723.1061, 118.6489
723.5883, 118.8847
724.0704, 118.8367
724.5525, 118.6790
725.0346, 118.5612
725.5167, 118.4896
725.9988, 118.6812
726.4810, 119.6757
726.9631, 120.1430
727.4452, 119.3579
727.9273, 118.4736
728.4094, 118.5827
728.8915, 119.4363
729.3737, 119.8056
729.8558, 118.8040
730.3379, 117.6389
730.8200, 117.7277
731.3021, 118.6712
731.7842, 119.4622
732.2664, 119.9154
732.7485, 119.9354
733.2306, 119.3283
733.7127, 118.3670
734.1948, 118.1871
734.6769, 119.6787
735.1591, 120.3200
735.6412, 119.1531
736.1233, 118.0830
736.6054, 118.2902
737.0875, 119.2381
737.5696, 119.8516
738.0518, 119.7756
738.5339, 119.4490
739.0160, 119.1605
739.4981, 118.8826
739.9802, 118.5361
740.4623, 118.1303
740.9445, 117.7870
741.4266, 117.5677
741.9087, 117.4412
742.3908, 117.3404
742.8729, 117.2256
743.3550, 117.3110
743.8372, 117.9988
744.3193, 118.3972
744.8014, 118.0918
745.2835, 117.4812
745.7656, 116.8814
746.2477, 116.3715
746.7299, 116.2152
747.2120, 116.7279
747.6941, 117.5402
748.1762, 118.4207
748.6583, 119.2428
749.1404, 119.5937
749.6226, 119.3604
750.1047, 118.7949
750.5868, 118.0815
751.0689, 117.2722
751.5510, 116.9252
752.0331, 117.2244
752.5153, 117.6381
752.9974, 118.4595
753.4795, 119.0392
753.9616, 118.6431
754.4437, 117.6376
754.9258, 117.2377
755.4080, 118.1328
755.8901, 119.0857
756.3722, 119.1721
756.8543, 118.8240
757.3364, 118.7226
757.8185, 118.8855
758.3007, 118.8275
758.7828, 118.2158
759.2649, 117.4592
759.7470, 117.5798
760.2291, 118.9088
760.7112, 119.4709
761.1934, 118.7047
761.6755, 117.9778
762.1576, 118.1728
762.6397, 118.6571
763.1218, 118.4734
763.6039, 117.4136
764.0861, 116.9194
764.5682, 118.1095
765.0503, 119.4773
765.5324, 119.7188
766.0145, 119.2766
766.4966, 119.1106
766.9788, 119.4918
767.4609, 120.0832
767.9430, 120.6322
768.4251, 121.0637
768.9072, 120.9330
769.3893, 120.1391
769.8715, 119.2663
770.3536, 118.2491
770.8357, 117.4880
771.3178, 117.3920
771.7999, 117.8941
772.2820, 118.6740
772.7642, 120.6250
773.2463, 121.6162
773.7284, 120.1637
774.2105, 118.2167
774.6926, 117.4153
775.1747, 117.7137
775.6569, 118.5116
776.1390, 119.5704
776.6211, 120.4082
777.1032, 120.0755
777.5853, 118.8514
778.0674, 118.4655
778.5496, 119.1446
779.0317, 119.7063
779.5138, 119.5173
779.9959, 118.9668
780.4780, 118.7222
780.9601, 118.8435
781.4423, 119.0523
781.9244, 119.7714
782.4065, 120.0654
782.8886, 119.1628
783.3707, 117.9752
783.8528, 117.4941
784.3350, 117.8092
784.8171, 118.3452
785.2992, 118.8958
785.7813, 119.3256
786.2634, 119.4333
786.7455, 119.2714
787.2277, 118.9172
787.7098, 118.3962
788.1919, 118.0919
788.6740, 118.3707
789.1561, 119.0034
789.6382, 119.0929
790.1204, 118.2293
790.6025, 117.8196
791.0846, 118.4664
791.5667, 118.9894
792.0488, 118.6976
792.5309, 118.0210
793.0131, 117.6167
793.4952, 117.6009
793.9773, 117.8020
794.4594, 118.3195
794.9415, 118.8672
795.4236, 119.1721
795.9058, 119.2888
796.3879, 119.4693
796.8700, 119.7554
797.3521, 119.7042
797.8342, 118.6542
798.3163, 116.9539
798.7985, 116.5594
799.2806, 117.7167
799.7627, 118.7688
800.2448, 119.4499
800.7269, 119.7483
801.2090, 119.5211
801.6912, 118.8660
802.1733, 118.3543
802.6554, 117.9511
803.1375, 117.7478
803.6196, 117.8169
804.1017, 118.0424
804.5839, 118.4515
805.0660, 118.9276
805.5481, 119.3117
806.0302, 119.5486
806.5123, 119.5022
806.9944, 118.7563
807.4766, 117.7057
807.9587, 117.3618
808.4408, 117.7082
808.9229, 118.1595
809.4050, 118.5144
809.8871, 118.8393
810.3693, 119.2522
810.8514, 119.7485
811.3335, 119.8659
811.8156, 119.3361
812.2977, 118.8743
812.7798, 118.6456
813.2620, 118.4595
813.7441, 118.0361
814.2262, 117.5565
814.7083, 117.5570
815.1904, 118.3127
815.6725, 119.2306
816.1547, 120.3657
816.6368, 121.2242
817.1189, 120.9865
817.6010, 119.9429
818.0831, 119.0295
818.5652, 118.6531
819.0474, 118.7280
819.5295, 119.4135
820.0116, 120.5501
820.4937, 120.4459
820.9758, 118.8219
821.4579, 117.6556
821.9401, 117.6983
822.4222, 118.2076
822.9043, 118.4428
823.3864, 118.4133
823.8685, 118.4369
824.3506, 118.7317
824.8328, 118.7746
825.3149, 118.1579
825.7970, 117.5569
826.2791, 117.4061
826.7612, 117.6790
827.2433, 118.3121
827.7255, 119.3595
828.2076, 120.1752
828.6897, 120.0684
829.1718, 119.4499
829.6539, 118.8698
830.1360, 118.4046
830.6182, 118.2547
831.1003, 118.4999
831.5824, 118.7970
832.0645, 118.7188
832.5466, 118.3005
833.0287, 117.9805
833.5109, 117.7787
833.9930, 117.5992
834.4751, 117.2491
834.9572, 117.1247
835.4393, 118.0210
835.9214, 119.4074
836.4036, 119.5890
836.8857, 117.4988
837.3678, 116.1108
837.8499, 116.5829
838.3320, 117.6029
838.8141, 118.5564
839.2963, 119.2483
839.7784, 119.3446
840.2605, 118.7926
840.7426, 118.3679
841.2247, 119.0505
841.7068, 120.2026
842.1890, 120.6234
842.6711, 120.3648
843.1532, 119.5495
843.6353, 118.1847
844.1174, 116.9960
844.5995, 116.6420
845.0817, 116.9819
845.5638, 117.3990
846.0459, 117.8531
846.5280, 118.5397
847.0101, 120.1734
847.4922, 121.1148
847.9744, 119.7236
848.4565, 117.4615
848.9386, 116.6730
849.4207, 117.7526
849.9028, 118.7182
850.3849, 119.1327
850.8671, 119.1855
851.3492, 118.9196
851.8313, 118.3988
852.3134, 117.4426
852.7955, 116.2211
853.2776, 115.5485
853.7598, 116.1139
854.2419, 117.1999
854.7240, 117.7914
855.2061, 117.9619
855.6882, 117.9370
856.1703, 117.7513
856.6525, 117.5734
857.1346, 117.4960
857.6167, 117.4851
858.0988, 117.4573
858.5809, 117.3719
859.0630, 117.5778
859.5452, 118.4266
860.0273, 118.9368
860.5094, 118.4333
860.9915, 117.7682
861.4736, 117.8024
861.9557, 118.4065
862.4379, 118.7223
862.9200, 118.4457
863.4021, 118.0782
863.8842, 117.8430
864.3663, 117.5511
864.8484, 116.9203
865.3306, 116.1100
865.8127, 115.4492
866.2948, 115.0680
866.7769, 115.0378
867.2590, 115.7429
867.7411, 116.7253
868.2233, 116.9321
868.7054, 116.4740
869.1875, 116.0202
869.6696, 115.7592
870.1517, 115.7270
870.6339, 116.0012
871.1160, 116.4830
871.5981, 116.7399
872.0802, 116.7710
872.5623, 116.5496
873.0444, 115.8484
873.5266, 115.2711
874.0087, 115.2293
874.4908, 115.4983
874.9729, 115.7343
875.4550, 115.9996
875.9371, 115.8665
876.4193, 114.6513
876.9014, 113.7738
877.3835, 114.3187
877.8656, 115.1766
878.3477, 114.9124
878.8298, 113.6998
879.3120, 113.0093
879.7941, 113.7542
880.2762, 114.7766
880.7583, 114.8956
881.2404, 114.5502
881.7225, 114.5291
882.2047, 114.8265
882.6868, 114.9910
883.1689, 114.8290
883.6510, 114.7318
884.1331, 115.3249
884.6152, 116.4439
885.0974, 116.7301
885.5795, 116.0596
886.0616, 115.4406
886.5437, 115.0915
887.0258, 114.8919
887.5079, 114.7800
887.9901, 114.7315
888.4722, 114.6558
888.9543, 114.6950
889.4364, 114.4298
889.9185, 113.4107
890.4006, 112.6175
890.8828, 112.5894
891.3649, 112.9097
891.8470, 113.0930
892.3291, 113.0799
892.8112, 113.0125
893.2933, 112.9381
893.7755, 112.8379
894.2576, 112.7489
894.7397, 112.5969
895.2218, 112.2161
895.7039, 111.6749
896.1860, 111.1697
896.6682, 110.7782
897.1503, 110.7206
897.6324, 111.5055
898.1145, 112.7904
898.5966, 113.6177
899.0787, 113.9708
899.5609, 113.9498
900.0430, 113.5672
900.5251, 113.0690
901.0072, 112.7153
901.4893, 112.4243
901.9714, 111.7218
902.4536, 110.3478
902.9357, 109.5437
903.4178, 109.6480
903.8999, 109.9120
904.3820, 109.8338
904.8641, 109.7392
905.3463, 110.2707
905.8284, 111.5182
906.3105, 112.5846
906.7926, 113.9183
907.2747, 114.4063
907.7568, 112.8201
908.2390, 110.9721
908.7211, 110.5885
909.2032, 111.3609
909.6853, 111.8875
910.1674, 111.6365
910.6495, 111.2282
911.1317, 110.9175
911.6138, 110.7840
912.0959, 111.1995
912.5780, 111.8110
913.0601, 111.6152
913.5422, 110.4613
914.0244, 109.5029
914.5065, 109.8432
914.9886, 110.8358
915.4707, 111.1653
915.9528, 110.8963
916.4349, 110.1991
916.9171, 109.0831
917.3992, 108.8286
917.8813, 110.3075
918.3634, 112.3323
918.8455, 112.8005
919.3276, 111.5781
919.8098, 111.2832
920.2919, 112.4926
920.7740, 113.1167
921.2561, 112.2232
921.7382, 111.1697
922.2203, 111.1984
922.7025, 111.9928
923.1846, 112.2841
923.6667, 111.8366
924.1488, 111.4104
924.6309, 110.9468
925.1130, 110.6659
925.5952, 110.7500
926.0773, 111.0210
926.5594, 111.3313
927.0415, 111.6277
927.5236, 111.7795
928.0057, 111.7300
928.4879, 111.5218
928.9700, 110.9955
929.4521, 110.4561
929.9342, 110.2077
930.4163, 110.2765
930.8984, 110.7196
931.3806, 111.5328
931.8627, 112.2546
932.3448, 112.2959
932.8269, 111.9982
933.3090, 112.0204
933.7911, 112.3335
934.2733, 113.0058
934.7554, 113.9982
935.2375, 114.3880
935.7196, 113.4515
936.2017, 112.0335
936.6838, 112.0915
937.1660, 113.7300
937.6481, 114.6811
938.1302, 114.8337
938.6123, 114.7117
939.0944, 114.3716
939.5765, 114.0536
940.0587, 113.9863
940.5408, 114.1573
941.0229, 114.4762
941.5050, 114.9203
941.9871, 115.5526
942.4692, 116.6063
942.9514, 117.5825
943.4335, 118.0630
943.9156, 118.4759
944.3977, 119.4584
944.8798, 121.0301
945.3619, 122.4010
945.8441, 123.2032
946.3262, 124.0361
946.8083, 124.9263
947.2904, 126.0905
947.7725, 128.1828
948.2546, 130.5986
948.7368, 131.8697
949.2189, 131.5341
949.7010, 131.2242
950.1831, 132.1062
950.6652, 133.4460
951.1473, 134.4957
951.6295, 135.4662
952.1116, 136.7620
952.5937, 138.4209
953.0758, 140.2583
953.5579, 142.2001
954.0400, 144.0865
954.5222, 145.6563
955.0043, 147.0066
955.4864, 148.3957
955.9685, 149.8382
956.4506, 151.3972
956.9327, 153.0906
957.4149, 154.9479
957.8970, 157.0383
958.3791, 159.2482
958.8612, 161.3817
959.3433, 163.4757
959.8254, 164.7173
960.3076, 164.8449
960.7897, 165.0690
961.2718, 165.9790
961.7539, 167.0687
962.2360, 167.7341
962.7181, 167.9813
963.2003, 167.8655
963.6824, 167.0761
964.1645, 166.5540
964.6466, 166.2017
965.1287, 166.3630
965.6108, 167.3385
966.0930, 168.8930
966.5751, 170.9124
967.0572, 173.5001
967.5393, 175.3085
968.0214, 175.4442
968.5035, 175.7849
968.9857, 177.6877
969.4678, 179.2147
969.9499, 179.1880
970.4320, 177.5362
970.9141, 174.2208
971.3962, 169.1223
971.8784, 163.5279
972.3605, 157.6255
972.8426, 151.9038
973.3247, 146.4474
973.8068, 141.5451
974.2889, 137.6079
974.7711, 134.5469
975.2532, 131.7795
975.7353, 129.0027
976.2174, 126.7062
976.6995, 125.6910
977.1816, 125.1757
977.6638, 123.9433
978.1459, 122.3042
978.6280, 121.1748
979.1101, 120.7166
979.5922, 120.5060
980.0743, 120.2718
980.5565, 120.0104
981.0386, 119.6924
981.5207, 119.3453
982.0028, 119.1030
982.4849, 118.9523
982.9670, 118.7183
983.4492, 118.3428
983.9313, 117.7686
984.4134, 116.8356
984.8955, 115.8581
985.3776, 116.0090
985.8597, 117.3347
986.3419, 118.2579
986.8240, 118.6361
987.3061, 118.7530
987.7882, 118.7225
988.2703, 118.4819
988.7524, 117.8747
989.2346, 116.9726
989.7167, 116.6026
990.1988, 116.9665
990.6809, 117.2858
991.1630, 117.6992
991.6451, 117.6125
992.1273, 116.2140
992.6094, 114.6108
993.0915, 114.7140
993.5736, 116.6766
994.0557, 117.4621
994.5378, 115.7679
995.0200, 114.8064
995.5021, 115.6411
995.9842, 116.4688
996.4663, 116.1134
996.9484, 115.2056
997.4305, 114.7988
997.9127, 114.9995
998.3948, 115.3214
998.8769, 116.1408
999.3590, 116.4626
999.8411, 115.3715
1000.323, 114.2305
1000.805, 114.2932
1001.287, 115.0679
1001.770, 115.4144
1002.252, 115.0713
1002.734, 114.6493
1003.216, 114.4297
1003.698, 114.1723
1004.180, 113.5370
1004.662, 112.9405
1005.144, 112.9597
1005.627, 113.4169
1006.109, 113.6792
1006.591, 113.5142
1007.073, 113.4201
1007.555, 113.9189
1008.037, 114.4791
1008.519, 114.6231
1009.001, 114.4568
1009.483, 113.9690
1009.966, 113.3489
1010.448, 113.1982
1010.930, 113.8217
1011.412, 114.5282
1011.894, 114.6762
1012.376, 114.4304
1012.858, 113.7061
1013.340, 112.8721
1013.823, 113.2343
1014.305, 114.6623
1014.787, 115.1083
1015.269, 113.3376
1015.751, 111.0155
1016.233, 110.3589
1016.715, 110.9509
1017.197, 111.9606
1017.679, 113.1789
1018.162, 113.5680
1018.644, 112.9673
1019.126, 112.4087
1019.608, 112.5971
1020.090, 113.0629
1020.572, 112.8507
1021.054, 113.1805
1021.536, 112.2734
1022.018, 113.2518
1022.501, 113.6911
1022.983, 113.2427
1023.465, 112.4541
1023.947, 111.6447
1024.429, 111.0476
1024.911, 111.3666
1025.393, 112.6386
1025.875, 112.8753
1026.358, 111.9116
1026.840, 111.3466
1027.322, 111.6967
1027.804, 112.0523
1028.286, 111.6829
1028.768, 110.8655
1029.250, 110.2039
1029.732, 109.6183
1030.214, 109.9616
1030.697, 111.6374
1031.179, 112.8268
1031.661, 112.9538
1032.143, 112.7361
1032.625, 112.8288
1033.107, 112.9104
1033.589, 111.8788
1034.071, 111.9553
1034.553, 112.1928
1035.036, 110.8202
1035.518, 112.3213
1036.000, 110.9336
1036.482, 109.2462
1036.964, 109.3386
1037.446, 110.6774
1037.928, 111.7515
1038.410, 112.6620
1038.893, 112.9487
1039.375, 112.1546
1039.857, 111.4666
1040.339, 111.2351
1040.821, 111.1250
1041.303, 110.8703
1041.785, 110.5435
1042.267, 110.3481
1042.750, 110.2789
1043.232, 110.3547
1043.714, 110.5670
1044.196, 110.9351
1044.678, 111.7029
1045.160, 112.4022
1045.642, 112.7275
1046.124, 112.7112
1046.606, 112.3504
1047.089, 111.4457
1047.571, 111.0613
1048.053, 112.0273
1048.535, 112.5568
1049.017, 111.5601
1049.499, 110.5154
1049.981, 110.7762
1050.463, 111.7923
1050.945, 112.1877
1051.428, 111.6706
1051.910, 111.4583
1052.392, 112.1108
1052.874, 112.6561
1053.356, 112.8856
1053.838, 112.8020
1054.320, 112.2620
1054.802, 111.4663
1055.285, 110.6762
1055.767, 109.8894
1056.249, 109.7093
1056.731, 110.7814
1057.213, 111.8412
1057.695, 112.7332
1058.177, 113.1462
1058.659, 112.4604
1059.141, 111.2724
1059.624, 110.7679
1060.106, 111.1519
1060.588, 111.2889
1061.070, 110.4372
1061.552, 109.7823
1062.034, 110.1155
1062.516, 110.5137
1062.998, 110.0365
1063.480, 109.2028
1063.963, 108.9842
1064.445, 109.5234
1064.927, 110.1941
1065.409, 110.8756
1065.891, 111.4985
1066.373, 112.2738
1066.855, 112.7406
1067.337, 112.2739
1067.820, 111.3916
1068.302, 110.8774
1068.784, 110.8428
1069.266, 110.9652
1069.748, 111.1295
1070.230, 111.4180
1070.712, 112.1825
1071.194, 112.7660
1071.677, 112.3406
1072.159, 111.6068
1072.641, 111.8207
1073.123, 112.8908
1073.605, 113.3267
1074.087, 112.3613
1074.569, 111.2379
1075.051, 110.2243
1075.533, 109.5843
1076.016, 109.7707
1076.498, 110.2751
1076.980, 110.5327
1077.462, 110.4585
1077.944, 110.0255
1078.426, 108.9848
1078.908, 108.4563
1079.390, 109.6458
1079.873, 110.7502
1080.355, 110.1648
1080.837, 109.1283
1081.319, 109.1873
1081.801, 110.1721
1082.283, 111.0925
1082.765, 111.7212
1083.247, 111.8797
1083.729, 111.0407
1084.212, 110.2427
1084.694, 110.1192
1085.176, 110.3141
1085.658, 110.7261
1086.140, 111.0628
1086.622, 110.5674
1087.104, 109.0048
1087.586, 108.0437
1088.068, 109.0373
1088.551, 109.9690
1089.033, 109.7588
1089.515, 109.1267
1089.997, 108.5176
1090.479, 108.0535
1090.961, 107.8286
1091.443, 107.8586
1091.925, 108.1049
1092.408, 108.9402
1092.890, 109.4609
1093.372, 109.2741
1093.854, 108.6797
1094.336, 107.3252
1094.818, 106.0169
1095.300, 106.1945
1095.782, 107.7562
1096.265, 108.6839
1096.747, 108.1868
1097.229, 107.3942
1097.711, 106.1470
1098.193, 105.3166
1098.675, 105.7706
1099.157, 106.6714
1099.639, 107.0696
1100.121, 106.9773
1100.604, 106.8827
1101.086, 106.9201
1101.568, 106.8588
1102.050, 106.4959
1102.532, 106.1995
1103.014, 106.1525
1103.496, 106.2214
1103.978, 106.1735
1104.460, 106.1560
1104.943, 106.6233
1105.425, 107.7435
1105.907, 108.7085
1106.389, 109.8697
1106.871, 110.1772
1107.353, 108.1043
1107.835, 106.3078
1108.317, 107.3614
1108.800, 109.6094
1109.282, 109.9720
1109.764, 108.1611
1110.246, 106.7709
1110.728, 105.8911
1111.210, 105.6724
1111.692, 107.3445
1112.174, 108.2807
1112.656, 105.9899
1113.139, 103.0885
1113.621, 103.1121
1114.103, 105.7828
1114.585, 107.6742
1115.067, 108.9179
1115.549, 109.0752
1116.031, 107.1248
1116.513, 105.5360
1116.995, 105.0722
1117.478, 105.2775
1117.960, 106.0001
1118.442, 107.0233
1118.924, 107.6798
1119.406, 107.9635
1119.888, 107.8793
1120.370, 107.2064
1120.852, 106.5808
1121.335, 105.8324
1121.817, 105.7706
1122.299, 107.4119
1122.781, 109.5156
1123.263, 109.6613
1123.745, 107.7923
1124.227, 106.8818
1124.709, 107.2328
1125.192, 107.4674
1125.674, 107.3940
1126.156, 107.2574
1126.638, 107.1323
1127.120, 107.0826
1127.602, 107.1760
1128.084, 107.4154
1128.566, 107.9628
1129.048, 108.9546
1129.531, 108.7863
1130.013, 107.1413
1130.495, 106.2824
1130.977, 107.0390
1131.459, 107.9459
1131.941, 107.7838
1132.423, 108.1313
1132.905, 107.0095
1133.387, 107.5378
1133.870, 107.1186
1134.352, 105.8160
1134.834, 105.6700
1135.316, 107.0544
1135.798, 108.4021
1136.280, 108.8821
1136.762, 108.5588
1137.244, 107.2143
1137.727, 105.4150
1138.209, 104.9826
1138.691, 105.6349
1139.173, 106.2561
1139.655, 106.7247
1140.137, 107.2008
1140.619, 107.7218
1141.101, 108.0132
1141.583, 107.8117
1142.066, 107.3942
1142.548, 107.0706
1143.030, 106.9018
1143.512, 107.2545
1143.994, 107.8213
1144.476, 107.6059
1144.958, 106.6215
1145.440, 105.8920
1145.922, 105.9335
1146.405, 106.3323
1146.887, 106.9883
1147.369, 107.5226
1147.851, 107.3940
1148.333, 106.9307
1148.815, 106.5081
1149.297, 106.2262
1149.779, 106.2881
1150.262, 106.6876
1150.744, 106.7297
1151.226, 105.5344
1151.708, 104.6793
1152.190, 105.9888
1152.672, 107.2621
1153.154, 105.9620
1153.636, 103.8012
1154.119, 103.6593
1154.601, 105.3307
1155.083, 106.1716
1155.565, 105.1760
1156.047, 104.3189
1156.529, 104.3273
1157.011, 104.5041
1157.493, 104.5187
1157.975, 104.5980
1158.458, 105.3145
1158.940, 104.7251
1159.422, 105.6798
1159.904, 103.7877
1160.386, 102.4272
1160.868, 101.6561
1161.350, 101.6083
1161.832, 103.2707
1162.314, 104.3811
1162.797, 103.5476
1163.279, 102.1687
1163.761, 101.6764
1164.243, 101.9277
1164.725, 102.2765
1165.207, 102.7739
1165.689, 103.2251
1166.171, 103.7309
1166.654, 103.8456
1167.136, 103.3320
1167.618, 102.7879
1168.100, 102.5758
1168.582, 102.6533
1169.064, 103.0136
1169.546, 103.5945
1170.028, 103.8105
1170.510, 103.6565
1170.993, 103.2411
1171.475, 102.5674
1171.957, 102.1756
1172.439, 102.2723
1172.921, 102.5511
1173.403, 102.7765
1173.885, 102.8451
1174.367, 102.3382
1174.849, 102.5546
1175.332, 102.4670
1175.814, 102.3418
1176.296, 102.5310
1176.778, 102.1165
1177.260, 102.0699
1177.742, 102.8543
1178.224, 103.5581
1178.706, 103.0027
1179.189, 103.7270
1179.671, 102.8581
1180.153, 103.9697
1180.635, 104.2939
1181.117, 103.9398
1181.599, 103.2916
1182.081, 102.5302
1182.563, 101.9441
1183.046, 101.6499
1183.528, 101.6260
1184.010, 102.1374
1184.492, 102.5975
1184.974, 102.5538
1185.456, 102.2980
1185.938, 102.1871
1186.420, 102.1209
1186.902, 101.7220
1187.385, 100.9055
1187.867, 100.3481
1188.349, 100.2150
1188.831, 100.2969
1189.313, 100.8978
1189.795, 101.2944
1190.277, 100.6529
1190.759, 100.0540
1191.241, 100.8906
1191.724, 102.6504
1192.206, 103.2363
1192.688, 102.2012
1193.170, 101.9568
1193.652, 102.8549
1194.134, 103.4848
1194.616, 103.6001
1195.098, 103.2613
1195.581, 102.4018
1196.063, 101.4201
1196.545, 100.8725
1197.027, 100.6590
1197.509, 100.2523
1197.991, 99.69223
1198.473, 99.71386
1198.955, 100.3183
1199.438, 100.9799
1199.920, 101.5260
1200.402, 101.6953
1200.884, 101.2723
1201.366, 100.8151
1201.848, 101.1849
1202.330, 101.9530
1202.812, 102.3673
1203.294, 102.5207
1203.776, 102.6649
1204.259, 102.7299
1204.741, 102.3170
1205.223, 101.4066
1205.705, 100.6963
1206.187, 100.5640
1206.669, 100.7891
1207.151, 101.7007
1207.633, 102.3844
1208.116, 101.6857
1208.598, 100.6899
1209.080, 100.8720
1209.562, 101.8274
1210.044, 102.1496
1210.526, 101.5404
1211.008, 101.0540
1211.490, 100.9292
1211.973, 100.8818
1212.455, 101.0917
1212.937, 101.0635
1213.419, 100.1729
1213.901, 99.38782
1214.383, 99.89133
1214.865, 99.59675
1215.347, 99.83076
1215.829, 100.6021
1216.312, 100.7152
1216.794, 102.1593
1217.276, 103.1579
1217.758, 103.4069
1218.240, 103.0901
1218.722, 102.2212
1219.204, 101.3531
1219.686, 101.0838
1220.168, 101.3089
1220.651, 102.0103
1221.133, 102.9480
1221.615, 103.0307
1222.097, 102.4152
1222.579, 101.8181
1223.061, 101.4388
1223.543, 101.4239
1224.025, 101.8397
1224.508, 102.3515
1224.990, 102.9081
1225.472, 103.1172
1225.954, 101.9665
1226.436, 100.7793
1226.918, 101.4794
1227.400, 103.0351
1227.882, 103.5121
1228.365, 102.8872
1228.847, 102.5829
1229.329, 103.1736
1229.811, 103.3202
1230.293, 102.3355
1230.775, 101.2885
1231.257, 100.1589
1231.739, 99.47838
1232.221, 100.0294
1232.703, 100.8941
1233.186, 100.7939
1233.668, 99.92159
1234.150, 99.56562
1234.632, 99.82336
1235.114, 100.2535
1235.596, 100.9111
1236.078, 101.4846
1236.560, 101.9179
1237.043, 102.1142
1237.525, 101.9889
1238.007, 101.8112
1238.489, 101.9889
1238.971, 102.2917
1239.453, 101.8975
1239.935, 101.1268
1240.417, 101.2986
1240.900, 102.1081
1241.382, 102.0164
1241.864, 100.9555
1242.346, 100.4919
1242.828, 101.4154
1243.310, 102.2998
1243.792, 101.8574
1244.274, 101.0957
1244.756, 100.5533
1245.239, 100.3344
1245.721, 100.7256
1246.203, 101.3903
1246.685, 101.9910
1247.167, 102.3868
1247.649, 102.1367
1248.131, 100.8203
1248.613, 100.0136
1249.095, 100.0994
1249.578, 100.4297
1250.060, 100.9570
1250.542, 101.6553
1251.024, 102.8459
1251.506, 103.6395
1251.988, 102.7912
1252.470, 100.8172
1252.952, 99.69224
1253.435, 99.42467
1253.917, 99.60703
1254.399, 100.2162
1254.881, 100.8639
1255.363, 101.4391
1255.845, 101.4276
1256.327, 100.6089
1256.809, 99.76994
1257.292, 99.66837
1257.774, 99.91930
1258.256, 100.0038
1258.738, 100.1004
1259.220, 100.5222
1259.702, 101.1128
1260.184, 101.8194
1260.666, 102.3909
1261.148, 101.9422
1261.630, 100.2189
1262.113, 99.51144
1262.595, 101.7344
1263.077, 103.4685
1263.559, 103.7489
1264.041, 103.3221
1264.523, 101.9540
1265.005, 100.5935
1265.487, 99.94855
1265.970, 99.98241
1266.452, 100.8018
1266.934, 102.4392
1267.416, 102.7139
1267.898, 101.4141
1268.380, 100.2561
1268.862, 99.37614
1269.344, 99.34084
1269.827, 100.3440
1270.309, 101.0489
1270.791, 100.4243
1271.273, 101.2893
1271.755, 100.2410
1272.237, 101.5235
1272.719, 101.5136
1273.201, 100.8480
1273.683, 100.5882
1274.166, 100.6908
1274.648, 100.8327
1275.130, 100.9187
1275.612, 100.9109
1276.094, 100.7815
1276.576, 100.6159
1277.058, 100.1859
1277.540, 100.0892
1278.022, 101.3067
1278.505, 102.1061
1278.987, 100.5440
1279.469, 98.58918
1279.951, 98.69890
1280.433, 100.3094
1280.915, 101.0804
1281.397, 100.9055
1281.879, 100.7577
1282.362, 100.6098
1282.844, 100.9654
1283.326, 101.9205
1283.808, 102.0518
1284.290, 100.7679
1284.772, 99.52101
1285.254, 99.41870
1285.736, 100.4534
##END=



