##NAMES=Gordonite
##RRUFFID=R070437
##IDEAL CHEMISTRY=MgAl_2_(PO_4_)_2_(OH)_2_&#183;8H_2_O
##LOCALITY=Amatrice Hill, Stockton, Utah, USA
##OWNER=RRUFF
##SOURCE=Michael Scott
##DESCRIPTION=Aggregates of colorless to pale purple bladed crystals associated with green variscite. The apparent green color of gordonite is due to the variscite.
##STATUS=The identification of this mineral is confirmed by single-crystal X-ray diffraction and chemical analysis.
##URL=rruff.info/R070437
##MEASURED CHEMISTRY=Mg_1.00_Al_2.00_(P_1.00_O_4_)_2_(OH)_2_Â·7.98H_2_O; trace amounts of Fe; OH estimated by charge balance, H_2_O by difference
127.2967, 1041.393
127.7788, 1107.738
128.2609, 1184.412
128.7430, 1257.291
129.2252, 1324.954
129.7073, 1389.880
130.1894, 1454.027
130.6715, 1515.494
131.1536, 1572.607
131.6357, 1625.261
132.1179, 1671.906
132.6000, 1700.067
133.0821, 1702.875
133.5642, 1692.429
134.0463, 1661.837
134.5284, 1619.713
135.0106, 1579.743
135.4927, 1551.621
135.9748, 1534.690
136.4569, 1515.238
136.9390, 1485.116
137.4211, 1460.972
137.9033, 1448.961
138.3854, 1447.141
138.8675, 1449.927
139.3496, 1453.144
139.8317, 1456.783
140.3138, 1467.758
140.7960, 1485.027
141.2781, 1508.539
141.7602, 1537.614
142.2423, 1572.655
142.7244, 1615.522
143.2065, 1669.132
143.6887, 1733.633
144.1708, 1794.885
144.6529, 1849.874
145.1350, 1904.322
145.6171, 1966.355
146.0992, 2033.704
146.5814, 2092.209
147.0635, 2130.828
147.5456, 2147.470
148.0277, 2154.848
148.5098, 2146.330
148.9919, 2133.673
149.4741, 2127.248
149.9562, 2127.073
150.4383, 2122.974
150.9204, 2106.407
151.4025, 2077.326
151.8846, 2044.323
152.3668, 2010.367
152.8489, 1971.138
153.3310, 1918.709
153.8131, 1852.174
154.2952, 1786.478
154.7773, 1732.975
155.2595, 1690.170
155.7416, 1652.213
156.2237, 1613.953
156.7058, 1582.257
157.1879, 1567.076
157.6700, 1570.352
158.1522, 1580.124
158.6343, 1588.521
159.1164, 1596.526
159.5985, 1606.872
160.0806, 1619.108
160.5627, 1634.466
161.0449, 1655.582
161.5270, 1683.540
162.0091, 1713.060
162.4912, 1743.806
162.9733, 1773.371
163.4554, 1796.608
163.9376, 1804.533
164.4197, 1806.850
164.9018, 1821.513
165.3839, 1850.951
165.8660, 1886.078
166.3481, 1928.813
166.8303, 1972.688
167.3124, 2005.379
167.7945, 2015.736
168.2766, 2013.815
168.7587, 2023.663
169.2408, 2052.712
169.7230, 2076.518
170.2051, 2079.274
170.6872, 2069.315
171.1693, 2059.297
171.6514, 2057.350
172.1335, 2058.068
172.6157, 2045.180
173.0978, 2008.538
173.5799, 1978.958
174.0620, 1973.168
174.5441, 1981.431
175.0262, 1990.206
175.5084, 1991.983
175.9905, 1990.588
176.4726, 1997.167
176.9547, 2015.425
177.4368, 2035.288
177.9189, 2049.271
178.4010, 2062.932
178.8832, 2084.703
179.3653, 2121.100
179.8474, 2166.366
180.3295, 2204.752
180.8116, 2237.687
181.2937, 2259.802
181.7759, 2265.229
182.2580, 2262.279
182.7401, 2260.906
183.2222, 2265.935
183.7043, 2275.595
184.1864, 2284.995
184.6686, 2293.947
185.1507, 2302.847
185.6328, 2310.451
186.1149, 2318.460
186.5970, 2328.209
187.0791, 2339.888
187.5613, 2354.890
188.0434, 2379.203
188.5255, 2424.030
189.0076, 2457.878
189.4897, 2469.879
189.9718, 2470.988
190.4540, 2472.238
190.9361, 2478.408
191.4182, 2487.245
191.9003, 2493.328
192.3824, 2495.730
192.8645, 2496.771
193.3467, 2496.662
193.8288, 2495.757
194.3109, 2496.234
194.7930, 2499.104
195.2751, 2499.329
195.7572, 2486.388
196.2394, 2458.634
196.7215, 2418.646
197.2036, 2365.340
197.6857, 2303.251
198.1678, 2234.462
198.6499, 2159.784
199.1321, 2083.164
199.6142, 2012.123
200.0963, 1949.262
200.5784, 1886.927
201.0605, 1815.767
201.5426, 1749.597
202.0248, 1701.904
202.5069, 1675.449
202.9890, 1660.441
203.4711, 1641.157
203.9532, 1614.449
204.4353, 1590.675
204.9175, 1568.685
205.3996, 1550.258
205.8817, 1537.458
206.3638, 1530.310
206.8459, 1526.224
207.3280, 1521.879
207.8102, 1517.362
208.2923, 1512.406
208.7744, 1508.024
209.2565, 1502.518
209.7386, 1492.931
210.2207, 1480.069
210.7029, 1468.836
211.1850, 1465.240
211.6671, 1470.977
212.1492, 1478.456
212.6313, 1492.524
213.1134, 1504.109
213.5956, 1508.159
214.0777, 1505.036
214.5598, 1498.379
215.0419, 1491.152
215.5240, 1482.969
216.0061, 1477.019
216.4883, 1474.881
216.9704, 1473.446
217.4525, 1473.144
217.9346, 1472.788
218.4167, 1469.622
218.8988, 1460.612
219.3810, 1445.499
219.8631, 1434.002
220.3452, 1432.555
220.8273, 1428.556
221.3094, 1416.298
221.7915, 1398.825
222.2737, 1381.905
222.7558, 1369.007
223.2379, 1360.334
223.7200, 1359.199
224.2021, 1373.666
224.6842, 1387.456
225.1664, 1398.899
225.6485, 1407.250
226.1306, 1410.797
226.6127, 1407.796
227.0948, 1400.936
227.5770, 1401.730
228.0591, 1416.057
228.5412, 1430.767
229.0233, 1441.984
229.5054, 1452.870
229.9875, 1468.383
230.4697, 1490.990
230.9518, 1516.234
231.4339, 1531.911
231.9160, 1526.354
232.3981, 1531.678
232.8802, 1554.935
233.3624, 1587.303
233.8445, 1622.031
234.3266, 1656.695
234.8087, 1692.410
235.2908, 1731.691
235.7729, 1778.224
236.2551, 1819.626
236.7372, 1849.765
237.2193, 1878.942
237.7014, 1914.503
238.1835, 1957.634
238.6656, 2004.320
239.1478, 2050.173
239.6299, 2095.196
240.1120, 2139.644
240.5941, 2181.506
241.0762, 2224.410
241.5583, 2271.027
242.0405, 2321.047
242.5226, 2371.681
243.0047, 2421.577
243.4868, 2471.273
243.9689, 2514.511
244.4510, 2549.075
244.9332, 2578.900
245.4153, 2605.949
245.8974, 2629.557
246.3795, 2647.238
246.8616, 2655.186
247.3437, 2655.028
247.8259, 2662.684
248.3080, 2695.514
248.7901, 2711.729
249.2722, 2685.909
249.7543, 2637.471
250.2364, 2598.485
250.7186, 2587.936
251.2007, 2595.667
251.6828, 2592.547
252.1649, 2575.540
252.6470, 2553.142
253.1291, 2523.224
253.6113, 2492.034
254.0934, 2467.372
254.5755, 2453.065
255.0576, 2442.383
255.5397, 2421.929
256.0219, 2386.733
256.5040, 2361.013
256.9861, 2359.696
257.4682, 2366.131
257.9503, 2368.980
258.4324, 2365.846
258.9146, 2361.029
259.3967, 2356.606
259.8788, 2352.243
260.3609, 2356.957
260.8430, 2380.256
261.3251, 2406.727
261.8073, 2424.734
262.2894, 2434.233
262.7715, 2443.336
263.2536, 2460.549
263.7357, 2483.542
264.2178, 2496.709
264.7000, 2490.519
265.1821, 2486.767
265.6642, 2502.336
266.1463, 2533.200
266.6284, 2566.542
267.1105, 2593.960
267.5927, 2620.212
268.0748, 2657.279
268.5569, 2708.608
269.0390, 2760.181
269.5211, 2798.218
270.0032, 2829.973
270.4854, 2868.561
270.9675, 2919.681
271.4496, 2977.077
271.9317, 3034.969
272.4138, 3093.505
272.8959, 3150.604
273.3781, 3201.160
273.8602, 3251.921
274.3423, 3315.501
274.8244, 3399.253
275.3065, 3483.785
275.7886, 3555.535
276.2708, 3616.851
276.7529, 3679.388
277.2350, 3750.585
277.7171, 3819.975
278.1992, 3869.805
278.6813, 3898.406
279.1635, 3921.483
279.6456, 3944.887
280.1277, 3966.254
280.6098, 3984.920
281.0919, 4002.561
281.5740, 4006.653
282.0562, 3977.365
282.5383, 3912.266
283.0204, 3847.075
283.5025, 3792.318
283.9846, 3734.945
284.4667, 3659.195
284.9489, 3565.177
285.4310, 3469.795
285.9131, 3387.800
286.3952, 3319.120
286.8773, 3243.110
287.3594, 3143.252
287.8416, 3052.542
288.3237, 2994.663
288.8058, 2959.526
289.2879, 2918.344
289.7700, 2853.346
290.2521, 2773.185
290.7343, 2715.998
291.2164, 2706.383
291.6985, 2687.604
292.1806, 2643.652
292.6627, 2588.633
293.1448, 2539.957
293.6270, 2503.743
294.1091, 2474.752
294.5912, 2444.313
295.0733, 2413.314
295.5554, 2378.505
296.0375, 2338.266
296.5197, 2295.938
297.0018, 2254.311
297.4839, 2213.372
297.9660, 2171.419
298.4481, 2125.945
298.9302, 2075.869
299.4124, 2029.314
299.8945, 1983.550
300.3766, 1943.885
300.8587, 1915.853
301.3408, 1895.256
301.8229, 1873.857
302.3050, 1846.249
302.7871, 1813.392
303.2693, 1779.858
303.7514, 1743.076
304.2335, 1709.686
304.7156, 1681.804
305.1977, 1657.273
305.6798, 1633.290
306.1620, 1608.735
306.6441, 1586.038
307.1262, 1570.224
307.6083, 1563.666
308.0904, 1555.374
308.5725, 1540.485
309.0547, 1525.359
309.5368, 1514.739
310.0189, 1508.657
310.5010, 1502.501
310.9831, 1492.571
311.4652, 1479.028
311.9474, 1463.675
312.4295, 1446.432
312.9116, 1427.570
313.3937, 1404.051
313.8758, 1378.822
314.3579, 1360.241
314.8401, 1357.767
315.3222, 1361.727
315.8043, 1352.893
316.2864, 1328.670
316.7685, 1307.104
317.2506, 1301.830
317.7328, 1304.254
318.2149, 1300.008
318.6970, 1285.352
319.1791, 1267.519
319.6612, 1249.532
320.1433, 1232.281
320.6255, 1219.924
321.1076, 1215.040
321.5897, 1213.993
322.0718, 1210.656
322.5539, 1204.383
323.0360, 1200.098
323.5182, 1201.092
324.0003, 1204.029
324.4824, 1203.586
324.9645, 1198.900
325.4466, 1195.355
325.9287, 1199.062
326.4109, 1210.979
326.8930, 1217.550
327.3751, 1220.071
327.8572, 1216.408
328.3393, 1199.425
328.8214, 1174.378
329.3036, 1157.011
329.7857, 1157.495
330.2678, 1170.942
330.7499, 1175.168
331.2320, 1156.294
331.7141, 1145.409
332.1963, 1151.087
332.6784, 1163.842
333.1605, 1174.002
333.6426, 1178.470
334.1247, 1179.695
334.6068, 1181.633
335.0890, 1186.267
335.5711, 1185.946
336.0532, 1172.226
336.5353, 1161.551
337.0174, 1166.000
337.4995, 1181.981
337.9817, 1196.082
338.4638, 1196.666
338.9459, 1185.674
339.4280, 1180.834
339.9101, 1186.502
340.3922, 1192.178
340.8744, 1195.620
341.3565, 1197.009
341.8386, 1196.047
342.3207, 1192.221
342.8028, 1187.961
343.2849, 1187.599
343.7671, 1191.917
344.2492, 1194.389
344.7313, 1190.386
345.2134, 1186.523
345.6955, 1189.863
346.1776, 1200.421
346.6598, 1208.340
347.1419, 1204.234
347.6240, 1192.794
348.1061, 1187.471
348.5882, 1190.789
349.0703, 1196.412
349.5525, 1198.050
350.0346, 1197.851
350.5167, 1202.683
350.9988, 1219.573
351.4809, 1237.350
351.9630, 1247.041
352.4452, 1249.519
352.9273, 1249.204
353.4094, 1247.473
353.8915, 1245.029
354.3736, 1243.490
354.8557, 1241.540
355.3379, 1242.763
355.8200, 1250.466
356.3021, 1260.641
356.7842, 1267.340
357.2663, 1269.649
357.7484, 1273.394
358.2306, 1286.625
358.7127, 1313.541
359.1948, 1325.525
359.6769, 1307.127
360.1590, 1291.384
360.6411, 1296.201
361.1233, 1315.185
361.6054, 1332.437
362.0875, 1338.490
362.5696, 1336.521
363.0517, 1337.984
363.5338, 1342.979
364.0160, 1351.740
364.4981, 1366.684
364.9802, 1383.410
365.4623, 1398.069
365.9444, 1409.888
366.4265, 1421.285
366.9087, 1432.864
367.3908, 1444.193
367.8729, 1465.814
368.3550, 1511.591
368.8371, 1551.460
369.3192, 1564.689
369.8014, 1560.847
370.2835, 1563.510
370.7656, 1588.383
371.2477, 1622.232
371.7298, 1639.921
372.2119, 1639.226
372.6941, 1643.909
373.1762, 1668.257
373.6583, 1701.150
374.1404, 1724.495
374.6225, 1734.742
375.1046, 1746.293
375.5868, 1771.601
376.0689, 1802.526
376.5510, 1819.059
377.0331, 1815.246
377.5152, 1811.929
377.9973, 1832.653
378.4795, 1880.566
378.9616, 1918.967
379.4437, 1944.247
379.9258, 1962.679
380.4079, 1974.938
380.8900, 1983.010
381.3722, 1991.054
381.8543, 2001.310
382.3364, 2013.115
382.8185, 2024.630
383.3006, 2032.810
383.7827, 2044.863
384.2649, 2069.523
384.7470, 2092.473
385.2291, 2099.377
385.7112, 2089.665
386.1933, 2076.117
386.6754, 2072.139
387.1576, 2078.283
387.6397, 2083.668
388.1218, 2087.742
388.6039, 2091.688
389.0860, 2096.482
389.5681, 2101.265
390.0503, 2104.422
390.5324, 2104.970
391.0145, 2104.578
391.4966, 2105.791
391.9787, 2108.684
392.4608, 2112.722
392.9430, 2120.425
393.4251, 2126.660
393.9072, 2124.401
394.3893, 2113.792
394.8714, 2107.558
395.3535, 2112.927
395.8357, 2126.264
396.3178, 2143.083
396.7999, 2163.225
397.2820, 2182.283
397.7641, 2195.656
398.2462, 2205.339
398.7284, 2221.670
399.2105, 2255.081
399.6926, 2283.188
400.1747, 2294.332
400.6568, 2295.136
401.1389, 2297.495
401.6211, 2305.351
402.1032, 2312.407
402.5853, 2308.334
403.0674, 2286.123
403.5495, 2274.490
404.0316, 2285.815
404.5138, 2294.632
404.9959, 2283.804
405.4780, 2259.276
405.9601, 2239.342
406.4422, 2237.071
406.9243, 2244.551
407.4065, 2231.207
407.8886, 2180.640
408.3707, 2143.183
408.8528, 2137.320
409.3349, 2141.255
409.8170, 2137.344
410.2992, 2123.203
410.7813, 2110.188
411.2634, 2109.380
411.7455, 2118.519
412.2276, 2124.424
412.7097, 2122.133
413.1919, 2126.493
413.6740, 2152.948
414.1561, 2193.166
414.6382, 2231.109
415.1203, 2262.937
415.6024, 2293.063
416.0846, 2324.024
416.5667, 2355.874
417.0488, 2387.459
417.5309, 2417.269
418.0130, 2450.549
418.4951, 2496.033
418.9773, 2557.781
419.4594, 2618.462
419.9415, 2674.197
420.4236, 2731.043
420.9057, 2791.827
421.3878, 2857.444
421.8700, 2929.277
422.3521, 3008.956
422.8342, 3095.095
423.3163, 3181.827
423.7984, 3274.444
424.2805, 3359.284
424.7627, 3432.730
425.2448, 3500.263
425.7269, 3562.799
426.2090, 3622.366
426.6911, 3685.517
427.1732, 3763.743
427.6554, 3855.163
428.1375, 3931.153
428.6196, 3994.146
429.1017, 4036.219
429.5838, 4048.285
430.0659, 4039.230
430.5481, 4020.288
431.0302, 3994.155
431.5123, 3958.518
431.9944, 3914.687
432.4765, 3860.316
432.9586, 3783.716
433.4408, 3678.223
433.9229, 3562.318
434.4050, 3458.091
434.8871, 3367.822
435.3692, 3269.680
435.8513, 3160.063
436.3335, 3044.865
436.8156, 2918.406
437.2977, 2789.014
437.7798, 2677.045
438.2619, 2594.120
438.7440, 2527.655
439.2262, 2444.850
439.7083, 2323.636
440.1904, 2226.489
440.6725, 2164.555
441.1546, 2114.801
441.6367, 2066.186
442.1189, 2016.218
442.6010, 1963.531
443.0831, 1904.939
443.5652, 1843.969
444.0473, 1795.174
444.5294, 1761.631
445.0116, 1731.644
445.4937, 1704.606
445.9758, 1676.680
446.4579, 1641.383
446.9400, 1596.441
447.4221, 1557.168
447.9043, 1538.908
448.3864, 1531.792
448.8685, 1513.604
449.3506, 1480.555
449.8327, 1447.526
450.3148, 1426.106
450.7970, 1415.409
451.2791, 1403.911
451.7612, 1387.735
452.2433, 1375.295
452.7254, 1373.802
453.2076, 1376.136
453.6897, 1372.279
454.1718, 1359.420
454.6539, 1341.768
455.1360, 1324.085
455.6181, 1305.779
456.1003, 1290.921
456.5824, 1278.721
457.0645, 1271.248
457.5466, 1272.542
458.0287, 1278.267
458.5108, 1282.276
458.9930, 1282.312
459.4751, 1278.118
459.9572, 1266.301
460.4393, 1246.687
460.9214, 1235.589
461.4035, 1242.207
461.8857, 1249.874
462.3678, 1239.509
462.8499, 1215.324
463.3320, 1200.074
463.8141, 1205.938
464.2962, 1218.523
464.7784, 1226.530
465.2605, 1230.344
465.7426, 1232.146
466.2247, 1232.431
466.7068, 1232.785
467.1889, 1236.439
467.6711, 1246.021
468.1532, 1253.435
468.6353, 1259.197
469.1174, 1262.423
469.5995, 1262.668
470.0816, 1259.857
470.5638, 1253.173
471.0459, 1241.315
471.5280, 1227.294
472.0101, 1219.560
472.4922, 1218.807
472.9743, 1222.644
473.4565, 1237.209
473.9386, 1251.483
474.4207, 1258.161
474.9028, 1257.132
475.3849, 1253.058
475.8670, 1247.618
476.3492, 1241.231
476.8313, 1233.132
477.3134, 1223.297
477.7955, 1218.690
478.2776, 1226.406
478.7597, 1238.592
479.2419, 1234.453
479.7240, 1206.736
480.2061, 1183.774
480.6882, 1171.529
481.1703, 1165.932
481.6524, 1165.461
482.1346, 1168.590
482.6167, 1171.466
483.0988, 1171.229
483.5809, 1168.312
484.0630, 1165.347
484.5451, 1164.882
485.0273, 1159.871
485.5094, 1144.799
485.9915, 1128.553
486.4736, 1118.903
486.9557, 1116.218
487.4378, 1114.634
487.9200, 1108.175
488.4021, 1099.346
488.8842, 1097.194
489.3663, 1103.287
489.8484, 1107.268
490.3305, 1103.112
490.8127, 1093.841
491.2948, 1085.853
491.7769, 1078.760
492.2590, 1073.941
492.7411, 1074.228
493.2232, 1075.762
493.7054, 1073.326
494.1875, 1066.976
494.6696, 1061.077
495.1517, 1058.748
495.6338, 1059.870
496.1159, 1064.007
496.5981, 1080.534
497.0802, 1086.365
497.5623, 1071.531
498.0444, 1050.986
498.5265, 1035.359
499.0086, 1026.722
499.4908, 1023.533
499.9729, 1029.228
500.4550, 1039.185
500.9371, 1031.169
501.4192, 998.2133
501.9013, 977.4932
502.3835, 994.4633
502.8656, 1027.842
503.3477, 1042.777
503.8298, 1034.356
504.3119, 1025.558
504.7940, 1024.259
505.2762, 1027.487
505.7583, 1033.631
506.2404, 1041.663
506.7225, 1047.852
507.2046, 1049.796
507.6867, 1047.846
508.1689, 1043.342
508.6510, 1030.688
509.1331, 1023.858
509.6152, 1026.278
510.0973, 1032.378
510.5794, 1038.680
511.0616, 1044.732
511.5437, 1051.646
512.0258, 1061.522
512.5079, 1071.996
512.9901, 1075.442
513.4722, 1070.448
513.9543, 1067.060
514.4364, 1070.561
514.9185, 1075.768
515.4006, 1073.580
515.8828, 1062.739
516.3649, 1060.348
516.8470, 1078.293
517.3291, 1101.951
517.8112, 1119.989
518.2933, 1131.589
518.7755, 1137.188
519.2576, 1136.311
519.7397, 1132.564
520.2218, 1134.925
520.7039, 1148.993
521.1860, 1158.482
521.6682, 1157.152
522.1503, 1157.575
522.6324, 1167.594
523.1145, 1185.022
523.5966, 1203.362
524.0787, 1220.002
524.5609, 1234.287
525.0430, 1244.985
525.5251, 1252.104
526.0072, 1255.526
526.4893, 1250.689
526.9714, 1249.559
527.4536, 1270.093
527.9357, 1309.219
528.4178, 1339.672
528.8999, 1353.020
529.3820, 1361.308
529.8641, 1370.371
530.3463, 1379.810
530.8284, 1387.278
531.3105, 1392.154
531.7926, 1398.302
532.2747, 1412.194
532.7568, 1436.305
533.2390, 1452.985
533.7211, 1457.029
534.2032, 1459.312
534.6853, 1459.973
535.1674, 1462.071
535.6495, 1470.567
536.1317, 1487.470
536.6138, 1505.505
537.0959, 1517.441
537.5780, 1525.022
538.0601, 1533.311
538.5422, 1542.642
539.0244, 1554.739
539.5065, 1573.479
539.9886, 1595.726
540.4707, 1605.783
540.9528, 1591.675
541.4349, 1583.319
541.9171, 1591.238
542.3992, 1604.676
542.8813, 1614.872
543.3634, 1620.135
543.8455, 1620.852
544.3276, 1615.801
544.8098, 1607.969
545.2919, 1611.006
545.7740, 1627.638
546.2561, 1647.776
546.7382, 1676.391
547.2203, 1701.792
547.7024, 1713.300
548.1845, 1711.572
548.6666, 1708.476
549.1487, 1710.817
549.6309, 1713.148
550.1130, 1703.001
550.5951, 1685.723
551.0772, 1687.702
551.5593, 1721.877
552.0414, 1767.703
552.5236, 1791.002
553.0057, 1781.622
553.4878, 1784.242
553.9699, 1805.079
554.4520, 1829.438
554.9341, 1853.422
555.4163, 1876.427
555.8984, 1897.376
556.3805, 1915.847
556.8626, 1935.681
557.3447, 1965.248
557.8268, 2002.286
558.3090, 2025.309
558.7911, 2026.803
559.2732, 2032.030
559.7553, 2059.991
560.2374, 2104.531
560.7195, 2143.953
561.2017, 2176.771
561.6838, 2206.980
562.1659, 2234.931
562.6480, 2261.405
563.1301, 2285.753
563.6122, 2309.054
564.0944, 2336.557
564.5765, 2373.672
565.0586, 2415.802
565.5407, 2444.158
566.0228, 2452.223
566.5049, 2462.964
566.9871, 2483.928
567.4692, 2505.911
567.9513, 2524.830
568.4334, 2539.995
568.9155, 2549.829
569.3976, 2546.413
569.8798, 2543.948
570.3619, 2563.695
570.8440, 2597.407
571.3261, 2613.980
571.8082, 2602.570
572.2903, 2585.356
572.7725, 2590.257
573.2546, 2620.813
573.7367, 2640.094
574.2188, 2634.285
574.7009, 2634.528
575.1830, 2657.443
575.6652, 2685.791
576.1473, 2697.115
576.6294, 2687.837
577.1115, 2678.195
577.5936, 2686.871
578.0757, 2709.860
578.5579, 2736.263
579.0400, 2766.989
579.5221, 2791.055
580.0042, 2801.854
580.4863, 2804.369
580.9684, 2807.163
581.4506, 2809.727
581.9327, 2814.387
582.4148, 2826.909
582.8969, 2836.665
583.3790, 2832.778
583.8611, 2820.950
584.3433, 2815.868
584.8254, 2824.370
585.3075, 2835.335
585.7896, 2828.234
586.2717, 2800.720
586.7538, 2783.695
587.2360, 2784.283
587.7181, 2785.937
588.2002, 2778.046
588.6823, 2765.316
589.1644, 2757.378
589.6465, 2762.147
590.1287, 2753.929
590.6108, 2708.993
591.0929, 2650.204
591.5750, 2606.004
592.0571, 2578.321
592.5392, 2556.211
593.0214, 2532.717
593.5035, 2509.324
593.9856, 2491.625
594.4677, 2486.544
594.9498, 2470.873
595.4319, 2427.153
595.9141, 2386.731
596.3962, 2373.694
596.8783, 2376.394
597.3604, 2362.610
597.8425, 2311.852
598.3246, 2258.029
598.8068, 2236.204
599.2889, 2234.737
599.7710, 2222.653
600.2531, 2193.902
600.7352, 2161.533
601.2173, 2135.886
601.6995, 2116.495
602.1816, 2099.648
602.6637, 2090.263
603.1458, 2076.605
603.6279, 2054.078
604.1100, 2029.985
604.5922, 2009.497
605.0743, 1992.630
605.5564, 1976.990
606.0385, 1961.578
606.5206, 1945.986
607.0027, 1927.997
607.4849, 1908.358
607.9670, 1894.586
608.4491, 1890.039
608.9312, 1885.396
609.4133, 1869.656
609.8954, 1842.754
610.3776, 1825.618
610.8597, 1827.876
611.3418, 1826.796
611.8239, 1814.659
612.3060, 1798.221
612.7881, 1784.154
613.2703, 1773.296
613.7524, 1762.788
614.2345, 1749.860
614.7166, 1736.258
615.1987, 1727.355
615.6808, 1723.461
616.1630, 1717.088
616.6451, 1705.592
617.1272, 1691.781
617.6093, 1677.816
618.0914, 1663.663
618.5735, 1652.930
619.0557, 1652.936
619.5378, 1648.115
620.0199, 1627.802
620.5020, 1601.579
620.9841, 1581.363
621.4662, 1569.363
621.9484, 1560.108
622.4305, 1548.494
622.9126, 1535.758
623.3947, 1528.275
623.8768, 1527.640
624.3589, 1522.423
624.8411, 1506.122
625.3232, 1487.257
625.8053, 1477.831
626.2874, 1477.181
626.7695, 1471.639
627.2516, 1455.237
627.7338, 1437.993
628.2159, 1422.626
628.6980, 1410.639
629.1801, 1406.639
629.6622, 1410.230
630.1443, 1411.926
630.6265, 1401.459
631.1086, 1381.254
631.5907, 1364.414
632.0728, 1350.842
632.5549, 1341.063
633.0370, 1337.681
633.5192, 1335.795
634.0013, 1327.319
634.4834, 1312.896
634.9655, 1307.538
635.4476, 1325.240
635.9297, 1341.204
636.4119, 1340.220
636.8940, 1328.850
637.3761, 1315.655
637.8582, 1303.731
638.3403, 1295.987
638.8224, 1296.802
639.3046, 1304.088
639.7867, 1303.879
640.2688, 1293.026
640.7509, 1286.052
641.2330, 1289.749
641.7151, 1296.514
642.1973, 1298.795
642.6794, 1296.866
643.1615, 1293.703
643.6436, 1290.486
644.1257, 1285.576
644.6078, 1276.389
645.0900, 1265.582
645.5721, 1257.359
646.0542, 1252.494
646.5363, 1248.707
647.0184, 1243.942
647.5005, 1238.496
647.9827, 1233.804
648.4648, 1230.052
648.9469, 1226.616
649.4290, 1224.894
649.9111, 1221.721
650.3932, 1212.193
650.8754, 1197.573
651.3575, 1186.797
651.8396, 1186.407
652.3217, 1184.389
652.8038, 1173.587
653.2859, 1158.498
653.7681, 1144.191
654.2502, 1132.062
654.7323, 1122.420
655.2144, 1115.698
655.6965, 1111.415
656.1786, 1108.130
656.6608, 1105.813
657.1429, 1105.152
657.6250, 1108.731
658.1071, 1110.515
658.5892, 1103.878
659.0714, 1090.439
659.5535, 1077.144
660.0356, 1062.321
660.5177, 1050.530
660.9998, 1047.042
661.4819, 1044.986
661.9641, 1035.617
662.4462, 1019.752
662.9283, 1004.750
663.4104, 994.9955
663.8925, 990.5919
664.3746, 996.1420
664.8568, 1012.395
665.3389, 1010.851
665.8210, 978.7491
666.3031, 948.4395
666.7852, 947.8480
667.2673, 969.1429
667.7495, 976.7481
668.2316, 961.2798
668.7137, 947.5298
669.1958, 939.1452
669.6779, 935.1323
670.1600, 938.0549
670.6422, 944.5054
671.1243, 945.8800
671.6064, 937.5121
672.0885, 925.4557
672.5706, 917.7452
673.0527, 913.9401
673.5349, 911.8561
674.0170, 911.9987
674.4991, 909.0005
674.9812, 897.5325
675.4633, 882.4193
675.9454, 876.8391
676.4276, 887.3607
676.9097, 893.0135
677.3918, 890.6799
677.8739, 886.0074
678.3560, 880.0103
678.8381, 874.3597
679.3203, 871.3942
679.8024, 871.8603
680.2845, 874.0884
680.7666, 878.8419
681.2487, 883.6277
681.7308, 880.3499
682.2130, 869.3107
682.6951, 862.5583
683.1772, 866.6185
683.6593, 872.8734
684.1414, 866.7572
684.6235, 844.2938
685.1057, 830.6531
685.5878, 830.4860
686.0699, 833.5685
686.5520, 841.4520
687.0341, 848.9932
687.5162, 849.0737
687.9984, 841.7547
688.4805, 837.2289
688.9626, 844.2988
689.4447, 854.7916
689.9268, 860.7737
690.4089, 862.4075
690.8911, 859.6498
691.3732, 852.5894
691.8553, 843.8574
692.3374, 835.8389
692.8195, 828.6244
693.3016, 822.7084
693.7838, 815.8187
694.2659, 815.3864
694.7480, 828.6700
695.2301, 843.6321
695.7122, 852.2648
696.1943, 855.6172
696.6765, 858.2650
697.1586, 861.7131
697.6407, 864.1263
698.1228, 863.6134
698.6049, 862.0200
699.0870, 862.4791
699.5692, 864.4852
700.0513, 863.9517
700.5334, 857.9892
701.0155, 849.9999
701.4976, 847.2701
701.9797, 850.0371
702.4619, 853.0380
702.9440, 856.1302
703.4261, 858.7139
703.9082, 861.1956
704.3903, 862.5916
704.8724, 859.2937
705.3546, 846.3221
705.8367, 843.1244
706.3188, 863.4141
706.8009, 883.1410
707.2830, 886.3893
707.7651, 879.6310
708.2473, 874.5245
708.7294, 874.7094
709.2115, 876.7891
709.6936, 878.3857
710.1757, 879.2250
710.6578, 876.9230
711.1400, 871.9076
711.6221, 873.0499
712.1042, 884.8595
712.5863, 898.1849
713.0684, 901.4241
713.5505, 894.0779
714.0327, 887.1939
714.5148, 878.3050
714.9969, 873.4545
715.4790, 878.9915
715.9611, 884.6053
716.4432, 879.2870
716.9254, 865.4941
717.4075, 856.9365
717.8896, 860.7769
718.3717, 869.3270
718.8538, 879.6790
719.3359, 889.3340
719.8181, 892.9518
720.3002, 890.6373
720.7823, 887.5517
721.2644, 887.0007
721.7465, 888.5886
722.2286, 892.2536
722.7108, 898.8530
723.1929, 901.0381
723.6750, 895.5764
724.1571, 891.0870
724.6392, 895.4144
725.1213, 902.7202
725.6035, 900.1009
726.0856, 883.3449
726.5677, 871.3666
727.0498, 867.3964
727.5319, 869.2694
728.0140, 880.5166
728.4962, 894.9059
728.9783, 902.7813
729.4604, 901.7425
729.9425, 897.1788
730.4246, 892.1863
730.9067, 887.8372
731.3889, 887.3629
731.8710, 890.3214
732.3531, 892.6266
732.8352, 893.1517
733.3173, 892.1104
733.7994, 888.9319
734.2816, 884.1418
734.7637, 885.1270
735.2458, 900.7527
735.7279, 907.1875
736.2100, 895.6393
736.6921, 880.1989
737.1743, 868.1217
737.6564, 859.2156
738.1385, 851.2814
738.6206, 842.1196
739.1027, 837.7194
739.5848, 848.1622
740.0670, 860.6812
740.5491, 857.6320
741.0312, 842.4168
741.5133, 830.2544
741.9954, 828.3554
742.4775, 831.8313
742.9597, 835.1987
743.4418, 838.2239
743.9239, 836.6149
744.4060, 828.9582
744.8881, 824.5231
745.3702, 828.3253
745.8524, 834.8528
746.3345, 836.5989
746.8166, 832.9731
747.2987, 829.9128
747.7808, 825.0897
748.2629, 823.7563
748.7451, 833.5284
749.2272, 842.5521
749.7093, 838.5364
750.1914, 823.1804
750.6735, 807.6742
751.1556, 796.0851
751.6378, 788.5513
752.1199, 787.3663
752.6020, 789.5582
753.0841, 789.9915
753.5662, 787.9608
754.0483, 783.4583
754.5305, 776.0928
755.0126, 769.1267
755.4947, 770.4769
755.9768, 781.6435
756.4589, 786.4105
756.9410, 782.0223
757.4232, 777.4467
757.9053, 776.5599
758.3874, 777.5945
758.8695, 777.9998
759.3516, 777.7524
759.8337, 777.3019
760.3159, 777.7875
760.7980, 776.7498
761.2801, 773.0361
761.7622, 767.4962
762.2443, 759.5696
762.7264, 750.3632
763.2086, 744.2093
763.6907, 745.0640
764.1728, 747.3484
764.6549, 741.7882
765.1370, 733.1308
765.6191, 736.2153
766.1013, 751.4789
766.5834, 761.9417
767.0655, 756.4284
767.5476, 742.9348
768.0297, 739.9302
768.5118, 750.1942
768.9940, 753.3403
769.4761, 744.4175
769.9582, 738.5137
770.4403, 745.2674
770.9224, 756.4976
771.4045, 759.5678
771.8867, 753.6965
772.3688, 750.6568
772.8509, 758.0505
773.3330, 760.9650
773.8151, 748.4611
774.2972, 732.0263
774.7794, 724.3929
775.2615, 725.6497
775.7436, 727.1432
776.2257, 722.9796
776.7078, 719.5845
777.1899, 727.6276
777.6721, 741.1036
778.1542, 744.5534
778.6363, 737.4053
779.1184, 731.6535
779.6005, 734.3129
780.0826, 740.0313
780.5648, 737.3458
781.0469, 724.5597
781.5290, 721.8365
782.0111, 734.2160
782.4932, 743.0909
782.9753, 739.5413
783.4575, 730.8543
783.9396, 725.7559
784.4217, 724.2749
784.9038, 724.1335
785.3859, 727.1065
785.8680, 729.0032
786.3502, 727.3278
786.8323, 725.1999
787.3144, 723.8792
787.7965, 724.5679
788.2786, 730.7250
788.7607, 746.1456
789.2429, 759.6855
789.7250, 760.7315
790.2071, 754.5130
790.6892, 746.9783
791.1713, 739.9648
791.6534, 738.5524
792.1356, 744.9271
792.6177, 752.0220
793.0998, 749.3932
793.5819, 738.2806
794.0640, 730.8348
794.5461, 727.1713
795.0283, 726.6796
795.5104, 730.2725
795.9925, 734.7822
796.4746, 737.7361
796.9567, 739.0037
797.4388, 737.1039
797.9210, 724.5753
798.4031, 719.7090
798.8852, 730.5088
799.3673, 742.0256
799.8494, 745.9739
800.3315, 744.3732
800.8137, 741.7478
801.2958, 739.0448
801.7779, 735.9067
802.2600, 731.7964
802.7421, 727.4852
803.2242, 721.6721
803.7064, 716.7975
804.1885, 719.0009
804.6706, 728.7138
805.1527, 737.6516
805.6348, 738.4791
806.1169, 734.4152
806.5991, 731.9670
807.0812, 730.9528
807.5633, 728.8497
808.0454, 724.8707
808.5275, 727.0074
809.0096, 742.4850
809.4918, 763.6456
809.9739, 769.7716
810.4560, 754.8171
810.9381, 747.4001
811.4202, 753.1002
811.9023, 757.1471
812.3845, 749.4171
812.8666, 740.1536
813.3487, 743.8668
813.8308, 760.5188
814.3129, 768.7981
814.7950, 759.1851
815.2772, 748.8896
815.7593, 743.0550
816.2414, 739.6397
816.7235, 735.6181
817.2056, 732.1934
817.6877, 734.0867
818.1699, 744.3092
818.6520, 755.3056
819.1341, 761.3856
819.6162, 763.7924
820.0983, 763.5083
820.5804, 761.2919
821.0626, 758.5363
821.5447, 755.8498
822.0268, 755.2632
822.5089, 760.4110
822.9910, 768.7650
823.4731, 766.6210
823.9553, 752.9756
824.4374, 752.5680
824.9195, 775.1264
825.4016, 792.1542
825.8837, 778.2183
826.3658, 745.2927
826.8480, 734.4312
827.3301, 756.4536
827.8122, 775.8371
828.2943, 801.6736
828.7764, 813.3536
829.2585, 789.0530
829.7407, 755.4529
830.2228, 746.8401
830.7049, 765.0356
831.1870, 778.7125
831.6691, 774.7878
832.1512, 771.7716
832.6334, 779.9747
833.1155, 791.3079
833.5976, 795.3716
834.0797, 794.6783
834.5618, 801.8693
835.0439, 824.6820
835.5261, 844.7093
836.0082, 841.0759
836.4903, 825.6630
836.9724, 817.5285
837.4545, 815.8691
837.9366, 812.0714
838.4188, 803.4934
838.9009, 796.7729
839.3830, 799.4993
839.8651, 809.2087
840.3472, 818.5192
840.8293, 827.5544
841.3115, 827.5451
841.7936, 814.4041
842.2757, 805.1081
842.7578, 812.5891
843.2399, 829.9704
843.7220, 840.0176
844.2042, 841.0942
844.6863, 840.1261
845.1684, 835.0930
845.6505, 831.0228
846.1326, 826.5691
846.6147, 825.9994
847.0969, 837.8946
847.5790, 860.4907
848.0611, 872.0945
848.5432, 859.0940
849.0253, 849.2813
849.5074, 851.1891
849.9896, 858.1614
850.4717, 868.0696
850.9538, 878.1660
851.4359, 883.7559
851.9180, 883.2914
852.4001, 880.6079
852.8823, 875.5931
853.3644, 871.8331
853.8465, 873.8448
854.3286, 879.8182
854.8107, 885.8804
855.2928, 891.3183
855.7750, 898.6044
856.2571, 910.9420
856.7392, 921.9841
857.2213, 916.3574
857.7034, 899.0708
858.1855, 893.9828
858.6677, 902.9841
859.1498, 912.4883
859.6319, 916.4809
860.1140, 915.8344
860.5961, 909.9398
861.0782, 899.4205
861.5604, 902.4734
862.0425, 923.7626
862.5246, 940.1799
863.0067, 945.2948
863.4888, 947.4670
863.9709, 954.1759
864.4531, 962.9247
864.9352, 963.8895
865.4173, 946.8709
865.8994, 943.4904
866.3815, 966.8243
866.8636, 987.5925
867.3458, 990.6506
867.8279, 989.0142
868.3100, 997.8060
868.7921, 1017.465
869.2742, 1037.673
869.7563, 1049.620
870.2385, 1069.551
870.7206, 1120.468
871.2027, 1167.958
871.6848, 1167.795
872.1669, 1141.136
872.6490, 1145.957
873.1312, 1203.044
873.6133, 1255.421
874.0954, 1251.195
874.5775, 1229.831
875.0596, 1231.484
875.5417, 1252.026
876.0239, 1285.629
876.5060, 1327.271
876.9881, 1360.522
877.4702, 1372.342
877.9523, 1377.863
878.4344, 1407.371
878.9166, 1451.259
879.3987, 1469.500
879.8808, 1461.639
880.3629, 1457.001
880.8450, 1467.451
881.3271, 1484.387
881.8093, 1499.405
882.2914, 1511.155
882.7735, 1510.610
883.2556, 1497.052
883.7377, 1475.501
884.2198, 1444.778
884.7020, 1412.982
885.1841, 1385.540
885.6662, 1360.664
886.1483, 1334.437
886.6304, 1307.099
887.1125, 1277.673
887.5947, 1245.130
888.0768, 1212.289
888.5589, 1179.834
889.0410, 1147.463
889.5231, 1109.914
890.0052, 1071.135
890.4874, 1049.739
890.9695, 1063.885
891.4516, 1064.939
891.9337, 1038.234
892.4158, 1005.641
892.8979, 972.1821
893.3801, 943.2551
893.8622, 926.3558
894.3443, 921.7582
894.8264, 920.3372
895.3085, 923.0367
895.7906, 922.4717
896.2728, 914.6285
896.7549, 901.5866
897.2370, 879.4592
897.7191, 855.0090
898.2012, 845.3585
898.6833, 856.7346
899.1655, 870.4464
899.6476, 872.9050
900.1297, 868.3786
900.6118, 859.0604
901.0939, 847.8034
901.5760, 839.5618
902.0582, 835.5016
902.5403, 836.4276
903.0224, 843.6712
903.5045, 850.9462
903.9866, 847.7272
904.4688, 837.1950
904.9509, 827.5095
905.4330, 819.7465
905.9151, 820.6722
906.3972, 832.3310
906.8793, 840.1083
907.3615, 827.9194
907.8436, 804.4331
908.3257, 799.5497
908.8078, 813.4262
909.2899, 822.7045
909.7720, 824.4401
910.2542, 825.9402
910.7363, 831.0312
911.2184, 836.4710
911.7005, 836.5593
912.1826, 831.4808
912.6647, 836.7302
913.1469, 859.3325
913.6290, 868.9152
914.1111, 853.6035
914.5932, 836.9648
915.0753, 834.6761
915.5574, 841.6099
916.0396, 846.1415
916.5217, 847.6852
917.0038, 848.9940
917.4859, 848.4799
917.9680, 849.9836
918.4501, 857.2871
918.9323, 864.4529
919.4144, 867.1802
919.8965, 865.8726
920.3786, 861.8274
920.8607, 851.8266
921.3428, 846.4734
921.8250, 852.0013
922.3071, 857.0327
922.7892, 850.9456
923.2713, 844.9969
923.7534, 856.3185
924.2355, 882.9260
924.7177, 901.5396
925.1998, 903.4713
925.6819, 899.2665
926.1640, 885.8270
926.6461, 874.8267
927.1282, 877.8707
927.6104, 889.2379
928.0925, 898.4688
928.5746, 903.2986
929.0567, 908.0289
929.5388, 912.9789
930.0209, 921.0881
930.5031, 942.3004
930.9852, 962.7413
931.4673, 959.6433
931.9494, 940.3529
932.4315, 929.0942
932.9136, 934.6484
933.3958, 948.6813
933.8779, 968.5763
934.3600, 989.2186
934.8421, 1005.862
935.3242, 1017.447
935.8063, 1016.911
936.2885, 1007.574
936.7706, 1007.755
937.2527, 1027.594
937.7348, 1053.282
938.2169, 1066.587
938.6990, 1073.851
939.1812, 1093.382
939.6633, 1120.604
940.1454, 1134.010
940.6275, 1130.237
941.1096, 1127.198
941.5917, 1137.844
942.0739, 1154.753
942.5560, 1160.360
943.0381, 1159.639
943.5202, 1188.177
944.0023, 1243.299
944.4844, 1265.289
944.9666, 1234.830
945.4487, 1204.958
945.9308, 1226.359
946.4129, 1276.497
946.8950, 1290.670
947.3771, 1269.056
947.8593, 1249.189
948.3414, 1233.207
948.8235, 1221.990
949.3056, 1216.001
949.7877, 1214.853
950.2698, 1219.595
950.7520, 1227.843
951.2341, 1225.668
951.7162, 1211.001
952.1983, 1198.972
952.6804, 1190.576
953.1625, 1187.538
953.6447, 1193.260
954.1268, 1198.963
954.6089, 1190.805
955.0910, 1169.989
955.5731, 1162.942
956.0552, 1173.908
956.5374, 1186.567
957.0195, 1203.121
957.5016, 1211.791
957.9837, 1200.111
958.4658, 1183.376
958.9479, 1186.449
959.4301, 1210.297
959.9122, 1242.481
960.3943, 1301.185
960.8764, 1330.451
961.3585, 1301.285
961.8406, 1269.506
962.3228, 1271.173
962.8049, 1291.938
963.2870, 1303.205
963.7691, 1301.970
964.2512, 1307.311
964.7333, 1320.701
965.2155, 1338.541
965.6976, 1365.977
966.1797, 1392.191
966.6618, 1409.991
967.1439, 1421.680
967.6260, 1431.049
968.1082, 1435.481
968.5903, 1448.545
969.0724, 1476.861
969.5545, 1505.964
970.0366, 1530.176
970.5187, 1555.761
971.0009, 1586.690
971.4830, 1622.977
971.9651, 1665.390
972.4472, 1718.133
972.9293, 1762.235
973.4114, 1781.695
973.8936, 1809.767
974.3757, 1863.452
974.8578, 1926.111
975.3399, 1979.421
975.8220, 2029.111
976.3041, 2095.322
976.7863, 2186.774
977.2684, 2275.915
977.7505, 2354.103
978.2326, 2431.406
978.7147, 2507.204
979.1968, 2587.714
979.6790, 2673.491
980.1611, 2769.010
980.6432, 2888.736
981.1253, 3039.607
981.6074, 3201.787
982.0895, 3380.634
982.5717, 3555.991
983.0538, 3707.888
983.5359, 3859.958
984.0180, 4037.359
984.5001, 4239.153
984.9822, 4450.111
985.4644, 4666.331
985.9465, 4891.981
986.4286, 5143.565
986.9107, 5389.708
987.3928, 5602.013
987.8749, 5806.102
988.3571, 6035.261
988.8392, 6284.300
989.3213, 6518.785
989.8034, 6728.814
990.2855, 6921.513
990.7676, 7091.452
991.2498, 7252.888
991.7319, 7428.791
992.2140, 7592.015
992.6961, 7712.779
993.1782, 7789.522
993.6603, 7838.045
994.1425, 7868.103
994.6246, 7856.253
995.1067, 7794.875
995.5888, 7684.747
996.0709, 7511.036
996.5530, 7299.368
997.0352, 7078.650
997.5173, 6850.271
997.9994, 6601.685
998.4815, 6326.823
998.9636, 6036.871
999.4457, 5718.738
999.9279, 5404.511
1000.410, 5127.287
1000.892, 4863.316
1001.374, 4571.235
1001.856, 4259.639
1002.338, 3987.253
1002.821, 3782.923
1003.303, 3591.024
1003.785, 3384.456
1004.267, 3180.819
1004.749, 2988.489
1005.231, 2810.583
1005.713, 2649.062
1006.195, 2506.189
1006.677, 2388.423
1007.160, 2306.700
1007.642, 2223.564
1008.124, 2116.770
1008.606, 2008.850
1009.088, 1907.905
1009.570, 1818.754
1010.052, 1748.488
1010.534, 1694.450
1011.017, 1646.806
1011.499, 1604.976
1011.981, 1559.144
1012.463, 1492.616
1012.945, 1434.633
1013.427, 1413.788
1013.909, 1403.551
1014.391, 1370.966
1014.873, 1321.014
1015.356, 1281.297
1015.838, 1261.095
1016.320, 1244.481
1016.802, 1227.210
1017.284, 1209.752
1017.766, 1194.043
1018.248, 1176.965
1018.730, 1154.102
1019.213, 1127.178
1019.695, 1101.417
1020.177, 1077.641
1020.659, 1057.049
1021.141, 1039.367
1021.623, 1025.643
1022.105, 1015.132
1022.587, 1009.719
1023.069, 1015.565
1023.552, 1027.077
1024.034, 1031.207
1024.516, 1025.604
1024.998, 1012.406
1025.480, 977.2209
1025.962, 954.1531
1026.444, 967.4908
1026.926, 987.4316
1027.409, 991.3070
1027.891, 982.8000
1028.373, 971.3226
1028.855, 957.0998
1029.337, 948.7266
1029.819, 951.2951
1030.301, 954.9895
1030.783, 961.7087
1031.266, 964.1844
1031.748, 953.4617
1032.230, 936.7961
1032.712, 926.6190
1033.194, 923.9874
1033.676, 925.6177
1034.158, 939.3889
1034.640, 945.3923
1035.122, 929.9807
1035.604, 917.3533
1036.087, 926.6708
1036.569, 943.9681
1037.051, 944.6818
1037.533, 927.6341
1038.015, 927.5770
1038.497, 965.2698
1038.979, 986.6232
1039.461, 978.1139
1039.944, 966.2572
1040.426, 958.0914
1040.908, 956.3332
1041.390, 967.0043
1041.872, 988.5085
1042.354, 1003.072
1042.836, 1006.741
1043.318, 1012.104
1043.800, 1021.606
1044.283, 1028.909
1044.765, 1030.744
1045.247, 1030.664
1045.729, 1031.065
1046.211, 1032.956
1046.693, 1041.557
1047.175, 1059.763
1047.657, 1075.174
1048.140, 1087.542
1048.622, 1097.138
1049.104, 1102.637
1049.586, 1109.350
1050.068, 1123.146
1050.550, 1139.563
1051.032, 1146.258
1051.514, 1142.480
1051.996, 1134.789
1052.479, 1121.403
1052.961, 1117.054
1053.443, 1126.970
1053.925, 1136.404
1054.407, 1135.071
1054.889, 1128.652
1055.371, 1127.136
1055.853, 1130.349
1056.335, 1139.647
1056.818, 1154.994
1057.300, 1151.682
1057.782, 1125.292
1058.264, 1099.674
1058.746, 1087.358
1059.228, 1081.804
1059.710, 1076.682
1060.192, 1069.641
1060.675, 1047.929
1061.157, 1015.994
1061.639, 1002.068
1062.121, 1006.554
1062.603, 1006.192
1063.085, 991.9020
1063.567, 970.1987
1064.049, 945.7670
1064.531, 921.4188
1065.014, 903.1617
1065.496, 888.9501
1065.978, 872.9333
1066.460, 856.2928
1066.942, 844.1973
1067.424, 838.0028
1067.906, 837.4118
1068.388, 844.5302
1068.870, 848.4281
1069.353, 830.0501
1069.835, 805.9011
1070.317, 800.9856
1070.799, 807.5854
1071.281, 808.3181
1071.763, 801.6114
1072.245, 796.1961
1072.727, 796.0125
1073.210, 797.4861
1073.692, 800.6477
1074.174, 801.5487
1074.656, 794.3173
1075.138, 784.7759
1075.620, 780.4691
1076.102, 780.1949
1076.584, 778.9014
1077.067, 775.2731
1077.549, 769.9225
1078.031, 759.1860
1078.513, 752.0006
1078.995, 756.6094
1079.477, 762.1813
1079.959, 757.0970
1080.441, 748.7228
1080.923, 753.1741
1081.406, 770.9810
1081.888, 777.2985
1082.370, 758.8152
1082.852, 742.1853
1083.334, 727.0937
1083.816, 719.8454
1084.298, 730.7056
1084.780, 745.3533
1085.262, 747.1160
1085.745, 738.7584
1086.227, 733.4054
1086.709, 727.5234
1087.191, 735.2260
1087.673, 767.8281
1088.155, 790.7209
1088.637, 792.2800
1089.119, 786.6182
1089.602, 782.6053
1090.084, 780.0849
1090.566, 778.8340
1091.048, 778.8985
1091.530, 777.7750
1092.012, 773.9563
1092.494, 780.3864
1092.976, 800.9360
1093.458, 819.8080
1093.941, 828.9748
1094.423, 833.3388
1094.905, 838.1160
1095.387, 844.5498
1095.869, 861.4194
1096.351, 885.7077
1096.833, 891.8044
1097.315, 879.1227
1097.797, 860.2271
1098.280, 840.2939
1098.762, 831.9169
1099.244, 847.0984
1099.726, 870.9985
1100.208, 884.2257
1100.690, 887.7955
1101.172, 875.7608
1101.654, 857.9944
1102.137, 862.1429
1102.619, 887.7253
1103.101, 910.6595
1103.583, 919.6099
1104.065, 923.0325
1104.547, 922.7454
1105.029, 925.4854
1105.511, 946.0174
1105.994, 966.6537
1106.476, 959.3095
1106.958, 936.1124
1107.440, 929.0187
1107.922, 943.9924
1108.404, 956.3973
1108.886, 952.8364
1109.368, 950.0447
1109.850, 957.0444
1110.333, 963.5278
1110.815, 961.4799
1111.297, 956.5190
1111.779, 956.9572
1112.261, 961.4741
1112.743, 960.6181
1113.225, 950.0522
1113.707, 942.9509
1114.189, 944.0985
1114.672, 941.7059
1115.154, 931.1568
1115.636, 918.9957
1116.118, 908.6660
1116.600, 900.5784
1117.082, 896.0972
1117.564, 895.2441
1118.046, 891.2855
1118.529, 884.3015
1119.011, 872.4394
1119.493, 854.0714
1119.975, 840.6823
1120.457, 837.6420
1120.939, 837.7722
1121.421, 834.0151
1121.903, 827.2561
1122.385, 819.2334
1122.868, 810.2921
1123.350, 801.8778
1123.832, 794.1513
1124.314, 788.3914
1124.796, 784.2023
1125.278, 775.1935
1125.760, 757.2628
1126.242, 741.5961
1126.724, 745.3358
1127.207, 755.1130
1127.689, 752.5552
1128.171, 743.0890
1128.653, 733.4338
1129.135, 725.4629
1129.617, 722.1429
1130.099, 723.4563
1130.581, 721.5803
1131.064, 709.8340
1131.546, 698.8542
1132.028, 693.0087
1132.510, 691.0377
1132.992, 694.9474
1133.474, 700.1120
1133.956, 699.7617
1134.438, 695.6611
1134.921, 697.1981
1135.403, 709.0646
1135.885, 714.2557
1136.367, 707.6967
1136.849, 699.7448
1137.331, 691.7549
1137.813, 683.0070
1138.295, 670.7955
1138.777, 660.3089
1139.260, 659.5938
1139.742, 667.8049
1140.224, 678.9324
1140.706, 695.0618
1141.188, 695.1961
1141.670, 675.9562
1142.152, 664.6935
1142.634, 670.5710
1143.116, 679.1247
1143.599, 679.0333
1144.081, 675.5906
1144.563, 680.3829
1145.045, 688.5582
1145.527, 683.7466
1146.009, 669.6803
1146.491, 654.3249
1146.973, 641.8986
1147.456, 644.6350
1147.938, 665.8535
1148.420, 684.6998
1148.902, 684.8695
1149.384, 677.9639
1149.866, 671.6170
1150.348, 665.6431
1150.830, 658.3068
1151.313, 652.1838
1151.795, 652.1857
1152.277, 657.2004
1152.759, 660.0576
1153.241, 657.7454
1153.723, 658.3787
1154.205, 669.7889
1154.687, 676.0857
1155.169, 665.9080
1155.651, 656.5172
1156.134, 659.5220
1156.616, 668.8321
1157.098, 676.4343
1157.580, 682.2626
1158.062, 685.4469
1158.544, 685.7180
1159.026, 685.2674
1159.508, 685.1577
1159.991, 676.1467
1160.473, 653.5704
1160.955, 638.4171
1161.437, 647.0559
1161.919, 665.5232
1162.401, 668.2131
1162.883, 662.1620
1163.365, 674.5976
1163.848, 698.2723
1164.330, 710.5895
1164.812, 710.0453
1165.294, 701.2911
1165.776, 687.1511
1166.258, 676.4948
1166.740, 676.4382
1167.222, 678.6176
1167.704, 675.9648
1168.187, 672.6591
1168.669, 673.8445
1169.151, 675.5862
1169.633, 671.4956
1170.115, 663.5952
1170.597, 659.8024
1171.079, 662.4241
1171.561, 661.2425
1172.043, 648.4855
1172.526, 641.2388
1173.008, 646.6114
1173.490, 651.2750
1173.972, 648.5843
1174.454, 644.2673
1174.936, 644.8397
1175.418, 648.1892
1175.900, 646.5944
1176.383, 639.5958
1176.865, 634.6804
1177.347, 631.9304
1177.829, 625.6508
1178.311, 614.9432
1178.793, 607.8656
1179.275, 608.3442
1179.757, 610.2000
1180.240, 607.1713
1180.722, 601.1520
1181.204, 591.9054
1181.686, 583.9943
1182.168, 589.8013
1182.650, 601.5417
1183.132, 600.2553
1183.614, 586.7729
1184.096, 577.6550
1184.578, 578.9116
1185.061, 585.1047
1185.543, 600.6063
1186.025, 611.1483
1186.507, 608.0837
1186.989, 600.8297
1187.471, 593.9329
1187.953, 588.1855
1188.435, 584.9176
1188.918, 583.4744
1189.400, 579.3883
1189.882, 569.3137
1190.364, 569.7515
1190.846, 584.1379
1191.328, 593.7166
1191.810, 594.1028
1192.292, 591.2040
1192.775, 588.3134
1193.257, 583.5594
1193.739, 572.3047
1194.221, 560.9778
1194.703, 568.2477
1195.185, 587.0680
1195.667, 602.6240
1196.149, 611.7759
1196.631, 605.8384
1197.114, 587.6583
1197.596, 577.1540
1198.078, 583.9217
1198.560, 590.4585
1199.042, 582.1187
1199.524, 575.1975
1200.006, 584.7229
1200.488, 593.4094
1200.970, 580.1003
1201.453, 561.7495
1201.935, 569.5400
1202.417, 599.1649
1202.899, 606.6528
1203.381, 579.7462
1203.863, 570.6932
1204.345, 586.1059
1204.827, 598.4756
1205.310, 602.8779
1205.792, 600.1022
1206.274, 589.3740
1206.756, 579.3924
1207.238, 581.3464
1207.720, 589.9774
1208.202, 591.3593
1208.684, 588.8123
1209.167, 594.0519
1209.649, 603.5325
1210.131, 604.4039
1210.613, 596.5771
1211.095, 590.5652
1211.577, 590.5880
1212.059, 589.2399
1212.541, 576.5191
1213.023, 568.5926
1213.505, 580.4629
1213.988, 592.9667
1214.470, 591.5529
1214.952, 583.9655
1215.434, 579.6675
1215.916, 578.2262
1216.398, 576.0966
1216.880, 572.5458
1217.362, 573.7336
1217.845, 582.0431
1218.327, 583.4639
1218.809, 574.2917
1219.291, 572.4875
1219.773, 586.3323
1220.255, 598.2393
1220.737, 591.3192
1221.219, 576.4995
1221.702, 570.9826
1222.184, 572.9007
1222.666, 581.4674
1223.148, 592.9200
1223.630, 601.5303
1224.112, 605.7654
1224.594, 603.0908
1225.076, 593.6133
1225.558, 585.4385
1226.041, 580.4985
1226.523, 580.4669
1227.005, 590.1610
1227.487, 599.3781
1227.969, 606.5861
1228.451, 608.3350
1228.933, 599.9409
1229.415, 586.5610
1229.897, 575.7836
1230.380, 568.1615
1230.862, 572.7926
1231.344, 590.4866
1231.826, 599.2729
1232.308, 598.1456
1232.790, 596.4120
1233.272, 596.1915
1233.754, 590.7784
1234.237, 575.9720
1234.719, 565.2532
1235.201, 578.1426
1235.683, 595.9180
1236.165, 599.5517
1236.647, 595.2850
1237.129, 587.0505
1237.611, 577.7094
1238.094, 568.1794
1238.576, 560.6937
1239.058, 563.2494
1239.540, 579.8981
1240.022, 594.9354
1240.504, 611.0553
1240.986, 617.7656
1241.468, 611.2794
1241.950, 601.0327
1242.432, 589.3215
1242.915, 580.7497
##END=



