##NAMES=Gormanite
##RRUFFID=R050093
##IDEAL CHEMISTRY=Fe^2+^_3_Al_4_(PO_4_)_4_(OH)_6_&#183;2H_2_O
##LOCALITY=Rapid Creek, Yukon Territory, Canada
##OWNER=RRUFF
##SOURCE=Rock Currier
##DESCRIPTION=Radial aggregates of blue bladed crystals
##STATUS=The identification of this mineral has been confirmed by X-ray diffraction and chemical analysis
##URL=rruff.info/R050093
##MEASURED CHEMISTRY=(Fe^2+^_1.85_Mg_1.09_Mn_0.06_)_Σ=3_(Al_3.76_Fe^3+^_0.24_)_Σ=4_(P_1.00_O_4_)_4_((OH_5.65_F_0.35_)_Σ=6_·2H_2_O ; (light phase) : (Fe^2+^_1.53_Mg_1.42_Mn_0.05_)_Σ=3_(Al_3.89_Fe^3+^_0.11_)_Σ=4_(P_1.00_O_4_)_4_((OH_5.60_F_0.40_)_Σ=6_·2H_2_O (dark phase
154.2619, 1524.766
154.7440, 1533.269
155.2261, 1559.105
155.7082, 1576.006
156.1903, 1574.294
156.6724, 1564.086
157.1546, 1557.409
157.6367, 1556.763
158.1188, 1559.549
158.6009, 1565.903
159.0830, 1577.984
159.5651, 1587.583
160.0473, 1590.311
160.5294, 1589.268
161.0115, 1590.424
161.4936, 1599.725
161.9757, 1608.938
162.4578, 1613.331
162.9400, 1609.970
163.4221, 1605.193
163.9042, 1602.357
164.3863, 1600.329
164.8684, 1595.300
165.3505, 1579.354
165.8327, 1562.746
166.3148, 1553.977
166.7969, 1559.438
167.2790, 1569.261
167.7611, 1580.684
168.2433, 1593.188
168.7254, 1601.925
169.2075, 1600.813
169.6896, 1595.357
170.1717, 1592.012
170.6538, 1598.800
171.1360, 1604.934
171.6181, 1600.552
172.1002, 1585.175
172.5823, 1568.500
173.0644, 1555.440
173.5465, 1546.054
174.0287, 1540.173
174.5108, 1542.555
174.9929, 1546.234
175.4750, 1542.126
175.9571, 1528.411
176.4392, 1514.032
176.9214, 1509.768
177.4035, 1512.217
177.8856, 1511.848
178.3677, 1500.917
178.8498, 1484.539
179.3319, 1469.823
179.8141, 1456.900
180.2962, 1447.625
180.7783, 1447.647
181.2604, 1454.977
181.7425, 1459.100
182.2246, 1451.427
182.7068, 1435.486
183.1889, 1418.159
183.6710, 1398.380
184.1531, 1381.260
184.6352, 1378.395
185.1173, 1389.057
185.5995, 1400.392
186.0816, 1400.905
186.5637, 1375.122
187.0458, 1396.855
187.5279, 1408.688
188.0100, 1411.153
188.4922, 1376.191
188.9743, 1389.558
189.4564, 1383.557
189.9385, 1376.762
190.4206, 1396.931
190.9027, 1367.413
191.3849, 1387.154
191.8670, 1387.232
192.3491, 1396.310
192.8312, 1385.900
193.3133, 1381.508
193.7954, 1396.611
194.2776, 1400.920
194.7597, 1388.266
195.2418, 1397.916
195.7239, 1367.717
196.2060, 1372.486
196.6881, 1392.341
197.1703, 1380.667
197.6524, 1390.673
198.1345, 1392.422
198.6166, 1356.648
199.0987, 1386.131
199.5808, 1387.392
200.0630, 1359.675
200.5451, 1386.922
201.0272, 1363.200
201.5093, 1357.672
201.9914, 1365.834
202.4735, 1359.723
202.9557, 1376.115
203.4378, 1370.829
203.9199, 1363.606
204.4020, 1364.836
204.8841, 1342.113
205.3662, 1363.826
205.8484, 1355.186
206.3305, 1361.634
206.8126, 1371.502
207.2947, 1355.184
207.7768, 1366.588
208.2589, 1335.001
208.7411, 1339.387
209.2232, 1344.367
209.7053, 1330.303
210.1874, 1320.052
210.6695, 1322.752
211.1517, 1343.469
211.6338, 1355.049
212.1159, 1351.837
212.5980, 1336.404
213.0801, 1323.115
213.5622, 1311.381
214.0444, 1303.132
214.5265, 1300.968
215.0086, 1307.001
215.4907, 1312.434
215.9728, 1316.720
216.4549, 1319.624
216.9371, 1316.427
217.4192, 1302.344
217.9013, 1289.268
218.3834, 1291.485
218.8655, 1318.388
219.3476, 1334.531
219.8298, 1328.639
220.3119, 1300.482
220.7940, 1284.073
221.2761, 1283.117
221.7582, 1289.678
222.2403, 1296.132
222.7225, 1303.955
223.2046, 1307.772
223.6867, 1304.247
224.1688, 1292.062
224.6509, 1288.338
225.1330, 1298.108
225.6152, 1311.589
226.0973, 1315.358
226.5794, 1304.525
227.0615, 1293.964
227.5436, 1287.810
228.0257, 1286.732
228.5079, 1285.607
228.9900, 1283.496
229.4721, 1282.040
229.9542, 1284.169
230.4363, 1292.728
230.9184, 1299.653
231.4006, 1302.147
231.8827, 1298.960
232.3648, 1296.865
232.8469, 1298.202
233.3290, 1299.226
233.8111, 1292.317
234.2933, 1270.609
234.7754, 1252.442
235.2575, 1244.853
235.7396, 1251.655
236.2217, 1256.673
236.7038, 1258.914
237.1860, 1259.862
237.6681, 1262.628
238.1502, 1268.357
238.6323, 1274.115
239.1144, 1279.602
239.5965, 1286.851
240.0787, 1287.852
240.5608, 1280.131
241.0429, 1267.068
241.5250, 1255.898
242.0071, 1246.151
242.4892, 1238.992
242.9714, 1235.180
243.4535, 1235.749
243.9356, 1237.472
244.4177, 1242.537
244.8998, 1248.207
245.3819, 1246.184
245.8641, 1229.778
246.3462, 1215.501
246.8283, 1212.480
247.3104, 1229.520
247.7925, 1236.163
248.2746, 1226.753
248.7568, 1207.868
249.2389, 1198.782
249.7210, 1204.844
250.2031, 1212.606
250.6852, 1215.599
251.1674, 1211.781
251.6495, 1207.689
252.1316, 1202.064
252.6137, 1196.539
253.0958, 1196.995
253.5779, 1206.745
254.0601, 1217.373
254.5422, 1224.148
255.0243, 1224.956
255.5064, 1227.822
255.9885, 1235.781
256.4706, 1245.577
256.9528, 1245.756
257.4349, 1232.243
257.9170, 1215.805
258.3991, 1200.149
258.8812, 1181.223
259.3633, 1176.016
259.8455, 1191.584
260.3276, 1220.380
260.8097, 1235.109
261.2918, 1231.112
261.7739, 1221.822
262.2560, 1213.789
262.7382, 1206.111
263.2203, 1202.709
263.7024, 1205.188
264.1845, 1211.715
264.6666, 1216.005
265.1487, 1217.419
265.6309, 1217.841
266.1130, 1218.801
266.5951, 1221.327
267.0772, 1219.977
267.5593, 1211.896
268.0414, 1200.501
268.5236, 1198.728
269.0057, 1209.947
269.4878, 1222.615
269.9699, 1229.065
270.4520, 1227.173
270.9341, 1229.170
271.4163, 1237.948
271.8984, 1250.327
272.3805, 1254.692
272.8626, 1247.484
273.3447, 1242.903
273.8268, 1251.629
274.3090, 1276.055
274.7911, 1296.680
275.2732, 1310.561
275.7553, 1320.131
276.2374, 1331.735
276.7195, 1345.839
277.2017, 1360.618
277.6838, 1377.027
278.1659, 1395.846
278.6480, 1405.078
279.1301, 1400.003
279.6122, 1388.223
280.0944, 1389.130
280.5765, 1404.488
281.0586, 1422.686
281.5407, 1437.056
282.0228, 1447.572
282.5049, 1457.858
282.9871, 1468.728
283.4692, 1478.893
283.9513, 1485.431
284.4334, 1488.131
284.9155, 1489.659
285.3976, 1492.476
285.8798, 1496.235
286.3619, 1494.914
286.8440, 1485.617
287.3261, 1475.052
287.8082, 1478.282
288.2903, 1495.447
288.7725, 1511.248
289.2546, 1514.234
289.7367, 1506.934
290.2188, 1505.731
290.7009, 1514.441
291.1830, 1524.042
291.6652, 1517.419
292.1473, 1495.568
292.6294, 1473.347
293.1115, 1457.192
293.5936, 1447.024
294.0757, 1444.305
294.5579, 1451.002
295.0400, 1459.458
295.5221, 1457.176
296.0042, 1445.970
296.4863, 1436.742
296.9684, 1436.285
297.4506, 1441.913
297.9327, 1448.477
298.4148, 1456.404
298.8969, 1461.932
299.3790, 1457.766
299.8611, 1446.531
300.3433, 1437.350
300.8254, 1436.590
301.3075, 1440.479
301.7896, 1443.853
302.2717, 1446.786
302.7538, 1446.856
303.2360, 1437.951
303.7181, 1424.009
304.2002, 1414.451
304.6823, 1420.689
305.1644, 1430.669
305.6465, 1427.541
306.1287, 1409.415
306.6108, 1391.683
307.0929, 1387.801
307.5750, 1393.102
308.0571, 1398.834
308.5392, 1400.572
309.0214, 1401.451
309.5035, 1404.849
309.9856, 1410.945
310.4677, 1416.082
310.9498, 1418.713
311.4319, 1418.704
311.9141, 1415.984
312.3962, 1388.115
312.8783, 1409.095
313.3604, 1420.242
313.8426, 1422.085
314.3247, 1386.757
314.8068, 1399.428
315.2889, 1392.863
315.7710, 1385.509
316.2531, 1404.936
316.7353, 1375.014
317.2174, 1394.016
317.6995, 1393.488
318.1816, 1401.899
318.6637, 1390.955
319.1458, 1385.989
319.6280, 1400.384
320.1101, 1404.058
320.5922, 1390.886
321.0743, 1399.865
321.5564, 1369.267
322.0385, 1373.398
322.5207, 1392.514
323.0028, 1380.315
323.4849, 1389.647
323.9670, 1390.780
324.4491, 1354.644
324.9312, 1383.321
325.4134, 1383.969
325.8955, 1369.221
326.3776, 1366.780
326.8597, 1366.070
327.3418, 1370.915
327.8239, 1395.365
328.3061, 1405.652
328.7882, 1391.165
329.2703, 1361.741
329.7524, 1342.521
330.2345, 1337.810
330.7166, 1339.119
331.1988, 1344.411
331.6809, 1357.018
332.1630, 1365.818
332.6451, 1371.368
333.1272, 1372.892
333.6093, 1367.774
334.0915, 1348.215
334.5736, 1334.165
335.0557, 1333.242
335.5378, 1348.511
336.0199, 1363.244
336.5020, 1379.589
336.9842, 1393.462
337.4663, 1396.853
337.9484, 1382.994
338.4305, 1377.733
338.9126, 1393.443
339.3947, 1430.284
339.8769, 1446.662
340.3590, 1437.181
340.8411, 1418.513
341.3232, 1407.395
341.8053, 1404.157
342.2874, 1407.063
342.7696, 1417.777
343.2517, 1434.450
343.7338, 1446.946
344.2159, 1455.424
344.6980, 1459.913
345.1801, 1460.297
345.6623, 1456.635
346.1444, 1448.946
346.6265, 1434.753
347.1086, 1418.819
347.5907, 1413.578
348.0728, 1419.061
348.5550, 1426.030
349.0371, 1425.012
349.5192, 1419.500
350.0013, 1422.344
350.4834, 1438.849
350.9655, 1458.335
351.4477, 1464.330
351.9298, 1458.928
352.4119, 1451.970
352.8940, 1448.105
353.3761, 1446.932
353.8582, 1447.934
354.3404, 1451.078
354.8225, 1456.259
355.3046, 1467.354
355.7867, 1480.746
356.2688, 1487.750
356.7509, 1477.628
357.2331, 1462.832
357.7152, 1452.796
358.1973, 1447.845
358.6794, 1451.732
359.1615, 1475.868
359.6436, 1508.338
360.1258, 1532.469
360.6079, 1537.147
361.0900, 1535.639
361.5721, 1536.068
362.0542, 1538.546
362.5363, 1534.635
363.0185, 1510.660
363.5006, 1483.393
363.9827, 1468.124
364.4648, 1489.438
364.9469, 1501.600
365.4290, 1484.262
365.9112, 1442.531
366.3933, 1412.330
366.8754, 1411.360
367.3575, 1416.491
367.8396, 1414.707
368.3217, 1404.565
368.8039, 1387.780
369.2860, 1358.252
369.7681, 1321.501
370.2502, 1293.438
370.7323, 1281.714
371.2144, 1270.959
371.6966, 1255.196
372.1787, 1231.448
372.6608, 1210.393
373.1429, 1193.143
373.6250, 1178.019
374.1071, 1161.005
374.5893, 1138.096
375.0714, 1121.492
375.5535, 1117.095
376.0356, 1125.992
376.5177, 1130.831
376.9998, 1131.927
377.4820, 1128.335
377.9641, 1116.896
378.4462, 1095.823
378.9283, 1078.374
379.4104, 1068.358
379.8925, 1064.627
380.3747, 1062.446
380.8568, 1061.959
381.3389, 1062.008
381.8210, 1061.937
382.3031, 1061.674
382.7852, 1060.905
383.2674, 1060.201
383.7495, 1058.054
384.2316, 1049.431
384.7137, 1035.091
385.1958, 1023.488
385.6779, 1023.451
386.1601, 1029.627
386.6422, 1030.178
387.1243, 1022.685
387.6064, 1013.028
388.0885, 1006.970
388.5706, 1003.559
389.0528, 1000.497
389.5349, 993.4045
390.0170, 987.9653
390.4991, 993.0283
390.9812, 1010.010
391.4633, 1022.056
391.9455, 1008.745
392.4276, 986.7830
392.9097, 977.3905
393.3918, 1005.859
393.8739, 1032.661
394.3561, 1037.144
394.8382, 1021.118
395.3203, 1004.534
395.8024, 990.6099
396.2845, 981.2813
396.7667, 978.0667
397.2488, 985.8693
397.7309, 993.9737
398.2130, 1002.778
398.6951, 1010.869
399.1772, 1013.805
399.6594, 1008.617
400.1415, 1000.260
400.6236, 989.7784
401.1057, 974.2220
401.5878, 963.5432
402.0699, 958.1387
402.5521, 957.4201
403.0342, 961.4655
403.5163, 975.3438
403.9984, 984.7808
404.4805, 984.4573
404.9626, 974.1497
405.4448, 968.9699
405.9269, 970.6494
406.4090, 974.2786
406.8911, 974.2811
407.3732, 969.5847
407.8553, 968.9781
408.3375, 975.4019
408.8196, 986.1603
409.3017, 992.7131
409.7838, 994.7962
410.2659, 995.6503
410.7480, 998.8522
411.2302, 1003.229
411.7123, 1001.944
412.1944, 993.1246
412.6765, 981.7344
413.1586, 975.1674
413.6407, 972.1658
414.1229, 967.3902
414.6050, 953.7237
415.0871, 938.1714
415.5692, 932.8890
416.0513, 938.5996
416.5334, 946.1193
417.0156, 946.1465
417.4977, 943.7697
417.9798, 946.6447
418.4619, 969.1470
418.9440, 987.7656
419.4261, 984.4836
419.9083, 962.5246
420.3904, 940.6920
420.8725, 925.8806
421.3546, 915.3175
421.8367, 907.7109
422.3188, 905.3474
422.8010, 901.3175
423.2831, 893.2870
423.7652, 882.4384
424.2473, 871.1605
424.7294, 854.9159
425.2115, 842.6669
425.6937, 838.7841
426.1758, 846.6539
426.6579, 849.5438
427.1400, 841.6091
427.6221, 832.6266
428.1042, 833.6840
428.5864, 853.2454
429.0685, 865.3602
429.5506, 861.9886
430.0327, 846.1682
430.5148, 842.4442
430.9969, 856.5334
431.4791, 869.0724
431.9612, 861.6279
432.4433, 832.0463
432.9254, 820.2806
433.4075, 834.5551
433.8896, 860.9388
434.3718, 874.0511
434.8539, 874.1796
435.3360, 871.4390
435.8181, 869.6229
436.3002, 868.8242
436.7823, 869.7725
437.2645, 872.6221
437.7466, 875.6160
438.2287, 877.0865
438.7108, 877.4067
439.1929, 877.3551
439.6750, 876.7639
440.1572, 876.3386
440.6393, 876.4258
441.1214, 877.1469
441.6035, 879.0991
442.0856, 883.9211
442.5677, 889.3867
443.0499, 892.5650
443.5320, 889.5799
444.0141, 892.5383
444.4962, 914.8616
444.9783, 944.9323
445.4604, 963.2925
445.9426, 950.9127
446.4247, 939.1549
446.9068, 939.0225
447.3889, 952.5193
447.8710, 966.4562
448.3531, 980.3790
448.8353, 994.2961
449.3174, 1008.803
449.7995, 1028.326
450.2816, 1040.308
450.7637, 1037.886
451.2458, 1027.166
451.7280, 1033.627
452.2101, 1063.404
452.6922, 1095.494
453.1743, 1120.560
453.6564, 1138.321
454.1385, 1148.024
454.6207, 1146.912
455.1028, 1143.991
455.5849, 1149.845
456.0670, 1164.456
456.5491, 1189.915
457.0313, 1233.509
457.5134, 1285.447
457.9955, 1320.763
458.4776, 1340.105
458.9597, 1352.871
459.4418, 1363.226
459.9240, 1372.814
460.4061, 1383.939
460.8882, 1395.641
461.3703, 1412.174
461.8524, 1442.858
462.3345, 1481.478
462.8167, 1512.978
463.2988, 1520.353
463.7809, 1525.552
464.2630, 1542.897
464.7451, 1574.399
465.2272, 1606.380
465.7094, 1637.896
466.1915, 1665.600
466.6736, 1686.818
467.1557, 1692.305
467.6378, 1700.867
468.1199, 1718.677
468.6021, 1742.961
469.0842, 1760.126
469.5663, 1763.355
470.0484, 1767.425
470.5305, 1780.119
471.0126, 1806.880
471.4948, 1823.492
471.9769, 1828.023
472.4590, 1825.031
472.9411, 1820.673
473.4232, 1815.313
473.9053, 1806.355
474.3875, 1792.557
474.8696, 1774.685
475.3517, 1755.423
475.8338, 1734.576
476.3159, 1714.409
476.7981, 1696.603
477.2802, 1680.880
477.7623, 1666.653
478.2444, 1654.148
478.7265, 1642.086
479.2086, 1632.809
479.6908, 1623.232
480.1729, 1605.635
480.6550, 1562.295
481.1371, 1518.819
481.6192, 1503.833
482.1013, 1516.741
482.5835, 1520.440
483.0656, 1486.373
483.5477, 1440.245
484.0298, 1403.654
484.5119, 1387.926
484.9940, 1373.380
485.4762, 1351.288
485.9583, 1326.998
486.4404, 1314.277
486.9225, 1326.574
487.4046, 1338.763
487.8867, 1343.456
488.3689, 1339.080
488.8510, 1337.557
489.3331, 1344.074
489.8152, 1347.229
490.2973, 1332.194
490.7794, 1292.246
491.2616, 1264.092
491.7437, 1256.193
492.2258, 1261.575
492.7079, 1263.051
493.1900, 1260.661
493.6721, 1253.362
494.1543, 1234.995
494.6364, 1210.784
495.1185, 1200.581
495.6006, 1206.574
496.0827, 1216.763
496.5648, 1222.030
497.0470, 1222.416
497.5291, 1217.531
498.0112, 1202.338
498.4933, 1186.843
498.9754, 1181.606
499.4576, 1183.879
499.9397, 1183.561
500.4218, 1171.217
500.9039, 1158.032
501.3860, 1151.588
501.8681, 1155.159
502.3503, 1158.199
502.8324, 1158.856
503.3145, 1157.531
503.7966, 1154.653
504.2787, 1147.402
504.7608, 1142.097
505.2430, 1140.067
505.7251, 1140.889
506.2072, 1142.398
506.6893, 1147.180
507.1714, 1147.951
507.6535, 1138.888
508.1357, 1118.269
508.6178, 1102.769
509.0999, 1093.828
509.5820, 1087.898
510.0641, 1078.632
510.5462, 1066.652
511.0284, 1060.567
511.5105, 1066.524
511.9926, 1077.375
512.4747, 1079.572
512.9568, 1073.714
513.4389, 1064.828
513.9210, 1053.557
514.4031, 1042.411
514.8853, 1035.279
515.3674, 1033.612
515.8495, 1031.885
516.3316, 1026.608
516.8137, 1019.242
517.2958, 1011.800
517.7780, 1004.355
518.2601, 997.4752
518.7422, 991.0998
519.2244, 985.3060
519.7065, 981.0998
520.1886, 981.2732
520.6707, 980.7967
521.1528, 977.5709
521.6349, 971.4000
522.1171, 962.4999
522.5992, 948.5332
523.0813, 934.1818
523.5634, 925.6212
524.0455, 923.5798
524.5276, 924.1069
525.0098, 928.9493
525.4919, 934.4631
525.9740, 924.8015
526.4561, 899.3922
526.9382, 876.7050
527.4203, 871.4682
527.9025, 877.7161
528.3846, 882.2363
528.8667, 883.9850
529.3488, 882.7229
529.8309, 876.2134
530.3130, 866.9282
530.7952, 858.7781
531.2773, 851.9844
531.7594, 847.9995
532.2415, 850.0200
532.7236, 856.3537
533.2057, 859.6404
533.6879, 856.2832
534.1700, 850.3544
534.6521, 843.1247
535.1342, 832.9123
535.6163, 826.7409
536.0984, 827.9261
536.5806, 831.0316
537.0627, 829.8970
537.5448, 821.5641
538.0269, 816.6005
538.5090, 818.7112
538.9911, 824.4043
539.4733, 819.9529
539.9554, 803.4803
540.4375, 790.3185
540.9196, 790.9171
541.4017, 802.3914
541.8839, 812.1808
542.3660, 820.1700
542.8481, 825.4015
543.3302, 824.6715
543.8123, 820.9284
544.2944, 820.2862
544.7766, 826.1400
545.2587, 832.8409
545.7408, 837.7256
546.2229, 840.0387
546.7050, 819.7833
547.1871, 840.4644
547.6693, 851.3123
548.1514, 852.8561
548.6335, 817.2286
549.1156, 829.6004
549.5977, 822.7361
550.0798, 815.0833
550.5620, 834.2104
551.0441, 803.9891
551.5262, 822.6922
552.0083, 821.8654
552.4904, 829.9769
552.9725, 818.7336
553.4547, 813.4679
553.9368, 827.5636
554.4189, 830.9392
554.9010, 817.4677
555.3831, 826.1473
555.8652, 795.2502
556.3474, 799.0817
556.8295, 817.8978
557.3116, 805.3998
557.7937, 814.4332
558.2758, 815.2662
558.7579, 778.8316
559.2401, 807.2088
559.7222, 807.5571
560.2043, 779.1258
560.6864, 805.2827
561.1685, 780.8187
561.6506, 774.4236
562.1328, 815.7371
562.6149, 833.3500
563.0970, 812.0175
563.5791, 788.9069
564.0612, 779.5917
564.5433, 788.0292
565.0255, 795.6890
565.5076, 803.8530
565.9897, 809.6172
566.4718, 808.3625
566.9539, 798.2499
567.4360, 793.6729
567.9182, 799.2567
568.4003, 808.6786
568.8824, 806.4659
569.3645, 793.6814
569.8466, 783.1124
570.3287, 783.9332
570.8109, 790.4652
571.2930, 792.9750
571.7751, 791.5329
572.2572, 790.5055
572.7393, 793.7934
573.2214, 798.6323
573.7036, 802.2058
574.1857, 803.6502
574.6678, 804.4322
575.1499, 806.6769
575.6320, 808.1544
576.1141, 805.5995
576.5963, 791.8381
577.0784, 781.5945
577.5605, 778.5109
578.0426, 781.5349
578.5247, 783.7557
579.0068, 784.5161
579.4890, 785.7837
579.9711, 790.1092
580.4532, 797.9871
580.9353, 797.4385
581.4174, 786.6682
581.8995, 774.8989
582.3817, 770.6342
582.8638, 773.6826
583.3459, 784.3206
583.8280, 805.1937
584.3101, 828.6062
584.7922, 847.2437
585.2744, 861.2834
585.7565, 871.6697
586.2386, 876.5778
586.7207, 879.8192
587.2028, 884.1063
587.6849, 889.4152
588.1671, 892.3458
588.6492, 886.8696
589.1313, 882.4278
589.6134, 885.2327
590.0955, 899.6229
590.5776, 911.3723
591.0598, 917.4896
591.5419, 923.6533
592.0240, 938.9779
592.5061, 966.1329
592.9882, 989.5678
593.4703, 1006.539
593.9525, 1016.693
594.4346, 1014.058
594.9167, 999.8195
595.3988, 990.6324
595.8809, 997.8825
596.3630, 1015.614
596.8452, 1036.747
597.3273, 1060.529
597.8094, 1081.432
598.2915, 1091.295
598.7736, 1098.624
599.2557, 1112.739
599.7379, 1141.435
600.2200, 1164.748
600.7021, 1174.387
601.1842, 1175.761
601.6663, 1177.320
602.1484, 1176.973
602.6306, 1180.449
603.1127, 1188.333
603.5948, 1200.704
604.0769, 1220.375
604.5590, 1251.118
605.0411, 1276.219
605.5233, 1285.702
606.0054, 1280.904
606.4875, 1269.812
606.9696, 1251.807
607.4517, 1234.599
607.9338, 1227.144
608.4160, 1225.764
608.8981, 1223.646
609.3802, 1219.888
609.8623, 1213.554
610.3444, 1201.972
610.8265, 1187.681
611.3087, 1174.691
611.7908, 1176.706
612.2729, 1167.805
612.7550, 1130.359
613.2371, 1069.753
613.7192, 1025.410
614.2014, 1005.487
614.6835, 993.9312
615.1656, 988.1572
615.6477, 990.3915
616.1298, 975.3492
616.6119, 937.9883
617.0941, 896.4557
617.5762, 864.9117
618.0583, 843.1092
618.5404, 833.8153
619.0225, 840.9407
619.5046, 849.8511
619.9868, 839.8422
620.4689, 817.1450
620.9510, 796.6519
621.4331, 783.1489
621.9152, 775.3694
622.3973, 777.3102
622.8795, 785.6573
623.3616, 786.7294
623.8437, 765.6058
624.3258, 745.1923
624.8079, 736.8577
625.2900, 742.6381
625.7722, 748.8542
626.2543, 756.2903
626.7364, 763.1875
627.2185, 768.3776
627.7006, 771.8876
628.1827, 772.2312
628.6649, 767.2997
629.1470, 764.0087
629.6291, 777.8185
630.1112, 804.3304
630.5933, 819.9502
631.0754, 810.2034
631.5576, 794.0971
632.0397, 798.9361
632.5218, 817.8252
633.0039, 829.1008
633.4860, 811.4971
633.9681, 791.5721
634.4503, 785.7975
634.9324, 795.4456
635.4145, 803.8689
635.8966, 805.8402
636.3787, 807.2233
636.8608, 810.9899
637.3430, 817.2042
637.8251, 826.0508
638.3072, 838.6244
638.7893, 852.0147
639.2714, 862.7280
639.7535, 870.6974
640.2357, 878.1996
640.7178, 887.0640
641.1999, 893.2330
641.6820, 888.7230
642.1641, 875.6184
642.6462, 861.5339
643.1284, 845.5524
643.6105, 833.4955
644.0926, 834.0421
644.5747, 844.7552
645.0568, 850.4000
645.5389, 845.2944
646.0211, 833.4292
646.5032, 814.7179
646.9853, 785.3668
647.4674, 764.1571
647.9495, 753.6522
648.4316, 748.4135
648.9138, 744.7693
649.3959, 743.1335
649.8780, 740.8477
650.3601, 737.7153
650.8422, 733.8470
651.3243, 729.6874
651.8065, 725.0223
652.2886, 718.4848
652.7707, 708.2998
653.2528, 697.7115
653.7349, 689.9161
654.2170, 684.6696
654.6992, 681.4875
655.1813, 682.7713
655.6634, 683.7259
656.1455, 681.0767
656.6276, 674.7043
657.1097, 670.0800
657.5919, 670.3057
658.0740, 670.0527
658.5561, 665.9713
659.0382, 655.9875
659.5203, 652.1803
660.0024, 656.5005
660.4846, 662.3298
660.9667, 662.5652
661.4488, 657.7056
661.9309, 651.5041
662.4130, 643.6365
662.8951, 637.4631
663.3773, 640.1096
663.8594, 647.5273
664.3415, 651.1111
664.8236, 642.8578
665.3057, 633.9997
665.7878, 631.8275
666.2700, 634.2786
666.7521, 634.3190
667.2342, 626.1757
667.7163, 619.6048
668.1984, 619.2656
668.6805, 625.1173
669.1627, 624.2733
669.6448, 613.8642
670.1269, 603.2882
670.6090, 598.7686
671.0911, 600.0413
671.5732, 602.7692
672.0554, 607.2200
672.5375, 609.7818
673.0196, 604.6897
673.5017, 595.5124
673.9838, 589.6438
674.4659, 590.6469
674.9481, 590.2946
675.4302, 579.3527
675.9123, 564.7894
676.3944, 556.6078
676.8765, 563.9278
677.3586, 570.3556
677.8408, 571.5153
678.3229, 569.4849
678.8050, 571.0339
679.2871, 579.8265
679.7692, 582.5772
680.2513, 571.3507
680.7335, 550.4370
681.2156, 543.6703
681.6977, 551.1886
682.1799, 560.9694
682.6620, 568.3878
683.1441, 571.3621
683.6262, 563.2858
684.1083, 543.6995
684.5905, 527.1244
685.0726, 522.7902
685.5547, 525.8912
686.0368, 533.6455
686.5189, 550.8430
687.0010, 560.7908
687.4832, 557.5109
687.9653, 547.8739
688.4474, 537.2018
688.9295, 522.1956
689.4116, 516.7968
689.8937, 525.8946
690.3759, 541.3018
690.8580, 546.5291
691.3401, 542.4728
691.8222, 539.9708
692.3043, 546.4288
692.7864, 553.1310
693.2686, 542.9896
693.7507, 521.2127
694.2328, 506.9576
694.7149, 516.4534
695.1970, 530.2104
695.6791, 537.6369
696.1613, 538.2059
696.6434, 537.4984
697.1255, 536.6025
697.6076, 534.2145
698.0897, 528.3899
698.5718, 517.6783
699.0540, 515.0740
699.5361, 522.5088
700.0182, 532.1922
700.5003, 536.4860
700.9824, 536.5899
701.4645, 538.8833
701.9467, 544.6760
702.4288, 549.7531
702.9109, 549.1031
703.3930, 545.2816
703.8751, 542.1176
704.3572, 541.4823
704.8394, 540.6144
705.3215, 535.3227
705.8036, 529.6392
706.2857, 531.8474
706.7678, 551.0747
707.2499, 563.8668
707.7321, 563.7990
708.2142, 555.2864
708.6963, 554.0328
709.1784, 560.8557
709.6605, 566.8336
710.1426, 568.1229
710.6248, 565.7174
711.1069, 560.8303
711.5890, 553.8422
712.0711, 547.4667
712.5532, 542.3548
713.0353, 539.4216
713.5175, 540.3105
713.9996, 545.3113
714.4817, 549.7684
714.9638, 549.1119
715.4459, 550.2519
715.9280, 558.2358
716.4102, 577.3391
716.8923, 589.2831
717.3744, 593.9481
717.8565, 591.8561
718.3386, 578.9850
718.8207, 557.2119
719.3029, 547.2306
719.7850, 553.9137
720.2671, 565.3009
720.7492, 566.3457
721.2313, 562.4782
721.7134, 563.9370
722.1956, 579.9871
722.6777, 593.2581
723.1598, 591.1613
723.6419, 581.4930
724.1240, 579.7095
724.6061, 599.4543
725.0883, 611.0759
725.5704, 604.7073
726.0525, 588.1971
726.5346, 591.3765
727.0167, 617.7175
727.4988, 636.2956
727.9810, 629.4080
728.4631, 607.8968
728.9452, 596.4554
729.4273, 594.2637
729.9094, 596.0451
730.3915, 601.1885
730.8737, 606.9921
731.3558, 611.6053
731.8379, 614.8625
732.3200, 616.9346
732.8021, 616.0076
733.2842, 615.5240
733.7664, 617.3578
734.2485, 622.0545
734.7306, 626.3837
735.2127, 630.2687
735.6948, 633.9674
736.1769, 639.2963
736.6591, 645.3330
737.1412, 643.5601
737.6233, 632.0262
738.1054, 621.2435
738.5875, 625.0378
739.0696, 634.9582
739.5518, 637.6996
740.0339, 623.6436
740.5160, 615.5829
740.9981, 629.3747
741.4802, 651.5828
741.9623, 662.8660
742.4445, 652.9685
742.9266, 650.7103
743.4087, 663.3766
743.8908, 681.0560
744.3729, 682.6008
744.8550, 667.8973
745.3372, 653.5586
745.8193, 644.0648
746.3014, 638.1426
746.7835, 635.2662
747.2656, 634.5253
747.7477, 633.1208
748.2299, 628.6475
748.7120, 624.1506
749.1941, 621.4249
749.6762, 620.1997
750.1583, 618.8750
750.6404, 616.2278
751.1226, 614.7728
751.6047, 615.1860
752.0868, 617.4565
752.5689, 622.8228
753.0510, 632.1002
753.5331, 637.9611
754.0153, 632.0761
754.4974, 620.2091
754.9795, 616.8518
755.4616, 621.8694
755.9437, 627.3174
756.4258, 628.9270
756.9080, 628.1161
757.3901, 625.1315
757.8722, 619.2642
758.3543, 615.8379
758.8364, 621.8293
759.3185, 625.0307
759.8007, 616.1819
760.2828, 590.1781
760.7649, 576.2807
761.2470, 576.6369
761.7291, 581.5631
762.2112, 580.3010
762.6934, 575.2347
763.1755, 574.7358
763.6576, 581.0015
764.1397, 587.1963
764.6218, 588.7678
765.1039, 586.8237
765.5861, 582.1465
766.0682, 568.1992
766.5503, 562.5619
767.0324, 576.6572
767.5145, 595.7871
767.9966, 602.1027
768.4788, 591.4868
768.9609, 584.5912
769.4430, 585.4360
769.9251, 589.2031
770.4072, 587.4058
770.8893, 581.2944
771.3715, 576.3423
771.8536, 575.2718
772.3357, 574.5141
772.8178, 570.9997
773.2999, 565.5556
773.7820, 559.8180
774.2642, 551.3016
774.7463, 546.1102
775.2284, 548.2069
775.7105, 554.2034
776.1926, 553.9992
776.6747, 544.5388
777.1569, 540.8408
777.6390, 550.6876
778.1211, 566.9088
778.6032, 568.2878
779.0853, 557.5557
779.5674, 550.3550
780.0496, 561.5179
780.5317, 574.7261
781.0138, 574.1695
781.4959, 562.6162
781.9780, 554.5497
782.4601, 558.2716
782.9423, 562.1606
783.4244, 560.3966
783.9065, 554.0536
784.3886, 558.1548
784.8707, 576.8126
785.3528, 589.8917
785.8350, 580.4141
786.3171, 557.1910
786.7992, 552.7094
787.2813, 565.6581
787.7634, 579.8461
788.2455, 587.8980
788.7277, 590.2320
789.2098, 584.8572
789.6919, 571.5156
790.1740, 561.2036
790.6561, 558.3996
791.1382, 557.6179
791.6204, 556.8776
792.1025, 556.3021
792.5846, 554.2715
793.0667, 550.7048
793.5488, 546.1069
794.0309, 538.6052
794.5131, 530.6528
794.9952, 530.5128
795.4773, 538.7607
795.9594, 546.5616
796.4415, 547.9813
796.9236, 545.9849
797.4058, 542.6678
797.8879, 537.8032
798.3700, 533.5648
798.8521, 530.9944
799.3342, 528.2043
799.8163, 522.3869
800.2985, 512.0267
800.7806, 512.5084
801.2627, 526.1785
801.7448, 540.7449
802.2269, 539.9890
802.7090, 531.8133
803.1912, 533.9156
803.6733, 551.0918
804.1554, 565.0736
804.6375, 563.5197
805.1196, 554.2548
805.6017, 543.8527
806.0839, 529.6325
806.5660, 521.6736
807.0481, 521.7574
807.5302, 525.9005
808.0123, 531.4596
808.4944, 538.4366
808.9766, 541.3191
809.4587, 538.9291
809.9408, 535.2944
810.4229, 532.9356
810.9050, 532.8666
811.3871, 538.2228
811.8693, 554.0551
812.3514, 563.4688
812.8335, 554.6196
813.3156, 538.1069
813.7977, 525.8045
814.2798, 519.8284
814.7620, 513.9072
815.2441, 507.6400
815.7262, 501.7413
816.2083, 495.1558
816.6904, 489.0066
817.1725, 492.7765
817.6547, 511.4691
818.1368, 528.2964
818.6189, 523.8857
819.1010, 509.0038
819.5831, 498.0180
820.0652, 496.4701
820.5474, 496.6329
821.0295, 498.1372
821.5116, 499.9610
821.9937, 500.5892
822.4758, 499.1260
822.9579, 501.2866
823.4401, 509.1566
823.9222, 517.0850
824.4043, 514.9230
824.8864, 506.2453
825.3685, 501.0855
825.8506, 503.7048
826.3328, 506.3557
826.8149, 501.7831
827.2970, 494.9647
827.7791, 492.3035
828.2612, 501.5341
828.7433, 505.4968
829.2255, 501.2337
829.7076, 494.0586
830.1897, 491.4560
830.6718, 493.4357
831.1539, 495.0990
831.6360, 495.6769
832.1182, 495.2848
832.6003, 493.1382
833.0824, 490.3605
833.5645, 488.9278
834.0466, 490.5484
834.5287, 491.6319
835.0109, 489.6365
835.4930, 487.0146
835.9751, 487.3405
836.4572, 492.6194
836.9393, 494.3788
837.4214, 489.8940
837.9036, 485.5539
838.3857, 494.0919
838.8678, 511.3959
839.3499, 520.9425
839.8320, 518.4694
840.3141, 508.4545
840.7963, 484.6893
841.2784, 459.3631
841.7605, 448.0493
842.2426, 467.1812
842.7247, 482.5170
843.2068, 492.1056
843.6890, 496.8834
844.1711, 496.9698
844.6532, 492.1257
845.1353, 487.3045
845.6174, 482.9504
846.0995, 479.6358
846.5817, 479.5248
847.0638, 480.5464
847.5460, 478.3405
848.0281, 469.2360
848.5102, 463.5925
848.9923, 470.6222
849.4744, 480.4217
849.9565, 481.5775
850.4387, 466.4910
850.9208, 463.5674
851.4029, 478.3495
851.8850, 495.2266
852.3671, 491.6255
852.8492, 474.0317
853.3314, 468.9851
853.8135, 482.9867
854.2956, 496.8541
854.7777, 492.1676
855.2598, 481.3636
855.7419, 477.7189
856.2241, 488.9166
856.7062, 495.2274
857.1883, 493.0484
857.6704, 488.6817
858.1525, 487.8976
858.6346, 490.8432
859.1168, 491.5017
859.5989, 489.3960
860.0810, 486.0204
860.5631, 481.3707
861.0452, 477.0307
861.5273, 476.6541
862.0095, 482.1372
862.4916, 482.7766
862.9737, 464.8506
863.4558, 448.4907
863.9379, 448.5426
864.4200, 469.7266
864.9022, 483.4294
865.3843, 488.7315
865.8664, 490.4209
866.3485, 491.9437
866.8306, 493.0786
867.3127, 493.5794
867.7949, 493.4164
868.2770, 491.6947
868.7591, 487.0562
869.2412, 481.2404
869.7233, 473.5659
870.2054, 462.4840
870.6876, 462.8726
871.1697, 480.9363
871.6518, 498.4814
872.1339, 505.2727
872.6160, 502.3790
873.0981, 495.1890
873.5803, 483.9208
874.0624, 475.1237
874.5445, 473.7571
875.0266, 476.3795
875.5087, 481.9300
875.9908, 489.8040
876.4730, 493.7197
876.9551, 486.1896
877.4372, 481.5180
877.9193, 486.4659
878.4014, 498.5061
878.8835, 500.2548
879.3657, 491.4968
879.8478, 482.2844
880.3299, 479.2327
880.8120, 478.0424
881.2941, 470.4824
881.7762, 459.1997
882.2584, 453.1497
882.7405, 459.9117
883.2226, 468.3199
883.7047, 476.9510
884.1868, 484.0493
884.6689, 482.7270
885.1511, 470.3926
885.6332, 463.4757
886.1153, 469.3187
886.5974, 479.9889
887.0795, 481.1815
887.5616, 475.3780
888.0438, 469.2801
888.5259, 461.5258
889.0080, 459.0025
889.4901, 469.9042
889.9722, 486.8737
890.4543, 495.1026
890.9365, 488.5007
891.4186, 489.7043
891.9007, 506.3355
892.3828, 523.4381
892.8649, 510.0093
893.3470, 476.1467
893.8292, 458.6512
894.3113, 471.4913
894.7934, 488.5785
895.2755, 495.1292
895.7576, 493.8592
896.2397, 487.1713
896.7219, 465.8080
897.2040, 456.8624
897.6861, 464.2721
898.1682, 477.7019
898.6503, 488.8245
899.1324, 497.1430
899.6146, 497.4086
900.0967, 488.5675
900.5788, 477.8569
901.0609, 466.2546
901.5430, 458.6602
902.0251, 462.6344
902.5073, 483.4299
902.9894, 492.4915
903.4715, 476.9170
903.9536, 462.8513
904.4357, 468.1098
904.9178, 491.2374
905.4000, 499.9121
905.8821, 493.9856
906.3642, 486.6115
906.8463, 486.3110
907.3284, 489.8779
907.8105, 494.3159
908.2927, 499.4058
908.7748, 505.3784
909.2569, 515.8000
909.7390, 523.0074
910.2211, 524.2617
910.7032, 520.3992
911.1854, 514.1976
911.6675, 505.5423
912.1496, 499.8795
912.6317, 502.2369
913.1138, 506.1944
913.5959, 500.8609
914.0781, 490.6296
914.5602, 486.0981
915.0423, 495.8918
915.5244, 506.4515
916.0065, 516.4318
916.4886, 524.1060
916.9708, 525.1495
917.4529, 518.8652
917.9350, 512.7698
918.4171, 507.3913
918.8992, 505.6040
919.3813, 515.6788
919.8635, 530.7355
920.3456, 538.7162
920.8277, 533.2244
921.3098, 527.2122
921.7919, 522.2427
922.2740, 520.0236
922.7562, 523.2502
923.2383, 533.9292
923.7204, 538.0695
924.2025, 534.1398
924.6846, 529.9185
925.1667, 535.1808
925.6489, 544.1774
926.1310, 546.7963
926.6131, 541.7280
927.0952, 537.5438
927.5773, 535.8972
928.0594, 538.1415
928.5416, 547.3193
929.0237, 563.3516
929.5058, 565.6175
929.9879, 551.9164
930.4700, 540.1771
930.9521, 544.0051
931.4343, 554.9344
931.9164, 556.8364
932.3985, 552.4834
932.8806, 552.6401
933.3627, 570.5707
933.8448, 584.5619
934.3270, 583.1722
934.8091, 572.7047
935.2912, 568.4561
935.7733, 571.5092
936.2554, 572.8867
936.7375, 568.7359
937.2197, 565.2816
937.7018, 574.4517
938.1839, 590.8566
938.6660, 603.3344
939.1481, 607.4769
939.6302, 609.5417
940.1124, 610.2812
940.5945, 610.6645
941.0766, 611.4653
941.5587, 612.5049
942.0408, 615.1959
942.5229, 619.7806
943.0051, 624.9557
943.4872, 628.1520
943.9693, 631.6672
944.4514, 640.1014
944.9335, 654.2006
945.4156, 667.3151
945.8978, 681.2382
946.3799, 688.3510
946.8620, 681.3828
947.3441, 661.2908
947.8262, 658.0669
948.3083, 672.9778
948.7905, 690.7997
949.2726, 704.7692
949.7547, 715.2219
950.2368, 721.6616
950.7189, 725.0363
951.2010, 728.4472
951.6832, 732.1321
952.1653, 737.2023
952.6474, 744.5809
953.1295, 753.1447
953.6116, 759.5031
954.0938, 763.4633
954.5759, 772.0457
955.0580, 788.3773
955.5401, 805.2505
956.0222, 812.5745
956.5043, 815.4148
956.9865, 821.9208
957.4686, 838.1588
957.9507, 848.2618
958.4328, 843.3682
958.9149, 838.4802
959.3970, 848.2660
959.8792, 873.2533
960.3613, 884.3765
960.8434, 880.5363
961.3255, 873.9921
961.8076, 873.3345
962.2897, 875.7172
962.7719, 877.4223
963.2540, 878.4834
963.7361, 884.8214
964.2182, 903.2782
964.7003, 918.9013
965.1824, 926.3004
965.6646, 927.3576
966.1467, 925.8644
966.6288, 922.7623
967.1109, 926.1233
967.5930, 946.3422
968.0751, 965.1653
968.5573, 963.8873
969.0394, 951.7490
969.5215, 944.9472
970.0036, 945.8522
970.4857, 953.7618
970.9678, 972.5087
971.4500, 991.5017
971.9321, 994.3141
972.4142, 985.2742
972.8963, 982.9088
973.3784, 990.2669
973.8605, 996.5237
974.3427, 984.5910
974.8248, 975.5057
975.3069, 991.2269
975.7890, 1037.021
976.2711, 1063.362
976.7532, 1065.641
977.2354, 1062.741
977.7175, 1064.233
978.1996, 1068.190
978.6817, 1069.148
979.1638, 1067.978
979.6459, 1068.152
980.1281, 1073.582
980.6102, 1078.299
981.0923, 1076.152
981.5744, 1072.626
982.0565, 1080.448
982.5386, 1103.049
983.0208, 1118.584
983.5029, 1122.824
983.9850, 1120.239
984.4671, 1112.078
984.9492, 1102.622
985.4313, 1099.489
985.9135, 1105.999
986.3956, 1111.979
986.8777, 1113.975
987.3598, 1114.874
987.8419, 1115.405
988.3240, 1115.552
988.8062, 1120.188
989.2883, 1129.326
989.7704, 1141.925
990.2525, 1161.633
990.7346, 1181.216
991.2167, 1190.460
991.6989, 1192.266
992.1810, 1199.649
992.6631, 1221.792
993.1452, 1239.740
993.6273, 1248.109
994.1094, 1252.237
994.5916, 1261.833
995.0737, 1276.519
995.5558, 1295.354
996.0379, 1318.781
996.5200, 1343.379
997.0021, 1365.893
997.4843, 1388.790
997.9664, 1414.547
998.4485, 1443.436
998.9306, 1474.275
999.4127, 1506.713
999.8948, 1541.306
1000.377, 1578.782
1000.859, 1618.449
1001.341, 1662.068
1001.823, 1708.219
1002.305, 1748.803
1002.788, 1773.387
1003.270, 1799.012
1003.752, 1835.593
1004.234, 1878.080
1004.716, 1914.177
1005.198, 1943.188
1005.680, 1970.121
1006.162, 1994.948
1006.644, 2020.231
1007.127, 2049.609
1007.609, 2080.857
1008.091, 2111.212
1008.573, 2143.795
1009.055, 2164.608
1009.537, 2163.997
1010.019, 2162.824
1010.501, 2181.491
1010.984, 2216.226
1011.466, 2224.955
1011.948, 2208.488
1012.430, 2186.547
1012.912, 2172.994
1013.394, 2157.900
1013.876, 2129.412
1014.358, 2092.368
1014.841, 2070.294
1015.323, 2070.489
1015.805, 2066.140
1016.287, 2050.766
1016.769, 2029.504
1017.251, 2010.062
1017.733, 1991.714
1018.215, 1972.432
1018.697, 1950.987
1019.180, 1931.339
1019.662, 1916.212
1020.144, 1902.558
1020.626, 1886.107
1021.108, 1865.996
1021.590, 1862.627
1022.072, 1876.608
1022.554, 1892.776
1023.036, 1906.259
1023.519, 1912.520
1024.001, 1899.938
1024.483, 1874.806
1024.965, 1861.027
1025.447, 1871.183
1025.929, 1881.337
1026.411, 1889.294
1026.893, 1893.594
1027.375, 1888.313
1027.858, 1876.706
1028.340, 1870.325
1028.822, 1870.575
1029.304, 1880.759
1029.786, 1916.970
1030.268, 1953.412
1030.750, 1968.682
1031.232, 1961.522
1031.715, 1947.595
1032.197, 1924.569
1032.679, 1911.343
1033.161, 1926.259
1033.643, 1952.883
1034.125, 1969.190
1034.607, 1976.610
1035.089, 1979.034
1035.572, 1979.580
1036.054, 1971.827
1036.536, 1951.421
1037.018, 1926.767
1037.500, 1909.571
1037.982, 1899.160
1038.464, 1894.171
1038.946, 1895.331
1039.428, 1889.748
1039.911, 1860.189
1040.393, 1825.572
1040.875, 1803.213
1041.357, 1794.304
1041.839, 1774.544
1042.321, 1741.141
1042.803, 1708.163
1043.285, 1681.825
1043.767, 1660.189
1044.250, 1645.077
1044.732, 1632.082
1045.214, 1611.006
1045.696, 1569.267
1046.178, 1532.308
1046.660, 1508.373
1047.142, 1486.673
1047.624, 1453.201
1048.107, 1409.476
1048.589, 1379.772
1049.071, 1365.565
1049.553, 1356.137
1050.035, 1348.778
1050.517, 1338.586
1050.999, 1321.333
1051.481, 1297.129
1051.964, 1270.590
1052.446, 1240.338
1052.928, 1212.139
1053.410, 1186.772
1053.892, 1165.773
1054.374, 1152.323
1054.856, 1145.600
1055.338, 1145.922
1055.820, 1158.801
1056.302, 1163.041
1056.785, 1145.124
1057.267, 1125.180
1057.749, 1119.448
1058.231, 1125.778
1058.713, 1102.720
1059.195, 1053.251
1059.677, 1016.095
1060.159, 1026.482
1060.642, 1046.434
1061.124, 1053.239
1061.606, 1049.035
1062.088, 1041.643
1062.570, 1031.231
1063.052, 1016.501
1063.534, 994.6703
1064.016, 977.3256
1064.499, 985.9415
1064.981, 1004.896
1065.463, 1008.692
1065.945, 993.3831
1066.427, 973.2228
1066.909, 943.0535
1067.391, 920.3127
1067.873, 914.9969
1068.355, 920.6360
1068.838, 912.2969
1069.320, 892.4040
1069.802, 873.2938
1070.284, 859.0798
1070.766, 848.1545
1071.248, 844.1730
1071.730, 840.1557
1072.212, 824.3574
1072.694, 785.2657
1073.177, 786.2823
1073.659, 833.9594
1074.141, 876.0458
1074.623, 861.3859
1075.105, 824.2908
1075.587, 805.7802
1076.069, 804.2314
1076.551, 802.3909
1077.034, 796.9520
1077.516, 789.7530
1077.998, 780.2988
1078.480, 770.2698
1078.962, 762.1271
1079.444, 755.6914
1079.926, 750.5263
1080.408, 746.5233
1080.891, 744.3805
1081.373, 748.3413
1081.855, 750.5844
1082.337, 746.1729
1082.819, 735.7076
1083.301, 725.3454
1083.783, 715.1014
1084.265, 706.5572
1084.747, 702.4466
1085.229, 697.5184
1085.712, 678.7118
1086.194, 658.6620
1086.676, 659.4418
1087.158, 699.4349
1087.640, 722.8984
1088.122, 727.4659
1088.604, 720.5881
1089.086, 703.2722
1089.569, 681.3597
1090.051, 663.5340
1090.533, 650.6655
1091.015, 645.0225
1091.497, 655.4443
1091.979, 663.5006
1092.461, 666.3403
1092.943, 663.2891
1093.426, 647.3165
1093.908, 622.8752
1094.390, 614.2139
1094.872, 627.6163
1095.354, 644.9471
1095.836, 658.3541
1096.318, 668.1835
1096.800, 676.2840
1097.282, 682.3194
1097.765, 674.6929
1098.247, 652.3993
1098.729, 633.9872
1099.211, 627.8649
1099.693, 629.2064
1100.175, 637.1904
1100.657, 647.8868
1101.139, 655.0632
1101.622, 658.0463
1102.104, 655.5778
1102.586, 645.3741
1103.068, 636.6132
1103.550, 639.9019
1104.032, 648.6904
1104.514, 648.5484
1104.996, 641.0934
1105.479, 635.9071
1105.961, 638.8448
1106.443, 641.8773
1106.925, 644.3901
1107.407, 644.8824
1107.889, 639.0231
1108.371, 628.5079
1108.853, 621.7892
1109.335, 619.9244
1109.818, 622.9807
1110.300, 641.7629
1110.782, 655.0416
1111.264, 645.0206
1111.746, 617.2446
1112.228, 603.4247
1112.710, 603.7536
1113.192, 607.3875
1113.674, 612.9607
1114.157, 614.9124
1114.639, 599.3321
1115.121, 581.2469
1115.603, 581.7617
1116.085, 612.8904
1116.567, 623.6304
1117.049, 609.2710
1117.531, 593.3057
1118.014, 589.7388
1118.496, 594.7687
1118.978, 608.5953
1119.460, 625.5472
1119.942, 631.1824
1120.424, 603.9902
1120.906, 590.5568
1121.388, 599.7413
1121.870, 614.9039
1122.353, 618.8239
1122.835, 613.7148
1123.317, 602.9997
1123.799, 587.8766
1124.281, 579.8007
1124.763, 592.8516
1125.245, 604.3995
1125.727, 604.4175
1126.209, 598.7307
1126.692, 601.2983
1127.174, 611.0867
1127.656, 618.3235
1128.138, 620.5456
1128.620, 622.2386
1129.102, 630.1053
1129.584, 635.7125
1130.066, 628.5237
1130.549, 610.3970
1131.031, 610.4332
1131.513, 630.2802
1131.995, 642.6448
1132.477, 632.6463
1132.959, 617.7207
1133.441, 615.4968
1133.923, 619.9204
1134.406, 622.8636
1134.888, 623.3734
1135.370, 622.2142
1135.852, 619.5493
1136.334, 614.5643
1136.816, 601.0829
1137.298, 588.2443
1137.780, 593.6406
1138.262, 612.2219
1138.745, 629.3179
1139.227, 649.3426
1139.709, 652.4031
1140.191, 631.1516
1140.673, 604.6485
1141.155, 592.5958
1141.637, 592.3245
1142.119, 602.6000
1142.601, 621.4880
1143.084, 630.4598
1143.566, 606.1611
1144.048, 591.6000
1144.530, 603.7024
1145.012, 626.9385
1145.494, 631.1509
1145.976, 619.3319
1146.458, 603.8082
1146.941, 585.9147
1147.423, 572.5272
1147.905, 569.0928
1148.387, 570.0546
1148.869, 572.5242
1149.351, 576.2389
1149.833, 581.6004
1150.315, 588.0884
1150.797, 586.6718
1151.280, 569.0863
1151.762, 556.0389
1152.244, 570.1169
1152.726, 591.7084
1153.208, 601.3204
1153.690, 597.5236
1154.172, 592.7505
1154.654, 586.9390
1155.136, 581.0048
1155.619, 572.1815
1156.101, 566.9161
1156.583, 573.7659
1157.065, 587.9408
1157.547, 601.4482
1158.029, 615.7226
1158.511, 621.0091
1158.993, 615.0015
1159.476, 611.0809
1159.958, 626.4832
1160.440, 646.1257
1160.922, 649.7887
1161.404, 640.3609
1161.886, 631.5625
1162.368, 625.8027
1162.850, 619.3462
1163.333, 609.9548
1163.815, 604.8326
1164.297, 617.9738
1164.779, 638.5930
1165.261, 647.9821
1165.743, 645.1021
1166.225, 640.5096
1166.707, 635.9323
1167.189, 631.4147
1167.672, 627.1660
1168.154, 622.6500
1168.636, 615.1084
1169.118, 607.0232
1169.600, 604.7017
1170.082, 610.0946
1170.564, 614.9826
1171.046, 622.6377
1171.528, 620.5467
1172.011, 597.6791
1172.493, 566.1115
1172.975, 565.6257
1173.457, 586.9677
1173.939, 599.6475
1174.421, 592.3511
1174.903, 580.0630
1175.385, 561.0774
1175.868, 546.5427
1176.350, 544.7234
1176.832, 553.4902
1177.314, 562.8747
1177.796, 571.5955
1178.278, 572.0573
1178.760, 551.9452
1179.242, 535.2322
1179.724, 533.2580
1180.207, 539.1415
1180.689, 550.3643
1181.171, 566.7409
1181.653, 565.8694
1182.135, 548.8040
1182.617, 532.1671
1183.099, 523.4056
1183.581, 520.8687
1184.063, 531.4958
1184.546, 543.5604
1185.028, 538.0417
1185.510, 514.1731
1185.992, 495.8774
1186.474, 484.8007
1186.956, 480.3837
1187.438, 484.0381
1187.920, 492.2366
1188.403, 505.3939
1188.885, 520.7686
1189.367, 533.8365
1189.849, 545.2118
1190.331, 540.0031
1190.813, 513.8323
1191.295, 492.2245
1191.777, 505.5597
1192.260, 525.2842
1192.742, 527.3672
1193.224, 514.2824
1193.706, 506.3865
1194.188, 503.9919
1194.670, 504.4466
1195.152, 508.3747
1195.634, 509.4969
1196.116, 496.0790
1196.599, 480.8239
1197.081, 476.7396
1197.563, 484.3958
1198.045, 493.7034
1198.527, 505.2703
1199.009, 513.1708
1199.491, 514.8709
1199.973, 512.9628
1200.455, 511.5907
1200.938, 507.3523
1201.420, 492.2194
1201.902, 462.7399
1202.384, 456.0745
1202.866, 475.4926
1203.348, 492.5108
1203.830, 491.3671
1204.312, 483.8972
1204.795, 479.7480
1205.277, 479.4459
1205.759, 485.2754
1206.241, 501.8544
1206.723, 504.9784
1207.205, 492.5323
1207.687, 481.0142
1208.169, 481.3047
1208.651, 487.3889
1209.134, 497.4270
1209.616, 507.0183
1210.098, 505.7303
1210.580, 486.0581
1211.062, 477.6181
1211.544, 482.6365
1212.026, 488.5452
1212.508, 483.5587
1212.990, 475.8344
1213.473, 474.9119
1213.955, 478.5472
1214.437, 479.5788
1214.919, 474.7010
1215.401, 477.9196
1215.883, 492.2368
1216.365, 503.5510
1216.847, 493.9726
1217.330, 479.0223
1217.812, 474.4794
1218.294, 479.8110
1218.776, 490.7843
1219.258, 511.8975
1219.740, 518.9417
1220.222, 506.8337
1220.704, 490.8467
1221.187, 484.8948
1221.669, 484.4192
1222.151, 487.5975
1222.633, 492.5571
1223.115, 488.4738
1223.597, 471.9512
1224.079, 459.8591
1224.561, 455.3750
1225.043, 455.6328
1225.526, 456.7508
1226.008, 461.4859
1226.490, 477.1967
1226.972, 502.7202
1227.454, 511.7651
1227.936, 501.3434
1228.418, 489.7472
1228.900, 481.1735
1229.382, 474.1746
1229.865, 464.9985
1230.347, 457.9724
1230.829, 457.8839
1231.311, 465.3140
1231.793, 479.3428
1232.275, 502.1974
1232.757, 514.5204
1233.239, 508.6716
1233.722, 495.0619
1234.204, 477.2512
1234.686, 462.6048
1235.168, 462.4426
1235.650, 477.3214
1236.132, 476.9535
1236.614, 459.7260
1237.096, 449.0260
1237.578, 456.0736
1238.061, 467.5575
1238.543, 470.4217
1239.025, 471.3706
1239.507, 480.4463
1239.989, 498.4772
1240.471, 499.2148
1240.953, 482.2748
1241.435, 466.5938
1241.917, 459.8831
1242.400, 459.2967
1242.882, 467.9500
1243.364, 478.0411
1243.846, 481.5014
1244.328, 478.2028
1244.810, 468.0207
1245.292, 451.3267
1245.774, 443.5216
1246.257, 458.4828
1246.739, 474.7913
1247.221, 480.8116
1247.703, 478.8311
1248.185, 469.8171
1248.667, 453.2305
1249.149, 450.1750
1249.631, 459.3863
1250.114, 468.6952
1250.596, 473.5056
1251.078, 474.0517
1251.560, 465.7820
1252.042, 456.8101
1252.524, 457.0770
1253.006, 465.6997
1253.488, 461.9473
1253.970, 447.5157
1254.453, 435.6551
1254.935, 432.1523
1255.417, 434.3923
1255.899, 444.4629
1256.381, 456.9090
1256.863, 469.4597
1257.345, 480.5715
1257.827, 477.4885
1258.310, 462.4200
1258.792, 449.5199
1259.274, 447.2829
1259.756, 445.9203
1260.238, 441.4749
1260.720, 439.0616
1261.202, 446.4228
1261.684, 459.8156
1262.167, 467.2467
1262.649, 468.9216
1263.131, 468.2700
1263.613, 464.7379
1264.095, 461.6177
1264.577, 459.0178
1265.059, 457.6687
1265.541, 460.9491
1266.023, 464.9909
1266.505, 460.1056
1266.988, 447.8117
1267.470, 437.0654
1267.952, 427.2101
1268.434, 425.0786
1268.916, 432.0740
1269.398, 444.6627
1269.880, 465.6875
1270.362, 485.9595
1270.845, 491.0246
1271.327, 482.5158
1271.809, 469.9475
1272.291, 449.6393
1272.773, 441.7895
1273.255, 450.8228
1273.737, 462.2289
1274.219, 461.4276
1274.702, 455.5005
1275.184, 450.4161
1275.666, 446.7079
1276.148, 444.3368
1276.630, 443.3640
1277.112, 443.2883
1277.594, 444.0588
1278.076, 445.6778
1278.558, 451.7210
1279.041, 455.3329
1279.523, 446.3446
1280.005, 431.5569
1280.487, 429.9965
1280.969, 441.9654
1281.451, 450.0480
1281.933, 451.9409
1282.415, 452.0203
1282.897, 451.5547
1283.380, 452.1524
1283.862, 454.9205
1284.344, 459.1867
1284.826, 465.0275
1285.308, 471.6847
1285.790, 473.1850
1286.272, 468.9630
1286.754, 464.0720
1287.237, 462.4834
1287.719, 458.7885
1288.201, 449.8381
1288.683, 439.8306
1289.165, 437.9312
1289.647, 440.6103
1290.129, 435.1178
1290.611, 421.0076
1291.094, 416.8810
1291.576, 442.6155
1292.058, 457.4996
1292.540, 449.9204
1293.022, 437.0546
1293.504, 445.9384
1293.986, 463.9657
1294.468, 470.6656
1294.950, 464.9557
1295.432, 458.7308
1295.915, 454.0952
1296.397, 446.4717
1296.879, 433.7661
1297.361, 422.9731
1297.843, 424.5474
1298.325, 430.3030
1298.807, 429.8788
1299.289, 424.6394
1299.772, 429.1276
1300.254, 445.1312
1300.736, 455.2017
1301.218, 455.9931
1301.700, 454.4119
1302.182, 458.0841
1302.664, 460.1664
1303.146, 452.8627
1303.629, 440.8802
1304.111, 432.8855
1304.593, 429.1707
1305.075, 436.8033
1305.557, 457.1542
1306.039, 470.8268
1306.521, 457.7350
1307.003, 444.8321
1307.485, 442.5161
1307.968, 446.8243
1308.450, 452.8154
1308.932, 459.0742
1309.414, 461.8041
1309.896, 460.4927
1310.378, 454.7642
1310.860, 436.1792
1311.342, 426.6519
1311.824, 432.3491
1312.307, 444.4125
1312.789, 456.8770
1313.271, 464.1998
1313.753, 451.7463
1314.235, 421.7870
1314.717, 405.4143
1315.199, 407.1992
1315.681, 414.6646
1316.164, 426.3606
1316.646, 439.9648
1317.128, 459.4945
1317.610, 474.4246
##END=



