##NAMES=Gormanite
##RRUFFID=R050093
##IDEAL CHEMISTRY=Fe^2+^_3_Al_4_(PO_4_)_4_(OH)_6_&#183;2H_2_O
##LOCALITY=Rapid Creek, Yukon Territory, Canada
##OWNER=RRUFF
##SOURCE=Rock Currier
##DESCRIPTION=Radial aggregates of blue bladed crystals
##STATUS=The identification of this mineral has been confirmed by X-ray diffraction and chemical analysis
##URL=rruff.info/R050093
##MEASURED CHEMISTRY=(Fe^2+^_1.85_Mg_1.09_Mn_0.06_)_Σ=3_(Al_3.76_Fe^3+^_0.24_)_Σ=4_(P_1.00_O_4_)_4_((OH_5.65_F_0.35_)_Σ=6_·2H_2_O ; (light phase) : (Fe^2+^_1.53_Mg_1.42_Mn_0.05_)_Σ=3_(Al_3.89_Fe^3+^_0.11_)_Σ=4_(P_1.00_O_4_)_4_((OH_5.60_F_0.40_)_Σ=6_·2H_2_O (dark phase
176.9547, 6655.426
177.4368, 6670.572
177.9189, 6742.534
178.4010, 6834.998
178.8832, 6895.796
179.3653, 6892.334
179.8474, 6848.105
180.3295, 6834.010
180.8116, 6867.054
181.2937, 6901.598
181.7759, 6919.191
182.2580, 6930.611
182.7401, 6950.833
183.2222, 6989.788
183.7043, 7037.885
184.1864, 7066.200
184.6686, 7061.920
185.1507, 7059.158
185.6328, 7065.563
186.1149, 7078.690
186.5970, 7097.849
187.0791, 7124.301
187.5613, 7152.107
188.0434, 7163.948
188.5255, 7145.557
189.0076, 7135.663
189.4897, 7146.924
189.9718, 7167.662
190.4540, 7186.148
190.9361, 7197.064
191.4182, 7203.382
191.9003, 7212.150
192.3824, 7224.271
192.8645, 7237.566
193.3467, 7253.634
193.8288, 7269.617
194.3109, 7283.077
194.7930, 7293.062
195.2751, 7299.786
195.7572, 7302.921
196.2394, 7298.525
196.7215, 7298.155
197.2036, 7303.333
197.6857, 7312.341
198.1678, 7325.271
198.6499, 7341.955
199.1321, 7358.836
199.6142, 7369.582
200.0963, 7373.904
200.5784, 7371.690
201.0605, 7358.849
201.5426, 7343.337
202.0248, 7330.417
202.5069, 7321.749
202.9890, 7317.057
203.4711, 7316.271
203.9532, 7321.013
204.4353, 7326.223
204.9175, 7334.341
205.3996, 7340.987
205.8817, 7340.785
206.3638, 7333.750
206.8459, 7326.948
207.3280, 7333.126
207.8102, 7364.999
208.2923, 7376.340
208.7744, 7355.035
209.2565, 7325.166
209.7386, 7295.513
210.2207, 7269.846
210.7029, 7252.055
211.1850, 7249.738
211.6671, 7270.856
212.1492, 7277.873
212.6313, 7260.375
213.1134, 7238.781
213.5956, 7220.055
214.0777, 7206.030
214.5598, 7196.867
215.0419, 7192.644
215.5240, 7193.244
216.0061, 7200.073
216.4883, 7222.107
216.9704, 7242.008
217.4525, 7254.932
217.9346, 7260.180
218.4167, 7257.639
218.8988, 7245.093
219.3810, 7221.957
219.8631, 7210.198
220.3452, 7227.046
220.8273, 7238.947
221.3094, 7230.101
221.7915, 7209.284
222.2737, 7195.748
222.7558, 7204.622
223.2379, 7233.008
223.7200, 7248.964
224.2021, 7244.101
224.6842, 7234.594
225.1664, 7217.491
225.6485, 7199.089
226.1306, 7189.921
226.6127, 7197.535
227.0948, 7215.603
227.5770, 7216.486
228.0591, 7179.396
228.5412, 7152.833
229.0233, 7147.880
229.5054, 7156.066
229.9875, 7170.122
230.4697, 7187.192
230.9518, 7203.029
231.4339, 7206.411
231.9160, 7189.440
232.3981, 7172.784
232.8802, 7158.688
233.3624, 7146.297
233.8445, 7134.407
234.3266, 7122.728
234.8087, 7112.276
235.2908, 7105.336
235.7729, 7104.014
236.2551, 7101.180
236.7372, 7092.279
237.2193, 7084.504
237.7014, 7084.698
238.1835, 7093.261
238.6656, 7102.697
239.1478, 7103.084
239.6299, 7091.671
240.1120, 7081.270
240.5941, 7076.541
241.0762, 7069.469
241.5583, 7052.538
242.0405, 7027.705
242.5226, 7005.500
243.0047, 6997.627
243.4868, 7005.591
243.9689, 7009.785
244.4510, 7008.682
244.9332, 7004.833
245.4153, 7001.790
245.8974, 6997.068
246.3795, 6983.594
246.8616, 6950.822
247.3437, 6902.757
247.8259, 6878.980
248.3080, 6901.957
248.7901, 6919.869
249.2722, 6906.736
249.7543, 6878.307
250.2364, 6861.376
250.7186, 6872.933
251.2007, 6902.274
251.6828, 6918.852
252.1649, 6919.667
252.6470, 6913.042
253.1291, 6891.677
253.6113, 6869.180
254.0934, 6862.610
254.5755, 6880.317
255.0576, 6907.576
255.5397, 6921.140
256.0219, 6918.316
256.5040, 6911.725
256.9861, 6895.823
257.4682, 6882.776
257.9503, 6884.053
258.4324, 6902.459
258.9146, 6925.148
259.3967, 6941.698
259.8788, 6952.300
260.3609, 6951.170
260.8430, 6923.242
261.3251, 6895.474
261.8073, 6888.937
262.2894, 6903.393
262.7715, 6921.129
263.2536, 6931.113
263.7357, 6934.044
264.2178, 6932.928
264.7000, 6924.201
265.1821, 6917.552
265.6642, 6923.520
266.1463, 6938.005
266.6284, 6947.104
267.1105, 6938.166
267.5927, 6920.510
268.0748, 6914.603
268.5569, 6923.256
269.0390, 6936.007
269.5211, 6951.778
270.0032, 6966.276
270.4854, 6970.204
270.9675, 6951.965
271.4496, 6929.713
271.9317, 6925.875
272.4138, 6940.989
272.8959, 6956.115
273.3781, 6960.184
273.8602, 6959.269
274.3423, 6965.433
274.8244, 6982.603
275.3065, 7000.760
275.7886, 7016.754
276.2708, 7029.149
276.7529, 7030.333
277.2350, 7013.401
277.7171, 6989.623
278.1992, 6976.534
278.6813, 6973.509
279.1635, 6979.335
279.6456, 7002.763
280.1277, 7032.781
280.6098, 7049.463
281.0919, 7047.683
281.5740, 7037.238
282.0562, 7027.699
282.5383, 7018.906
283.0204, 7013.706
283.5025, 7011.784
283.9846, 7014.026
284.4667, 7024.325
284.9489, 7041.946
285.4310, 7056.987
285.9131, 7060.423
286.3952, 7052.375
286.8773, 7048.974
287.3594, 7059.230
287.8416, 7065.021
288.3237, 7052.749
288.8058, 7028.359
289.2879, 7007.404
289.7700, 6998.017
290.2521, 6999.298
290.7343, 7008.271
291.2164, 7041.081
291.6985, 7061.256
292.1806, 7053.944
292.6627, 7034.340
293.1448, 7023.365
293.6270, 7028.136
294.1091, 7036.751
294.5912, 7026.667
295.0733, 6974.992
295.5554, 6948.864
296.0375, 6965.317
296.5197, 6993.056
297.0018, 7010.784
297.4839, 7016.047
297.9660, 7018.583
298.4481, 7029.267
298.9302, 7050.395
299.4124, 7063.623
299.8945, 7061.276
300.3766, 7058.946
300.8587, 7065.379
301.3408, 7075.996
301.8229, 7079.431
302.3050, 7066.659
302.7871, 7042.355
303.2693, 7031.359
303.7514, 7046.543
304.2335, 7056.327
304.7156, 7053.204
305.1977, 7042.438
305.6798, 7026.850
306.1620, 7007.083
306.6441, 6990.696
307.1262, 6992.980
307.6083, 7020.373
308.0904, 7042.395
308.5725, 7050.946
309.0547, 7054.222
309.5368, 7057.124
310.0189, 7059.886
310.5010, 7058.428
310.9831, 7045.128
311.4652, 7021.729
311.9474, 7008.591
312.4295, 7012.100
312.9116, 7019.271
313.3937, 7025.951
313.8758, 7030.029
314.3579, 7025.218
314.8401, 6999.157
315.3222, 6966.650
315.8043, 6959.673
316.2864, 6984.165
316.7685, 6999.055
317.2506, 6973.252
317.7328, 6926.400
318.2149, 6890.978
318.6970, 6873.484
319.1791, 6863.398
319.6612, 6855.029
320.1433, 6848.182
320.6255, 6842.511
321.1076, 6839.368
321.5897, 6835.096
322.0718, 6821.643
322.5539, 6797.121
323.0360, 6777.272
323.5182, 6766.695
324.0003, 6763.123
324.4824, 6764.951
324.9645, 6771.879
325.4466, 6780.880
325.9287, 6791.136
326.4109, 6803.015
326.8930, 6801.632
327.3751, 6776.669
327.8572, 6748.480
328.3393, 6724.120
328.8214, 6705.572
329.3036, 6698.353
329.7857, 6707.616
330.2678, 6727.248
330.7499, 6729.180
331.2320, 6688.351
331.7141, 6660.847
332.1963, 6664.362
332.6784, 6678.518
333.1605, 6681.644
333.6426, 6667.125
334.1247, 6642.528
334.6068, 6617.635
335.0890, 6589.225
335.5711, 6570.070
336.0532, 6567.820
336.5353, 6566.934
337.0174, 6558.183
337.4995, 6543.287
337.9817, 6530.543
338.4638, 6528.005
338.9459, 6533.768
339.4280, 6529.428
339.9101, 6502.620
340.3922, 6484.339
340.8744, 6493.019
341.3565, 6511.009
341.8386, 6515.342
342.3207, 6496.433
342.8028, 6465.908
343.2849, 6438.990
343.7671, 6415.400
344.2492, 6396.933
344.7313, 6379.773
345.2134, 6372.205
345.6955, 6389.353
346.1776, 6430.492
346.6598, 6458.240
347.1419, 6438.812
347.6240, 6388.203
348.1061, 6348.113
348.5882, 6320.994
349.0703, 6309.492
349.5525, 6327.109
350.0346, 6363.603
350.5167, 6388.320
350.9988, 6392.933
351.4809, 6386.274
351.9630, 6371.001
352.4452, 6349.085
352.9273, 6331.208
353.4094, 6323.958
353.8915, 6322.042
354.3736, 6309.539
354.8557, 6275.757
355.3379, 6255.576
355.8200, 6271.637
356.3021, 6298.684
356.7842, 6300.201
357.2663, 6270.306
357.7484, 6241.805
358.2306, 6254.408
358.7127, 6319.948
359.1948, 6360.703
359.6769, 6373.818
360.1590, 6369.235
360.6411, 6341.946
361.1233, 6300.785
361.6054, 6261.712
362.0875, 6233.827
362.5696, 6215.337
363.0517, 6199.537
363.5338, 6186.256
364.0160, 6176.362
364.4981, 6174.056
364.9802, 6172.222
365.4623, 6165.786
365.9444, 6153.381
366.4265, 6135.305
366.9087, 6107.668
367.3908, 6068.860
367.8729, 6045.074
368.3550, 6049.980
368.8371, 6055.137
369.3192, 6045.656
369.8014, 6025.255
370.2835, 6003.126
370.7656, 5981.657
371.2477, 5962.453
371.7298, 5947.735
372.2119, 5937.321
372.6941, 5933.926
373.1762, 5945.030
373.6583, 5960.054
374.1404, 5964.447
374.6225, 5957.855
375.1046, 5940.359
375.5868, 5900.271
376.0689, 5851.326
376.5510, 5821.572
377.0331, 5817.332
377.5152, 5828.206
377.9973, 5848.719
378.4795, 5880.340
378.9616, 5894.712
379.4437, 5881.742
379.9258, 5860.146
380.4079, 5836.625
380.8900, 5813.346
381.3722, 5794.280
381.8543, 5781.735
382.3364, 5774.229
382.8185, 5767.162
383.3006, 5762.862
383.7827, 5755.844
384.2649, 5740.800
384.7470, 5726.415
385.2291, 5723.339
385.7112, 5731.077
386.1933, 5736.448
386.6754, 5723.420
387.1576, 5690.573
387.6397, 5667.807
388.1218, 5662.547
388.6039, 5659.285
389.0860, 5653.807
389.5681, 5646.736
390.0503, 5637.886
390.5324, 5625.212
391.0145, 5616.334
391.4966, 5630.917
391.9787, 5673.606
392.4608, 5693.548
392.9430, 5661.847
393.4251, 5615.441
393.9072, 5588.614
394.3893, 5581.746
394.8714, 5581.534
395.3535, 5584.254
395.8357, 5588.517
396.3178, 5592.570
396.7999, 5596.343
397.2820, 5598.632
397.7641, 5599.820
398.2462, 5598.546
398.7284, 5589.909
399.2105, 5565.527
399.6926, 5543.429
400.1747, 5529.369
400.6568, 5522.476
401.1389, 5525.152
401.6211, 5538.289
402.1032, 5549.007
402.5853, 5535.544
403.0674, 5480.864
403.5495, 5455.333
404.0316, 5482.179
404.5138, 5512.127
404.9959, 5519.025
405.4780, 5507.559
405.9601, 5495.642
406.4422, 5495.290
406.9243, 5501.367
407.4065, 5494.597
407.8886, 5467.089
408.3707, 5442.873
408.8528, 5424.930
409.3349, 5412.721
409.8170, 5404.952
410.2992, 5401.748
410.7813, 5406.613
411.2634, 5432.469
411.7455, 5472.057
412.2276, 5483.753
412.7097, 5455.783
413.1919, 5421.687
413.6740, 5399.624
414.1561, 5388.287
414.6382, 5388.920
415.1203, 5415.282
415.6024, 5437.092
416.0846, 5422.525
416.5667, 5384.139
417.0488, 5364.392
417.5309, 5381.065
418.0130, 5409.198
418.4951, 5410.577
418.9773, 5374.993
419.4594, 5346.155
419.9415, 5323.728
420.4236, 5310.087
420.9057, 5313.130
421.3878, 5327.275
421.8700, 5334.824
422.3521, 5323.001
422.8342, 5298.683
423.3163, 5292.604
423.7984, 5324.807
424.2805, 5343.973
424.7627, 5341.268
425.2448, 5327.159
425.7269, 5308.663
426.2090, 5287.475
426.6911, 5263.506
427.1732, 5228.625
427.6554, 5185.662
428.1375, 5175.483
428.6196, 5214.304
429.1017, 5254.962
429.5838, 5277.305
430.0659, 5285.051
430.5481, 5280.042
431.0302, 5256.497
431.5123, 5233.772
431.9944, 5232.060
432.4765, 5245.203
432.9586, 5250.060
433.4408, 5239.204
433.9229, 5223.740
434.4050, 5216.294
434.8871, 5217.662
435.3692, 5220.583
435.8513, 5229.923
436.3335, 5236.027
436.8156, 5228.737
437.2977, 5213.264
437.7798, 5203.751
438.2619, 5207.803
438.7440, 5219.795
439.2262, 5225.042
439.7083, 5216.127
440.1904, 5213.772
440.6725, 5226.588
441.1546, 5238.553
441.6367, 5236.345
442.1189, 5222.598
442.6010, 5211.252
443.0831, 5214.296
443.5652, 5227.359
444.0473, 5233.893
444.5294, 5233.385
445.0116, 5227.654
445.4937, 5205.158
445.9758, 5184.194
446.4579, 5188.139
446.9400, 5223.518
447.4221, 5254.342
447.9043, 5253.070
448.3864, 5232.707
448.8685, 5220.538
449.3506, 5220.519
449.8327, 5222.193
450.3148, 5215.037
450.7970, 5201.484
451.2791, 5203.435
451.7612, 5232.976
452.2433, 5262.638
452.7254, 5285.791
453.2076, 5302.776
453.6897, 5313.629
454.1718, 5318.548
454.6539, 5318.573
455.1360, 5312.848
455.6181, 5297.515
456.1003, 5298.338
456.5824, 5341.161
457.0645, 5373.896
457.5466, 5373.504
458.0287, 5354.232
458.5108, 5338.238
458.9930, 5334.021
459.4751, 5340.347
459.9572, 5359.362
460.4393, 5391.261
460.9214, 5417.588
461.4035, 5433.742
461.8857, 5444.674
462.3678, 5452.729
462.8499, 5458.838
463.3320, 5468.483
463.8141, 5490.839
464.2962, 5511.381
464.7784, 5511.993
465.2605, 5498.097
465.7426, 5492.701
466.2247, 5506.868
466.7068, 5530.912
467.1889, 5546.050
467.6711, 5548.730
468.1532, 5549.085
468.6353, 5544.952
469.1174, 5540.416
469.5995, 5536.115
470.0816, 5533.562
470.5638, 5536.875
471.0459, 5549.838
471.5280, 5567.228
472.0101, 5573.260
472.4922, 5564.131
472.9743, 5553.873
473.4565, 5538.434
473.9386, 5528.043
474.4207, 5535.388
474.9028, 5558.179
475.3849, 5573.713
475.8670, 5560.782
476.3492, 5535.584
476.8313, 5526.724
477.3134, 5534.997
477.7955, 5546.600
478.2776, 5557.896
478.7597, 5565.521
479.2419, 5559.369
479.7240, 5532.980
480.2061, 5511.443
480.6882, 5497.592
481.1703, 5491.909
481.6524, 5502.366
482.1346, 5524.192
482.6167, 5534.888
483.0988, 5515.030
483.5809, 5472.880
484.0630, 5455.453
484.5451, 5484.255
485.0273, 5502.729
485.5094, 5494.835
485.9915, 5480.351
486.4736, 5473.990
486.9557, 5477.638
487.4378, 5485.650
487.9200, 5497.947
488.4021, 5511.033
488.8842, 5512.594
489.3663, 5500.721
489.8484, 5488.135
490.3305, 5483.069
490.8127, 5480.178
491.2948, 5467.927
491.7769, 5442.287
492.2590, 5419.053
492.7411, 5402.587
493.2232, 5392.002
493.7054, 5388.960
494.1875, 5392.185
494.6696, 5393.906
495.1517, 5387.486
495.6338, 5374.973
496.1159, 5369.867
496.5981, 5383.595
497.0802, 5388.551
497.5623, 5379.694
498.0444, 5363.099
498.5265, 5339.392
499.0086, 5311.289
499.4908, 5289.032
499.9729, 5285.788
500.4550, 5294.950
500.9371, 5289.208
501.4192, 5264.138
501.9013, 5243.195
502.3835, 5241.628
502.8656, 5247.015
503.3477, 5239.220
503.8298, 5215.043
504.3119, 5189.914
504.7940, 5164.923
505.2762, 5144.729
505.7583, 5137.454
506.2404, 5142.115
506.7225, 5150.343
507.2046, 5158.291
507.6867, 5162.910
508.1689, 5150.096
508.6510, 5092.664
509.1331, 5057.939
509.6152, 5069.521
510.0973, 5088.488
510.5794, 5084.549
511.0616, 5058.792
511.5437, 5033.667
512.0258, 5028.982
512.5079, 5034.169
512.9901, 5014.066
513.4722, 4961.946
513.9543, 4927.732
514.4364, 4942.308
514.9185, 4971.714
515.4006, 4969.552
515.8828, 4933.364
516.3649, 4899.535
516.8470, 4874.144
517.3291, 4859.442
517.8112, 4867.371
518.2933, 4890.112
518.7755, 4897.052
519.2576, 4870.763
519.7397, 4824.272
520.2218, 4787.897
520.7039, 4761.548
521.1860, 4746.095
521.6682, 4755.809
522.1503, 4761.808
522.6324, 4742.716
523.1145, 4706.985
523.5966, 4678.483
524.0787, 4670.531
524.5609, 4673.902
525.0430, 4676.600
525.5251, 4678.583
526.0072, 4671.912
526.4893, 4650.232
526.9714, 4626.583
527.4536, 4616.502
527.9357, 4618.213
528.4178, 4617.813
528.8999, 4608.754
529.3820, 4601.653
529.8641, 4609.880
530.3463, 4623.265
530.8284, 4619.384
531.3105, 4590.988
531.7926, 4554.430
532.2747, 4532.080
532.7568, 4525.818
533.2390, 4521.647
533.7211, 4520.641
534.2032, 4520.604
534.6853, 4526.332
535.1674, 4530.533
535.6495, 4521.101
536.1317, 4493.244
536.6138, 4463.915
537.0959, 4450.399
537.5780, 4448.177
538.0601, 4442.350
538.5422, 4430.756
539.0244, 4419.300
539.5065, 4412.460
539.9886, 4409.262
540.4707, 4404.848
540.9528, 4395.581
541.4349, 4390.114
541.9171, 4392.829
542.3992, 4398.408
542.8813, 4401.101
543.3634, 4400.958
543.8455, 4403.856
544.3276, 4417.086
544.8098, 4434.602
545.2919, 4425.953
545.7740, 4377.584
546.2561, 4340.267
546.7382, 4332.756
547.2203, 4337.159
547.7024, 4344.858
548.1845, 4354.047
548.6666, 4354.285
549.1487, 4328.550
549.6309, 4300.353
550.1130, 4303.114
550.5951, 4328.747
551.0772, 4338.857
551.5593, 4316.641
552.0414, 4279.733
552.5236, 4256.091
553.0057, 4248.505
553.4878, 4245.100
553.9699, 4249.347
554.4520, 4253.416
554.9341, 4253.273
555.4163, 4251.151
555.8984, 4251.404
556.3805, 4255.726
556.8626, 4259.950
557.3447, 4257.579
557.8268, 4249.766
558.3090, 4246.017
558.7911, 4247.586
559.2732, 4252.159
559.7553, 4260.213
560.2374, 4269.885
560.7195, 4275.814
561.2017, 4280.319
561.6838, 4277.007
562.1659, 4255.624
562.6480, 4230.457
563.1301, 4216.154
563.6122, 4214.006
564.0944, 4219.128
564.5765, 4229.612
565.0586, 4241.646
565.5407, 4238.536
566.0228, 4211.728
566.5049, 4191.463
566.9871, 4192.611
567.4692, 4193.955
567.9513, 4177.812
568.4334, 4148.405
568.9155, 4127.384
569.3976, 4126.371
569.8798, 4135.377
570.3619, 4146.579
570.8440, 4159.475
571.3261, 4174.145
571.8082, 4191.238
572.2903, 4203.346
572.7725, 4199.639
573.2546, 4177.258
573.7367, 4166.121
574.2188, 4176.713
574.7009, 4185.300
575.1830, 4184.626
575.6652, 4179.586
576.1473, 4177.038
576.6294, 4178.010
577.1115, 4175.929
577.5936, 4162.640
578.0757, 4141.550
578.5579, 4122.780
579.0400, 4106.031
579.5221, 4096.174
580.0042, 4097.632
580.4863, 4105.433
580.9684, 4109.944
581.4506, 4110.112
581.9327, 4112.052
582.4148, 4122.359
582.8969, 4129.447
583.3790, 4122.075
583.8611, 4105.784
584.3433, 4093.238
584.8254, 4090.314
585.3075, 4092.339
585.7896, 4093.032
586.2717, 4092.628
586.7538, 4087.079
587.2360, 4070.970
587.7181, 4058.255
588.2002, 4059.269
588.6823, 4068.219
589.1644, 4077.802
589.6465, 4091.528
590.1287, 4093.977
590.6108, 4065.026
591.0929, 4027.483
591.5750, 4013.099
592.0571, 4021.727
592.5392, 4030.913
593.0214, 4025.023
593.5035, 4011.534
593.9856, 4015.652
594.4677, 4050.481
594.9498, 4071.676
595.4319, 4066.874
595.9141, 4055.210
596.3962, 4041.628
596.8783, 4028.758
597.3604, 4022.318
597.8425, 4027.885
598.3246, 4033.789
598.8068, 4023.410
599.2889, 4005.642
599.7710, 4007.861
600.2531, 4035.428
600.7352, 4062.117
601.2173, 4065.397
601.6995, 4048.024
602.1816, 4032.251
602.6637, 4004.615
603.1458, 3998.096
603.6279, 4036.690
604.1100, 4079.943
604.5922, 4098.085
605.0743, 4091.804
605.5564, 4077.865
606.0385, 4063.235
606.5206, 4049.754
607.0027, 4038.046
607.4849, 4028.945
607.9670, 4031.279
608.4491, 4049.773
608.9312, 4070.834
609.4133, 4083.255
609.8954, 4086.906
610.3776, 4074.592
610.8597, 4024.192
611.3418, 3987.433
611.8239, 3985.367
612.3060, 3996.873
612.7881, 4003.057
613.2703, 4000.471
613.7524, 3993.253
614.2345, 3982.929
614.7166, 3971.508
615.1987, 3965.083
615.6808, 3963.996
616.1630, 3959.783
616.6451, 3948.707
617.1272, 3936.004
617.6093, 3926.913
618.0914, 3921.508
618.5735, 3919.449
619.0557, 3926.053
619.5378, 3929.854
620.0199, 3922.281
620.5020, 3911.471
620.9841, 3907.620
621.4662, 3912.560
621.9484, 3922.064
622.4305, 3935.603
622.9126, 3949.292
623.3947, 3943.960
623.8768, 3915.086
624.3589, 3894.205
624.8411, 3894.964
625.3232, 3902.975
625.8053, 3899.141
626.2874, 3884.290
626.7695, 3877.687
627.2516, 3888.353
627.7338, 3900.970
628.2159, 3909.478
628.6980, 3914.371
629.1801, 3914.065
629.6622, 3909.642
630.1443, 3910.167
630.6265, 3929.369
631.1086, 3960.367
631.5907, 3959.348
632.0728, 3914.667
632.5549, 3884.320
633.0370, 3895.538
633.5192, 3919.104
634.0013, 3921.399
634.4834, 3903.678
634.9655, 3888.820
635.4476, 3882.957
635.9297, 3879.419
636.4119, 3875.584
636.8940, 3871.222
637.3761, 3864.079
637.8582, 3854.693
638.3403, 3850.593
638.8224, 3861.813
639.3046, 3884.421
639.7867, 3893.724
640.2688, 3887.527
640.7509, 3875.277
641.2330, 3853.412
641.7151, 3832.631
642.1973, 3826.333
642.6794, 3833.092
643.1615, 3835.216
643.6436, 3824.503
644.1257, 3813.136
644.6078, 3809.614
645.0900, 3809.042
645.5721, 3803.745
646.0542, 3792.229
646.5363, 3777.720
647.0184, 3761.716
647.5005, 3746.168
647.9827, 3741.885
648.4648, 3751.998
648.9469, 3761.262
649.4290, 3767.791
649.9111, 3769.934
650.3932, 3763.711
650.8754, 3750.633
651.3575, 3741.383
651.8396, 3745.514
652.3217, 3744.985
652.8038, 3720.296
653.2859, 3691.238
653.7681, 3692.431
654.2502, 3723.402
654.7323, 3744.738
655.2144, 3720.761
655.6965, 3668.106
656.1786, 3643.313
656.6608, 3650.650
657.1429, 3660.798
657.6250, 3672.954
658.1071, 3678.680
658.5892, 3662.773
659.0714, 3631.734
659.5535, 3615.649
660.0356, 3631.112
660.5177, 3644.534
660.9998, 3639.940
661.4819, 3630.609
661.9641, 3634.606
662.4462, 3649.477
662.9283, 3655.141
663.4104, 3636.183
663.8925, 3605.827
664.3746, 3595.101
664.8568, 3604.854
665.3389, 3604.738
665.8210, 3585.419
666.3031, 3566.888
666.7852, 3566.195
667.2673, 3578.698
667.7495, 3582.984
668.2316, 3568.152
668.7137, 3562.810
669.1958, 3588.287
669.6779, 3612.275
670.1600, 3605.484
670.6422, 3574.677
671.1243, 3543.645
671.6064, 3523.546
672.0885, 3511.675
672.5706, 3505.657
673.0527, 3504.877
673.5349, 3506.217
674.0170, 3510.386
674.4991, 3509.577
674.9812, 3494.859
675.4633, 3475.356
675.9454, 3476.264
676.4276, 3512.965
676.9097, 3536.411
677.3918, 3538.286
677.8739, 3533.876
678.3560, 3534.155
678.8381, 3532.662
679.3203, 3511.936
679.8024, 3466.536
680.2845, 3429.073
680.7666, 3440.657
681.2487, 3480.586
681.7308, 3499.126
682.2130, 3495.029
682.6951, 3486.903
683.1772, 3482.365
683.6593, 3478.659
684.1414, 3470.915
684.6235, 3457.532
685.1057, 3448.745
685.5878, 3451.922
686.0699, 3450.723
686.5520, 3429.150
687.0341, 3408.638
687.5162, 3419.834
687.9984, 3462.479
688.4805, 3492.384
688.9626, 3475.661
689.4447, 3440.222
689.9268, 3411.012
690.4089, 3389.631
690.8911, 3382.217
691.3732, 3390.130
691.8553, 3402.973
692.3374, 3410.839
692.8195, 3414.010
693.3016, 3414.502
693.7838, 3411.065
694.2659, 3407.754
694.7480, 3407.588
695.2301, 3405.632
695.7122, 3394.217
696.1943, 3377.476
696.6765, 3371.467
697.1586, 3390.076
697.6407, 3405.297
698.1228, 3396.173
698.6049, 3378.664
699.0870, 3373.000
699.5692, 3379.851
700.0513, 3389.242
700.5334, 3395.423
701.0155, 3398.524
701.4976, 3398.284
701.9797, 3394.553
702.4619, 3391.201
702.9440, 3390.043
703.4261, 3385.117
703.9082, 3368.978
704.3903, 3348.236
704.8724, 3338.402
705.3546, 3340.759
705.8367, 3349.266
706.3188, 3371.584
706.8009, 3391.412
707.2830, 3397.529
707.7651, 3394.920
708.2473, 3391.553
708.7294, 3390.134
709.2115, 3391.261
709.6936, 3401.575
710.1757, 3413.402
710.6578, 3401.204
711.1400, 3366.601
711.6221, 3343.399
712.1042, 3344.792
712.5863, 3357.065
713.0684, 3364.194
713.5505, 3366.061
714.0327, 3365.335
714.5148, 3364.884
714.9969, 3357.623
715.4790, 3330.570
715.9611, 3305.702
716.4432, 3304.415
716.9254, 3323.084
717.4075, 3339.305
717.8896, 3343.961
718.3717, 3343.337
718.8538, 3341.047
719.3359, 3337.436
719.8181, 3330.975
720.3002, 3322.824
720.7823, 3321.567
721.2644, 3334.462
721.7465, 3351.733
722.2286, 3346.615
722.7108, 3314.332
723.1929, 3292.991
723.6750, 3288.317
724.1571, 3288.989
724.6392, 3288.944
725.1213, 3290.107
725.6035, 3297.498
726.0856, 3314.832
726.5677, 3325.200
727.0498, 3321.875
727.5319, 3314.525
728.0140, 3306.911
728.4962, 3299.938
728.9783, 3294.299
729.4604, 3290.175
729.9425, 3287.190
730.4246, 3285.042
730.9067, 3283.808
731.3889, 3285.152
731.8710, 3288.421
732.3531, 3286.941
732.8352, 3278.417
733.3173, 3266.488
733.7994, 3253.649
734.2816, 3240.534
734.7637, 3235.606
735.2458, 3248.917
735.7279, 3253.461
736.2100, 3234.432
736.6921, 3216.973
737.1743, 3223.122
737.6564, 3243.143
738.1385, 3247.640
738.6206, 3220.719
739.1027, 3197.129
739.5848, 3203.751
740.0670, 3219.232
740.5491, 3215.895
741.0312, 3197.762
741.5133, 3186.485
741.9954, 3192.324
742.4775, 3204.479
742.9597, 3206.618
743.4418, 3199.790
743.9239, 3200.069
744.4060, 3209.429
744.8881, 3215.997
745.3702, 3214.977
745.8524, 3209.335
746.3345, 3202.644
746.8166, 3194.759
747.2987, 3186.900
747.7808, 3171.701
748.2629, 3165.911
748.7451, 3184.615
749.2272, 3206.051
749.7093, 3207.711
750.1914, 3192.599
750.6735, 3181.968
751.1556, 3188.444
751.6378, 3197.922
752.1199, 3197.313
752.6020, 3190.489
753.0841, 3184.489
753.5662, 3180.059
754.0483, 3174.357
754.5305, 3165.432
755.0126, 3156.548
755.4947, 3156.151
755.9768, 3166.133
756.4589, 3165.614
756.9410, 3150.037
757.4232, 3134.236
757.9053, 3122.373
758.3874, 3115.367
758.8695, 3115.719
759.3516, 3123.945
759.8337, 3132.193
760.3159, 3145.689
760.7980, 3152.120
761.2801, 3141.827
761.7622, 3125.464
762.2443, 3112.129
762.7264, 3104.038
763.2086, 3101.962
763.6907, 3107.940
764.1728, 3117.246
764.6549, 3128.447
765.1370, 3138.024
765.6191, 3135.775
766.1013, 3121.147
766.5834, 3101.919
767.0655, 3081.969
767.5476, 3064.642
768.0297, 3060.159
768.5118, 3072.969
768.9940, 3069.527
769.4761, 3037.963
769.9582, 3014.785
770.4403, 3020.715
770.9224, 3040.411
771.4045, 3053.242
771.8867, 3059.218
772.3688, 3059.490
772.8509, 3048.329
773.3330, 3038.416
773.8151, 3033.417
774.2972, 3032.924
774.7794, 3039.762
775.2615, 3051.235
775.7436, 3056.125
776.2257, 3044.586
776.7078, 3031.862
777.1899, 3040.138
777.6721, 3059.048
778.1542, 3063.659
778.6363, 3052.242
779.1184, 3037.513
779.6005, 3026.355
780.0826, 3017.832
780.5648, 3009.685
781.0469, 3001.418
781.5290, 2999.310
782.0111, 3005.371
782.4932, 3012.842
782.9753, 3024.170
783.4575, 3030.906
783.9396, 3017.222
784.4217, 2982.385
784.9038, 2961.886
785.3859, 2969.767
785.8680, 2975.961
786.3502, 2970.445
786.8323, 2961.518
787.3144, 2955.598
787.7965, 2953.012
788.2786, 2951.710
788.7607, 2950.696
789.2429, 2951.140
789.7250, 2956.767
790.2071, 2963.085
790.6892, 2961.298
791.1713, 2952.879
791.6534, 2946.469
792.1356, 2945.759
792.6177, 2948.245
793.0998, 2951.631
793.5819, 2955.433
794.0640, 2953.996
794.5461, 2946.318
795.0283, 2939.361
795.5104, 2934.320
795.9925, 2932.660
796.4746, 2938.488
796.9567, 2950.184
797.4388, 2950.152
797.9210, 2922.324
798.4031, 2905.856
798.8852, 2915.062
799.3673, 2923.544
799.8494, 2910.052
800.3315, 2886.682
800.8137, 2879.352
801.2958, 2896.568
801.7779, 2911.227
802.2600, 2902.795
802.7421, 2892.015
803.2242, 2902.799
803.7064, 2923.887
804.1885, 2930.285
804.6706, 2917.417
805.1527, 2904.078
805.6348, 2908.583
806.1169, 2919.666
806.5991, 2907.158
807.0812, 2875.840
807.5633, 2866.439
808.0454, 2887.309
808.5275, 2905.361
809.0096, 2897.386
809.4918, 2874.485
809.9739, 2865.550
810.4560, 2876.215
810.9381, 2879.458
811.4202, 2867.226
811.9023, 2860.841
812.3845, 2877.655
812.8666, 2898.389
813.3487, 2899.757
813.8308, 2881.629
814.3129, 2863.247
814.7950, 2844.497
815.2772, 2829.625
815.7593, 2818.931
816.2414, 2813.641
816.7235, 2818.544
817.2056, 2829.740
817.6877, 2835.818
818.1699, 2831.029
818.6520, 2824.778
819.1341, 2827.045
819.6162, 2831.844
820.0983, 2830.821
820.5804, 2823.726
821.0626, 2808.516
821.5447, 2785.177
822.0268, 2769.367
822.5089, 2783.099
822.9910, 2816.060
823.4731, 2819.092
823.9553, 2790.105
824.4374, 2777.669
824.9195, 2796.021
825.4016, 2815.271
825.8837, 2811.901
826.3658, 2792.964
826.8480, 2782.380
827.3301, 2784.601
827.8122, 2784.951
828.2943, 2784.366
828.7764, 2780.672
829.2585, 2766.809
829.7407, 2753.162
830.2228, 2755.052
830.7049, 2773.124
831.1870, 2785.112
831.6691, 2783.176
832.1512, 2777.225
832.6334, 2767.569
833.1155, 2758.901
833.5976, 2757.605
834.0797, 2761.635
834.5618, 2762.643
835.0439, 2756.193
835.5261, 2749.951
836.0082, 2750.651
836.4903, 2756.374
836.9724, 2771.098
837.4545, 2788.468
837.9366, 2782.636
838.4188, 2746.229
838.9009, 2705.857
839.3830, 2688.786
839.8651, 2691.004
840.3472, 2702.719
840.8293, 2724.413
841.3115, 2726.163
841.7936, 2697.499
842.2757, 2674.889
842.7578, 2685.346
843.2399, 2715.887
843.7220, 2734.832
844.2042, 2742.861
844.6863, 2735.818
845.1684, 2696.771
845.6505, 2667.919
846.1326, 2670.531
846.6147, 2684.909
847.0969, 2692.943
847.5790, 2694.813
848.0611, 2697.607
848.5432, 2705.802
849.0253, 2710.288
849.5074, 2707.294
849.9896, 2700.843
850.4717, 2691.192
850.9538, 2681.235
851.4359, 2677.144
851.9180, 2681.179
852.4001, 2684.858
852.8823, 2683.280
853.3644, 2678.008
853.8465, 2667.291
854.3286, 2655.188
854.8107, 2650.998
855.2928, 2655.381
855.7750, 2659.747
856.2571, 2657.853
856.7392, 2652.252
857.2213, 2646.203
857.7034, 2640.274
858.1855, 2637.214
858.6677, 2637.236
859.1498, 2638.560
859.6319, 2640.481
860.1140, 2642.600
860.5961, 2644.947
861.0782, 2647.321
861.5604, 2642.324
862.0425, 2624.983
862.5246, 2622.029
863.0067, 2649.358
863.4888, 2672.274
863.9709, 2657.367
864.4531, 2618.057
864.9352, 2603.685
865.4173, 2629.540
865.8994, 2648.438
866.3815, 2663.607
866.8636, 2668.415
867.3458, 2651.936
867.8279, 2629.375
868.3100, 2619.134
868.7921, 2621.401
869.2742, 2620.067
869.7563, 2601.737
870.2385, 2591.190
870.7206, 2606.152
871.2027, 2626.105
871.6848, 2633.653
872.1669, 2630.638
872.6490, 2624.636
873.1312, 2617.999
873.6133, 2612.296
874.0954, 2606.277
874.5775, 2603.713
875.0596, 2616.047
875.5417, 2632.974
876.0239, 2627.926
876.5060, 2600.392
876.9881, 2579.729
877.4702, 2587.134
877.9523, 2606.132
878.4344, 2610.564
878.9166, 2603.907
879.3987, 2599.027
879.8808, 2596.650
880.3629, 2592.399
880.8450, 2584.319
881.3271, 2577.368
881.8093, 2577.787
882.2914, 2584.457
882.7735, 2592.435
883.2556, 2603.480
883.7377, 2600.004
884.2198, 2573.814
884.7020, 2550.727
885.1841, 2548.759
885.6662, 2559.439
886.1483, 2565.077
886.6304, 2566.147
887.1125, 2559.140
887.5947, 2532.098
888.0768, 2516.502
888.5589, 2529.641
889.0410, 2549.530
889.5231, 2555.194
890.0052, 2550.737
890.4874, 2555.659
890.9695, 2582.525
891.4516, 2598.278
891.9337, 2596.277
892.4158, 2584.515
892.8979, 2552.718
893.3801, 2521.525
893.8622, 2525.825
894.3443, 2566.338
894.8264, 2592.625
895.3085, 2563.406
895.7906, 2540.573
896.2728, 2573.611
896.7549, 2617.023
897.2370, 2621.537
897.7191, 2594.529
898.2012, 2564.205
898.6833, 2540.525
899.1655, 2528.157
899.6476, 2539.213
900.1297, 2557.135
900.6118, 2562.276
901.0939, 2558.074
901.5760, 2552.740
902.0582, 2547.432
902.5403, 2537.063
903.0224, 2517.395
903.5045, 2498.155
903.9866, 2493.306
904.4688, 2500.624
904.9509, 2519.175
905.4330, 2545.635
905.9151, 2555.581
906.3972, 2541.227
906.8793, 2522.867
907.3615, 2521.382
907.8436, 2528.539
908.3257, 2510.861
908.8078, 2467.988
909.2899, 2460.010
909.7720, 2499.348
910.2542, 2523.511
910.7363, 2497.121
911.2184, 2456.724
911.7005, 2457.875
912.1826, 2499.809
912.6647, 2517.628
913.1469, 2502.432
913.6290, 2491.808
914.1111, 2494.703
914.5932, 2498.427
915.0753, 2494.432
915.5574, 2485.560
916.0396, 2477.277
916.5217, 2466.875
917.0038, 2467.563
917.4859, 2492.965
917.9680, 2510.137
918.4501, 2503.948
918.9323, 2493.278
919.4144, 2495.098
919.8965, 2505.096
920.3786, 2506.043
920.8607, 2490.410
921.3428, 2479.649
921.8250, 2479.377
922.3071, 2481.648
922.7892, 2484.088
923.2713, 2486.230
923.7534, 2488.044
924.2355, 2489.358
924.7177, 2489.026
925.1998, 2483.186
925.6819, 2481.474
926.1640, 2495.675
926.6461, 2508.169
927.1282, 2501.683
927.6104, 2484.551
928.0925, 2471.580
928.5746, 2466.198
929.0567, 2464.267
929.5388, 2465.703
930.0209, 2467.187
930.5031, 2465.349
930.9852, 2462.729
931.4673, 2463.279
931.9494, 2465.898
932.4315, 2466.074
932.9136, 2462.243
933.3958, 2459.030
933.8779, 2460.331
934.3600, 2464.553
934.8421, 2472.622
935.3242, 2481.012
935.8063, 2481.572
936.2885, 2474.363
936.7706, 2465.371
937.2527, 2457.673
937.7348, 2451.038
938.2169, 2443.018
938.6990, 2436.690
939.1812, 2444.638
939.6633, 2461.156
940.1454, 2459.914
940.6275, 2437.036
941.1096, 2416.944
941.5917, 2417.194
942.0739, 2428.174
942.5560, 2431.854
943.0381, 2430.659
943.5202, 2440.213
944.0023, 2459.787
944.4844, 2469.507
944.9666, 2462.955
945.4487, 2457.168
945.9308, 2468.153
946.4129, 2489.545
946.8950, 2503.496
947.3771, 2510.065
947.8593, 2522.063
948.3414, 2542.518
948.8235, 2537.657
949.3056, 2489.538
949.7877, 2435.934
950.2698, 2419.459
950.7520, 2434.043
951.2341, 2449.429
951.7162, 2466.843
952.1983, 2477.690
952.6804, 2482.208
953.1625, 2474.685
953.6447, 2448.755
954.1268, 2417.006
954.6089, 2395.489
955.0910, 2384.113
955.5731, 2376.931
956.0552, 2369.106
956.5374, 2382.913
957.0195, 2434.140
957.5016, 2480.721
957.9837, 2501.026
958.4658, 2502.015
958.9479, 2491.328
959.4301, 2466.927
959.9122, 2460.488
960.3943, 2484.075
960.8764, 2501.485
961.3585, 2505.846
961.8406, 2505.105
962.3228, 2503.955
962.8049, 2500.916
963.2870, 2491.525
963.7691, 2472.908
964.2512, 2463.406
964.7333, 2470.600
965.2155, 2475.888
965.6976, 2477.891
966.1797, 2475.376
966.6618, 2464.369
967.1439, 2448.958
967.6260, 2438.036
968.1082, 2431.613
968.5903, 2430.519
969.0724, 2432.390
969.5545, 2442.804
970.0366, 2476.702
970.5187, 2507.371
971.0009, 2511.826
971.4830, 2497.308
971.9651, 2483.794
972.4472, 2473.159
972.9293, 2463.361
973.4114, 2450.558
973.8936, 2442.954
974.3757, 2449.719
974.8578, 2457.656
975.3399, 2451.670
975.8220, 2437.089
976.3041, 2431.533
976.7863, 2437.650
977.2684, 2453.194
977.7505, 2488.990
978.2326, 2520.309
978.7147, 2539.122
979.1968, 2545.990
979.6790, 2533.341
980.1611, 2509.561
980.6432, 2504.350
981.1253, 2535.260
981.6074, 2549.608
982.0895, 2513.462
982.5717, 2478.400
983.0538, 2474.216
983.5359, 2482.275
984.0180, 2475.322
984.5001, 2459.738
984.9822, 2472.029
985.4644, 2539.426
985.9465, 2582.275
986.4286, 2548.134
986.9107, 2508.374
987.3928, 2505.814
987.8749, 2520.146
988.3571, 2526.005
988.8392, 2523.425
989.3213, 2527.168
989.8034, 2544.484
990.2855, 2560.038
990.7676, 2567.115
991.2498, 2570.825
991.7319, 2576.963
992.2140, 2579.970
992.6961, 2565.020
993.1782, 2538.886
993.6603, 2534.512
994.1425, 2570.727
994.6246, 2606.276
995.1067, 2622.910
995.5888, 2632.620
996.0709, 2639.011
996.5530, 2646.148
997.0352, 2659.361
997.5173, 2677.900
997.9994, 2696.604
998.4815, 2715.860
998.9636, 2728.551
999.4457, 2724.918
999.9279, 2720.577
1000.410, 2725.928
1000.892, 2737.353
1001.374, 2752.043
1001.856, 2767.814
1002.338, 2779.019
1002.821, 2782.663
1003.303, 2784.934
1003.785, 2783.796
1004.267, 2787.647
1004.749, 2812.435
1005.231, 2838.967
1005.713, 2833.651
1006.195, 2805.266
1006.677, 2802.721
1007.160, 2852.840
1007.642, 2894.217
1008.124, 2890.132
1008.606, 2877.749
1009.088, 2877.384
1009.570, 2885.177
1010.052, 2899.205
1010.534, 2915.529
1011.017, 2923.119
1011.499, 2916.445
1011.981, 2909.030
1012.463, 2911.249
1012.945, 2909.268
1013.427, 2885.774
1013.909, 2860.005
1014.391, 2859.064
1014.873, 2876.177
1015.356, 2879.793
1015.838, 2856.907
1016.320, 2839.450
1016.802, 2843.291
1017.284, 2859.759
1017.766, 2868.635
1018.248, 2870.326
1018.730, 2843.314
1019.213, 2853.364
1019.695, 2848.563
1020.177, 2843.152
1020.659, 2858.421
1021.141, 2835.584
1021.623, 2850.525
1022.105, 2850.385
1022.587, 2857.148
1023.069, 2848.965
1023.552, 2845.397
1024.034, 2856.780
1024.516, 2859.886
1024.998, 2841.465
1025.480, 2842.668
1025.962, 2840.198
1026.444, 2828.171
1026.926, 2819.972
1027.409, 2831.966
1027.891, 2854.315
1028.373, 2862.928
1028.855, 2851.926
1029.337, 2851.757
1029.819, 2877.286
1030.301, 2901.286
1030.783, 2921.170
1031.266, 2932.590
1031.748, 2926.921
1032.230, 2913.243
1032.712, 2907.343
1033.194, 2910.774
1033.676, 2915.959
1034.158, 2926.149
1034.640, 2932.163
1035.122, 2932.736
1035.604, 2928.529
1036.087, 2915.691
1036.569, 2900.496
1037.051, 2891.381
1037.533, 2888.460
1038.015, 2891.845
1038.497, 2906.681
1038.979, 2919.580
1039.461, 2938.297
1039.944, 2943.474
1040.426, 2912.938
1040.908, 2876.277
1041.390, 2873.758
1041.872, 2901.017
1042.354, 2908.688
1042.836, 2886.086
1043.318, 2867.351
1043.800, 2855.876
1044.283, 2843.960
1044.765, 2827.800
1045.247, 2811.359
1045.729, 2799.460
1046.211, 2790.402
1046.693, 2774.809
1047.175, 2746.102
1047.657, 2735.047
1048.140, 2750.433
1048.622, 2756.658
1049.104, 2738.482
1049.586, 2720.610
1050.068, 2726.725
1050.550, 2744.851
1051.032, 2741.638
1051.514, 2714.903
1051.996, 2685.391
1052.479, 2649.777
1052.961, 2636.477
1053.443, 2655.878
1053.925, 2679.366
1054.407, 2689.567
1054.889, 2686.362
1055.371, 2665.679
1055.853, 2630.102
1056.335, 2610.190
1056.818, 2605.787
1057.300, 2611.001
1057.782, 2625.013
1058.264, 2630.199
1058.746, 2616.757
1059.228, 2596.518
1059.710, 2582.932
1060.192, 2576.981
1060.675, 2588.413
1061.157, 2611.791
1061.639, 2612.113
1062.121, 2589.285
1062.603, 2579.033
1063.085, 2594.459
1063.567, 2606.703
1064.049, 2585.275
1064.531, 2548.965
1065.014, 2528.222
1065.496, 2521.145
1065.978, 2528.522
1066.460, 2545.190
1066.942, 2556.434
1067.424, 2557.950
1067.906, 2551.643
1068.388, 2537.981
1068.870, 2520.169
1069.353, 2499.305
1069.835, 2478.473
1070.317, 2459.428
1070.799, 2444.761
1071.281, 2442.030
1071.763, 2448.932
1072.245, 2451.091
1072.727, 2440.952
1073.210, 2433.090
1073.692, 2445.528
1074.174, 2456.655
1074.656, 2440.845
1075.138, 2418.664
1075.620, 2420.229
1076.102, 2437.492
1076.584, 2441.383
1077.067, 2423.906
1077.549, 2404.543
1078.031, 2387.420
1078.513, 2376.013
1078.995, 2378.061
1079.477, 2380.359
1079.959, 2367.542
1080.441, 2350.408
1080.923, 2350.822
1081.406, 2369.836
1081.888, 2378.681
1082.370, 2364.847
1082.852, 2351.849
1083.334, 2343.331
1083.816, 2336.223
1084.298, 2328.953
1084.780, 2322.600
1085.262, 2320.094
1085.745, 2319.901
1086.227, 2313.718
1086.709, 2295.368
1087.191, 2288.168
1087.673, 2299.564
1088.155, 2306.738
1088.637, 2301.298
1089.119, 2295.105
1089.602, 2298.157
1090.084, 2304.791
1090.566, 2302.777
1091.048, 2291.946
1091.530, 2277.012
1092.012, 2257.119
1092.494, 2238.198
1092.976, 2220.319
1093.458, 2210.431
1093.941, 2213.123
1094.423, 2218.795
1094.905, 2214.012
1095.387, 2203.589
1095.869, 2207.946
1096.351, 2224.394
1096.833, 2229.382
1097.315, 2222.855
1097.797, 2225.328
1098.280, 2242.760
1098.762, 2261.344
1099.244, 2271.608
1099.726, 2270.540
1100.208, 2245.926
1100.690, 2210.693
1101.172, 2192.770
1101.654, 2186.511
1102.137, 2171.337
1102.619, 2148.336
1103.101, 2141.164
1103.583, 2161.966
1104.065, 2181.807
1104.547, 2173.863
1105.029, 2157.265
1105.511, 2144.306
1105.994, 2136.960
1106.476, 2138.631
1106.958, 2147.076
1107.440, 2161.061
1107.922, 2179.010
1108.404, 2184.165
1108.886, 2154.636
1109.368, 2133.968
1109.850, 2146.580
1110.333, 2163.732
1110.815, 2170.687
1111.297, 2170.293
1111.779, 2165.481
1112.261, 2157.346
1112.743, 2149.527
1113.225, 2143.034
1113.707, 2135.164
1114.189, 2123.801
1114.672, 2105.784
1115.154, 2120.587
1115.636, 2127.798
1116.118, 2127.823
1116.600, 2099.146
1117.082, 2107.533
1117.564, 2101.067
1118.046, 2093.990
1118.529, 2107.589
1119.011, 2083.086
1119.493, 2096.362
1119.975, 2094.558
1120.457, 2099.655
1120.939, 2089.807
1121.421, 2084.574
1121.903, 2094.293
1122.385, 2095.733
1122.868, 2084.159
1123.350, 2089.695
1123.832, 2064.670
1124.314, 2066.463
1124.796, 2079.826
1125.278, 2069.009
1125.760, 2074.818
1126.242, 2074.295
1126.724, 2044.995
1127.207, 2065.736
1127.689, 2064.839
1128.171, 2041.718
1128.653, 2060.750
1129.135, 2040.693
1129.617, 2034.589
1130.099, 2038.983
1130.581, 2032.433
1131.064, 2043.135
1131.546, 2015.828
1132.028, 2015.291
1132.510, 2017.526
1132.992, 2014.328
1133.474, 2011.841
1133.956, 2022.200
1134.438, 2040.564
1134.921, 2045.509
1135.403, 2030.480
1135.885, 2015.840
1136.367, 1996.101
1136.849, 1988.021
1137.331, 2003.167
1137.813, 2017.647
1138.295, 2016.045
1138.777, 2008.538
1139.260, 2011.644
1139.742, 2023.116
1140.224, 2019.298
1140.706, 1996.736
1141.188, 1988.085
1141.670, 1997.385
1142.152, 1995.383
1142.634, 1971.648
1143.116, 1954.853
1143.599, 1968.791
1144.081, 1994.916
1144.563, 2001.823
1145.045, 1994.404
1145.527, 1984.185
1146.009, 1973.082
1146.491, 1952.883
1146.973, 1967.751
1147.456, 1975.022
1147.938, 1975.113
1148.420, 1946.501
1148.902, 1954.953
1149.384, 1948.552
1149.866, 1941.542
1150.348, 1955.210
1150.830, 1930.773
1151.313, 1944.109
1151.795, 1942.369
1152.277, 1947.532
1152.759, 1937.749
1153.241, 1932.583
1153.723, 1942.366
1154.205, 1943.872
1154.687, 1932.368
1155.169, 1937.970
1155.651, 1913.010
1156.134, 1914.863
1156.616, 1928.292
1157.098, 1917.540
1157.580, 1896.851
1158.062, 1890.060
1158.544, 1892.163
1159.026, 1903.796
1159.508, 1927.724
1159.991, 1944.320
1160.473, 1947.302
1160.955, 1945.935
1161.437, 1947.439
1161.919, 1945.921
1162.401, 1926.165
1162.883, 1897.191
1163.365, 1892.656
1163.848, 1904.521
1164.330, 1907.716
1164.812, 1901.021
1165.294, 1892.343
1165.776, 1884.974
1166.258, 1882.309
1166.740, 1887.549
1167.222, 1895.758
1167.704, 1905.077
1168.187, 1913.252
1168.669, 1921.870
1169.151, 1925.419
1169.633, 1908.891
1170.115, 1882.772
1170.597, 1882.128
1171.079, 1918.373
1171.561, 1934.981
1172.043, 1907.025
1172.526, 1882.431
1173.008, 1862.333
1173.490, 1856.152
1173.972, 1875.568
1174.454, 1900.483
1174.936, 1911.147
1175.418, 1909.426
1175.900, 1898.380
1176.383, 1876.155
1176.865, 1874.528
1177.347, 1894.126
1177.829, 1904.594
1178.311, 1900.524
1178.793, 1899.088
1179.275, 1908.721
1179.757, 1913.110
1180.240, 1891.367
1180.722, 1860.924
1181.204, 1849.121
1181.686, 1849.066
1182.168, 1851.109
1182.650, 1854.676
1183.132, 1861.612
1183.614, 1871.013
1184.096, 1878.395
1184.578, 1881.801
1185.061, 1885.537
1185.543, 1898.987
1186.025, 1903.055
1186.507, 1879.927
1186.989, 1855.044
1187.471, 1841.832
1187.953, 1840.552
1188.435, 1855.113
1188.918, 1881.531
1189.400, 1895.861
1189.882, 1896.756
1190.364, 1888.710
1190.846, 1868.073
1191.328, 1854.750
1191.810, 1853.485
1192.292, 1858.516
1192.775, 1867.438
1193.257, 1874.342
1193.739, 1871.183
1194.221, 1861.580
1194.703, 1852.514
1195.185, 1844.855
1195.667, 1838.954
1196.149, 1836.928
1196.631, 1848.989
1197.114, 1872.027
1197.596, 1884.350
1198.078, 1875.970
1198.560, 1860.522
1199.042, 1836.885
1199.524, 1821.169
1200.006, 1828.584
1200.488, 1841.216
1200.970, 1846.790
1201.453, 1847.375
1201.935, 1846.312
1202.417, 1844.131
1202.899, 1842.609
1203.381, 1840.317
1203.863, 1844.345
1204.345, 1858.902
1204.827, 1865.924
1205.310, 1861.204
1205.792, 1850.349
1206.274, 1835.355
1206.756, 1821.791
1207.238, 1815.861
1207.720, 1817.054
1208.202, 1827.342
1208.684, 1842.551
1209.167, 1851.062
1209.649, 1853.412
1210.131, 1851.837
1210.613, 1847.775
1211.095, 1844.761
1211.577, 1844.264
1212.059, 1840.680
1212.541, 1825.301
1213.023, 1813.034
1213.505, 1813.333
1213.988, 1817.741
1214.470, 1823.611
1214.952, 1827.850
1215.434, 1827.962
1215.916, 1823.365
1216.398, 1810.982
1216.880, 1787.427
1217.362, 1778.328
1217.845, 1787.646
1218.327, 1793.894
1218.809, 1793.203
1219.291, 1796.494
1219.773, 1808.609
1220.255, 1822.897
1220.737, 1834.389
1221.219, 1840.148
1221.702, 1832.774
1222.184, 1817.218
1222.666, 1800.591
1223.148, 1785.371
1223.630, 1776.087
1224.112, 1772.403
1224.594, 1772.151
1225.076, 1774.527
1225.558, 1778.132
1226.041, 1783.290
1226.523, 1787.741
1227.005, 1792.796
1227.487, 1794.314
1227.969, 1788.115
1228.451, 1779.887
1228.933, 1770.318
1229.415, 1764.894
1229.897, 1775.450
1230.380, 1799.571
1230.862, 1809.268
1231.344, 1804.029
1231.826, 1795.350
1232.308, 1784.368
1232.790, 1780.530
1233.272, 1785.538
1233.754, 1788.995
1234.237, 1784.903
1234.719, 1780.321
1235.201, 1786.167
1235.683, 1791.142
1236.165, 1774.578
1236.647, 1757.657
1237.129, 1771.129
1237.611, 1797.102
1238.094, 1806.013
1238.576, 1797.707
1239.058, 1786.439
1239.540, 1771.102
1240.022, 1768.024
1240.504, 1787.946
1240.986, 1800.347
1241.468, 1802.759
1241.950, 1792.998
1242.432, 1766.893
1242.915, 1739.733
##END=



