##NAMES=Gotzenite
##RRUFFID=R141182
##IDEAL CHEMISTRY=Ca_4_NaCa_2_Ti^4+^(Si_2_O_7_)_2_(OF)F_2_
##LOCALITY=Po√ßos De Caldas, Minas Gerais, Brazil
##OWNER=RRUFF
##SOURCE=Marcelo B. Andrade
##DESCRIPTION=Brown prismatic crystals
##STATUS=The identification of this mineral is confirmed by single-crystal X-ray diffraction and chemical analysis.
##URL=rruff.info/R141182
##MEASURED CHEMISTRY=Na_1.00_(Ca_4.77_Na_0.62_Ce_0.12_Mn_0.12_Sr_0.10_Zr_0.07_Fe_0.07_La_0.06_Nd_0.04_Y_0.03_Dy_0.02_)(Ti_0.90_Zr_0.06_Nb_0.04_)(Si_2.01_O_7_)_2_OF_3.06_  ; lighter areas
172.5555, 12148.38
173.0376, 12202.54
173.5197, 12251.70
174.0018, 12302.98
174.4839, 12360.71
174.9661, 12423.83
175.4482, 12485.20
175.9303, 12545.17
176.4124, 12602.82
176.8945, 12653.74
177.3766, 12702.41
177.8588, 12756.03
178.3409, 12820.78
178.8230, 12896.92
179.3051, 12970.06
179.7872, 13038.81
180.2693, 13106.04
180.7515, 13171.06
181.2336, 13234.95
181.7157, 13298.97
182.1978, 13364.12
182.6799, 13430.16
183.1620, 13499.50
183.6441, 13572.73
184.1263, 13647.70
184.6084, 13723.30
185.0905, 13799.39
185.5726, 13876.71
186.0547, 13956.63
186.5368, 14039.97
187.0190, 14114.07
187.5011, 14168.68
187.9832, 14221.13
188.4653, 14284.89
188.9474, 14360.98
189.4296, 14441.15
189.9117, 14518.91
190.3938, 14593.86
190.8759, 14665.31
191.3580, 14723.55
191.8401, 14782.30
192.3223, 14862.58
192.8044, 14970.94
193.2865, 15079.47
193.7686, 15152.20
194.2507, 15200.63
194.7328, 15259.91
195.2150, 15347.71
195.6971, 15452.60
196.1792, 15554.12
196.6613, 15652.71
197.1434, 15742.64
197.6255, 15810.21
198.1077, 15865.20
198.5898, 15932.43
199.0719, 16034.35
199.5540, 16161.88
200.0361, 16273.72
200.5182, 16358.92
201.0004, 16442.23
201.4825, 16537.06
201.9646, 16640.45
202.4467, 16743.65
202.9288, 16840.73
203.4109, 16932.21
203.8930, 17022.13
204.3752, 17099.40
204.8573, 17187.50
205.3394, 17302.29
205.8215, 17435.25
206.3036, 17566.40
206.7857, 17676.29
207.2679, 17763.18
207.7500, 17863.55
208.2321, 17994.12
208.7142, 18123.81
209.1963, 18241.49
209.6784, 18349.14
210.1606, 18454.75
210.6427, 18565.55
211.1248, 18681.42
211.6069, 18797.18
212.0890, 18913.66
212.5711, 19028.93
213.0533, 19139.91
213.5354, 19248.39
214.0175, 19360.94
214.4996, 19483.56
214.9817, 19617.76
215.4638, 19754.07
215.9460, 19898.23
216.4281, 20039.44
216.9102, 20172.85
217.3923, 20298.26
217.8744, 20419.59
218.3565, 20538.99
218.8387, 20655.99
219.3208, 20775.94
219.8029, 20896.31
220.2850, 21021.65
220.7671, 21160.71
221.2492, 21311.10
221.7314, 21455.58
222.2135, 21576.92
222.6956, 21673.18
223.1777, 21780.85
223.6598, 21906.84
224.1419, 22039.07
224.6240, 22171.99
225.1062, 22304.79
225.5883, 22429.56
226.0704, 22536.53
226.5525, 22627.62
227.0346, 22725.03
227.5167, 22835.60
227.9989, 22949.45
228.4810, 23054.73
228.9631, 23150.47
229.4452, 23248.05
229.9273, 23359.60
230.4094, 23478.80
230.8916, 23588.61
231.3737, 23681.96
231.8558, 23766.63
232.3379, 23851.74
232.8200, 23938.00
233.3021, 24019.28
233.7843, 24081.98
234.2664, 24139.14
234.7485, 24212.79
235.2306, 24318.61
235.7127, 24434.59
236.1948, 24532.24
236.6770, 24610.21
237.1591, 24677.36
237.6412, 24734.20
238.1233, 24784.38
238.6054, 24831.58
239.0875, 24877.32
239.5697, 24920.04
240.0518, 24954.86
240.5339, 24978.06
241.0160, 25005.94
241.4981, 25050.01
241.9802, 25099.45
242.4624, 25143.97
242.9445, 25179.34
243.4266, 25210.06
243.9087, 25245.50
244.3908, 25290.58
244.8729, 25326.03
245.3550, 25341.97
245.8372, 25349.09
246.3193, 25356.41
246.8014, 25367.09
247.2835, 25376.91
247.7656, 25378.14
248.2477, 25367.46
248.7299, 25355.54
249.2120, 25341.44
249.6941, 25328.64
250.1762, 25321.83
250.6583, 25322.14
251.1404, 25323.50
251.6226, 25316.42
252.1047, 25301.29
252.5868, 25275.93
253.0689, 25229.52
253.5510, 25181.69
254.0331, 25147.44
254.5153, 25130.13
254.9974, 25120.71
255.4795, 25104.53
255.9616, 25075.08
256.4437, 25053.65
256.9258, 25045.45
257.4080, 25040.42
257.8901, 25031.81
258.3722, 25018.54
258.8543, 25004.30
259.3364, 24994.63
259.8185, 24993.72
260.3007, 24986.40
260.7828, 24971.97
261.2649, 24953.08
261.7470, 24924.39
262.2291, 24889.24
262.7112, 24863.40
263.1934, 24867.60
263.6755, 24915.85
264.1576, 24942.55
264.6397, 24936.33
265.1218, 24922.50
265.6039, 24908.04
266.0861, 24897.31
266.5682, 24898.34
267.0503, 24921.11
267.5324, 24970.82
268.0145, 25008.42
268.4966, 25034.50
268.9788, 25050.87
269.4609, 25053.78
269.9430, 25046.42
270.4251, 25036.93
270.9072, 25030.42
271.3893, 25026.50
271.8715, 25040.68
272.3536, 25088.89
272.8357, 25135.40
273.3178, 25163.37
273.7999, 25176.65
274.2820, 25187.42
274.7642, 25203.15
275.2463, 25223.82
275.7284, 25250.02
276.2105, 25293.78
276.6926, 25328.92
277.1747, 25337.10
277.6568, 25329.80
278.1389, 25333.97
278.6211, 25365.96
279.1032, 25417.98
279.5853, 25456.72
280.0674, 25474.41
280.5495, 25491.21
281.0316, 25512.52
281.5138, 25536.36
281.9959, 25559.12
282.4780, 25579.19
282.9601, 25597.81
283.4422, 25617.98
283.9243, 25642.69
284.4065, 25663.75
284.8886, 25676.80
285.3707, 25685.97
285.8528, 25696.16
286.3349, 25708.63
286.8170, 25725.07
287.2992, 25749.08
287.7813, 25780.92
288.2634, 25817.87
288.7455, 25867.62
289.2276, 25918.88
289.7097, 25954.58
290.1919, 25970.32
290.6740, 25981.79
291.1561, 26011.52
291.6382, 26063.50
292.1203, 26099.87
292.6024, 26104.41
293.0846, 26098.68
293.5667, 26101.90
294.0488, 26116.68
294.5309, 26139.06
295.0130, 26166.50
295.4951, 26199.33
295.9773, 26234.18
296.4594, 26273.56
296.9415, 26312.84
297.4236, 26345.09
297.9057, 26371.11
298.3878, 26404.03
298.8700, 26456.95
299.3521, 26525.05
299.8342, 26577.39
300.3163, 26599.71
300.7984, 26619.11
301.2805, 26649.55
301.7627, 26690.27
302.2448, 26738.17
302.7269, 26794.06
303.2090, 26854.82
303.6911, 26910.55
304.1732, 26955.25
304.6554, 27005.52
305.1375, 27073.60
305.6196, 27153.45
306.1017, 27228.69
306.5838, 27292.09
307.0659, 27350.30
307.5481, 27415.69
308.0302, 27489.08
308.5123, 27564.24
308.9944, 27635.48
309.4765, 27707.83
309.9586, 27792.20
310.4408, 27893.26
310.9229, 27996.73
311.4050, 28074.88
311.8871, 28125.33
312.3692, 28202.27
312.8513, 28333.51
313.3335, 28488.59
313.8156, 28633.89
314.2977, 28764.04
314.7798, 28888.48
315.2619, 29016.00
315.7440, 29146.36
316.2262, 29273.09
316.7083, 29395.35
317.1904, 29513.92
317.6725, 29622.72
318.1546, 29723.93
318.6367, 29837.79
319.1188, 29979.92
319.6010, 30146.82
320.0831, 30315.41
320.5652, 30496.88
321.0473, 30669.91
321.5294, 30814.87
322.0115, 30939.40
322.4937, 31073.33
322.9758, 31230.34
323.4579, 31404.47
323.9400, 31576.53
324.4221, 31745.13
324.9042, 31916.29
325.3864, 32094.15
325.8685, 32276.12
326.3506, 32459.36
326.8327, 32643.71
327.3148, 32827.69
327.7969, 33008.54
328.2791, 33185.11
328.7612, 33365.30
329.2433, 33552.49
329.7254, 33742.64
330.2075, 33929.79
330.6896, 34112.95
331.1718, 34298.11
331.6539, 34493.70
332.1360, 34700.51
332.6181, 34902.93
333.1002, 35094.65
333.5823, 35284.89
334.0645, 35477.52
334.5466, 35673.18
335.0287, 35882.23
335.5108, 36115.71
335.9929, 36368.22
336.4750, 36594.61
336.9572, 36783.76
337.4393, 36964.08
337.9214, 37139.70
338.4035, 37315.73
338.8856, 37504.59
339.3677, 37714.34
339.8499, 37934.30
340.3320, 38133.37
340.8141, 38298.77
341.2962, 38468.97
341.7783, 38656.12
342.2604, 38850.46
342.7426, 39040.24
343.2247, 39221.43
343.7068, 39393.99
344.1889, 39556.59
344.6710, 39705.49
345.1531, 39854.00
345.6353, 39992.16
346.1174, 40135.96
346.5995, 40305.59
347.0816, 40497.50
347.5637, 40686.53
348.0458, 40847.69
348.5280, 40979.98
349.0101, 41110.79
349.4922, 41234.51
349.9743, 41362.66
350.4564, 41498.13
350.9385, 41640.91
351.4207, 41793.49
351.9028, 41958.13
352.3849, 42129.86
352.8670, 42288.63
353.3491, 42410.52
353.8312, 42548.89
354.3134, 42719.02
354.7955, 42905.25
355.2776, 43093.27
355.7597, 43277.45
356.2418, 43455.37
356.7239, 43624.74
357.2061, 43786.74
357.6882, 43935.27
358.1703, 44054.90
358.6524, 44173.74
359.1345, 44307.93
359.6166, 44460.36
360.0987, 44627.51
360.5808, 44811.00
361.0630, 45015.80
361.5451, 45185.69
362.0272, 45289.44
362.5093, 45392.53
362.9914, 45516.98
363.4735, 45657.27
363.9557, 45796.51
364.4378, 45924.24
364.9199, 46045.04
365.4020, 46179.18
365.8841, 46345.20
366.3662, 46499.19
366.8484, 46620.48
367.3305, 46735.47
367.8126, 46875.36
368.2947, 47047.98
368.7768, 47229.57
369.2589, 47380.72
369.7411, 47484.99
370.2232, 47603.02
370.7053, 47757.60
371.1874, 47908.43
371.6695, 48027.73
372.1516, 48120.25
372.6338, 48217.38
373.1159, 48349.17
373.5980, 48513.93
374.0801, 48666.28
374.5622, 48786.83
375.0443, 48919.38
375.5265, 49087.42
376.0086, 49274.23
376.4907, 49449.04
376.9728, 49593.48
377.4549, 49728.61
377.9370, 49906.22
378.4192, 50142.51
378.9013, 50375.68
379.3834, 50586.59
379.8655, 50789.50
380.3476, 50988.94
380.8297, 51186.36
381.3119, 51398.63
381.7940, 51644.74
382.2761, 51924.70
382.7582, 52211.91
383.2403, 52503.77
383.7224, 52802.85
384.2046, 53114.09
384.6867, 53433.36
385.1688, 53754.38
385.6509, 54066.16
386.1330, 54375.45
386.6151, 54697.94
387.0973, 55031.01
387.5794, 55382.84
388.0615, 55772.99
388.5436, 56182.52
389.0257, 56585.77
389.5078, 56974.20
389.9900, 57361.48
390.4721, 57758.64
390.9542, 58166.14
391.4363, 58575.32
391.9184, 58979.96
392.4005, 59389.82
392.8827, 59818.45
393.3648, 60265.68
393.8469, 60723.20
394.3290, 61198.64
394.8111, 61678.51
395.2932, 62131.04
395.7754, 62553.65
396.2575, 62972.56
396.7396, 63410.09
397.2217, 63867.84
397.7038, 64344.60
398.1859, 64866.30
398.6681, 65389.86
399.1501, 65887.24
399.6323, 66362.99
400.1144, 66834.31
400.5965, 67306.98
401.0786, 67784.33
401.5607, 68271.73
402.0428, 68778.26
402.5250, 69277.17
403.0071, 69749.45
403.4892, 70218.28
403.9713, 70718.09
404.4534, 71251.95
404.9355, 71781.37
405.4177, 72258.32
405.8998, 72665.60
406.3819, 73089.11
406.8640, 73538.14
407.3461, 73990.62
407.8282, 74432.98
408.3104, 74871.20
408.7925, 75325.81
409.2746, 75817.23
409.7567, 76330.73
410.2388, 76806.11
410.7209, 77199.48
411.2031, 77608.86
411.6852, 78052.73
412.1673, 78510.20
412.6494, 78964.20
413.1315, 79409.45
413.6136, 79847.88
414.0958, 80279.55
414.5779, 80703.10
415.0600, 81133.89
415.5421, 81577.83
416.0242, 82022.11
416.5063, 82467.80
416.9885, 82911.66
417.4706, 83335.62
417.9527, 83721.90
418.4348, 84090.08
418.9169, 84519.58
419.3990, 85036.05
419.8812, 85553.33
420.3633, 86044.52
420.8454, 86521.66
421.3275, 86993.77
421.8096, 87462.48
422.2917, 87918.94
422.7739, 88350.44
423.2560, 88756.83
423.7381, 89156.30
424.2202, 89536.00
424.7023, 89929.66
425.1844, 90377.34
425.6666, 90862.89
426.1487, 91331.84
426.6308, 91747.88
427.1129, 92140.90
427.5950, 92548.64
428.0771, 92973.85
428.5593, 93415.44
429.0414, 93885.48
429.5235, 94363.99
430.0056, 94807.09
430.4877, 95208.15
430.9698, 95590.98
431.4520, 95956.14
431.9341, 96311.74
432.4162, 96679.33
432.8983, 97064.14
433.3804, 97450.93
433.8625, 97825.74
434.3447, 98188.07
434.8268, 98522.55
435.3089, 98805.76
435.7910, 99080.02
436.2731, 99387.61
436.7552, 99712.54
437.2374, 99996.98
437.7195, 100204.4
438.2016, 100351.7
438.6837, 100499.3
439.1658, 100668.9
439.6479, 100811.0
440.1301, 100898.9
440.6122, 100971.2
441.0943, 101081.6
441.5764, 101231.2
442.0585, 101355.9
442.5406, 101376.7
443.0227, 101279.3
443.5049, 101185.9
443.9870, 101118.2
444.4691, 101032.8
444.9512, 100932.0
445.4333, 100801.9
445.9154, 100616.8
446.3976, 100361.9
446.8797, 100058.2
447.3618, 99755.45
447.8439, 99467.81
448.3260, 99138.28
448.8081, 98738.73
449.2903, 98303.39
449.7724, 97843.59
450.2545, 97363.27
450.7366, 96871.80
451.2187, 96390.76
451.7008, 95906.95
452.1830, 95376.79
452.6651, 94800.05
453.1472, 94180.57
453.6293, 93489.27
454.1114, 92763.42
454.5935, 92056.27
455.0757, 91395.21
455.5578, 90728.51
456.0399, 90005.13
456.5220, 89237.05
457.0041, 88462.94
457.4862, 87692.23
457.9684, 86920.27
458.4505, 86142.70
458.9326, 85361.86
459.4147, 84560.40
459.8968, 83714.43
460.3789, 82865.42
460.8611, 82052.58
461.3432, 81273.45
461.8253, 80501.66
462.3074, 79715.42
462.7895, 78924.16
463.2716, 78146.98
463.7538, 77386.06
464.2359, 76635.48
464.7180, 75879.94
465.2001, 75135.00
465.6822, 74415.95
466.1643, 73723.84
466.6465, 73062.14
467.1286, 72437.34
467.6107, 71847.02
468.0928, 71266.83
468.5749, 70703.55
469.0570, 70141.91
469.5392, 69566.19
470.0213, 68993.59
470.5034, 68454.67
470.9855, 67962.84
471.4676, 67503.05
471.9497, 67049.98
472.4319, 66603.28
472.9140, 66168.61
473.3961, 65749.27
473.8782, 65343.95
474.3603, 64948.46
474.8424, 64567.63
475.3246, 64208.48
475.8067, 63879.91
476.2888, 63577.23
476.7709, 63287.14
477.2530, 63010.96
477.7351, 62746.63
478.2173, 62486.89
478.6994, 62243.69
479.1815, 62037.07
479.6636, 61875.30
480.1457, 61723.57
480.6278, 61558.34
481.1100, 61392.83
481.5920, 61253.40
482.0742, 61145.14
482.5563, 61047.89
483.0384, 60940.89
483.5205, 60825.52
484.0026, 60733.42
484.4847, 60668.14
484.9669, 60620.20
485.4490, 60592.48
485.9311, 60577.59
486.4132, 60563.04
486.8953, 60544.07
487.3774, 60525.75
487.8596, 60517.61
488.3417, 60526.43
488.8238, 60526.47
489.3059, 60504.04
489.7880, 60487.58
490.2701, 60495.29
490.7523, 60520.27
491.2344, 60544.96
491.7165, 60558.54
492.1986, 60565.73
492.6807, 60579.55
493.1628, 60602.11
493.6450, 60625.82
494.1271, 60655.11
494.6092, 60680.69
495.0913, 60695.43
495.5734, 60699.39
496.0555, 60698.70
496.5377, 60699.66
497.0198, 60698.91
497.5019, 60685.99
497.9840, 60658.77
498.4661, 60628.21
498.9482, 60604.79
499.4304, 60578.99
499.9125, 60531.71
500.3946, 60452.22
500.8767, 60374.93
501.3588, 60328.50
501.8409, 60292.45
502.3231, 60227.37
502.8052, 60125.29
503.2873, 60009.36
503.7694, 59906.01
504.2515, 59815.21
504.7336, 59680.09
505.2158, 59466.65
505.6979, 59252.46
506.1800, 59073.27
506.6621, 58908.30
507.1442, 58728.09
507.6263, 58521.48
508.1085, 58293.54
508.5906, 58052.01
509.0727, 57793.48
509.5548, 57531.89
510.0369, 57276.50
510.5190, 57008.86
511.0012, 56724.49
511.4833, 56420.95
511.9654, 56089.50
512.4475, 55719.23
512.9296, 55338.89
513.4117, 55010.99
513.8939, 54745.53
514.3760, 54446.16
514.8581, 54079.50
515.3402, 53680.91
515.8223, 53281.32
516.3044, 52880.18
516.7866, 52471.26
517.2687, 52047.74
517.7508, 51615.61
518.2329, 51179.71
518.7150, 50740.50
519.1971, 50301.00
519.6793, 49862.10
520.1614, 49423.64
520.6435, 48994.55
521.1256, 48576.11
521.6077, 48155.80
522.0898, 47737.18
522.5720, 47313.51
523.0541, 46877.47
523.5362, 46432.86
524.0183, 45987.73
524.5004, 45548.59
524.9825, 45118.91
525.4647, 44706.54
525.9468, 44335.70
526.4289, 43952.47
526.9110, 43549.52
527.3931, 43133.45
527.8752, 42699.96
528.3574, 42255.61
528.8395, 41828.36
529.3216, 41449.44
529.8037, 41110.80
530.2858, 40756.67
530.7679, 40381.75
531.2501, 40005.90
531.7322, 39631.13
532.2143, 39263.59
532.6964, 38905.12
533.1785, 38555.91
533.6606, 38219.66
534.1428, 37901.40
534.6249, 37596.22
535.1070, 37287.93
535.5891, 36973.58
536.0712, 36669.60
536.5533, 36396.13
537.0355, 36144.82
537.5176, 35870.05
537.9997, 35535.42
538.4818, 35222.98
538.9639, 34968.38
539.4460, 34741.64
539.9282, 34506.24
540.4103, 34254.66
540.8924, 33996.80
541.3745, 33741.35
541.8566, 33487.55
542.3387, 33263.06
542.8209, 33111.18
543.3029, 32938.81
543.7850, 32708.83
544.2672, 32458.36
544.7493, 32230.53
545.2314, 32036.53
545.7135, 31856.59
546.1956, 31670.36
546.6777, 31478.75
547.1599, 31302.87
547.6420, 31150.39
548.1241, 31000.50
548.6062, 30837.20
549.0883, 30668.91
549.5704, 30506.95
550.0526, 30352.35
550.5347, 30207.63
551.0168, 30079.32
551.4989, 29960.62
551.9810, 29834.37
552.4631, 29696.70
552.9453, 29563.21
553.4274, 29451.52
553.9095, 29361.32
554.3916, 29253.57
554.8737, 29111.50
555.3558, 28974.51
555.8380, 28849.32
556.3201, 28736.13
556.8022, 28642.15
557.2843, 28565.88
557.7664, 28488.99
558.2485, 28386.83
558.7307, 28258.63
559.2128, 28143.50
559.6949, 28050.61
560.1770, 27959.54
560.6591, 27857.81
561.1412, 27756.13
561.6234, 27671.13
562.1055, 27609.16
562.5876, 27542.83
563.0697, 27439.01
563.5518, 27310.99
564.0339, 27203.69
564.5161, 27123.19
564.9982, 27057.43
565.4803, 27004.27
565.9624, 26958.85
566.4445, 26899.72
566.9266, 26809.48
567.4088, 26730.34
567.8909, 26691.05
568.3730, 26664.04
568.8551, 26612.40
569.3372, 26531.29
569.8193, 26440.71
570.3015, 26359.91
570.7836, 26287.90
571.2657, 26211.98
571.7478, 26124.01
572.2299, 26042.79
572.7120, 25977.52
573.1942, 25915.63
573.6763, 25842.63
574.1584, 25757.46
574.6405, 25675.09
575.1226, 25613.26
575.6047, 25565.51
576.0869, 25503.96
576.5690, 25426.00
577.0511, 25345.13
577.5332, 25267.59
578.0153, 25191.59
578.4974, 25113.36
578.9796, 25031.14
579.4617, 24954.64
579.9438, 24896.56
580.4259, 24840.90
580.9080, 24766.85
581.3901, 24675.22
581.8723, 24578.29
582.3544, 24481.12
582.8365, 24389.78
583.3186, 24325.49
583.8007, 24327.20
584.2828, 24296.09
584.7650, 24207.46
585.2471, 24107.08
585.7292, 24021.91
586.2113, 23952.36
586.6934, 23888.21
587.1755, 23824.31
587.6577, 23759.54
588.1398, 23689.79
588.6219, 23613.01
589.1040, 23545.33
589.5861, 23498.30
590.0682, 23452.61
590.5504, 23388.29
591.0325, 23308.33
591.5146, 23232.79
591.9967, 23175.22
592.4788, 23118.29
592.9609, 23042.46
593.4431, 22955.32
593.9252, 22880.69
594.4073, 22827.99
594.8894, 22784.70
595.3715, 22732.86
595.8536, 22669.12
596.3358, 22611.66
596.8179, 22566.41
597.3000, 22519.99
597.7821, 22468.27
598.2642, 22411.99
598.7463, 22352.72
599.2285, 22290.82
599.7106, 22225.61
600.1927, 22151.60
600.6748, 22069.28
601.1569, 22002.36
601.6390, 21955.57
602.1212, 21916.49
602.6033, 21883.66
603.0854, 21852.42
603.5675, 21817.43
604.0496, 21780.16
604.5317, 21732.47
605.0139, 21660.27
605.4960, 21579.26
605.9781, 21513.51
606.4602, 21465.23
606.9423, 21421.28
607.4244, 21371.95
607.9066, 21320.34
608.3887, 21280.17
608.8708, 21266.32
609.3529, 21243.16
609.8350, 21209.03
610.3171, 21165.99
610.7993, 21106.99
611.2814, 21039.32
611.7635, 20985.15
612.2456, 20962.66
612.7277, 20955.11
613.2098, 20922.16
613.6920, 20860.09
614.1741, 20815.79
614.6562, 20810.92
615.1383, 20813.56
615.6204, 20788.68
616.1025, 20741.03
616.5847, 20698.87
617.0668, 20673.13
617.5489, 20649.40
618.0310, 20613.26
618.5131, 20573.41
618.9952, 20552.53
619.4774, 20556.45
619.9595, 20559.73
620.4416, 20528.64
620.9237, 20458.86
621.4058, 20419.90
621.8879, 20446.16
622.3701, 20461.91
622.8522, 20444.51
623.3343, 20413.35
623.8164, 20387.02
624.2985, 20369.70
624.7806, 20356.88
625.2628, 20346.26
625.7448, 20337.26
626.2269, 20329.04
626.7090, 20321.74
627.1912, 20311.97
627.6733, 20295.02
628.1554, 20277.61
628.6375, 20276.07
629.1196, 20295.91
629.6017, 20302.80
630.0839, 20278.66
630.5660, 20251.54
631.0481, 20242.63
631.5302, 20246.46
632.0123, 20246.66
632.4944, 20235.71
632.9766, 20219.53
633.4587, 20209.09
633.9408, 20206.65
634.4229, 20197.13
634.9050, 20169.86
635.3871, 20149.56
635.8693, 20151.50
636.3514, 20165.06
636.8335, 20174.47
637.3156, 20175.88
637.7977, 20173.62
638.2798, 20167.81
638.7620, 20161.46
639.2441, 20163.21
639.7262, 20173.47
640.2083, 20177.84
640.6904, 20165.99
641.1725, 20142.46
641.6547, 20122.15
642.1368, 20105.21
642.6189, 20091.64
643.1010, 20081.45
643.5831, 20074.48
644.0652, 20073.52
644.5474, 20075.51
645.0295, 20073.91
645.5116, 20065.42
645.9937, 20051.25
646.4758, 20028.75
646.9579, 19998.11
647.4401, 19984.06
647.9222, 19997.29
648.4043, 20013.00
648.8864, 20011.31
649.3685, 19997.03
649.8506, 19985.03
650.3328, 19977.84
650.8149, 19971.13
651.2970, 19971.38
651.7791, 19966.91
652.2612, 19935.54
652.7433, 19880.70
653.2255, 19834.26
653.7076, 19821.10
654.1897, 19831.68
654.6718, 19829.52
655.1539, 19806.71
655.6360, 19790.05
656.1182, 19791.53
656.6003, 19792.60
657.0824, 19780.93
657.5645, 19759.94
658.0466, 19742.13
658.5287, 19734.69
659.0109, 19727.69
659.4930, 19713.24
659.9751, 19691.67
660.4572, 19661.98
660.9393, 19623.80
661.4214, 19584.76
661.9036, 19551.82
662.3857, 19524.15
662.8678, 19493.09
663.3499, 19449.68
663.8320, 19415.27
664.3141, 19398.03
664.7963, 19385.75
665.2784, 19372.53
665.7605, 19355.61
666.2426, 19330.63
666.7247, 19293.29
667.2068, 19248.81
667.6890, 19206.67
668.1711, 19166.73
668.6532, 19120.64
669.1353, 19063.59
669.6174, 19007.83
670.0995, 18969.26
670.5817, 18944.89
671.0638, 18906.80
671.5459, 18835.39
672.0280, 18773.65
672.5101, 18742.84
672.9922, 18724.39
673.4744, 18701.10
673.9565, 18668.99
674.4386, 18628.14
674.9207, 18576.78
675.4028, 18519.28
675.8849, 18469.99
676.3671, 18430.52
676.8492, 18392.22
677.3313, 18353.24
677.8134, 18314.91
678.2955, 18280.53
678.7776, 18248.05
679.2598, 18209.97
679.7419, 18161.75
680.2240, 18111.25
680.7061, 18057.19
681.1882, 18006.18
681.6703, 17973.66
682.1525, 17959.50
682.6346, 17940.29
683.1167, 17895.22
683.5988, 17831.24
684.0809, 17783.43
684.5630, 17763.17
685.0452, 17734.47
685.5273, 17674.76
686.0094, 17621.30
686.4915, 17606.35
686.9736, 17616.28
687.4557, 17608.08
687.9379, 17559.70
688.4200, 17498.59
688.9021, 17448.87
689.3842, 17405.12
689.8663, 17350.64
690.3484, 17282.70
690.8306, 17225.61
691.3127, 17201.25
691.7948, 17201.00
692.2769, 17180.51
692.7590, 17125.66
693.2411, 17072.67
693.7233, 17020.90
694.2054, 16974.11
694.6875, 16935.64
695.1696, 16903.95
695.6517, 16875.81
696.1339, 16850.96
696.6160, 16825.75
697.0981, 16793.43
697.5802, 16757.09
698.0623, 16730.16
698.5444, 16715.79
699.0266, 16695.32
699.5087, 16653.52
699.9908, 16596.68
700.4729, 16549.68
700.9550, 16524.71
701.4371, 16490.82
701.9193, 16428.75
702.4014, 16374.98
702.8835, 16361.69
703.3656, 16372.82
703.8477, 16371.58
704.3298, 16341.93
704.8120, 16299.21
705.2941, 16259.22
705.7762, 16222.28
706.2583, 16188.02
706.7404, 16155.76
707.2225, 16133.36
707.7046, 16131.09
708.1867, 16137.49
708.6688, 16121.51
709.1509, 16071.63
709.6331, 16029.98
710.1152, 15999.05
710.5973, 15976.91
711.0794, 15972.20
711.5615, 15972.70
712.0436, 15954.58
712.5258, 15909.57
713.0079, 15860.56
713.4900, 15834.53
713.9721, 15827.90
714.4542, 15823.75
714.9363, 15824.00
715.4185, 15810.24
715.9006, 15766.45
716.3827, 15712.09
716.8648, 15681.74
717.3469, 15679.70
717.8290, 15673.33
718.3112, 15652.51
718.7933, 15634.86
719.2754, 15638.29
719.7575, 15646.62
720.2396, 15632.88
720.7217, 15592.17
721.2039, 15547.11
721.6860, 15517.03
722.1681, 15501.07
722.6502, 15501.58
723.1323, 15522.29
723.6144, 15527.49
724.0966, 15500.24
724.5787, 15461.49
725.0608, 15434.10
725.5429, 15417.80
726.0250, 15405.96
726.5071, 15402.26
726.9893, 15398.27
727.4714, 15388.57
727.9535, 15378.45
728.4356, 15374.13
728.9177, 15376.08
729.3998, 15381.71
729.8820, 15391.21
730.3641, 15399.24
730.8462, 15388.20
731.3283, 15356.86
731.8104, 15342.85
732.2925, 15358.73
732.7747, 15380.67
733.2568, 15390.02
733.7389, 15388.71
734.2210, 15388.84
734.7031, 15390.63
735.1852, 15393.21
735.6674, 15400.40
736.1495, 15404.99
736.6316, 15393.36
737.1137, 15373.98
737.5958, 15373.51
738.0779, 15406.91
738.5601, 15447.62
739.0422, 15451.96
739.5243, 15424.48
740.0064, 15409.72
740.4885, 15413.46
740.9706, 15419.40
741.4528, 15416.71
741.9349, 15411.85
742.4170, 15419.79
742.8991, 15443.13
743.3812, 15469.15
743.8633, 15507.01
744.3455, 15536.94
744.8276, 15545.69
745.3097, 15540.79
745.7918, 15530.35
746.2739, 15518.30
746.7560, 15514.08
747.2382, 15529.06
747.7203, 15558.64
748.2024, 15590.14
748.6845, 15623.73
749.1666, 15655.88
749.6487, 15685.28
750.1309, 15713.23
750.6130, 15742.81
751.0951, 15774.33
751.5772, 15795.80
752.0593, 15795.67
752.5414, 15800.94
753.0236, 15820.22
753.5057, 15845.15
753.9878, 15868.18
754.4699, 15888.99
754.9520, 15912.10
755.4341, 15941.56
755.9163, 15971.22
756.3984, 15988.33
756.8805, 15997.33
757.3626, 16022.39
757.8447, 16069.05
758.3268, 16105.82
758.8090, 16106.14
759.2911, 16084.26
759.7732, 16088.21
760.2553, 16137.63
760.7374, 16178.24
761.2195, 16207.52
761.7017, 16231.77
762.1838, 16252.19
762.6659, 16270.45
763.1480, 16287.80
763.6301, 16304.45
764.1122, 16324.39
764.5944, 16350.79
765.0765, 16382.26
765.5586, 16419.87
766.0407, 16461.57
766.5228, 16495.38
767.0049, 16516.39
767.4871, 16532.04
767.9692, 16551.26
768.4513, 16573.96
768.9334, 16601.97
769.4155, 16639.83
769.8976, 16675.25
770.3798, 16702.68
770.8619, 16728.88
771.3440, 16761.02
771.8261, 16797.22
772.3082, 16826.90
772.7903, 16841.88
773.2725, 16855.34
773.7546, 16879.18
774.2367, 16906.22
774.7188, 16922.36
775.2009, 16928.21
775.6830, 16939.67
776.1652, 16968.35
776.6473, 17004.70
777.1294, 17022.24
777.6115, 17015.46
778.0936, 17029.59
778.5757, 17080.30
779.0579, 17128.73
779.5400, 17155.86
780.0221, 17166.36
780.5042, 17164.46
780.9863, 17145.64
781.4684, 17137.67
781.9506, 17155.47
782.4327, 17177.84
782.9148, 17193.73
783.3969, 17203.83
783.8790, 17206.78
784.3611, 17204.29
784.8433, 17209.59
785.3254, 17240.16
785.8075, 17284.47
786.2896, 17306.57
786.7717, 17306.10
787.2538, 17299.00
787.7360, 17285.21
788.2181, 17278.53
788.7002, 17296.51
789.1823, 17334.55
789.6644, 17352.71
790.1465, 17327.69
790.6286, 17317.45
791.1107, 17338.80
791.5928, 17364.64
792.0750, 17377.10
792.5571, 17380.31
793.0392, 17385.93
793.5213, 17398.10
794.0034, 17413.26
794.4855, 17429.97
794.9677, 17446.88
795.4498, 17462.02
795.9319, 17474.99
796.4140, 17483.87
796.8961, 17487.78
797.3782, 17487.72
797.8604, 17483.73
798.3425, 17475.16
798.8246, 17476.79
799.3067, 17496.16
799.7888, 17511.86
800.2709, 17518.86
800.7531, 17519.84
801.2352, 17509.46
801.7173, 17492.66
802.1994, 17492.41
802.6815, 17524.95
803.1636, 17560.20
803.6458, 17580.39
804.1279, 17596.06
804.6100, 17622.94
805.0921, 17658.04
805.5742, 17684.85
806.0563, 17693.87
806.5385, 17695.57
807.0206, 17709.62
807.5027, 17734.28
807.9848, 17738.67
808.4669, 17714.97
808.9490, 17706.89
809.4312, 17740.28
809.9133, 17790.38
810.3954, 17821.04
810.8775, 17829.57
811.3596, 17834.32
811.8417, 17828.83
812.3239, 17827.89
812.8060, 17829.17
813.2881, 17841.34
813.7702, 17878.20
814.2523, 17934.91
814.7344, 17989.94
815.2166, 18034.04
815.6987, 18069.05
816.1808, 18090.43
816.6629, 18105.22
817.1450, 18132.22
817.6271, 18171.64
818.1093, 18203.48
818.5914, 18214.99
819.0735, 18219.88
819.5556, 18247.10
820.0377, 18302.16
820.5198, 18342.74
821.0020, 18358.59
821.4841, 18379.56
821.9662, 18421.45
822.4483, 18470.52
822.9304, 18512.83
823.4125, 18548.31
823.8947, 18578.82
824.3768, 18604.91
824.8589, 18625.99
825.3410, 18633.54
825.8231, 18641.75
826.3052, 18667.18
826.7874, 18709.32
827.2695, 18758.60
827.7516, 18811.46
828.2337, 18861.88
828.7158, 18899.52
829.1979, 18927.21
829.6801, 18956.37
830.1622, 18987.78
830.6443, 19021.18
831.1264, 19057.66
831.6085, 19091.64
832.0906, 19113.29
832.5728, 19120.11
833.0549, 19130.92
833.5370, 19143.64
834.0191, 19163.24
834.5012, 19194.35
834.9833, 19229.17
835.4655, 19263.62
835.9476, 19296.55
836.4297, 19325.30
836.9118, 19347.12
837.3939, 19367.93
837.8760, 19390.43
838.3582, 19414.29
838.8403, 19439.46
839.3224, 19465.70
839.8045, 19491.66
840.2866, 19516.63
840.7687, 19544.29
841.2509, 19584.50
841.7330, 19632.87
842.2151, 19660.09
842.6972, 19664.14
843.1793, 19670.03
843.6614, 19686.23
844.1436, 19708.61
844.6257, 19734.32
845.1078, 19762.96
845.5899, 19780.07
846.0720, 19768.24
846.5541, 19769.97
847.0363, 19800.20
847.5184, 19833.78
848.0005, 19857.21
848.4826, 19871.37
848.9647, 19879.93
849.4468, 19882.75
849.9290, 19884.95
850.4111, 19887.69
850.8932, 19892.62
851.3753, 19903.77
851.8574, 19918.28
852.3395, 19929.36
852.8217, 19935.13
853.3038, 19939.25
853.7859, 19945.92
854.2680, 19953.23
854.7501, 19954.32
855.2322, 19949.28
855.7144, 19942.21
856.1965, 19932.50
856.6786, 19927.84
857.1607, 19936.39
857.6428, 19952.54
858.1249, 19958.11
858.6071, 19948.29
859.0892, 19937.91
859.5713, 19924.49
860.0534, 19913.15
860.5355, 19902.97
861.0176, 19897.19
861.4998, 19900.45
861.9819, 19912.91
862.4640, 19928.29
862.9461, 19956.00
863.4282, 19973.14
863.9103, 19954.91
864.3925, 19921.28
864.8746, 19900.25
865.3567, 19893.56
865.8388, 19889.82
866.3209, 19883.36
866.8030, 19869.36
867.2852, 19832.66
867.7673, 19780.28
868.2494, 19751.25
868.7315, 19748.42
869.2136, 19751.94
869.6957, 19755.28
870.1779, 19755.85
870.6600, 19750.59
871.1421, 19739.50
871.6242, 19720.55
872.1063, 19681.93
872.5884, 19656.17
873.0705, 19659.79
873.5526, 19667.53
874.0347, 19669.52
874.5168, 19663.30
874.9990, 19642.28
875.4811, 19599.93
875.9632, 19559.75
876.4453, 19523.86
876.9274, 19499.04
877.4095, 19502.87
877.8917, 19516.65
878.3738, 19504.18
878.8559, 19460.81
879.3380, 19421.44
879.8201, 19417.86
880.3022, 19428.51
880.7844, 19415.04
881.2665, 19384.89
881.7486, 19367.53
882.2307, 19366.90
882.7128, 19364.62
883.1949, 19349.11
883.6771, 19324.80
884.1592, 19301.09
884.6413, 19278.49
885.1234, 19251.78
885.6055, 19220.87
886.0876, 19185.10
886.5698, 19139.55
887.0519, 19093.48
887.5340, 19055.48
888.0161, 19025.66
888.4982, 19004.10
888.9803, 18997.57
889.4625, 18989.73
889.9446, 18982.39
890.4267, 18968.58
890.9088, 18939.25
891.3909, 18901.15
891.8730, 18868.18
892.3552, 18844.20
892.8373, 18820.62
893.3194, 18794.58
893.8015, 18764.11
894.2836, 18722.68
894.7657, 18676.64
895.2479, 18639.52
895.7300, 18613.90
896.2121, 18594.43
896.6942, 18578.54
897.1763, 18561.91
897.6584, 18532.93
898.1406, 18493.44
898.6227, 18462.90
899.1048, 18443.87
899.5869, 18423.32
900.0690, 18394.56
900.5511, 18362.27
901.0333, 18333.70
901.5154, 18309.17
901.9975, 18280.03
902.4796, 18239.65
902.9617, 18206.91
903.4438, 18193.21
903.9260, 18180.55
904.4081, 18156.47
904.8902, 18124.25
905.3723, 18092.24
905.8544, 18060.54
906.3365, 18031.75
906.8187, 18008.71
907.3008, 17986.57
907.7829, 17967.47
908.2650, 17944.98
908.7471, 17905.98
909.2292, 17851.96
909.7114, 17804.13
910.1935, 17777.83
910.6756, 17758.62
911.1577, 17732.14
911.6398, 17701.84
912.1219, 17674.27
912.6041, 17649.76
913.0862, 17626.58
913.5683, 17604.01
914.0504, 17577.23
914.5325, 17534.10
915.0146, 17480.73
915.4968, 17453.32
915.9789, 17452.82
916.4610, 17455.76
916.9431, 17459.03
917.4252, 17451.13
917.9073, 17420.02
918.3895, 17372.32
918.8716, 17331.71
919.3537, 17298.05
919.8358, 17271.30
920.3179, 17260.12
920.8000, 17242.96
921.2822, 17200.62
921.7643, 17154.70
922.2464, 17132.93
922.7285, 17134.17
923.2106, 17125.36
923.6927, 17094.54
924.1749, 17063.04
924.6570, 17038.15
925.1391, 17013.71
925.6212, 16978.94
926.1033, 16942.49
926.5854, 16925.50
927.0676, 16934.78
927.5497, 16943.33
928.0318, 16932.51
928.5139, 16913.54
928.9960, 16894.05
929.4781, 16876.37
929.9603, 16865.16
930.4424, 16860.13
930.9245, 16856.06
931.4066, 16849.86
931.8887, 16841.35
932.3708, 16829.76
932.8530, 16815.53
933.3351, 16798.64
933.8172, 16779.60
934.2993, 16767.91
934.7814, 16767.48
935.2635, 16771.97
935.7457, 16775.37
936.2278, 16777.06
936.7099, 16771.96
937.1920, 16755.91
937.6741, 16752.26
938.1563, 16770.19
938.6384, 16785.97
939.1205, 16785.46
939.6026, 16775.77
940.0847, 16768.96
940.5668, 16765.01
941.0490, 16764.21
941.5311, 16772.61
942.0132, 16775.90
942.4953, 16765.72
942.9774, 16754.88
943.4595, 16754.01
943.9417, 16760.00
944.4238, 16761.98
944.9059, 16753.96
945.3880, 16757.17
945.8701, 16793.86
946.3522, 16828.71
946.8344, 16831.74
947.3165, 16821.98
947.7986, 16825.18
948.2807, 16844.53
948.7628, 16870.40
949.2449, 16901.18
949.7271, 16927.62
950.2092, 16942.20
950.6913, 16946.11
951.1734, 16932.30
951.6555, 16909.62
952.1376, 16906.65
952.6198, 16932.00
953.1019, 16965.79
953.5840, 16991.00
954.0661, 17008.73
954.5482, 17016.89
955.0303, 17018.48
955.5124, 17036.86
955.9945, 17075.29
956.4766, 17108.72
956.9587, 17123.04
957.4409, 17129.56
957.9230, 17146.55
958.4051, 17173.87
958.8872, 17197.59
959.3693, 17217.65
959.8514, 17234.79
960.3336, 17249.88
960.8157, 17260.51
961.2978, 17265.08
961.7799, 17263.48
962.2620, 17253.35
962.7441, 17224.91
963.2263, 17218.38
963.7084, 17245.59
964.1905, 17279.08
964.6726, 17318.43
965.1547, 17355.32
965.6368, 17378.73
966.1190, 17392.72
966.6011, 17417.50
967.0832, 17471.55
967.5653, 17504.08
968.0474, 17482.90
968.5295, 17460.45
969.0117, 17465.40
969.4938, 17488.02
969.9759, 17518.72
970.4580, 17553.15
970.9401, 17577.68
971.4222, 17579.39
971.9044, 17580.87
972.3865, 17598.79
972.8686, 17621.76
973.3507, 17637.89
973.8328, 17648.66
974.3149, 17660.81
974.7971, 17675.99
975.2792, 17688.29
975.7613, 17689.54
976.2434, 17689.13
976.7255, 17699.67
977.2076, 17718.09
977.6898, 17739.73
978.1719, 17762.93
978.6540, 17783.16
979.1361, 17798.43
979.6182, 17813.85
980.1003, 17837.34
980.5825, 17865.64
981.0646, 17884.46
981.5467, 17895.78
982.0288, 17920.73
982.5109, 17963.31
982.9930, 17991.17
983.4752, 17980.37
983.9573, 17955.67
984.4394, 17968.05
984.9215, 18017.89
985.4036, 18046.45
985.8857, 18049.96
986.3679, 18052.95
986.8500, 18059.64
987.3321, 18074.84
987.8142, 18105.42
988.2963, 18144.72
988.7784, 18171.74
989.2606, 18183.43
989.7427, 18192.82
990.2248, 18199.21
990.7069, 18203.94
991.1890, 18201.19
991.6711, 18203.82
992.1533, 18226.54
992.6354, 18266.18
993.1175, 18304.31
993.5996, 18348.16
994.0817, 18377.46
994.5638, 18376.43
995.0460, 18379.67
995.5281, 18402.16
996.0102, 18434.36
996.4923, 18469.60
996.9744, 18505.91
997.4565, 18533.65
997.9387, 18542.27
998.4208, 18556.64
998.9029, 18590.31
999.3850, 18623.79
999.8671, 18641.42
1000.349, 18652.67
1000.831, 18671.50
1001.313, 18699.52
1001.796, 18729.64
1002.278, 18761.17
1002.760, 18790.56
1003.242, 18814.78
1003.724, 18836.87
1004.206, 18858.91
1004.688, 18881.49
1005.170, 18904.29
1005.653, 18927.75
1006.135, 18956.54
1006.617, 19000.75
1007.099, 19042.16
1007.581, 19056.48
1008.063, 19061.65
1008.545, 19084.21
1009.027, 19121.21
1009.509, 19157.29
1009.992, 19186.62
1010.474, 19211.54
1010.956, 19231.13
1011.438, 19250.49
1011.920, 19274.30
1012.402, 19304.83
1012.884, 19353.65
1013.366, 19416.36
1013.849, 19466.88
1014.331, 19494.31
1014.813, 19516.37
1015.295, 19553.22
1015.777, 19599.33
1016.259, 19646.58
1016.741, 19691.37
1017.223, 19708.17
1017.705, 19696.80
1018.188, 19698.11
1018.670, 19733.25
1019.152, 19787.71
1019.634, 19847.02
1020.116, 19906.71
1020.598, 19940.27
1021.080, 19948.97
1021.562, 19974.95
1022.044, 20026.81
1022.527, 20069.35
1023.009, 20080.09
1023.491, 20081.75
1023.973, 20113.91
1024.455, 20173.81
1024.937, 20210.35
1025.419, 20219.04
1025.901, 20242.98
1026.384, 20292.87
1026.866, 20347.85
1027.348, 20396.59
1027.830, 20439.09
1028.312, 20472.90
1028.794, 20497.41
1029.276, 20540.31
1029.758, 20614.03
1030.240, 20659.53
1030.723, 20651.07
1031.205, 20648.74
1031.687, 20698.15
1032.169, 20771.93
1032.651, 20810.29
1033.133, 20804.13
1033.615, 20840.81
1034.097, 20949.32
1034.579, 21036.05
1035.062, 21070.14
1035.544, 21098.57
1036.026, 21152.99
1036.508, 21221.68
1036.990, 21280.94
1037.472, 21330.34
1037.954, 21371.64
1038.436, 21403.93
1038.919, 21428.68
1039.401, 21431.41
1039.883, 21442.82
1040.365, 21495.67
1040.847, 21567.25
1041.329, 21604.27
1041.811, 21595.46
1042.293, 21613.62
1042.776, 21688.61
1043.258, 21751.14
1043.740, 21785.13
1044.222, 21806.58
1044.704, 21815.69
1045.186, 21822.86
1045.668, 21849.40
1046.150, 21899.74
1046.632, 21946.35
1047.115, 21979.96
1047.597, 22018.14
1048.079, 22070.07
1048.561, 22122.83
1049.043, 22167.38
1049.525, 22206.41
1050.007, 22246.16
1050.489, 22287.00
1050.971, 22328.27
1051.454, 22369.06
1051.936, 22410.86
1052.418, 22452.92
1052.900, 22497.27
1053.382, 22553.57
1053.864, 22610.09
1054.346, 22641.82
1054.828, 22644.71
1055.311, 22655.66
1055.793, 22686.78
1056.275, 22724.34
1056.757, 22766.71
1057.239, 22811.00
1057.721, 22858.15
1058.203, 22904.24
1058.685, 22939.95
1059.167, 22964.49
1059.650, 22999.07
1060.132, 23062.92
1060.614, 23121.47
1061.096, 23159.42
1061.578, 23189.49
1062.060, 23219.87
1062.542, 23250.11
1063.024, 23274.90
1063.506, 23294.67
1063.989, 23324.63
1064.471, 23379.58
1064.953, 23432.53
1065.435, 23467.07
1065.917, 23500.50
1066.399, 23550.13
1066.881, 23605.54
1067.363, 23647.60
1067.846, 23675.03
1068.328, 23705.44
1068.810, 23749.29
1069.292, 23790.65
1069.774, 23818.62
1070.256, 23845.52
1070.738, 23882.48
1071.220, 23923.53
1071.703, 23956.34
1072.185, 23982.47
1072.667, 24022.20
1073.149, 24092.64
1073.631, 24155.05
1074.113, 24181.94
1074.595, 24204.15
1075.077, 24242.13
1075.559, 24290.22
1076.042, 24340.18
1076.524, 24391.11
1077.006, 24446.92
1077.488, 24513.32
1077.970, 24571.08
1078.452, 24598.07
1078.934, 24628.38
1079.416, 24692.33
1079.898, 24768.11
1080.380, 24826.88
1080.863, 24871.79
1081.345, 24926.85
1081.827, 25002.36
1082.309, 25072.36
1082.791, 25113.71
1083.273, 25159.60
##END=



