##NAMES=Goudeyite
##RRUFFID=R060268
##IDEAL CHEMISTRY=Cu^2+^_6_Al(As^5+^O_4_)_3_(OH)_6_&#183;3H_2_O
##LOCALITY=Copper Stope, Majuba Hill mine, Pershing County, Nevada, USA
##OWNER=RRUFF
##SOURCE=Michael Scott
##DESCRIPTION=Green acicular crystals in spherical aggregates
##STATUS=The identification of this mineral has been confirmed only by X-ray diffraction
##URL=rruff.info/R060268
93.46167, 69.27512
93.94379, 68.08196
94.42590, 65.88337
94.90802, 63.63073
95.39014, 62.30109
95.87225, 62.10994
96.35437, 61.88146
96.83649, 60.83602
97.31860, 59.64794
97.80072, 59.13659
98.28284, 59.88828
98.76495, 61.44651
99.24707, 61.80164
99.72919, 60.24668
100.2113, 58.28847
100.6934, 55.69248
101.1755, 52.93859
101.6577, 50.89319
102.1398, 50.34211
102.6219, 51.51543
103.1040, 52.94672
103.5861, 55.72822
104.0682, 57.87681
104.5504, 57.91044
105.0325, 55.77432
105.5146, 52.91669
105.9967, 51.39183
106.4788, 51.97078
106.9609, 51.88835
107.4431, 50.52221
107.9252, 48.52831
108.4073, 46.67316
108.8894, 45.09254
109.3715, 44.02092
109.8536, 44.06808
110.3358, 45.51511
110.8179, 46.66572
111.3000, 46.23602
111.7821, 44.41733
112.2642, 43.12040
112.7463, 43.62119
113.2285, 44.67195
113.7106, 45.06908
114.1927, 44.58154
114.6748, 43.49762
115.1569, 41.94493
115.6390, 39.34370
116.1212, 37.80871
116.6033, 38.81530
117.0854, 40.70702
117.5675, 41.81661
118.0496, 41.25343
118.5317, 39.40257
119.0139, 38.09545
119.4960, 37.09998
119.9781, 37.04435
120.4602, 38.96780
120.9423, 41.88734
121.4244, 44.12590
121.9066, 44.32608
122.3887, 42.30968
122.8708, 40.67964
123.3529, 39.34010
123.8350, 38.34469
124.3171, 37.93580
124.7993, 38.02188
125.2814, 38.09075
125.7635, 37.54408
126.2456, 36.17145
126.7277, 35.40071
127.2098, 35.45085
127.6920, 36.02391
128.1741, 37.03411
128.6562, 38.58601
129.1383, 39.97040
129.6204, 40.12384
130.1025, 39.20704
130.5847, 38.08823
131.0668, 36.82647
131.5489, 35.57363
132.0310, 34.87285
132.5131, 34.94433
132.9952, 35.56260
133.4774, 36.81233
133.9595, 38.66415
134.4416, 40.01942
134.9237, 39.54684
135.4058, 36.90043
135.8879, 34.82449
136.3701, 34.51385
136.8522, 34.50710
137.3343, 33.71817
137.8164, 31.92018
138.2985, 30.12591
138.7806, 30.37785
139.2628, 35.01572
139.7449, 37.32304
140.2270, 35.06602
140.7091, 31.35353
141.1912, 28.99293
141.6733, 29.25727
142.1555, 31.37755
142.6376, 32.72768
143.1197, 32.84652
143.6018, 32.63626
144.0839, 31.80549
144.5660, 30.73974
145.0482, 30.06932
145.5303, 30.21140
146.0124, 31.02280
146.4945, 31.41709
146.9766, 31.22572
147.4587, 30.89014
147.9409, 30.47515
148.4230, 30.02873
148.9051, 29.75476
149.3872, 29.90242
149.8693, 30.35548
150.3514, 30.43849
150.8336, 29.94952
151.3157, 29.20434
151.7978, 28.29866
152.2799, 27.15640
152.7620, 26.39944
153.2441, 27.15746
153.7263, 28.61601
154.2084, 29.35004
154.6905, 28.09195
155.1726, 25.89804
155.6547, 25.20822
156.1368, 26.66304
156.6190, 28.56109
157.1011, 30.39961
157.5832, 31.96003
158.0653, 32.77511
158.5474, 32.19657
159.0295, 30.36970
159.5117, 29.25218
159.9938, 29.55438
160.4759, 29.92092
160.9580, 29.77456
161.4401, 29.25843
161.9222, 28.83577
162.4044, 28.98436
162.8865, 29.85642
163.3686, 30.40678
163.8507, 30.78931
164.3328, 30.76223
164.8149, 29.86849
165.2971, 28.28466
165.7792, 26.76121
166.2613, 26.17263
166.7434, 26.82663
167.2255, 27.68174
167.7076, 29.35872
168.1898, 30.80521
168.6719, 31.14136
169.1540, 30.23751
169.6361, 28.76301
170.1182, 27.62419
170.6003, 26.94715
171.0825, 26.34021
171.5646, 25.34168
172.0467, 24.57982
172.5288, 24.97709
173.0109, 26.89438
173.4930, 29.41381
173.9752, 31.16905
174.4573, 32.27932
174.9394, 32.67327
175.4215, 31.88803
175.9036, 30.37427
176.3857, 29.13729
176.8679, 28.47098
177.3500, 28.16673
177.8321, 27.90735
178.3142, 27.67735
178.7963, 27.57235
179.2784, 27.95539
179.7606, 28.69774
180.2427, 28.61550
180.7248, 26.44345
181.2069, 24.17125
181.6890, 23.68039
182.1711, 25.15789
182.6533, 27.14924
183.1354, 28.32424
183.6175, 28.60269
184.0996, 28.70048
184.5817, 28.35358
185.0638, 28.13404
185.5460, 28.74324
186.0281, 30.27839
186.5102, 31.63314
186.9923, 30.78807
187.4744, 26.15812
187.9565, 23.63623
188.4387, 25.45973
188.9208, 28.43762
189.4029, 30.39219
189.8850, 30.65003
190.3671, 29.91352
190.8492, 29.49809
191.3314, 29.61538
191.8135, 29.74727
192.2956, 29.83827
192.7777, 29.93743
193.2598, 30.11596
193.7419, 30.39742
194.2241, 30.71193
194.7062, 30.89264
195.1883, 31.21160
195.6704, 31.02026
196.1525, 29.92027
196.6346, 28.42721
197.1168, 27.05672
197.5989, 26.02036
198.0810, 25.34691
198.5631, 25.17996
199.0452, 26.56313
199.5273, 27.06382
200.0095, 25.36168
200.4916, 22.65093
200.9737, 20.82731
201.4558, 20.72038
201.9379, 22.04346
202.4200, 24.20817
202.9022, 28.15177
203.3843, 31.19435
203.8664, 32.12473
204.3485, 31.38863
204.8306, 30.06321
205.3127, 28.31144
205.7949, 26.57127
206.2770, 25.77797
206.7591, 26.21823
207.2412, 26.86148
207.7233, 27.19860
208.2054, 27.25413
208.6876, 27.16693
209.1697, 26.97506
209.6518, 26.66188
210.1339, 26.19993
210.6160, 25.52787
211.0981, 24.88590
211.5803, 24.43321
212.0624, 24.16981
212.5445, 24.11497
213.0266, 24.40787
213.5087, 24.84824
213.9908, 25.31838
214.4730, 25.83476
214.9551, 26.18715
215.4372, 25.97388
215.9193, 25.04483
216.4014, 24.48281
216.8836, 25.20497
217.3657, 26.07055
217.8478, 26.24407
218.3299, 25.51553
218.8120, 24.44852
219.2941, 23.71432
219.7763, 23.25724
220.2584, 23.35372
220.7405, 24.64574
221.2226, 26.10845
221.7047, 27.10168
222.1868, 27.44260
222.6690, 27.27109
223.1511, 26.70645
223.6332, 25.41483
224.1153, 24.49902
224.5974, 23.92179
225.0795, 23.76952
225.5617, 24.30855
226.0438, 25.55155
226.5259, 27.02250
227.0080, 27.88536
227.4901, 27.81590
227.9722, 27.66710
228.4544, 27.42261
228.9365, 27.15433
229.4186, 26.90121
229.9007, 26.68044
230.3828, 26.50965
230.8649, 26.44345
231.3471, 26.76558
231.8292, 26.70175
232.3113, 25.71026
232.7934, 24.67846
233.2755, 24.44093
233.7576, 25.19452
234.2398, 26.39025
234.7219, 27.11065
235.2040, 26.98217
235.6861, 27.00812
236.1682, 27.61746
236.6503, 28.15130
237.1325, 27.78382
237.6146, 26.34402
238.0967, 24.67055
238.5788, 24.07637
239.0609, 25.30914
239.5430, 25.92042
240.0252, 25.40763
240.5073, 24.44804
240.9894, 23.65047
241.4715, 23.15818
241.9536, 22.89132
242.4357, 22.78163
242.9179, 22.87597
243.4000, 22.92320
243.8821, 22.63761
244.3642, 22.41558
244.8463, 22.80216
245.3284, 23.93166
245.8106, 25.25608
246.2927, 26.27656
246.7748, 27.02043
247.2569, 27.05467
247.7390, 25.76439
248.2211, 23.96358
248.7033, 22.44413
249.1854, 21.27187
249.6675, 20.78348
250.1496, 21.93077
250.6317, 24.40199
251.1138, 25.87045
251.5960, 25.00158
252.0781, 23.23598
252.5602, 22.51272
253.0423, 23.13784
253.5244, 24.04531
254.0065, 24.37192
254.4887, 24.26222
254.9708, 24.04724
255.4529, 23.69491
255.9350, 23.32747
256.4171, 23.10567
256.8992, 23.03516
257.3813, 23.10573
257.8635, 23.51278
258.3456, 24.04540
258.8277, 24.31895
259.3098, 24.03982
259.7919, 23.55052
260.2740, 23.31826
260.7562, 23.36034
261.2383, 23.58461
261.7204, 24.37368
262.2025, 25.20868
262.6846, 25.38726
263.1667, 24.58916
263.6489, 23.19455
264.1310, 21.39096
264.6131, 18.85919
265.0952, 17.31653
265.5773, 18.51004
266.0594, 20.71707
266.5416, 22.49339
267.0237, 23.53445
267.5058, 23.81438
267.9879, 22.97523
268.4700, 20.66285
268.9521, 18.88639
269.4343, 18.50565
269.9164, 18.86414
270.3985, 19.68481
270.8806, 20.93963
271.3627, 22.27503
271.8448, 23.37297
272.3270, 24.30984
272.8091, 24.62821
273.2912, 23.60498
273.7733, 22.29000
274.2554, 21.20189
274.7375, 20.44347
275.2197, 20.03679
275.7018, 20.06944
276.1839, 20.59997
276.6660, 21.18702
277.1481, 22.37713
277.6302, 23.14089
278.1124, 22.48609
278.5945, 20.56581
279.0766, 18.78229
279.5587, 18.73735
280.0408, 20.67234
280.5229, 22.15413
281.0051, 23.17340
281.4872, 23.58141
281.9693, 22.77664
282.4514, 21.14589
282.9335, 19.88566
283.4156, 20.35465
283.8978, 22.61564
284.3799, 23.60279
284.8620, 21.70770
285.3441, 20.09638
285.8262, 20.17369
286.3083, 21.39719
286.7905, 22.46875
287.2726, 22.42082
287.7547, 21.37920
288.2368, 20.54666
288.7189, 20.07575
289.2010, 19.65135
289.6832, 18.99622
290.1653, 18.36548
290.6474, 18.26072
291.1295, 19.09250
291.6116, 20.46086
292.0938, 20.58865
292.5759, 17.73652
293.0580, 16.18566
293.5401, 17.80259
294.0222, 20.64079
294.5043, 22.49435
294.9865, 22.36595
295.4686, 20.96456
295.9507, 19.95441
296.4328, 19.37251
296.9149, 19.17836
297.3970, 19.33930
297.8792, 19.82722
298.3613, 20.90525
298.8434, 22.57844
299.3255, 24.12552
299.8076, 24.17795
300.2897, 21.74030
300.7719, 20.05032
301.2540, 19.48903
301.7361, 19.42380
302.2182, 19.55370
302.7003, 19.78234
303.1824, 20.07767
303.6646, 20.46859
304.1467, 21.09988
304.6288, 21.27409
305.1109, 20.36205
305.5930, 19.56827
306.0751, 19.74768
306.5573, 20.66685
307.0394, 21.30540
307.5215, 20.53728
308.0036, 18.17419
308.4857, 17.14797
308.9678, 19.35404
309.4500, 21.07893
309.9321, 20.73319
310.4142, 19.08518
310.8963, 17.83778
311.3784, 18.18463
311.8605, 19.91203
312.3427, 21.33331
312.8248, 22.60617
313.3069, 23.33055
313.7890, 23.01778
314.2711, 22.25461
314.7532, 21.82264
315.2354, 22.12291
315.7175, 22.86528
316.1996, 23.21006
316.6817, 22.92554
317.1638, 22.57782
317.6459, 22.05028
318.1281, 21.59098
318.6102, 21.59094
319.0923, 22.12580
319.5744, 22.67807
320.0565, 22.23927
320.5386, 19.98524
321.0208, 18.67257
321.5029, 18.85891
321.9850, 19.52120
322.4671, 20.21997
322.9492, 20.80098
323.4313, 21.14032
323.9135, 21.01362
324.3956, 20.25293
324.8777, 19.88803
325.3598, 21.07416
325.8419, 21.58565
326.3240, 19.52630
326.8062, 15.89552
327.2883, 13.44953
327.7704, 14.59972
328.2525, 19.08944
328.7346, 22.34943
329.2167, 24.05072
329.6989, 24.73342
330.1810, 23.89768
330.6631, 22.29659
331.1452, 20.99609
331.6273, 20.58698
332.1094, 20.78400
332.5916, 20.68064
333.0737, 19.98129
333.5558, 19.49052
334.0379, 19.35416
334.5200, 19.44826
335.0021, 19.89141
335.4843, 20.68856
335.9664, 21.22702
336.4485, 20.12432
336.9306, 16.21326
337.4127, 14.18384
337.8948, 16.42639
338.3770, 19.11013
338.8591, 19.74549
339.3412, 18.28113
339.8233, 16.57953
340.3055, 16.83000
340.7876, 19.34648
341.2697, 20.61245
341.7518, 19.53399
342.2339, 18.17664
342.7160, 17.20245
343.1982, 16.58896
343.6803, 16.08271
344.1624, 15.36209
344.6445, 14.63459
345.1266, 15.11985
345.6087, 17.97749
346.0909, 20.14218
346.5730, 20.36082
347.0551, 19.51478
347.5372, 18.63321
348.0193, 18.08617
348.5014, 17.83036
348.9836, 17.81415
349.4657, 18.09036
349.9478, 18.43112
350.4299, 18.85784
350.9120, 19.27842
351.3941, 19.60246
351.8763, 19.81543
352.3584, 20.02094
352.8405, 20.37279
353.3226, 20.88088
353.8047, 21.24332
354.2868, 21.60815
354.7690, 21.58141
355.2511, 20.63585
355.7332, 19.00490
356.2153, 17.66514
356.6974, 17.49631
357.1795, 18.16793
357.6617, 18.29519
358.1438, 17.50914
358.6259, 16.92472
359.1080, 17.63693
359.5901, 18.87481
360.0722, 19.29075
360.5544, 17.88836
361.0365, 16.05819
361.5186, 16.00331
362.0007, 17.98013
362.4828, 19.72241
362.9649, 20.18266
363.4471, 19.98752
363.9292, 19.87317
364.4113, 19.95910
364.8934, 19.90773
365.3755, 19.13606
365.8576, 17.86910
366.3398, 17.47055
366.8219, 18.67464
367.3040, 20.21526
367.7861, 20.76061
368.2682, 20.39965
368.7503, 19.82919
369.2325, 18.83479
369.7146, 17.94891
370.1967, 18.46779
370.6788, 20.77737
371.1609, 22.75256
371.6430, 22.34940
372.1252, 20.23962
372.6073, 18.70357
373.0894, 18.20300
373.5715, 18.23994
374.0536, 18.51947
374.5357, 19.02744
375.0179, 19.80369
375.5000, 21.14474
375.9821, 22.48302
376.4642, 22.36039
376.9463, 19.99391
377.4284, 18.17002
377.9106, 18.52765
378.3927, 19.96897
378.8748, 20.40002
379.3569, 19.16368
379.8390, 17.66194
380.3211, 17.92929
380.8033, 20.46143
381.2854, 21.78290
381.7675, 20.74356
382.2496, 19.05321
382.7317, 17.93718
383.2138, 17.48846
383.6960, 17.30322
384.1781, 17.05365
384.6602, 16.77854
385.1423, 17.02745
385.6244, 18.40179
386.1065, 19.52781
386.5887, 19.71353
387.0708, 19.38766
387.5529, 19.28850
388.0350, 19.74129
388.5171, 20.55877
388.9992, 21.34860
389.4814, 22.41740
389.9635, 22.93003
390.4456, 22.69511
390.9277, 22.04342
391.4098, 21.01860
391.8919, 19.75517
392.3741, 18.66919
392.8562, 18.20368
393.3383, 18.41111
393.8204, 18.85203
394.3025, 20.18421
394.7846, 21.05799
395.2668, 20.54752
395.7489, 19.28939
396.2310, 18.56140
396.7131, 19.16699
397.1952, 20.60858
397.6773, 21.08590
398.1595, 19.64689
398.6416, 18.81863
399.1237, 19.32982
399.6058, 20.26233
400.0879, 20.80035
400.5700, 20.77029
401.0522, 20.62211
401.5343, 20.99851
402.0164, 22.05088
402.4985, 22.71491
402.9806, 22.84588
403.4627, 22.64587
403.9449, 22.04932
404.4270, 21.18131
404.9091, 20.30413
405.3912, 19.50471
405.8733, 18.85004
406.3554, 18.60771
406.8376, 18.93625
407.3197, 19.28013
407.8018, 19.55069
408.2839, 19.66460
408.7660, 19.39813
409.2481, 18.60472
409.7303, 17.92900
410.2124, 18.16513
410.6945, 19.24718
411.1766, 20.20398
411.6587, 21.08378
412.1408, 21.41554
412.6230, 20.43320
413.1051, 18.35409
413.5872, 16.82517
414.0693, 16.54428
414.5514, 17.23342
415.0335, 18.88304
415.5157, 21.63656
415.9978, 23.71181
416.4799, 23.50051
416.9620, 21.77174
417.4441, 21.10085
417.9262, 22.73344
418.4084, 23.89849
418.8905, 22.08658
419.3726, 18.55464
419.8547, 16.91518
420.3368, 18.75471
420.8189, 21.73909
421.3011, 21.69099
421.7832, 17.40013
422.2653, 15.39852
422.7474, 18.90430
423.2295, 23.27752
423.7116, 24.06124
424.1938, 21.28539
424.6759, 18.30951
425.1580, 17.73965
425.6401, 19.44366
426.1222, 20.96801
426.6043, 22.89425
427.0865, 24.00439
427.5686, 23.30771
428.0507, 21.82899
428.5328, 21.07318
429.0149, 21.60286
429.4970, 22.69477
429.9792, 23.00709
430.4613, 21.76049
430.9434, 21.46821
431.4255, 23.11545
431.9076, 24.68444
432.3897, 24.86704
432.8719, 23.87974
433.3540, 22.78026
433.8361, 22.34341
434.3182, 22.52885
434.8003, 23.19103
435.2824, 25.48746
435.7646, 26.38581
436.2467, 23.97776
436.7288, 20.52887
437.2109, 18.43811
437.6930, 18.45909
438.1751, 19.58104
438.6573, 20.84823
439.1394, 22.31712
439.6215, 23.07531
440.1036, 22.70326
440.5857, 21.87744
441.0678, 20.78635
441.5500, 19.58660
442.0321, 18.81023
442.5142, 18.93112
442.9963, 19.55970
443.4784, 19.93767
443.9605, 20.00728
444.4427, 20.31104
444.9248, 21.46472
445.4069, 22.83539
445.8890, 23.25079
446.3711, 22.30761
446.8532, 21.41031
447.3354, 21.66542
447.8175, 22.48778
448.2996, 22.41652
448.7817, 21.00780
449.2638, 19.46528
449.7459, 19.18657
450.2281, 20.26980
450.7102, 20.96031
451.1923, 21.01006
451.6744, 20.81473
452.1565, 20.30755
452.6386, 19.72567
453.1208, 19.78782
453.6029, 20.93905
454.0850, 22.73619
454.5671, 23.95497
455.0492, 24.60174
455.5313, 24.57800
456.0135, 23.30951
456.4956, 21.75807
456.9777, 20.54528
457.4598, 19.83488
457.9419, 19.62856
458.4240, 19.99690
458.9062, 20.95011
459.3883, 21.71620
459.8704, 22.07024
460.3525, 22.48792
460.8346, 23.51278
461.3167, 24.49792
461.7989, 24.38824
462.2810, 22.75887
462.7631, 20.77398
463.2452, 20.41191
463.7273, 22.01873
464.2094, 23.18567
464.6916, 23.29619
465.1737, 23.17575
465.6558, 23.30390
466.1379, 23.62408
466.6200, 23.84907
467.1021, 23.68296
467.5843, 23.38272
468.0664, 23.66400
468.5485, 24.68197
469.0306, 25.08925
469.5127, 23.56363
469.9948, 21.50484
470.4770, 21.24626
470.9591, 23.35329
471.4412, 25.41219
471.9233, 26.05985
472.4054, 25.88423
472.8875, 26.01420
473.3697, 26.67412
473.8518, 27.22974
474.3339, 27.03754
474.8160, 26.09774
475.2981, 25.44769
475.7802, 25.29741
476.2624, 25.20883
476.7445, 24.97830
477.2266, 24.66933
477.7087, 24.38201
478.1908, 24.15140
478.6729, 24.05020
479.1551, 24.26030
479.6372, 25.19262
480.1193, 25.43435
480.6014, 24.24383
481.0835, 23.12255
481.5656, 23.06523
482.0478, 23.82067
482.5299, 24.50570
483.0120, 24.51734
483.4941, 24.06328
483.9762, 23.97790
484.4583, 24.62475
484.9405, 24.88655
485.4226, 24.14138
485.9047, 23.23387
486.3868, 22.76554
486.8689, 22.82989
487.3510, 23.24339
487.8332, 24.03409
488.3153, 25.08731
488.7974, 25.84479
489.2795, 26.21561
489.7616, 26.46293
490.2437, 27.11504
490.7259, 27.65688
491.2080, 27.07000
491.6901, 24.55641
492.1722, 22.11886
492.6543, 21.48009
493.1364, 22.08735
493.6186, 22.18301
494.1007, 21.16506
494.5828, 20.25271
495.0649, 21.19938
495.5470, 24.27846
496.0291, 25.69667
496.5113, 23.95523
496.9934, 21.80992
497.4755, 20.71496
497.9576, 20.51634
498.4397, 20.77957
498.9218, 21.33961
499.4040, 21.82530
499.8861, 21.30628
500.3682, 18.53027
500.8503, 17.09861
501.3324, 17.74644
501.8145, 18.93787
502.2967, 20.07470
502.7788, 20.93177
503.2609, 21.21336
503.7430, 20.56885
504.2251, 19.36456
504.7072, 19.09800
505.1894, 20.19255
505.6715, 21.26057
506.1536, 22.31635
506.6357, 22.96886
507.1178, 22.58916
507.5999, 21.18355
508.0821, 19.97020
508.5642, 19.91163
509.0463, 20.73565
509.5284, 21.89984
510.0105, 23.61538
510.4926, 24.55545
510.9748, 23.41366
511.4569, 21.01009
511.9390, 19.25745
512.4211, 18.15219
512.9032, 17.91807
513.3853, 19.76821
513.8674, 22.27368
514.3495, 22.50824
514.8317, 19.82961
515.3138, 16.78931
515.7959, 16.04558
516.2780, 17.79373
516.7601, 18.98725
517.2422, 19.14636
517.7244, 19.38839
518.2065, 20.16589
518.6886, 21.23565
519.1707, 22.38242
519.6528, 23.49125
520.1349, 24.23224
520.6171, 24.07351
521.0992, 22.89792
521.5813, 21.28992
522.0634, 17.91408
522.5455, 15.46957
523.0276, 15.55135
523.5098, 17.18627
523.9919, 18.54539
524.4740, 18.83110
524.9561, 18.49536
525.4382, 17.83534
525.9203, 16.83186
526.4025, 17.10781
526.8846, 20.11355
527.3667, 23.07036
527.8488, 22.58754
528.3309, 19.29834
528.8130, 17.35903
529.2952, 19.54364
529.7773, 22.39770
530.2594, 22.51358
530.7415, 20.34868
531.2236, 18.16679
531.7057, 16.84866
532.1879, 16.39627
532.6700, 16.93001
533.1521, 19.24795
533.6342, 20.72964
534.1163, 21.06518
534.5984, 20.77258
535.0806, 19.77059
535.5627, 18.41029
536.0448, 17.42688
536.5269, 17.26970
537.0090, 17.83261
537.4911, 18.98729
537.9733, 21.63040
538.4554, 22.87013
538.9375, 21.23237
539.4196, 19.10225
539.9017, 17.66314
540.3839, 17.04579
540.8660, 17.10373
541.3481, 18.14084
541.8302, 19.56803
542.3123, 19.94195
542.7944, 19.14017
543.2766, 18.33627
543.7587, 17.81941
544.2408, 17.69271
544.7229, 18.28166
545.2050, 19.74073
545.6871, 20.55275
546.1693, 19.70233
546.6514, 18.25114
547.1335, 17.01985
547.6156, 16.20290
548.0977, 16.48004
548.5798, 18.53604
549.0620, 21.55592
549.5441, 22.77674
550.0262, 19.63705
550.5083, 18.09024
550.9904, 19.60919
551.4725, 21.62993
551.9547, 22.39915
552.4368, 21.80543
552.9189, 20.43025
553.4010, 18.52998
553.8831, 16.38845
554.3652, 15.17333
554.8474, 15.00478
555.3295, 15.47612
555.8116, 17.56653
556.2937, 19.51549
556.7758, 19.81278
557.2579, 18.47107
557.7401, 17.00714
558.2222, 15.90732
558.7043, 15.41107
559.1864, 16.53983
559.6685, 19.31944
560.1506, 20.78986
560.6328, 18.89548
561.1149, 15.39816
561.5970, 14.40413
562.0791, 16.84164
562.5612, 18.29350
563.0433, 17.08237
563.5255, 15.22125
564.0076, 14.43898
564.4897, 14.65714
564.9718, 14.73721
565.4539, 13.89691
565.9360, 12.56860
566.4182, 12.29248
566.9003, 13.98255
567.3824, 14.99667
567.8645, 14.72576
568.3466, 14.17191
568.8287, 13.83990
569.3109, 13.78697
569.7930, 13.94144
570.2751, 14.27110
570.7572, 14.76630
571.2393, 15.50780
571.7214, 16.53613
572.2036, 17.30184
572.6857, 17.62436
573.1678, 17.59727
573.6499, 17.18455
574.1320, 16.39936
574.6141, 15.95250
575.0963, 16.31650
575.5784, 16.87701
576.0605, 17.15236
576.5426, 17.16396
577.0247, 17.00511
577.5068, 16.68710
577.9890, 16.43071
578.4711, 16.73340
578.9532, 18.22123
579.4353, 18.62951
579.9174, 16.92656
580.3995, 15.31454
580.8817, 14.89769
581.3638, 15.35515
581.8459, 16.07782
582.3280, 16.83816
582.8101, 17.25694
583.2922, 16.40937
583.7744, 14.15673
584.2565, 12.75571
584.7386, 12.88575
585.2207, 13.36859
585.7029, 13.35324
586.1850, 13.02656
586.6671, 12.84074
587.1492, 12.70482
587.6313, 13.00814
588.1135, 14.61011
588.5956, 16.81145
589.0777, 17.68126
589.5598, 16.69475
590.0419, 15.59378
590.5240, 16.42530
591.0062, 19.33834
591.4883, 20.61731
591.9704, 19.21570
592.4525, 17.66315
592.9346, 16.19921
593.4167, 15.10804
593.8989, 14.90005
594.3810, 15.56293
594.8631, 16.21090
595.3452, 15.72598
595.8273, 14.26607
596.3094, 13.75318
596.7916, 14.62456
597.2737, 15.44022
597.7558, 15.41337
598.2379, 15.10059
598.7200, 15.13220
599.2021, 15.62156
599.6843, 15.98842
600.1664, 15.83488
600.6485, 15.43352
601.1306, 15.16117
601.6127, 15.03817
602.0948, 14.93905
602.5770, 14.80608
603.0591, 14.62229
603.5412, 14.32916
604.0233, 13.62163
604.5054, 13.32774
604.9875, 13.55992
605.4697, 14.09872
605.9518, 15.20789
606.4339, 16.49857
606.9160, 17.05275
607.3981, 16.30172
607.8802, 14.81873
608.3624, 13.52297
608.8445, 12.32751
609.3266, 12.13607
609.8087, 13.78455
610.2908, 15.57606
610.7729, 16.28663
611.2551, 16.14482
611.7372, 15.78576
612.2193, 15.11683
612.7014, 14.59381
613.1835, 14.65455
613.6656, 15.08602
614.1478, 15.44880
614.6299, 15.63212
615.1120, 15.69438
615.5941, 15.67056
616.0762, 15.55981
616.5583, 15.55961
617.0405, 15.89164
617.5226, 16.05545
618.0047, 15.82683
618.4868, 15.48002
618.9689, 15.22779
619.4510, 15.13268
619.9332, 15.24536
620.4153, 15.86336
620.8974, 16.66908
621.3795, 16.31726
621.8616, 14.55067
622.3438, 12.96033
622.8259, 11.89271
623.3080, 11.52354
623.7901, 12.21707
624.2722, 14.03096
624.7543, 15.67997
625.2365, 17.58306
625.7186, 18.56176
626.2007, 16.62276
626.6828, 12.91074
627.1649, 10.75614
627.6470, 11.57436
628.1292, 13.79165
628.6113, 14.90096
629.0934, 14.65277
629.5755, 14.33784
630.0576, 13.84079
630.5397, 13.40012
631.0219, 12.94114
631.5040, 12.63768
631.9861, 12.79125
632.4682, 13.50123
632.9503, 14.31463
633.4324, 14.91542
633.9146, 15.28765
634.3967, 15.25298
634.8788, 14.73844
635.3609, 14.39852
635.8430, 14.70336
636.3251, 15.40310
636.8073, 15.74075
637.2894, 15.48273
637.7715, 15.47663
638.2536, 16.22148
638.7357, 16.96087
639.2178, 17.01301
639.7000, 16.53482
640.1821, 16.16588
640.6642, 16.27258
641.1463, 16.50298
641.6284, 16.06007
642.1105, 14.77778
642.5927, 13.68312
643.0748, 12.57123
643.5569, 12.06775
644.0390, 13.12195
644.5211, 14.87127
645.0032, 15.38550
645.4854, 13.55580
645.9675, 12.02795
646.4496, 13.18096
646.9317, 15.67202
647.4138, 17.11753
647.8959, 17.16434
648.3781, 16.26896
648.8602, 14.57031
649.3423, 12.39481
649.8244, 11.35771
650.3065, 12.38819
650.7886, 13.20108
651.2708, 13.69937
651.7529, 13.98168
652.2350, 14.06573
652.7171, 13.98975
653.1992, 13.80734
653.6813, 13.51099
654.1635, 13.21082
654.6456, 12.89221
655.1277, 12.61094
655.6098, 13.30729
656.0919, 15.59120
656.5740, 17.61802
657.0562, 17.47474
657.5383, 15.51980
658.0204, 14.62634
658.5025, 15.85509
658.9846, 16.82461
659.4667, 16.57090
659.9489, 15.89030
660.4310, 15.58683
660.9131, 15.75020
661.3952, 16.09972
661.8773, 16.48844
662.3594, 16.79155
662.8416, 16.51894
663.3237, 15.45851
663.8058, 14.59816
664.2879, 14.16644
664.7700, 13.93274
665.2521, 13.67173
665.7343, 13.45035
666.2164, 13.51000
666.6985, 14.06145
667.1806, 14.72268
667.6627, 15.47830
668.1448, 16.08781
668.6270, 15.85367
669.1091, 14.71694
669.5912, 13.71713
670.0733, 13.82253
670.5554, 14.84883
671.0375, 15.45642
671.5197, 15.34370
672.0018, 15.29372
672.4839, 15.53330
672.9660, 15.73373
673.4481, 15.74516
673.9302, 15.52239
674.4124, 14.95297
674.8945, 13.76662
675.3766, 12.56176
675.8587, 11.93870
676.3408, 11.92279
676.8229, 12.87633
677.3051, 15.04370
677.7872, 17.12687
678.2693, 17.98771
678.7514, 17.70496
679.2335, 17.15823
679.7156, 15.87428
680.1978, 14.98464
680.6799, 14.68356
681.1620, 14.80793
681.6441, 15.57010
682.1262, 16.67809
682.6083, 17.19263
683.0905, 16.36110
683.5726, 15.00179
684.0547, 14.85900
684.5368, 15.92987
685.0189, 16.33177
685.5010, 15.39461
685.9832, 14.44750
686.4653, 14.81685
686.9474, 16.18152
687.4295, 16.84340
687.9116, 16.40052
688.3937, 15.74672
688.8759, 14.72608
689.3580, 13.89045
689.8401, 14.04849
690.3222, 15.02574
690.8043, 15.84411
691.2864, 15.85800
691.7686, 15.34191
692.2507, 14.90374
692.7328, 14.53124
693.2149, 14.27369
693.6970, 13.88593
694.1791, 13.98416
694.6613, 15.67423
695.1434, 18.08669
695.6255, 19.23337
696.1076, 18.49561
696.5897, 17.12003
697.0718, 14.79931
697.5540, 12.65855
698.0361, 12.45062
698.5182, 13.94967
699.0003, 15.33160
699.4824, 15.46315
699.9645, 14.84560
700.4467, 14.79480
700.9288, 15.67301
701.4109, 15.70787
701.8930, 13.70301
702.3751, 12.20360
702.8572, 12.83993
703.3394, 14.65816
703.8215, 16.14499
704.3036, 17.05346
704.7857, 17.34826
705.2678, 16.68937
705.7499, 15.56883
706.2321, 14.40367
706.7142, 13.36538
707.1963, 13.03671
707.6784, 13.77340
708.1605, 15.05283
708.6426, 15.86238
709.1248, 16.14452
709.6069, 16.15143
710.0890, 15.46693
710.5711, 15.00057
711.0532, 15.19668
711.5353, 15.72163
712.0175, 16.22956
712.4996, 16.66603
712.9817, 16.77949
713.4638, 15.93251
713.9459, 14.95076
714.4280, 15.27147
714.9102, 16.64987
715.3923, 17.59423
715.8744, 17.44799
716.3565, 16.82856
716.8386, 16.66664
717.3207, 17.07730
717.8029, 17.11627
718.2850, 16.51933
718.7671, 15.86240
719.2492, 14.78105
719.7313, 14.01283
720.2134, 14.74135
720.6956, 16.87059
721.1777, 18.32082
721.6598, 17.15606
722.1419, 15.13047
722.6240, 14.59573
723.1061, 15.21297
723.5883, 15.66239
724.0704, 15.56249
724.5525, 15.05410
725.0346, 14.13797
725.5167, 12.85264
725.9988, 12.58132
726.4810, 14.59195
726.9631, 15.78675
727.4452, 14.91599
727.9273, 13.85086
728.4094, 14.19168
728.8915, 15.68406
729.3737, 16.90706
729.8558, 17.09466
730.3379, 16.94254
730.8200, 17.38803
731.3021, 18.07402
731.7842, 17.83663
732.2664, 16.49184
732.7485, 15.06500
733.2306, 14.27238
733.7127, 14.07603
734.1948, 14.34029
734.6769, 15.21259
735.1591, 16.29258
735.6412, 18.34152
736.1233, 19.81017
736.6054, 19.52716
737.0875, 18.18727
737.5696, 17.11188
738.0518, 16.73167
738.5339, 16.54216
739.0160, 16.00683
739.4981, 15.43728
739.9802, 15.48876
740.4623, 16.14391
740.9445, 17.01925
741.4266, 18.04027
741.9087, 18.58899
742.3908, 17.27602
742.8729, 13.15107
743.3550, 11.27895
743.8372, 14.09035
744.3193, 16.27637
744.8014, 15.71149
745.2835, 14.21964
745.7656, 13.95956
746.2477, 15.16704
746.7299, 16.18724
747.2120, 15.79218
747.6941, 14.98072
748.1762, 14.85569
748.6583, 15.29274
749.1404, 16.14745
749.6226, 17.35250
750.1047, 17.73142
750.5868, 15.69830
751.0689, 11.69709
751.5510, 10.75764
752.0331, 15.11168
752.5153, 18.23803
752.9974, 18.25602
753.4795, 17.47610
753.9616, 16.95995
754.4437, 16.83512
754.9258, 17.34378
755.4080, 19.16778
755.8901, 20.45671
756.3722, 19.50636
756.8543, 17.44154
757.3364, 15.54714
757.8185, 14.17612
758.3007, 14.05273
758.7828, 15.75346
759.2649, 18.15137
759.7470, 18.56282
760.2291, 16.31357
760.7112, 15.44308
761.1934, 17.04696
761.6755, 18.46532
762.1576, 18.16896
762.6397, 17.11367
763.1218, 16.43412
763.6039, 16.24245
764.0861, 16.22168
764.5682, 16.11102
765.0503, 16.26924
765.5324, 17.45416
766.0145, 18.99847
766.4966, 19.55187
766.9788, 18.77277
767.4609, 17.39886
767.9430, 16.00423
768.4251, 14.72307
768.9072, 14.37476
769.3893, 15.17106
769.8715, 15.80531
770.3536, 15.91911
770.8357, 15.83347
771.3178, 15.82248
771.7999, 15.86557
772.2820, 15.85572
772.7642, 15.89384
773.2463, 15.73245
773.7284, 14.50261
774.2105, 13.66459
774.6926, 15.16723
775.1747, 18.25586
775.6569, 20.49710
776.1390, 20.65754
776.6211, 19.72268
777.1032, 18.89349
777.5853, 18.14370
778.0674, 17.18142
778.5496, 15.90801
779.0317, 15.14381
779.5138, 15.35223
779.9959, 16.21277
780.4780, 17.32238
780.9601, 19.01250
781.4423, 19.52537
781.9244, 17.53855
782.4065, 16.03352
782.8886, 16.20360
783.3707, 17.18511
783.8528, 18.44792
784.3350, 19.65424
784.8171, 19.79611
785.2992, 17.38182
785.7813, 14.57339
786.2634, 14.90784
786.7455, 17.24062
787.2277, 17.32601
787.7098, 14.36836
788.1919, 11.82826
788.6740, 12.52449
789.1561, 15.59037
789.6382, 17.93933
790.1204, 19.61070
790.6025, 20.43493
791.0846, 19.72570
791.5667, 18.88642
792.0488, 18.38793
792.5309, 18.20703
793.0131, 18.38978
793.4952, 19.02251
793.9773, 19.41526
794.4594, 19.04009
794.9415, 18.45721
795.4236, 18.05802
795.9058, 17.90029
796.3879, 18.19968
796.8700, 18.95654
797.3521, 19.55344
797.8342, 19.38095
798.3163, 18.48250
798.7985, 16.67296
799.2806, 13.46264
799.7627, 12.36828
800.2448, 15.25258
800.7269, 18.69668
801.2090, 19.70765
801.6912, 18.68805
802.1733, 18.10991
802.6554, 18.64405
803.1375, 18.56119
803.6196, 16.31902
804.1017, 14.45915
804.5839, 15.50935
805.0660, 18.26619
805.5481, 19.91012
806.0302, 19.39841
806.5123, 18.34026
806.9944, 18.29245
807.4766, 18.91960
807.9587, 19.62459
808.4408, 20.32930
808.9229, 20.32687
809.4050, 19.27213
809.8871, 17.97684
810.3693, 17.41638
810.8514, 17.58422
811.3335, 17.67607
811.8156, 17.43612
812.2977, 17.55325
812.7798, 18.12480
813.2620, 19.07201
813.7441, 20.92547
814.2262, 23.09610
814.7083, 23.85325
815.1904, 22.06984
815.6725, 20.50014
816.1547, 21.13921
816.6368, 22.49237
817.1189, 22.72530
817.6010, 22.07256
818.0831, 21.75507
818.5652, 22.29292
819.0474, 23.24258
819.5295, 24.27143
820.0116, 25.26799
820.4937, 24.96726
820.9758, 23.08701
821.4579, 21.54552
821.9401, 20.78679
822.4222, 20.90381
822.9043, 22.48496
823.3864, 25.40157
823.8685, 26.64424
824.3506, 24.61342
824.8328, 23.22636
825.3149, 23.55153
825.7970, 24.28317
826.2791, 24.56192
826.7612, 24.45242
827.2433, 24.32098
827.7255, 24.29720
828.2076, 24.28872
828.6897, 24.04036
829.1718, 23.84598
829.6539, 24.29234
830.1360, 25.28431
830.6182, 26.37515
831.1003, 27.39714
831.5824, 28.12335
832.0645, 28.31249
832.5466, 27.95637
833.0287, 26.61527
833.5109, 23.33190
833.9930, 22.08752
834.4751, 25.11849
834.9572, 28.71348
835.4393, 29.85505
835.9214, 29.15605
836.4036, 28.23976
836.8857, 26.82469
837.3678, 26.00867
837.8499, 26.86006
838.3320, 27.65960
838.8141, 26.62841
839.2963, 24.78019
839.7784, 24.29731
840.2605, 25.78407
840.7426, 27.43985
841.2247, 27.63706
841.7068, 26.91396
842.1890, 26.00086
842.6711, 25.04337
843.1532, 24.99167
843.6353, 26.11153
844.1174, 27.61706
844.5995, 28.92871
845.0817, 29.91636
845.5638, 29.88393
846.0459, 28.47559
846.5280, 26.99068
847.0101, 24.85863
847.4922, 23.54135
847.9744, 24.75661
848.4565, 26.83569
848.9386, 26.86273
849.4207, 24.17128
849.9028, 22.71284
850.3849, 24.98258
850.8671, 27.24192
851.3492, 27.00414
851.8313, 25.54396
852.3134, 24.36692
852.7955, 23.91864
853.2776, 24.44543
853.7598, 26.47370
854.2419, 28.76837
854.7240, 29.04114
855.2061, 27.91622
855.6882, 28.23748
856.1703, 30.31302
856.6525, 31.59742
857.1346, 30.51446
857.6167, 28.37142
858.0988, 27.71078
858.5809, 28.82959
859.0630, 29.43547
859.5452, 29.18460
860.0273, 29.03470
860.5094, 29.50748
860.9915, 30.01189
861.4736, 30.08044
861.9557, 29.72278
862.4379, 29.03988
862.9200, 27.44696
863.4021, 26.38299
863.8842, 26.42277
864.3663, 27.13659
864.8484, 28.65324
865.3306, 30.44460
865.8127, 31.39148
866.2948, 31.06832
866.7769, 30.40925
867.2590, 30.09708
867.7411, 30.19797
868.2233, 31.16329
868.7054, 32.77210
869.1875, 33.88556
869.6696, 34.18257
870.1517, 33.63266
870.6339, 32.05145
871.1160, 29.78136
871.5981, 28.40705
872.0802, 28.14271
872.5623, 27.97756
873.0444, 27.72787
873.5266, 27.72718
874.0087, 28.49234
874.4908, 29.48041
874.9729, 29.66339
875.4550, 28.91508
875.9371, 28.08657
876.4193, 26.71918
876.9014, 25.97322
877.3835, 26.79210
877.8656, 28.17908
878.3477, 29.32091
878.8298, 29.98552
879.3120, 29.97845
879.7941, 29.09044
880.2762, 27.79154
880.7583, 26.08763
881.2404, 24.49054
881.7225, 24.25324
882.2047, 25.11459
882.6868, 25.46172
883.1689, 24.59733
883.6510, 23.27456
884.1331, 22.46848
884.6152, 22.07115
885.0974, 21.12632
885.5795, 19.47107
886.0616, 18.54592
886.5437, 18.88914
887.0258, 19.54468
887.5079, 19.79363
887.9901, 19.71067
888.4722, 19.57534
888.9543, 19.05219
889.4364, 19.12915
889.9185, 20.70742
890.4006, 21.82856
890.8828, 21.42930
891.3649, 20.31980
891.8470, 19.40453
892.3291, 18.81085
892.8112, 18.41516
893.2933, 18.18872
893.7755, 18.12207
894.2576, 18.46131
894.7397, 18.79968
895.2218, 18.51795
895.7039, 17.72445
896.1860, 17.00937
896.6682, 16.65159
897.1503, 16.44242
897.6324, 16.21302
898.1145, 15.90987
898.5966, 14.94743
899.0787, 13.51559
899.5609, 13.85269
900.0430, 16.79082
900.5251, 19.81424
901.0072, 20.44503
901.4893, 19.15904
901.9714, 18.12153
902.4536, 17.16760
902.9357, 17.26344
903.4178, 19.72845
903.8999, 20.97510
904.3820, 17.75052
904.8641, 12.90944
905.3463, 11.79057
905.8284, 14.99413
906.3105, 16.76224
906.7926, 16.02831
907.2747, 14.66214
907.7568, 12.39133
908.2390, 10.40653
908.7211, 9.798495
909.2032, 10.37468
909.6853, 11.32636
910.1674, 12.47931
910.6495, 13.50891
911.1317, 14.10518
911.6138, 14.54400
912.0959, 15.27860
912.5780, 16.08610
913.0601, 16.28510
913.5422, 15.77088
914.0244, 15.30789
914.5065, 15.64185
914.9886, 16.30655
915.4707, 16.41287
915.9528, 15.96929
916.4349, 14.62545
916.9171, 12.31467
917.3992, 11.20188
917.8813, 12.65928
918.3634, 15.19902
918.8455, 16.28051
919.3276, 15.79437
919.8098, 15.85378
920.2919, 16.79287
920.7740, 17.40728
921.2561, 17.20891
921.7382, 16.87041
922.2203, 17.06511
922.7025, 17.57801
923.1846, 17.54856
923.6667, 16.62824
924.1488, 15.93090
924.6309, 15.81634
925.1130, 15.65206
925.5952, 14.98358
926.0773, 14.20229
926.5594, 13.77573
927.0415, 13.75010
927.5236, 13.90830
928.0057, 14.18397
928.4879, 14.58166
928.9700, 15.26845
929.4521, 15.96371
929.9342, 16.43714
930.4163, 16.61085
930.8984, 16.30553
931.3806, 15.47613
931.8627, 14.57955
932.3448, 13.86027
932.8269, 13.51250
933.3090, 14.32622
933.7911, 15.92855
934.2733, 16.49580
934.7554, 15.74032
935.2375, 15.33234
935.7196, 16.49930
936.2017, 18.20170
936.6838, 18.17156
937.1660, 16.33039
937.6481, 14.10495
938.1302, 11.07672
938.6123, 9.744137
939.0944, 11.47964
939.5765, 14.10207
940.0587, 15.56557
940.5408, 15.95679
941.0229, 15.81027
941.5050, 14.70519
941.9871, 13.83358
942.4692, 12.95176
942.9514, 12.63574
943.4335, 13.81584
943.9156, 15.29893
944.3977, 15.33486
944.8798, 13.86146
945.3619, 12.98219
945.8441, 13.62377
946.3262, 14.29334
946.8083, 14.11874
947.2904, 14.05260
947.7725, 15.44008
948.2546, 17.48184
948.7368, 18.30582
949.2189, 17.33969
949.7010, 15.67855
950.1831, 13.29238
950.6652, 11.21961
951.1473, 10.75945
951.6295, 11.26216
952.1116, 11.58282
952.5937, 11.57690
953.0758, 11.71067
953.5579, 12.26666
954.0400, 12.94563
954.5222, 13.53679
955.0043, 13.88687
955.4864, 13.10439
955.9685, 11.44684
956.4506, 11.02844
956.9327, 12.47770
957.4149, 14.45630
957.8970, 15.92870
958.3791, 16.71604
958.8612, 15.96347
959.3433, 13.49832
959.8254, 12.07921
960.3076, 12.03528
960.7897, 12.45856
961.2718, 13.20674
961.7539, 13.70922
962.2360, 13.03655
962.7181, 11.28302
963.2003, 10.74048
963.6824, 12.14610
964.1645, 13.23611
964.6466, 13.41204
965.1287, 13.71687
965.6108, 15.13821
966.0930, 16.82923
966.5751, 17.60036
967.0572, 17.41588
967.5393, 16.42732
968.0214, 13.10768
968.5035, 11.04936
968.9857, 12.18945
969.4678, 14.06337
969.9499, 15.06238
970.4320, 15.21769
970.9141, 14.73964
971.3962, 13.51950
971.8784, 13.12123
972.3605, 15.42336
972.8426, 17.53889
973.3247, 17.10972
973.8068, 15.54299
974.2889, 14.47043
974.7711, 14.12963
975.2532, 14.25155
975.7353, 14.78147
976.2174, 15.25894
976.6995, 15.37703
977.1816, 15.11474
977.6638, 13.98749
978.1459, 12.54118
978.6280, 12.34255
979.1101, 13.53797
979.5922, 14.68284
980.0743, 14.76236
980.5565, 14.24609
981.0386, 13.82450
981.5207, 13.45448
982.0028, 12.77251
982.4849, 11.87591
982.9670, 11.90027
983.4492, 13.23701
983.9313, 14.70627
984.4134, 15.22520
984.8955, 14.94063
985.3776, 14.23813
985.8597, 13.10486
986.3419, 11.88760
986.8240, 10.53410
987.3061, 9.598339
987.7882, 9.361422
988.2703, 9.517153
988.7524, 9.707680
989.2346, 9.944891
989.7167, 10.28188
990.1988, 10.51413
990.6809, 11.59535
991.1630, 14.40322
991.6451, 16.54832
992.1273, 16.47323
992.6094, 15.38092
993.0915, 15.07887
993.5736, 15.62623
994.0557, 15.85787
994.5378, 15.71726
995.0200, 15.33455
995.5021, 14.79203
995.9842, 13.94010
996.4663, 12.14095
996.9484, 10.21189
997.4305, 9.524714
997.9127, 10.24602
998.3948, 11.34461
998.8769, 13.43121
999.3590, 14.83838
999.8411, 14.75290
1000.323, 14.08338
1000.805, 13.17145
1001.287, 12.33392
1001.770, 12.13622
1002.252, 12.72795
1002.734, 13.38671
1003.216, 13.87656
1003.698, 14.27121
1004.180, 15.03794
1004.662, 15.41423
1005.144, 13.74001
1005.627, 11.02782
1006.109, 10.42840
1006.591, 13.14323
1007.073, 15.68419
1007.555, 15.29573
1008.037, 13.93141
1008.519, 12.87681
1009.001, 12.43751
1009.483, 13.55540
1009.966, 15.73909
1010.448, 16.99965
1010.930, 16.36438
1011.412, 15.24477
1011.894, 15.04231
1012.376, 15.26214
1012.858, 14.98803
1013.340, 14.52616
1013.823, 15.08936
1014.305, 16.53733
1014.787, 16.79447
1015.269, 14.58579
1015.751, 11.97423
1016.233, 12.19889
1016.715, 14.11296
1017.197, 14.13675
1017.679, 12.74795
1018.162, 12.80377
1018.644, 14.78487
1019.126, 16.37086
1019.608, 15.98415
1020.090, 14.60453
1020.572, 13.77169
1021.054, 13.45784
1021.536, 13.52027
1022.018, 13.94275
1022.501, 14.42836
1022.983, 14.94106
1023.465, 14.66075
1023.947, 12.78183
1024.429, 10.49239
1024.911, 10.69285
1025.393, 13.46815
1025.875, 14.42000
1026.358, 13.28007
1026.840, 12.58292
1027.322, 13.07022
1027.804, 13.77223
1028.286, 14.00460
1028.768, 13.79937
1029.250, 13.10202
1029.732, 11.74385
1030.214, 11.34258
1030.697, 12.29038
1031.179, 12.82330
1031.661, 12.38296
1032.143, 11.62463
1032.625, 11.00143
1033.107, 10.48876
1033.589, 9.950956
1034.071, 9.175945
1034.553, 9.447264
1035.036, 11.63200
1035.518, 12.92470
1036.000, 12.01515
1036.482, 10.89155
1036.964, 11.27226
1037.446, 12.57807
1037.928, 13.09239
1038.410, 12.61135
1038.893, 12.04442
1039.375, 11.06944
1039.857, 10.53161
1040.339, 11.02740
1040.821, 11.61073
1041.303, 11.44232
1041.785, 10.82585
1042.267, 10.59277
1042.750, 10.72095
1043.232, 11.29680
1043.714, 13.04638
1044.196, 14.25949
1044.678, 14.11361
1045.160, 13.70344
1045.642, 14.06463
1046.124, 14.72699
1046.606, 14.31691
1047.089, 12.24539
1047.571, 11.30776
1048.053, 12.72036
1048.535, 14.05035
1049.017, 14.69429
1049.499, 14.97251
1049.981, 15.03197
1050.463, 14.95034
1050.945, 14.89301
1051.428, 14.92220
1051.910, 14.68573
1052.392, 13.64548
1052.874, 12.96351
1053.356, 13.50807
1053.838, 14.07983
1054.320, 13.49729
1054.802, 12.32549
1055.285, 11.79920
1055.767, 12.14102
1056.249, 12.63305
1056.731, 13.70207
1057.213, 14.07537
1057.695, 12.58426
1058.177, 10.89168
1058.659, 10.08749
1059.141, 10.10470
1059.624, 10.86436
1060.106, 12.34938
1060.588, 13.30780
1061.070, 13.06160
1061.552, 12.59036
1062.034, 11.83357
1062.516, 11.42539
1062.998, 12.09494
1063.480, 13.35906
1063.963, 14.61421
1064.445, 15.68401
1064.927, 15.82711
1065.409, 14.02657
1065.891, 12.25924
1066.373, 11.00345
1066.855, 10.41021
1067.337, 11.17700
1067.820, 12.39350
1068.302, 12.57652
1068.784, 11.61617
1069.266, 10.74138
1069.748, 10.04474
1070.230, 10.16239
1070.712, 12.51664
1071.194, 14.63560
1071.677, 14.05472
1072.159, 12.38595
1072.641, 12.09145
1073.123, 13.31336
1073.605, 14.64857
1074.087, 15.92695
1074.569, 16.43005
1075.051, 15.02562
1075.533, 13.56581
1076.016, 13.81960
1076.498, 14.53951
1076.980, 13.75185
1077.462, 11.69525
1077.944, 10.33569
1078.426, 10.45500
1078.908, 10.87375
1079.390, 11.33025
1079.873, 11.58131
1080.355, 11.19744
1080.837, 10.70866
1081.319, 10.68922
1081.801, 11.13856
1082.283, 11.89158
1082.765, 12.98187
1083.247, 13.84569
1083.729, 14.32495
1084.212, 14.38975
1084.694, 13.79428
1085.176, 12.95681
1085.658, 12.14254
1086.140, 11.48264
1086.622, 11.11310
1087.104, 11.05924
1087.586, 11.45081
1088.068, 13.01090
1088.551, 14.17603
1089.033, 13.85860
1089.515, 13.09435
1089.997, 12.68485
1090.479, 12.56627
1090.961, 12.55236
1091.443, 12.58366
1091.925, 12.34547
1092.408, 11.17758
1092.890, 10.45975
1093.372, 11.40203
1093.854, 12.31759
1094.336, 11.43788
1094.818, 10.02940
1095.300, 10.40814
1095.782, 12.50699
1096.265, 13.58880
1096.747, 12.13231
1097.229, 10.99571
1097.711, 11.63662
1098.193, 12.29567
1098.675, 11.57107
1099.157, 10.55788
1099.639, 10.78863
1100.121, 12.01108
1100.604, 12.56877
1101.086, 11.73861
1101.568, 11.41404
1102.050, 13.07830
1102.532, 14.10834
1103.014, 12.43154
1103.496, 10.41660
1103.978, 10.50521
1104.460, 11.98621
1104.943, 12.53958
1105.425, 11.56268
1105.907, 11.36492
1106.389, 13.37102
1106.871, 14.82032
1107.353, 14.62254
1107.835, 13.90155
1108.317, 13.08473
1108.800, 12.43460
1109.282, 12.61493
1109.764, 13.72984
1110.246, 13.78512
1110.728, 11.40079
1111.210, 9.747107
1111.692, 9.697794
1112.174, 9.942962
1112.656, 10.20251
1113.139, 10.18237
1113.621, 9.176160
1114.103, 7.362979
1114.585, 6.667872
1115.067, 7.411395
1115.549, 8.730625
1116.031, 11.36146
1116.513, 13.53049
1116.995, 15.03474
1117.478, 15.46481
1117.960, 13.70089
1118.442, 10.75505
1118.924, 10.01411
1119.406, 12.36260
1119.888, 13.36958
1120.370, 12.29585
1120.852, 11.40600
1121.335, 11.12972
1121.817, 11.21785
1122.299, 11.51490
1122.781, 12.09358
1123.263, 13.26805
1123.745, 15.07170
1124.227, 15.38489
1124.709, 13.50159
1125.192, 12.80576
1125.674, 14.27582
1126.156, 15.18563
1126.638, 14.16504
1127.120, 12.25099
1127.602, 10.46792
1128.084, 8.996059
1128.566, 8.928580
1129.048, 10.48902
1129.531, 11.30915
1130.013, 11.12186
1130.495, 11.58089
1130.977, 13.35354
1131.459, 14.85985
1131.941, 14.75125
1132.423, 13.70422
1132.905, 13.13773
1133.387, 13.02475
1133.870, 12.86858
1134.352, 12.68157
1134.834, 12.93196
1135.316, 13.70050
1135.798, 14.40764
1136.280, 14.75836
1136.762, 14.54824
1137.244, 13.22291
1137.727, 11.40434
1138.209, 11.03365
1138.691, 11.85719
1139.173, 13.08690
1139.655, 14.47158
1140.137, 15.26568
1140.619, 15.20453
1141.101, 14.32406
1141.583, 12.39322
1142.066, 10.53549
1142.548, 11.07939
1143.030, 12.64682
1143.512, 12.08164
1143.994, 10.14843
1144.476, 9.456337
1144.958, 10.22145
1145.440, 10.58871
1145.922, 9.582081
1146.405, 8.579561
1146.887, 8.802904
1147.369, 9.776129
1147.851, 11.72984
1148.333, 13.58343
1148.815, 13.16398
1149.297, 11.32396
1149.779, 10.61615
1150.262, 11.70890
1150.744, 13.34174
1151.226, 15.77119
1151.708, 16.90786
1152.190, 14.09716
1152.672, 10.72800
1153.154, 9.287187
1153.636, 9.400677
1154.119, 10.77663
1154.601, 12.90930
1155.083, 14.21134
1155.565, 14.02971
1156.047, 13.79070
1156.529, 13.85853
1157.011, 14.09791
1157.493, 14.83746
1157.975, 15.36482
1158.458, 15.06899
1158.940, 14.12105
1159.422, 12.69706
1159.904, 10.72624
1160.386, 9.707111
1160.868, 10.15695
1161.350, 10.97894
1161.832, 12.61674
1162.314, 13.89372
1162.797, 14.63202
1163.279, 14.43991
1163.761, 12.32287
1164.243, 8.956522
1164.725, 7.651266
1165.207, 9.110693
1165.689, 10.20463
1166.171, 10.98445
1166.654, 11.16986
1167.136, 10.48210
1167.618, 9.803296
1168.100, 9.677189
1168.582, 9.999686
1169.064, 10.63461
1169.546, 11.55033
1170.028, 12.59589
1170.510, 13.79320
1170.993, 14.11577
1171.475, 13.44705
1171.957, 12.23897
1172.439, 10.61410
1172.921, 9.885428
1173.403, 11.46705
1173.885, 13.84020
1174.367, 13.54796
1174.849, 11.59857
1175.332, 11.81969
1175.814, 13.57379
1176.296, 13.81152
1176.778, 12.23319
1177.260, 10.48687
1177.742, 9.378267
1178.224, 9.333805
1178.706, 11.54710
1179.189, 14.14743
1179.671, 14.65732
1180.153, 14.02409
1180.635, 13.17905
1181.117, 12.53200
1181.599, 12.96200
1182.081, 14.34160
1182.563, 14.94331
1183.046, 13.62208
1183.528, 12.52279
1184.010, 13.71462
1184.492, 14.62943
1184.974, 12.70745
1185.456, 10.28421
1185.938, 10.10775
1186.420, 11.43368
1186.902, 12.03925
1187.385, 11.54165
1187.867, 10.87505
1188.349, 9.627926
1188.831, 9.119993
1189.313, 10.15229
1189.795, 11.30563
1190.277, 12.44944
1190.759, 12.90417
1191.241, 11.29468
1191.724, 8.491580
1192.206, 8.091459
1192.688, 10.97842
1193.170, 12.39975
1193.652, 11.71039
1194.134, 11.68443
1194.616, 13.29783
1195.098, 14.05679
1195.581, 12.26038
1196.063, 9.848787
1196.545, 9.579111
1197.027, 10.87874
1197.509, 11.13157
1197.991, 10.44077
1198.473, 10.59187
1198.955, 11.60677
1199.438, 12.29213
1199.920, 12.30328
1200.402, 11.55057
1200.884, 9.871676
1201.366, 8.545992
1201.848, 10.33594
1202.330, 12.93968
1202.812, 11.11702
1203.294, 7.134397
1203.776, 5.666188
1204.259, 6.477838
1204.741, 7.374400
1205.223, 7.637927
1205.705, 7.248385
1206.187, 5.583947
1206.669, 4.886046
1207.151, 7.814383
1207.633, 11.11236
1208.116, 12.23353
1208.598, 12.26334
1209.080, 12.72498
1209.562, 13.30300
1210.044, 12.45929
1210.526, 9.733538
1211.008, 8.345850
1211.490, 10.23993
1211.973, 11.49587
1212.455, 10.80349
1212.937, 10.07026
1213.419, 10.20262
1213.901, 10.58645
1214.383, 10.54596
1214.865, 10.29399
1215.347, 10.64942
1215.829, 11.82402
1216.312, 12.04815
1216.794, 11.07336
1217.276, 10.41616
1217.758, 10.38314
1218.240, 10.31424
1218.722, 9.824474
1219.204, 9.663897
1219.686, 10.83374
1220.168, 12.58901
1220.651, 12.88898
1221.133, 12.12364
1221.615, 12.04360
1222.097, 12.40773
1222.579, 11.66220
1223.061, 9.778522
1223.543, 8.241167
1224.025, 7.758378
1224.508, 8.247352
1224.990, 10.35405
1225.472, 12.50414
1225.954, 13.07689
1226.436, 12.84669
1226.918, 12.60078
1227.400, 12.25704
1227.882, 11.38086
1228.365, 10.10365
1228.847, 9.124208
1229.329, 8.548531
1229.811, 8.665646
1230.293, 10.35060
1230.775, 11.63130
1231.257, 11.92242
1231.739, 11.54725
1232.221, 10.19261
1232.703, 8.660822
1233.186, 7.890691
1233.668, 7.862380
1234.150, 8.579153
1234.632, 10.49190
1235.114, 11.19667
1235.596, 10.29228
1236.078, 10.16427
1236.560, 11.52503
1237.043, 12.44426
1237.525, 11.70844
1238.007, 10.71614
1238.489, 11.47820
1238.971, 13.07501
1239.453, 12.85367
1239.935, 11.33875
1240.417, 9.902133
1240.900, 8.874470
1241.382, 9.191778
1241.864, 10.76138
1242.346, 12.21339
1242.828, 12.89473
1243.310, 13.08086
1243.792, 12.50292
1244.274, 12.10498
1244.756, 13.36458
1245.239, 14.47941
1245.721, 13.20482
1246.203, 10.88605
1246.685, 9.580251
1247.167, 9.431935
1247.649, 9.809483
1248.131, 10.98146
1248.613, 11.41687
1249.095, 10.08333
1249.578, 9.298669
1250.060, 9.662905
1250.542, 10.37299
1251.024, 11.34531
1251.506, 11.93152
1251.988, 11.19366
1252.470, 9.565004
1252.952, 8.762796
1253.435, 8.805638
1253.917, 8.574501
1254.399, 8.098680
1254.881, 9.247166
1255.363, 12.16427
1255.845, 13.80920
1256.327, 12.79636
1256.809, 10.96100
1257.292, 9.732515
1257.774, 9.357710
1258.256, 10.79893
1258.738, 12.81931
1259.220, 14.15039
1259.702, 14.47735
1260.184, 12.59641
1260.666, 9.511886
1261.148, 8.686798
1261.630, 11.08415
1262.113, 12.29262
1262.595, 9.030149
1263.077, 6.862604
1263.559, 8.245701
1264.041, 9.987307
1264.523, 10.38687
1265.005, 10.63100
1265.487, 12.09024
1265.970, 13.97499
1266.452, 14.37789
1266.934, 13.27286
1267.416, 12.52602
1267.898, 12.16634
1268.380, 11.91555
1268.862, 11.73692
1269.344, 11.96964
1269.827, 12.73138
1270.309, 13.18246
1270.791, 12.64604
1271.273, 12.09346
1271.755, 13.29206
1272.237, 15.12495
1272.719, 15.64098
1273.201, 15.21125
1273.683, 14.02289
1274.166, 12.63530
1274.648, 12.31372
1275.130, 13.04192
1275.612, 13.23519
1276.094, 11.98659
1276.576, 11.58247
1277.058, 14.78107
1277.540, 16.42547
1278.022, 12.73893
1278.505, 8.819270
1278.987, 7.785150
1279.469, 8.627811
1279.951, 10.89016
1280.433, 13.81751
1280.915, 13.98118
1281.397, 10.77575
1281.879, 9.713324
1282.362, 11.01051
1282.844, 12.00848
1283.326, 12.27782
1283.808, 12.52953
1284.290, 13.05928
1284.772, 13.26493
1285.254, 12.66269
1285.736, 11.25317
##END=



