##NAMES=Gowerite
##RRUFFID=R050673
##IDEAL CHEMISTRY=Ca[B_5_O_8_(OH)][B(OH)_3_]&#183;3H_2_O
##LOCALITY=Death Valley, California, USA
##OWNER=RRUFF
##SOURCE=University of Arizona Mineral Museum
##DESCRIPTION=Colorless bladed crystals associated with gypsum and priceite
##STATUS=The identification of this mineral is confirmed by single-crystal X-ray diffraction and chemical analysis.
##URL=rruff.info/R050673
##MEASURED CHEMISTRY=(Ca_0.98_Sr_0.02_)_Σ=1_[B_5_O_8_(OH)][B(OH)_3_]·3H_2_O ; B not measured but estimated by stoichiometry
92.02539, 317.9324
92.50751, 321.0269
92.98962, 324.7934
93.47174, 324.4139
93.95386, 322.7557
94.43597, 320.0833
94.91809, 316.9565
95.40021, 313.6404
95.88232, 309.7404
96.36444, 304.9117
96.84656, 300.0142
97.32867, 295.2758
97.81078, 290.8393
98.29290, 286.9046
98.77502, 283.5214
99.25713, 280.3655
99.73925, 276.7831
100.2214, 272.2050
100.7035, 267.8800
101.1856, 264.3998
101.6677, 261.7393
102.1498, 259.4547
102.6320, 256.9911
103.1141, 254.0086
103.5962, 251.7211
104.0783, 250.6315
104.5604, 249.9805
105.0425, 248.9445
105.5247, 247.2493
106.0068, 245.1543
106.4889, 242.9565
106.9710, 240.5691
107.4531, 238.3779
107.9352, 236.4750
108.4173, 234.8675
108.8995, 233.6653
109.3816, 233.3362
109.8637, 233.0968
110.3458, 231.9739
110.8279, 229.6544
111.3100, 227.2136
111.7922, 226.0523
112.2743, 226.5815
112.7564, 227.0999
113.2385, 227.1074
113.7206, 226.8862
114.2027, 226.6593
114.6849, 226.5269
115.1670, 226.4525
115.6491, 226.3070
116.1312, 225.9260
116.6133, 225.6652
117.0954, 225.7775
117.5776, 226.0213
118.0597, 225.9905
118.5418, 225.3589
119.0239, 224.1086
119.5060, 223.3878
119.9881, 223.3681
120.4703, 223.5838
120.9524, 223.9181
121.4345, 224.3354
121.9166, 224.8243
122.3987, 225.4458
122.8808, 226.2317
123.3630, 226.4938
123.8451, 225.8125
124.3272, 224.8201
124.8093, 224.1373
125.2914, 223.8798
125.7735, 223.7901
126.2557, 223.6700
126.7378, 223.5174
127.2199, 223.2059
127.7020, 222.4589
128.1841, 221.4776
128.6662, 220.9773
129.1483, 221.4137
129.6305, 221.9452
130.1126, 221.8535
130.5947, 221.1902
131.0768, 220.4912
131.5589, 220.2342
132.0410, 220.4723
132.5232, 220.7241
133.0053, 220.9313
133.4874, 221.1392
133.9695, 221.4066
134.4516, 221.7327
134.9337, 222.0255
135.4159, 222.1089
135.8980, 221.7335
136.3801, 221.6342
136.8622, 222.0453
137.3443, 222.5947
137.8264, 222.9885
138.3086, 223.1123
138.7907, 223.0274
139.2728, 222.8973
139.7549, 222.8677
140.2370, 222.6137
140.7191, 221.8411
141.2013, 220.8700
141.6834, 220.2061
142.1655, 220.1515
142.6476, 220.5481
143.1297, 220.6861
143.6118, 220.3400
144.0939, 220.0309
144.5761, 220.0897
145.0582, 220.4211
145.5403, 220.5876
146.0224, 220.3238
146.5045, 219.6725
146.9866, 218.8884
147.4688, 217.7815
147.9509, 216.7106
148.4330, 216.0859
148.9151, 215.9729
149.3972, 215.8887
149.8793, 215.5444
150.3615, 215.0459
150.8436, 214.5020
151.3257, 213.9752
151.8078, 213.4152
152.2899, 212.6448
152.7720, 211.3567
153.2542, 210.4196
153.7363, 210.3921
154.2184, 210.8457
154.7005, 211.1478
155.1826, 210.9318
155.6647, 210.2205
156.1469, 209.2364
156.6290, 207.7695
157.1111, 206.2041
157.5932, 204.5021
158.0753, 202.7686
158.5574, 201.1906
159.0396, 199.9149
159.5217, 198.9471
160.0038, 198.2653
160.4859, 198.2702
160.9680, 198.1633
161.4501, 197.5263
161.9323, 196.4107
162.4144, 195.1728
162.8965, 194.1700
163.3786, 193.4368
163.8607, 192.8561
164.3428, 192.4873
164.8250, 192.2156
165.3071, 191.9883
165.7892, 191.7909
166.2713, 191.5887
166.7534, 191.3037
167.2355, 190.9038
167.7177, 190.7036
168.1998, 190.8868
168.6819, 191.2359
169.1640, 191.4686
169.6461, 191.5152
170.1282, 191.4888
170.6104, 191.4592
171.0925, 191.4247
171.5746, 191.5624
172.0567, 192.1134
172.5388, 192.9093
173.0209, 193.4451
173.5031, 193.5566
173.9852, 193.4663
174.4673, 193.2802
174.9494, 193.0258
175.4315, 192.9818
175.9136, 193.5811
176.3958, 194.7880
176.8779, 195.4653
177.3600, 195.0229
177.8421, 194.3336
178.3242, 193.9370
178.8063, 193.8335
179.2885, 193.6703
179.7706, 192.9345
180.2527, 191.3712
180.7348, 190.3603
181.2169, 190.6650
181.6990, 191.0370
182.1812, 190.7880
182.6633, 189.8284
183.1454, 188.5595
183.6275, 187.5220
184.1096, 186.7771
184.5917, 186.1653
185.0738, 185.6986
185.5560, 185.3231
186.0381, 185.0603
186.5202, 184.8941
187.0023, 184.7182
187.4844, 184.3478
187.9665, 183.5971
188.4487, 182.9314
188.9308, 182.2793
189.4129, 181.7447
189.8950, 181.5251
190.3771, 181.6787
190.8592, 181.9257
191.3414, 181.6823
191.8235, 180.5212
192.3056, 179.6831
192.7877, 179.6500
193.2698, 179.9175
193.7519, 179.7598
194.2341, 178.8763
194.7162, 177.6355
195.1983, 176.7734
195.6804, 176.2924
196.1625, 175.9788
196.6446, 175.8388
197.1268, 175.8195
197.6089, 175.8208
198.0910, 175.8464
198.5731, 175.8157
199.0552, 175.5581
199.5373, 175.0137
200.0195, 174.5736
200.5016, 174.5195
200.9837, 174.7800
201.4658, 174.9741
201.9479, 174.9079
202.4300, 174.8208
202.9122, 175.0532
203.3943, 175.6560
203.8764, 176.1404
204.3585, 176.0254
204.8406, 175.3154
205.3227, 174.6947
205.8048, 174.3636
206.2870, 174.1621
206.7691, 174.0217
207.2512, 173.9314
207.7333, 173.8075
208.2154, 173.5357
208.6975, 173.0833
209.1797, 172.6784
209.6618, 172.2951
210.1439, 172.0157
210.6260, 171.9426
211.1081, 172.0764
211.5902, 172.2755
212.0724, 172.3471
212.5545, 172.2310
213.0366, 172.1682
213.5187, 172.3319
214.0008, 172.4410
214.4829, 172.2789
214.9651, 171.8230
215.4472, 171.2510
215.9293, 170.7945
216.4114, 170.3856
216.8935, 170.2721
217.3756, 170.6900
217.8578, 171.1820
218.3399, 171.4245
218.8220, 171.3522
219.3041, 171.1364
219.7862, 171.0425
220.2683, 171.1929
220.7505, 171.2269
221.2326, 171.1629
221.7147, 170.9880
222.1968, 170.6137
222.6789, 170.0459
223.1610, 169.4756
223.6432, 169.1932
224.1253, 169.3847
224.6074, 169.5129
225.0895, 169.4070
225.5716, 169.3311
226.0537, 169.6497
226.5358, 170.4281
227.0180, 171.2144
227.5001, 171.3091
227.9822, 170.3734
228.4643, 169.8184
228.9464, 170.1738
229.4285, 170.7438
229.9107, 170.6691
230.3928, 169.7403
230.8749, 168.6434
231.3570, 168.3040
231.8391, 168.7843
232.3212, 169.2601
232.8034, 169.7227
233.2855, 170.0700
233.7676, 170.1040
234.2497, 169.7496
234.7318, 169.3201
235.2139, 169.1665
235.6961, 169.2550
236.1782, 169.4183
236.6603, 169.7303
237.1424, 170.0583
237.6245, 170.1180
238.1066, 169.7737
238.5888, 169.5046
239.0709, 169.9918
239.5530, 170.9836
240.0351, 171.6690
240.5172, 171.6575
240.9993, 171.1831
241.4815, 170.5871
241.9636, 169.7431
242.4457, 169.1654
242.9278, 169.4260
243.4099, 170.2178
243.8920, 170.9391
244.3742, 171.4116
244.8563, 171.6301
245.3384, 171.5014
245.8205, 170.8355
246.3026, 170.2541
246.7847, 170.0794
247.2668, 170.2117
247.7490, 170.5412
248.2311, 171.1380
248.7132, 171.8413
249.1953, 172.2421
249.6774, 172.2204
250.1595, 172.1246
250.6417, 172.0755
251.1238, 172.0576
251.6059, 172.0537
252.0880, 172.0585
252.5701, 172.0703
253.0522, 172.0987
253.5344, 172.1989
254.0165, 172.1996
254.4986, 171.9251
254.9807, 171.5876
255.4628, 171.4774
255.9449, 171.7641
256.4271, 172.1856
256.9092, 172.1035
257.3913, 171.2764
257.8734, 170.3731
258.3555, 169.3065
258.8376, 168.3492
259.3198, 167.8042
259.8019, 167.7963
260.2840, 168.0993
260.7661, 168.2264
261.2482, 167.9922
261.7303, 167.9421
262.2125, 168.3411
262.6946, 168.8020
263.1767, 169.0004
263.6588, 168.8358
264.1409, 168.4364
264.6230, 168.0055
265.1052, 167.4682
265.5873, 167.0526
266.0694, 166.8195
266.5515, 166.6553
267.0336, 166.4093
267.5157, 166.0780
267.9979, 165.8603
268.4800, 166.1360
268.9621, 166.8583
269.4442, 167.4336
269.9263, 167.7616
270.4084, 167.8557
270.8906, 167.0152
271.3727, 167.3815
271.8548, 167.2642
272.3369, 167.1270
272.8190, 167.6632
273.3011, 166.9586
273.7833, 167.4841
274.2654, 167.5186
274.7475, 167.7778
275.2296, 167.5504
275.7117, 167.6179
276.1938, 167.6299
276.6760, 167.5802
277.1581, 167.8435
277.6402, 168.7546
278.1223, 169.5968
278.6044, 169.9438
279.0865, 169.8967
279.5686, 169.8776
280.0508, 170.2478
280.5329, 171.0188
281.0150, 171.5525
281.4971, 171.7684
281.9792, 171.8825
282.4613, 171.8916
282.9435, 171.8564
283.4256, 171.9096
283.9077, 172.1522
284.3898, 172.5502
284.8719, 172.7859
285.3540, 172.4735
285.8362, 172.4509
286.3183, 173.1489
286.8004, 174.2684
287.2825, 175.3187
287.7646, 176.0719
288.2467, 176.5144
288.7289, 176.5766
289.2110, 175.8306
289.6931, 175.2649
290.1752, 175.2542
290.6573, 175.4572
291.1394, 175.4165
291.6216, 174.9582
292.1037, 174.1684
292.5858, 173.1787
293.0679, 171.8776
293.5500, 170.6037
294.0321, 169.4120
294.5143, 168.2544
294.9964, 167.0634
295.4785, 165.8160
295.9606, 164.5839
296.4427, 163.4694
296.9248, 162.5120
297.4070, 161.5659
297.8891, 160.4600
298.3712, 159.4622
298.8533, 158.8833
299.3354, 158.7495
299.8175, 158.7419
300.2997, 158.5558
300.7818, 158.1589
301.2639, 157.7078
301.7460, 157.2032
302.2281, 156.6487
302.7102, 155.9644
303.1924, 155.1877
303.6745, 154.5322
304.1566, 154.1851
304.6387, 154.1343
305.1208, 153.9882
305.6029, 153.7231
306.0851, 153.3962
306.5672, 152.9936
307.0493, 152.5439
307.5314, 152.1048
308.0135, 151.6741
308.4956, 151.3096
308.9778, 151.2814
309.4599, 152.0513
309.9420, 152.5311
310.4241, 152.0456
310.9062, 151.0524
311.3883, 150.4928
311.8705, 150.8016
312.3526, 151.5879
312.8347, 152.0029
313.3168, 152.0241
313.7989, 151.8262
314.2810, 151.1727
314.7632, 150.4109
315.2453, 150.0555
315.7274, 150.2612
316.2095, 150.6706
316.6916, 150.7887
317.1737, 150.5248
317.6559, 150.3729
318.1380, 150.2382
318.6201, 149.8712
319.1022, 150.5647
319.5843, 151.0109
320.0664, 151.2232
320.5485, 150.5009
321.0306, 150.9854
321.5128, 150.9863
321.9949, 150.9674
322.4770, 151.6217
322.9591, 151.0354
323.4412, 151.6791
323.9233, 151.8318
324.4055, 152.2092
324.8876, 152.1000
325.3697, 152.1411
325.8518, 152.6690
326.3339, 152.9273
326.8160, 152.7621
327.2982, 153.1538
327.7803, 152.5504
328.2624, 152.8202
328.7445, 153.4668
329.2266, 153.3260
329.7087, 153.7266
330.1909, 153.9211
330.6730, 153.1785
331.1551, 154.0654
331.6372, 154.2477
332.1193, 153.7063
332.6014, 154.5374
333.0836, 154.0958
333.5657, 154.1085
334.0478, 154.2010
334.5299, 154.7121
335.0120, 155.4100
335.4941, 155.9508
335.9763, 156.2929
336.4584, 156.6129
336.9405, 157.0945
337.4226, 157.7643
337.9047, 158.2066
338.3868, 158.3314
338.8690, 158.3481
339.3511, 158.3392
339.8332, 158.3114
340.3153, 158.2462
340.7974, 158.1213
341.2795, 157.9572
341.7617, 157.8926
342.2438, 158.0026
342.7259, 158.1083
343.2080, 158.2759
343.6901, 158.3902
344.1722, 158.2166
344.6544, 157.6512
345.1365, 156.9221
345.6186, 156.5088
346.1007, 156.7592
346.5828, 156.8096
347.0649, 156.4633
347.5471, 156.0278
348.0292, 155.7476
348.5113, 155.6791
348.9934, 155.7788
349.4755, 156.0423
349.9576, 156.6095
350.4398, 156.7098
350.9219, 156.0561
351.4040, 155.2752
351.8861, 154.7054
352.3682, 154.3087
352.8503, 153.8598
353.3325, 153.1874
353.8146, 152.3058
354.2967, 151.4111
354.7788, 150.3774
355.2609, 149.4749
355.7430, 148.7581
356.2252, 148.2094
356.7073, 147.8614
357.1894, 147.7361
357.6715, 147.6761
358.1536, 147.2664
358.6357, 146.1612
359.1179, 145.2220
359.5999, 144.4417
360.0821, 143.8474
360.5642, 143.5192
361.0463, 143.4434
361.5284, 143.4742
362.0105, 143.4363
362.4926, 143.3212
362.9748, 143.1697
363.4569, 142.9990
363.9390, 142.7810
364.4211, 142.4832
364.9032, 142.1235
365.3853, 141.7233
365.8675, 141.2489
366.3496, 140.7491
366.8317, 140.7251
367.3138, 141.7800
367.7959, 142.5496
368.2780, 142.5715
368.7602, 142.2122
369.2423, 141.8984
369.7244, 141.8103
370.2065, 141.9012
370.6886, 142.1344
371.1707, 142.6626
371.6529, 142.9339
372.1350, 142.6713
372.6171, 142.2891
373.0992, 142.0091
373.5813, 141.8820
374.0634, 141.8849
374.5456, 142.1070
375.0277, 142.5744
375.5098, 142.6578
375.9919, 141.7851
376.4740, 141.1519
376.9561, 141.4568
377.4383, 142.4139
377.9204, 143.3638
378.4025, 144.0203
378.8846, 144.3644
379.3667, 144.2352
379.8488, 143.3580
380.3310, 142.7240
380.8131, 142.9294
381.2952, 143.4879
381.7773, 143.9068
382.2594, 144.0313
382.7415, 144.1416
383.2237, 144.5935
383.7058, 145.3850
384.1879, 146.1010
384.6700, 146.7212
385.1521, 147.1319
385.6342, 147.2103
386.1164, 146.9763
386.5985, 146.7093
387.0806, 146.5720
387.5627, 146.5131
388.0448, 146.4124
388.5269, 146.2595
389.0091, 146.0706
389.4912, 145.8914
389.9733, 145.6836
390.4554, 145.3415
390.9375, 144.7981
391.4196, 144.1548
391.9018, 143.3892
392.3839, 142.5358
392.8660, 141.9501
393.3481, 141.8242
393.8302, 142.0351
394.3123, 142.3761
394.7945, 142.9615
395.2766, 143.3142
395.7587, 143.0520
396.2408, 142.4827
396.7229, 142.1636
397.2050, 142.2335
397.6872, 142.3733
398.1693, 142.1621
398.6514, 141.5518
399.1335, 141.3293
399.6156, 141.9578
400.0977, 142.6365
400.5798, 142.7626
401.0620, 142.3985
401.5441, 141.9315
402.0262, 141.5632
402.5083, 141.3116
402.9904, 141.2940
403.4725, 141.5492
403.9547, 141.9489
404.4368, 142.6605
404.9189, 143.4329
405.4010, 143.9293
405.8831, 144.0488
406.3652, 143.9589
406.8474, 143.8839
407.3295, 143.7790
407.8116, 143.8395
408.2937, 144.1971
408.7758, 144.5822
409.2579, 144.7912
409.7401, 144.8811
410.2222, 145.0817
410.7043, 145.5882
411.1864, 146.3479
411.6685, 146.9194
412.1506, 147.4802
412.6328, 147.5879
413.1149, 146.9344
413.5970, 145.9145
414.0791, 144.9678
414.5612, 144.2419
415.0433, 143.5430
415.5255, 142.4944
416.0076, 140.8836
416.4897, 139.6461
416.9718, 139.1733
417.4539, 138.8095
417.9360, 138.2496
418.4182, 137.5199
418.9003, 136.8135
419.3824, 136.2168
419.8645, 135.7573
420.3466, 135.5935
420.8287, 135.8937
421.3109, 136.1405
421.7930, 136.0682
422.2751, 135.8571
422.7572, 135.6719
423.2393, 135.5363
423.7214, 135.5325
424.2036, 135.9224
424.6857, 136.6749
425.1678, 136.9675
425.6499, 136.4176
426.1320, 135.5918
426.6141, 134.9289
427.0963, 134.4356
427.5784, 134.1883
428.0605, 134.4314
428.5426, 134.8558
429.0247, 134.9262
429.5068, 134.5936
429.9890, 134.3060
430.4711, 134.3951
430.9532, 134.7328
431.4353, 134.8725
431.9174, 134.6721
432.3995, 134.4830
432.8817, 134.4884
433.3638, 134.6306
433.8459, 134.7940
434.3280, 134.9433
434.8101, 135.0952
435.2922, 135.2780
435.7744, 135.5053
436.2565, 135.6991
436.7386, 135.7693
437.2207, 135.8736
437.7028, 136.2100
438.1849, 136.7075
438.6671, 137.0509
439.1492, 136.9956
439.6313, 136.6452
440.1134, 136.6111
440.5955, 137.2122
441.0776, 137.7431
441.5598, 138.2680
442.0418, 138.6169
442.5240, 138.4831
443.0061, 137.8474
443.4882, 137.1465
443.9703, 136.9736
444.4524, 137.4563
444.9345, 137.8713
445.4167, 138.1431
445.8988, 138.4205
446.3809, 138.7168
446.8630, 139.0596
447.3451, 139.5053
447.8272, 140.0960
448.3094, 140.7738
448.7915, 141.4205
449.2736, 142.0857
449.7557, 142.5711
450.2378, 142.5449
450.7199, 142.5111
451.2021, 142.8941
451.6842, 143.7195
452.1663, 144.5828
452.6484, 145.1690
453.1305, 145.5263
453.6126, 145.9129
454.0948, 146.4880
454.5769, 146.7441
455.0590, 146.0685
455.5411, 144.8687
456.0232, 143.8258
456.5053, 143.1564
456.9875, 142.5988
457.4696, 141.9566
457.9517, 141.2426
458.4338, 140.4683
458.9159, 139.5813
459.3980, 138.7458
459.8802, 138.3035
460.3623, 138.3063
460.8444, 138.0934
461.3265, 136.9915
461.8086, 136.0054
462.2907, 136.2748
462.7729, 137.6826
463.2550, 139.1144
463.7371, 139.8472
464.2192, 139.9599
464.7013, 139.9156
465.1834, 139.4881
465.6656, 139.2026
466.1477, 139.1499
466.6298, 139.2664
467.1119, 139.4695
467.5940, 139.7464
468.0761, 140.1744
468.5583, 140.9054
469.0404, 142.0574
469.5225, 142.7808
470.0046, 142.4472
470.4867, 142.3342
470.9688, 142.9292
471.4510, 143.9862
471.9331, 145.0673
472.4152, 145.9609
472.8973, 146.8095
473.3794, 147.9592
473.8615, 149.5477
474.3437, 150.8354
474.8258, 151.3090
475.3079, 151.7381
475.7900, 152.5707
476.2721, 153.7980
476.7542, 155.2200
477.2364, 156.8647
477.7185, 158.5818
478.2006, 160.0703
478.6827, 161.3274
479.1648, 162.3657
479.6469, 163.4901
480.1291, 164.2090
480.6112, 163.6337
481.0933, 161.3383
481.5754, 158.8479
482.0575, 156.9223
482.5396, 155.3266
483.0217, 153.5844
483.5038, 151.5934
483.9860, 149.6341
484.4681, 147.9510
484.9502, 146.5664
485.4323, 145.3304
485.9144, 144.3505
486.3965, 143.3965
486.8787, 142.1955
487.3608, 140.9783
487.8429, 140.2000
488.3250, 140.0389
488.8071, 140.2455
489.2892, 140.4045
489.7714, 140.5918
490.2535, 140.5291
490.7356, 139.8078
491.2177, 139.2568
491.6998, 139.4350
492.1819, 140.1399
492.6641, 140.8069
493.1462, 141.0664
493.6283, 141.0744
494.1104, 141.3028
494.5925, 141.8489
495.0746, 142.3504
495.5568, 142.7706
496.0389, 143.0791
496.5210, 143.2668
497.0031, 143.3257
497.4852, 143.2095
497.9673, 142.7346
498.4495, 142.0701
498.9316, 141.7952
499.4137, 142.0598
499.8958, 142.0927
500.3779, 141.3584
500.8600, 140.1051
501.3422, 138.8580
501.8243, 137.5833
502.3064, 136.4409
502.7885, 135.5660
503.2706, 134.8559
503.7527, 134.1367
504.2349, 133.3742
504.7170, 132.5395
505.1991, 131.5691
505.6812, 130.4422
506.1633, 129.5588
506.6454, 128.9421
507.1276, 128.5117
507.6097, 128.3605
508.0918, 128.3411
508.5739, 128.2922
509.0560, 128.1446
509.5381, 127.8083
510.0203, 127.0566
510.5024, 125.6086
510.9845, 124.7091
511.4666, 124.8441
511.9487, 125.0502
512.4308, 124.9282
512.9130, 124.6026
513.3951, 124.3810
513.8772, 124.4358
514.3593, 124.6181
514.8414, 124.6649
515.3235, 124.5658
515.8057, 124.4010
516.2878, 124.0998
516.7699, 123.8274
517.2520, 123.8535
517.7341, 124.1014
518.2162, 124.0332
518.6984, 123.0453
519.1805, 121.8324
519.6626, 121.3547
520.1447, 121.5800
520.6268, 121.8529
521.1089, 121.8789
521.5911, 121.7468
522.0732, 121.6611
522.5553, 121.6647
523.0374, 121.5859
523.5195, 121.2514
524.0016, 120.9245
524.4838, 120.8841
524.9659, 121.1041
525.4480, 121.3485
525.9301, 121.4545
526.4122, 121.4342
526.8943, 121.3345
527.3765, 120.8997
527.8586, 120.7700
528.3407, 121.3434
528.8228, 121.9865
529.3049, 122.1455
529.7870, 121.7930
530.2692, 121.3126
530.7513, 120.9973
531.2334, 120.8390
531.7155, 120.8130
532.1976, 120.9939
532.6797, 121.1343
533.1619, 121.1401
533.6440, 121.0469
534.1261, 120.8030
534.6082, 120.3572
535.0903, 120.1207
535.5724, 120.6003
536.0546, 121.4313
536.5367, 121.7629
537.0188, 121.4591
537.5009, 121.1260
537.9830, 121.2673
538.4651, 121.7531
538.9473, 121.8527
539.4294, 121.1989
539.9115, 120.6575
540.3936, 120.4899
540.8757, 120.5547
541.3578, 120.7567
541.8400, 121.0400
542.3221, 121.2360
542.8042, 121.1370
543.2863, 120.7346
543.7684, 120.5667
544.2505, 120.7264
544.7326, 121.0314
545.2147, 121.8004
545.6968, 122.5211
546.1790, 122.4619
546.6611, 121.4956
547.1432, 120.4823
547.6253, 120.4238
548.1074, 121.2366
548.5895, 121.9857
549.0717, 122.6842
549.5538, 123.2089
550.0359, 123.4338
550.5180, 123.4469
551.0001, 123.3298
551.4822, 123.0229
551.9644, 122.7648
552.4465, 122.6530
552.9286, 122.7055
553.4107, 123.0009
553.8928, 123.5580
554.3749, 124.2063
554.8571, 124.8272
555.3392, 125.4170
555.8213, 125.8116
556.3034, 125.7783
556.7855, 125.8621
557.2676, 126.2454
557.7498, 126.8029
558.2319, 127.4404
558.7140, 128.1079
559.1961, 128.6777
559.6782, 128.9632
560.1603, 128.9566
560.6425, 129.2257
561.1246, 130.0714
561.6067, 130.7461
562.0888, 130.7424
562.5709, 130.6019
563.0530, 131.0173
563.5352, 132.1689
564.0173, 133.4188
564.4994, 134.4036
564.9815, 135.0579
565.4636, 135.1445
565.9457, 134.6157
566.4279, 133.6090
566.9100, 131.8962
567.3921, 129.8244
567.8742, 128.5918
568.3563, 128.6948
568.8384, 128.8003
569.3206, 128.3709
569.8027, 127.7415
570.2848, 127.3570
570.7669, 127.2592
571.2490, 127.1309
571.7311, 126.6778
572.2133, 125.9426
572.6954, 125.4233
573.1775, 125.4243
573.6596, 125.2178
574.1417, 124.4991
574.6238, 123.6853
575.1060, 123.1707
575.5881, 122.9765
576.0702, 122.8120
576.5523, 122.4234
577.0344, 121.8718
577.5165, 121.3999
577.9987, 121.0415
578.4808, 120.5992
578.9629, 119.7772
579.4450, 118.9847
579.9271, 118.8721
580.4092, 119.5674
580.8914, 120.0953
581.3735, 119.8457
581.8556, 119.3947
582.3377, 119.3990
582.8198, 119.8496
583.3019, 120.4231
583.7841, 120.9714
584.2662, 121.4217
584.7483, 121.5616
585.2304, 120.9991
585.7125, 120.7744
586.1946, 121.1377
586.6768, 121.5940
587.1589, 121.8686
587.6410, 121.9712
588.1231, 122.0116
588.6052, 122.0426
589.0873, 122.0799
589.5695, 122.1090
590.0516, 122.0945
590.5337, 122.3518
591.0158, 123.0985
591.4979, 123.9577
591.9800, 124.5709
592.4622, 125.0117
592.9443, 125.5834
593.4264, 126.4838
593.9085, 127.4509
594.3906, 128.3443
594.8727, 129.1263
595.3549, 129.6606
595.8370, 129.8912
596.3191, 129.9938
596.8012, 130.1631
597.2833, 130.3894
597.7654, 130.7689
598.2476, 131.6071
598.7297, 132.2236
599.2118, 132.4234
599.6939, 132.2756
600.1760, 131.8203
600.6581, 131.0915
601.1403, 130.2628
601.6224, 129.5144
602.1045, 128.8403
602.5866, 128.1726
603.0687, 127.4917
603.5508, 126.8639
604.0330, 126.2690
604.5151, 125.7731
604.9972, 125.5292
605.4793, 125.6154
605.9614, 125.6393
606.4435, 125.4157
606.9257, 125.0066
607.4078, 124.4659
607.8899, 123.8136
608.3720, 123.0797
608.8541, 122.2305
609.3362, 121.4099
609.8184, 121.0791
610.3005, 121.6730
610.7826, 122.1292
611.2647, 122.4991
611.7468, 122.6939
612.2289, 122.5592
612.7111, 122.1992
613.1932, 121.8705
613.6753, 121.7125
614.1574, 121.6816
614.6395, 121.7430
615.1216, 121.9136
615.6038, 121.9300
616.0859, 121.6470
616.5680, 121.3369
617.0501, 121.2130
617.5322, 121.2454
618.0143, 121.3572
618.4965, 121.6374
618.9786, 121.8748
619.4607, 121.8431
619.9428, 121.7039
620.4249, 121.8294
620.9070, 122.2907
621.3892, 122.7065
621.8713, 122.6569
622.3534, 122.1512
622.8355, 121.9021
623.3176, 122.2536
623.7997, 122.4215
624.2819, 122.2279
624.7640, 121.8481
625.2461, 121.4433
625.7282, 121.0315
626.2103, 120.5113
626.6924, 119.6702
627.1745, 118.7166
627.6566, 118.2699
628.1387, 118.3758
628.6208, 118.3103
629.1030, 117.6830
629.5851, 116.8950
630.0672, 116.5894
630.5493, 116.7834
631.0314, 116.9013
631.5135, 116.7784
631.9957, 116.6316
632.4778, 116.6619
632.9599, 116.7617
633.4420, 116.6576
633.9241, 116.2549
634.4063, 115.7885
634.8884, 115.6131
635.3705, 115.7756
635.8526, 115.8480
636.3347, 116.0207
636.8168, 115.8120
637.2990, 114.7631
637.7811, 113.4261
638.2632, 112.4417
638.7453, 111.9474
639.2274, 111.7078
639.7095, 111.6719
640.1917, 111.7461
640.6738, 111.8066
641.1559, 111.8366
641.6380, 111.6890
642.1201, 111.2207
642.6022, 110.6382
643.0844, 110.4348
643.5665, 110.9801
644.0486, 111.1312
644.5307, 110.5515
645.0128, 109.9066
645.4949, 109.5387
645.9771, 109.3901
646.4592, 109.2882
646.9413, 109.1587
647.4234, 109.0313
647.9055, 108.9596
648.3876, 108.9419
648.8698, 108.8782
649.3519, 108.7141
649.8340, 108.6132
650.3161, 108.7863
650.7982, 109.0624
651.2803, 109.0740
651.7625, 108.6793
652.2446, 108.3234
652.7267, 108.2646
653.2088, 108.2791
653.6909, 108.0703
654.1730, 107.6703
654.6552, 107.3723
655.1373, 107.3698
655.6194, 107.5156
656.1015, 106.7994
656.5836, 107.3834
657.0657, 107.7201
657.5479, 107.8229
658.0300, 106.9910
658.5121, 107.3660
658.9942, 107.2574
659.4763, 107.1289
659.9584, 107.6738
660.4406, 106.9779
660.9227, 107.5121
661.4048, 107.5553
661.8869, 107.8232
662.3690, 107.6044
662.8511, 107.5360
663.3333, 107.9544
663.8154, 108.1032
664.2975, 107.8284
664.7796, 108.1106
665.2617, 107.3977
665.7438, 107.5580
666.2260, 108.0951
666.7081, 107.8448
667.1902, 108.1359
667.6723, 108.2208
668.1544, 107.3686
668.6365, 108.1461
669.1187, 108.2188
669.6008, 107.5679
670.0829, 108.2895
670.5650, 107.7384
671.0471, 107.6415
671.5292, 107.8866
672.0114, 107.7752
672.4935, 108.2258
672.9756, 108.1350
673.4577, 107.9958
673.9398, 108.0678
674.4219, 107.5416
674.9041, 108.1250
675.3862, 107.9505
675.8683, 108.1527
676.3504, 107.7396
676.8325, 107.4233
677.3146, 107.3459
677.7968, 107.5863
678.2789, 107.6688
678.7610, 107.3714
679.2431, 107.1338
679.7252, 107.3131
680.2073, 107.7178
680.6895, 107.9587
681.1716, 107.9317
681.6537, 107.7971
682.1358, 107.4912
682.6179, 107.2076
683.1000, 107.3241
683.5822, 107.8100
684.0643, 108.2102
684.5464, 108.2241
685.0285, 107.9702
685.5106, 107.8038
685.9927, 107.8607
686.4749, 107.6866
686.9570, 106.9325
687.4391, 106.2786
687.9212, 106.0833
688.4033, 106.1864
688.8854, 106.2946
689.3676, 106.3342
689.8497, 106.2812
690.3318, 106.0054
690.8139, 105.6504
691.2960, 105.5693
691.7781, 105.7886
692.2603, 106.0369
692.7424, 106.1907
693.2245, 106.1919
693.7066, 105.8560
694.1887, 104.7784
694.6708, 104.1893
695.1530, 104.3833
695.6351, 104.7240
696.1172, 105.0084
696.5993, 105.1971
697.0814, 105.2423
697.5635, 105.1210
698.0457, 104.9774
698.5278, 104.9894
699.0099, 105.0953
699.4920, 105.0655
699.9741, 104.8745
700.4562, 104.7271
700.9384, 104.7360
701.4205, 104.8483
701.9026, 104.9617
702.3847, 105.0953
702.8668, 105.1750
703.3489, 105.2950
703.8311, 105.2636
704.3132, 104.7650
704.7953, 104.1300
705.2774, 103.9274
705.7595, 104.3162
706.2416, 104.8297
706.7238, 104.9834
707.2059, 104.8383
707.6880, 104.6258
708.1701, 104.3296
708.6522, 104.1086
709.1343, 103.9899
709.6164, 104.0280
710.0985, 104.4418
710.5806, 105.3589
711.0627, 105.7090
711.5449, 104.9570
712.0270, 104.1273
712.5091, 103.6125
712.9912, 103.3632
713.4733, 103.3009
713.9554, 103.3925
714.4376, 103.6023
714.9197, 103.9473
715.4018, 104.3678
715.8839, 104.6554
716.3660, 104.8159
716.8481, 104.7593
717.3303, 104.2947
717.8124, 103.8257
718.2945, 103.9431
718.7766, 104.5879
719.2587, 104.8819
719.7408, 104.3933
720.2230, 103.9640
720.7051, 104.0376
721.1872, 104.2851
721.6693, 104.2880
722.1514, 104.0185
722.6335, 103.7593
723.1157, 103.7388
723.5978, 103.8523
724.0799, 103.7785
724.5620, 103.4817
725.0441, 103.3635
725.5262, 103.5399
726.0084, 103.8434
726.4905, 104.2505
726.9726, 104.6829
727.4547, 104.8114
727.9368, 104.3039
728.4189, 103.9873
728.9011, 104.2628
729.3832, 104.7239
729.8653, 105.0296
730.3474, 105.1560
730.8295, 105.1718
731.3116, 105.1023
731.7938, 105.0499
732.2759, 105.3184
732.7580, 105.9185
733.2401, 105.9177
733.7222, 104.9471
734.2043, 104.1519
734.6865, 104.2858
735.1686, 105.0038
735.6507, 105.5709
736.1328, 106.0295
736.6149, 106.1872
737.0970, 105.5719
737.5792, 105.0464
738.0613, 105.3236
738.5434, 106.1164
739.0255, 106.8329
739.5076, 107.2634
739.9897, 107.5278
740.4719, 107.7477
740.9540, 107.9246
741.4361, 108.0760
741.9182, 108.2049
742.4003, 108.2746
742.8824, 108.1988
743.3646, 108.1384
743.8467, 108.2762
744.3288, 108.6037
744.8109, 109.1953
745.2930, 110.2537
745.7751, 111.3484
746.2573, 112.3913
746.7394, 113.3271
747.2215, 114.0262
747.7036, 114.5258
748.1857, 115.0972
748.6678, 115.9732
749.1500, 116.9968
749.6321, 117.7231
750.1142, 118.1546
750.5963, 119.0268
751.0784, 120.7082
751.5605, 122.1859
752.0427, 122.5241
752.5248, 121.9487
753.0069, 121.7428
753.4890, 121.8661
753.9711, 122.3808
754.4532, 123.4961
754.9354, 124.8296
755.4175, 126.1740
755.8996, 127.4995
756.3817, 128.7906
756.8638, 130.0358
757.3459, 131.3928
757.8281, 133.1216
758.3102, 135.1231
758.7923, 136.9153
759.2744, 138.4515
759.7565, 140.2716
760.2386, 142.7341
760.7208, 145.4560
761.2029, 147.8093
761.6850, 149.7810
762.1671, 151.4300
762.6492, 153.1810
763.1313, 154.1246
763.6135, 153.8771
764.0956, 152.7375
764.5777, 150.9301
765.0598, 148.5475
765.5419, 145.7716
766.0240, 142.6340
766.5062, 139.2457
766.9883, 135.6488
767.4704, 131.9050
767.9525, 128.3221
768.4346, 124.9558
768.9167, 121.9205
769.3989, 119.3596
769.8810, 117.2062
770.3631, 115.1579
770.8452, 112.9811
771.3273, 111.3309
771.8094, 110.6656
772.2916, 110.1066
772.7737, 109.1978
773.2558, 108.0543
773.7379, 106.9210
774.2200, 105.8142
774.7021, 104.9487
775.1843, 104.5939
775.6664, 104.4952
776.1485, 104.3633
776.6306, 104.1622
777.1127, 103.8394
777.5948, 103.3646
778.0770, 102.9206
778.5591, 102.8246
779.0412, 103.1027
779.5233, 103.1458
780.0054, 102.8173
780.4875, 102.5442
780.9697, 102.5943
781.4518, 102.6602
781.9339, 102.3213
782.4160, 101.6317
782.8981, 101.2879
783.3802, 101.8938
783.8624, 102.3830
784.3445, 102.0623
784.8266, 101.3919
785.3087, 100.9267
785.7908, 100.7446
786.2729, 100.6845
786.7551, 100.6496
787.2372, 100.6338
787.7193, 100.6126
788.2014, 100.5869
788.6835, 100.6476
789.1656, 100.8325
789.6478, 101.0110
790.1299, 101.1363
790.6120, 101.1795
791.0941, 100.9728
791.5762, 99.58871
792.0583, 100.3468
792.5404, 100.8577
793.0225, 101.1347
793.5046, 100.4770
793.9868, 101.0262
794.4689, 101.0917
794.9510, 101.1375
795.4331, 101.8565
795.9152, 101.3348
796.3973, 102.0431
796.8795, 102.2605
797.3616, 102.7026
797.8437, 102.6580
798.3258, 102.7638
798.8079, 103.3563
799.2900, 103.6793
799.7722, 103.1445
800.2543, 103.0685
800.7364, 102.9955
801.2185, 103.0147
801.7006, 103.2297
802.1827, 103.4419
802.6649, 103.5677
803.1470, 103.6235
803.6291, 103.5843
804.1112, 103.3799
804.5933, 103.4384
805.0754, 104.3491
805.5576, 105.3281
806.0397, 105.4234
806.5218, 104.9518
807.0039, 104.8189
807.4860, 105.3163
807.9681, 105.9447
808.4503, 106.1277
808.9324, 105.9687
809.4145, 106.0461
809.8966, 106.4085
810.3787, 106.7137
810.8608, 106.8933
811.3430, 106.9644
811.8251, 106.9809
812.3072, 106.9082
812.7893, 106.5502
813.2714, 105.6519
813.7535, 104.8548
814.2357, 104.3162
814.7178, 103.8461
815.1999, 103.2980
815.6820, 102.7259
816.1641, 102.2741
816.6462, 101.9959
817.1284, 101.7573
817.6105, 101.3993
818.0926, 101.0171
818.5747, 100.8379
819.0568, 100.8307
819.5389, 100.7762
820.0211, 100.6001
820.5032, 100.3065
820.9853, 99.85627
821.4674, 99.27789
821.9495, 99.04153
822.4316, 99.32167
822.9138, 99.56020
823.3959, 99.66625
823.8780, 99.69675
824.3601, 99.62851
824.8422, 99.51914
825.3243, 99.52436
825.8065, 99.70959
826.2886, 99.91355
826.7707, 100.1271
827.2528, 100.2905
827.7349, 100.3239
828.2170, 100.2686
828.6992, 100.1927
829.1813, 100.1281
829.6634, 100.1448
830.1455, 100.3721
830.6276, 100.7298
831.1097, 100.8825
831.5919, 100.8361
832.0740, 101.0314
832.5561, 101.6434
833.0382, 102.3225
833.5203, 102.7401
834.0024, 102.9260
834.4846, 103.1262
834.9667, 103.3479
835.4488, 103.5676
835.9309, 103.9907
836.4130, 104.1976
836.8951, 103.8663
837.3773, 103.2009
837.8594, 102.5582
838.3415, 102.0151
838.8236, 101.4983
839.3057, 100.9252
839.7878, 100.3970
840.2700, 99.96917
840.7521, 99.67332
841.2342, 99.65526
841.7163, 99.90492
842.1984, 100.0709
842.6805, 99.82441
843.1627, 99.26359
843.6448, 98.60766
844.1269, 97.85171
844.6090, 97.30817
845.0911, 97.04689
845.5732, 96.97414
846.0554, 97.09484
846.5375, 97.31442
847.0196, 97.35220
847.5017, 97.08365
847.9838, 96.91543
848.4659, 96.92859
848.9481, 96.94234
849.4302, 96.94147
849.9123, 96.87135
850.3944, 96.58496
850.8765, 96.10604
851.3586, 95.81369
851.8408, 96.03510
852.3229, 96.38235
852.8050, 96.53804
853.2871, 96.58699
853.7692, 96.70625
854.2513, 96.89017
854.7335, 96.97147
855.2156, 96.84441
855.6977, 96.55431
856.1798, 96.08358
856.6619, 95.44817
857.1440, 95.24843
857.6262, 95.60174
858.1083, 95.92977
858.5904, 95.97892
859.0725, 95.88608
859.5546, 95.84004
860.0367, 95.85081
860.5189, 95.79588
861.0010, 95.42171
861.4831, 95.33047
861.9652, 95.99393
862.4473, 96.64840
862.9294, 96.60924
863.4116, 96.08025
863.8937, 95.71793
864.3758, 95.71700
864.8579, 95.92529
865.3400, 96.49313
865.8221, 97.03916
866.3043, 97.02364
866.7864, 96.61698
867.2685, 96.28098
867.7506, 96.18841
868.2327, 96.34941
868.7148, 96.86934
869.1970, 97.58788
869.6791, 97.94419
870.1612, 97.93659
870.6433, 97.87527
871.1254, 97.79091
871.6075, 97.83237
872.0897, 98.16835
872.5718, 98.66819
873.0539, 98.88206
873.5360, 98.52437
874.0181, 98.53624
874.5002, 98.98120
874.9823, 99.73549
875.4644, 101.0784
875.9465, 102.5198
876.4286, 103.3913
876.9108, 103.6819
877.3929, 104.2811
877.8750, 105.7634
878.3571, 107.3078
878.8392, 108.4374
879.3214, 109.3915
879.8035, 110.4324
880.2856, 111.5843
880.7677, 112.7212
881.2498, 113.7593
881.7319, 115.0222
882.2141, 117.2273
882.6962, 119.9393
883.1783, 121.6103
883.6604, 122.3074
884.1425, 123.4020
884.6246, 125.3807
885.1068, 127.8785
885.5889, 130.5330
886.0710, 133.3218
886.5531, 136.0403
887.0352, 138.7065
887.5173, 141.2400
887.9995, 143.4811
888.4816, 145.8061
888.9637, 148.3815
889.4458, 151.2491
889.9279, 154.6320
890.4100, 158.8006
890.8922, 162.3666
891.3743, 164.9676
891.8564, 167.1399
892.3385, 169.3526
892.8206, 171.1127
893.3027, 172.0826
893.7849, 172.0699
894.2670, 170.5656
894.7491, 167.0286
895.2312, 162.5384
895.7133, 157.9311
896.1954, 153.1248
896.6776, 147.9682
897.1597, 142.5271
897.6418, 136.8763
898.1239, 131.0896
898.6060, 125.6122
899.0881, 121.0339
899.5703, 117.2639
900.0524, 113.7118
900.5345, 110.3733
901.0166, 107.5073
901.4987, 105.1895
901.9808, 103.2693
902.4630, 101.6867
902.9451, 100.3580
903.4272, 98.97483
903.9093, 97.35054
904.3914, 96.09359
904.8735, 95.37387
905.3557, 94.81516
905.8378, 94.38235
906.3199, 93.98199
906.8020, 93.51893
907.2841, 92.99141
907.7662, 92.44364
908.2484, 91.70189
908.7305, 91.17966
909.2126, 91.25867
909.6947, 91.46390
910.1768, 91.35821
910.6589, 90.99283
911.1411, 90.58770
911.6232, 90.22301
912.1053, 89.92799
912.5874, 89.80375
913.0695, 89.71519
913.5516, 89.31159
914.0338, 88.76994
914.5159, 88.77947
914.9980, 89.43031
915.4801, 89.89761
915.9622, 89.49168
916.4443, 88.61608
916.9265, 88.28951
917.4086, 88.50905
917.8907, 88.39779
918.3728, 87.81141
918.8549, 87.39705
919.3370, 87.52370
919.8192, 87.77867
920.3013, 87.52937
920.7834, 86.75025
921.2655, 86.49467
921.7476, 87.29045
922.2297, 87.69703
922.7119, 87.26125
923.1940, 86.63448
923.6761, 86.03987
924.1582, 85.55716
924.6403, 85.34389
925.1224, 85.44254
925.6046, 85.68526
926.0867, 86.16793
926.5688, 86.63039
927.0509, 86.88720
927.5330, 87.07573
928.0151, 87.44201
928.4973, 87.92879
928.9794, 88.16955
929.4615, 87.92184
929.9436, 87.55305
930.4257, 87.23448
930.9078, 87.08297
931.3900, 87.37296
931.8721, 87.98646
932.3542, 88.56058
932.8363, 88.95986
933.3184, 89.18711
933.8005, 89.16988
934.2827, 89.06255
934.7648, 89.35954
935.2469, 90.00319
935.7290, 90.40252
936.2111, 90.45039
936.6932, 90.52132
937.1754, 90.83717
937.6575, 91.29227
938.1396, 91.67849
938.6217, 91.97683
939.1038, 92.49743
939.5859, 93.41878
940.0681, 94.06155
940.5502, 94.02422
941.0323, 93.98797
941.5144, 94.63821
941.9965, 95.77058
942.4786, 96.50757
942.9608, 96.60635
943.4429, 96.83545
943.9250, 97.42212
944.4071, 97.91237
944.8892, 98.07674
945.3713, 98.07880
945.8535, 98.07764
946.3356, 98.09696
946.8177, 98.14144
947.2998, 98.15880
947.7819, 98.28403
948.2640, 98.73599
948.7462, 99.19469
949.2283, 99.33933
949.7104, 99.25352
950.1925, 99.18272
950.6746, 99.19290
951.1567, 99.11499
951.6389, 98.75075
952.1210, 98.28560
952.6031, 98.00900
953.0852, 97.79796
953.5673, 97.31164
954.0494, 96.56966
954.5316, 96.00401
955.0137, 95.85809
955.4958, 95.69340
955.9779, 94.77048
956.4600, 93.26224
956.9421, 91.96868
957.4242, 90.88842
957.9063, 90.12527
958.3884, 89.71603
958.8705, 89.49597
959.3527, 89.36924
959.8348, 89.26257
960.3169, 88.92280
960.7990, 88.25955
961.2811, 87.89465
961.7632, 88.02858
962.2454, 87.90800
962.7275, 87.10934
963.2096, 86.15345
963.6917, 85.64092
964.1738, 85.52133
964.6559, 85.21072
965.1381, 84.31018
965.6202, 83.87219
966.1023, 84.43525
966.5844, 84.87632
967.0665, 84.47735
967.5486, 83.80208
968.0308, 83.70632
968.5129, 84.23378
968.9950, 84.44386
969.4771, 83.80029
969.9592, 83.26290
970.4413, 83.35202
970.9235, 83.49553
971.4056, 83.05381
971.8877, 82.35503
972.3698, 82.22202
972.8519, 82.87691
973.3340, 83.36622
973.8162, 82.97412
974.2983, 82.38242
974.7804, 82.09633
975.2625, 81.99313
975.7446, 81.96952
976.2267, 81.94270
976.7089, 81.68154
977.1910, 81.05906
977.6731, 80.54470
978.1552, 80.81121
978.6373, 81.40022
979.1194, 81.41264
979.6016, 81.05486
980.0837, 81.10139
980.5658, 81.65978
981.0479, 82.13386
981.5300, 82.11066
982.0121, 81.83630
982.4943, 81.69303
982.9764, 81.67888
983.4585, 81.87012
983.9406, 82.25149
984.4227, 82.36213
984.9048, 82.04373
985.3870, 81.57336
985.8691, 81.18072
986.3512, 80.87365
986.8333, 80.65675
987.3154, 80.51407
987.7975, 80.64674
988.2797, 81.15330
988.7618, 81.59579
989.2439, 81.82845
989.7260, 81.85767
990.2081, 81.61974
990.6902, 81.17054
991.1724, 81.05574
991.6545, 81.49076
992.1366, 81.76405
992.6187, 81.83128
993.1008, 81.72858
993.5829, 81.33157
994.0651, 80.87026
994.5472, 80.61977
995.0293, 80.57877
995.5114, 80.81765
995.9935, 81.92799
996.4756, 82.45512
996.9578, 81.55456
997.4399, 80.71634
997.9220, 80.94460
998.4041, 81.69987
998.8862, 82.11360
999.3683, 82.08215
999.8505, 82.00648
1000.333, 81.90355
1000.815, 81.87981
1001.297, 82.05782
1001.779, 82.25778
1002.261, 82.33500
1002.743, 82.31684
1003.225, 82.27785
1003.707, 82.23637
1004.190, 82.18665
1004.672, 82.11094
1005.154, 82.04310
1005.636, 82.00206
1006.118, 81.98307
1006.600, 82.01791
1007.082, 82.06381
1007.564, 81.99116
1008.046, 81.75008
1008.529, 81.52501
1009.011, 81.50278
1009.493, 81.53260
1009.975, 81.47654
1010.457, 81.33895
1010.939, 81.10809
1011.421, 80.80689
1011.903, 80.45150
1012.385, 80.04275
1012.868, 79.84895
1013.350, 80.42348
1013.832, 81.26832
1014.314, 81.37430
1014.796, 80.95781
1015.278, 80.65025
1015.760, 80.57639
1016.242, 80.67874
1016.725, 80.93980
1017.207, 81.14006
1017.689, 80.84439
1018.171, 80.23669
1018.653, 80.02889
1019.135, 80.16456
1019.617, 80.22099
1020.099, 80.10169
1020.581, 79.84717
1021.064, 79.46212
1021.546, 79.08785
1022.028, 79.01328
1022.510, 79.21325
1022.992, 79.42812
1023.474, 79.65992
1023.956, 79.69028
1024.438, 79.44292
1024.921, 79.20708
1025.403, 79.21518
1025.885, 79.33821
1026.367, 79.26797
1026.849, 78.99320
1027.331, 78.66594
1027.813, 78.23093
1028.295, 78.08834
1028.777, 78.41948
1029.260, 78.81850
1029.742, 78.96238
1030.224, 78.92341
1030.706, 78.89969
1031.188, 78.89940
1031.670, 78.86223
1032.152, 78.75712
1032.634, 78.72709
1033.116, 78.91041
1033.599, 78.97520
1034.081, 78.53722
1034.563, 77.83084
1035.045, 77.59246
1035.527, 77.90891
1036.009, 78.43324
1036.491, 79.49129
1036.973, 80.12103
1037.456, 79.86613
1037.938, 79.32333
1038.420, 78.85408
1038.902, 78.51620
1039.384, 78.53587
1039.866, 79.10872
1040.348, 79.49226
1040.830, 79.72753
1041.313, 79.71068
1041.795, 79.01098
1042.277, 78.41341
1042.759, 78.77303
1043.241, 79.73440
1043.723, 80.16210
1044.205, 79.83839
1044.687, 79.54854
1045.169, 79.28690
1045.651, 79.11021
1046.134, 79.16990
1046.616, 79.20179
1047.098, 78.86121
1047.580, 78.32887
1048.062, 78.17168
1048.544, 78.57823
1049.026, 78.86446
1049.508, 78.92222
1049.991, 78.87248
1050.473, 78.70368
1050.955, 78.49069
1051.437, 78.23743
1051.919, 77.99798
1052.401, 77.89407
1052.883, 77.95043
1053.365, 78.11285
1053.848, 78.68391
1054.330, 78.95935
1054.812, 78.30385
1055.294, 77.56009
1055.776, 77.49130
1056.258, 77.91982
1056.740, 78.30596
1057.222, 78.54945
1057.704, 78.78036
1058.187, 79.23511
1058.669, 79.42854
1059.151, 79.05607
1059.633, 78.41789
1060.115, 77.42570
1060.597, 76.47365
1061.079, 76.51457
1061.561, 77.85058
1062.043, 78.79699
1062.526, 78.49335
1063.008, 78.04649
1063.490, 77.87720
1063.972, 77.84867
1064.454, 77.88775
1064.936, 77.94642
1065.418, 77.97236
1065.900, 77.95548
1066.383, 77.85670
1066.865, 77.63120
1067.347, 77.35925
1067.829, 77.02967
1068.311, 76.71377
1068.793, 76.37466
1069.275, 76.13455
1069.757, 76.33526
1070.240, 77.00359
1070.722, 77.32712
1071.204, 76.60603
1071.686, 75.94070
1072.168, 75.89657
1072.650, 76.06762
1073.132, 76.24182
1073.614, 76.32878
1074.096, 76.21470
1074.578, 75.89541
1075.061, 75.51643
1075.543, 74.99083
1076.025, 74.64782
1076.507, 74.82819
1076.989, 75.07198
1077.471, 75.01022
1077.953, 74.76791
1078.435, 74.51843
1078.918, 74.31873
1079.400, 74.28027
1079.882, 74.53448
1080.364, 74.76539
1080.846, 74.82923
1081.328, 74.80924
1081.810, 74.63826
1082.292, 74.50092
1082.774, 74.76371
1083.257, 75.32815
1083.739, 75.56334
1084.221, 75.12990
1084.703, 74.73896
1085.185, 74.84348
1085.667, 74.95708
1086.149, 74.59326
1086.631, 74.17649
1087.114, 74.26517
1087.596, 74.78190
1088.078, 75.29663
1088.560, 75.72902
1089.042, 75.93810
1089.524, 75.81064
1090.006, 75.51161
1090.488, 74.96199
1090.970, 74.42690
1091.453, 74.17915
1091.935, 74.16863
1092.417, 74.16730
1092.899, 74.09322
1093.381, 74.34972
1093.863, 75.75052
1094.345, 76.66010
1094.827, 75.78701
1095.309, 74.58727
1095.792, 74.31228
1096.274, 74.65983
1096.756, 74.94382
1097.238, 75.04057
1097.720, 74.87947
1098.202, 74.08277
1098.684, 73.52002
1099.166, 73.68615
1099.649, 73.97454
1100.131, 73.87589
1100.613, 73.67146
1101.095, 73.90364
1101.577, 74.57058
1102.059, 74.99387
1102.541, 74.97297
1103.023, 74.75659
1103.505, 74.18520
1103.988, 73.68111
1104.470, 73.47884
1104.952, 73.46195
1105.434, 73.49016
1105.916, 73.56543
1106.398, 73.77497
1106.880, 74.25365
1107.362, 74.57439
1107.844, 74.52359
1108.327, 74.49345
1108.809, 74.72539
1109.291, 74.95924
1109.773, 74.93722
1110.255, 74.72747
1110.737, 74.55088
1111.219, 74.43538
1111.701, 74.30196
1112.184, 74.18484
1112.666, 73.99532
1113.148, 73.50541
1113.630, 73.14790
1114.112, 73.39260
1114.594, 73.88963
1115.076, 73.94514
1115.558, 73.49532
1116.041, 73.24813
1116.523, 73.40580
1117.005, 73.41066
1117.487, 72.93728
1117.969, 72.69732
1118.451, 73.25916
1118.933, 74.01513
1119.415, 74.13276
1119.897, 73.68452
1120.380, 73.48153
1120.862, 73.55617
1121.344, 73.82835
1121.826, 74.48564
1122.308, 74.92298
1122.790, 74.86921
1123.272, 74.61198
1123.754, 74.36071
1124.236, 74.16519
1124.719, 74.21041
1125.201, 74.54408
1125.683, 74.91845
1126.165, 75.44006
1126.647, 75.52898
1127.129, 74.89613
1127.611, 74.32703
1128.093, 74.37824
1128.576, 74.79320
1129.058, 75.13987
1129.540, 75.40890
1130.022, 75.35918
1130.504, 74.95364
1130.986, 74.70304
1131.468, 74.70974
1131.950, 74.55709
1132.432, 74.00921
1132.915, 73.44758
1133.397, 73.33164
1133.879, 73.58199
1134.361, 74.00917
1134.843, 74.58109
1135.325, 74.87605
1135.807, 74.87004
1136.289, 74.68824
1136.771, 74.37524
1137.254, 74.06892
1137.736, 73.87708
1138.218, 73.77560
1138.700, 73.74874
1139.182, 73.77019
1139.664, 73.66027
1140.146, 73.50971
1140.628, 73.87634
1141.111, 74.73501
1141.593, 75.17925
1142.075, 74.72763
1142.557, 74.01446
1143.039, 73.81117
1143.521, 73.77169
1144.003, 73.20403
1144.485, 72.40544
1144.968, 71.87978
1145.450, 71.72034
1145.932, 72.09965
1146.414, 72.99349
1146.896, 73.71768
1147.378, 73.73119
1147.860, 73.50822
1148.342, 73.50073
1148.824, 73.51401
1149.307, 73.29140
1149.789, 72.93029
1150.271, 72.63384
1150.753, 72.41421
1151.235, 72.12289
1151.717, 71.65601
1152.199, 71.32328
1152.681, 71.33662
1153.163, 71.50089
1153.646, 71.83118
1154.128, 72.12926
1154.610, 72.09923
1155.092, 71.89993
1155.574, 71.99012
1156.056, 72.46992
1156.538, 72.68768
1157.020, 72.16965
1157.503, 71.77669
1157.985, 71.87679
1158.467, 72.03642
1158.949, 72.01793
1159.431, 71.89042
1159.913, 71.70686
1160.395, 71.49264
1160.877, 71.42693
1161.359, 71.68674
1161.842, 71.75070
1162.324, 71.35014
1162.806, 71.16575
1163.288, 71.58614
1163.770, 72.00408
1164.252, 71.90147
1164.734, 71.53088
1165.216, 71.48112
1165.698, 71.79587
1166.181, 71.82349
1166.663, 71.44272
1167.145, 71.21390
1167.627, 71.19224
1168.109, 71.45547
1168.591, 72.13453
1169.073, 72.80337
1169.555, 72.97510
1170.037, 72.72842
1170.520, 72.25438
1171.002, 71.56789
1171.484, 71.25378
1171.966, 71.33066
1172.448, 71.43233
1172.930, 71.46378
1173.412, 71.68232
1173.894, 72.29063
1174.377, 72.89411
1174.859, 72.80199
1175.341, 72.29023
1175.823, 72.14190
1176.305, 72.22510
1176.787, 72.14470
1177.269, 71.88088
1177.751, 71.54236
1178.234, 71.19632
1178.716, 71.08459
1179.198, 71.47045
1179.680, 72.00325
1180.162, 72.46314
1180.644, 72.71165
1181.126, 72.41584
1181.608, 71.85683
1182.090, 71.55589
1182.573, 71.52084
1183.055, 71.37804
1183.537, 70.95598
1184.019, 70.66682
1184.501, 70.82303
1184.983, 71.05090
1185.465, 71.23492
1185.947, 71.31307
1186.429, 71.12112
1186.912, 70.84174
1187.394, 70.86372
1187.876, 71.20293
1188.358, 71.30994
1188.840, 70.92538
1189.322, 70.57937
1189.804, 70.17213
1190.286, 70.01901
1190.769, 70.44676
1191.251, 70.93015
1191.733, 71.00783
1192.215, 70.81591
1192.697, 70.72546
1193.179, 70.77610
1193.661, 70.53985
1194.143, 69.84868
1194.625, 69.54415
1195.108, 69.83858
1195.590, 70.15835
1196.072, 70.22836
1196.554, 70.22627
1197.036, 70.38973
1197.518, 70.57861
1198.000, 70.20615
1198.482, 69.38589
1198.964, 69.26677
1199.447, 69.78027
1199.929, 69.87466
1200.411, 69.35680
1200.893, 68.90011
1201.375, 68.89439
1201.857, 69.06933
1202.339, 69.18497
1202.821, 69.21375
1203.304, 68.98965
1203.786, 68.71645
1204.268, 68.84055
1204.750, 69.22136
1205.232, 69.40865
1205.714, 69.31756
1206.196, 69.21489
1206.678, 69.25759
1207.161, 69.24923
1207.643, 68.99406
1208.125, 68.73143
1208.607, 68.49840
1209.089, 68.45157
1209.571, 68.97784
1210.053, 69.75037
1210.535, 69.95871
1211.017, 69.45554
1211.500, 69.05410
1211.982, 68.91728
1212.464, 68.81874
1212.946, 68.77943
1213.428, 68.70055
1213.910, 68.44962
1214.392, 68.26338
1214.874, 68.42971
1215.356, 68.79710
1215.839, 68.87106
1216.321, 68.59216
1216.803, 68.63616
1217.285, 69.07957
1217.767, 69.32157
1218.249, 69.24616
1218.731, 69.10177
1219.213, 68.99807
1219.696, 68.97375
1220.178, 69.09306
1220.660, 69.27089
1221.142, 69.35281
1221.624, 69.31628
1222.106, 68.93425
1222.588, 68.37358
1223.070, 68.31173
1223.552, 68.76146
1224.035, 69.08005
1224.517, 68.96642
1224.999, 68.77419
1225.481, 68.68398
1225.963, 68.78163
1226.445, 69.38589
1226.927, 70.00303
1227.409, 70.09944
1227.891, 69.82784
1228.374, 69.33092
1228.856, 68.76454
1229.338, 68.71432
1229.820, 69.64125
1230.302, 70.04142
1230.784, 69.08705
1231.266, 68.22626
1231.748, 67.97942
1232.231, 67.88381
1232.713, 67.57658
1233.195, 67.30643
1233.677, 67.47767
1234.159, 68.02906
1234.641, 68.42016
1235.123, 68.65064
1235.605, 68.69832
1236.088, 68.52155
1236.570, 68.41848
1237.052, 68.46872
1237.534, 68.61472
1238.016, 68.84841
1238.498, 68.91570
1238.980, 68.29129
1239.462, 67.40272
1239.944, 67.54221
1240.427, 68.34703
1240.909, 68.81353
1241.391, 68.90922
1241.873, 68.84361
1242.355, 68.69083
1242.837, 68.46889
1243.319, 68.16074
1243.801, 67.97551
1244.283, 68.09582
1244.766, 68.36902
1245.248, 68.85674
1245.730, 69.27856
1246.212, 69.25994
1246.694, 69.02613
1247.176, 68.99582
1247.658, 69.19569
1248.140, 69.35567
1248.622, 69.45152
1249.105, 69.47380
1249.587, 69.43442
1250.069, 69.28024
1250.551, 68.79916
1251.033, 68.57485
1251.515, 69.09836
1251.997, 69.86729
1252.479, 70.14704
1252.962, 69.99011
1253.444, 69.57829
1253.926, 68.92364
1254.408, 68.84193
1254.890, 69.33038
1255.372, 69.70518
1255.854, 69.78294
1256.336, 69.51901
1256.818, 68.87733
1257.301, 68.29687
1257.783, 68.39754
1258.265, 68.67851
1258.747, 68.32117
1259.229, 67.82168
1259.711, 67.92883
1260.193, 68.40736
1260.675, 68.85611
1261.157, 69.11783
1261.640, 68.89005
1262.122, 67.91917
1262.604, 67.26825
1263.086, 67.42081
1263.568, 67.72830
1264.050, 68.15624
1264.532, 68.48063
1265.014, 68.57506
1265.497, 68.49425
1265.979, 68.25054
1266.461, 67.89695
1266.943, 67.64978
1267.425, 67.50598
1267.907, 67.54069
1268.389, 67.78500
1268.871, 67.86038
1269.354, 67.69907
1269.836, 67.39381
1270.318, 66.98167
1270.800, 66.70271
1271.282, 66.80500
1271.764, 67.12734
1272.246, 67.59970
1272.728, 67.98185
1273.210, 67.59573
1273.693, 66.92948
1274.175, 66.87028
1274.657, 66.86781
1275.139, 67.42998
1275.621, 67.74492
1276.103, 67.82592
1276.585, 66.97233
1277.067, 67.32558
1277.549, 67.19518
1278.032, 67.04494
1278.514, 67.56805
1278.996, 66.85039
1279.478, 67.36282
1279.960, 67.38422
1280.442, 67.63036
1280.924, 67.38985
1281.406, 67.65230
1281.889, 68.15540
1282.371, 68.44967
1282.853, 68.49916
1283.335, 68.45300
1283.817, 68.35346
1284.299, 67.96684
1284.781, 67.10983
1285.263, 66.43145
1285.745, 66.59068
1286.228, 67.58982
##END=



