##NAMES=Gowerite
##RRUFFID=R050673
##IDEAL CHEMISTRY=Ca[B_5_O_8_(OH)][B(OH)_3_]&#183;3H_2_O
##LOCALITY=Death Valley, California, USA
##OWNER=RRUFF
##SOURCE=University of Arizona Mineral Museum
##DESCRIPTION=Colorless bladed crystals associated with gypsum and priceite
##STATUS=The identification of this mineral is confirmed by single-crystal X-ray diffraction and chemical analysis.
##URL=rruff.info/R050673
##MEASURED CHEMISTRY=(Ca_0.98_Sr_0.02_)_Σ=1_[B_5_O_8_(OH)][B(OH)_3_]·3H_2_O ; B not measured but estimated by stoichiometry
90.26367, 16.63623
90.74579, 16.90023
91.22791, 16.78805
91.71002, 16.34140
92.19214, 15.92618
92.67426, 15.84022
93.15637, 16.01812
93.63850, 16.30125
94.12061, 16.78740
94.60273, 17.30729
95.08485, 16.95351
95.56696, 15.48903
96.04908, 14.77075
96.53120, 18.61238
97.01331, 26.62287
97.49543, 32.22651
97.97755, 31.11246
98.45966, 23.75104
98.94178, 18.93144
99.42390, 17.16185
99.90602, 17.30070
100.3881, 17.26933
100.8703, 17.02538
101.3524, 16.75883
101.8345, 16.56477
102.3166, 16.46259
102.7987, 16.35525
103.2808, 16.22856
103.7630, 16.09245
104.2451, 15.99033
104.7272, 15.90230
105.2093, 15.87341
105.6914, 15.93977
106.1735, 16.15574
106.6557, 16.37557
107.1378, 16.60721
107.6199, 16.85596
108.1020, 16.98822
108.5841, 16.74310
109.0662, 16.51991
109.5484, 16.67311
110.0305, 17.72383
110.5126, 18.63513
110.9947, 19.15522
111.4768, 19.16709
111.9590, 19.34270
112.4411, 19.60950
112.9232, 20.10738
113.4053, 21.00757
113.8874, 22.60445
114.3695, 24.39853
114.8517, 26.19315
115.3338, 27.93206
115.8159, 29.74733
116.2980, 31.56254
116.7801, 33.49431
117.2622, 35.77241
117.7444, 38.68977
118.2265, 41.87823
118.7086, 45.04201
119.1907, 47.91005
119.6728, 51.12115
120.1549, 55.05913
120.6371, 59.65659
121.1192, 64.66206
121.6013, 69.84486
122.0834, 75.34020
122.5655, 81.29089
123.0477, 87.93449
123.5298, 94.88060
124.0119, 101.8734
124.4940, 108.9040
124.9761, 115.8779
125.4582, 122.7105
125.9404, 129.3860
126.4225, 135.8127
126.9046, 141.8579
127.3867, 147.6622
127.8688, 153.4480
128.3509, 159.2205
128.8331, 164.9249
129.3152, 170.0361
129.7973, 174.8403
130.2794, 180.6165
130.7615, 188.3442
131.2436, 197.5743
131.7258, 206.3789
132.2079, 214.3520
132.6900, 222.8803
133.1721, 235.0410
133.6542, 250.8368
134.1364, 265.9355
134.6185, 277.8318
135.1006, 286.6798
135.5827, 295.2484
136.0648, 303.6179
136.5469, 312.0355
137.0291, 321.6173
137.5112, 332.8191
137.9933, 343.0255
138.4754, 350.2237
138.9575, 353.7905
139.4396, 357.8892
139.9218, 363.1572
140.4039, 369.2782
140.8860, 374.4919
141.3681, 378.3011
141.8502, 382.0279
142.3323, 386.6502
142.8145, 392.5886
143.2966, 398.5053
143.7787, 404.1796
144.2608, 409.6606
144.7429, 414.8828
145.2251, 419.5236
145.7072, 424.2594
146.1893, 429.7702
146.6714, 436.3885
147.1535, 443.2778
147.6356, 450.3407
148.1178, 457.6102
148.5999, 464.6284
149.0820, 470.5390
149.5641, 476.5359
150.0462, 483.9850
150.5283, 495.0455
151.0105, 505.3110
151.4926, 508.9492
151.9747, 509.0730
152.4568, 509.8387
152.9389, 511.9762
153.4210, 514.6522
153.9032, 516.7336
154.3853, 517.3441
154.8674, 518.0051
155.3495, 519.5246
155.8316, 523.2333
156.3138, 524.8604
156.7959, 522.4210
157.2780, 517.5963
157.7601, 513.5577
158.2422, 511.2571
158.7243, 509.6386
159.2065, 508.1700
159.6886, 506.7345
160.1707, 505.4696
160.6528, 504.6527
161.1349, 504.0565
161.6170, 503.0863
162.0992, 500.5737
162.5813, 498.1819
163.0634, 497.0723
163.5455, 498.3146
164.0276, 499.7400
164.5097, 500.2751
164.9919, 500.1446
165.4740, 500.2199
165.9561, 500.7593
166.4382, 501.7694
166.9203, 503.3029
167.4025, 506.0524
167.8846, 508.6381
168.3667, 510.0331
168.8488, 510.4011
169.3309, 510.7765
169.8130, 511.5682
170.2952, 512.7849
170.7773, 514.4330
171.2594, 516.9296
171.7415, 519.5416
172.2236, 521.6556
172.7057, 523.2911
173.1879, 524.7847
173.6700, 526.3130
174.1521, 527.8668
174.6342, 529.4380
175.1163, 531.1093
175.5984, 532.7616
176.0806, 534.2089
176.5627, 535.4542
177.0448, 536.6386
177.5269, 538.1772
178.0090, 539.7716
178.4911, 540.7502
178.9733, 540.7191
179.4554, 539.9332
179.9375, 538.6956
180.4196, 537.0079
180.9017, 535.0797
181.3839, 532.8766
181.8660, 530.5632
182.3481, 528.6319
182.8302, 527.4803
183.3123, 526.8820
183.7944, 526.4288
184.2766, 526.1682
184.7587, 525.7703
185.2408, 524.5024
185.7229, 522.5623
186.2050, 521.0755
186.6871, 521.0701
187.1693, 522.0501
187.6514, 522.0768
188.1335, 520.8999
188.6156, 519.3339
189.0977, 518.6243
189.5798, 518.7210
190.0620, 518.7262
190.5441, 518.1656
191.0262, 517.0831
191.5083, 515.8474
191.9904, 514.4672
192.4725, 512.9048
192.9547, 510.8823
193.4368, 508.3571
193.9189, 506.2003
194.4010, 504.9750
194.8831, 504.6367
195.3652, 504.4790
195.8474, 504.4874
196.3295, 504.6145
196.8116, 504.8577
197.2937, 505.2530
197.7758, 505.4427
198.2579, 505.0736
198.7401, 504.1259
199.2222, 503.4170
199.7043, 502.9378
200.1864, 502.7963
200.6685, 503.4924
201.1507, 505.2373
201.6328, 506.7836
202.1149, 507.2897
202.5970, 506.6541
203.0791, 506.0004
203.5612, 505.4269
204.0434, 504.8937
204.5255, 504.2557
205.0076, 503.4547
205.4897, 502.7611
205.9718, 502.3798
206.4539, 502.3681
206.9361, 502.3682
207.4182, 502.4047
207.9003, 502.4142
208.3824, 502.0779
208.8645, 501.1883
209.3466, 500.5013
209.8288, 500.5359
210.3109, 501.4489
210.7930, 502.4411
211.2751, 503.5890
211.7572, 504.7287
212.2393, 505.1964
212.7215, 504.7314
213.2036, 504.1532
213.6857, 503.9971
214.1678, 504.3932
214.6499, 504.7438
215.1321, 504.9321
215.6142, 505.0371
216.0963, 505.5132
216.5784, 506.6808
217.0605, 507.6061
217.5426, 507.5464
218.0248, 506.0280
218.5069, 504.9435
218.9890, 504.5656
219.4711, 504.7586
219.9532, 504.8742
220.4353, 504.8982
220.9175, 504.8789
221.3996, 504.7844
221.8817, 504.4277
222.3638, 504.5277
222.8459, 505.3408
223.3280, 506.6910
223.8102, 507.6472
224.2923, 508.2344
224.7744, 508.4157
225.2565, 508.0170
225.7386, 506.4994
226.2208, 505.7206
226.7029, 506.0653
227.1850, 507.3069
227.6671, 508.2979
228.1492, 509.0507
228.6313, 509.5355
229.1135, 509.6877
229.5956, 509.3029
230.0777, 509.0457
230.5598, 508.9445
231.0419, 509.0112
231.5240, 509.3193
232.0062, 510.0397
232.4883, 510.7814
232.9704, 511.2914
233.4525, 511.4151
233.9346, 511.6718
234.4167, 512.1987
234.8989, 512.9005
235.3810, 513.2850
235.8631, 513.0796
236.3452, 512.9123
236.8273, 513.1660
237.3095, 514.0687
237.7916, 514.8697
238.2737, 515.4830
238.7558, 515.9550
239.2379, 516.5194
239.7200, 517.2717
240.2022, 517.9777
240.6843, 518.4763
241.1664, 518.5349
241.6485, 518.9243
242.1306, 519.8865
242.6127, 521.2132
243.0949, 522.0317
243.5770, 522.0428
244.0591, 521.9856
244.5412, 522.2618
245.0233, 523.0991
245.5054, 523.7737
245.9876, 524.1252
246.4697, 524.3256
246.9518, 524.9625
247.4339, 526.3037
247.9160, 527.6873
248.3981, 528.7455
248.8803, 529.2303
249.3624, 530.0180
249.8445, 531.3515
250.3266, 532.9271
250.8087, 533.8481
251.2909, 533.6517
251.7730, 533.5110
252.2551, 533.9664
252.7372, 535.2357
253.2193, 536.5708
253.7014, 538.1430
254.1836, 539.6916
254.6657, 540.5146
255.1478, 540.1705
255.6299, 539.8833
256.1120, 540.2547
256.5941, 541.6589
257.0763, 542.5201
257.5584, 542.7120
258.0405, 542.4586
258.5226, 542.1892
259.0047, 541.9163
259.4868, 541.6019
259.9690, 541.1527
260.4511, 540.4330
260.9332, 540.2784
261.4153, 540.9890
261.8974, 541.9998
262.3795, 542.2850
262.8617, 541.5402
263.3438, 540.7943
263.8259, 540.2839
264.3080, 539.9532
264.7901, 540.4080
265.2722, 542.0650
265.7544, 544.0059
266.2365, 544.7589
266.7186, 543.9114
267.2007, 543.1335
267.6829, 542.9536
268.1650, 543.4044
268.6471, 543.9031
269.1292, 544.4820
269.6113, 545.0768
270.0934, 545.5361
270.5756, 545.7518
271.0577, 546.2881
271.5398, 547.4064
272.0219, 549.0933
272.5040, 550.4221
272.9861, 551.2023
273.4683, 551.9991
273.9504, 553.6896
274.4325, 556.5710
274.9146, 558.5407
275.3967, 558.6856
275.8788, 557.3575
276.3610, 557.5258
276.8431, 559.5036
277.3252, 562.0109
277.8073, 563.9004
278.2894, 565.1287
278.7715, 566.2786
279.2537, 567.4931
279.7358, 568.7297
280.2179, 569.7531
280.7000, 570.5095
281.1821, 571.3372
281.6642, 572.4464
282.1464, 573.8376
282.6285, 575.6949
283.1106, 578.1611
283.5927, 581.0155
284.0748, 583.6694
284.5569, 586.1126
285.0391, 588.4826
285.5212, 590.8887
286.0033, 593.3196
286.4854, 595.7188
286.9675, 598.0605
287.4496, 600.3748
287.9318, 602.9069
288.4139, 605.6813
288.8960, 607.9661
289.3781, 609.4344
289.8602, 610.1055
290.3424, 610.0902
290.8245, 609.4367
291.3066, 608.0187
291.7887, 605.4886
292.2708, 601.9129
292.7530, 597.9188
293.2351, 593.6425
293.7172, 589.2054
294.1993, 585.2314
294.6814, 581.8192
295.1635, 578.4100
295.6457, 574.0917
296.1278, 569.0956
296.6099, 564.4661
297.0920, 560.8290
297.5741, 557.9152
298.0562, 555.4030
298.5384, 553.3354
299.0205, 551.3150
299.5026, 548.8531
299.9847, 546.1350
300.4668, 543.5605
300.9489, 541.2108
301.4311, 539.1849
301.9132, 537.8018
302.3953, 537.0339
302.8774, 536.4373
303.3595, 535.6410
303.8416, 534.7692
304.3238, 534.0217
304.8059, 533.5453
305.2880, 533.1628
305.7701, 532.5867
306.2522, 531.8789
306.7343, 531.4577
307.2165, 532.0699
307.6986, 532.9608
308.1807, 533.0826
308.6628, 531.6632
309.1449, 530.2458
309.6270, 530.2327
310.1092, 531.2479
310.5913, 532.0936
311.0734, 532.0749
311.5555, 531.6120
312.0376, 530.8892
312.5197, 529.5979
313.0019, 528.9716
313.4840, 530.3422
313.9661, 532.8591
314.4482, 534.7945
314.9304, 535.0479
315.4125, 534.7602
315.8946, 534.4762
316.3767, 534.1797
316.8588, 534.3254
317.3409, 535.7841
317.8231, 537.6243
318.3052, 538.6130
318.7873, 537.3870
319.2694, 536.1161
319.7515, 535.6630
320.2336, 536.1104
320.7158, 536.9323
321.1979, 538.4452
321.6800, 540.0463
322.1621, 541.1847
322.6442, 541.3483
323.1263, 541.4467
323.6085, 541.6390
324.0906, 541.9300
324.5727, 542.3273
325.0548, 542.8874
325.5369, 543.5196
326.0190, 544.1702
326.5012, 544.8724
326.9833, 545.5634
327.4654, 546.1308
327.9475, 546.6578
328.4296, 547.4666
328.9117, 549.0344
329.3939, 550.4610
329.8760, 551.3713
330.3581, 551.4499
330.8402, 551.5456
331.3223, 551.3320
331.8044, 551.2080
332.2866, 552.0540
332.7687, 554.4540
333.2508, 556.9299
333.7329, 559.0324
334.2150, 560.6936
334.6971, 562.3467
335.1793, 564.2426
335.6614, 565.9098
336.1435, 566.5203
336.6256, 565.4511
337.1077, 565.0535
337.5899, 566.1337
338.0720, 568.6179
338.5541, 570.5543
339.0362, 571.8713
339.5183, 572.8849
340.0005, 573.9042
340.4826, 574.9938
340.9647, 575.7368
341.4468, 575.9882
341.9289, 575.8889
342.4110, 575.8847
342.8932, 575.9807
343.3753, 576.0953
343.8574, 576.0472
344.3395, 575.8616
344.8216, 576.1314
345.3037, 577.0127
345.7859, 578.1418
346.2680, 578.9349
346.7501, 579.4000
347.2322, 579.6666
347.7143, 579.5692
348.1964, 579.3087
348.6786, 579.7187
349.1607, 580.9550
349.6428, 582.1359
350.1249, 582.3019
350.6070, 581.6151
351.0891, 580.5624
351.5713, 579.2084
352.0534, 577.6910
352.5355, 576.1349
353.0176, 574.5681
353.4997, 573.0818
353.9818, 572.1293
354.4640, 571.2371
354.9461, 569.5562
355.4282, 566.2196
355.9103, 562.8467
356.3924, 561.2505
356.8745, 560.9776
357.3567, 560.2645
357.8388, 557.2819
358.3209, 553.8860
358.8030, 551.7869
359.2851, 551.7239
359.7672, 551.8435
360.2494, 550.9736
360.7315, 549.6057
361.2136, 548.6598
361.6957, 548.8591
362.1779, 549.2432
362.6600, 549.3273
363.1421, 549.0325
363.6242, 548.7185
364.1063, 548.2795
364.5884, 547.9518
365.0706, 547.9802
365.5527, 548.7311
366.0348, 549.4988
366.5169, 550.2517
366.9990, 550.9607
367.4811, 551.2623
367.9633, 550.5493
368.4454, 549.8076
368.9275, 549.6042
369.4096, 550.2454
369.8917, 551.0088
370.3738, 552.0069
370.8560, 553.1196
371.3381, 553.9172
371.8202, 553.6877
372.3023, 554.1257
372.7844, 555.5367
373.2665, 556.8627
373.7487, 557.9431
374.2308, 558.7908
374.7129, 558.7093
375.1950, 559.8276
375.6771, 560.4651
376.1592, 561.0829
376.6414, 562.3702
377.1235, 562.4239
377.6056, 563.7004
378.0877, 564.4889
378.5698, 565.5007
379.0519, 566.0287
379.5341, 566.7063
380.0162, 567.8677
380.4983, 568.7611
380.9804, 569.2335
381.4625, 570.2595
381.9446, 572.0192
382.4268, 574.4079
382.9089, 576.6915
383.3910, 578.7966
383.8731, 580.5330
384.3553, 581.8473
384.8374, 582.9119
385.3195, 583.9813
385.8016, 584.9711
386.2837, 585.6519
386.7658, 585.7855
387.2480, 585.6104
387.7301, 585.4465
388.2122, 585.2870
388.6943, 584.9559
389.1764, 584.5740
389.6585, 583.8669
390.1407, 582.3896
390.6228, 579.3551
391.1049, 576.4791
391.5870, 575.1357
392.0691, 574.9286
392.5512, 574.6645
393.0334, 573.8788
393.5155, 572.8045
393.9976, 571.4431
394.4797, 569.5630
394.9618, 568.2146
395.4439, 568.1619
395.9261, 568.7141
396.4082, 568.9528
396.8903, 568.3265
397.3724, 567.7275
397.8545, 567.3030
398.3366, 567.0543
398.8188, 567.2277
399.3009, 568.2017
399.7830, 569.3648
400.2651, 570.3397
400.7472, 571.1339
401.2293, 571.7102
401.7115, 571.9219
402.1936, 571.9263
402.6757, 572.2125
403.1578, 572.8759
403.6399, 573.6577
404.1220, 574.5149
404.6042, 575.5282
405.0863, 576.0447
405.5684, 575.7588
406.0505, 575.4533
406.5326, 576.3163
407.0147, 578.5273
407.4969, 580.6108
407.9790, 582.2861
408.4611, 583.5259
408.9432, 583.9271
409.4254, 583.3878
409.9075, 583.0995
410.3896, 584.4943
410.8717, 587.0837
411.3538, 588.6407
411.8359, 588.7209
412.3181, 587.9307
412.8002, 586.9534
413.2823, 585.7986
413.7644, 584.4340
414.2465, 582.5618
414.7286, 580.5960
415.2108, 579.1318
415.6929, 578.2189
416.1750, 577.3506
416.6571, 576.0774
417.1392, 574.6407
417.6213, 573.3320
418.1035, 572.4744
418.5856, 571.5460
419.0677, 569.7856
419.5498, 567.5687
420.0319, 566.3696
420.5140, 567.9939
420.9962, 569.9498
421.4783, 570.5685
421.9604, 568.9351
422.4425, 567.8215
422.9246, 568.2582
423.4067, 569.4388
423.8889, 570.2653
424.3710, 570.8464
424.8531, 570.7943
425.3352, 569.5467
425.8173, 567.0901
426.2994, 565.9945
426.7816, 567.1944
427.2637, 568.8201
427.7458, 569.6140
428.2279, 569.1017
428.7100, 568.9438
429.1921, 569.3604
429.6743, 570.1136
430.1564, 570.6243
430.6385, 570.8334
431.1206, 571.0282
431.6028, 571.2917
432.0849, 571.6301
432.5670, 572.1976
433.0491, 573.0684
433.5312, 573.8772
434.0133, 574.1439
434.4955, 573.9557
434.9776, 573.8678
435.4597, 573.9713
435.9418, 574.3107
436.4239, 574.9339
436.9060, 575.8457
437.3882, 577.1041
437.8703, 579.2568
438.3524, 581.5908
438.8345, 582.9616
439.3166, 583.1407
439.7987, 583.0645
440.2809, 583.2984
440.7630, 583.7932
441.2451, 584.4715
441.7272, 585.5107
442.2093, 586.5296
442.6914, 587.2524
443.1736, 587.7315
443.6557, 588.3271
444.1378, 589.1491
444.6199, 590.1552
445.1020, 591.3488
445.5841, 592.9078
446.0663, 594.3209
446.5484, 595.4025
447.0305, 596.3334
447.5126, 597.4098
447.9947, 598.5399
448.4768, 599.9232
448.9590, 601.6805
449.4411, 603.8113
449.9232, 605.8450
450.4053, 607.7914
450.8874, 609.6379
451.3695, 611.3359
451.8517, 612.8594
452.3338, 614.4333
452.8159, 616.2567
453.2980, 617.8965
453.7801, 618.3068
454.2622, 617.4063
454.7444, 616.3997
455.2265, 615.9359
455.7086, 615.8266
456.1907, 615.4101
456.6729, 614.7030
457.1550, 613.4168
457.6371, 610.5861
458.1192, 606.9746
458.6013, 604.4454
459.0834, 603.7870
459.5656, 603.7972
460.0477, 603.0814
460.5298, 601.9522
461.0119, 601.3664
461.4940, 602.1183
461.9761, 603.3902
462.4583, 604.5379
462.9404, 605.4987
463.4225, 606.6229
463.9046, 608.2049
464.3867, 609.9778
464.8688, 611.6517
465.3510, 612.6991
465.8331, 614.1813
466.3152, 616.8231
466.7973, 620.1721
467.2794, 622.5727
467.7615, 622.9501
468.2437, 623.3553
468.7258, 624.4763
469.2079, 626.4196
469.6900, 628.4653
470.1721, 630.4069
470.6542, 632.6544
471.1364, 635.7335
471.6185, 639.8539
472.1006, 643.9576
472.5827, 647.8226
473.0648, 651.5743
473.5469, 655.5266
474.0291, 659.6678
474.5112, 664.1702
474.9933, 669.1994
475.4754, 674.6907
475.9575, 680.5104
476.4396, 686.7221
476.9218, 692.7682
477.4039, 697.9300
477.8860, 702.4274
478.3681, 706.8251
478.8503, 712.0274
479.3324, 716.2958
479.8145, 717.9909
480.2966, 717.2937
480.7787, 714.9083
481.2608, 710.5406
481.7430, 705.0724
482.2251, 698.9914
482.7072, 692.2904
483.1893, 685.3530
483.6714, 677.8043
484.1535, 670.3007
484.6357, 663.5019
485.1178, 657.2967
485.5999, 651.9915
486.0820, 647.6798
486.5641, 644.3382
487.0462, 641.8387
487.5284, 640.3738
488.0105, 639.5144
488.4926, 639.1123
488.9747, 639.1824
489.4568, 639.7155
489.9389, 640.8432
490.4211, 642.1926
490.9032, 643.2761
491.3853, 644.0652
491.8674, 645.0754
492.3495, 646.3499
492.8316, 647.9553
493.3138, 650.2704
493.7959, 653.2234
494.2780, 655.9574
494.7601, 658.0748
495.2422, 659.5852
495.7243, 660.3527
496.2065, 660.3611
496.6886, 660.0527
497.1707, 659.7404
497.6528, 659.3464
498.1349, 658.7635
498.6170, 657.9210
499.0992, 656.9327
499.5813, 656.1908
500.0634, 655.3566
500.5455, 653.6020
501.0276, 649.8376
501.5097, 645.8458
501.9919, 642.3265
502.4740, 639.4232
502.9561, 636.4597
503.4382, 633.0123
503.9203, 629.7229
504.4025, 627.0407
504.8846, 625.3204
505.3667, 623.5338
505.8488, 621.5448
506.3309, 619.5254
506.8130, 617.9620
507.2952, 617.0329
507.7773, 615.7824
508.2594, 613.6712
508.7415, 610.9323
509.2236, 608.8402
509.7057, 607.4321
510.1879, 606.2224
510.6700, 604.7045
511.1521, 603.0527
511.6342, 601.5974
512.1163, 600.2308
512.5984, 599.8358
513.0806, 600.1247
513.5627, 600.1679
514.0448, 599.9785
514.5269, 598.8600
515.0090, 598.9413
515.4911, 598.5417
515.9733, 598.1224
516.4554, 598.3726
516.9375, 597.3892
517.4196, 597.6287
517.9017, 597.3801
518.3839, 597.3549
518.8660, 596.8458
519.3481, 596.4863
519.8302, 596.6107
520.3123, 596.4671
520.7944, 595.9024
521.2766, 595.8914
521.7587, 594.8911
522.2408, 594.7590
522.7229, 593.7942
523.2050, 594.2762
523.6871, 595.0273
524.1693, 595.8671
524.6514, 596.7570
525.1335, 597.2867
525.6156, 597.4420
526.0977, 597.3549
526.5798, 596.8405
527.0620, 596.1635
527.5441, 596.2142
528.0262, 597.4686
528.5083, 598.9477
528.9904, 599.6065
529.4725, 599.6514
529.9547, 599.5841
530.4368, 599.4981
530.9189, 599.4827
531.4010, 599.5382
531.8831, 599.6672
532.3652, 600.0506
532.8474, 601.0626
533.3295, 602.1273
533.8116, 602.8935
534.2937, 603.2213
534.7758, 603.4112
535.2579, 603.5153
535.7401, 603.4762
536.2222, 603.1511
536.7043, 602.2833
537.1865, 601.7711
537.6686, 601.9318
538.1507, 602.5936
538.6328, 602.7863
539.1149, 602.3851
539.5970, 602.3565
540.0792, 603.6718
540.5613, 605.9592
541.0434, 607.3087
541.5255, 607.5919
542.0076, 607.5019
542.4897, 607.5379
542.9719, 607.7150
543.4540, 608.0618
543.9361, 608.5516
544.4182, 609.2440
544.9003, 610.4104
545.3824, 611.8005
545.8646, 612.8644
546.3467, 612.7226
546.8288, 612.7842
547.3109, 613.9395
547.7930, 616.2334
548.2751, 618.0325
548.7573, 618.6570
549.2394, 619.0604
549.7215, 619.7896
550.2036, 621.2059
550.6857, 622.1133
551.1678, 622.2924
551.6500, 622.2033
552.1321, 622.4367
552.6142, 623.0038
553.0963, 623.8597
553.5784, 625.0128
554.0605, 626.4414
554.5427, 628.2676
555.0248, 630.4582
555.5069, 632.3817
555.9890, 633.1757
556.4711, 633.5906
556.9532, 635.1227
557.4354, 637.8205
557.9175, 640.5745
558.3996, 642.4328
558.8817, 643.9172
559.3638, 645.5464
559.8459, 647.2829
560.3281, 649.4688
560.8102, 652.8212
561.2923, 656.5665
561.7744, 659.4648
562.2565, 660.6121
562.7386, 661.6383
563.2208, 663.0552
563.7029, 664.7242
564.1850, 665.6685
564.6671, 665.5287
565.1492, 665.2987
565.6313, 665.5645
566.1135, 666.4026
566.5956, 666.6406
567.0777, 666.2010
567.5598, 665.4211
568.0419, 664.5033
568.5240, 663.5041
569.0062, 662.7624
569.4883, 662.4999
569.9704, 662.1506
570.4525, 660.9006
570.9346, 658.9805
571.4167, 657.0505
571.8989, 655.2794
572.3810, 653.6795
572.8631, 652.2855
573.3452, 651.0856
573.8273, 649.9099
574.3094, 648.9131
574.7916, 647.7699
575.2737, 646.2225
575.7558, 644.0087
576.2379, 642.1949
576.7200, 641.1619
577.2021, 640.2575
577.6843, 638.7155
578.1664, 635.9276
578.6485, 634.4459
579.1306, 634.8931
579.6127, 636.3466
580.0948, 636.9518
580.5770, 636.7040
581.0591, 636.4043
581.5412, 636.2125
582.0233, 636.2627
582.5054, 637.0374
582.9875, 638.4367
583.4697, 639.7869
583.9518, 640.3849
584.4340, 640.8135
584.9161, 641.7551
585.3982, 643.3326
585.8803, 644.9821
586.3624, 646.7723
586.8445, 648.3295
587.3267, 649.2980
587.8088, 648.4533
588.2909, 648.5013
588.7730, 650.2027
589.2551, 652.8602
589.7372, 655.3510
590.2194, 657.6060
590.7015, 659.8047
591.1836, 661.8400
591.6657, 663.8353
592.1478, 666.5746
592.6299, 670.1414
593.1121, 673.6097
593.5942, 676.1357
594.0763, 678.0709
594.5584, 680.8704
595.0405, 684.5827
595.5226, 688.3724
596.0048, 691.7718
596.4869, 694.6819
596.9690, 696.9832
597.4511, 698.5654
597.9332, 699.7771
598.4153, 701.0916
598.8975, 702.1010
599.3796, 702.2370
599.8617, 700.8972
600.3438, 699.1808
600.8259, 697.4978
601.3080, 695.6874
601.7902, 692.9781
602.2723, 688.6641
602.7544, 684.6671
603.2365, 681.7629
603.7186, 679.9423
604.2007, 677.7138
604.6829, 674.9630
605.1650, 672.3689
605.6471, 670.5141
606.1292, 669.3006
606.6113, 668.3892
607.0934, 667.8300
607.5756, 667.1197
608.0577, 665.3207
608.5398, 663.1119
609.0219, 661.7061
609.5040, 661.8405
609.9861, 662.3738
610.4683, 662.7169
610.9504, 663.0103
611.4325, 663.5544
611.9146, 665.0956
612.3967, 666.2324
612.8788, 666.4424
613.3610, 665.8152
613.8431, 665.1949
614.3252, 664.4970
614.8073, 663.9730
615.2894, 663.7711
615.7715, 663.9064
616.2537, 663.9611
616.7358, 663.8489
617.2179, 664.0091
617.7000, 665.2527
618.1821, 667.1769
618.6642, 668.1868
619.1464, 667.7668
619.6285, 667.2988
620.1106, 668.4352
620.5927, 670.4457
621.0748, 672.0731
621.5569, 672.9578
622.0391, 673.2513
622.5212, 672.7976
623.0033, 671.7950
623.4854, 670.8405
623.9675, 669.9119
624.4496, 669.2179
624.9318, 668.9752
625.4139, 669.1745
625.8960, 668.8544
626.3781, 667.8712
626.8602, 666.7350
627.3423, 665.8792
627.8245, 665.2806
628.3066, 663.8018
628.7887, 661.2233
629.2708, 658.9689
629.7529, 659.1311
630.2350, 660.6817
630.7172, 661.0508
631.1993, 659.1285
631.6815, 657.4309
632.1636, 658.4545
632.6457, 660.9599
633.1278, 662.9901
633.6099, 663.6475
634.0920, 663.9791
634.5742, 664.4998
635.0563, 664.9932
635.5384, 664.6594
636.0205, 663.3563
636.5026, 661.4346
636.9847, 658.8512
637.4669, 655.6708
637.9490, 652.6976
638.4311, 649.9756
638.9132, 647.1940
639.3953, 643.6913
639.8774, 639.8282
640.3596, 637.4874
640.8417, 636.7976
641.3238, 636.6601
641.8059, 636.2319
642.2880, 635.6537
642.7701, 635.0663
643.2523, 634.3380
643.7344, 634.0203
644.2165, 634.8557
644.6986, 636.1096
645.1807, 636.7986
645.6628, 636.2680
646.1450, 635.6910
646.6271, 635.1164
647.1092, 634.6243
647.5913, 634.4718
648.0734, 634.7869
648.5555, 635.0756
649.0377, 635.1323
649.5198, 635.0506
650.0019, 635.3604
650.4840, 636.0615
650.9661, 636.5670
651.4482, 636.2321
651.9304, 635.5523
652.4125, 635.3932
652.8946, 635.7906
653.3767, 636.4124
653.8588, 637.5311
654.3409, 638.4810
654.8231, 638.5255
655.3052, 636.9880
655.7873, 636.1541
656.2694, 637.0579
656.7515, 638.5955
657.2336, 639.7006
657.7158, 640.1536
658.1979, 640.6172
658.6800, 641.1020
659.1621, 641.6385
659.6442, 642.4363
660.1263, 643.4935
660.6085, 643.9753
661.0906, 643.2761
661.5727, 642.2642
662.0548, 642.7567
662.5369, 644.3609
663.0190, 645.5869
663.5012, 645.5068
663.9833, 644.8531
664.4654, 643.8975
664.9475, 642.7668
665.4296, 642.1517
665.9117, 642.6199
666.3939, 643.3917
666.8760, 644.2189
667.3581, 645.1888
667.8402, 645.6110
668.3223, 645.1904
668.8044, 644.7089
669.2866, 644.9187
669.7687, 645.8749
670.2508, 645.9922
670.7329, 645.0602
671.2150, 643.8005
671.6971, 642.6306
672.1793, 641.7616
672.6614, 641.9876
673.1435, 644.0046
673.6256, 645.7559
674.1077, 645.1186
674.5898, 643.2587
675.0720, 641.9944
675.5541, 642.2052
676.0362, 642.7233
676.5183, 643.5568
677.0004, 644.4747
677.4825, 644.8048
677.9647, 644.0862
678.4468, 643.7327
678.9290, 644.3738
679.4111, 645.6741
679.8932, 645.8914
680.3753, 644.9688
680.8574, 643.9405
681.3395, 643.3774
681.8217, 643.1270
682.3038, 642.8099
682.7859, 642.4431
683.2680, 642.3781
683.7501, 643.2375
684.2322, 644.2297
684.7144, 644.7581
685.1965, 644.7359
685.6786, 644.2430
686.1607, 642.5536
686.6428, 640.9196
687.1249, 640.2464
687.6071, 641.0167
688.0892, 641.7039
688.5713, 642.3664
689.0534, 642.8664
689.5355, 643.0450
690.0176, 642.9122
690.4998, 642.4483
690.9819, 641.5292
691.4640, 640.6505
691.9461, 640.5305
692.4282, 640.9766
692.9103, 641.5677
693.3925, 642.1277
693.8746, 642.7997
694.3567, 643.8473
694.8388, 645.0520
695.3209, 645.9088
695.8030, 645.9142
696.2852, 645.9718
696.7673, 646.2869
697.2494, 646.8157
697.7315, 647.3616
698.2136, 647.9510
698.6957, 648.4617
699.1779, 648.8389
699.6600, 649.0974
700.1421, 649.2414
700.6242, 649.2840
701.1063, 649.4061
701.5884, 650.0227
702.0706, 650.6459
702.5527, 650.4988
703.0348, 649.5359
703.5169, 648.7896
703.9990, 649.0013
704.4811, 649.4561
704.9633, 649.6456
705.4454, 649.3652
705.9275, 649.2803
706.4096, 649.6367
706.8917, 649.9133
707.3738, 649.4699
707.8560, 648.1555
708.3381, 647.7106
708.8202, 648.4055
709.3023, 649.5006
709.7844, 650.2317
710.2665, 650.6108
710.7487, 650.5767
711.2308, 649.8527
711.7129, 649.3918
712.1950, 650.5074
712.6771, 652.2260
713.1592, 653.0787
713.6414, 651.0502
714.1235, 649.9113
714.6056, 651.3412
715.0877, 654.0551
715.5698, 655.4495
716.0519, 654.9611
716.5341, 654.6188
717.0162, 654.9589
717.4983, 655.7247
717.9804, 656.2771
718.4625, 656.6111
718.9446, 656.6185
719.4268, 655.9310
719.9089, 655.1013
720.3910, 654.9293
720.8731, 655.2847
721.3552, 655.6055
721.8373, 655.3693
722.3195, 655.2429
722.8016, 655.7766
723.2837, 656.9934
723.7658, 657.6169
724.2479, 656.9875
724.7300, 656.6132
725.2122, 657.3952
725.6943, 659.3625
726.1765, 660.3026
726.6586, 660.0927
727.1407, 659.6901
727.6228, 659.8791
728.1049, 660.4349
728.5870, 660.7698
729.0692, 660.8274
729.5513, 661.0331
730.0334, 661.9086
730.5155, 662.9492
730.9976, 663.7166
731.4797, 664.2065
731.9619, 664.2269
732.4440, 663.0333
732.9261, 661.8722
733.4082, 661.7388
733.8903, 662.9516
734.3724, 664.1543
734.8546, 665.2484
735.3367, 666.3870
735.8188, 668.0821
736.3009, 670.0729
736.7830, 670.8976
737.2651, 669.8375
737.7473, 668.9290
738.2294, 670.2463
738.7115, 673.0163
739.1936, 676.1194
739.6757, 680.1158
740.1578, 683.2136
740.6400, 684.3365
741.1221, 684.3799
741.6042, 684.9597
742.0863, 686.3536
742.5684, 687.6036
743.0505, 688.3799
743.5327, 689.1107
744.0148, 690.8777
744.4969, 693.5996
744.9790, 696.4303
745.4611, 699.0279
745.9432, 701.6295
746.4254, 704.5029
746.9075, 707.6435
747.3896, 711.0088
747.8717, 714.4981
748.3538, 718.3138
748.8359, 722.8458
749.3181, 727.9207
749.8002, 732.5016
750.2823, 736.1545
750.7644, 740.0781
751.2465, 744.8898
751.7286, 750.2319
752.2108, 753.8776
752.6929, 755.8126
753.1750, 757.7927
753.6571, 760.2331
754.1392, 763.5784
754.6213, 768.8183
755.1035, 775.7863
755.5856, 783.2610
756.0677, 790.6370
756.5498, 798.3331
757.0319, 806.6334
757.5140, 815.5179
757.9962, 825.1043
758.4783, 835.9501
758.9604, 846.5931
759.4425, 856.4404
759.9246, 865.4255
760.4067, 874.5209
760.8889, 883.7466
761.3710, 892.4673
761.8531, 901.0145
762.3352, 908.4800
762.8173, 913.5985
763.2994, 916.2493
763.7816, 915.2975
764.2637, 909.5077
764.7458, 900.1784
765.2279, 888.0461
765.7100, 872.6992
766.1921, 856.1857
766.6743, 837.5877
767.1564, 819.2405
767.6385, 802.5667
768.1206, 787.4699
768.6027, 773.6961
769.0848, 761.2386
769.5670, 749.8580
770.0491, 738.7946
770.5312, 728.6187
771.0133, 720.6857
771.4954, 715.2535
771.9775, 710.8174
772.4597, 706.6202
772.9418, 702.8807
773.4240, 699.7690
773.9061, 697.4915
774.3882, 695.4351
774.8703, 693.7318
775.3524, 692.0654
775.8345, 690.1481
776.3167, 687.9592
776.7988, 685.7217
777.2809, 683.3710
777.7630, 681.5023
778.2451, 681.2626
778.7272, 681.8799
779.2094, 681.6539
779.6915, 680.0035
780.1736, 678.6813
780.6557, 678.9825
781.1378, 679.9992
781.6199, 680.8668
782.1021, 681.3883
782.5842, 681.8372
783.0663, 682.2811
783.5484, 682.5618
784.0305, 682.4694
784.5126, 681.9896
784.9948, 681.4115
785.4769, 680.7487
785.9590, 680.0974
786.4411, 679.4733
786.9232, 678.9714
787.4053, 678.7957
787.8875, 679.1243
788.3696, 679.4333
788.8517, 679.1689
789.3338, 678.8917
789.8159, 679.2927
790.2980, 681.2984
790.7802, 682.3404
791.2623, 681.9839
791.7444, 681.1204
792.2265, 680.7203
792.7086, 680.7936
793.1907, 681.9064
793.6729, 684.4536
794.1550, 686.8708
794.6371, 686.9387
795.1192, 685.8383
795.6013, 685.5768
796.0834, 687.3318
796.5656, 688.7184
797.0477, 688.2235
797.5298, 687.2341
798.0119, 687.5186
798.4940, 689.9620
798.9761, 691.6149
799.4583, 692.0517
799.9404, 692.0388
800.4225, 692.4910
800.9046, 693.4015
801.3867, 694.9141
801.8688, 697.2820
802.3510, 699.3831
802.8331, 699.3284
803.3152, 698.5656
803.7973, 699.1647
804.2794, 702.6898
804.7615, 705.8849
805.2437, 707.8611
805.7258, 709.3221
806.2079, 711.0768
806.6900, 713.3796
807.1721, 714.9700
807.6542, 715.6714
808.1364, 715.7390
808.6185, 715.0943
809.1006, 714.0746
809.5827, 713.7911
810.0648, 714.7060
810.5469, 715.6563
811.0291, 716.1314
811.5112, 715.9983
811.9933, 715.0881
812.4754, 712.6863
812.9575, 710.5760
813.4396, 709.1660
813.9218, 707.7602
814.4039, 705.4353
814.8860, 702.0883
815.3681, 699.2411
815.8502, 697.0596
816.3323, 695.3601
816.8145, 694.1346
817.2966, 693.1942
817.7787, 692.1772
818.2608, 690.9851
818.7429, 689.7805
819.2251, 688.3754
819.7072, 687.1473
820.1893, 686.5081
820.6714, 686.6891
821.1536, 686.9861
821.6357, 687.4915
822.1178, 687.9379
822.5999, 687.8723
823.0820, 687.4131
823.5641, 687.4353
824.0463, 688.0755
824.5284, 688.8466
825.0105, 684.6627
825.4926, 685.9688
825.9747, 687.0289
826.4568, 687.8567
826.9390, 687.7555
827.4211, 688.8538
827.9032, 689.4713
828.3853, 690.0692
828.8674, 691.3364
829.3495, 691.3702
829.8317, 692.6271
830.3138, 698.9224
830.7959, 700.2131
831.2780, 700.4913
831.7601, 701.4626
832.2422, 703.3431
832.7244, 704.8648
833.2065, 704.8000
833.6886, 704.3626
834.1707, 704.4496
834.6528, 705.2601
835.1349, 706.3649
835.6171, 708.1633
836.0992, 709.5859
836.5813, 709.7853
837.0634, 708.8411
837.5455, 707.8351
838.0276, 706.7531
838.5098, 705.9963
838.9919, 706.2479
839.4740, 706.7239
839.9561, 706.5746
840.4382, 705.7360
840.9203, 704.6627
841.4025, 703.1448
841.8846, 701.7669
842.3667, 700.7778
842.8488, 700.1735
843.3309, 699.7172
843.8130, 699.4299
844.2952, 699.2073
844.7773, 699.2547
845.2594, 699.2512
845.7415, 698.1613
846.2236, 696.2113
846.7057, 694.6157
847.1879, 694.1953
847.6700, 694.1951
848.1521, 694.3162
848.6342, 694.5208
849.1163, 694.6223
849.5984, 694.4581
850.0806, 694.5159
850.5627, 695.0601
851.0448, 695.8719
851.5269, 696.0659
852.0090, 695.7433
852.4911, 695.7845
852.9733, 697.1152
853.4554, 698.5084
853.9375, 698.6671
854.4196, 698.0117
854.9017, 697.5851
855.3839, 697.8596
855.8660, 698.1911
856.3481, 698.4521
856.8302, 698.6894
857.3123, 699.0540
857.7944, 699.5739
858.2766, 699.9078
858.7587, 699.9219
859.2408, 699.8373
859.7229, 700.0183
860.2050, 700.3405
860.6871, 700.5270
861.1693, 700.2966
861.6514, 700.2358
862.1335, 700.5144
862.6156, 701.1321
863.0977, 702.0676
863.5798, 703.4484
864.0620, 704.8274
864.5441, 706.2258
865.0262, 707.4959
865.5083, 708.6517
865.9904, 709.5504
866.4726, 709.4938
866.9547, 708.0880
867.4368, 707.2635
867.9189, 708.8620
868.4011, 711.3901
868.8832, 713.4694
869.3653, 714.7155
869.8474, 716.0314
870.3295, 717.4512
870.8116, 718.8965
871.2938, 720.1731
871.7759, 721.3484
872.2580, 723.2109
872.7401, 725.8155
873.2222, 728.3643
873.7043, 729.5807
874.1865, 730.8672
874.6686, 733.8659
875.1507, 738.7418
875.6328, 743.2978
876.1149, 745.9177
876.5970, 749.2675
877.0792, 754.4772
877.5613, 761.3764
878.0434, 768.2106
878.5255, 774.9337
879.0076, 782.1016
879.4897, 789.9336
879.9719, 798.2968
880.4540, 806.9869
880.9361, 816.0182
881.4182, 825.4324
881.9003, 835.2413
882.3824, 845.4457
882.8646, 856.1740
883.3467, 867.2874
883.8288, 878.5037
884.3109, 889.7967
884.7930, 901.5339
885.2751, 913.6934
885.7573, 926.5408
886.2394, 940.2852
886.7215, 955.1385
887.2036, 971.5099
887.6857, 990.2070
888.1678, 1009.229
888.6500, 1027.690
889.1321, 1045.948
889.6142, 1064.658
890.0963, 1084.143
890.5784, 1103.089
891.0605, 1122.159
891.5427, 1139.052
892.0248, 1152.646
892.5069, 1162.284
892.9890, 1165.789
893.4711, 1162.705
893.9532, 1154.774
894.4354, 1143.503
894.9175, 1127.733
895.3996, 1105.696
895.8817, 1076.142
896.3638, 1045.297
896.8459, 1012.564
897.3281, 980.2518
897.8102, 949.8461
898.2923, 921.1677
898.7744, 894.5215
899.2565, 869.9541
899.7386, 848.1282
900.2208, 829.9734
900.7029, 814.0521
901.1850, 798.9719
901.6671, 784.9572
902.1492, 773.0887
902.6313, 763.8434
903.1135, 756.3312
903.5956, 750.5944
904.0777, 746.2134
904.5598, 741.9084
905.0419, 737.7360
905.5240, 733.9550
906.0062, 730.7179
906.4883, 727.8392
906.9704, 725.0960
907.4525, 722.6295
907.9346, 720.6281
908.4167, 719.7560
908.8989, 718.4864
909.3810, 716.4064
909.8631, 714.2541
910.3452, 713.0620
910.8273, 712.7571
911.3094, 712.2410
911.7916, 711.3376
912.2737, 710.5484
912.7558, 710.5909
913.2380, 710.8484
913.7201, 710.5203
914.2022, 709.2827
914.6843, 708.6751
915.1664, 709.6517
915.6486, 710.3882
916.1307, 709.6750
916.6128, 707.6521
917.0949, 706.8711
917.5770, 707.3262
918.0591, 707.7484
918.5413, 707.0433
919.0234, 706.0933
919.5055, 705.8446
919.9876, 706.1861
920.4697, 706.5476
920.9518, 706.7872
921.4340, 707.0073
921.9161, 707.2714
922.3982, 707.4994
922.8803, 707.4711
923.3624, 707.1888
923.8445, 706.7978
924.3267, 706.2313
924.8088, 705.8322
925.2909, 706.2169
925.7730, 706.9294
926.2551, 707.2612
926.7372, 706.4346
927.2194, 706.3506
927.7015, 707.6156
928.1836, 709.2460
928.6657, 710.3269
929.1478, 710.8641
929.6299, 711.5964
930.1121, 712.5687
930.5942, 713.5872
931.0763, 714.2790
931.5584, 715.0612
932.0405, 716.4615
932.5226, 718.4970
933.0048, 720.6266
933.4869, 722.6464
933.9690, 724.8097
934.4511, 727.2000
934.9332, 729.7872
935.4153, 732.2435
935.8975, 734.6003
936.3796, 737.3333
936.8617, 741.0842
937.3438, 744.8058
937.8259, 746.9803
938.3080, 748.4076
938.7902, 750.6384
939.2723, 755.1815
939.7544, 759.0439
940.2365, 761.4493
940.7186, 763.5452
941.2007, 767.0450
941.6829, 771.8087
942.1650, 776.1416
942.6471, 779.8514
943.1292, 783.1749
943.6113, 786.3214
944.0934, 789.2025
944.5756, 791.7236
945.0577, 793.7696
945.5398, 796.0282
946.0219, 798.7340
946.5040, 801.3762
946.9861, 803.8072
947.4683, 805.9792
947.9504, 807.4713
948.4325, 808.2896
948.9146, 808.4006
949.3967, 807.0324
949.8788, 805.6399
950.3610, 805.7882
950.8431, 806.7880
951.3252, 806.5102
951.8073, 804.2008
952.2894, 801.7504
952.7715, 799.4299
953.2537, 797.0836
953.7358, 794.6688
954.2179, 792.0397
954.7000, 788.4084
955.1821, 783.4340
955.6642, 778.5345
956.1464, 775.0130
956.6285, 771.8388
957.1106, 767.8890
957.5927, 762.7188
958.0748, 758.4562
958.5569, 755.1616
959.0391, 752.5630
959.5212, 751.0204
960.0033, 749.9256
960.4855, 747.1136
960.9676, 742.9016
961.4497, 739.2100
961.9318, 737.5854
962.4139, 736.1418
962.8961, 733.7909
963.3782, 730.9407
963.8603, 728.6762
964.3424, 727.0535
964.8245, 726.0193
965.3066, 725.7913
965.7888, 725.5909
966.2709, 723.6823
966.7530, 721.1332
967.2351, 720.2587
967.7172, 722.1708
968.1993, 723.6097
968.6815, 723.0658
969.1636, 721.8245
969.6457, 720.6986
970.1278, 719.6839
970.6099, 718.7888
971.0920, 718.0010
971.5742, 717.3890
972.0563, 716.8246
972.5384, 716.5730
973.0205, 717.4597
973.5026, 719.0637
973.9847, 719.7216
974.4669, 717.2806
974.9490, 715.1848
975.4311, 715.8984
975.9132, 716.3663
976.3953, 716.6016
976.8774, 715.9077
977.3596, 716.4137
977.8417, 716.4388
978.3238, 716.4442
978.8059, 717.1190
979.2880, 716.5602
979.7701, 717.2244
980.2523, 717.4005
980.7344, 717.7999
981.2165, 717.7155
981.6986, 717.7806
982.1807, 718.3296
982.6628, 718.6107
983.1450, 718.4706
983.6271, 718.8842
984.1092, 718.3087
984.5913, 718.6011
985.0734, 719.2681
985.5555, 719.1523
986.0377, 719.5748
986.5198, 719.7924
987.0019, 719.0783
987.4840, 719.9843
987.9661, 720.1897
988.4482, 719.6757
988.9304, 720.5262
989.4125, 720.1114
989.8946, 720.1482
990.3767, 720.5248
990.8588, 721.1450
991.3409, 721.7745
991.8231, 722.1977
992.3052, 722.0203
992.7873, 721.2850
993.2694, 721.0012
993.7515, 721.1755
994.2336, 721.5582
994.7158, 722.1091
995.1979, 722.6934
995.6800, 722.9989
996.1621, 723.2234
996.6442, 723.8353
997.1263, 725.6101
997.6085, 726.8117
998.0906, 727.0955
998.5727, 726.9732
999.0548, 726.9445
999.5369, 727.0599
1000.019, 727.8583
1000.501, 729.4599
1000.983, 730.6591
1001.465, 730.2922
1001.948, 729.4239
1002.430, 728.7421
1002.912, 728.3138
1003.394, 728.3183
1003.876, 728.9082
1004.358, 729.4177
1004.840, 729.3820
1005.322, 729.3788
1005.804, 730.9922
1006.287, 733.5322
1006.769, 735.3259
1007.251, 735.3362
1007.733, 735.1366
1008.215, 735.0662
1008.697, 735.1075
1009.179, 735.3250
1009.661, 735.7598
1010.144, 735.7896
1010.626, 735.3721
1011.108, 734.8171
1011.590, 734.4050
1012.072, 733.9554
1012.554, 733.1109
1013.036, 731.9655
1013.518, 731.3217
1014.000, 731.6653
1014.483, 731.8945
1014.965, 731.7806
1015.447, 731.3909
1015.929, 730.7123
1016.411, 729.8590
1016.893, 729.1025
1017.375, 727.8122
1017.857, 728.2517
1018.340, 728.4452
1018.822, 728.4064
1019.304, 727.4384
1019.786, 727.6703
1020.268, 727.4213
1020.750, 727.1526
1021.232, 728.2385
1021.714, 728.5167
1022.196, 728.4365
1022.679, 727.9090
1023.161, 727.2474
1023.643, 727.6279
1024.125, 728.1080
1024.607, 728.3553
1025.089, 728.3834
1025.571, 727.4954
1026.053, 727.8204
1026.536, 727.6777
1027.018, 727.5286
1027.500, 728.0619
1027.982, 727.3749
1028.464, 727.9240
1028.946, 727.9981
1029.428, 728.3088
1029.910, 728.1488
1030.392, 728.1514
1030.875, 728.6514
1031.357, 728.8964
1031.839, 728.7335
1032.321, 729.1373
1032.803, 728.5651
1033.285, 728.8741
1033.767, 729.5709
1034.249, 729.4981
1034.732, 729.9771
1035.214, 730.2638
1035.696, 729.6323
1036.178, 730.6338
1036.660, 730.9479
1037.142, 730.5558
1037.624, 731.5414
1038.106, 731.8137
1038.589, 731.4957
1039.071, 730.8318
1039.553, 730.8542
1040.035, 731.4279
1040.517, 731.9887
1040.999, 732.6115
1041.481, 732.8890
1041.963, 732.6464
1042.445, 732.3654
1042.927, 732.6243
1043.410, 733.3243
1043.892, 734.4216
1044.374, 735.9759
1044.856, 737.1545
1045.338, 737.0272
1045.820, 737.1424
1046.302, 738.4152
1046.784, 740.4567
1047.267, 741.0204
1047.749, 740.2503
1048.231, 739.8877
1048.713, 740.9738
1049.195, 742.0958
1049.677, 741.8894
1050.159, 741.1651
1050.641, 741.0764
1051.124, 742.0404
1051.606, 742.8151
1052.088, 743.4990
1052.570, 743.6790
1053.052, 742.4778
1053.534, 740.8185
1054.016, 740.5733
1054.498, 741.5197
1054.980, 742.4120
1055.463, 742.8270
1055.945, 743.0329
1056.427, 743.0888
1056.909, 742.9901
1057.391, 742.5327
1057.873, 741.8193
1058.355, 741.9727
1058.837, 743.2805
1059.319, 744.1160
1059.802, 742.3165
1060.284, 740.2819
1060.766, 739.9772
1061.248, 741.3699
1061.730, 742.6776
1062.212, 743.9598
1062.694, 744.8856
1063.176, 745.3310
1063.659, 745.3555
1064.141, 744.6963
1064.623, 743.7791
1065.105, 743.3217
1065.587, 743.5861
1066.069, 744.1914
1066.551, 745.2648
1067.033, 746.3297
1067.516, 747.2090
1067.998, 747.8008
1068.480, 747.2406
1068.962, 745.7504
1069.444, 744.6174
1069.926, 744.9402
1070.408, 745.3548
1070.890, 745.4514
1071.372, 745.1374
1071.854, 744.0195
1072.337, 741.9309
1072.819, 741.0711
1073.301, 741.7839
1073.783, 742.7061
1074.265, 742.3982
1074.747, 741.7961
1075.229, 742.0283
1075.711, 743.0661
1076.194, 743.3105
1076.676, 742.2371
1077.158, 741.4791
1077.640, 741.5753
1078.122, 741.9977
1078.604, 741.7455
1079.086, 741.1360
1079.568, 740.8483
1080.051, 741.0761
1080.533, 741.4135
1081.015, 742.0226
1081.497, 742.3848
1081.979, 742.1789
1082.461, 741.4969
1082.943, 740.6584
1083.425, 739.7604
1083.907, 739.5789
1084.390, 740.9888
1084.872, 742.5103
1085.354, 743.4266
1085.836, 743.7742
1086.318, 743.5081
1086.800, 742.2148
1087.282, 742.2853
1087.764, 743.9330
1088.247, 745.4742
1088.729, 745.4046
1089.211, 744.6130
1089.693, 743.8601
1090.175, 743.2591
1090.657, 743.1418
1091.139, 743.8004
1091.621, 744.4846
1092.104, 745.0943
1092.586, 745.7132
1093.068, 746.6119
1093.550, 747.5711
1094.032, 748.0665
1094.514, 748.0380
1094.996, 747.8431
1095.478, 747.6909
1095.960, 747.2855
1096.443, 746.1469
1096.925, 744.8903
1097.407, 745.7367
1097.889, 748.3505
1098.371, 750.1810
1098.853, 750.3812
1099.335, 750.2985
1099.817, 751.0692
1100.299, 751.8327
1100.782, 751.7563
1101.264, 750.8154
1101.746, 749.8805
1102.228, 748.9182
1102.710, 748.3190
1103.192, 748.2913
1103.674, 748.7114
1104.156, 749.8253
1104.639, 751.1681
1105.121, 751.9749
1105.603, 751.8564
1106.085, 751.6786
1106.567, 751.4067
1107.049, 751.1998
1107.531, 751.1383
1108.013, 751.2561
1108.495, 751.7335
1108.978, 752.4695
1109.460, 753.0667
1109.942, 753.4377
1110.424, 753.5302
1110.906, 753.2034
1111.388, 752.7727
1111.870, 752.5201
1112.352, 752.5032
1112.834, 753.1370
1113.317, 754.4316
1113.799, 755.6657
1114.281, 756.5017
1114.763, 757.0775
1115.245, 757.4602
1115.727, 757.6395
1116.209, 757.4801
1116.691, 757.0005
1117.174, 756.6142
1117.656, 756.4207
1118.138, 756.3323
1118.620, 755.9833
1119.102, 755.9366
1119.584, 756.9977
1120.066, 759.1162
1120.548, 760.2623
1121.031, 760.3268
1121.513, 760.0854
1121.995, 759.5801
1122.477, 759.3730
1122.959, 760.5444
1123.441, 762.2785
1123.923, 763.3593
1124.405, 763.1213
1124.887, 763.6317
1125.370, 765.2449
1125.852, 766.6823
1126.334, 767.0882
1126.816, 766.8969
1127.298, 766.9659
1127.780, 767.1927
1128.262, 767.3253
1128.744, 767.1913
1129.227, 767.0561
1129.709, 766.7950
1130.191, 766.7672
1130.673, 767.4833
1131.155, 768.6808
1131.637, 769.2969
1132.119, 769.3995
1132.601, 769.5422
1133.083, 770.1926
1133.566, 770.6797
1134.048, 770.6944
1134.530, 770.5096
1135.012, 770.6100
1135.494, 770.9228
1135.976, 770.3330
1136.458, 768.7601
1136.940, 767.7908
1137.422, 769.6478
1137.905, 771.3303
1138.387, 770.4520
1138.869, 768.1517
1139.351, 767.3539
1139.833, 768.1248
1140.315, 768.7291
1140.797, 768.8398
1141.279, 768.8889
1141.762, 769.4922
1142.244, 770.0255
1142.726, 769.9318
1143.208, 769.1901
1143.690, 768.0250
1144.172, 766.2228
1144.654, 765.3019
1145.136, 765.7944
1145.619, 767.1410
1146.101, 769.4171
1146.583, 771.7161
1147.065, 772.8790
1147.547, 772.4718
1148.029, 771.9249
1148.511, 771.1121
1148.993, 770.7057
1149.475, 771.3011
1149.958, 772.0421
1150.440, 771.1910
1150.922, 769.5482
1151.404, 768.6392
1151.886, 769.4811
1152.368, 769.4115
1152.850, 767.7991
1153.332, 766.3443
1153.814, 766.3327
1154.297, 767.1275
1154.779, 767.1650
1155.261, 766.6353
1155.743, 766.0624
1156.225, 765.7144
1156.707, 765.1735
1157.189, 764.1281
1157.671, 763.2654
1158.154, 763.1869
1158.636, 763.7752
1159.118, 764.8056
1159.600, 766.1288
1160.082, 767.0914
1160.564, 767.1179
1161.046, 767.0735
1161.528, 767.2911
1162.010, 767.4645
1162.493, 767.0496
1162.975, 766.2084
1163.457, 766.2064
1163.939, 767.0258
1164.421, 767.6006
1164.903, 766.5951
1165.385, 766.0385
1165.867, 767.3732
1166.349, 769.3427
1166.832, 769.5977
1167.314, 768.3298
1167.796, 768.3648
1168.278, 770.0295
1168.760, 771.3664
1169.242, 770.4345
1169.724, 769.3109
1170.206, 769.4793
1170.689, 770.3729
1171.171, 770.5286
1171.653, 769.9628
1172.135, 769.4072
1172.617, 768.9744
1173.099, 768.8011
1173.581, 769.1466
1174.063, 769.6813
1174.546, 770.1555
1175.028, 770.5955
1175.510, 771.2572
1175.992, 772.1721
1176.474, 772.5163
1176.956, 771.9069
1177.438, 771.4020
1177.920, 772.6793
1178.402, 774.0193
1178.885, 773.3536
1179.367, 770.7611
1179.849, 769.9656
1180.331, 771.1585
1180.813, 772.0217
1181.295, 771.6273
1181.777, 770.9604
1182.259, 770.9474
1182.742, 771.2986
1183.224, 771.7605
1183.706, 772.3303
1184.188, 772.7681
1184.670, 773.1076
1185.152, 773.0510
1185.634, 772.2028
1186.116, 771.3534
1186.599, 771.3608
1187.081, 771.9443
1187.563, 772.8573
1188.045, 774.2878
1188.527, 774.8829
1189.009, 774.5227
1189.491, 773.9199
1189.973, 773.0817
1190.455, 772.6553
1190.938, 774.0048
1191.420, 776.1196
1191.902, 777.3597
1192.384, 777.2969
1192.866, 776.8002
1193.348, 775.7885
1193.830, 774.7677
1194.312, 773.8879
1194.794, 773.3334
1195.277, 773.3058
1195.759, 773.7949
1196.241, 774.8651
1196.723, 777.3450
1197.205, 778.3306
1197.687, 777.5349
1198.169, 776.3467
1198.651, 775.5359
1199.134, 775.1836
1199.616, 775.6468
1200.098, 776.6379
1200.580, 777.4685
1201.062, 778.1397
1201.544, 778.3207
1202.026, 777.9158
1202.508, 777.3378
1202.990, 776.6486
1203.473, 776.2092
1203.955, 776.7355
1204.437, 777.9290
1204.919, 778.8088
1205.401, 779.3516
1205.883, 779.1906
1206.365, 778.0909
1206.847, 777.1376
1207.329, 777.6067
1207.812, 778.6716
1208.294, 779.5640
1208.776, 780.1439
1209.258, 779.8715
1209.740, 777.9889
1210.222, 777.3672
1210.704, 778.5792
1211.186, 780.0635
1211.669, 780.1432
1212.151, 779.6425
1212.633, 779.5344
1213.115, 779.8104
1213.597, 780.1149
1214.079, 780.5531
1214.561, 780.4658
1215.043, 779.5889
1215.526, 778.8930
1216.008, 779.7806
1216.490, 781.1843
1216.972, 781.7783
1217.454, 781.5976
1217.936, 781.5286
1218.418, 781.5457
1218.900, 781.9172
1219.382, 782.6477
1219.865, 783.1328
1220.347, 783.3850
1220.829, 782.7081
1221.311, 783.2310
1221.793, 783.2731
1222.275, 783.2954
1222.757, 783.9872
1223.239, 783.8111
1223.722, 783.8452
1224.204, 783.7172
1224.686, 783.8252
1225.168, 783.9775
1225.650, 783.8704
1226.132, 783.5573
1226.614, 783.7604
1227.096, 784.6414
1227.578, 785.1413
1228.061, 784.9783
1228.543, 784.6317
1229.025, 784.3651
1229.507, 784.3416
1229.989, 784.6486
1230.471, 785.5054
1230.953, 786.1166
1231.435, 786.4952
1231.917, 785.9446
1232.400, 786.5945
1232.882, 786.7629
1233.364, 786.9116
1233.846, 787.7296
1234.328, 787.3143
1234.810, 788.1218
1235.292, 788.4410
1235.774, 788.9838
1236.257, 789.0433
1236.739, 789.2517
1237.221, 789.9440
1237.703, 790.3683
1238.185, 790.3716
1238.667, 790.9285
1239.149, 790.4963
1239.631, 790.9320
1240.114, 791.7429
1240.596, 791.7704
1241.078, 792.3363
1241.560, 792.6971
1242.042, 792.1263
1242.524, 793.1757
1243.006, 792.4227
1243.488, 792.6306
1243.970, 793.3269
1244.453, 794.4212
1244.935, 795.0921
1245.417, 795.0311
1245.899, 795.2178
1246.381, 796.5513
1246.863, 798.0082
1247.345, 798.9564
1247.827, 799.6165
1248.309, 800.7439
1248.792, 802.2038
1249.274, 803.3842
1249.756, 804.0966
1250.238, 804.8014
1250.720, 806.4842
1251.202, 807.1882
1251.684, 805.6669
1252.166, 803.0519
1252.649, 802.4691
1253.131, 803.2236
1253.613, 803.0586
1254.095, 801.2455
1254.577, 800.2589
1255.059, 801.8248
1255.541, 802.8582
1256.023, 801.9977
1256.505, 800.3495
1256.988, 800.2021
1257.470, 801.0380
1257.952, 801.9449
1258.434, 802.8666
1258.916, 802.8379
1259.398, 801.0400
1259.880, 800.0573
1260.362, 801.0873
1260.844, 802.7178
1261.327, 802.4695
1261.809, 801.3282
1262.291, 800.7785
1262.773, 801.1018
1263.255, 801.5739
1263.737, 802.3637
1264.219, 802.3646
1264.701, 800.8839
1265.184, 799.3818
1265.666, 799.9531
1266.148, 801.3802
1266.630, 802.2125
1267.112, 802.2766
1267.594, 802.7498
1268.076, 803.7086
1268.558, 804.3604
1269.041, 804.3216
1269.523, 804.4990
1270.005, 806.6754
1270.487, 808.8054
1270.969, 808.3963
1271.451, 806.0377
1271.933, 805.2868
1272.415, 806.1241
1272.897, 806.3187
1273.380, 805.2240
1273.862, 804.0724
1274.344, 803.7030
1274.826, 803.6546
1275.308, 803.5556
1275.790, 803.5319
1276.272, 804.2427
1276.754, 805.4913
1277.237, 806.1525
1277.719, 805.9278
1278.201, 805.7145
1278.683, 806.2514
1279.165, 806.5502
1279.647, 806.1411
1280.129, 805.3563
1280.611, 804.7390
1281.094, 804.3470
1281.576, 804.4931
1282.058, 805.2636
1282.540, 805.5629
1283.022, 804.4214
1283.504, 803.9164
1283.986, 804.7536
1284.468, 806.0820
1284.950, 806.5783
1285.432, 806.6606
1285.915, 807.0582
1286.397, 807.8324
1286.879, 808.1660
1287.361, 807.6733
1287.843, 807.9431
1288.325, 809.5350
1288.807, 811.1497
1289.289, 810.9698
1289.772, 810.2570
1290.254, 810.6490
1290.736, 811.8929
1291.218, 811.5168
1291.700, 809.2312
1292.182, 808.1097
1292.664, 808.7258
1293.146, 809.9249
1293.629, 811.0665
1294.111, 812.1046
1294.593, 813.3705
1295.075, 814.3679
1295.557, 813.4012
1296.039, 810.7952
1296.521, 810.3202
1297.003, 812.4592
1297.485, 815.1387
1297.968, 818.2115
1298.450, 819.7971
1298.932, 818.9032
1299.414, 816.9379
1299.896, 815.8567
1300.378, 815.5008
1300.860, 815.2367
1301.342, 815.0660
1301.824, 815.4145
1302.307, 815.6903
##END=



