##NAMES=Goyazite
##RRUFFID=R061054
##IDEAL CHEMISTRY=SrAl_3_(PO_4_)(PO_3_OH)(OH)_6_
##LOCALITY=Yukon Territory, Canada
##OWNER=RRUFF
##SOURCE=Royal Ontario Museum
##DESCRIPTION=Pale green rhombohedral crystals with iron staining
##STATUS=The identification of this mineral has been confirmed by single-crystal X-ray diffraction.
##URL=rruff.info/R061054
171.6683, 34676.78
172.1504, 34782.97
172.6325, 34878.71
173.1146, 34939.70
173.5967, 34962.80
174.0788, 34989.61
174.5610, 35035.30
175.0431, 35096.53
175.5252, 35167.75
176.0073, 35243.70
176.4894, 35337.98
176.9715, 35469.33
177.4537, 35640.48
177.9358, 35827.78
178.4179, 36030.61
178.9000, 36239.86
179.3821, 36442.20
179.8642, 36624.61
180.3464, 36820.38
180.8285, 37083.95
181.3106, 37428.86
181.7927, 37761.50
182.2748, 38044.51
182.7569, 38296.68
183.2391, 38530.80
183.7212, 38750.59
184.2033, 38948.63
184.6854, 39113.84
185.1675, 39243.96
185.6496, 39350.61
186.1318, 39436.98
186.6139, 39500.53
187.0960, 39538.85
187.5781, 39554.03
188.0602, 39536.21
188.5423, 39468.72
189.0245, 39347.08
189.5066, 39198.82
189.9887, 39015.00
190.4708, 38818.52
190.9529, 38628.20
191.4350, 38454.03
191.9172, 38275.29
192.3993, 38054.58
192.8814, 37780.03
193.3635, 37522.98
193.8456, 37305.86
194.3277, 37116.32
194.8099, 36945.58
195.2920, 36790.25
195.7741, 36659.80
196.2562, 36577.16
196.7383, 36554.37
197.2204, 36519.43
197.7026, 36443.96
198.1847, 36350.44
198.6668, 36248.07
199.1489, 36136.19
199.6310, 36030.75
200.1131, 35944.52
200.5953, 35874.57
201.0774, 35841.21
201.5595, 35922.70
202.0416, 36002.55
202.5237, 35982.86
203.0058, 35837.87
203.4880, 35661.53
203.9701, 35571.02
204.4522, 35581.71
204.9343, 35566.04
205.4164, 35450.74
205.8985, 35323.58
206.3807, 35251.84
206.8628, 35247.52
207.3449, 35252.93
207.8270, 35192.70
208.3091, 35056.38
208.7912, 34962.32
209.2734, 34961.79
209.7555, 34995.66
210.2376, 35034.86
210.7197, 35075.04
211.2018, 35104.47
211.6839, 35101.44
212.1661, 35064.03
212.6482, 35049.52
213.1303, 35063.23
213.6124, 35111.03
214.0945, 35218.29
214.5766, 35380.75
215.0588, 35527.50
215.5409, 35586.46
216.0230, 35560.32
216.5051, 35538.09
216.9872, 35513.80
217.4693, 35517.78
217.9515, 35581.75
218.4336, 35700.02
218.9157, 35818.05
219.3978, 35894.87
219.8799, 35934.09
220.3620, 35965.64
220.8442, 35973.50
221.3263, 35998.73
221.8084, 36076.70
222.2905, 36198.31
222.7726, 36316.12
223.2547, 36411.41
223.7369, 36481.27
224.2190, 36503.41
224.7011, 36436.00
225.1832, 36381.12
225.6653, 36420.00
226.1474, 36527.55
226.6296, 36624.67
227.1117, 36653.72
227.5938, 36638.73
228.0759, 36656.93
228.5580, 36727.33
229.0401, 36797.19
229.5223, 36830.09
230.0044, 36836.97
230.4865, 36840.18
230.9686, 36838.98
231.4507, 36842.62
231.9328, 36871.07
232.4150, 36927.84
232.8971, 37000.18
233.3792, 37098.28
233.8613, 37205.00
234.3434, 37288.87
234.8255, 37313.95
235.3077, 37326.41
235.7898, 37402.82
236.2719, 37555.60
236.7540, 37701.06
237.2361, 37766.61
237.7182, 37800.83
238.2004, 37886.78
238.6825, 38073.85
239.1646, 38282.29
239.6467, 38423.96
240.1288, 38498.34
240.6109, 38568.18
241.0931, 38651.29
241.5752, 38756.57
242.0573, 38899.89
242.5394, 39107.92
243.0215, 39314.16
243.5036, 39449.61
243.9858, 39526.70
244.4679, 39636.14
244.9500, 39807.70
245.4321, 40042.06
245.9142, 40330.20
246.3963, 40687.75
246.8785, 41053.15
247.3606, 41379.69
247.8427, 41683.77
248.3248, 42020.07
248.8069, 42398.75
249.2890, 42827.92
249.7712, 43339.18
250.2533, 43943.46
250.7354, 44539.32
251.2175, 45059.61
251.6996, 45547.09
252.1817, 46087.56
252.6639, 46705.79
253.1460, 47357.43
253.6281, 47994.67
254.1102, 48618.96
254.5923, 49217.88
255.0744, 49811.11
255.5566, 50370.75
256.0387, 50875.18
256.5208, 51319.25
257.0029, 51677.30
257.4850, 51920.94
257.9671, 52036.58
258.4492, 52057.55
258.9314, 51987.70
259.4135, 51821.14
259.8956, 51555.85
260.3777, 51190.16
260.8598, 50716.95
261.3419, 50110.13
261.8241, 49366.77
262.3062, 48625.11
262.7883, 47882.81
263.2704, 47150.14
263.7525, 46416.18
264.2346, 45690.50
264.7168, 44990.46
265.1989, 44328.02
265.6810, 43699.82
266.1631, 43104.98
266.6452, 42514.11
267.1273, 41978.84
267.6095, 41525.35
268.0916, 41134.22
268.5737, 40773.63
269.0558, 40428.52
269.5379, 40103.53
270.0201, 39820.78
270.5022, 39623.62
270.9843, 39419.15
271.4664, 39177.52
271.9485, 38938.32
272.4306, 38743.49
272.9128, 38607.47
273.3949, 38511.74
273.8770, 38425.83
274.3591, 38347.16
274.8412, 38283.75
275.3233, 38223.26
275.8055, 38183.32
276.2876, 38191.95
276.7697, 38244.36
277.2518, 38295.36
277.7339, 38282.00
278.2160, 38174.41
278.6982, 38128.40
279.1803, 38200.90
279.6624, 38282.44
280.1445, 38334.86
280.6266, 38356.06
281.1087, 38356.49
281.5909, 38334.25
282.0730, 38292.21
282.5551, 38298.49
283.0372, 38396.26
283.5193, 38493.89
284.0014, 38587.59
284.4836, 38657.06
284.9657, 38666.11
285.4478, 38583.36
285.9299, 38439.80
286.4120, 38329.59
286.8941, 38278.25
287.3763, 38203.86
287.8584, 38073.44
288.3405, 37911.30
288.8226, 37735.68
289.3047, 37548.48
289.7868, 37366.22
290.2690, 37209.52
290.7511, 37079.55
291.2332, 36969.21
291.7153, 36888.15
292.1974, 36820.07
292.6795, 36752.54
293.1617, 36684.85
293.6438, 36612.89
294.1259, 36523.40
294.6080, 36423.17
295.0901, 36348.88
295.5722, 36313.82
296.0544, 36297.18
296.5365, 36269.96
297.0186, 36233.56
297.5007, 36224.04
297.9828, 36275.11
298.4649, 36355.21
298.9471, 36411.84
299.4292, 36437.45
299.9113, 36453.52
300.3934, 36475.85
300.8755, 36503.87
301.3576, 36533.09
301.8398, 36562.30
302.3219, 36593.29
302.8040, 36633.11
303.2861, 36679.13
303.7682, 36710.19
304.2503, 36703.83
304.7325, 36676.11
305.2146, 36704.85
305.6967, 36865.54
306.1788, 36990.11
306.6609, 36998.77
307.1430, 36937.77
307.6252, 36893.89
308.1073, 36904.31
308.5894, 36939.52
309.0715, 36934.92
309.5536, 36837.75
310.0357, 36780.94
310.5179, 36792.80
311.0000, 36832.07
311.4821, 36863.18
311.9642, 36878.80
312.4463, 36891.57
312.9284, 36917.50
313.4106, 36961.60
313.8927, 37001.38
314.3748, 37040.87
314.8569, 37074.28
315.3390, 37092.00
315.8211, 37100.39
316.3033, 37119.57
316.7854, 37171.49
317.2675, 37249.10
317.7496, 37270.36
318.2317, 37165.12
318.7138, 37088.19
319.1960, 37087.29
319.6781, 37131.49
320.1602, 37180.34
320.6423, 37215.84
321.1244, 37244.87
321.6065, 37281.49
322.0887, 37326.96
322.5708, 37373.68
323.0529, 37414.63
323.5350, 37458.56
324.0171, 37515.73
324.4992, 37587.65
324.9814, 37657.58
325.4635, 37706.58
325.9456, 37736.90
326.4277, 37775.97
326.9098, 37842.16
327.3919, 37897.62
327.8741, 37910.72
328.3562, 37887.18
328.8383, 37854.34
329.3204, 37808.28
329.8025, 37765.91
330.2846, 37764.86
330.7668, 37812.87
331.2489, 37857.77
331.7310, 37867.53
332.2131, 37844.29
332.6952, 37801.91
333.1773, 37713.58
333.6595, 37632.00
334.1416, 37596.30
334.6237, 37597.10
335.1058, 37604.47
335.5879, 37607.69
336.0700, 37605.56
336.5522, 37592.26
337.0343, 37553.96
337.5164, 37531.79
337.9985, 37540.24
338.4806, 37564.76
338.9627, 37581.02
339.4449, 37585.48
339.9270, 37611.38
340.4091, 37711.94
340.8912, 37936.85
341.3733, 38037.37
341.8554, 37916.86
342.3376, 37779.85
342.8197, 37733.76
343.3018, 37762.24
343.7839, 37787.50
344.2660, 37748.31
344.7481, 37659.88
345.2303, 37642.43
345.7124, 37774.91
346.1945, 37875.44
346.6766, 37882.30
347.1587, 37852.77
347.6408, 37855.03
348.1230, 37914.91
348.6051, 37999.60
349.0872, 38059.60
349.5693, 38092.02
350.0514, 38114.57
350.5335, 38115.02
351.0157, 38118.45
351.4978, 38135.95
351.9799, 38169.68
352.4620, 38224.39
352.9441, 38322.13
353.4262, 38446.18
353.9084, 38529.52
354.3905, 38554.59
354.8726, 38574.32
355.3547, 38618.96
355.8368, 38686.54
356.3189, 38779.11
356.8011, 38924.85
357.2832, 39073.94
357.7653, 39163.34
358.2474, 39205.25
358.7295, 39289.20
359.2116, 39471.82
359.6938, 39707.17
360.1759, 39876.77
360.6580, 39938.95
361.1401, 40033.13
361.6222, 40217.70
362.1043, 40444.75
362.5865, 40661.50
363.0686, 40855.38
363.5507, 41023.71
364.0328, 41158.07
364.5149, 41245.21
364.9970, 41360.04
365.4792, 41544.48
365.9613, 41713.56
366.4434, 41825.79
366.9255, 41887.54
367.4076, 41920.78
367.8897, 41938.48
368.3719, 41941.13
368.8540, 41931.61
369.3361, 41910.08
369.8182, 41873.85
370.3003, 41819.82
370.7824, 41754.34
371.2646, 41680.10
371.7467, 41598.50
372.2288, 41516.76
372.7109, 41459.86
373.1930, 41433.19
373.6751, 41335.34
374.1573, 41096.74
374.6394, 40849.50
375.1215, 40692.55
375.6036, 40603.58
376.0857, 40493.51
376.5678, 40294.93
377.0500, 40056.34
377.5321, 39875.06
378.0142, 39758.82
378.4963, 39620.15
378.9784, 39392.63
379.4605, 39114.27
379.9427, 38888.92
380.4248, 38746.68
380.9069, 38609.33
381.3890, 38415.86
381.8711, 38203.13
382.3532, 38055.75
382.8354, 38002.94
383.3175, 37978.96
383.7996, 37893.86
384.2817, 37724.54
384.7638, 37557.41
385.2459, 37382.54
385.7281, 37218.49
386.2102, 37071.62
386.6923, 36944.95
387.1744, 36847.11
387.6565, 36786.46
388.1386, 36757.23
388.6208, 36721.47
389.1029, 36659.62
389.5850, 36618.55
390.0671, 36630.76
390.5492, 36652.75
391.0313, 36631.68
391.5135, 36554.14
391.9956, 36469.15
392.4777, 36442.81
392.9598, 36480.46
393.4419, 36514.57
393.9240, 36550.95
394.4062, 36567.33
394.8883, 36541.20
395.3704, 36483.40
395.8525, 36430.55
396.3346, 36403.86
396.8167, 36389.96
397.2989, 36375.00
397.7810, 36359.82
398.2631, 36320.93
398.7452, 36237.49
399.2273, 36127.00
399.7094, 36029.45
400.1916, 35943.30
400.6737, 35872.84
401.1558, 35826.39
401.6379, 35794.29
402.1200, 35769.43
402.6021, 35749.69
403.0843, 35715.50
403.5664, 35639.73
404.0485, 35509.19
404.5306, 35416.23
405.0127, 35386.32
405.4948, 35363.48
405.9770, 35313.49
406.4591, 35253.28
406.9412, 35226.11
407.4233, 35258.37
407.9054, 35320.04
408.3875, 35320.04
408.8697, 35207.21
409.3518, 35141.86
409.8339, 35187.25
410.3160, 35251.65
410.7981, 35261.82
411.2802, 35215.40
411.7624, 35176.04
412.2445, 35214.71
412.7266, 35309.82
413.2087, 35349.04
413.6908, 35304.79
414.1729, 35261.14
414.6551, 35282.21
415.1372, 35337.78
415.6193, 35376.31
416.1014, 35374.62
416.5835, 35372.02
417.0656, 35402.59
417.5478, 35456.42
418.0299, 35507.03
418.5120, 35550.00
418.9941, 35573.29
419.4762, 35552.07
419.9583, 35462.60
420.4405, 35410.77
420.9226, 35453.70
421.4047, 35491.92
421.8868, 35438.40
422.3689, 35313.63
422.8510, 35206.04
423.3332, 35179.54
423.8153, 35212.74
424.2974, 35198.49
424.7795, 35077.14
425.2616, 35000.01
425.7437, 35012.96
426.2259, 35057.89
426.7080, 35086.50
427.1901, 35088.58
427.6722, 35083.22
428.1543, 35091.75
428.6364, 35112.36
429.1186, 35120.87
429.6007, 35113.16
430.0828, 35098.53
430.5649, 35082.77
431.0470, 35064.67
431.5291, 35040.44
432.0113, 35003.59
432.4934, 34967.40
432.9755, 34932.83
433.4576, 34906.13
433.9397, 34922.13
434.4218, 35005.22
434.9040, 35100.29
435.3861, 35112.48
435.8682, 35002.90
436.3503, 34948.57
436.8324, 35012.24
437.3145, 35091.35
437.7967, 35097.63
438.2788, 35049.76
438.7609, 35035.06
439.2430, 35117.61
439.7251, 35266.99
440.2072, 35343.70
440.6894, 35281.86
441.1715, 35252.70
441.6536, 35302.03
442.1357, 35372.69
442.6178, 35413.75
443.0999, 35419.02
443.5821, 35424.62
444.0642, 35467.40
444.5463, 35540.80
445.0284, 35603.36
445.5105, 35650.57
445.9926, 35694.30
446.4748, 35753.33
446.9569, 35812.00
447.4390, 35837.04
447.9211, 35801.34
448.4032, 35765.71
448.8853, 35781.89
449.3675, 35827.57
449.8496, 35841.16
450.3317, 35801.61
450.8138, 35761.60
451.2959, 35794.29
451.7780, 35926.33
452.2602, 36007.59
452.7423, 36010.00
453.2244, 35992.69
453.7065, 35971.63
454.1886, 35954.07
454.6707, 35949.08
455.1529, 35961.67
455.6350, 35985.71
456.1171, 36007.89
456.5992, 36026.88
457.0813, 36046.27
457.5634, 36059.35
458.0455, 36077.97
458.5276, 36115.14
459.0098, 36166.47
459.4919, 36210.04
459.9740, 36240.54
460.4561, 36251.95
460.9382, 36224.69
461.4203, 36156.24
461.9025, 36089.13
462.3846, 36044.54
462.8667, 36013.36
463.3488, 35976.68
463.8309, 35938.52
464.3130, 35887.23
464.7952, 35796.83
465.2773, 35704.85
465.7594, 35667.31
466.2415, 35682.75
466.7236, 35688.20
467.2057, 35626.38
467.6879, 35503.34
468.1700, 35412.87
468.6521, 35385.57
469.1342, 35355.31
469.6163, 35320.47
470.0984, 35273.34
470.5806, 35202.43
471.0627, 35106.34
471.5448, 35000.73
472.0269, 34910.17
472.5090, 34830.36
472.9911, 34706.59
473.4733, 34498.96
473.9554, 34320.00
474.4375, 34282.51
474.9196, 34320.18
475.4017, 34308.68
475.8839, 34191.82
476.3660, 34072.80
476.8481, 34023.27
477.3302, 34020.01
477.8123, 34015.14
478.2944, 33996.03
478.7766, 33968.15
479.2587, 33938.65
479.7408, 33909.10
480.2229, 33868.96
480.7050, 33792.68
481.1871, 33734.92
481.6693, 33732.30
482.1514, 33758.90
482.6335, 33770.51
483.1156, 33747.96
483.5977, 33713.08
484.0798, 33692.76
484.5620, 33682.49
485.0441, 33723.73
485.5262, 33875.80
486.0083, 34014.92
486.4904, 34053.13
486.9725, 34013.07
487.4547, 33968.45
487.9368, 33946.49
488.4189, 33929.28
488.9010, 33889.62
489.3831, 33836.14
489.8652, 33809.38
490.3474, 33825.73
490.8295, 33869.41
491.3116, 33923.78
491.7937, 34008.14
492.2758, 34036.93
492.7579, 33958.90
493.2401, 33874.29
493.7222, 33837.95
494.2043, 33839.95
494.6864, 33846.94
495.1685, 33841.28
495.6506, 33830.78
496.1328, 33833.20
496.6149, 33852.05
497.0970, 33871.58
497.5791, 33900.07
498.0612, 33918.53
498.5433, 33908.32
499.0255, 33875.55
499.5076, 33847.70
499.9897, 33824.66
500.4718, 33820.93
500.9539, 33865.39
501.4360, 33950.86
501.9182, 34029.61
502.4003, 34080.70
502.8824, 34119.66
503.3645, 34174.27
503.8466, 34254.12
504.3287, 34323.65
504.8109, 34369.59
505.2930, 34416.17
505.7751, 34470.06
506.2572, 34537.45
506.7393, 34636.43
507.2214, 34780.50
507.7036, 34941.35
508.1857, 35048.08
508.6678, 35088.20
509.1499, 35120.56
509.6320, 35162.41
510.1141, 35189.89
510.5963, 35172.75
511.0784, 35122.49
511.5605, 35094.10
512.0426, 35164.11
512.5247, 35231.33
513.0068, 35154.39
513.4890, 34958.79
513.9711, 34788.09
514.4532, 34702.29
514.9353, 34656.66
515.4174, 34579.39
515.8995, 34461.25
516.3817, 34330.86
516.8638, 34172.43
517.3459, 34017.08
517.8280, 33876.64
518.3101, 33754.24
518.7922, 33656.57
519.2744, 33587.81
519.7565, 33535.61
520.2386, 33479.23
520.7207, 33420.58
521.2028, 33343.46
521.6849, 33218.18
522.1671, 33106.52
522.6492, 33061.57
523.1313, 33068.05
523.6134, 33066.52
524.0955, 33029.73
524.5776, 32985.50
525.0598, 32968.30
525.5419, 32963.49
526.0240, 32915.65
526.5061, 32802.10
526.9882, 32682.65
527.4703, 32646.93
527.9525, 32726.48
528.4346, 32753.17
528.9167, 32676.61
529.3988, 32609.56
529.8809, 32591.63
530.3630, 32611.47
530.8452, 32650.67
531.3273, 32702.70
531.8094, 32760.34
532.2915, 32820.74
532.7736, 32882.73
533.2557, 32920.65
533.7379, 32925.99
534.2200, 32917.65
534.7021, 32886.39
535.1842, 32850.85
535.6663, 32872.95
536.1484, 33010.62
536.6306, 33141.65
537.1127, 33200.52
537.5948, 33219.39
538.0769, 33241.70
538.5590, 33278.15
539.0411, 33322.63
539.5233, 33372.35
540.0054, 33426.83
540.4875, 33456.72
540.9696, 33434.17
541.4517, 33426.26
541.9338, 33449.10
542.4160, 33492.27
542.8981, 33550.24
543.3802, 33621.23
543.8623, 33692.55
544.3444, 33753.13
544.8265, 33807.74
545.3087, 33867.46
545.7908, 33933.44
546.2729, 34001.94
546.7550, 34077.37
547.2371, 34149.25
547.7192, 34181.78
548.2014, 34130.04
548.6835, 34126.32
549.1656, 34230.63
549.6477, 34352.46
550.1298, 34419.71
550.6119, 34437.71
551.0941, 34451.12
551.5762, 34487.39
552.0583, 34541.74
552.5404, 34605.90
553.0225, 34685.02
553.5046, 34748.02
553.9868, 34777.00
554.4689, 34798.76
554.9510, 34851.16
555.4331, 34924.01
555.9152, 34952.70
556.3973, 34875.75
556.8795, 34783.93
557.3616, 34748.16
557.8437, 34755.39
558.3258, 34775.20
558.8079, 34797.55
559.2900, 34810.89
559.7722, 34796.74
560.2543, 34747.45
560.7364, 34712.84
561.2185, 34720.32
561.7006, 34711.75
562.1827, 34665.05
562.6649, 34594.87
563.1470, 34520.52
563.6291, 34446.70
564.1112, 34370.59
564.5933, 34287.02
565.0754, 34198.70
565.5576, 34114.89
566.0397, 34036.58
566.5218, 33963.64
567.0039, 33898.54
567.4860, 33838.32
567.9681, 33769.35
568.4503, 33666.50
568.9324, 33595.08
569.4145, 33604.11
569.8966, 33618.79
570.3787, 33564.95
570.8608, 33454.65
571.3430, 33355.39
571.8251, 33313.91
572.3072, 33315.31
572.7893, 33323.04
573.2714, 33336.55
573.7535, 33361.49
574.2357, 33407.91
574.7178, 33456.06
575.1999, 33480.72
575.6820, 33486.45
576.1641, 33508.88
576.6462, 33588.00
577.1284, 33654.68
577.6105, 33636.30
578.0926, 33578.36
578.5747, 33577.73
579.0568, 33662.11
579.5389, 33772.08
580.0211, 33834.90
580.5032, 33847.61
580.9853, 33861.05
581.4674, 33878.86
581.9495, 33891.55
582.4316, 33895.06
582.9138, 33892.96
583.3959, 33887.65
583.8780, 33879.21
584.3601, 33873.54
584.8422, 33864.98
585.3243, 33865.68
585.8065, 33904.77
586.2886, 33978.83
586.7707, 34044.73
587.2528, 34079.40
587.7349, 34090.16
588.2170, 34093.08
588.6992, 34078.72
589.1813, 34076.02
589.6634, 34115.30
590.1455, 34135.89
590.6276, 34086.46
591.1097, 33997.80
591.5919, 33933.90
592.0740, 33923.80
592.5561, 33943.66
593.0382, 33980.25
593.5203, 34025.56
594.0024, 34032.75
594.4846, 33987.04
594.9667, 33940.09
595.4488, 33935.25
595.9309, 33965.56
596.4130, 33977.71
596.8951, 33937.80
597.3773, 33926.79
597.8594, 33974.08
598.3415, 34045.51
598.8236, 34115.24
599.3057, 34179.21
599.7878, 34242.68
600.2700, 34310.46
600.7521, 34379.50
601.2342, 34436.45
601.7163, 34478.70
602.1984, 34547.20
602.6805, 34671.41
603.1627, 34797.97
603.6448, 34863.72
604.1269, 34873.21
604.6090, 34882.06
605.0911, 34878.61
605.5732, 34894.03
606.0554, 34963.29
606.5375, 35051.93
607.0196, 35118.79
607.5017, 35150.11
607.9838, 35139.49
608.4659, 35066.52
608.9481, 34942.03
609.4302, 34869.34
609.9123, 34872.99
610.3944, 34855.96
610.8765, 34789.82
611.3586, 34680.12
611.8408, 34526.27
612.3229, 34324.55
612.8050, 34135.04
613.2871, 33971.45
613.7692, 33830.07
614.2513, 33726.51
614.7335, 33641.04
615.2156, 33522.16
615.6977, 33350.88
616.1798, 33176.38
616.6619, 33084.70
617.1440, 33089.54
617.6262, 33008.54
618.1083, 32784.74
618.5904, 32569.93
619.0725, 32427.89
619.5546, 32330.64
620.0367, 32252.53
620.5189, 32193.92
621.0010, 32132.54
621.4831, 32054.81
621.9652, 31971.29
622.4473, 31894.68
622.9294, 31823.98
623.4116, 31750.91
623.8937, 31671.08
624.3758, 31590.43
624.8579, 31521.39
625.3400, 31470.12
625.8221, 31409.44
626.3043, 31334.34
626.7864, 31256.41
627.2685, 31184.51
627.7506, 31112.41
628.2327, 31024.34
628.7148, 30908.49
629.1970, 30813.79
629.6791, 30796.11
630.1612, 30802.00
630.6433, 30743.82
631.1254, 30627.75
631.6075, 30537.72
632.0897, 30526.01
632.5718, 30552.51
633.0539, 30515.47
633.5360, 30386.29
634.0181, 30274.24
634.5002, 30183.64
634.9824, 30110.75
635.4645, 30065.58
635.9466, 30034.13
636.4287, 29988.60
636.9108, 29915.66
637.3929, 29845.74
637.8751, 29804.21
638.3572, 29775.67
638.8393, 29734.79
639.3214, 29680.40
639.8035, 29630.07
640.2856, 29596.91
640.7678, 29569.92
641.2499, 29514.60
641.7320, 29416.41
642.2141, 29328.74
642.6962, 29248.76
643.1783, 29187.27
643.6605, 29170.89
644.1426, 29173.96
644.6247, 29136.68
645.1068, 29021.51
645.5889, 28919.15
646.0710, 28914.66
646.5532, 28951.06
647.0353, 28935.34
647.5174, 28862.20
647.9995, 28779.64
648.4816, 28716.83
648.9637, 28675.51
649.4459, 28663.85
649.9280, 28696.33
650.4101, 28717.56
650.8922, 28717.46
651.3743, 28710.76
651.8564, 28703.97
652.3386, 28696.23
652.8207, 28685.11
653.3028, 28668.05
653.7849, 28650.98
654.2670, 28642.24
654.7491, 28632.88
655.2313, 28611.41
655.7134, 28576.28
656.1955, 28526.03
656.6776, 28456.94
657.1597, 28382.96
657.6418, 28342.97
658.1240, 28345.57
658.6061, 28352.81
659.0882, 28388.87
659.5703, 28394.89
660.0524, 28308.00
660.5345, 28174.16
661.0167, 28093.38
661.4988, 28103.07
661.9809, 28120.50
662.4630, 28111.82
662.9451, 28086.96
663.4272, 28052.49
663.9094, 28012.40
664.3915, 27975.17
664.8736, 27945.92
665.3557, 27921.54
665.8378, 27892.37
666.3199, 27854.61
666.8021, 27843.49
667.2842, 27884.14
667.7663, 27913.49
668.2484, 27877.37
668.7305, 27806.54
669.2126, 27760.05
669.6948, 27744.41
670.1769, 27747.35
670.6590, 27789.41
671.1411, 27829.39
671.6232, 27820.63
672.1053, 27777.64
672.5875, 27753.75
673.0696, 27776.51
673.5517, 27804.03
674.0338, 27752.82
674.5159, 27626.72
674.9980, 27575.10
675.4802, 27634.29
675.9623, 27675.48
676.4444, 27607.91
676.9265, 27485.88
677.4086, 27439.22
677.8907, 27495.46
678.3729, 27535.51
678.8550, 27539.07
679.3371, 27527.16
679.8192, 27507.54
680.3013, 27483.07
680.7834, 27455.78
681.2656, 27426.36
681.7477, 27397.52
682.2298, 27370.90
682.7119, 27347.35
683.1940, 27331.70
683.6761, 27324.62
684.1583, 27317.76
684.6404, 27309.02
685.1225, 27295.19
685.6046, 27267.52
686.0867, 27215.38
686.5688, 27190.11
687.0510, 27207.07
687.5331, 27231.00
688.0152, 27269.36
688.4973, 27298.52
688.9794, 27284.20
689.4615, 27222.06
689.9437, 27153.95
690.4258, 27094.25
690.9079, 27054.96
691.3900, 27069.17
691.8721, 27124.85
692.3542, 27161.75
692.8364, 27159.08
693.3185, 27140.07
693.8006, 27131.65
694.2827, 27133.73
694.7648, 27140.45
695.2469, 27160.69
695.7291, 27170.38
696.2112, 27168.26
696.6933, 27150.82
697.1754, 27106.74
697.6575, 27040.50
698.1396, 26983.48
698.6218, 26946.10
699.1039, 26923.08
699.5860, 26919.75
700.0681, 26925.11
700.5502, 26920.29
701.0323, 26902.35
701.5145, 26880.39
701.9966, 26861.42
702.4787, 26845.02
702.9608, 26832.52
703.4429, 26827.55
703.9250, 26803.10
704.4072, 26737.15
704.8893, 26678.47
705.3714, 26679.02
705.8535, 26720.77
706.3356, 26729.09
706.8177, 26672.97
707.2999, 26625.57
707.7820, 26607.19
708.2641, 26601.68
708.7462, 26605.08
709.2283, 26608.86
709.7104, 26591.49
710.1926, 26538.46
710.6747, 26484.92
711.1568, 26486.76
711.6389, 26529.36
712.1210, 26545.32
712.6031, 26526.67
713.0853, 26512.73
713.5674, 26528.15
714.0495, 26557.50
714.5316, 26565.30
715.0137, 26538.88
715.4958, 26525.12
715.9780, 26540.19
716.4601, 26549.30
716.9422, 26529.67
717.4243, 26501.84
717.9064, 26495.94
718.3885, 26518.28
718.8707, 26539.08
719.3528, 26551.79
719.8349, 26546.62
720.3170, 26498.54
720.7991, 26423.42
721.2813, 26366.16
721.7634, 26341.23
722.2455, 26332.15
722.7276, 26321.28
723.2097, 26309.26
723.6918, 26304.26
724.1740, 26311.16
724.6561, 26307.37
725.1382, 26273.17
725.6203, 26241.86
726.1024, 26260.40
726.5845, 26319.24
727.0667, 26348.29
727.5488, 26338.62
728.0309, 26302.69
728.5130, 26205.85
728.9951, 26111.90
729.4772, 26100.79
729.9594, 26155.39
730.4415, 26186.21
730.9236, 26133.96
731.4057, 26060.95
731.8878, 26063.36
732.3699, 26120.33
732.8521, 26144.27
733.3342, 26122.91
733.8163, 26105.09
734.2984, 26123.36
734.7805, 26160.29
735.2626, 26171.58
735.7448, 26147.36
736.2269, 26122.51
736.7090, 26085.58
737.1911, 26061.79
737.6732, 26064.01
738.1553, 26083.13
738.6375, 26111.35
739.1196, 26149.44
739.6017, 26175.64
740.0838, 26173.23
740.5659, 26162.27
741.0480, 26165.21
741.5302, 26171.29
742.0123, 26155.92
742.4944, 26113.16
742.9765, 26057.85
743.4586, 25996.89
743.9407, 25938.58
744.4229, 25914.97
744.9050, 25926.92
745.3871, 25963.25
745.8692, 26031.94
746.3513, 26096.27
746.8334, 26118.77
747.3156, 26103.48
747.7977, 26095.88
748.2798, 26110.55
748.7619, 26112.04
749.2440, 26097.39
749.7261, 26068.98
750.2083, 26010.94
750.6904, 25942.34
751.1725, 25912.52
751.6546, 25950.52
752.1367, 25984.11
752.6188, 25943.07
753.1010, 25875.47
753.5831, 25860.42
754.0652, 25888.01
754.5473, 25887.99
755.0294, 25828.06
755.5115, 25753.62
755.9937, 25736.70
756.4758, 25776.53
756.9579, 25801.28
757.4400, 25810.99
757.9221, 25804.25
758.4042, 25769.03
758.8864, 25731.13
759.3685, 25726.01
759.8506, 25757.13
760.3327, 25777.04
760.8148, 25783.32
761.2969, 25780.85
761.7791, 25753.58
762.2612, 25730.61
762.7433, 25746.08
763.2254, 25792.19
763.7075, 25827.92
764.1896, 25831.22
764.6718, 25821.55
765.1539, 25815.67
765.6360, 25810.56
766.1181, 25796.70
766.6002, 25775.71
767.0823, 25765.15
767.5645, 25776.00
768.0466, 25796.54
768.5287, 25804.58
769.0108, 25799.47
769.4929, 25787.60
769.9750, 25758.68
770.4572, 25755.31
770.9393, 25812.69
771.4214, 25892.01
771.9035, 25936.93
772.3856, 25946.40
772.8677, 25933.05
773.3499, 25860.56
773.8320, 25810.42
774.3141, 25838.34
774.7962, 25882.04
775.2783, 25874.56
775.7604, 25815.96
776.2426, 25752.58
776.7247, 25690.25
777.2068, 25661.10
777.6889, 25727.41
778.1710, 25838.97
778.6531, 25897.29
779.1353, 25893.14
779.6174, 25860.99
780.0995, 25818.18
780.5816, 25784.32
781.0637, 25817.18
781.5458, 25922.58
782.0280, 25942.40
782.5101, 25839.11
782.9922, 25756.22
783.4743, 25769.58
783.9564, 25829.34
784.4385, 25854.38
784.9207, 25832.93
785.4028, 25835.04
785.8849, 25890.95
786.3670, 25931.17
786.8491, 25931.08
787.3312, 25910.29
787.8134, 25882.81
788.2955, 25852.64
788.7776, 25824.49
789.2597, 25793.80
789.7418, 25776.29
790.2239, 25793.58
790.7061, 25826.92
791.1882, 25853.20
791.6703, 25867.88
792.1524, 25868.05
792.6345, 25851.32
793.1166, 25828.48
793.5988, 25814.38
794.0809, 25809.32
794.5630, 25820.50
795.0451, 25851.89
795.5272, 25861.87
796.0093, 25824.38
796.4915, 25776.02
796.9736, 25770.84
797.4557, 25813.27
797.9378, 25846.02
798.4199, 25876.07
798.9020, 25884.86
799.3842, 25847.03
799.8663, 25805.83
800.3484, 25796.99
800.8305, 25814.98
801.3126, 25830.69
801.7947, 25841.16
802.2769, 25841.29
802.7590, 25820.70
803.2411, 25795.21
803.7232, 25773.86
804.2053, 25761.72
804.6874, 25769.99
805.1696, 25803.60
805.6517, 25839.32
806.1338, 25849.96
806.6159, 25845.57
807.0980, 25851.70
807.5801, 25866.33
808.0623, 25872.35
808.5444, 25864.34
809.0265, 25840.13
809.5086, 25792.15
809.9907, 25727.39
810.4728, 25697.86
810.9550, 25708.18
811.4371, 25741.14
811.9192, 25819.35
812.4013, 25878.09
812.8834, 25861.71
813.3655, 25790.39
813.8477, 25730.43
814.3298, 25670.77
814.8119, 25646.20
815.2940, 25687.05
815.7761, 25734.20
816.2582, 25774.31
816.7404, 25795.15
817.2225, 25779.37
817.7046, 25725.00
818.1867, 25657.23
818.6688, 25576.13
819.1509, 25501.18
819.6331, 25431.66
820.1152, 25386.99
820.5973, 25423.70
821.0794, 25531.24
821.5615, 25612.97
822.0436, 25601.82
822.5258, 25543.16
823.0079, 25515.35
823.4900, 25512.31
823.9721, 25497.00
824.4542, 25465.80
824.9363, 25423.84
825.4185, 25368.29
825.9006, 25323.46
826.3827, 25339.09
826.8648, 25426.26
827.3469, 25430.33
827.8290, 25293.86
828.3111, 25194.04
828.7932, 25197.09
829.2753, 25234.15
829.7574, 25250.68
830.2396, 25247.88
830.7217, 25231.27
831.2038, 25190.64
831.6859, 25151.52
832.1680, 25106.91
832.6501, 25075.67
833.1323, 25088.04
833.6144, 25117.80
834.0965, 25110.99
834.5786, 25050.71
835.0607, 24991.37
835.5428, 24970.65
836.0250, 24965.17
836.5071, 24952.76
836.9892, 24936.35
837.4713, 24931.23
837.9534, 24936.10
838.4355, 24918.52
838.9177, 24845.74
839.3998, 24751.84
839.8819, 24705.72
840.3640, 24701.71
840.8461, 24709.83
841.3282, 24726.85
841.8104, 24725.41
842.2925, 24687.63
842.7746, 24631.06
843.2567, 24586.79
843.7388, 24555.23
844.2209, 24526.75
844.7031, 24489.24
845.1852, 24486.21
845.6673, 24560.60
846.1494, 24639.95
846.6315, 24642.54
847.1136, 24574.66
847.5958, 24531.54
848.0779, 24539.96
848.5600, 24533.76
849.0421, 24492.30
849.5242, 24446.71
850.0063, 24417.48
850.4885, 24397.36
850.9706, 24371.90
851.4527, 24338.12
851.9348, 24298.92
852.4169, 24244.09
852.8990, 24196.37
853.3812, 24181.49
853.8633, 24181.75
854.3454, 24170.16
854.8275, 24142.51
855.3096, 24108.43
855.7917, 24070.16
856.2739, 24037.82
856.7560, 24027.61
857.2381, 24033.68
857.7202, 24049.98
858.2023, 24070.75
858.6844, 24060.72
859.1666, 24001.54
859.6487, 23937.80
860.1308, 23939.72
860.6129, 23998.28
861.0950, 24024.47
861.5771, 24016.22
862.0593, 23994.45
862.5414, 23961.00
863.0235, 23927.71
863.5056, 23905.72
863.9877, 23892.19
864.4698, 23874.42
864.9520, 23854.09
865.4341, 23824.53
865.9162, 23761.94
866.3983, 23722.37
866.8804, 23762.80
867.3625, 23824.83
867.8447, 23824.97
868.3268, 23756.09
868.8089, 23703.94
869.2910, 23683.81
869.7731, 23675.60
870.2552, 23669.19
870.7374, 23675.19
871.2195, 23713.00
871.7016, 23771.10
872.1837, 23815.60
872.6658, 23834.46
873.1479, 23841.50
873.6301, 23834.88
874.1122, 23828.25
874.5943, 23833.64
875.0764, 23849.32
875.5585, 23869.45
876.0406, 23893.06
876.5228, 23925.06
877.0049, 23970.68
877.4870, 24024.55
877.9691, 24090.48
878.4512, 24156.63
878.9333, 24180.41
879.4155, 24164.00
879.8976, 24164.50
880.3797, 24214.02
880.8618, 24277.88
881.3439, 24298.26
881.8260, 24280.93
882.3082, 24275.40
882.7903, 24281.84
883.2724, 24306.13
883.7545, 24353.28
884.2366, 24401.80
884.7188, 24430.53
885.2009, 24444.95
885.6830, 24469.31
886.1651, 24506.15
886.6472, 24543.89
887.1293, 24579.43
887.6115, 24620.48
888.0936, 24676.02
888.5757, 24734.74
889.0578, 24779.92
889.5399, 24810.72
890.0220, 24832.66
890.5042, 24836.67
890.9863, 24844.49
891.4684, 24872.82
891.9505, 24894.17
892.4326, 24876.48
892.9147, 24837.81
893.3969, 24829.85
893.8790, 24875.34
894.3611, 24905.27
894.8432, 24887.58
895.3253, 24861.95
895.8074, 24838.34
896.2896, 24828.56
896.7717, 24864.13
897.2538, 24934.90
897.7359, 24965.16
898.2180, 24890.12
898.7001, 24811.00
899.1823, 24808.98
899.6644, 24841.34
900.1465, 24865.03
900.6286, 24875.08
901.1107, 24870.42
901.5928, 24851.92
902.0750, 24839.11
902.5571, 24863.25
903.0392, 24896.21
903.5213, 24889.78
904.0034, 24853.25
904.4855, 24808.29
904.9677, 24760.91
905.4498, 24715.54
905.9319, 24673.40
906.4140, 24646.20
906.8961, 24664.60
907.3782, 24717.59
907.8604, 24743.62
908.3425, 24740.88
908.8246, 24715.38
909.3067, 24665.47
909.7888, 24635.00
910.2709, 24672.61
910.7531, 24757.47
911.2352, 24802.87
911.7173, 24803.56
912.1994, 24803.56
912.6815, 24803.19
913.1636, 24818.16
913.6458, 24863.35
914.1279, 24915.21
914.6100, 24933.44
915.0921, 24914.81
915.5742, 24937.51
916.0563, 25028.57
916.5385, 25103.22
917.0206, 25142.91
917.5027, 25168.25
917.9848, 25194.22
918.4669, 25215.91
918.9490, 25215.03
919.4312, 25170.05
919.9133, 25165.73
920.3954, 25241.57
920.8775, 25309.55
921.3596, 25320.05
921.8417, 25330.22
922.3239, 25408.02
922.8060, 25536.96
923.2881, 25629.21
923.7702, 25655.11
924.2523, 25670.96
924.7344, 25678.06
925.2166, 25692.01
925.6987, 25719.75
926.1808, 25761.51
926.6629, 25832.56
927.1450, 25927.50
927.6271, 25978.90
928.1093, 25924.24
928.5914, 25861.42
929.0735, 25851.28
929.5556, 25851.12
930.0377, 25809.21
930.5198, 25742.22
931.0020, 25704.11
931.4841, 25710.93
931.9662, 25704.31
932.4483, 25634.25
932.9304, 25540.52
933.4125, 25453.05
933.8947, 25373.94
934.3768, 25310.14
934.8589, 25257.81
935.3410, 25205.10
935.8231, 25147.78
936.3052, 25070.42
936.7874, 24930.56
937.2695, 24775.30
937.7516, 24705.62
938.2337, 24690.19
938.7158, 24620.64
939.1979, 24480.46
939.6801, 24355.95
940.1622, 24313.18
940.6443, 24301.73
941.1264, 24238.17
941.6085, 24136.07
942.0906, 24036.24
942.5728, 23943.21
943.0549, 23872.77
943.5370, 23829.66
944.0191, 23782.47
944.5012, 23695.60
944.9833, 23589.87
945.4655, 23530.53
945.9476, 23512.80
946.4297, 23476.33
946.9118, 23414.37
947.3939, 23397.06
947.8760, 23463.07
948.3582, 23543.98
948.8403, 23547.42
949.3224, 23484.37
949.8045, 23426.21
950.2866, 23369.19
950.7687, 23369.88
951.2509, 23446.74
951.7330, 23531.39
952.2151, 23583.67
952.6972, 23618.25
953.1793, 23663.88
953.6614, 23722.53
954.1436, 23745.07
954.6257, 23715.25
955.1078, 23714.08
955.5899, 23761.31
956.0720, 23838.51
956.5541, 23942.14
957.0363, 24055.58
957.5184, 24129.72
958.0005, 24143.19
958.4826, 24217.81
958.9647, 24390.04
959.4468, 24540.62
959.9290, 24624.90
960.4111, 24691.20
960.8932, 24778.97
961.3753, 24884.32
961.8574, 24992.52
962.3395, 25114.36
962.8217, 25210.08
963.3038, 25241.04
963.7859, 25303.93
964.2680, 25451.14
964.7501, 25626.72
965.2322, 25782.18
965.7144, 25916.42
966.1965, 26027.55
966.6786, 26066.84
967.1607, 26159.13
967.6428, 26369.50
968.1249, 26558.88
968.6071, 26647.74
969.0892, 26701.01
969.5713, 26801.57
970.0534, 26948.65
970.5355, 27071.13
971.0176, 27110.96
971.4998, 27205.26
971.9819, 27427.24
972.4640, 27646.11
972.9461, 27785.15
973.4282, 27882.70
973.9103, 27988.75
974.3925, 28106.58
974.8746, 28250.40
975.3567, 28436.89
975.8388, 28628.31
976.3209, 28837.97
976.8030, 29028.17
977.2852, 29168.01
977.7673, 29275.16
978.2494, 29382.61
978.7315, 29495.63
979.2136, 29588.32
979.6957, 29619.22
980.1779, 29677.97
980.6600, 29855.98
981.1421, 30016.86
981.6242, 30033.28
982.1063, 29958.33
982.5884, 29911.40
983.0706, 29915.91
983.5527, 29922.62
984.0348, 29935.71
984.5169, 29924.10
984.9990, 29881.23
985.4811, 29802.21
985.9633, 29655.33
986.4454, 29475.05
986.9275, 29348.74
987.4096, 29309.65
987.8917, 29223.05
988.3738, 28999.19
988.8560, 28765.58
989.3381, 28588.62
989.8202, 28429.95
990.3023, 28246.15
990.7844, 28045.46
991.2665, 27868.29
991.7487, 27733.45
992.2308, 27568.95
992.7129, 27303.77
993.1950, 27049.08
993.6771, 26896.13
994.1592, 26765.82
994.6414, 26556.44
995.1235, 26290.17
995.6056, 26064.38
996.0877, 25908.47
996.5698, 25783.83
997.0519, 25717.90
997.5341, 25627.70
998.0162, 25421.17
998.4983, 25191.87
998.9804, 25043.28
999.4625, 24972.05
999.9446, 24927.19
1000.427, 24907.82
1000.909, 24848.27
1001.391, 24640.27
1001.873, 24468.79
1002.355, 24506.40
1002.837, 24612.08
1003.319, 24610.62
1003.802, 24511.96
1004.284, 24433.67
1004.766, 24420.54
1005.248, 24404.93
1005.730, 24346.93
1006.212, 24286.56
1006.694, 24243.64
1007.176, 24218.14
1007.659, 24206.19
1008.141, 24210.05
1008.623, 24244.75
1009.105, 24330.11
1009.587, 24390.43
1010.069, 24357.43
1010.551, 24326.69
1011.033, 24363.46
1011.515, 24433.90
1011.998, 24490.95
1012.480, 24539.49
1012.962, 24621.10
1013.444, 24757.63
1013.926, 24894.74
1014.408, 25014.32
1014.890, 25122.98
1015.372, 25209.16
1015.854, 25297.69
1016.337, 25430.23
1016.819, 25591.84
1017.301, 25709.75
1017.783, 25740.18
1018.265, 25812.80
1018.747, 25996.13
1019.229, 26211.64
1019.711, 26438.27
1020.194, 26657.82
1020.676, 26839.04
1021.158, 26996.53
1021.640, 27186.89
1022.122, 27434.57
1022.604, 27674.83
1023.086, 27866.73
1023.568, 28070.71
1024.051, 28333.91
1024.533, 28610.49
1025.015, 28843.96
1025.497, 29050.49
1025.979, 29296.66
1026.461, 29615.39
1026.943, 29899.85
1027.425, 30121.75
1027.907, 30311.25
1028.390, 30471.83
1028.872, 30612.89
1029.354, 30738.04
1029.836, 30851.28
1030.318, 30962.59
1030.800, 31077.12
1031.282, 31174.23
1031.764, 31284.37
1032.246, 31332.24
1032.729, 31255.82
1033.211, 31141.46
1033.693, 31061.86
1034.175, 30998.03
1034.657, 30896.41
1035.139, 30752.05
1035.621, 30575.46
1036.103, 30343.30
1036.586, 30112.39
1037.068, 29895.90
1037.550, 29681.67
1038.032, 29453.27
1038.514, 29222.62
1038.996, 29030.94
1039.478, 28905.89
1039.960, 28670.73
1040.443, 28226.69
1040.925, 27829.49
1041.407, 27541.19
1041.889, 27279.36
1042.371, 26991.51
1042.853, 26702.90
1043.335, 26464.35
1043.817, 26282.86
1044.299, 26058.94
1044.781, 25761.37
1045.264, 25492.94
1045.746, 25272.47
1046.228, 25078.39
1046.710, 24915.15
1047.192, 24755.03
1047.674, 24546.66
1048.156, 24293.57
1048.638, 24101.36
1049.121, 23989.28
1049.603, 23873.14
1050.085, 23743.63
1050.567, 23609.88
1051.049, 23469.28
1051.531, 23341.25
1052.013, 23254.37
1052.495, 23200.53
1052.978, 23124.95
1053.460, 23020.10
1053.942, 22957.42
1054.424, 22950.32
1054.906, 22925.28
1055.388, 22850.65
1055.870, 22765.90
1056.352, 22713.99
1056.834, 22682.21
1057.317, 22621.04
1057.799, 22533.51
1058.281, 22501.23
1058.763, 22527.73
1059.245, 22521.76
1059.727, 22454.38
1060.209, 22382.43
1060.691, 22352.89
1061.173, 22347.75
1061.656, 22332.14
1062.138, 22308.38
1062.620, 22283.90
1063.102, 22260.24
1063.584, 22244.77
1064.066, 22238.83
1064.548, 22235.48
1065.030, 22229.45
1065.513, 22230.54
1065.995, 22260.53
1066.477, 22303.32
1066.959, 22326.07
1067.441, 22331.72
1067.923, 22328.06
1068.405, 22317.52
1068.887, 22301.29
1069.370, 22279.75
1069.852, 22260.21
1070.334, 22252.24
1070.816, 22248.13
1071.298, 22240.71
1071.780, 22229.25
1072.262, 22205.92
1072.744, 22178.31
1073.226, 22173.42
1073.708, 22198.30
1074.191, 22211.84
1074.673, 22185.22
1075.155, 22139.40
1075.637, 22068.37
1076.119, 22004.24
1076.601, 21985.08
1077.083, 21996.12
1077.565, 22008.81
1078.047, 22016.89
1078.530, 22025.09
1079.012, 22059.92
1079.494, 22053.47
1079.976, 21909.10
1080.458, 21791.81
1080.940, 21851.88
1081.422, 21971.26
1081.904, 22002.12
1082.387, 21943.54
1082.869, 21871.90
1083.351, 21777.09
1083.833, 21721.09
1084.315, 21753.47
1084.797, 21773.12
1085.279, 21719.42
1085.761, 21661.36
1086.244, 21668.05
1086.726, 21715.50
1087.208, 21731.23
1087.690, 21699.22
1088.172, 21704.31
1088.654, 21775.82
1089.136, 21821.78
1089.618, 21822.29
1090.100, 21794.25
1090.583, 21734.56
1091.065, 21671.87
1091.547, 21659.53
1092.029, 21695.40
1092.511, 21722.76
1092.993, 21743.35
1093.475, 21735.96
1093.957, 21691.32
1094.439, 21670.93
1094.922, 21705.61
1095.404, 21752.63
1095.886, 21763.81
1096.368, 21751.63
1096.850, 21759.92
1097.332, 21783.16
1097.814, 21784.67
1098.296, 21761.03
1098.779, 21693.80
1099.261, 21582.73
1099.743, 21491.82
1100.225, 21467.85
1100.707, 21489.33
1101.189, 21565.83
1101.671, 21642.67
1102.153, 21575.46
1102.635, 21426.72
1103.118, 21358.86
1103.600, 21383.80
1104.082, 21420.03
1104.564, 21432.31
1105.046, 21420.35
1105.528, 21354.59
1106.010, 21295.64
1106.492, 21306.00
1106.974, 21349.60
1107.457, 21400.98
1107.939, 21442.36
1108.421, 21441.78
1108.903, 21394.42
1109.385, 21350.47
1109.867, 21334.70
1110.349, 21318.62
1110.831, 21284.12
1111.314, 21253.86
1111.796, 21246.23
1112.278, 21248.38
1112.760, 21249.20
1113.242, 21245.46
1113.724, 21222.65
1114.206, 21154.44
1114.688, 21122.95
1115.171, 21161.60
1115.653, 21188.38
1116.135, 21179.24
1116.617, 21157.46
1117.099, 21142.90
1117.581, 21124.80
1118.063, 21074.93
1118.545, 20990.46
1119.027, 20930.40
1119.510, 20894.69
1119.992, 20887.57
1120.474, 20914.70
1120.956, 20940.05
1121.438, 20947.37
1121.920, 20936.16
1122.402, 20903.25
1122.884, 20854.91
1123.366, 20801.16
1123.849, 20748.34
1124.331, 20742.65
1124.813, 20777.34
1125.295, 20796.11
1125.777, 20782.95
1126.259, 20746.99
1126.741, 20690.55
1127.223, 20637.21
1127.706, 20619.40
1128.188, 20619.86
1128.670, 20616.77
1129.152, 20611.89
1129.634, 20616.99
1130.116, 20624.69
1130.598, 20602.26
1131.080, 20538.29
1131.563, 20493.68
1132.045, 20524.75
1132.527, 20556.12
1133.009, 20549.86
1133.491, 20523.78
1133.973, 20475.13
1134.455, 20426.25
1134.937, 20414.49
1135.419, 20438.43
1135.901, 20452.59
1136.384, 20455.74
1136.866, 20438.18
1137.348, 20369.48
1137.830, 20321.65
1138.312, 20322.52
1138.794, 20341.72
1139.276, 20364.87
1139.758, 20381.69
1140.241, 20362.80
1140.723, 20304.20
1141.205, 20286.09
1141.687, 20314.47
1142.169, 20341.17
1142.651, 20358.61
1143.133, 20387.08
1143.615, 20439.64
1144.098, 20467.96
1144.580, 20410.54
1145.062, 20306.75
1145.544, 20257.75
1146.026, 20245.64
1146.508, 20199.88
1146.990, 20133.08
1147.472, 20113.68
1147.954, 20149.15
1148.437, 20182.38
1148.919, 20181.99
1149.401, 20171.53
1149.883, 20175.41
1150.365, 20176.46
1150.847, 20145.57
1151.329, 20111.55
1151.811, 20124.74
1152.293, 20159.95
1152.776, 20147.81
1153.258, 20076.85
1153.740, 20018.97
1154.222, 19993.88
1154.704, 19988.61
1155.186, 20028.87
1155.668, 20053.23
1156.150, 20010.81
1156.633, 19955.38
1157.115, 19936.85
1157.597, 19950.31
1158.079, 19986.60
1158.561, 20059.60
1159.043, 20069.48
1159.525, 19990.89
1160.007, 19956.46
1160.490, 20002.33
1160.972, 20028.84
1161.454, 19981.82
1161.936, 19904.40
1162.418, 19845.21
1162.900, 19806.51
1163.382, 19807.79
1163.864, 19835.32
1164.346, 19827.25
1164.828, 19789.39
1165.311, 19763.43
1165.793, 19758.75
1166.275, 19764.60
1166.757, 19777.37
1167.239, 19777.61
1167.721, 19728.02
1168.203, 19677.67
1168.685, 19684.05
1169.168, 19709.50
1169.650, 19706.84
1170.132, 19686.30
1170.614, 19681.48
1171.096, 19697.16
1171.578, 19704.47
1172.060, 19688.91
1172.542, 19675.55
1173.025, 19669.20
1173.507, 19665.60
1173.989, 19664.06
1174.471, 19664.25
1174.953, 19671.93
1175.435, 19676.45
1175.917, 19645.61
1176.399, 19575.48
1176.881, 19555.93
1177.364, 19596.15
1177.846, 19597.34
1178.328, 19543.19
1178.810, 19504.77
1179.292, 19512.81
1179.774, 19526.58
1180.256, 19503.49
1180.738, 19471.72
1181.220, 19495.60
1181.703, 19541.99
1182.185, 19527.97
1182.667, 19480.69
1183.149, 19482.58
1183.631, 19526.22
1184.113, 19519.86
1184.595, 19426.62
1185.077, 19372.22
1185.560, 19464.92
1186.042, 19568.04
1186.524, 19631.28
1187.006, 19657.88
1187.488, 19639.43
1187.970, 19593.37
1188.452, 19527.60
1188.934, 19451.51
1189.417, 19417.90
1189.899, 19439.11
1190.381, 19465.89
1190.863, 19507.39
1191.345, 19528.51
1191.827, 19520.91
1192.309, 19491.56
1192.791, 19436.97
1193.273, 19396.38
1193.755, 19427.65
1194.238, 19501.44
1194.720, 19527.46
1195.202, 19514.19
1195.684, 19486.92
1196.166, 19453.28
1196.648, 19430.09
1197.130, 19422.55
1197.612, 19437.53
1198.095, 19480.27
1198.577, 19519.61
1199.059, 19532.77
1199.541, 19530.55
1200.023, 19517.69
1200.505, 19496.36
1200.987, 19459.78
1201.469, 19421.07
1201.952, 19402.57
1202.434, 19403.87
1202.916, 19401.82
1203.398, 19395.61
1203.880, 19383.02
1204.362, 19362.79
1204.844, 19338.74
1205.326, 19306.93
1205.808, 19285.51
1206.291, 19288.08
1206.773, 19297.75
1207.255, 19287.75
1207.737, 19268.94
1208.219, 19293.89
1208.701, 19347.90
1209.183, 19340.35
1209.665, 19286.09
1210.147, 19286.22
1210.630, 19351.26
1211.112, 19393.94
1211.594, 19368.00
1212.076, 19335.79
1212.558, 19351.46
1213.040, 19375.62
1213.522, 19378.68
1214.004, 19375.19
1214.487, 19383.93
1214.969, 19392.74
1215.451, 19372.86
1215.933, 19329.73
1216.415, 19317.82
1216.897, 19366.49
1217.379, 19375.91
1217.861, 19323.91
1218.344, 19288.23
1218.826, 19288.70
1219.308, 19291.43
1219.790, 19277.42
1220.272, 19262.78
1220.754, 19271.30
1221.236, 19285.94
1221.718, 19239.79
1222.200, 19163.71
1222.682, 19177.92
1223.165, 19258.15
1223.647, 19325.78
1224.129, 19358.49
1224.611, 19335.95
1225.093, 19249.89
1225.575, 19172.58
1226.057, 19145.96
1226.539, 19146.85
1227.022, 19198.21
1227.504, 19233.54
1227.986, 19176.35
1228.468, 19100.41
1228.950, 19114.09
1229.432, 19184.09
1229.914, 19183.91
1230.396, 19097.94
1230.879, 19067.51
1231.361, 19110.38
1231.843, 19117.89
1232.325, 19072.73
1232.807, 19019.50
1233.289, 18974.56
1233.771, 18960.38
1234.253, 19001.45
1234.735, 19059.12
1235.218, 19084.50
1235.700, 19077.30
1236.182, 19007.62
1236.664, 18923.21
1237.146, 18914.67
1237.628, 18962.72
1238.110, 19000.49
1238.592, 19011.30
1239.074, 19000.61
1239.557, 18939.94
1240.039, 18918.89
1240.521, 19017.81
1241.003, 19072.80
1241.485, 19010.07
1241.967, 18924.09
1242.449, 18868.24
1242.931, 18836.28
1243.414, 18818.84
1243.896, 18816.62
1244.378, 18840.81
1244.860, 18886.82
1245.342, 18902.07
1245.824, 18889.07
1246.306, 18880.13
1246.788, 18881.92
1247.271, 18885.39
1247.753, 18886.23
1248.235, 18884.77
1248.717, 18891.82
1249.199, 18883.09
1249.681, 18818.65
1250.163, 18755.20
1250.645, 18738.60
1251.127, 18750.05
1251.609, 18774.23
1252.092, 18801.57
1252.574, 18803.80
1253.056, 18777.38
1253.538, 18752.38
1254.020, 18724.53
1254.502, 18720.86
1254.984, 18748.02
1255.466, 18766.47
1255.949, 18761.99
1256.431, 18745.05
1256.913, 18721.54
1257.395, 18704.42
1257.877, 18721.28
1258.359, 18747.81
1258.841, 18740.38
1259.323, 18721.53
1259.806, 18723.09
1260.288, 18741.31
1260.770, 18769.51
1261.252, 18800.88
1261.734, 18806.55
1262.216, 18766.43
1262.698, 18740.70
1263.180, 18736.36
1263.662, 18749.62
1264.145, 18792.02
1264.627, 18826.19
1265.109, 18835.32
1265.591, 18826.55
1266.073, 18805.70
1266.555, 18773.99
1267.037, 18728.51
1267.519, 18679.28
1268.001, 18664.67
1268.484, 18672.08
##END=



