##NAMES=Goyazite
##RRUFFID=R061054
##IDEAL CHEMISTRY=SrAl_3_(PO_4_)(PO_3_OH)(OH)_6_
##LOCALITY=Yukon Territory, Canada
##OWNER=RRUFF
##SOURCE=Royal Ontario Museum
##DESCRIPTION=Pale green rhombohedral crystals with iron staining
##STATUS=The identification of this mineral has been confirmed by single-crystal X-ray diffraction.
##URL=rruff.info/R061054
148.0385, 3968.695
148.5207, 3983.771
149.0028, 3997.189
149.4849, 4007.098
149.9670, 4015.438
150.4491, 4026.786
150.9312, 4045.266
151.4134, 4064.123
151.8955, 4080.799
152.3776, 4092.575
152.8597, 4105.814
153.3418, 4120.613
153.8239, 4137.231
154.3061, 4156.519
154.7882, 4181.705
155.2703, 4208.022
155.7524, 4232.324
156.2345, 4251.330
156.7166, 4270.898
157.1988, 4289.295
157.6809, 4306.081
158.1630, 4332.201
158.6451, 4375.976
159.1272, 4427.789
159.6093, 4478.096
160.0915, 4516.710
160.5736, 4558.306
161.0557, 4610.125
161.5378, 4674.576
162.0199, 4740.036
162.5020, 4806.443
162.9841, 4870.127
163.4663, 4926.172
163.9484, 4956.858
164.4305, 4989.149
164.9126, 5040.866
165.3947, 5118.844
165.8768, 5208.460
166.3590, 5308.399
166.8411, 5414.810
167.3232, 5518.837
167.8053, 5608.153
168.2874, 5696.268
168.7695, 5796.143
169.2517, 5913.615
169.7338, 6041.194
170.2159, 6176.832
170.6980, 6317.774
171.1801, 6461.515
171.6622, 6599.288
172.1444, 6739.671
172.6265, 6894.638
173.1086, 7066.160
173.5907, 7255.291
174.0728, 7469.956
174.5549, 7711.440
175.0371, 7961.855
175.5192, 8201.428
176.0013, 8438.990
176.4834, 8692.556
176.9655, 8980.322
177.4476, 9283.302
177.9298, 9570.557
178.4119, 9840.791
178.8940, 10106.16
179.3761, 10383.25
179.8582, 10670.23
180.3403, 10970.17
180.8225, 11309.43
181.3046, 11659.22
181.7867, 11961.69
182.2688, 12199.94
182.7509, 12408.29
183.2330, 12640.11
183.7152, 12887.07
184.1973, 13114.64
184.6794, 13311.73
185.1615, 13471.97
185.6436, 13564.41
186.1257, 13578.89
186.6079, 13530.67
187.0900, 13445.18
187.5721, 13322.39
188.0542, 13168.76
188.5363, 12994.41
189.0184, 12797.22
189.5006, 12548.44
189.9827, 12233.29
190.4648, 11869.13
190.9469, 11489.19
191.4290, 11096.42
191.9111, 10707.01
192.3932, 10329.14
192.8754, 9964.865
193.3575, 9621.693
193.8396, 9307.284
194.3217, 9015.469
194.8038, 8724.627
195.2859, 8430.057
195.7681, 8150.727
196.2502, 7904.146
196.7323, 7692.757
197.2144, 7495.500
197.6965, 7301.432
198.1786, 7111.942
198.6608, 6950.104
199.1429, 6820.500
199.6250, 6712.064
200.1071, 6606.496
200.5892, 6503.554
201.0714, 6404.129
201.5535, 6304.737
202.0356, 6203.723
202.5177, 6124.593
202.9998, 6073.961
203.4819, 6038.367
203.9641, 5989.655
204.4462, 5924.044
204.9283, 5857.707
205.4104, 5798.061
205.8925, 5744.724
206.3746, 5699.916
206.8568, 5665.475
207.3389, 5638.483
207.8210, 5609.681
208.3031, 5577.264
208.7852, 5547.985
209.2673, 5527.422
209.7495, 5518.042
210.2316, 5507.638
210.7137, 5492.956
211.1958, 5476.420
211.6779, 5471.562
212.1600, 5483.929
212.6422, 5497.297
213.1243, 5495.333
213.6064, 5468.611
214.0885, 5457.744
214.5706, 5474.702
215.0527, 5516.589
215.5349, 5541.038
216.0170, 5538.030
216.4991, 5531.905
216.9812, 5547.124
217.4633, 5592.570
217.9454, 5635.748
218.4276, 5672.253
218.9097, 5701.879
219.3918, 5715.319
219.8739, 5698.980
220.3560, 5681.733
220.8381, 5699.275
221.3203, 5768.312
221.8024, 5835.811
222.2845, 5889.535
222.7666, 5929.439
223.2487, 5959.495
223.7308, 5976.140
224.2129, 5985.967
224.6951, 5995.988
225.1772, 6001.028
225.6593, 6016.451
226.1414, 6050.750
226.6235, 6111.121
227.1056, 6155.959
227.5878, 6179.920
228.0699, 6191.698
228.5520, 6204.754
229.0341, 6213.089
229.5162, 6232.573
229.9983, 6272.108
230.4805, 6341.512
230.9626, 6398.244
231.4447, 6435.622
231.9268, 6462.932
232.4089, 6499.283
232.8910, 6551.710
233.3732, 6603.308
233.8553, 6644.242
234.3374, 6660.037
234.8195, 6703.797
235.3016, 6790.125
235.7837, 6900.646
236.2659, 6986.898
236.7480, 7030.770
237.2301, 7076.633
237.7122, 7146.079
238.1943, 7255.181
238.6764, 7351.449
239.1586, 7422.874
239.6407, 7482.870
240.1228, 7573.613
240.6049, 7700.604
241.0870, 7851.520
241.5691, 8022.859
242.0513, 8226.120
242.5334, 8424.229
243.0155, 8606.663
243.4976, 8781.924
243.9797, 8985.600
244.4618, 9217.176
244.9440, 9473.729
245.4261, 9752.464
245.9082, 10050.05
246.3903, 10376.59
246.8724, 10738.80
247.3545, 11131.13
247.8367, 11526.68
248.3188, 11911.69
248.8009, 12311.53
249.2830, 12744.78
249.7651, 13219.22
250.2472, 13700.81
250.7294, 14187.37
251.2115, 14679.43
251.6936, 15178.93
252.1757, 15695.08
252.6578, 16209.81
253.1399, 16723.07
253.6220, 17240.87
254.1042, 17750.59
254.5863, 18262.15
255.0684, 18769.16
255.5505, 19197.90
256.0326, 19544.79
256.5147, 19818.29
256.9969, 20035.65
257.4790, 20212.88
257.9611, 20294.66
258.4432, 20280.33
258.9253, 20165.90
259.4074, 19920.20
259.8896, 19510.22
260.3717, 19010.96
260.8538, 18467.33
261.3359, 17872.21
261.8180, 17244.13
262.3001, 16569.11
262.7823, 15857.94
263.2644, 15155.29
263.7465, 14459.63
264.2286, 13782.41
264.7107, 13150.47
265.1928, 12555.41
265.6750, 12004.85
266.1571, 11497.02
266.6392, 11035.11
267.1213, 10604.21
267.6034, 10208.44
268.0855, 9842.396
268.5677, 9497.452
269.0498, 9167.101
269.5319, 8886.971
270.0140, 8672.374
270.4961, 8516.762
270.9782, 8348.048
271.4604, 8153.126
271.9425, 7969.305
272.4246, 7833.691
272.9067, 7753.573
273.3888, 7685.482
273.8709, 7623.424
274.3531, 7566.811
274.8352, 7506.829
275.3173, 7439.191
275.7994, 7379.850
276.2815, 7344.496
276.7636, 7334.934
277.2458, 7336.871
277.7279, 7349.474
278.2100, 7371.243
278.6921, 7393.458
279.1742, 7415.082
279.6563, 7440.257
280.1385, 7471.835
280.6206, 7509.157
281.1027, 7557.708
281.5848, 7626.561
282.0669, 7706.220
282.5490, 7749.616
283.0312, 7750.546
283.5133, 7744.955
283.9954, 7781.582
284.4775, 7859.843
284.9596, 7892.519
285.4417, 7854.985
285.9239, 7760.103
286.4060, 7645.354
286.8881, 7510.844
287.3702, 7364.693
287.8523, 7212.471
288.3344, 7053.758
288.8166, 6891.250
289.2987, 6719.363
289.7808, 6546.249
290.2629, 6393.485
290.7450, 6262.755
291.2271, 6143.629
291.7093, 6025.161
292.1914, 5909.956
292.6735, 5811.038
293.1556, 5736.260
293.6377, 5677.752
294.1198, 5622.927
294.6020, 5571.698
295.0841, 5525.336
295.5662, 5484.902
296.0483, 5449.770
296.5304, 5418.835
297.0125, 5393.663
297.4947, 5370.628
297.9768, 5340.186
298.4589, 5303.656
298.9410, 5275.976
299.4231, 5275.688
299.9052, 5292.278
300.3873, 5302.230
300.8694, 5295.622
301.3516, 5286.537
301.8337, 5294.089
302.3158, 5316.045
302.7979, 5339.184
303.2800, 5351.141
303.7621, 5359.077
304.2443, 5374.805
304.7264, 5401.766
305.2085, 5434.930
305.6906, 5475.594
306.1727, 5520.378
306.6548, 5557.495
307.1370, 5569.612
307.6191, 5573.769
308.1012, 5590.028
308.5833, 5624.897
309.0654, 5667.065
309.5475, 5714.547
310.0297, 5763.238
310.5118, 5802.315
310.9939, 5811.071
311.4760, 5815.047
311.9581, 5838.057
312.4402, 5890.655
312.9224, 5947.515
313.4045, 5996.685
313.8866, 6039.940
314.3687, 6080.040
314.8508, 6120.518
315.3329, 6156.875
315.8151, 6182.514
316.2972, 6189.432
316.7793, 6207.836
317.2614, 6267.643
317.7435, 6346.139
318.2256, 6402.735
318.7078, 6399.501
319.1899, 6390.266
319.6720, 6403.070
320.1541, 6447.700
320.6362, 6488.838
321.1183, 6515.000
321.6005, 6531.634
322.0826, 6546.232
322.5647, 6560.876
323.0468, 6573.137
323.5289, 6580.868
324.0110, 6582.136
324.4932, 6586.674
324.9753, 6596.634
325.4574, 6610.113
325.9395, 6624.943
326.4216, 6646.560
326.9037, 6663.836
327.3859, 6673.077
327.8680, 6672.629
328.3501, 6673.602
328.8322, 6673.589
329.3143, 6676.455
329.7964, 6685.804
330.2786, 6704.015
330.7607, 6725.875
331.2428, 6752.107
331.7249, 6782.632
332.2070, 6811.438
332.6891, 6841.959
333.1713, 6867.761
333.6534, 6881.177
334.1355, 6868.656
334.6176, 6872.762
335.0997, 6905.036
335.5818, 6961.007
336.0640, 7008.342
336.5461, 7047.938
337.0282, 7077.117
337.5103, 7090.268
337.9924, 7079.628
338.4745, 7083.971
338.9567, 7113.534
339.4388, 7158.990
339.9209, 7187.992
340.4030, 7197.175
340.8851, 7201.008
341.3672, 7208.596
341.8494, 7220.435
342.3315, 7229.109
342.8136, 7232.497
343.2957, 7235.028
343.7778, 7247.693
344.2599, 7271.176
344.7421, 7295.007
345.2242, 7311.206
345.7063, 7321.586
346.1884, 7334.743
346.6705, 7349.748
347.1526, 7371.328
347.6348, 7410.901
348.1169, 7465.637
348.5990, 7517.935
349.0811, 7549.479
349.5632, 7571.803
350.0453, 7613.537
350.5275, 7676.750
351.0096, 7749.443
351.4917, 7825.065
351.9738, 7901.287
352.4559, 7972.938
352.9380, 8017.366
353.4202, 8065.140
353.9023, 8162.327
354.3844, 8309.442
354.8665, 8462.903
355.3486, 8571.142
355.8307, 8667.366
356.3129, 8803.719
356.7950, 9042.548
357.2771, 9291.129
357.7592, 9474.173
358.2413, 9598.993
358.7234, 9721.714
359.2056, 9860.637
359.6877, 10017.93
360.1698, 10196.45
360.6519, 10409.70
361.1340, 10628.44
361.6161, 10846.83
362.0982, 11063.02
362.5804, 11270.87
363.0625, 11471.19
363.5446, 11660.29
364.0267, 11837.41
364.5088, 12011.86
364.9909, 12158.38
365.4731, 12269.20
365.9552, 12349.89
366.4373, 12412.39
366.9194, 12466.37
367.4015, 12496.01
367.8836, 12494.61
368.3658, 12454.17
368.8479, 12401.02
369.3300, 12334.49
369.8121, 12256.15
370.2942, 12169.17
370.7763, 12067.76
371.2585, 11964.54
371.7406, 11867.51
372.2227, 11781.94
372.7048, 11661.01
373.1869, 11490.98
373.6690, 11300.72
374.1512, 11117.06
374.6333, 10941.70
375.1154, 10767.63
375.5975, 10596.32
376.0796, 10424.64
376.5617, 10229.61
377.0439, 10003.79
377.5260, 9777.675
378.0081, 9582.280
378.4902, 9418.615
378.9723, 9248.806
379.4544, 9060.537
379.9366, 8868.745
380.4187, 8709.630
380.9008, 8585.673
381.3829, 8465.415
381.8650, 8322.960
382.3471, 8164.534
382.8293, 8026.675
383.3114, 7912.959
383.7935, 7815.306
384.2756, 7725.488
384.7577, 7641.687
385.2398, 7556.638
385.7220, 7460.544
386.2041, 7360.817
386.6862, 7267.938
387.1683, 7181.210
387.6504, 7103.294
388.1325, 7041.041
388.6147, 6988.006
389.0968, 6934.694
389.5789, 6875.984
390.0610, 6815.874
390.5431, 6755.808
391.0252, 6696.495
391.5074, 6644.519
391.9895, 6609.107
392.4716, 6579.986
392.9537, 6547.479
393.4358, 6507.453
393.9179, 6465.628
394.4001, 6424.321
394.8822, 6382.932
395.3643, 6338.640
395.8464, 6276.110
396.3285, 6220.698
396.8106, 6188.620
397.2928, 6199.632
397.7749, 6198.949
398.2570, 6170.648
398.7391, 6127.500
399.2212, 6093.905
399.7033, 6082.958
400.1855, 6068.672
400.6676, 6041.129
401.1497, 5995.175
401.6318, 5963.862
402.1139, 5954.702
402.5960, 5954.055
403.0782, 5948.315
403.5603, 5939.244
404.0424, 5920.327
404.5245, 5885.674
405.0066, 5838.604
405.4887, 5803.640
405.9709, 5780.939
406.4530, 5769.820
406.9351, 5773.606
407.4172, 5793.458
407.8993, 5808.093
408.3814, 5814.689
408.8636, 5814.582
409.3457, 5807.568
409.8278, 5793.699
410.3099, 5784.153
410.7920, 5789.768
411.2741, 5805.469
411.7563, 5813.817
412.2384, 5812.784
412.7205, 5808.280
413.2026, 5805.175
413.6847, 5803.742
414.1668, 5804.888
414.6490, 5806.339
415.1311, 5811.846
415.6132, 5831.098
416.0953, 5863.764
416.5774, 5888.748
417.0595, 5889.641
417.5417, 5875.875
418.0238, 5857.738
418.5059, 5827.147
418.9880, 5806.013
419.4701, 5811.665
419.9522, 5838.204
420.4344, 5863.667
420.9165, 5886.564
421.3986, 5901.243
421.8807, 5901.343
422.3628, 5871.648
422.8449, 5858.824
423.3270, 5885.139
423.8091, 5931.337
424.2913, 5965.448
424.7734, 5985.405
425.2555, 5991.044
425.7376, 5974.215
426.2197, 5928.112
426.7018, 5909.620
427.1840, 5932.890
427.6661, 5970.604
428.1482, 5998.763
428.6303, 6016.675
429.1124, 6025.880
429.5945, 6021.578
430.0767, 6009.200
430.5588, 6016.990
431.0409, 6051.542
431.5230, 6083.777
432.0051, 6090.169
432.4872, 6070.985
432.9694, 6065.459
433.4515, 6079.607
433.9336, 6100.909
434.4157, 6103.802
434.8978, 6091.418
435.3799, 6092.166
435.8621, 6131.394
436.3442, 6191.183
436.8263, 6231.178
437.3084, 6250.858
437.7905, 6262.341
438.2726, 6262.541
438.7548, 6263.920
439.2369, 6289.800
439.7190, 6367.367
440.2011, 6450.075
440.6832, 6492.397
441.1653, 6504.474
441.6475, 6525.448
442.1296, 6586.452
442.6117, 6656.460
443.0938, 6711.474
443.5759, 6739.847
444.0580, 6773.097
444.5402, 6825.581
445.0223, 6888.112
445.5044, 6945.859
445.9865, 6995.861
446.4686, 7041.389
446.9507, 7079.913
447.4329, 7109.926
447.9150, 7149.062
448.3971, 7203.274
448.8792, 7261.885
449.3613, 7316.776
449.8434, 7360.325
450.3256, 7418.146
450.8077, 7502.596
451.2898, 7600.512
451.7719, 7661.158
452.2540, 7673.575
452.7361, 7681.077
453.2183, 7708.705
453.7004, 7756.581
454.1825, 7793.707
454.6646, 7817.441
455.1467, 7835.371
455.6288, 7858.749
456.1110, 7886.398
456.5931, 7908.054
457.0752, 7917.409
457.5573, 7919.539
458.0394, 7925.072
458.5215, 7933.590
459.0037, 7937.222
459.4858, 7928.817
459.9679, 7912.080
460.4500, 7892.836
460.9321, 7872.604
461.4142, 7848.945
461.8964, 7821.436
462.3785, 7789.010
462.8606, 7749.235
463.3427, 7695.382
463.8248, 7637.632
464.3069, 7580.731
464.7891, 7523.729
465.2712, 7471.513
465.7533, 7434.065
466.2354, 7397.559
466.7175, 7349.663
467.1996, 7280.814
467.6818, 7209.851
468.1639, 7134.944
468.6460, 7058.551
469.1281, 6988.870
469.6102, 6928.003
470.0923, 6870.854
470.5745, 6813.351
471.0566, 6753.031
471.5387, 6703.915
472.0208, 6669.864
472.5029, 6641.321
472.9850, 6601.943
473.4672, 6550.767
473.9493, 6504.142
474.4314, 6470.334
474.9135, 6444.494
475.3956, 6409.639
475.8777, 6365.500
476.3599, 6319.793
476.8420, 6276.447
477.3241, 6236.846
477.8062, 6204.748
478.2883, 6182.090
478.7704, 6165.012
479.2526, 6151.243
479.7347, 6140.107
480.2168, 6130.204
480.6989, 6119.055
481.1810, 6109.727
481.6631, 6105.536
482.1453, 6106.699
482.6274, 6106.042
483.1095, 6093.465
483.5916, 6080.937
484.0737, 6078.911
484.5558, 6103.941
485.0379, 6122.585
485.5201, 6126.989
486.0022, 6120.451
486.4843, 6115.348
486.9664, 6115.313
487.4485, 6112.721
487.9306, 6101.860
488.4128, 6077.523
488.8949, 6073.933
489.3770, 6099.999
489.8591, 6134.464
490.3412, 6151.808
490.8233, 6150.595
491.3055, 6144.020
491.7876, 6130.236
492.2697, 6116.269
492.7518, 6125.465
493.2339, 6157.649
493.7160, 6193.225
494.1982, 6217.816
494.6803, 6235.591
495.1624, 6255.100
495.6445, 6276.838
496.1266, 6303.066
496.6087, 6341.568
497.0909, 6385.968
497.5730, 6425.309
498.0551, 6438.375
498.5372, 6458.301
499.0193, 6512.005
499.5014, 6595.342
499.9836, 6679.162
500.4657, 6754.208
500.9478, 6824.025
501.4299, 6890.799
501.9120, 6950.059
502.3941, 7014.368
502.8763, 7086.062
503.3584, 7163.090
503.8405, 7242.037
504.3226, 7321.713
504.8047, 7404.856
505.2868, 7494.006
505.7690, 7588.064
506.2511, 7675.003
506.7332, 7752.259
507.2153, 7826.833
507.6974, 7908.880
508.1795, 7998.295
508.6617, 8067.618
509.1438, 8113.411
509.6259, 8139.254
510.1080, 8147.392
510.5901, 8139.165
511.0722, 8122.647
511.5544, 8099.503
512.0365, 8071.428
512.5186, 8044.492
513.0007, 8017.634
513.4828, 7979.071
513.9650, 7925.175
514.4471, 7852.644
514.9292, 7754.379
515.4113, 7615.250
515.8934, 7477.601
516.3755, 7364.383
516.8576, 7265.362
517.3397, 7159.579
517.8218, 7024.140
518.3040, 6898.184
518.7861, 6796.927
519.2682, 6722.701
519.7503, 6648.710
520.2324, 6570.733
520.7145, 6496.102
521.1967, 6429.016
521.6788, 6365.691
522.1609, 6321.475
522.6430, 6303.624
523.1251, 6299.095
523.6072, 6279.524
524.0894, 6242.888
524.5715, 6214.018
525.0536, 6204.520
525.5357, 6210.150
526.0178, 6218.273
526.4999, 6228.989
526.9821, 6236.587
527.4642, 6227.727
527.9463, 6214.019
528.4284, 6219.383
528.9105, 6253.406
529.3926, 6292.870
529.8748, 6314.423
530.3569, 6327.761
530.8390, 6351.103
531.3211, 6402.119
531.8032, 6455.722
532.2853, 6499.653
532.7675, 6533.970
533.2496, 6570.670
533.7317, 6601.206
534.2138, 6643.213
534.6959, 6710.046
535.1780, 6834.752
535.6602, 6925.133
536.1423, 6963.068
536.6244, 6979.657
537.1065, 7030.070
537.5886, 7124.148
538.0707, 7218.126
538.5529, 7298.868
539.0350, 7369.631
539.5171, 7450.369
539.9992, 7541.630
540.4813, 7635.283
540.9634, 7719.931
541.4456, 7802.053
541.9277, 7901.315
542.4098, 8022.184
542.8919, 8149.083
543.3740, 8262.732
543.8561, 8368.559
544.3383, 8475.903
544.8204, 8593.319
545.3025, 8709.316
545.7846, 8813.859
546.2667, 8908.978
546.7488, 9006.216
547.2310, 9108.107
547.7131, 9212.932
548.1952, 9321.717
548.6773, 9437.569
549.1594, 9548.085
549.6415, 9653.215
550.1237, 9752.785
550.6058, 9847.292
551.0879, 9937.117
551.5700, 10017.79
552.0521, 10084.81
552.5342, 10143.63
553.0164, 10217.23
553.4985, 10308.50
553.9806, 10389.39
554.4627, 10439.22
554.9448, 10465.26
555.4269, 10498.28
555.9091, 10540.44
556.3912, 10574.73
556.8733, 10583.69
557.3554, 10573.82
557.8375, 10555.76
558.3196, 10532.17
558.8018, 10501.66
559.2839, 10462.63
559.7660, 10415.85
560.2481, 10362.27
560.7302, 10292.15
561.2123, 10224.30
561.6945, 10171.43
562.1766, 10137.24
562.6587, 10084.58
563.1408, 10000.46
563.6229, 9907.125
564.1050, 9817.772
564.5872, 9736.370
565.0693, 9645.659
565.5514, 9536.733
566.0335, 9426.157
566.5156, 9349.678
566.9977, 9309.937
567.4799, 9265.384
567.9620, 9198.027
568.4441, 9118.742
568.9262, 9060.739
569.4083, 9021.922
569.8904, 8981.383
570.3726, 8911.311
570.8547, 8835.808
571.3368, 8788.218
571.8189, 8776.623
572.3010, 8771.082
572.7831, 8755.255
573.2653, 8734.007
573.7474, 8713.443
574.2295, 8689.205
574.7116, 8672.430
575.1937, 8666.544
575.6758, 8670.504
576.1580, 8680.572
576.6401, 8706.371
577.1222, 8726.198
577.6043, 8731.424
578.0864, 8720.884
578.5685, 8711.898
579.0507, 8702.672
579.5328, 8699.407
580.0149, 8707.852
580.4970, 8727.766
580.9791, 8756.699
581.4612, 8797.150
581.9434, 8838.501
582.4255, 8865.307
582.9076, 8879.287
583.3897, 8885.600
583.8718, 8878.477
584.3539, 8870.306
584.8361, 8870.805
585.3182, 8879.737
585.8003, 8895.501
586.2824, 8927.423
586.7645, 8958.337
587.2466, 8975.955
587.7288, 8973.030
588.2109, 8975.276
588.6930, 8996.618
589.1751, 9018.185
589.6572, 9021.306
590.1393, 8994.239
590.6215, 8973.889
591.1036, 8963.471
591.5857, 8962.931
592.0678, 8973.586
592.5499, 8996.201
593.0320, 9023.211
593.5142, 9055.224
593.9963, 9088.815
594.4784, 9109.004
594.9605, 9116.267
595.4426, 9124.861
595.9247, 9147.042
596.4069, 9177.128
596.8890, 9206.339
597.3711, 9231.158
597.8532, 9262.806
598.3353, 9316.604
598.8174, 9378.628
599.2996, 9430.762
599.7817, 9458.076
600.2638, 9485.456
600.7459, 9515.728
601.2280, 9549.968
601.7101, 9591.000
602.1923, 9634.469
602.6744, 9692.524
603.1565, 9778.966
603.6386, 9895.869
604.1207, 9964.316
604.6028, 9975.276
605.0850, 9976.444
605.5671, 10017.05
606.0492, 10087.23
606.5313, 10142.51
607.0134, 10176.60
607.4955, 10194.55
607.9777, 10202.99
608.4598, 10199.76
608.9419, 10180.68
609.4240, 10139.12
609.9061, 10085.57
610.3882, 10025.59
610.8704, 9958.341
611.3525, 9882.525
611.8346, 9789.794
612.3167, 9694.811
612.7988, 9605.842
613.2809, 9524.826
613.7631, 9433.325
614.2452, 9327.052
614.7273, 9215.831
615.2094, 9109.638
615.6915, 9010.104
616.1736, 8902.349
616.6558, 8779.965
617.1379, 8661.216
617.6200, 8581.687
618.1021, 8534.195
618.5842, 8482.867
619.0663, 8413.024
619.5485, 8333.512
620.0306, 8247.335
620.5127, 8157.877
620.9948, 8077.909
621.4769, 8021.347
621.9590, 7971.772
622.4412, 7923.138
622.9233, 7876.104
623.4054, 7815.661
623.8875, 7723.227
624.3696, 7627.131
624.8517, 7546.844
625.3339, 7488.983
625.8160, 7434.516
626.2981, 7384.109
626.7802, 7335.731
627.2623, 7288.593
627.7444, 7243.269
628.2266, 7188.010
628.7087, 7115.175
629.1908, 7034.650
629.6729, 6967.617
630.1550, 6912.359
630.6371, 6861.075
631.1193, 6813.741
631.6014, 6765.965
632.0835, 6712.410
632.5656, 6652.693
633.0477, 6594.651
633.5298, 6547.991
634.0120, 6499.367
634.4941, 6438.360
634.9762, 6349.873
635.4583, 6275.182
635.9404, 6222.482
636.4225, 6179.201
636.9047, 6128.542
637.3868, 6067.455
637.8689, 6011.083
638.3510, 5963.278
638.8331, 5921.252
639.3152, 5876.198
639.7973, 5829.258
640.2794, 5791.877
640.7615, 5783.306
641.2437, 5782.512
641.7258, 5753.557
642.2079, 5699.234
642.6900, 5641.545
643.1721, 5580.357
643.6542, 5530.567
644.1364, 5507.940
644.6185, 5524.253
645.1006, 5531.691
645.5827, 5514.810
646.0648, 5486.317
646.5469, 5457.713
647.0291, 5424.811
647.5112, 5398.882
647.9933, 5380.633
648.4754, 5369.322
648.9575, 5368.210
649.4396, 5378.286
649.9218, 5378.519
650.4039, 5359.458
650.8860, 5328.470
651.3681, 5297.163
651.8502, 5266.800
652.3323, 5244.395
652.8145, 5235.577
653.2966, 5235.982
653.7787, 5245.795
654.2608, 5265.155
654.7429, 5277.773
655.2250, 5276.082
655.7072, 5266.125
656.1893, 5250.684
656.6714, 5221.879
657.1535, 5205.207
657.6356, 5208.330
658.1177, 5216.396
658.5999, 5210.420
659.0820, 5187.492
659.5641, 5167.455
660.0462, 5154.692
660.5283, 5145.064
661.0104, 5128.354
661.4926, 5106.537
661.9747, 5089.823
662.4568, 5085.823
662.9389, 5087.654
663.4210, 5090.223
663.9031, 5092.784
664.3853, 5091.382
664.8674, 5080.135
665.3495, 5067.502
665.8316, 5056.141
666.3137, 5044.641
666.7958, 5044.067
667.2780, 5063.172
667.7601, 5084.438
668.2422, 5095.120
668.7243, 5091.648
669.2064, 5092.935
669.6885, 5102.604
670.1707, 5110.062
670.6528, 5097.901
671.1349, 5069.567
671.6170, 5045.481
672.0991, 5032.196
672.5812, 5023.807
673.0634, 5010.737
673.5455, 4997.258
674.0276, 4993.227
674.5097, 5021.507
674.9918, 5043.379
675.4739, 5032.219
675.9561, 4993.581
676.4382, 4968.378
676.9203, 4968.625
677.4024, 4976.359
677.8845, 4988.565
678.3666, 5006.189
678.8488, 5009.275
679.3309, 4992.789
679.8130, 4975.973
680.2951, 4974.817
680.7772, 4986.758
681.2593, 4999.994
681.7415, 5014.286
682.2236, 5023.737
682.7057, 5018.043
683.1878, 5004.876
683.6699, 4996.644
684.1520, 4999.973
684.6342, 5003.317
685.1163, 5001.254
685.5984, 4995.978
686.0805, 4991.125
686.5626, 4986.963
687.0447, 4984.168
687.5269, 4984.016
688.0090, 4985.316
688.4911, 4982.758
688.9732, 4974.930
689.4553, 4969.546
689.9374, 4974.026
690.4196, 4982.906
690.9017, 4969.516
691.3838, 4935.553
691.8659, 4910.729
692.3480, 4925.789
692.8301, 4956.092
693.3123, 4976.057
693.7944, 4983.140
694.2765, 4977.540
694.7586, 4938.600
695.2407, 4899.911
695.7228, 4889.011
696.2050, 4935.662
696.6871, 4961.812
697.1692, 4958.518
697.6513, 4943.653
698.1334, 4940.159
698.6155, 4950.219
699.0977, 4953.060
699.5798, 4942.547
700.0619, 4928.459
700.5440, 4932.321
701.0261, 4948.222
701.5082, 4953.982
701.9904, 4929.378
702.4725, 4900.251
702.9546, 4891.694
703.4367, 4897.284
703.9188, 4896.419
704.4009, 4864.797
704.8831, 4841.496
705.3652, 4849.902
705.8473, 4888.606
706.3294, 4907.812
706.8115, 4897.838
707.2936, 4886.361
707.7758, 4889.768
708.2579, 4907.792
708.7400, 4922.455
709.2221, 4934.503
709.7042, 4935.711
710.1863, 4907.804
710.6685, 4866.397
711.1506, 4840.118
711.6327, 4833.916
712.1148, 4838.715
712.5969, 4859.321
713.0790, 4882.919
713.5612, 4895.993
714.0433, 4884.258
714.5254, 4876.205
715.0075, 4875.105
715.4896, 4878.008
715.9717, 4879.303
716.4539, 4876.241
716.9360, 4884.429
717.4181, 4914.170
717.9002, 4948.796
718.3823, 4942.927
718.8644, 4904.040
719.3466, 4875.756
719.8287, 4892.764
720.3108, 4921.177
720.7929, 4920.656
721.2750, 4898.741
721.7571, 4886.251
722.2393, 4904.900
722.7214, 4928.646
723.2035, 4947.418
723.6856, 4960.573
724.1677, 4966.325
724.6498, 4960.271
725.1320, 4953.759
725.6141, 4955.684
726.0962, 4966.300
726.5783, 4959.005
727.0604, 4931.030
727.5425, 4907.252
728.0247, 4914.975
728.5068, 4941.732
728.9889, 4966.395
729.4710, 4986.362
729.9531, 4998.942
730.4352, 4995.352
730.9174, 4986.960
731.3995, 4985.438
731.8816, 5005.061
732.3637, 5013.671
732.8458, 5000.542
733.3279, 4981.126
733.8101, 4978.131
734.2922, 4995.645
734.7743, 5008.452
735.2564, 5010.569
735.7385, 5008.160
736.2206, 5011.449
736.7028, 5020.126
737.1849, 5032.838
737.6670, 5054.773
738.1491, 5074.906
738.6312, 5083.052
739.1133, 5081.449
739.5955, 5075.973
740.0776, 5058.734
740.5597, 5048.168
741.0418, 5054.581
741.5239, 5074.959
742.0060, 5090.257
742.4882, 5096.988
742.9703, 5106.591
743.4524, 5126.262
743.9345, 5153.420
744.4166, 5172.482
744.8987, 5183.326
745.3809, 5189.625
745.8630, 5193.673
746.3451, 5194.895
746.8272, 5189.611
747.3093, 5120.677
747.7914, 5165.792
748.2736, 5192.303
748.7557, 5201.207
749.2378, 5139.776
749.7199, 5169.169
750.2020, 5162.164
750.6841, 5153.666
751.1663, 5195.842
751.6484, 5144.641
752.1305, 5186.013
752.6126, 5190.432
753.0947, 5211.763
753.5768, 5196.471
754.0590, 5192.492
754.5411, 5225.146
755.0232, 5237.517
755.5053, 5218.009
755.9874, 5225.584
756.4695, 5223.326
756.9517, 5220.796
757.4338, 5225.886
757.9159, 5257.059
758.3980, 5270.936
758.8801, 5256.844
759.3622, 5228.618
759.8444, 5214.189
760.3265, 5215.160
760.8086, 5212.505
761.2907, 5195.876
761.7728, 5180.247
762.2549, 5199.529
762.7370, 5242.995
763.2191, 5275.761
763.7012, 5270.096
764.1833, 5258.583
764.6655, 5260.622
765.1476, 5273.138
765.6297, 5282.545
766.1118, 5288.175
766.5939, 5287.504
767.0760, 5275.487
767.5582, 5255.105
768.0403, 5250.528
768.5224, 5263.384
769.0045, 5278.915
769.4866, 5289.115
769.9688, 5295.784
770.4509, 5304.696
770.9330, 5315.211
771.4151, 5321.433
771.8972, 5313.298
772.3793, 5304.398
772.8615, 5307.864
773.3436, 5326.294
773.8257, 5334.196
774.3078, 5318.552
774.7899, 5301.748
775.2720, 5292.305
775.7542, 5289.555
776.2363, 5307.052
776.7184, 5348.618
777.2005, 5391.377
777.6826, 5417.084
778.1647, 5428.658
778.6469, 5428.713
779.1290, 5416.098
779.6111, 5412.425
780.0932, 5446.048
780.5753, 5487.581
781.0574, 5508.002
781.5396, 5490.098
782.0217, 5483.678
782.5038, 5500.515
782.9859, 5522.693
783.4680, 5531.878
783.9501, 5524.199
784.4323, 5536.961
784.9144, 5577.955
785.3965, 5621.174
785.8786, 5632.198
786.3607, 5621.259
786.8428, 5610.226
787.3250, 5600.131
787.8071, 5603.431
788.2892, 5642.980
788.7713, 5694.433
789.2534, 5728.813
789.7355, 5717.457
790.2177, 5719.479
790.6998, 5745.213
791.1819, 5779.064
791.6640, 5797.526
792.1461, 5798.861
792.6282, 5805.407
793.1104, 5822.693
793.5925, 5844.115
794.0746, 5860.867
794.5567, 5874.379
795.0388, 5889.098
795.5209, 5911.276
796.0031, 5928.777
796.4852, 5930.714
796.9673, 5924.796
797.4494, 5926.577
797.9315, 5940.851
798.4136, 5958.394
798.8958, 5979.598
799.3779, 6001.987
799.8600, 6015.846
800.3421, 6021.340
800.8242, 6037.673
801.3063, 6078.943
801.7885, 6124.154
802.2706, 6136.187
802.7527, 6127.613
803.2348, 6129.665
803.7169, 6165.013
804.1990, 6204.287
804.6812, 6241.315
805.1633, 6272.944
805.6454, 6288.782
806.1275, 6276.425
806.6096, 6275.243
807.0917, 6298.812
807.5739, 6338.839
808.0560, 6371.865
808.5381, 6398.017
809.0202, 6418.388
809.5023, 6427.480
809.9844, 6435.638
810.4666, 6455.729
810.9487, 6484.667
811.4308, 6511.937
811.9129, 6528.296
812.3950, 6547.976
812.8771, 6579.138
813.3593, 6618.584
813.8414, 6649.039
814.3235, 6667.573
814.8056, 6689.241
815.2877, 6725.779
815.7698, 6766.918
816.2520, 6777.631
816.7341, 6762.977
817.2162, 6750.823
817.6983, 6749.982
818.1804, 6764.224
818.6625, 6806.586
819.1447, 6871.125
819.6268, 6921.120
820.1089, 6948.988
820.5910, 6959.000
821.0731, 6943.594
821.5552, 6909.357
822.0374, 6901.394
822.5195, 6921.854
823.0016, 6945.719
823.4837, 6958.125
823.9658, 6965.841
824.4479, 6982.667
824.9301, 7006.942
825.4122, 7029.045
825.8943, 7049.026
826.3764, 7061.136
826.8585, 7060.705
827.3406, 7047.743
827.8228, 7032.427
828.3049, 7012.533
828.7870, 6994.949
829.2691, 6982.170
829.7512, 6974.309
830.2333, 6975.900
830.7155, 6986.213
831.1976, 6992.096
831.6797, 6984.686
832.1618, 6969.477
832.6439, 6945.314
833.1260, 6915.685
833.6082, 6901.092
834.0903, 6925.589
834.5724, 6948.968
835.0545, 6957.052
835.5366, 6950.685
836.0187, 6937.682
836.5009, 6917.157
836.9830, 6892.850
837.4651, 6863.481
837.9472, 6832.783
838.4293, 6809.808
838.9114, 6793.800
839.3936, 6779.741
839.8757, 6761.799
840.3578, 6747.561
840.8399, 6745.083
841.3220, 6752.755
841.8041, 6752.235
842.2863, 6738.350
842.7684, 6723.241
843.2505, 6712.106
843.7326, 6702.900
844.2147, 6683.412
844.6968, 6654.256
845.1790, 6627.474
845.6611, 6615.294
846.1432, 6605.299
846.6253, 6579.337
847.1074, 6541.871
847.5895, 6511.916
848.0717, 6509.344
848.5538, 6502.290
849.0359, 6474.721
849.5180, 6433.108
850.0001, 6408.759
850.4822, 6405.434
850.9644, 6401.825
851.4465, 6388.969
851.9286, 6370.664
852.4107, 6356.791
852.8928, 6345.659
853.3749, 6331.194
853.8571, 6304.703
854.3392, 6279.293
854.8213, 6255.265
855.3034, 6237.277
855.7855, 6247.446
856.2676, 6313.463
856.7498, 6354.183
857.2319, 6341.751
857.7140, 6295.700
858.1961, 6268.184
858.6782, 6258.261
859.1603, 6258.601
859.6425, 6273.622
860.1246, 6288.518
860.6067, 6286.439
861.0888, 6272.587
861.5709, 6259.207
862.0530, 6240.947
862.5352, 6235.484
863.0173, 6253.896
863.4994, 6283.071
863.9815, 6293.550
864.4636, 6283.107
864.9457, 6275.338
865.4279, 6277.452
865.9100, 6283.524
866.3921, 6284.142
866.8742, 6281.731
867.3563, 6281.368
867.8384, 6282.290
868.3206, 6289.303
868.8027, 6312.849
869.2848, 6340.952
869.7669, 6352.100
870.2490, 6334.860
870.7311, 6330.790
871.2133, 6345.356
871.6954, 6374.182
872.1775, 6415.327
872.6596, 6465.248
873.1417, 6511.060
873.6238, 6548.356
874.1060, 6585.188
874.5881, 6629.726
875.0702, 6675.773
875.5523, 6715.750
876.0344, 6748.783
876.5165, 6773.543
876.9987, 6783.223
877.4808, 6793.438
877.9629, 6821.197
878.4450, 6865.822
878.9271, 6926.203
879.4092, 7005.271
879.8914, 7078.617
880.3735, 7114.830
880.8556, 7136.352
881.3377, 7170.014
881.8198, 7224.771
882.3019, 7277.824
882.7841, 7322.001
883.2662, 7365.979
883.7483, 7412.947
884.2304, 7461.274
884.7125, 7533.345
885.1946, 7633.521
885.6768, 7724.917
886.1588, 7761.362
886.6409, 7773.596
887.1230, 7809.170
887.6052, 7872.458
888.0873, 7934.994
888.5694, 7984.620
889.0515, 8029.967
889.5336, 8078.449
890.0157, 8130.204
890.4979, 8164.849
890.9800, 8176.044
891.4621, 8196.729
891.9442, 8261.251
892.4263, 8345.291
892.9084, 8388.196
893.3906, 8394.990
893.8727, 8401.454
894.3548, 8430.543
894.8369, 8461.073
895.3190, 8483.585
895.8011, 8497.494
896.2833, 8501.447
896.7654, 8489.145
897.2475, 8485.497
897.7296, 8505.958
898.2117, 8535.073
898.6938, 8525.979
899.1760, 8487.326
899.6581, 8455.465
900.1402, 8447.599
900.6223, 8452.135
901.1044, 8472.367
901.5865, 8498.758
902.0687, 8507.005
902.5508, 8479.480
903.0329, 8463.750
903.5150, 8467.965
903.9971, 8484.421
904.4792, 8503.490
904.9614, 8523.558
905.4435, 8534.082
905.9256, 8528.282
906.4077, 8523.563
906.8898, 8537.035
907.3719, 8559.398
907.8541, 8578.631
908.3362, 8581.760
908.8183, 8600.592
909.3004, 8644.449
909.7825, 8692.956
910.2646, 8723.986
910.7468, 8738.955
911.2289, 8755.692
911.7110, 8775.297
912.1931, 8801.342
912.6752, 8841.770
913.1573, 8887.564
913.6395, 8924.771
914.1216, 8946.296
914.6037, 8994.685
915.0858, 9104.385
915.5679, 9206.883
916.0500, 9259.472
916.5322, 9265.677
917.0143, 9303.866
917.4964, 9374.226
917.9785, 9454.890
918.4606, 9539.942
918.9427, 9621.493
919.4249, 9685.486
919.9070, 9735.048
920.3891, 9795.062
920.8712, 9887.112
921.3533, 9973.268
921.8354, 10041.10
922.3176, 10094.66
922.7997, 10147.86
923.2818, 10200.60
923.7639, 10269.18
924.2460, 10380.13
924.7281, 10482.07
925.2103, 10494.02
925.6924, 10454.85
926.1745, 10441.96
926.6566, 10523.25
927.1387, 10577.61
927.6208, 10570.16
928.1030, 10538.97
928.5851, 10544.17
929.0672, 10588.83
929.5493, 10598.74
930.0314, 10559.86
930.5135, 10499.39
930.9957, 10439.62
931.4778, 10381.92
931.9599, 10331.31
932.4420, 10292.57
932.9241, 10245.75
933.4063, 10182.24
933.8884, 10112.06
934.3705, 10040.76
934.8526, 9969.052
935.3347, 9889.686
935.8168, 9803.049
936.2990, 9707.007
936.7811, 9583.160
937.2632, 9460.084
937.7453, 9388.099
938.2274, 9362.901
938.7095, 9310.384
939.1917, 9180.064
939.6738, 9048.576
940.1559, 8941.039
940.6380, 8853.734
941.1201, 8770.322
941.6022, 8691.208
942.0844, 8606.884
942.5665, 8507.577
943.0486, 8409.766
943.5307, 8337.685
944.0128, 8282.963
944.4949, 8227.985
944.9771, 8160.556
945.4592, 8101.951
945.9413, 8056.406
946.4234, 8020.067
946.9055, 7986.079
947.3876, 7954.600
947.8698, 7931.763
948.3519, 7918.313
948.8340, 7914.800
949.3161, 7922.243
949.7982, 7939.908
950.2803, 7967.647
950.7625, 8006.744
951.2446, 8050.982
951.7267, 8100.075
952.2088, 8152.633
952.6909, 8209.362
953.1730, 8269.831
953.6552, 8321.130
954.1373, 8363.297
954.6194, 8417.230
955.1015, 8498.762
955.5836, 8596.746
956.0657, 8709.623
956.5479, 8833.118
957.0300, 8942.637
957.5121, 9023.208
957.9942, 9105.200
958.4763, 9190.805
958.9584, 9285.511
959.4406, 9402.201
959.9227, 9540.195
960.4048, 9699.479
960.8869, 9893.848
961.3690, 10079.68
961.8511, 10207.29
962.3333, 10312.06
962.8154, 10446.88
963.2975, 10659.54
963.7796, 10827.64
964.2617, 10933.53
964.7438, 11027.87
965.2260, 11162.60
965.7081, 11329.95
966.1902, 11502.15
966.6723, 11675.52
967.1544, 11843.03
967.6365, 11987.29
968.1187, 12132.53
968.6008, 12290.70
969.0829, 12464.91
969.5650, 12657.28
970.0471, 12879.29
970.5292, 13088.37
971.0114, 13261.38
971.4935, 13412.86
971.9756, 13583.03
972.4577, 13765.56
972.9398, 13944.64
973.4219, 14108.26
973.9041, 14273.80
974.3862, 14442.21
974.8683, 14621.25
975.3504, 14830.38
975.8325, 15085.37
976.3146, 15304.50
976.7968, 15471.14
977.2789, 15623.21
977.7610, 15826.97
978.2431, 16043.41
978.7252, 16198.89
979.2073, 16266.21
979.6895, 16346.56
980.1716, 16500.41
980.6537, 16652.63
981.1358, 16761.63
981.6179, 16827.46
982.1000, 16890.63
982.5822, 16953.19
983.0643, 16976.21
983.5464, 16903.79
984.0285, 16801.65
984.5106, 16753.92
984.9927, 16741.78
985.4749, 16692.78
985.9570, 16566.24
986.4391, 16426.49
986.9212, 16284.36
987.4033, 16134.64
987.8854, 15959.74
988.3676, 15762.96
988.8497, 15569.93
989.3318, 15389.41
989.8139, 15203.72
990.2960, 15002.02
990.7781, 14783.58
991.2603, 14548.73
991.7424, 14281.93
992.2245, 14043.61
992.7066, 13846.70
993.1887, 13647.40
993.6708, 13397.68
994.1530, 13121.87
994.6351, 12905.16
995.1172, 12739.66
995.5993, 12569.91
996.0814, 12364.37
996.5635, 12150.04
997.0457, 11925.76
997.5278, 11703.12
998.0099, 11525.47
998.4920, 11398.52
998.9741, 11276.87
999.4562, 11146.91
999.9384, 11024.89
1000.420, 10935.37
1000.903, 10870.57
1001.385, 10817.19
1001.867, 10778.35
1002.349, 10734.84
1002.831, 10675.88
1003.313, 10616.82
1003.795, 10564.42
1004.277, 10517.96
1004.760, 10500.90
1005.242, 10513.30
1005.724, 10546.03
1006.206, 10614.70
1006.688, 10683.40
1007.170, 10711.34
1007.652, 10707.06
1008.134, 10728.37
1008.616, 10784.40
1009.099, 10860.09
1009.581, 10959.88
1010.063, 11068.58
1010.545, 11152.50
1011.027, 11221.96
1011.509, 11311.50
1011.991, 11437.52
1012.473, 11562.54
1012.955, 11658.67
1013.438, 11749.86
1013.920, 11856.88
1014.402, 11976.90
1014.884, 12133.67
1015.366, 12334.22
1015.848, 12538.10
1016.330, 12705.64
1016.812, 12865.18
1017.294, 13057.05
1017.777, 13279.31
1018.259, 13513.66
1018.741, 13744.19
1019.223, 14005.89
1019.705, 14322.85
1020.187, 14662.45
1020.669, 14944.17
1021.151, 15174.04
1021.634, 15446.01
1022.116, 15790.56
1022.598, 16142.98
1023.080, 16433.20
1023.562, 16710.26
1024.044, 17027.28
1024.526, 17407.94
1025.008, 17778.05
1025.490, 18148.99
1025.973, 18487.17
1026.455, 18762.05
1026.937, 18991.05
1027.419, 19213.71
1027.901, 19432.30
1028.383, 19645.58
1028.865, 19884.27
1029.347, 20087.54
1029.830, 20221.49
1030.312, 20314.07
1030.794, 20419.36
1031.276, 20541.85
1031.758, 20598.24
1032.240, 20569.06
1032.722, 20501.40
1033.204, 20433.05
1033.687, 20357.09
1034.169, 20276.83
1034.651, 20202.08
1035.133, 20036.49
1035.615, 19734.62
1036.097, 19419.27
1036.579, 19147.22
1037.061, 18898.04
1037.543, 18613.74
1038.026, 18295.74
1038.508, 17962.11
1038.990, 17609.60
1039.472, 17252.90
1039.954, 16886.27
1040.436, 16520.03
1040.918, 16164.16
1041.400, 15823.94
1041.882, 15473.45
1042.365, 15105.53
1042.847, 14744.45
1043.329, 14412.17
1043.811, 14099.53
1044.293, 13792.61
1044.775, 13488.13
1045.257, 13217.47
1045.739, 13016.77
1046.222, 12795.38
1046.704, 12508.06
1047.186, 12197.08
1047.668, 11968.93
1048.150, 11810.55
1048.632, 11683.51
1049.114, 11595.96
1049.596, 11491.74
1050.078, 11326.79
1050.561, 11137.37
1051.043, 10958.03
1051.525, 10785.04
1052.007, 10644.98
1052.489, 10540.42
1052.971, 10446.42
1053.453, 10345.95
1053.935, 10243.03
1054.417, 10131.90
1054.900, 10020.66
1055.382, 9946.493
1055.864, 9955.941
1056.346, 9947.966
1056.828, 9895.373
1057.310, 9830.733
1057.792, 9815.692
1058.274, 9837.387
1058.757, 9850.441
1059.239, 9845.966
1059.721, 9834.257
1060.203, 9805.449
1060.685, 9785.820
1061.167, 9799.665
1061.649, 9847.226
1062.131, 9869.676
1062.614, 9865.522
1063.096, 9866.706
1063.578, 9895.882
1064.060, 9932.256
1064.542, 9944.925
1065.024, 9947.545
1065.506, 9967.140
1065.988, 10046.76
1066.470, 10082.06
1066.953, 10055.12
1067.435, 10011.29
1067.917, 10003.39
1068.399, 10017.41
1068.881, 10005.96
1069.363, 9967.986
1069.845, 9943.799
1070.327, 9969.463
1070.809, 9998.144
1071.292, 10014.45
1071.774, 10016.14
1072.256, 9990.664
1072.738, 9938.018
1073.220, 9891.852
1073.702, 9863.776
1074.184, 9837.370
1074.666, 9791.139
1075.148, 9741.499
1075.631, 9709.215
1076.113, 9703.528
1076.595, 9691.449
1077.077, 9672.017
1077.559, 9650.889
1078.041, 9635.029
1078.523, 9618.534
1079.005, 9576.472
1079.488, 9521.731
1079.970, 9494.485
1080.452, 9546.556
1080.934, 9579.286
1081.416, 9568.674
1081.898, 9537.849
1082.380, 9510.472
1082.862, 9487.447
1083.344, 9481.623
1083.827, 9494.115
1084.309, 9504.718
1084.791, 9497.986
1085.273, 9485.195
1085.755, 9472.517
1086.237, 9460.302
1086.719, 9446.909
1087.201, 9430.956
1087.683, 9427.729
1088.166, 9448.393
1088.648, 9467.077
1089.130, 9434.830
1089.612, 9387.758
1090.094, 9379.899
1090.576, 9442.408
1091.058, 9479.033
1091.540, 9476.934
1092.023, 9464.761
1092.505, 9455.329
1092.987, 9450.226
1093.469, 9457.525
1093.951, 9473.974
1094.433, 9488.394
1094.915, 9498.159
1095.397, 9501.353
1095.880, 9494.435
1096.362, 9483.107
1096.844, 9474.240
1097.326, 9467.687
1097.808, 9457.914
1098.290, 9444.529
1098.772, 9428.228
1099.254, 9395.520
1099.736, 9372.512
1100.219, 9392.717
1100.701, 9443.753
1101.183, 9447.880
1101.665, 9394.641
1102.147, 9349.916
1102.629, 9330.730
1103.111, 9325.164
1103.593, 9324.257
1104.075, 9325.251
1104.558, 9326.546
1105.040, 9330.790
1105.522, 9317.337
1106.004, 9273.111
1106.486, 9236.922
1106.968, 9232.547
1107.450, 9245.967
1107.932, 9240.471
1108.415, 9221.340
1108.897, 9203.891
1109.379, 9206.046
1109.861, 9193.745
1110.343, 9145.653
1110.825, 9092.813
1111.307, 9063.725
1111.789, 9056.996
1112.271, 9052.334
1112.754, 9048.330
1113.236, 9034.365
1113.718, 8985.981
1114.200, 8942.559
1114.682, 8936.576
1115.164, 8951.818
1115.646, 8946.959
1116.128, 8919.466
1116.610, 8890.010
1117.093, 8860.740
1117.575, 8833.973
1118.057, 8815.179
1118.539, 8797.606
1119.021, 8774.708
1119.503, 8745.770
1119.985, 8711.218
1120.467, 8665.808
1120.950, 8633.063
1121.432, 8626.305
1121.914, 8627.291
1122.396, 8596.550
1122.878, 8553.028
1123.360, 8534.163
1123.842, 8561.777
1124.324, 8580.712
1124.807, 8586.459
1125.289, 8576.465
1125.771, 8539.782
1126.253, 8487.100
1126.735, 8464.743
1127.217, 8466.422
1127.699, 8466.016
1128.181, 8441.799
1128.663, 8424.271
1129.146, 8431.042
1129.628, 8443.160
1130.110, 8443.998
1130.592, 8433.335
1131.074, 8397.327
1131.556, 8336.434
1132.038, 8286.816
1132.520, 8275.934
1133.002, 8283.131
1133.485, 8313.657
1133.967, 8349.708
1134.449, 8334.122
1134.931, 8258.300
1135.413, 8214.952
1135.895, 8225.391
1136.377, 8245.385
1136.859, 8226.770
1137.342, 8197.834
1137.824, 8191.208
1138.306, 8210.955
1138.788, 8208.574
1139.270, 8174.161
1139.752, 8152.236
1140.234, 8162.366
1140.716, 8184.296
1141.198, 8193.486
1141.681, 8190.736
1142.163, 8174.963
1142.645, 8137.934
1143.127, 8113.517
1143.609, 8106.910
1144.091, 8106.771
1144.573, 8110.990
1145.055, 8114.925
1145.537, 8105.862
1146.020, 8085.934
1146.502, 8061.401
1146.984, 8013.463
1147.466, 7993.166
1147.948, 8019.760
1148.430, 8059.040
1148.912, 8079.061
1149.394, 8084.012
1149.877, 8103.803
1150.359, 8135.096
1150.841, 8149.418
1151.323, 8110.720
1151.805, 8074.741
1152.287, 8064.419
1152.769, 8068.152
1153.251, 8069.533
1153.734, 8068.845
1154.216, 8073.420
1154.698, 8084.556
1155.180, 8087.529
1155.662, 8068.418
1156.144, 8041.104
1156.626, 8004.789
1157.108, 7968.296
1157.590, 7969.924
1158.073, 8011.658
1158.555, 8024.875
1159.037, 7988.086
1159.519, 7942.050
1160.001, 7922.933
1160.483, 7913.956
1160.965, 7896.783
1161.447, 7870.456
1161.929, 7862.282
1162.412, 7876.100
1162.894, 7876.311
1163.376, 7839.761
1163.858, 7800.990
1164.340, 7812.652
1164.822, 7842.750
1165.304, 7845.003
1165.786, 7800.254
1166.269, 7773.497
1166.751, 7765.395
1167.233, 7773.735
1167.715, 7807.727
1168.197, 7848.636
1168.679, 7876.575
1169.161, 7886.919
1169.643, 7869.854
1170.125, 7780.044
1170.608, 7735.307
1171.090, 7747.019
1171.572, 7776.244
1172.054, 7792.867
1172.536, 7801.611
1173.018, 7813.106
1173.500, 7825.314
1173.982, 7829.289
1174.464, 7801.170
1174.947, 7798.089
1175.429, 7835.879
1175.911, 7883.282
1176.393, 7906.657
1176.875, 7909.833
1177.357, 7893.535
1177.839, 7860.729
1178.321, 7839.598
1178.804, 7853.055
1179.286, 7864.547
1179.768, 7864.154
1180.250, 7858.901
1180.732, 7856.683
1181.214, 7859.847
1181.696, 7879.731
1182.178, 7919.488
1182.661, 7951.462
1183.143, 7959.266
1183.625, 7960.013
1184.107, 7957.839
1184.589, 7954.686
1185.071, 7960.706
1185.553, 7971.067
1186.035, 7962.744
1186.517, 7922.379
1187.000, 7894.996
1187.482, 7905.106
1187.964, 7932.957
1188.446, 7977.473
1188.928, 8028.915
1189.410, 8029.125
1189.892, 7988.647
1190.374, 7964.217
1190.856, 7986.059
1191.339, 8005.662
1191.821, 7991.671
1192.303, 7972.827
1192.785, 7972.060
1193.267, 7987.310
1193.749, 7987.367
1194.231, 7975.187
1194.713, 7973.482
1195.195, 8002.447
1195.678, 8033.076
1196.160, 8056.060
1196.642, 8069.479
1197.124, 8067.762
1197.606, 8050.473
1198.088, 8049.759
1198.570, 8064.749
1199.052, 8079.014
1199.535, 8078.368
1200.017, 8078.883
1200.499, 8092.756
1200.981, 8111.328
1201.463, 8121.682
1201.945, 8123.696
1202.427, 8130.866
1202.909, 8143.730
1203.391, 8151.649
1203.874, 8139.907
1204.356, 8128.151
1204.838, 8126.321
1205.320, 8133.891
1205.802, 8154.880
1206.284, 8189.382
1206.766, 8201.451
1207.248, 8186.092
1207.730, 8171.151
1208.213, 8177.640
1208.695, 8191.890
1209.177, 8210.407
1209.659, 8228.315
1210.141, 8232.180
1210.623, 8221.920
1211.105, 8212.500
1211.587, 8206.061
1212.070, 8205.142
1212.552, 8225.099
1213.034, 8239.427
1213.516, 8218.017
1213.998, 8174.684
1214.480, 8164.054
1214.962, 8185.644
1215.444, 8208.355
1215.927, 8226.076
1216.409, 8236.310
1216.891, 8233.727
1217.373, 8225.381
1217.855, 8213.645
1218.337, 8200.615
1218.819, 8199.595
1219.301, 8210.370
1219.783, 8227.375
1220.266, 8256.126
1220.748, 8268.181
1221.230, 8219.697
1221.712, 8163.147
1222.194, 8145.505
1222.676, 8163.266
1223.158, 8164.368
1223.640, 8149.990
1224.122, 8142.819
1224.605, 8155.583
1225.087, 8169.010
1225.569, 8173.252
1226.051, 8168.583
1226.533, 8152.428
1227.015, 8125.782
1227.497, 8119.986
1227.979, 8133.158
1228.462, 8141.673
1228.944, 8126.945
1229.426, 8117.417
1229.908, 8144.276
1230.390, 8173.462
1230.872, 8167.398
1231.354, 8126.671
1231.836, 8119.637
1232.318, 8142.339
1232.801, 8154.513
1233.283, 8114.455
1233.765, 8083.660
1234.247, 8104.830
1234.729, 8141.582
1235.211, 8158.693
1235.693, 8156.890
1236.175, 8160.181
1236.657, 8167.863
1237.140, 8173.347
1237.622, 8175.899
1238.104, 8171.835
1238.586, 8159.468
1239.068, 8139.945
1239.550, 8106.612
1240.032, 8063.755
1240.514, 8057.251
1240.997, 8084.062
1241.479, 8109.023
1241.961, 8113.152
1242.443, 8111.532
1242.925, 8102.756
1243.407, 8097.429
1243.889, 8111.897
1244.371, 8141.171
1244.854, 8159.782
1245.336, 8167.351
1245.818, 8172.298
1246.300, 8177.528
1246.782, 8181.799
1247.264, 8187.338
1247.746, 8188.375
1248.228, 8173.432
1248.710, 8148.521
1249.193, 8134.711
1249.675, 8131.805
1250.157, 8126.409
1250.639, 8105.744
1251.121, 8093.425
1251.603, 8095.257
1252.085, 8105.441
1252.567, 8120.001
1253.049, 8135.580
1253.532, 8144.923
1254.014, 8147.531
1254.496, 8146.187
1254.978, 8129.420
1255.460, 8130.901
1255.942, 8162.159
1256.424, 8198.285
1256.906, 8195.653
1257.389, 8179.720
1257.871, 8206.688
1258.353, 8274.650
1258.835, 8291.432
1259.317, 8216.646
1259.799, 8161.850
1260.281, 8148.118
1260.763, 8160.962
1261.245, 8198.037
1261.728, 8241.361
1262.210, 8272.522
1262.692, 8288.383
1263.174, 8276.833
1263.656, 8227.836
1264.138, 8197.643
1264.620, 8200.794
1265.102, 8213.952
1265.584, 8203.918
1266.067, 8195.818
1266.549, 8222.419
1267.031, 8280.355
1267.513, 8321.416
1267.995, 8344.671
1268.477, 8353.099
1268.959, 8344.563
1269.441, 8335.632
1269.924, 8336.653
1270.406, 8347.778
1270.888, 8382.354
1271.370, 8427.614
1271.852, 8421.201
1272.334, 8364.847
1272.816, 8338.285
1273.298, 8362.120
1273.781, 8395.893
1274.263, 8420.835
1274.745, 8433.675
1275.227, 8427.292
1275.709, 8410.790
1276.191, 8415.330
1276.673, 8436.931
1277.155, 8452.886
1277.637, 8459.346
1278.120, 8452.880
1278.602, 8408.650
1279.084, 8379.404
1279.566, 8392.185
1280.048, 8429.519
1280.530, 8450.744
1281.012, 8459.070
1281.494, 8461.150
1281.976, 8456.465
1282.459, 8461.035
1282.941, 8487.498
1283.423, 8511.289
1283.905, 8524.573
1284.387, 8530.715
1284.869, 8532.893
1285.351, 8533.926
1285.833, 8540.367
1286.316, 8554.482
1286.798, 8562.187
1287.280, 8558.635
1287.762, 8560.547
1288.244, 8576.214
1288.726, 8592.860
##END=



