##NAMES=Graemite
##RRUFFID=R100207
##IDEAL CHEMISTRY=Cu^2+^Te^4+^O_3_&#183;H_2_O
##LOCALITY=Cole shaft, Bisbee, Cochise County, Arizona, USA
##OWNER=RRUFF
##SOURCE=Rob Lavinsky/Evan Jones 
##DESCRIPTION=Green platy, bladed crystals intimately associated with blue teineite, R100206, on cuprite
##STATUS=The identification of this mineral has been confirmed by single-crystal X-ray diffraction.
##URL=rruff.info/R100207
203.4207, 39.13633
203.9028, 38.90405
204.3849, 38.84615
204.8670, 38.75689
205.3492, 38.26841
205.8313, 37.02802
206.3134, 35.73805
206.7955, 35.44270
207.2776, 36.39520
207.7597, 37.16261
208.2419, 36.75933
208.7240, 35.95798
209.2061, 35.47411
209.6882, 35.54955
210.1703, 36.00824
210.6524, 36.63050
211.1346, 37.55791
211.6167, 38.26087
212.0988, 38.60103
212.5809, 38.65338
213.0630, 38.43654
213.5451, 37.93725
214.0273, 37.25872
214.5094, 36.58300
214.9915, 35.69703
215.4736, 35.24715
215.9557, 35.59374
216.4378, 36.24821
216.9200, 36.71984
217.4021, 36.78482
217.8842, 36.60303
218.3663, 36.63236
218.8484, 37.14660
219.3305, 37.47564
219.8127, 37.42431
220.2948, 37.21326
220.7769, 37.11550
221.2590, 37.25570
221.7411, 37.48894
222.2232, 37.37793
222.7054, 36.29981
223.1875, 35.62351
223.6696, 35.69223
224.1517, 36.10689
224.6338, 36.44709
225.1159, 36.52803
225.5980, 36.38180
226.0802, 36.09366
226.5623, 35.31280
227.0444, 34.81208
227.5265, 34.81627
228.0086, 35.08472
228.4907, 35.40123
228.9729, 35.69391
229.4550, 35.82328
229.9371, 35.34537
230.4192, 33.30974
230.9013, 32.16518
231.3834, 33.01550
231.8656, 34.82692
232.3477, 36.10652
232.8298, 36.28275
233.3119, 35.69137
233.7940, 34.89891
234.2761, 33.63521
234.7583, 32.83629
235.2404, 33.09085
235.7225, 33.91093
236.2046, 34.40004
236.6867, 34.19807
237.1688, 33.73268
237.6510, 33.79638
238.1331, 34.44370
238.6152, 35.06893
239.0973, 35.60522
239.5794, 35.97022
240.0615, 35.86391
240.5437, 35.00341
241.0258, 34.07618
241.5079, 34.21964
241.9900, 35.43452
242.4721, 36.25270
242.9542, 35.58867
243.4364, 34.05545
243.9185, 33.27610
244.4006, 33.74577
244.8827, 34.71783
245.3648, 35.67389
245.8469, 36.58081
246.3290, 36.95387
246.8112, 36.13298
247.2933, 34.55694
247.7754, 33.63890
248.2575, 33.90694
248.7396, 34.26466
249.2217, 33.48394
249.7039, 31.96685
250.1860, 31.14208
250.6681, 32.55698
251.1502, 35.41375
251.6323, 36.60957
252.1144, 35.17028
252.5966, 33.38198
253.0787, 32.55475
253.5608, 32.44090
254.0429, 32.49195
254.5250, 32.42936
255.0071, 32.29372
255.4893, 32.25790
255.9714, 32.41190
256.4535, 32.51990
256.9356, 32.59176
257.4177, 32.54459
257.8998, 32.18935
258.3820, 31.25698
258.8641, 30.01957
259.3462, 29.55267
259.8283, 30.61541
260.3104, 31.18194
260.7925, 30.03812
261.2747, 28.23942
261.7568, 27.21269
262.2389, 27.73871
262.7210, 29.32624
263.2031, 30.61137
263.6852, 31.68527
264.1674, 32.22921
264.6495, 31.82199
265.1316, 31.08370
265.6137, 30.75254
266.0958, 31.17256
266.5779, 31.91964
267.0601, 31.89373
267.5422, 30.32865
268.0243, 29.38549
268.5064, 29.61765
268.9885, 30.37033
269.4706, 31.19164
269.9528, 31.90354
270.4349, 32.39608
270.9170, 32.41309
271.3991, 31.65316
271.8812, 30.99265
272.3633, 30.33191
272.8455, 29.87388
273.3276, 29.89237
273.8097, 30.40390
274.2918, 31.06483
274.7739, 31.28624
275.2560, 30.57480
275.7382, 30.50518
276.2202, 31.78500
276.7024, 33.04419
277.1845, 33.44934
277.6666, 32.87918
278.1487, 31.68361
278.6308, 30.13147
279.1129, 27.77427
279.5951, 26.70566
280.0772, 27.73316
280.5593, 29.09844
281.0414, 30.03835
281.5235, 30.45245
282.0056, 30.52304
282.4878, 30.38093
282.9699, 29.96528
283.4520, 29.78374
283.9341, 30.10192
284.4162, 30.36200
284.8983, 30.26880
285.3805, 29.91373
285.8626, 29.55252
286.3447, 29.35444
286.8268, 29.32300
287.3089, 29.68641
287.7910, 31.12774
288.2732, 32.20309
288.7553, 32.22098
289.2374, 31.58025
289.7195, 31.07566
290.2016, 31.20182
290.6837, 31.81848
291.1659, 32.14680
291.6480, 32.08932
292.1301, 31.85796
292.6122, 31.07864
293.0943, 30.24577
293.5764, 30.22276
294.0586, 31.43821
294.5407, 33.26695
295.0228, 34.01653
295.5049, 32.48412
295.9870, 31.28963
296.4691, 30.66827
296.9513, 30.36610
297.4334, 30.14782
297.9155, 29.93318
298.3976, 29.71109
298.8797, 29.40785
299.3618, 28.40755
299.8440, 28.65342
300.3261, 31.82801
300.8082, 35.17105
301.2903, 36.20461
301.7724, 34.57427
302.2545, 31.94320
302.7367, 30.13016
303.2188, 29.17989
303.7009, 29.25953
304.1830, 31.79982
304.6651, 34.11914
305.1472, 33.94810
305.6294, 31.62368
306.1115, 29.62441
306.5936, 30.25614
307.0757, 33.73977
307.5578, 35.50457
308.0399, 34.71550
308.5221, 33.38692
309.0042, 31.95842
309.4863, 30.66448
309.9684, 29.98912
310.4505, 30.32824
310.9326, 31.48396
311.4148, 32.05425
311.8969, 31.10819
312.3790, 30.74092
312.8611, 31.98187
313.3432, 34.03347
313.8253, 35.68113
314.3075, 36.38176
314.7896, 36.27639
315.2717, 35.67524
315.7538, 33.95635
316.2359, 32.63829
316.7180, 31.84577
317.2001, 31.50888
317.6823, 31.61773
318.1644, 32.15988
318.6465, 33.00978
319.1286, 34.08346
319.6107, 35.94117
320.0928, 36.45838
320.5750, 34.03172
321.0571, 31.40746
321.5392, 30.96756
322.0213, 32.81644
322.5034, 35.14713
322.9855, 36.13248
323.4677, 35.52946
323.9498, 35.30044
324.4319, 36.23429
324.9140, 36.76095
325.3961, 35.70455
325.8782, 33.48311
326.3604, 31.42624
326.8425, 30.45104
327.3246, 30.48945
327.8067, 30.78371
328.2888, 31.86643
328.7709, 32.57003
329.2531, 32.28156
329.7352, 31.47102
330.2173, 30.85867
330.6994, 30.77792
331.1815, 31.15699
331.6636, 31.81390
332.1458, 33.41146
332.6279, 34.45469
333.1100, 34.77290
333.5921, 34.57623
334.0742, 33.85234
334.5563, 32.66409
335.0385, 31.50292
335.5206, 31.16205
336.0027, 32.27513
336.4848, 32.54505
336.9669, 31.22509
337.4490, 29.74479
337.9312, 28.90603
338.4133, 28.80937
338.8954, 29.29457
339.3775, 30.31799
339.8596, 31.98697
340.3417, 32.84575
340.8239, 32.62751
341.3060, 32.00606
341.7881, 30.89078
342.2702, 29.56240
342.7523, 28.50536
343.2344, 28.02480
343.7166, 28.04271
344.1987, 28.18859
344.6808, 28.69721
345.1629, 29.06774
345.6450, 29.03901
346.1271, 28.93556
346.6093, 29.21195
347.0914, 30.01319
347.5735, 30.98285
348.0556, 31.43369
348.5377, 31.15050
349.0198, 30.68892
349.5020, 29.63017
349.9841, 28.72525
350.4662, 28.62322
350.9483, 29.30657
351.4304, 30.20579
351.9125, 30.73850
352.3947, 30.88769
352.8768, 30.77222
353.3589, 30.13678
353.8410, 29.49389
354.3231, 28.99164
354.8052, 28.62329
355.2874, 28.27417
355.7695, 27.81016
356.2516, 27.36300
356.7337, 27.76662
357.2158, 30.40756
357.6979, 31.97392
358.1800, 31.22395
358.6621, 29.44888
359.1443, 28.01466
359.6264, 27.44104
360.1085, 27.39996
360.5906, 27.26754
361.0727, 26.85491
361.5548, 26.86487
362.0370, 27.59259
362.5191, 28.56019
363.0012, 29.71827
363.4833, 30.94060
363.9654, 31.77478
364.4475, 31.60938
364.9297, 30.36823
365.4118, 29.40958
365.8939, 28.91860
366.3760, 28.53095
366.8581, 27.98285
367.3402, 27.42993
367.8224, 27.22573
368.3045, 27.68019
368.7866, 28.54047
369.2687, 29.04411
369.7508, 29.04718
370.2329, 28.99969
370.7151, 28.93464
371.1972, 28.95396
371.6793, 29.21009
372.1614, 29.76789
372.6435, 30.39784
373.1256, 30.85852
373.6078, 31.15182
374.0899, 31.24615
374.5720, 31.08952
375.0541, 30.74817
375.5362, 30.17752
376.0183, 29.41658
376.5005, 28.77145
376.9826, 28.39663
377.4647, 28.29070
377.9468, 28.54342
378.4289, 29.39762
378.9110, 30.07912
379.3932, 29.92320
379.8753, 29.24497
380.3574, 28.58129
380.8395, 27.88308
381.3216, 27.47125
381.8037, 27.97523
382.2859, 29.41989
382.7680, 30.57582
383.2501, 30.67078
383.7322, 30.31878
384.2143, 30.62218
384.6964, 31.85349
385.1786, 32.83793
385.6607, 32.67754
386.1428, 31.74716
386.6249, 31.03952
387.1070, 30.80660
387.5891, 30.78100
388.0713, 30.60461
388.5534, 30.29719
389.0355, 30.28073
389.5176, 30.81037
389.9997, 31.56440
390.4818, 32.25906
390.9640, 32.87598
391.4461, 33.46575
391.9282, 34.12549
392.4103, 34.76928
392.8924, 35.01294
393.3745, 34.43551
393.8567, 33.95436
394.3388, 33.88801
394.8209, 34.17501
395.3030, 34.77726
395.7851, 35.72081
396.2672, 36.76178
396.7494, 37.49150
397.2315, 37.87801
397.7136, 37.97561
398.1957, 37.48505
398.6778, 36.90784
399.1599, 36.53713
399.6420, 36.46223
400.1241, 36.87941
400.6063, 38.11613
401.0884, 40.23695
401.5705, 41.03975
402.0526, 39.19654
402.5347, 37.70234
403.0168, 37.64202
403.4990, 38.50199
403.9811, 39.50782
404.4632, 40.29545
404.9453, 40.76608
405.4274, 40.61776
405.9095, 39.22086
406.3917, 38.26743
406.8738, 38.02851
407.3559, 38.04296
407.8380, 37.98044
408.3201, 37.80652
408.8022, 37.70148
409.2844, 37.88872
409.7665, 38.39821
410.2486, 38.69787
410.7307, 38.54757
411.2128, 38.43816
411.6949, 38.50098
412.1771, 38.70215
412.6592, 39.04466
413.1413, 39.58846
413.6234, 40.07478
414.1055, 39.81586
414.5876, 38.45008
415.0698, 37.43993
415.5519, 37.58703
416.0340, 37.90748
416.5161, 37.68600
416.9982, 36.85598
417.4803, 35.94578
417.9625, 35.09903
418.4446, 34.43551
418.9267, 35.03944
419.4088, 37.96187
419.8909, 40.36232
420.3730, 39.68500
420.8552, 37.23866
421.3373, 35.68448
421.8194, 36.30309
422.3015, 37.78777
422.7836, 38.67347
423.2657, 38.96324
423.7479, 39.06905
424.2300, 39.08384
424.7121, 39.05422
425.1942, 39.02214
425.6763, 38.95544
426.1584, 39.04004
426.6406, 39.45858
427.1227, 40.05184
427.6048, 40.64240
428.0869, 41.22736
428.5690, 41.50329
429.0511, 41.08936
429.5333, 39.97554
430.0154, 39.11652
430.4975, 38.45311
430.9796, 38.10298
431.4617, 38.40263
431.9438, 39.08262
432.4260, 39.42185
432.9081, 39.04463
433.3902, 38.26791
433.8723, 37.82333
434.3544, 37.63432
434.8365, 37.95686
435.3187, 39.53267
435.8008, 41.13735
436.2829, 41.57348
436.7650, 40.83644
437.2471, 39.92649
437.7292, 39.82908
438.2114, 40.57958
438.6935, 40.70924
439.1756, 39.65570
439.6577, 38.59500
440.1398, 37.37489
440.6219, 36.43940
441.1040, 36.59213
441.5862, 38.16216
442.0683, 40.22433
442.5504, 40.99923
443.0325, 40.01495
443.5146, 39.19631
443.9967, 38.55993
444.4789, 38.25439
444.9610, 38.65116
445.4431, 39.53393
445.9252, 40.16334
446.4073, 39.86726
446.8894, 38.91468
447.3716, 38.37314
447.8537, 38.40515
448.3358, 38.44387
448.8179, 38.10644
449.3000, 37.70077
449.7821, 37.70074
450.2643, 38.34618
450.7464, 38.71494
451.2285, 37.59237
451.7106, 35.35669
452.1927, 34.03461
452.6748, 34.28531
453.1570, 35.00779
453.6391, 35.12350
454.1212, 34.75608
454.6033, 34.40146
455.0854, 34.25171
455.5675, 34.10588
456.0497, 33.69340
456.5318, 33.07466
457.0139, 32.61264
457.4960, 32.49241
457.9781, 32.64794
458.4602, 32.92773
458.9424, 33.37252
459.4245, 33.83028
459.9066, 34.42809
460.3887, 34.93902
460.8708, 35.12724
461.3529, 34.96201
461.8351, 34.51571
462.3172, 33.76439
462.7993, 32.68110
463.2814, 32.30688
463.7635, 33.47632
464.2456, 34.34602
464.7278, 34.32104
465.2099, 33.76549
465.6920, 33.21696
466.1741, 32.88070
466.6562, 32.56401
467.1383, 31.85596
467.6205, 30.46336
468.1026, 29.58047
468.5847, 29.54131
469.0668, 29.76197
469.5489, 30.00668
470.0310, 30.30038
470.5132, 30.80408
470.9953, 31.72824
471.4774, 32.82236
471.9595, 33.50213
472.4416, 33.80567
472.9237, 33.54122
473.4059, 31.90912
473.8880, 30.11296
474.3701, 29.40068
474.8522, 29.94858
475.3343, 30.49481
475.8164, 29.82407
476.2986, 28.58562
476.7807, 28.68225
477.2628, 30.60435
477.7449, 32.31349
478.2270, 31.93441
478.7091, 30.02026
479.1913, 29.01829
479.6734, 29.54562
480.1555, 30.45551
480.6376, 31.56099
481.1197, 32.58084
481.6018, 32.77727
482.0839, 31.86823
482.5660, 30.58854
483.0482, 29.94840
483.5303, 30.13506
484.0124, 30.37670
484.4945, 30.68018
484.9766, 31.02734
485.4587, 31.66439
485.9409, 32.33529
486.4230, 32.38093
486.9051, 31.38962
487.3872, 29.79914
487.8693, 28.90305
488.3514, 29.09235
488.8336, 29.25449
489.3157, 29.06933
489.7978, 29.01937
490.2799, 29.73629
490.7620, 31.01482
491.2441, 31.82886
491.7263, 31.00205
492.2084, 29.04808
492.6905, 28.61793
493.1726, 30.36863
493.6547, 32.06352
494.1368, 33.10488
494.6190, 33.46320
495.1011, 32.69108
495.5832, 30.51451
496.0653, 28.78451
496.5474, 29.53780
497.0295, 31.87822
497.5117, 32.90974
497.9938, 31.95911
498.4759, 30.76067
498.9580, 30.89110
499.4401, 32.04229
499.9222, 32.50288
500.4044, 31.60723
500.8865, 30.58274
501.3686, 30.03541
501.8507, 29.81789
502.3328, 29.58764
502.8149, 29.22512
503.2971, 28.91640
503.7792, 28.93828
504.2613, 29.39797
504.7434, 29.82866
505.2255, 30.59320
505.7076, 30.97959
506.1898, 30.22952
506.6719, 28.88586
507.1540, 28.10673
507.6361, 28.52081
508.1182, 29.59655
508.6003, 30.10059
509.0825, 29.84622
509.5646, 29.51996
510.0467, 28.92198
510.5288, 28.49582
511.0109, 28.57883
511.4930, 29.07718
511.9752, 29.61313
512.4573, 29.99873
512.9394, 30.23503
513.4215, 30.38652
513.9036, 30.50173
514.3857, 30.17963
514.8679, 28.77447
515.3500, 27.21870
515.8321, 26.82587
516.3142, 27.76040
516.7963, 28.56981
517.2784, 28.50957
517.7606, 28.01505
518.2427, 27.66427
518.7248, 27.51002
519.2069, 27.41314
519.6890, 27.31005
520.1711, 27.17873
520.6533, 26.90515
521.1354, 26.01587
521.6175, 25.62690
522.0996, 26.48261
522.5817, 27.60256
523.0638, 27.96761
523.5460, 27.44311
524.0281, 26.53339
524.5102, 25.64357
524.9923, 24.78772
525.4744, 24.45174
525.9565, 24.94770
526.4387, 25.59669
526.9208, 26.58035
527.4029, 27.47658
527.8850, 27.83313
528.3671, 27.54305
528.8492, 26.87474
529.3314, 25.97445
529.8135, 24.88171
530.2956, 23.86965
530.7777, 22.67657
531.2598, 22.15223
531.7419, 23.53706
532.2241, 25.78874
532.7062, 27.23154
533.1883, 27.35723
533.6704, 27.04318
534.1525, 26.81769
534.6346, 26.60849
535.1168, 26.11691
535.5989, 25.23138
536.0810, 24.57018
536.5631, 24.92383
537.0452, 26.35604
537.5273, 26.88052
538.0095, 25.76348
538.4916, 24.64710
538.9737, 23.93946
539.4558, 23.67743
539.9379, 24.05978
540.4200, 25.09111
540.9022, 26.17356
541.3843, 26.42553
541.8664, 25.67804
542.3485, 25.05144
542.8306, 24.45364
543.3127, 24.10010
543.7948, 24.12046
544.2769, 24.41246
544.7590, 24.86925
545.2411, 25.47669
545.7233, 26.06510
546.2054, 26.38681
546.6875, 26.46112
547.1696, 26.56799
547.6517, 26.78799
548.1339, 26.97413
548.6160, 27.01172
549.0981, 26.91892
549.5802, 26.71491
550.0623, 26.36783
550.5444, 25.94864
551.0266, 25.43306
551.5087, 24.88411
551.9908, 24.40908
552.4729, 24.03488
552.9550, 23.86045
553.4371, 24.05811
553.9193, 24.73702
554.4014, 25.12230
554.8835, 25.11688
555.3656, 24.97272
555.8477, 24.54091
556.3298, 24.10707
556.8120, 24.19888
557.2941, 24.98125
557.7762, 25.87643
558.2583, 25.96814
558.7404, 25.12316
559.2225, 24.62078
559.7047, 24.91058
560.1868, 24.99385
560.6689, 23.93866
561.1510, 22.49829
561.6331, 22.06954
562.1152, 23.37533
562.5974, 24.92680
563.0795, 25.31708
563.5616, 24.80224
564.0437, 24.18277
564.5258, 23.51315
565.0079, 23.26775
565.4901, 24.17135
565.9722, 26.11314
566.4543, 26.98707
566.9364, 25.79962
567.4185, 24.69087
567.9006, 24.85810
568.3828, 25.45347
568.8649, 25.03348
569.3470, 23.32585
569.8291, 21.50295
570.3112, 20.92994
570.7933, 21.65938
571.2755, 22.68625
571.7576, 24.60222
572.2397, 26.06135
572.7218, 26.67603
573.2039, 26.72366
573.6860, 26.50275
574.1682, 26.08989
574.6503, 25.43346
575.1324, 23.95378
575.6145, 22.08335
576.0966, 22.10331
576.5787, 24.67482
577.0609, 27.07696
577.5430, 27.59684
578.0251, 26.77283
578.5072, 25.98033
578.9893, 25.15638
579.4714, 24.56617
579.9536, 24.24637
580.4357, 24.24962
580.9178, 24.80939
581.3999, 25.85721
581.8820, 26.85312
582.3641, 27.38913
582.8463, 27.51972
583.3284, 27.57877
583.8105, 27.82029
584.2926, 27.59104
584.7747, 26.22961
585.2568, 24.86671
585.7390, 24.53568
586.2211, 25.12504
586.7032, 25.63267
587.1853, 25.18016
587.6674, 24.25407
588.1495, 24.26720
588.6317, 25.36599
589.1138, 26.54657
589.5959, 27.79878
590.0780, 28.68314
590.5601, 28.50014
591.0422, 27.27210
591.5244, 26.39548
592.0065, 26.71713
592.4886, 27.24120
592.9707, 27.03513
593.4528, 26.23562
593.9349, 25.29744
594.4171, 24.37232
594.8992, 23.80095
595.3813, 24.26955
595.8634, 26.34833
596.3455, 27.78336
596.8276, 28.63709
597.3098, 28.88473
597.7919, 28.13284
598.2740, 26.86720
598.7561, 25.75400
599.2382, 25.04743
599.7203, 24.87007
600.2025, 25.73340
600.6846, 27.59104
601.1667, 28.45460
601.6488, 27.65147
602.1309, 26.78977
602.6130, 27.04203
603.0952, 28.01446
603.5773, 28.98931
604.0594, 29.99520
604.5415, 30.77282
605.0236, 31.28240
605.5057, 31.44902
605.9879, 30.94593
606.4700, 29.80660
606.9521, 28.80995
607.4342, 28.66613
607.9163, 29.21659
608.3984, 29.24397
608.8806, 28.18659
609.3627, 27.36420
609.8448, 26.76897
610.3269, 26.52808
610.8090, 26.92237
611.2911, 27.82040
611.7733, 28.68617
612.2554, 29.23393
612.7375, 29.42163
613.2196, 29.03283
613.7017, 28.00019
614.1838, 27.00746
614.6660, 25.92521
615.1481, 25.37154
615.6302, 26.63836
616.1123, 29.56256
616.5944, 31.20570
617.0765, 29.94813
617.5587, 28.19515
618.0408, 27.28251
618.5229, 27.15387
619.0050, 27.68187
619.4871, 28.80515
619.9692, 30.09361
620.4514, 30.93915
620.9335, 31.25628
621.4156, 31.80957
621.8977, 32.85249
622.3798, 33.83910
622.8619, 34.70396
623.3441, 35.40094
623.8262, 35.90788
624.3083, 36.21352
624.7904, 36.22422
625.2725, 35.58762
625.7546, 34.62222
626.2367, 34.32993
626.7188, 34.82360
627.2009, 35.22274
627.6830, 35.01633
628.1652, 34.47110
628.6473, 34.11902
629.1294, 33.79844
629.6115, 34.09584
630.0936, 35.80273
630.5757, 37.55328
631.0579, 38.24711
631.5400, 38.13846
632.0221, 38.12295
632.5042, 38.65951
632.9863, 39.38616
633.4684, 39.49559
633.9506, 38.72970
634.4327, 38.68135
634.9148, 40.14848
635.3969, 41.42738
635.8790, 41.38913
636.3611, 40.68820
636.8433, 40.51732
637.3254, 41.33544
637.8075, 42.19184
638.2896, 42.46270
638.7717, 42.27295
639.2538, 41.79701
639.7360, 41.06974
640.2181, 40.21465
640.7002, 39.24912
641.1823, 38.28526
641.6644, 37.77550
642.1465, 38.00550
642.6287, 38.32961
643.1108, 38.80291
643.5929, 39.31327
644.0750, 40.02724
644.5571, 40.71743
645.0392, 40.78461
645.5214, 39.80549
646.0035, 38.34632
646.4856, 37.25148
646.9677, 36.52124
647.4498, 36.28630
647.9319, 36.74703
648.4141, 37.35066
648.8962, 37.77273
649.3783, 37.97489
649.8604, 37.78061
650.3425, 36.79519
650.8246, 35.92931
651.3068, 35.85276
651.7889, 35.93047
652.2710, 35.20745
652.7531, 33.68843
653.2352, 32.26249
653.7173, 31.63080
654.1995, 31.63632
654.6816, 31.66562
655.1637, 31.84272
655.6458, 31.74488
656.1279, 30.81194
656.6100, 30.00159
657.0922, 29.97613
657.5743, 30.56757
658.0564, 31.14465
658.5385, 31.56936
659.0206, 31.74101
659.5027, 31.41429
659.9849, 30.75912
660.4670, 30.29156
660.9491, 30.13717
661.4312, 29.94009
661.9133, 29.25589
662.3954, 28.17782
662.8776, 28.04309
663.3597, 30.49634
663.8418, 31.72741
664.3239, 30.16703
664.8060, 28.15496
665.2881, 27.79116
665.7703, 28.90277
666.2524, 29.79142
666.7345, 29.25959
667.2166, 28.08072
667.6987, 27.68878
668.1808, 28.06440
668.6630, 28.49178
669.1451, 28.80805
669.6272, 29.13249
670.1093, 29.71949
670.5914, 30.49161
671.0735, 30.63622
671.5557, 29.38459
672.0378, 28.43030
672.5199, 28.33566
673.0020, 28.80962
673.4841, 29.78952
673.9662, 31.07903
674.4484, 32.05976
674.9305, 32.20633
675.4126, 31.76885
675.8947, 31.64707
676.3768, 32.00038
676.8589, 31.91341
677.3411, 30.64513
677.8232, 29.51778
678.3053, 29.76024
678.7874, 31.03461
679.2695, 32.12833
679.7516, 32.88414
680.2338, 33.24431
680.7159, 33.01546
681.1980, 32.42952
681.6801, 31.59444
682.1622, 30.65861
682.6443, 30.40899
683.1265, 31.64645
683.6086, 33.91175
684.0907, 34.87685
684.5728, 33.70368
685.0549, 33.06106
685.5370, 33.66376
686.0192, 34.57623
686.5013, 35.56795
686.9834, 36.43854
687.4655, 36.69799
687.9476, 35.90283
688.4297, 34.90951
688.9119, 34.48902
689.3940, 34.44774
689.8761, 34.32417
690.3582, 34.03918
690.8403, 33.82711
691.3224, 33.88585
691.8046, 34.15107
692.2867, 34.30781
692.7688, 34.10793
693.2509, 34.20935
693.7330, 35.02209
694.2151, 35.76807
694.6973, 35.81749
695.1794, 35.43483
695.6615, 35.31304
696.1436, 35.76056
696.6257, 36.52539
697.1078, 37.64515
697.5900, 38.87077
698.0721, 39.28224
698.5542, 38.72152
699.0363, 37.65287
699.5184, 36.13254
700.0005, 34.52050
700.4827, 34.12296
700.9648, 35.91485
701.4469, 37.35904
701.9290, 38.28821
702.4111, 38.99015
702.8932, 39.48695
703.3754, 39.91672
703.8575, 40.61216
704.3396, 41.73815
704.8217, 42.71826
705.3038, 42.56952
705.7859, 41.60043
706.2681, 41.45263
706.7502, 42.39598
707.2323, 43.09206
707.7144, 42.51748
708.1965, 41.45752
708.6786, 41.83171
709.1607, 44.22684
709.6428, 46.24667
710.1249, 47.90222
710.6071, 48.98690
711.0892, 48.74053
711.5713, 48.03823
712.0534, 48.43431
712.5355, 50.41905
713.0176, 52.83540
713.4998, 54.41335
713.9819, 55.29493
714.4640, 56.31389
714.9461, 57.52214
715.4282, 58.52285
715.9103, 58.96535
716.3925, 59.30556
716.8746, 60.46383
717.3567, 62.62549
717.8388, 63.89985
718.3209, 62.97774
718.8030, 62.38911
719.2852, 63.71725
719.7673, 65.92684
720.2494, 67.73539
720.7315, 68.75899
721.2136, 69.08341
721.6957, 68.64442
722.1779, 67.63250
722.6600, 66.61099
723.1421, 65.51395
723.6242, 64.96494
724.1063, 65.30278
724.5884, 66.00814
725.0706, 66.76744
725.5527, 67.52657
726.0348, 67.48869
726.5169, 65.80223
726.9990, 64.31025
727.4811, 63.93837
727.9633, 63.87447
728.4454, 63.17782
728.9275, 61.85180
729.4096, 60.55691
729.8917, 59.73200
730.3738, 59.24614
730.8560, 58.97720
731.3381, 58.94626
731.8202, 58.28968
732.3023, 56.63437
732.7844, 54.91660
733.2665, 53.98659
733.7487, 53.53355
734.2308, 52.32621
734.7129, 49.59823
735.1950, 47.58277
735.6771, 47.22318
736.1592, 47.31822
736.6414, 47.01667
737.1235, 46.35080
737.6056, 45.71626
738.0877, 45.29354
738.5698, 44.72815
739.0519, 43.34928
739.5341, 41.28321
740.0162, 39.62699
740.4983, 38.44036
740.9804, 37.67723
741.4625, 37.42089
741.9446, 37.49358
742.4268, 37.71781
742.9089, 38.28148
743.3910, 38.06229
743.8731, 36.07294
744.3552, 34.25091
744.8373, 33.46041
745.3195, 33.45017
745.8016, 34.04398
746.2837, 35.06599
746.7658, 35.87198
747.2479, 35.78704
747.7300, 35.11192
748.2122, 34.64380
748.6943, 34.38484
749.1764, 34.17121
749.6585, 33.97812
750.1406, 33.76329
750.6227, 33.49249
751.1049, 33.16412
751.5870, 32.73350
752.0691, 31.98660
752.5512, 31.43473
753.0333, 31.31248
753.5154, 31.30499
753.9976, 31.09308
754.4797, 30.74855
754.9618, 30.62334
755.4439, 30.96455
755.9260, 31.35461
756.4081, 31.21699
756.8903, 30.65060
757.3724, 29.97910
757.8545, 29.22090
758.3366, 28.74088
758.8187, 28.83912
759.3008, 29.26742
759.7830, 29.41868
760.2651, 29.27167
760.7472, 28.88064
761.2293, 27.90506
761.7114, 27.08413
762.1935, 26.33972
762.6757, 26.10369
763.1578, 27.31928
763.6399, 30.10616
764.1220, 32.46241
764.6041, 32.37189
765.0862, 31.31897
765.5684, 31.68736
766.0505, 33.21834
766.5326, 34.48059
767.0147, 35.02270
767.4968, 35.12956
767.9789, 35.10516
768.4611, 34.94336
768.9432, 34.44174
769.4253, 32.64627
769.9074, 32.16795
770.3895, 34.56437
770.8716, 37.32672
771.3538, 38.89396
771.8359, 39.40108
772.3180, 39.58761
772.8001, 39.61446
773.2822, 39.52465
773.7643, 39.14742
774.2465, 38.77206
774.7286, 39.04502
775.2107, 39.83304
775.6928, 40.16745
776.1749, 39.47880
776.6570, 38.31810
777.1392, 37.79762
777.6213, 38.03943
778.1034, 38.00210
778.5855, 37.49169
779.0676, 37.06397
779.5497, 37.02476
780.0319, 37.16566
780.5140, 37.19352
780.9961, 37.08599
781.4782, 37.12435
781.9603, 37.69237
782.4424, 38.08740
782.9246, 37.98857
783.4067, 37.41880
783.8888, 36.18291
784.3709, 34.41839
784.8530, 32.94324
785.3351, 32.49128
785.8173, 32.64899
786.2994, 32.31006
786.7815, 31.47392
787.2636, 31.11280
787.7457, 31.51869
788.2278, 32.05139
788.7100, 32.27951
789.1921, 32.23789
789.6742, 32.05336
790.1563, 31.69865
790.6384, 31.25823
791.1205, 30.94674
791.6026, 30.33908
792.0847, 28.75779
792.5668, 26.86798
793.0490, 25.82520
793.5311, 25.96073
794.0132, 26.37803
794.4953, 26.31227
794.9774, 26.05800
795.4595, 26.22991
795.9417, 26.74328
796.4238, 27.01390
796.9059, 26.84312
797.3880, 26.48918
797.8701, 26.19497
798.3522, 25.97258
798.8344, 26.10004
799.3165, 27.13742
799.7986, 27.44517
800.2807, 25.90177
800.7628, 24.32679
801.2449, 24.05478
801.7271, 24.60494
802.2092, 24.51856
802.6913, 23.04041
803.1734, 21.94504
803.6555, 22.53147
804.1376, 23.68736
804.6198, 24.37966
805.1019, 24.54011
805.5840, 24.23859
806.0661, 23.51694
806.5482, 22.77441
807.0303, 22.60392
807.5125, 22.93350
807.9946, 23.08354
808.4767, 23.03350
808.9588, 22.89871
809.4409, 22.62885
809.9230, 22.44218
810.4052, 22.73053
810.8873, 23.48588
811.3694, 23.60150
811.8515, 22.27086
812.3336, 21.40534
812.8157, 21.42205
813.2979, 22.00972
813.7800, 23.38922
814.2621, 25.09112
814.7442, 25.99719
815.2263, 25.55624
815.7084, 24.63739
816.1906, 23.93780
816.6727, 23.42029
817.1548, 22.98551
817.6369, 22.64322
818.1190, 22.60131
818.6011, 22.98787
819.0833, 23.33245
819.5654, 22.84336
820.0475, 21.46331
820.5296, 20.94346
821.0117, 21.75498
821.4938, 22.44870
821.9760, 22.34963
822.4581, 22.26101
822.9402, 23.02181
823.4223, 24.41697
823.9044, 25.42655
824.3865, 26.00469
824.8687, 25.94634
825.3508, 24.42640
825.8329, 22.80004
826.3150, 22.55107
826.7971, 23.38166
827.2792, 24.18379
827.7614, 24.47311
828.2435, 24.40144
828.7256, 24.05144
829.2077, 23.49646
829.6898, 22.98673
830.1719, 22.53217
830.6541, 22.14557
831.1362, 21.77487
831.6183, 21.71400
832.1004, 22.41322
832.5825, 23.85260
833.0646, 24.86480
833.5468, 25.76948
834.0289, 25.70170
834.5110, 23.44258
834.9931, 21.29071
835.4752, 20.82874
835.9573, 21.60747
836.4395, 22.38001
836.9216, 22.91796
837.4037, 23.13343
837.8858, 22.57539
838.3679, 21.98450
838.8500, 22.52784
839.3322, 23.65592
839.8143, 23.61876
840.2964, 21.92148
840.7785, 20.28330
841.2606, 20.83228
841.7427, 22.89548
842.2249, 23.74687
842.7070, 23.33461
843.1891, 22.78886
843.6712, 22.23857
844.1533, 22.14049
844.6354, 23.18040
845.1176, 24.95117
845.5997, 25.42641
846.0818, 23.44226
846.5639, 21.99102
847.0460, 21.03466
847.5281, 20.62591
848.0103, 21.18835
848.4924, 22.13739
848.9745, 22.55753
849.4566, 22.27030
849.9387, 22.08705
850.4208, 22.43575
850.9030, 23.06647
851.3851, 24.12429
851.8672, 25.17636
852.3493, 25.27249
852.8314, 24.34798
853.3135, 23.27038
853.7957, 22.69239
854.2778, 22.41870
854.7599, 21.93783
855.2420, 21.26137
855.7241, 21.15446
856.2062, 21.84813
856.6884, 22.32678
857.1705, 21.88650
857.6526, 21.11374
858.1347, 21.17136
858.6168, 22.38421
859.0989, 22.95213
859.5811, 22.36699
860.0632, 21.81247
860.5453, 21.39037
861.0274, 21.23561
861.5095, 21.73958
861.9916, 22.66993
862.4738, 22.99409
862.9559, 21.92292
863.4380, 21.00149
863.9201, 21.50674
864.4022, 22.52770
864.8843, 22.97641
865.3665, 22.89795
865.8486, 22.81544
866.3307, 22.94891
866.8128, 23.05605
867.2949, 22.72521
867.7770, 22.84927
868.2592, 22.05765
868.7413, 22.55844
869.2234, 22.70478
869.7055, 22.14393
870.1876, 21.60154
870.6697, 21.81373
871.1519, 22.61027
871.6340, 23.03979
872.1161, 23.05718
872.5981, 22.79238
873.0803, 22.15532
873.5624, 21.33285
874.0445, 19.76548
874.5266, 18.35083
875.0087, 18.62428
875.4908, 20.88092
875.9730, 22.79293
876.4551, 23.65950
876.9372, 23.83525
877.4193, 22.98346
877.9014, 21.87691
878.3835, 21.65679
878.8657, 22.28470
879.3478, 22.79726
879.8299, 22.60119
880.3120, 22.11988
880.7941, 21.89967
881.2762, 21.88026
881.7584, 21.86240
882.2405, 21.83598
882.7226, 21.97117
883.2047, 22.38598
883.6868, 22.63073
884.1689, 21.96225
884.6511, 20.43328
885.1332, 19.88886
885.6153, 20.72690
886.0974, 21.46795
886.5795, 21.90653
887.0616, 22.06135
887.5438, 21.78763
888.0259, 21.24714
888.5080, 20.91751
888.9901, 20.80910
889.4722, 20.91330
889.9543, 21.40679
890.4365, 21.91938
890.9186, 22.32933
891.4007, 22.60012
891.8828, 22.68333
892.3649, 22.58469
892.8470, 22.37293
893.3292, 21.85712
893.8113, 21.53521
894.2934, 22.27081
894.7755, 23.36850
895.2576, 23.57156
895.7397, 22.83890
896.2219, 21.67974
896.7040, 20.33884
897.1861, 19.38463
897.6682, 20.11404
898.1503, 22.18489
898.6324, 22.65397
899.1146, 21.39690
899.5967, 20.26157
900.0788, 19.79723
900.5609, 19.68087
901.0430, 19.67952
901.5251, 19.73337
902.0073, 19.42389
902.4894, 18.25815
902.9715, 17.74436
903.4536, 18.39802
903.9357, 19.20590
904.4178, 19.63717
904.9000, 19.99297
905.3821, 20.89202
905.8642, 22.43824
906.3463, 23.19323
906.8284, 22.26069
907.3105, 21.12466
907.7927, 20.11958
908.2748, 19.50355
908.7569, 19.79642
909.2390, 20.70888
909.7211, 21.37008
910.2032, 21.42619
910.6854, 20.92873
911.1675, 19.38377
911.6496, 17.61608
912.1317, 16.98667
912.6138, 17.37889
913.0959, 18.29980
913.5781, 19.53888
914.0602, 20.58090
914.5423, 20.88109
915.0244, 21.70029
915.5065, 21.18670
915.9886, 22.24228
916.4708, 22.64456
916.9529, 22.14139
917.4350, 21.54708
917.9171, 21.35246
918.3992, 21.22354
918.8813, 20.46707
919.3635, 18.87708
919.8456, 18.21986
920.3277, 18.88602
920.8098, 19.84563
921.2919, 21.62959
921.7740, 22.96267
922.2562, 22.63561
922.7383, 21.13836
923.2204, 19.89731
923.7025, 18.93823
924.1846, 18.60057
924.6667, 19.45171
925.1489, 20.44243
925.6310, 21.24158
926.1131, 21.62333
926.5952, 21.04343
927.0773, 19.63950
927.5594, 18.65896
928.0416, 18.93243
928.5237, 19.66451
929.0058, 20.41501
929.4879, 21.00096
929.9700, 21.02380
930.4521, 20.59217
930.9343, 20.23937
931.4164, 20.18376
931.8985, 20.04793
932.3806, 19.16578
932.8627, 17.94256
933.3448, 17.80487
933.8270, 18.66647
934.3091, 19.71340
934.7912, 20.80273
935.2733, 21.36822
935.7554, 20.88107
936.2375, 19.91868
936.7197, 19.96924
937.2018, 21.30128
937.6839, 22.12904
938.1660, 22.43186
938.6481, 22.23413
939.1302, 21.10203
939.6124, 20.01777
940.0945, 20.10746
940.5766, 21.23081
941.0587, 22.07410
941.5408, 22.65259
942.0229, 22.94373
942.5051, 22.92956
942.9872, 22.64586
943.4693, 21.91695
943.9514, 21.02983
944.4335, 20.35816
944.9156, 19.94575
945.3978, 19.62872
945.8799, 19.35030
946.3620, 19.15136
946.8441, 19.13286
947.3262, 19.14580
947.8083, 18.96100
948.2905, 18.68293
948.7726, 18.57345
949.2547, 18.72820
949.7368, 19.16526
950.2189, 20.32318
950.7010, 21.46006
951.1832, 21.41706
951.6653, 20.57489
952.1474, 19.79841
952.6295, 19.28855
953.1116, 18.98327
953.5938, 18.84602
954.0759, 18.85835
954.5580, 19.01590
955.0400, 19.29946
955.5222, 19.54321
956.0043, 19.75267
956.4864, 20.52954
956.9685, 22.20477
957.4506, 23.13054
957.9327, 21.43428
958.4149, 17.98518
958.8970, 16.53092
959.3791, 17.32138
959.8612, 19.05911
960.3433, 22.35746
960.8254, 24.70249
961.3076, 24.68928
961.7897, 23.41057
962.2718, 22.25368
962.7539, 21.22512
963.2360, 20.06633
963.7181, 18.18268
964.2003, 17.10373
964.6824, 17.47453
965.1645, 18.12126
965.6466, 18.32066
966.1287, 18.42574
966.6108, 19.26278
967.0930, 21.04831
967.5751, 22.01783
968.0572, 21.30077
968.5393, 20.33149
969.0214, 19.12302
969.5035, 18.36225
969.9857, 19.14241
970.4678, 20.83069
970.9499, 21.68740
971.4320, 21.08168
971.9141, 20.31293
972.3962, 20.06647
972.8784, 20.05430
973.3605, 20.05782
973.8426, 20.10842
974.3247, 20.30618
974.8068, 20.63002
975.2889, 20.92912
975.7711, 21.10795
976.2532, 21.29916
976.7353, 22.02594
977.2174, 22.67409
977.6995, 21.74246
978.1816, 19.68592
978.6638, 18.21480
979.1459, 17.79895
979.6280, 18.01202
980.1101, 18.56249
980.5922, 19.33886
981.0743, 20.28470
981.5565, 21.28463
982.0386, 21.45790
982.5207, 20.77191
983.0028, 20.43444
983.4849, 20.96790
983.9670, 21.39764
984.4492, 20.51359
984.9313, 18.75478
985.4134, 18.29702
985.8955, 19.33131
986.3776, 20.33637
986.8597, 21.29356
987.3419, 21.65618
987.8240, 20.92399
988.3061, 19.90754
988.7882, 19.84064
989.2703, 20.71555
989.7524, 20.96096
990.2346, 20.13468
990.7167, 19.67667
991.1988, 20.04812
991.6809, 20.40993
992.1630, 20.20691
992.6451, 19.73833
993.1273, 19.58754
993.6094, 19.83915
994.0915, 19.78779
994.5736, 18.93168
995.0557, 18.45742
995.5378, 19.10288
996.0200, 19.69810
996.5021, 19.16526
996.9842, 18.10215
997.4663, 17.83471
997.9484, 18.66999
998.4305, 19.29263
998.9127, 19.12287
999.3948, 18.99134
999.8769, 19.47019
1000.359, 19.96865
1000.841, 19.88488
1001.323, 19.34338
1001.805, 18.71549
1002.287, 18.05056
1002.770, 17.75803
1003.252, 18.45642
1003.734, 19.16586
1004.216, 18.93137
1004.698, 18.42280
1005.180, 18.62893
1005.662, 19.47770
1006.144, 20.30732
1006.627, 20.89009
1007.109, 20.98260
1007.591, 19.89907
1008.073, 18.61858
1008.555, 18.31397
1009.037, 18.69338
1009.519, 19.16234
1010.001, 19.59411
1010.483, 20.21212
1010.966, 21.22769
1011.448, 21.85630
1011.930, 20.56981
1012.412, 18.53086
1012.894, 18.31930
1013.376, 19.40774
1013.858, 19.74139
1014.340, 18.90113
1014.823, 17.75613
1015.305, 16.82872
1015.787, 16.40360
1016.269, 17.37953
1016.751, 19.23715
1017.233, 19.76310
1017.715, 19.08649
1018.197, 18.95159
1018.679, 19.84168
1019.162, 20.91827
1019.644, 21.55205
1020.126, 21.72262
1020.608, 21.06671
1021.090, 19.71766
1021.572, 19.76034
1022.054, 21.32770
1022.536, 22.32231
1023.018, 22.04045
1023.501, 21.28876
1023.983, 20.72460
1024.465, 20.36627
1024.947, 20.33369
1025.429, 20.66738
1025.911, 20.93691
1026.393, 21.23847
1026.875, 20.67958
1027.358, 18.56549
1027.840, 16.79549
1028.322, 17.43216
1028.804, 19.75492
1029.286, 20.65910
1029.768, 19.60654
1030.250, 19.50741
1030.732, 20.97180
1031.214, 21.87060
1031.697, 21.33533
1032.179, 20.10567
1032.661, 18.60885
1033.143, 17.11343
1033.625, 17.10456
1034.107, 19.58922
1034.589, 21.01638
1035.071, 21.04743
1035.553, 20.55433
1036.036, 19.43618
1036.518, 18.39162
1037.000, 18.38090
1037.482, 19.11476
1037.964, 18.83368
1038.446, 16.25809
1038.928, 15.20285
1039.410, 16.62161
1039.893, 18.27511
1040.375, 19.86361
1040.857, 21.01009
1041.339, 21.11093
1041.821, 20.38023
1042.303, 19.99604
1042.785, 20.38253
1043.267, 20.32488
1043.750, 19.33787
1044.232, 18.44308
1044.714, 17.76299
1045.196, 17.52189
1045.678, 18.22078
1046.160, 19.59960
1046.642, 20.48592
1047.124, 20.71506
1047.606, 20.57589
1048.089, 19.63552
1048.571, 18.90611
1049.053, 19.39229
1049.535, 19.81152
1050.017, 18.28976
1050.499, 15.50869
1050.981, 14.43742
1051.463, 16.19698
1051.945, 17.90918
1052.428, 19.21103
1052.910, 20.05228
1053.392, 20.03202
1053.874, 19.83815
1054.356, 20.58186
1054.838, 21.76254
1055.320, 21.33018
1055.802, 18.12801
1056.285, 15.91540
1056.767, 16.34828
1057.249, 17.30037
1057.731, 18.05484
1058.213, 18.58165
1058.695, 18.87467
1059.177, 18.96656
1059.659, 18.90302
1060.141, 18.64026
1060.624, 18.48464
1061.106, 18.82954
1061.588, 18.95974
1062.070, 17.90728
1062.552, 16.94707
1063.034, 17.77467
1063.516, 19.73033
1063.998, 20.71655
1064.480, 20.08605
1064.963, 19.68074
1065.445, 20.68545
1065.927, 21.54249
1066.409, 21.15435
1066.891, 20.46487
1067.373, 20.43159
1067.855, 20.87388
1068.337, 21.22012
1068.820, 21.34432
1069.302, 21.14794
1069.784, 20.26873
1070.266, 19.45650
1070.748, 19.06562
1071.230, 18.95167
1071.712, 19.01288
1072.194, 19.22178
1072.677, 19.78698
1073.159, 20.72063
1073.641, 20.81156
1074.123, 18.24270
1074.605, 16.34954
1075.087, 17.77036
1075.569, 19.73793
1076.051, 19.76801
1076.533, 18.54428
1077.016, 17.51486
1077.498, 16.99761
1077.980, 16.91898
1078.462, 17.26069
1078.944, 18.01560
1079.426, 19.94700
1079.908, 21.54722
1080.390, 21.14434
1080.872, 19.80129
1081.354, 19.35430
1081.837, 19.95967
1082.319, 20.26982
1082.801, 19.41036
1083.283, 18.88617
1083.765, 19.87730
1084.247, 20.96170
1084.729, 21.16542
1085.211, 20.77243
1085.694, 20.01865
1086.176, 19.10720
1086.658, 18.68429
1087.140, 19.27858
1087.622, 19.47802
1088.104, 17.93789
1088.586, 16.65339
1089.068, 17.29222
1089.551, 18.60745
1090.033, 19.08705
1090.515, 18.83246
1090.997, 18.86072
1091.479, 19.61423
1091.961, 19.87547
1092.443, 18.37131
1092.925, 17.25089
1093.407, 18.11013
1093.890, 19.50030
1094.372, 19.95972
1094.854, 19.74514
1095.336, 19.94066
1095.818, 20.87389
1096.300, 21.11734
1096.782, 19.30113
1097.264, 17.92625
1097.746, 18.58647
1098.229, 19.48501
1098.711, 18.81710
1099.193, 17.47926
1099.675, 17.42291
1100.157, 18.91949
1100.639, 20.03521
1101.121, 20.19187
1101.603, 20.04911
1102.086, 19.27749
1102.568, 18.80268
1103.050, 19.75371
1103.532, 21.03282
1104.014, 20.84922
1104.496, 19.26730
1104.978, 18.37961
1105.460, 19.32194
1105.943, 19.64686
1106.425, 18.05647
1106.907, 16.87956
1107.389, 17.54104
1107.871, 18.84113
1108.353, 19.82103
1108.835, 20.31846
1109.317, 19.74690
1109.799, 17.12116
1110.281, 15.76728
1110.764, 16.89664
1111.246, 18.03410
1111.728, 18.50430
1112.210, 18.69776
1112.692, 19.03052
1113.174, 19.30248
1113.656, 18.89741
1114.138, 17.56198
1114.621, 16.70064
1115.103, 16.30457
1115.585, 16.42736
1116.067, 17.60488
1116.549, 18.58636
1117.031, 18.29457
1117.513, 17.65278
1117.995, 18.36675
1118.478, 20.46173
1118.960, 21.29323
1119.442, 20.15937
1119.924, 19.46074
1120.406, 19.76261
1120.888, 19.71891
1121.370, 18.46559
1121.852, 17.04025
1122.334, 16.59597
1122.817, 17.03609
1123.299, 17.99132
1123.781, 19.87898
1124.263, 20.43072
1124.745, 19.19676
1125.227, 18.02338
1125.709, 17.40459
1126.191, 17.23195
1126.673, 17.46083
1127.156, 18.00005
1127.638, 18.64598
1128.120, 19.39662
1128.602, 20.35255
1129.084, 21.60863
1129.566, 21.96603
1130.048, 21.13308
1130.530, 19.68658
1131.013, 17.79661
1131.495, 16.39352
1131.977, 17.11431
1132.459, 19.37930
1132.941, 20.19580
1133.423, 19.69537
1133.905, 19.74021
1134.387, 20.49778
1134.870, 20.84448
1135.352, 20.33729
1135.834, 19.46552
1136.316, 18.56212
1136.798, 17.97986
1137.280, 18.88474
1137.762, 20.69624
1138.244, 21.44463
1138.726, 21.09470
1139.208, 19.67107
1139.691, 17.42451
1140.173, 16.03454
1140.655, 16.60685
1141.137, 17.88322
1141.619, 18.23645
1142.101, 18.22641
1142.583, 19.25813
1143.065, 20.57305
1143.548, 20.05668
1144.030, 18.02981
1144.512, 16.74000
1144.994, 17.03232
1145.476, 17.68506
1145.958, 17.69128
1146.440, 17.64064
1146.922, 18.36382
1147.405, 19.20060
1147.887, 19.09677
1148.369, 18.50688
1148.851, 18.57445
1149.333, 19.40711
1149.815, 20.09076
1150.297, 20.29172
1150.779, 20.00138
1151.261, 18.31859
1151.744, 17.12505
1152.226, 18.58820
1152.708, 20.76019
1153.190, 21.18264
1153.672, 20.15089
1154.154, 19.36002
1154.636, 19.22353
1155.118, 19.04677
1155.600, 18.39397
1156.083, 17.98549
1156.565, 18.40650
1157.047, 18.81146
1157.529, 18.22837
1158.011, 17.42737
1158.493, 18.06109
1158.975, 20.15132
1159.457, 20.72771
1159.940, 17.61686
1160.422, 16.27580
1160.904, 18.12149
1161.386, 19.94407
1161.868, 20.79707
1162.350, 20.99807
1162.832, 20.51926
1163.314, 19.76623
1163.796, 20.22001
1164.279, 19.36890
1164.761, 18.55595
1165.243, 19.00413
1165.725, 17.15435
1166.207, 18.25474
1166.689, 19.24782
1167.171, 18.16591
1167.653, 16.71280
1168.135, 17.48345
1168.618, 19.95344
1169.100, 21.22596
1169.582, 21.30597
1170.064, 20.55651
1170.546, 19.03774
1171.028, 18.25893
1171.510, 18.72244
1171.992, 19.49879
1172.474, 19.85759
1172.957, 19.99813
1173.439, 20.32910
1173.921, 20.70430
1174.403, 20.67920
1174.885, 20.31515
1175.367, 19.62115
1175.849, 18.78668
1176.331, 18.71982
1176.814, 19.78064
1177.296, 20.85055
1177.778, 20.78468
1178.260, 20.42854
1178.742, 21.02537
1179.224, 21.74377
1179.706, 21.18209
1180.188, 19.93293
1180.671, 19.47405
1181.153, 19.90023
1181.635, 19.95723
1182.117, 18.90836
1182.599, 18.13248
1183.081, 18.49614
1183.563, 19.21663
1184.045, 20.13028
1184.527, 20.88351
1185.010, 21.03757
1185.492, 20.80767
1185.974, 20.68790
1186.456, 20.74390
1186.938, 20.96759
1187.420, 21.86817
1187.902, 22.15836
1188.384, 20.73400
1188.866, 19.78692
1189.349, 20.98083
1189.831, 22.39267
1190.313, 21.79930
1190.795, 19.79877
1191.277, 18.76651
1191.759, 18.87674
1192.241, 19.27768
1192.723, 20.16517
1193.206, 20.59268
1193.688, 20.25165
1194.170, 19.91528
1194.652, 20.09507
1195.134, 20.25067
1195.616, 19.48941
1196.098, 18.18553
1196.580, 18.07421
1197.063, 19.02243
1197.545, 19.75703
1198.027, 20.16010
1198.509, 20.10244
1198.991, 19.58181
1199.473, 18.96590
1199.955, 18.47806
1200.437, 18.27199
1200.919, 18.67676
1201.401, 19.40796
1201.884, 20.31241
1202.366, 20.99668
1202.848, 20.36127
1203.330, 18.83990
1203.812, 18.06531
1204.294, 18.44495
1204.776, 18.66241
1205.258, 17.48239
1205.741, 16.86467
1206.223, 18.94140
1206.705, 21.12265
1207.187, 21.00431
1207.669, 22.34751
1208.151, 20.77057
1208.633, 22.43838
1209.115, 22.81768
1209.598, 21.25106
1210.080, 20.01263
1210.562, 19.17517
1211.044, 19.08360
1211.526, 20.80573
1212.008, 22.03100
1212.490, 21.28880
1212.972, 19.94763
1213.454, 19.63422
1213.937, 20.11143
1214.419, 20.18753
1214.901, 19.70172
1215.383, 19.71343
1215.865, 20.36611
1216.347, 20.62667
1216.829, 20.23170
1217.311, 19.67429
1217.793, 19.21936
1218.276, 18.92112
1218.758, 18.91370
1219.240, 19.03929
1219.722, 18.65549
1220.204, 18.04210
1220.686, 18.31578
1221.168, 19.34452
1221.650, 20.50167
1222.133, 21.48856
1222.615, 21.63619
1223.097, 20.48742
1223.579, 19.17924
1224.061, 18.48211
1224.543, 18.39373
1225.025, 19.40831
1225.507, 20.63661
1225.990, 21.07981
1226.472, 20.87987
1226.954, 20.36457
1227.436, 19.67624
1227.918, 19.35415
1228.400, 19.91918
1228.882, 20.08529
1229.364, 19.00960
1229.846, 18.19573
1230.328, 18.74380
1230.811, 19.23103
1231.293, 18.13897
1231.775, 16.54511
1232.257, 16.53337
1232.739, 18.09216
1233.221, 19.58158
1233.703, 21.19007
1234.185, 21.87633
1234.668, 21.49175
1235.150, 20.27501
1235.632, 18.08057
1236.114, 17.21103
1236.596, 19.75256
1237.078, 18.25326
1237.560, 22.42842
1238.042, 19.16792
1238.525, 18.98101
1239.007, 20.83577
1239.489, 21.40490
1239.971, 20.67300
1240.453, 20.22859
1240.935, 20.52665
1241.417, 20.96453
1241.899, 21.31003
1242.381, 21.19266
1242.864, 19.68585
1243.346, 18.28804
1243.828, 18.58153
1244.310, 19.40274
1244.792, 19.14692
1245.274, 18.39460
1245.756, 19.00605
1246.238, 21.22366
1246.720, 22.13451
1247.203, 19.99755
1247.685, 18.63032
1248.167, 18.50330
1248.649, 18.92421
1249.131, 20.08940
1249.613, 21.05555
1250.095, 20.96085
1250.577, 21.69658
1251.059, 20.74396
1251.542, 21.79738
1252.024, 21.91744
1252.506, 21.11230
1252.988, 20.50376
1253.470, 20.20418
1253.952, 20.30210
1254.434, 20.78608
1254.916, 21.08117
1255.399, 20.75348
1255.881, 20.32932
1256.363, 20.56563
1256.845, 21.02584
1257.327, 21.05550
1257.809, 20.89289
1258.291, 20.98451
1258.773, 21.18079
1259.255, 20.95205
1259.738, 20.30136
1260.220, 19.97149
1260.702, 20.25641
1261.184, 20.79578
1261.666, 22.12572
1262.148, 22.81868
1262.630, 21.53040
1263.112, 20.23291
1263.594, 20.50392
1264.077, 21.51072
1264.559, 22.17311
1265.041, 22.46216
1265.523, 21.98986
1266.005, 20.52326
1266.487, 19.70558
1266.969, 19.63003
1267.451, 19.82285
1267.934, 20.18413
1268.416, 20.38383
1268.898, 20.23187
1269.380, 19.91073
1269.862, 19.47175
1270.344, 19.28121
1270.826, 20.46186
1271.308, 22.10511
1271.791, 22.48521
1272.273, 21.92134
1272.755, 21.16049
1273.237, 20.42675
1273.719, 19.81541
1274.201, 19.34776
1274.683, 19.14683
1275.165, 19.07809
1275.647, 19.55479
1276.130, 21.50516
1276.612, 23.14305
1277.094, 23.03586
1277.576, 22.42427
1278.058, 22.73278
1278.540, 23.56852
1279.022, 23.86394
1279.504, 23.60938
1279.986, 22.84553
1280.469, 21.41397
1280.951, 20.67434
1281.433, 20.82936
1281.915, 20.89484
1282.397, 20.51182
1282.879, 20.39366
1283.361, 21.17111
1283.843, 22.04099
1284.326, 22.05063
1284.808, 21.19470
##END=



