##NAMES=Graeserite
##RRUFFID=R110054
##IDEAL CHEMISTRY=Fe^3+^_4_Ti^4+^_3_As^3+^O_13_(OH)
##LOCALITY=Binntal, Wallis, Switzerland
##OWNER=RRUFF
##SOURCE=Bob Jenkins
##DESCRIPTION=Black prismatic crystals, associated with brown rutile, yellow muscovite, green clinochlore and colorless orthoclase
##STATUS=The identification of this mineral has been confirmed by single-crystal X-ray diffraction.
##URL=rruff.info/R110054
197.6692, 106.4751
198.1513, 105.7174
198.6334, 105.7895
199.1155, 106.1349
199.5977, 106.4619
200.0798, 106.7329
200.5619, 106.8803
201.0440, 106.7571
201.5261, 106.2919
202.0082, 106.0345
202.4904, 106.5565
202.9725, 106.9407
203.4546, 106.4725
203.9367, 105.1797
204.4188, 103.8711
204.9009, 103.6873
205.3831, 105.1666
205.8652, 106.1166
206.3473, 106.2132
206.8294, 106.0019
207.3115, 105.6682
207.7936, 105.2989
208.2758, 104.9902
208.7579, 104.9099
209.2400, 105.2642
209.7221, 105.3866
210.2042, 105.2572
210.6863, 104.9584
211.1685, 104.4315
211.6506, 103.7152
212.1327, 103.0413
212.6148, 102.7646
213.0969, 103.1964
213.5790, 103.3896
214.0612, 103.2306
214.5433, 102.9248
215.0254, 102.6036
215.5075, 102.3073
215.9896, 102.0360
216.4717, 101.8007
216.9539, 101.6447
217.4360, 101.4061
217.9181, 100.9519
218.4002, 100.4780
218.8823, 100.2202
219.3644, 100.2382
219.8466, 100.3158
220.3287, 100.1621
220.8108, 99.75134
221.2929, 99.25864
221.7750, 98.50771
222.2571, 97.76203
222.7393, 97.41708
223.2214, 97.59669
223.7035, 97.92857
224.1856, 97.98290
224.6677, 97.78851
225.1498, 97.45197
225.6320, 96.74755
226.1141, 95.97792
226.5962, 95.70525
227.0783, 96.12527
227.5604, 96.73725
228.0425, 97.08137
228.5247, 97.20483
229.0068, 97.24290
229.4889, 97.23092
229.9710, 97.16959
230.4531, 97.04717
230.9352, 96.83498
231.4174, 96.61955
231.8995, 96.48650
232.3816, 96.40659
232.8637, 96.29942
233.3458, 95.98682
233.8279, 95.60229
234.3101, 95.65561
234.7922, 96.48235
235.2743, 97.19300
235.7564, 97.20113
236.2385, 96.74430
236.7206, 96.29258
237.2028, 96.11629
237.6849, 96.15785
238.1670, 96.17784
238.6491, 96.20850
239.1312, 96.15919
239.6133, 95.88951
240.0955, 95.53844
240.5776, 95.35805
241.0597, 95.56863
241.5418, 96.05024
242.0239, 96.22392
242.5060, 96.02548
242.9882, 95.55721
243.4703, 94.41499
243.9524, 93.13642
244.4345, 92.55217
244.9166, 93.23652
245.3987, 94.86757
245.8809, 95.90904
246.3630, 95.94102
246.8451, 95.86559
247.3272, 95.87979
247.8093, 95.90288
248.2914, 95.80172
248.7736, 95.49619
249.2557, 95.04562
249.7378, 94.68813
250.2199, 94.34439
250.7020, 94.22005
251.1841, 94.63428
251.6663, 95.18104
252.1484, 95.29382
252.6305, 94.68911
253.1126, 93.68272
253.5947, 93.26256
254.0768, 93.94791
254.5590, 94.66435
255.0411, 95.59884
255.5232, 96.43472
256.0053, 96.75490
256.4874, 96.38481
256.9695, 95.61733
257.4517, 95.16015
257.9338, 95.33250
258.4159, 95.46094
258.8980, 95.50271
259.3801, 95.51447
259.8622, 95.54667
260.3444, 95.61757
260.8265, 95.73135
261.3086, 95.90154
261.7907, 96.24948
262.2728, 96.45199
262.7549, 96.46580
263.2371, 96.35183
263.7192, 96.12400
264.2013, 95.79276
264.6834, 95.45661
265.1655, 95.25746
265.6476, 95.22408
266.1298, 95.29808
266.6119, 95.70146
267.0940, 96.09001
267.5761, 95.97949
268.0582, 95.30523
268.5403, 94.69548
269.0225, 94.96095
269.5046, 96.39275
269.9867, 97.41302
270.4688, 97.74323
270.9509, 97.79923
271.4330, 97.94044
271.9152, 98.20695
272.3973, 98.40601
272.8794, 98.31985
273.3615, 97.92130
273.8436, 97.64619
274.3257, 97.55611
274.8079, 97.55102
275.2900, 97.58556
275.7721, 97.64921
276.2542, 97.69016
276.7363, 97.68562
277.2184, 97.61788
277.7006, 97.44881
278.1827, 97.01604
278.6648, 96.61157
279.1469, 96.48305
279.6290, 96.60233
280.1111, 96.71797
280.5933, 96.65347
281.0754, 96.48443
281.5575, 96.48349
282.0396, 96.90115
282.5217, 97.18486
283.0038, 96.82610
283.4860, 95.96042
283.9681, 95.32259
284.4502, 95.34591
284.9323, 95.71805
285.4144, 95.76280
285.8965, 95.39588
286.3787, 94.93202
286.8608, 94.46472
287.3429, 94.02409
287.8250, 93.73058
288.3071, 93.67407
288.7892, 93.71695
289.2714, 93.64880
289.7535, 93.45707
290.2356, 93.27631
290.7177, 93.22609
291.1998, 93.23633
291.6819, 93.10677
292.1641, 92.75945
292.6462, 92.32552
293.1283, 91.91761
293.6104, 91.53590
294.0925, 91.22334
294.5746, 90.97246
295.0568, 90.80769
295.5389, 90.84017
296.0210, 91.16911
296.5031, 91.43642
296.9852, 91.19725
297.4673, 90.62743
297.9495, 90.20070
298.4316, 90.26240
298.9137, 90.48180
299.3958, 90.27151
299.8779, 89.50977
300.3600, 88.85378
300.8422, 88.90037
301.3243, 89.33206
301.8064, 89.62703
302.2885, 89.66769
302.7706, 89.53288
303.2527, 89.25597
303.7349, 88.82227
304.2170, 88.44650
304.6991, 88.30590
305.1812, 88.24541
305.6633, 88.04739
306.1454, 87.65073
306.6276, 87.20297
307.1097, 86.81464
307.5918, 86.48554
308.0739, 86.19205
308.5560, 85.89066
309.0381, 85.66895
309.5203, 85.63260
310.0024, 85.79888
310.4845, 85.99392
310.9666, 86.18323
311.4487, 86.32971
311.9308, 86.19444
312.4130, 85.53946
312.8951, 84.87202
313.3772, 84.70569
313.8593, 84.97072
314.3414, 85.23885
314.8235, 85.32127
315.3057, 85.24909
315.7878, 85.08171
316.2699, 84.78683
316.7520, 84.48643
317.2341, 84.25120
317.7162, 84.07707
318.1984, 83.96861
318.6805, 83.95754
319.1626, 84.00064
319.6447, 84.06461
320.1268, 84.17524
320.6089, 84.17725
321.0911, 83.83363
321.5732, 83.36587
322.0553, 83.09120
322.5374, 83.12436
323.0195, 83.28076
323.5016, 83.44764
323.9838, 83.62804
324.4659, 83.60153
324.9480, 83.19083
325.4301, 82.58080
325.9122, 81.93099
326.3943, 81.18761
326.8765, 80.70678
327.3586, 80.97074
327.8407, 81.81367
328.3228, 82.26966
328.8049, 81.95129
329.2870, 81.40500
329.7692, 81.20989
330.2513, 81.33524
330.7334, 81.45877
331.2155, 81.37305
331.6976, 81.17932
332.1797, 81.14413
332.6619, 81.35339
333.1440, 81.55650
333.6261, 81.59707
334.1082, 81.48337
334.5903, 81.17687
335.0724, 80.42892
335.5546, 79.60147
336.0367, 79.18975
336.5188, 79.22423
337.0009, 79.39396
337.4830, 79.63596
337.9651, 79.86169
338.4473, 79.88999
338.9294, 79.58330
339.4115, 79.26322
339.8936, 79.16906
340.3757, 79.28685
340.8578, 79.54778
341.3400, 80.05338
341.8221, 80.55616
342.3042, 80.65154
342.7863, 80.26575
343.2684, 79.91708
343.7505, 79.94834
344.2327, 80.20083
344.7148, 80.27475
345.1969, 80.05063
345.6790, 79.72863
346.1611, 79.54916
346.6432, 79.48699
347.1254, 79.37551
347.6075, 79.05091
348.0896, 78.71256
348.5717, 78.66466
349.0538, 78.94260
349.5359, 79.21713
350.0181, 79.17992
350.5002, 78.93300
350.9823, 78.93641
351.4644, 79.59193
351.9465, 80.18095
352.4286, 80.09927
352.9108, 79.47786
353.3929, 78.94079
353.8750, 78.79118
354.3571, 78.91544
354.8392, 79.03918
355.3214, 79.20814
355.8035, 79.28275
356.2856, 79.16621
356.7677, 78.92986
357.2498, 78.68396
357.7319, 78.45181
358.2141, 78.25966
358.6962, 78.15565
359.1783, 78.15530
359.6604, 78.14271
360.1425, 78.12983
360.6246, 78.08394
361.1068, 77.92295
361.5889, 77.65567
362.0710, 77.46369
362.5531, 77.52320
363.0352, 77.83121
363.5173, 78.02094
363.9995, 78.05269
364.4816, 78.01995
364.9637, 77.98050
365.4458, 77.91277
365.9279, 77.71716
366.4100, 77.30953
366.8922, 76.81469
367.3743, 76.66321
367.8564, 77.26639
368.3385, 77.60715
368.8206, 77.32677
369.3027, 76.81445
369.7849, 76.53541
370.2670, 76.61543
370.7491, 76.83609
371.2312, 76.90728
371.7133, 76.80505
372.1954, 76.59061
372.6776, 76.02853
373.1597, 75.55835
373.6418, 75.60815
374.1239, 76.05589
374.6060, 76.32828
375.0881, 75.90918
375.5703, 74.83576
376.0524, 74.35609
376.5345, 75.09745
377.0166, 75.69742
377.4987, 75.82668
377.9808, 75.63190
378.4630, 75.31274
378.9451, 74.95973
379.4272, 74.61757
379.9093, 74.39040
380.3914, 74.28893
380.8735, 74.30145
381.3557, 74.40970
381.8378, 74.62688
382.3199, 75.07249
382.8020, 75.70107
383.2841, 76.23252
383.7662, 76.31403
384.2484, 75.86393
384.7305, 75.53588
385.2126, 75.32090
385.6947, 75.24543
386.1768, 75.44263
386.6589, 75.78210
387.1411, 76.01454
387.6232, 75.97795
388.1053, 75.74561
388.5874, 75.58288
389.0695, 75.53742
389.5516, 75.47273
390.0338, 75.34126
390.5159, 75.18766
390.9980, 75.03883
391.4801, 74.90328
391.9622, 74.81070
392.4443, 74.83471
392.9265, 74.99882
393.4086, 75.04893
393.8907, 74.81350
394.3728, 74.58950
394.8549, 74.58485
395.3370, 74.75362
395.8192, 74.89568
396.3013, 74.83006
396.7834, 74.64147
397.2655, 74.65315
397.7476, 74.97981
398.2297, 75.20747
398.7119, 74.91843
399.1940, 74.46043
399.6761, 74.32667
400.1582, 74.76085
400.6403, 75.28024
401.1224, 75.35522
401.6046, 75.01254
402.0867, 74.70542
402.5688, 74.59118
403.0509, 74.54309
403.5330, 74.37019
404.0151, 74.06603
404.4973, 73.87315
404.9794, 74.03955
405.4615, 74.34619
405.9436, 74.33654
406.4257, 73.91364
406.9078, 73.54619
407.3900, 73.69030
407.8721, 74.24271
408.3542, 74.62055
408.8363, 74.71729
409.3184, 74.68948
409.8005, 74.60982
410.2827, 74.48309
410.7648, 74.28857
411.2469, 73.97540
411.7290, 73.67233
412.2111, 73.73232
412.6932, 74.36376
413.1754, 74.78175
413.6575, 74.71780
414.1396, 74.44779
414.6217, 74.25004
415.1038, 74.17358
415.5859, 74.11235
416.0681, 73.94300
416.5502, 73.64077
417.0323, 73.53093
417.5144, 73.80192
417.9965, 74.03584
418.4786, 74.02985
418.9608, 73.86625
419.4429, 73.73063
419.9250, 73.72168
420.4071, 73.77364
420.8892, 73.69458
421.3713, 73.27916
421.8535, 73.05102
422.3356, 73.20252
422.8177, 73.40950
423.2998, 73.34859
423.7819, 73.02612
424.2640, 72.77193
424.7462, 72.99612
425.2283, 73.75827
425.7104, 74.11710
426.1925, 73.64450
426.6746, 73.21106
427.1567, 73.13149
427.6389, 73.23817
428.1210, 73.24699
428.6031, 73.01150
429.0852, 72.65442
429.5673, 72.43338
430.0494, 72.39255
430.5316, 72.32691
431.0137, 72.18619
431.4958, 72.00675
431.9779, 71.70623
432.4600, 71.31931
432.9421, 71.15649
433.4243, 71.65434
433.9064, 72.61576
434.3885, 73.14922
434.8706, 73.08359
435.3527, 72.89582
435.8348, 72.95859
436.3170, 73.09855
436.7991, 72.98284
437.2812, 72.35615
437.7633, 71.69491
438.2454, 71.55608
438.7275, 71.84659
439.2097, 71.86497
439.6918, 71.21508
440.1739, 70.42313
440.6560, 70.38946
441.1381, 71.16813
441.6202, 71.75346
442.1024, 71.79285
442.5845, 71.53557
443.0666, 71.19881
443.5487, 70.81937
444.0308, 70.47778
444.5129, 70.22865
444.9951, 70.07336
445.4772, 69.99595
445.9593, 69.97126
446.4414, 70.03963
446.9235, 70.37134
447.4056, 70.75867
447.8878, 70.87027
448.3699, 70.59641
448.8520, 70.11063
449.3341, 69.64706
449.8162, 69.11595
450.2983, 68.89688
450.7805, 69.38602
451.2626, 69.77542
451.7447, 69.53468
452.2268, 68.82592
452.7089, 68.13508
453.1910, 67.77740
453.6732, 67.71189
454.1553, 67.79364
454.6374, 68.16546
455.1195, 68.44029
455.6016, 68.61919
456.0837, 68.65200
456.5659, 68.40836
457.0480, 67.89891
457.5301, 67.40744
458.0122, 67.29184
458.4943, 67.54131
458.9764, 67.60259
459.4586, 67.36870
459.9407, 67.07439
460.4228, 66.77406
460.9049, 66.51547
461.3870, 66.41041
461.8691, 66.58147
462.3513, 66.78309
462.8334, 66.63637
463.3155, 66.16041
463.7976, 65.88087
464.2797, 66.08012
464.7618, 66.40189
465.2440, 66.33198
465.7261, 65.86123
466.2082, 65.54330
466.6903, 65.69285
467.1724, 66.02470
467.6545, 66.26340
468.1367, 66.37376
468.6188, 66.22320
469.1009, 65.60271
469.5830, 64.68190
470.0651, 64.30763
470.5472, 64.96938
471.0294, 65.48011
471.5115, 65.40706
471.9936, 65.07301
472.4757, 64.94428
472.9578, 65.12033
473.4399, 65.24181
473.9221, 64.81539
474.4042, 63.65300
474.8863, 63.04938
475.3684, 63.38024
475.8505, 63.79454
476.3326, 64.02524
476.8148, 64.11504
477.2969, 64.19334
477.7790, 64.32494
478.2611, 64.43551
478.7432, 64.32156
479.2253, 63.83458
479.7075, 63.54891
480.1896, 63.76820
480.6717, 64.00709
481.1538, 63.90574
481.6359, 63.54670
482.1180, 63.35598
482.6002, 63.79457
483.0823, 64.55565
483.5644, 64.68784
484.0465, 64.00719
484.5286, 63.36804
485.0107, 63.17059
485.4929, 63.20873
485.9750, 63.27009
486.4571, 63.35014
486.9392, 63.37098
487.4213, 63.26827
487.9034, 63.07425
488.3856, 62.81312
488.8677, 62.46415
489.3498, 62.23391
489.8319, 62.35023
490.3140, 62.78827
490.7961, 63.09132
491.2783, 63.29176
491.7604, 63.32805
492.2425, 63.02814
492.7246, 62.57125
493.2067, 62.34355
493.6888, 62.48185
494.1710, 62.68357
494.6531, 62.44660
495.1352, 61.51189
495.6173, 60.96533
496.0994, 61.06977
496.5815, 61.24749
497.0637, 61.14524
497.5458, 60.90160
498.0279, 60.90627
498.5100, 61.40825
498.9921, 62.13666
499.4742, 62.39376
499.9564, 62.01768
500.4385, 61.56968
500.9206, 60.81133
501.4027, 60.25326
501.8848, 60.35976
502.3669, 61.04055
502.8491, 61.72159
503.3312, 62.02885
503.8133, 62.04770
504.2954, 61.96845
504.7775, 61.76397
505.2596, 61.59109
505.7418, 61.51365
506.2239, 61.51935
506.7060, 61.66897
507.1881, 62.07637
507.6702, 62.15328
508.1523, 61.16378
508.6345, 59.79562
509.1166, 59.30592
509.5987, 59.88147
510.0808, 60.67697
510.5629, 61.03887
511.0450, 60.99560
511.5272, 60.95962
512.0093, 60.90250
512.4914, 60.88422
512.9735, 60.94367
513.4556, 61.04285
513.9377, 61.17044
514.4199, 61.30898
514.9020, 61.35854
515.3841, 61.15133
515.8662, 60.60955
516.3483, 60.34990
516.8304, 60.78045
517.3126, 61.06440
517.7947, 60.85484
518.2768, 60.38530
518.7589, 59.98655
519.2410, 59.78661
519.7231, 59.73689
520.2053, 59.83207
520.6874, 60.09276
521.1695, 60.17271
521.6516, 59.88585
522.1337, 59.58762
522.6158, 59.58131
523.0980, 59.76111
523.5801, 59.81950
524.0622, 59.58612
524.5443, 59.24707
525.0264, 58.88915
525.5085, 58.55489
525.9907, 58.58429
526.4728, 59.21456
526.9549, 59.99371
527.4370, 60.19781
527.9191, 59.72134
528.4012, 59.40327
528.8834, 59.41123
529.3655, 59.52969
529.8476, 59.71081
530.3297, 59.88099
530.8118, 59.84854
531.2939, 59.49605
531.7761, 58.97105
532.2582, 58.65147
532.7403, 58.64536
533.2224, 58.65441
533.7045, 58.58920
534.1866, 58.60627
534.6688, 58.90739
535.1509, 59.38574
535.6330, 59.72089
536.1151, 59.68281
536.5972, 59.38795
537.0793, 59.10585
537.5615, 58.79984
538.0436, 58.66896
538.5257, 58.92104
539.0078, 59.26260
539.4899, 59.49651
539.9720, 59.60748
540.4542, 59.51685
540.9363, 58.94987
541.4184, 58.27640
541.9005, 58.08776
542.3826, 58.38114
542.8647, 58.68882
543.3469, 58.76293
543.8290, 58.70144
544.3111, 58.75948
544.7932, 58.97481
545.2753, 59.19739
545.7574, 59.50432
546.2396, 59.74102
546.7217, 59.74799
547.2038, 59.54451
547.6859, 59.25407
548.1680, 58.94804
548.6501, 58.65245
549.1323, 58.49386
549.6144, 58.59087
550.0965, 58.62147
550.5786, 58.44353
551.0607, 58.27639
551.5428, 58.29137
552.0250, 58.48562
552.5071, 58.72773
552.9892, 58.87788
553.4713, 59.02016
553.9534, 59.53511
554.4355, 60.57513
554.9177, 61.18201
555.3998, 60.68326
555.8819, 59.75554
556.3640, 59.32162
556.8461, 59.43962
557.3282, 59.67229
557.8104, 60.01867
558.2925, 60.29241
558.7746, 60.15373
559.2567, 59.65123
559.7388, 59.28936
560.2209, 59.39546
560.7031, 59.81643
561.1852, 60.06254
561.6673, 59.90559
562.1494, 59.89719
562.6315, 60.27642
563.1136, 60.62507
563.5958, 60.58197
564.0779, 60.20474
564.5600, 59.78814
565.0421, 59.51111
565.5242, 59.39743
566.0063, 59.63433
566.4885, 60.50209
566.9706, 60.89541
567.4527, 59.90321
567.9348, 58.83117
568.4169, 58.69427
568.8990, 59.42028
569.3812, 60.09211
569.8633, 60.14381
570.3454, 59.90676
570.8275, 59.79197
571.3096, 59.80806
571.7917, 60.05397
572.2739, 60.68723
572.7560, 61.39228
573.2381, 61.57622
573.7202, 61.13333
574.2023, 60.63708
574.6844, 59.89078
575.1666, 59.32148
575.6487, 59.35383
576.1308, 59.80987
576.6129, 60.18335
577.0950, 60.20573
577.5771, 60.06736
578.0593, 60.23544
578.5414, 60.93610
579.0235, 61.32259
579.5056, 61.21111
579.9877, 60.90245
580.4698, 60.22675
580.9520, 59.47262
581.4341, 59.30986
581.9162, 60.24271
582.3983, 61.46354
582.8804, 61.85415
583.3625, 61.48561
583.8447, 61.09119
584.3268, 60.82909
584.8089, 60.60797
585.2910, 60.25583
585.7731, 59.81247
586.2552, 59.71499
586.7374, 60.52830
587.2195, 61.14545
587.7016, 60.64991
588.1837, 59.65563
588.6658, 59.29551
589.1479, 59.89281
589.6301, 60.85627
590.1122, 61.50328
590.5943, 61.82911
591.0764, 61.85555
591.5585, 61.06341
592.0406, 60.58258
592.5228, 60.97242
593.0049, 61.67529
593.4870, 62.02156
593.9691, 61.84335
594.4512, 61.49168
594.9333, 61.23930
595.4155, 61.08395
595.8976, 61.00346
596.3797, 60.98013
596.8618, 61.12551
597.3439, 61.69142
597.8260, 62.39481
598.3082, 62.55615
598.7903, 61.99196
599.2724, 61.35440
599.7545, 60.62879
600.2366, 60.07117
600.7188, 60.07903
601.2009, 60.59121
601.6830, 61.14851
602.1651, 61.45865
602.6472, 61.53939
603.1293, 61.43135
603.6115, 60.92268
604.0936, 60.61894
604.5757, 60.80272
605.0578, 60.96981
605.5399, 60.68821
606.0220, 60.10078
606.5042, 59.72579
606.9863, 59.91503
607.4684, 60.37576
607.9505, 60.69397
608.4326, 60.86891
608.9147, 60.81250
609.3969, 60.36443
609.8790, 59.93432
610.3611, 60.09873
610.8432, 60.79219
611.3253, 61.16076
611.8074, 60.98856
612.2896, 60.60363
612.7717, 59.92849
613.2538, 59.22781
613.7359, 59.02648
614.2180, 59.44828
614.7001, 60.01878
615.1823, 60.19361
615.6644, 59.96068
616.1465, 59.54943
616.6286, 58.48640
617.1107, 57.92385
617.5928, 58.51949
618.0750, 59.51260
618.5571, 60.16777
619.0392, 60.33784
619.5213, 60.24612
620.0034, 59.90807
620.4855, 59.46634
620.9677, 59.23882
621.4498, 59.24232
621.9319, 59.40066
622.4140, 59.77018
622.8961, 60.17311
623.3782, 60.19420
623.8604, 59.72011
624.3425, 59.28039
624.8246, 58.73167
625.3067, 58.41525
625.7888, 58.83593
626.2709, 59.66361
626.7531, 60.04468
627.2352, 59.54762
627.7173, 58.69884
628.1994, 58.53137
628.6815, 59.22754
629.1636, 59.57484
629.6458, 59.24389
630.1279, 58.89526
630.6100, 58.95061
631.0921, 59.19192
631.5742, 59.21926
632.0563, 58.88412
632.5385, 58.47308
633.0206, 58.14907
633.5027, 57.90709
633.9848, 57.73505
634.4669, 57.63204
634.9490, 57.60404
635.4312, 57.65527
635.9133, 57.78437
636.3954, 57.98720
636.8775, 58.26242
637.3596, 58.61924
637.8417, 59.48510
638.3239, 60.08347
638.8060, 59.53210
639.2881, 58.17170
639.7702, 57.18557
640.2523, 57.33837
640.7344, 58.10888
641.2166, 58.55703
641.6987, 58.67765
642.1808, 58.59857
642.6629, 58.24882
643.1450, 57.85919
643.6271, 57.59258
644.1093, 57.44714
644.5914, 57.45826
645.0735, 57.79898
645.5556, 58.10498
646.0377, 58.27915
646.5198, 58.28519
647.0020, 57.93713
647.4841, 57.27089
647.9662, 56.74017
648.4483, 56.78387
648.9304, 57.30398
649.4125, 57.60861
649.8947, 57.63241
650.3768, 57.55275
650.8589, 57.35128
651.3410, 57.10180
651.8231, 56.76397
652.3052, 56.39857
652.7874, 56.25208
653.2695, 56.56789
653.7516, 57.04801
654.2337, 57.32569
654.7158, 57.44115
655.1979, 57.62759
655.6801, 57.98406
656.1622, 58.22186
656.6443, 57.96442
657.1264, 57.17189
657.6085, 56.67050
658.0906, 56.52987
658.5728, 56.54796
659.0549, 56.81361
659.5370, 57.13154
660.0191, 57.31202
660.5012, 57.32671
660.9833, 57.26369
661.4655, 57.21021
661.9476, 57.12608
662.4297, 56.83370
662.9118, 56.29119
663.3939, 55.87270
663.8760, 55.69201
664.3582, 55.68706
664.8403, 55.84613
665.3224, 56.15316
665.8045, 56.39574
666.2866, 56.45237
666.7687, 56.52835
667.2509, 56.89854
667.7330, 57.31104
668.2151, 57.28149
668.6972, 56.71833
669.1793, 56.02632
669.6614, 55.58979
670.1436, 55.40825
670.6257, 55.49427
671.1078, 56.03835
671.5899, 56.45612
672.0720, 56.49125
672.5541, 56.40449
673.0363, 56.41994
673.5184, 56.53143
674.0005, 56.53886
674.4826, 56.20534
674.9647, 55.84993
675.4468, 55.81327
675.9290, 56.02070
676.4111, 56.27766
676.8932, 56.52652
677.3753, 56.67975
677.8574, 56.60707
678.3395, 56.29430
678.8217, 56.12670
679.3038, 56.22480
679.7859, 56.32022
680.2680, 56.40625
680.7501, 56.44535
681.2322, 56.38927
681.7144, 56.24462
682.1965, 56.07850
682.6786, 55.91958
683.1607, 55.77747
683.6428, 55.65955
684.1249, 55.56891
684.6071, 55.56260
685.0892, 55.68762
685.5713, 55.78619
686.0534, 55.65088
686.5355, 55.26101
687.0176, 55.01179
687.4998, 54.92575
687.9819, 54.93658
688.4640, 55.20250
688.9461, 55.44763
689.4282, 55.31051
689.9103, 54.81479
690.3925, 54.36013
690.8746, 54.23962
691.3567, 54.38058
691.8388, 54.70475
692.3209, 55.22863
692.8030, 55.47834
693.2852, 55.20564
693.7673, 54.85534
694.2494, 54.94989
694.7315, 55.44881
695.2136, 55.68872
695.6957, 55.49936
696.1779, 55.22630
696.6600, 54.83494
697.1421, 54.51126
697.6242, 54.52737
698.1063, 54.86159
698.5884, 55.22955
699.0706, 55.44244
699.5527, 55.48672
700.0348, 55.27718
700.5169, 54.76658
700.9990, 54.29393
701.4811, 53.87996
701.9633, 53.58184
702.4454, 53.39724
702.9275, 53.35737
703.4096, 53.62006
703.8917, 54.55151
704.3738, 55.31236
704.8560, 55.53358
705.3381, 55.41041
705.8202, 55.01824
706.3023, 54.48042
706.7844, 54.17867
707.2665, 54.39993
707.7487, 54.94463
708.2308, 55.28476
708.7129, 55.40638
709.1950, 55.37800
709.6771, 55.12272
710.1592, 54.82912
710.6414, 54.57851
711.1235, 54.38442
711.6056, 54.27302
712.0877, 54.22611
712.5698, 54.31604
713.0519, 54.76057
713.5341, 55.25022
714.0162, 55.36396
714.4983, 55.13843
714.9804, 54.90789
715.4625, 54.86104
715.9446, 54.92800
716.4268, 54.96574
716.9089, 54.97152
717.3910, 54.96508
717.8731, 54.99011
718.3552, 54.94007
718.8373, 54.68768
719.3195, 54.36531
719.8016, 54.13139
720.2837, 53.98582
720.7658, 54.05917
721.2479, 54.63091
721.7300, 55.29814
722.2122, 55.66706
722.6943, 55.73533
723.1764, 55.57207
723.6585, 55.20398
724.1406, 54.76551
724.6227, 54.44633
725.1049, 54.23973
725.5870, 54.22080
726.0691, 54.59538
726.5512, 54.82166
727.0333, 54.50954
727.5154, 54.09180
727.9976, 54.00599
728.4797, 54.28672
728.9618, 54.67100
729.4439, 55.26228
729.9260, 55.72566
730.4081, 55.67234
730.8903, 55.25772
731.3724, 54.80184
731.8545, 54.41286
732.3366, 54.18707
732.8187, 54.25439
733.3008, 54.58471
733.7830, 54.82367
734.2651, 54.99786
734.7472, 55.02211
735.2293, 54.67078
735.7114, 54.33268
736.1935, 54.37463
736.6757, 54.69957
737.1578, 54.83454
737.6399, 54.49916
738.1220, 54.11134
738.6041, 53.89411
739.0862, 53.82905
739.5684, 53.95418
740.0505, 54.23465
740.5326, 54.45837
741.0147, 54.45871
741.4968, 54.32830
741.9789, 54.38517
742.4611, 54.73848
742.9432, 54.86468
743.4253, 54.54946
743.9074, 54.20546
744.3895, 54.09990
744.8716, 54.11990
745.3538, 54.03298
745.8359, 53.73576
746.3180, 53.55467
746.8001, 53.81437
747.2822, 54.13361
747.7643, 53.98838
748.2465, 53.53421
748.7286, 53.40049
749.2107, 53.87464
749.6928, 54.52608
750.1749, 54.68225
750.6570, 54.31484
751.1392, 54.04173
751.6213, 53.86850
752.1034, 53.77393
752.5855, 53.74069
753.0676, 53.79216
753.5497, 54.04266
754.0319, 54.50444
754.5140, 54.67632
754.9961, 54.09091
755.4782, 53.54470
755.9603, 53.57624
756.4424, 53.93853
756.9246, 54.25861
757.4067, 54.44614
757.8888, 54.59382
758.3709, 54.79053
758.8530, 55.00219
759.3351, 55.12084
759.8173, 55.14706
760.2994, 55.05631
760.7815, 54.76370
761.2636, 54.49780
761.7457, 54.49522
762.2278, 54.69480
762.7100, 54.78873
763.1921, 54.74787
763.6742, 54.63756
764.1563, 54.38973
764.6384, 54.14680
765.1205, 54.08455
765.6027, 54.12601
766.0848, 54.00914
766.5669, 53.60026
767.0490, 53.18266
767.5311, 53.19769
768.0132, 53.55442
768.4954, 53.72443
768.9775, 53.65381
769.4596, 53.59061
769.9417, 53.65058
770.4238, 53.78991
770.9059, 53.94069
771.3881, 54.11192
771.8702, 54.25323
772.3523, 54.24740
772.8344, 54.35151
773.3165, 54.93604
773.7986, 55.50959
774.2808, 55.38463
774.7629, 54.56757
775.2450, 53.83689
775.7271, 53.74085
776.2092, 53.99989
776.6913, 54.29631
777.1735, 54.59928
777.6556, 54.78352
778.1377, 54.82136
778.6198, 54.70146
779.1019, 54.36182
779.5840, 53.89332
780.0662, 53.78666
780.5483, 54.32627
781.0304, 54.68789
781.5125, 54.73034
781.9946, 54.67931
782.4767, 54.55369
782.9589, 54.43511
783.4410, 54.50406
783.9231, 54.85841
784.4052, 55.12230
784.8873, 55.00072
785.3694, 54.71184
785.8516, 54.50679
786.3337, 54.37991
786.8158, 54.23480
787.2979, 54.03351
787.7800, 53.82299
788.2621, 53.61158
788.7443, 53.41320
789.2264, 53.69806
789.7085, 54.71872
790.1906, 55.53392
790.6727, 55.99829
791.1548, 56.02293
791.6370, 55.23753
792.1191, 53.81100
792.6012, 52.98639
793.0833, 53.33635
793.5654, 53.82421
794.0475, 54.08855
794.5297, 54.28168
795.0118, 54.54803
795.4939, 54.89991
795.9760, 55.33967
796.4581, 55.89946
796.9402, 56.34491
797.4224, 56.19680
797.9045, 55.56622
798.3866, 55.23462
798.8687, 55.29585
799.3508, 55.37646
799.8329, 55.26317
800.3151, 55.09747
800.7972, 55.16978
801.2793, 55.60362
801.7614, 55.78503
802.2435, 55.46181
802.7256, 55.22119
803.2078, 55.31894
803.6899, 55.52781
804.1720, 55.63404
804.6541, 55.60600
805.1362, 55.48426
805.6183, 55.20023
806.1005, 54.93907
806.5826, 54.87969
807.0647, 54.99474
807.5468, 55.32132
808.0289, 55.82221
808.5110, 56.13556
808.9932, 55.98787
809.4753, 55.53724
809.9574, 55.17188
810.4395, 54.86929
810.9216, 54.75138
811.4037, 54.85981
811.8859, 55.09745
812.3680, 55.66427
812.8501, 56.21406
813.3322, 56.13661
813.8143, 55.28674
814.2964, 54.70053
814.7786, 54.79189
815.2607, 55.02013
815.7428, 55.12218
816.2249, 55.13946
816.7070, 55.15106
817.1891, 55.17124
817.6713, 55.15919
818.1534, 55.05870
818.6355, 54.94525
819.1176, 55.05436
819.5997, 55.32902
820.0818, 55.25501
820.5640, 54.70204
821.0461, 54.15070
821.5282, 53.93091
822.0103, 53.96983
822.4924, 54.05579
822.9745, 54.24009
823.4567, 54.35777
823.9388, 54.49472
824.4209, 54.46851
824.9030, 53.99105
825.3851, 53.42867
825.8672, 53.29522
826.3494, 53.65536
826.8315, 54.02153
827.3136, 54.31496
827.7957, 54.38251
828.2778, 53.87388
828.7599, 53.11900
829.2421, 52.73993
829.7242, 52.82861
830.2063, 53.06437
830.6884, 53.23511
831.1705, 53.29714
831.6526, 53.04317
832.1348, 52.45340
832.6169, 52.23616
833.0990, 52.58540
833.5811, 52.95127
834.0632, 53.02737
834.5453, 52.89447
835.0275, 52.71873
835.5096, 52.48307
835.9917, 52.25483
836.4738, 52.03409
836.9559, 51.81965
837.4380, 51.56857
837.9202, 51.34883
838.4023, 51.23470
838.8844, 51.23273
839.3665, 51.30906
839.8486, 51.59404
840.3307, 51.76464
840.8129, 51.37871
841.2950, 50.67476
841.7771, 50.08808
842.2592, 49.69588
842.7413, 49.45662
843.2234, 49.35228
843.7056, 49.35319
844.1877, 49.44942
844.6698, 49.66565
845.1519, 49.62634
845.6340, 49.19781
846.1161, 48.86662
846.5983, 48.87386
847.0804, 49.04694
847.5625, 49.18319
848.0446, 49.28904
848.5267, 49.25390
849.0089, 48.99554
849.4910, 48.69582
849.9731, 48.35947
850.4552, 48.03759
850.9373, 47.74063
851.4194, 47.49772
851.9016, 47.39059
852.3837, 47.48429
852.8658, 47.61260
853.3479, 47.58651
853.8300, 47.50916
854.3121, 47.59517
854.7943, 47.81904
855.2764, 47.99556
855.7585, 48.04428
856.2406, 48.01078
856.7227, 47.99334
857.2048, 47.96568
857.6870, 47.48262
858.1691, 46.36611
858.6512, 45.51106
859.1333, 45.17747
859.6154, 45.10812
860.0975, 45.12243
860.5797, 45.21655
861.0618, 45.37134
861.5439, 45.88089
862.0260, 45.96135
862.5081, 45.03062
862.9902, 44.15393
863.4724, 44.02528
863.9545, 44.35986
864.4366, 44.70161
864.9187, 44.93019
865.4008, 44.97028
865.8829, 44.53703
866.3651, 44.07959
866.8472, 44.27584
867.3293, 44.83290
867.8114, 44.94612
868.2935, 44.50039
868.7756, 44.14828
869.2578, 44.42749
869.7399, 44.11203
870.2220, 44.07249
870.7041, 44.24324
871.1862, 44.00229
871.6683, 44.52931
872.1505, 44.77909
872.6326, 44.02345
873.1147, 42.90526
873.5968, 42.54216
874.0789, 43.11630
874.5610, 43.46735
875.0432, 43.40183
875.5253, 43.37581
876.0074, 43.65527
876.4895, 43.88402
876.9716, 43.65331
877.4537, 43.08636
877.9359, 42.70890
878.4180, 42.75091
878.9001, 42.87500
879.3822, 42.93720
879.8643, 42.92566
880.3464, 42.81951
880.8286, 42.62855
881.3107, 42.33063
881.7928, 41.93396
882.2749, 41.62915
882.7570, 41.68775
883.2391, 41.97089
883.7213, 42.02857
884.2034, 41.87345
884.6855, 41.68927
885.1676, 41.50402
885.6497, 41.41735
886.1318, 41.54758
886.6140, 41.78916
887.0961, 41.76514
887.5782, 41.32805
888.0603, 41.00006
888.5424, 40.77232
889.0245, 40.67075
889.5067, 40.87634
889.9888, 41.10957
890.4709, 40.97567
890.9530, 40.46532
891.4351, 40.13271
891.9172, 40.19983
892.3994, 40.32875
892.8815, 40.46569
893.3636, 40.53714
893.8457, 40.38982
894.3278, 40.11804
894.8099, 40.01020
895.2921, 40.20340
895.7742, 40.46213
896.2563, 40.67094
896.7384, 40.74176
897.2205, 40.44939
897.7026, 39.86507
898.1848, 39.21630
898.6669, 38.58886
899.1490, 38.20720
899.6311, 38.32682
900.1132, 38.81303
900.5953, 39.18795
901.0775, 39.45622
901.5596, 39.53957
902.0417, 39.38837
902.5238, 39.16317
903.0059, 38.90440
903.4880, 38.69035
903.9702, 38.72400
904.4523, 39.14759
904.9344, 39.24141
905.4165, 38.66911
905.8986, 38.20270
906.3807, 38.06396
906.8629, 38.05555
907.3450, 37.99286
907.8271, 37.90055
908.3092, 37.92608
908.7913, 38.12436
909.2734, 38.40966
909.7556, 38.86761
910.2377, 39.29032
910.7198, 39.51487
911.2019, 39.55307
911.6840, 39.44314
912.1661, 39.20344
912.6483, 38.87274
913.1304, 38.40678
913.6125, 37.93721
914.0946, 37.69241
914.5767, 37.62862
915.0588, 37.60796
915.5410, 37.60780
916.0231, 37.69281
916.5052, 37.91767
916.9873, 38.17336
917.4694, 38.23938
917.9515, 38.10879
918.4337, 37.96202
918.9158, 37.78099
919.3979, 37.66778
919.8800, 37.65429
920.3621, 37.74152
920.8442, 38.02462
921.3264, 38.44582
921.8085, 38.37214
922.2906, 37.20193
922.7727, 36.52292
923.2548, 36.71273
923.7369, 37.04840
924.2191, 37.22453
924.7012, 37.31982
925.1833, 37.50410
925.6654, 37.80627
926.1475, 37.94453
926.6296, 37.57398
927.1118, 37.32663
927.5939, 37.72760
928.0760, 38.27387
928.5581, 38.45665
929.0402, 38.25005
929.5223, 37.75312
930.0045, 36.93851
930.4866, 36.32405
930.9687, 36.62672
931.4508, 37.27866
931.9329, 37.36157
932.4150, 36.99878
932.8972, 36.68921
933.3793, 36.57917
933.8614, 36.57386
934.3435, 36.61264
934.8256, 36.65272
935.3077, 36.54923
935.7899, 36.31945
936.2720, 36.24337
936.7541, 36.36695
937.2362, 36.45864
937.7183, 36.40569
938.2004, 36.25556
938.6826, 36.06025
939.1647, 35.81617
939.6468, 35.68737
940.1289, 35.68153
940.6110, 35.78318
941.0931, 36.11716
941.5753, 36.39093
942.0574, 36.35749
942.5395, 36.11544
943.0216, 35.92633
943.5037, 35.78055
943.9858, 35.71968
944.4680, 35.84997
944.9501, 35.94076
945.4322, 35.78323
945.9143, 35.63243
946.3964, 35.87224
946.8785, 36.39916
947.3607, 36.61959
947.8428, 36.17855
948.3249, 35.74617
948.8070, 35.74767
949.2891, 35.86747
949.7712, 35.78536
950.2534, 35.59421
950.7355, 35.54797
951.2176, 35.69564
951.6997, 35.81846
952.1818, 35.66101
952.6639, 35.50661
953.1461, 35.90661
953.6282, 36.56775
954.1103, 36.74803
954.5924, 36.42826
955.0745, 36.07594
955.5566, 35.92025
956.0388, 35.85219
956.5209, 35.73453
957.0030, 35.57289
957.4851, 35.39494
957.9672, 35.19979
958.4493, 34.93459
958.9315, 34.55422
959.4136, 34.38457
959.8957, 34.71193
960.3778, 35.32452
960.8599, 35.67998
961.3420, 35.73783
961.8242, 35.72388
962.3063, 35.58553
962.7884, 35.50569
963.2705, 35.55729
963.7526, 35.67731
964.2347, 35.87037
964.7169, 36.09646
965.1990, 36.05936
965.6811, 35.32298
966.1632, 34.99605
966.6453, 35.57524
967.1274, 35.99571
967.6096, 35.65594
968.0917, 34.99765
968.5738, 34.55755
969.0559, 34.37313
969.5380, 34.26027
970.0201, 34.17641
970.5023, 34.15200
970.9844, 34.22100
971.4665, 34.33203
971.9486, 34.48438
972.4307, 34.63420
972.9128, 34.69617
973.3950, 34.65009
973.8771, 34.60167
974.3592, 34.68786
974.8413, 34.72339
975.3234, 34.49615
975.8055, 34.14092
976.2877, 33.76881
976.7698, 33.46584
977.2519, 33.46001
977.7340, 33.86827
978.2161, 34.30672
978.6982, 34.30672
979.1804, 34.46523
979.6625, 34.08234
980.1446, 34.21587
980.6267, 34.02858
981.1088, 33.48119
981.5909, 33.15261
982.0731, 33.47720
982.5552, 33.14247
983.0373, 33.90568
983.5194, 33.25263
984.0015, 33.09619
984.4836, 33.46508
984.9658, 33.80896
985.4479, 33.95718
985.9300, 34.02155
986.4121, 34.11316
986.8942, 34.19032
987.3763, 34.05444
987.8585, 33.63783
988.3406, 33.48083
988.8227, 33.68915
989.3048, 33.88537
989.7869, 33.90953
990.2690, 33.86803
990.7512, 33.90657
991.2333, 34.00648
991.7154, 33.91405
992.1975, 33.42942
992.6796, 33.18016
993.1617, 33.32422
993.6439, 33.54951
994.1260, 33.80766
994.6081, 34.00629
995.0902, 33.99193
995.5723, 33.75786
996.0544, 33.52871
996.5366, 33.08548
997.0187, 32.97283
997.5008, 33.68722
997.9829, 34.33957
998.4650, 34.33337
998.9471, 33.91937
999.4293, 33.50014
999.9114, 33.12092
1000.393, 32.90499
1000.876, 32.91518
1001.358, 33.05967
1001.840, 33.52003
1002.322, 33.91194
1002.804, 33.77045
1003.286, 33.30993
1003.768, 33.10402
1004.250, 33.32706
1004.733, 33.47874
1005.215, 33.14843
1005.697, 32.80185
1006.179, 32.80790
1006.661, 32.99387
1007.143, 33.16870
1007.625, 33.29364
1008.107, 33.37952
1008.589, 33.43213
1009.072, 33.41873
1009.554, 33.32368
1010.036, 33.13818
1010.518, 32.61847
1011.000, 32.08473
1011.482, 32.39391
1011.964, 33.43684
1012.446, 34.01173
1012.929, 33.41369
1013.411, 32.61319
1013.893, 33.00695
1014.375, 33.92405
1014.857, 33.88889
1015.339, 33.14498
1015.821, 32.64894
1016.303, 32.61296
1016.785, 32.74217
1017.268, 32.83960
1017.750, 32.97178
1018.232, 33.36296
1018.714, 33.88439
1019.196, 33.91431
1019.678, 33.49924
1020.160, 33.23244
1020.642, 33.27567
1021.125, 33.35116
1021.607, 33.23168
1022.089, 33.00935
1022.571, 32.90272
1023.053, 32.90313
1023.535, 32.79334
1024.017, 32.55007
1024.499, 32.70725
1024.981, 33.51484
1025.464, 34.13367
1025.946, 33.73071
1026.428, 32.68167
1026.910, 32.17613
1027.392, 32.26782
1027.874, 32.40977
1028.356, 32.60407
1028.838, 32.75832
1029.321, 32.85248
1029.803, 32.85457
1030.285, 32.71022
1030.767, 32.46196
1031.249, 32.30827
1031.731, 32.28299
1032.213, 32.22013
1032.695, 32.10882
1033.177, 31.95336
1033.660, 31.64883
1034.142, 31.49527
1034.624, 31.94277
1035.106, 32.81947
1035.588, 32.99621
1036.070, 31.99751
1036.552, 31.44799
1037.034, 31.54288
1037.516, 31.81131
1037.999, 32.19200
1038.481, 32.55068
1038.963, 32.75008
1039.445, 32.79826
1039.927, 32.75214
1040.409, 32.45549
1040.891, 32.34277
1041.373, 32.59682
1041.855, 32.80378
1042.338, 32.89189
1042.820, 32.80291
1043.302, 32.34440
1043.784, 31.59630
1044.266, 31.16079
1044.748, 31.24836
1045.230, 31.32576
1045.712, 31.31565
1046.195, 31.35232
1046.677, 31.60908
1047.159, 31.85441
1047.641, 31.70084
1048.123, 31.24854
1048.605, 31.23062
1049.087, 32.12296
1049.569, 32.72692
1050.052, 32.65236
1050.534, 32.51263
1051.016, 32.58119
1051.498, 32.73371
1051.980, 32.84441
1052.462, 32.90046
1052.944, 32.90877
1053.426, 32.92345
1053.908, 32.78271
1054.391, 32.29811
1054.873, 31.82589
1055.355, 31.53132
1055.837, 31.35519
1056.319, 31.21115
1056.801, 31.10668
1057.283, 31.12814
1057.765, 31.38121
1058.248, 31.55719
1058.730, 31.60702
1059.212, 31.51060
1059.694, 30.95544
1060.176, 30.45840
1060.658, 30.78009
1061.140, 31.74529
1061.622, 32.36538
1062.104, 32.26466
1062.587, 32.11551
1063.069, 32.20446
1063.551, 32.26062
1064.033, 32.06140
1064.515, 31.78856
1064.997, 31.70393
1065.479, 31.75374
1065.961, 31.60541
1066.443, 31.03138
1066.926, 30.73776
1067.408, 31.26137
1067.890, 31.86343
1068.372, 32.19141
1068.854, 32.29490
1069.336, 32.20107
1069.818, 31.96277
1070.300, 31.67460
1070.782, 31.32727
1071.265, 31.10788
1071.747, 31.14701
1072.229, 31.28075
1072.711, 31.48596
1073.193, 31.67617
1073.675, 31.75204
1074.157, 31.73336
1074.639, 31.70261
1075.122, 31.68477
1075.604, 31.63858
1076.086, 31.48315
1076.568, 31.36765
1077.050, 31.45297
1077.532, 31.56377
1078.014, 31.45971
1078.496, 31.23536
1078.979, 31.17524
1079.461, 31.35924
1079.943, 31.56022
1080.425, 31.86408
1080.907, 31.92322
1081.389, 31.04590
1081.871, 30.26037
1082.353, 30.88549
1082.835, 32.28715
1083.318, 32.98105
1083.800, 32.63528
1084.282, 32.07008
1084.764, 31.37643
1085.246, 30.88266
1085.728, 30.99934
1086.210, 31.15818
1086.692, 30.68936
1087.175, 29.97013
1087.657, 29.84295
1088.139, 30.40224
1088.621, 30.68804
1089.103, 29.86426
1089.585, 29.33042
1090.067, 30.09283
1090.549, 30.97413
1091.031, 31.02347
1091.514, 30.60899
1091.996, 30.31429
1092.478, 30.23091
1092.960, 30.25074
1093.442, 30.42152
1093.924, 30.53327
1094.406, 30.44578
1094.888, 30.34203
1095.370, 30.35751
1095.853, 30.41775
1096.335, 30.42606
1096.817, 30.37803
1097.299, 30.29930
1097.781, 30.11697
1098.263, 30.11121
1098.745, 30.57994
1099.227, 31.00104
1099.709, 31.12033
1100.192, 31.03757
1100.674, 30.79470
1101.156, 30.45877
1101.638, 30.20590
1102.120, 30.09320
1102.602, 29.97022
1103.084, 29.72749
1103.566, 29.55963
1104.049, 29.51412
1104.531, 29.59998
1105.013, 29.92373
1105.495, 30.35827
1105.977, 30.61289
1106.459, 30.63462
1106.941, 30.60779
1107.423, 30.62664
1107.906, 30.51122
1108.388, 30.04471
1108.870, 29.60323
1109.352, 29.40327
1109.834, 29.41082
1110.316, 29.62202
1110.798, 30.05359
1111.280, 30.27977
1111.762, 30.10824
1112.245, 29.97205
1112.727, 29.99263
1113.209, 29.98106
1113.691, 29.82302
1114.173, 29.59685
1114.655, 29.32675
1115.137, 29.03645
1115.619, 29.04576
1116.102, 29.57959
1116.584, 30.01925
1117.066, 30.42632
1117.548, 30.62909
1118.030, 30.43900
1118.512, 30.15730
1118.994, 30.05283
1119.476, 30.09826
1119.958, 30.20225
1120.441, 30.45465
1120.923, 30.45809
1121.405, 30.04715
1121.887, 29.76776
1122.369, 29.86915
1122.851, 29.91459
1123.333, 29.46408
1123.815, 28.86251
1124.297, 28.94610
1124.780, 29.80674
1125.262, 30.11282
1125.744, 29.66016
1126.226, 29.40596
1126.708, 29.53232
1127.190, 29.85073
1127.672, 30.36035
1128.154, 30.72849
1128.636, 30.37502
1129.119, 29.44050
1129.601, 29.19530
1130.083, 29.72551
1130.565, 29.92562
1131.047, 29.63686
1131.529, 29.49164
1132.011, 29.75935
1132.493, 30.15431
1132.976, 30.41273
1133.458, 30.52437
1133.940, 30.42990
1134.422, 30.14507
1134.904, 29.79885
1135.386, 29.41476
1135.868, 29.40046
1136.350, 29.85559
1136.833, 30.19370
1137.315, 29.98378
1137.797, 29.53145
1138.279, 29.33552
1138.761, 29.32813
1139.243, 29.22991
1139.725, 29.10289
1140.207, 29.32174
1140.689, 29.86420
1141.172, 30.16157
1141.654, 29.94744
1142.136, 29.59471
1142.618, 29.45176
1143.100, 29.47791
1143.582, 29.76090
1144.064, 30.09308
1144.546, 29.94972
1145.029, 29.44963
1145.511, 29.07457
1145.993, 28.97160
1146.475, 29.03279
1146.957, 29.22442
1147.439, 29.44719
1147.921, 29.65440
1148.403, 29.79502
1148.885, 29.81940
1149.368, 29.72316
1149.850, 29.36225
1150.332, 28.86313
1150.814, 28.78331
1151.296, 29.44109
1151.778, 29.99487
1152.260, 29.87214
1152.742, 29.55112
1153.224, 29.23146
1153.707, 28.98410
1154.189, 28.90587
1154.671, 28.93881
1155.153, 28.91258
1155.635, 28.79062
1156.117, 28.84640
1156.599, 29.45397
1157.081, 29.84119
1157.563, 29.44510
1158.046, 29.11022
1158.528, 29.57468
1159.010, 30.27700
1159.492, 30.40173
1159.974, 29.98714
1160.456, 29.75050
1160.938, 29.97474
1161.420, 29.93440
1161.903, 29.42732
1162.385, 28.89186
1162.867, 28.17817
1163.349, 27.80567
1163.831, 28.41728
1164.313, 29.52853
1164.795, 29.90741
1165.277, 29.43283
1165.760, 29.26871
1166.242, 29.52240
1166.724, 29.74455
1167.206, 29.85874
1167.688, 29.98553
1168.170, 30.24375
1168.652, 30.36374
1169.134, 29.93686
1169.616, 29.12825
1170.099, 28.73997
1170.581, 28.77672
1171.063, 28.82636
1171.545, 28.86358
1172.027, 28.89688
1172.509, 28.92832
1172.991, 29.05283
1173.473, 29.37397
1173.956, 29.64817
1174.438, 29.32138
1174.920, 28.63813
1175.402, 28.41848
1175.884, 28.55887
1176.366, 28.66715
1176.848, 28.69698
1177.330, 28.79278
1177.813, 29.01352
1178.295, 29.24863
1178.777, 29.44723
1179.259, 29.54191
1179.741, 29.33479
1180.223, 29.05219
1180.705, 29.07065
1181.187, 29.26303
1181.669, 29.30419
1182.151, 29.15727
1182.634, 29.02857
1183.116, 29.02373
1183.598, 29.00444
1184.080, 28.91087
1184.562, 28.75153
1185.044, 28.32393
1185.526, 28.00618
1186.008, 28.34878
1186.490, 29.07618
1186.973, 29.47358
1187.455, 29.40627
1187.937, 29.33913
1188.419, 29.51227
1188.901, 29.46971
1189.383, 28.71317
1189.865, 28.20044
1190.347, 28.72550
1190.830, 29.49640
1191.312, 29.66472
1191.794, 29.33515
1192.276, 29.00812
1192.758, 28.61456
1193.240, 28.46691
1193.722, 28.62803
1194.204, 28.90203
1194.687, 29.37414
1195.169, 29.46640
1195.651, 28.66928
1196.133, 27.70094
1196.615, 27.79232
1197.097, 28.71333
1197.579, 29.00171
1198.061, 28.69851
1198.543, 28.59667
1199.026, 28.75636
1199.508, 28.84031
1199.990, 28.74438
1200.472, 28.79480
1200.954, 29.29445
1201.436, 29.85765
1201.918, 29.84643
1202.400, 29.51067
1202.883, 29.27336
1203.365, 29.15534
1203.847, 29.22988
1204.329, 29.43163
1204.811, 29.59571
1205.293, 29.64775
1205.775, 29.35870
1206.257, 28.09761
1206.740, 27.10052
1207.222, 27.56116
1207.704, 28.40029
1208.186, 28.74120
1208.668, 28.73812
1209.150, 28.62994
1209.632, 28.50676
1210.114, 28.59821
1210.596, 29.12981
1211.078, 29.29324
1211.561, 28.65587
1212.043, 28.00754
1212.525, 27.31883
1213.007, 26.99269
1213.489, 27.58667
1213.971, 28.46125
1214.453, 28.56475
1214.935, 27.95186
1215.417, 27.63637
1215.900, 27.68237
1216.382, 27.78966
1216.864, 27.94901
1217.346, 28.14011
1217.828, 28.35573
1218.310, 28.62613
1218.792, 29.00138
1219.274, 29.35485
1219.757, 29.53317
1220.239, 29.47280
1220.721, 28.54379
1221.203, 27.05563
1221.685, 26.80420
1222.167, 27.72219
1222.649, 28.05850
1223.131, 27.26628
1223.614, 26.57764
1224.096, 26.98332
1224.578, 27.71162
1225.060, 28.02196
1225.542, 28.08054
1226.024, 27.94193
1226.506, 27.77549
1226.988, 27.85948
1227.470, 28.13497
1227.953, 28.32384
1228.435, 28.34379
1228.917, 28.42143
1229.399, 28.78662
1229.881, 29.01548
1230.363, 28.94756
1230.845, 28.73000
1231.327, 28.35998
1231.810, 27.95388
1232.292, 27.61656
1232.774, 27.35578
1233.256, 27.20993
1233.738, 27.20717
1234.220, 27.17571
1234.702, 27.02336
1235.184, 27.20238
1235.667, 27.93137
1236.149, 28.43513
1236.631, 28.27018
1237.113, 27.88525
1237.595, 27.78707
1238.077, 27.93997
1238.559, 28.32312
1239.041, 28.86325
1239.523, 29.22485
1240.005, 29.38474
1240.488, 29.22997
1240.970, 28.80948
1241.452, 28.54539
1241.934, 28.64700
1242.416, 28.69296
1242.898, 28.11240
1243.380, 27.49872
1243.862, 27.41769
1244.344, 27.65405
1244.827, 28.12220
1245.309, 28.63917
1245.791, 28.99278
1246.273, 29.13715
1246.755, 29.03594
1247.237, 28.59855
1247.719, 28.19885
1248.201, 27.77361
1248.684, 27.60203
1249.166, 28.04232
1249.648, 28.44127
1250.130, 28.39146
1250.612, 28.13516
1251.094, 27.97886
1251.576, 27.91057
1252.058, 27.85559
1252.541, 27.81399
1253.023, 27.74433
1253.505, 27.62159
1253.987, 27.88843
1254.469, 28.66283
1254.951, 29.04458
1255.433, 28.49209
1255.915, 27.73898
1256.397, 27.70253
1256.880, 28.03179
1257.362, 28.12120
1257.844, 28.01813
1258.326, 27.68012
1258.808, 27.27539
1259.290, 27.25947
1259.772, 27.59185
1260.254, 27.62717
1260.737, 27.01698
1261.219, 26.81215
1261.701, 28.22574
1262.183, 29.29531
1262.665, 28.66306
1263.147, 27.77533
1263.629, 27.71126
1264.111, 28.03801
1264.594, 28.13841
1265.076, 28.00824
1265.558, 27.74503
1266.040, 27.25168
1266.522, 26.97979
1267.004, 26.95880
1267.486, 27.05155
1267.968, 27.22940
1268.450, 27.57561
1268.932, 28.16920
1269.415, 28.69913
1269.897, 28.79245
1270.379, 28.62924
1270.861, 28.66049
1271.343, 28.79429
1271.825, 28.68577
1272.307, 28.44199
1272.789, 28.51932
1273.271, 28.85415
1273.754, 28.78746
1274.236, 28.09299
1274.718, 27.64557
1275.200, 28.30992
1275.682, 28.94295
1276.164, 28.83823
1276.646, 28.49201
1277.128, 28.15833
1277.611, 27.86159
1278.093, 27.53061
1278.575, 27.24646
1279.057, 27.32600
1279.539, 27.84069
1280.021, 28.15536
1280.503, 28.11998
1280.985, 28.35391
1281.468, 29.08820
1281.950, 29.44603
1282.432, 29.05798
1282.914, 28.42840
1283.396, 27.92911
1283.878, 27.64813
1284.360, 27.85092
1284.842, 28.34501
1285.324, 28.59091
##END=



