##NAMES=Graftonite
##RRUFFID=R070153
##IDEAL CHEMISTRY=Fe^2+^Fe^2+^_2_(P^5+^O_4_)_2_
##LOCALITY=Bull Moose mine, Custer, Custer County, South Dakota, USA
##OWNER=RRUFF
##SOURCE=James Shigley
##DESCRIPTION=Dark brown vitreous massive
##STATUS=The identification of this mineral has been confirmed only by single crystal X-ray diffraction.
##URL=rruff.info/R070153
135.2360, 720.2382
135.7182, 737.9844
136.2003, 756.7969
136.6824, 778.4849
137.1645, 804.0711
137.6466, 822.5212
138.1287, 832.6743
138.6109, 836.6332
139.0930, 839.0845
139.5751, 839.8400
140.0572, 839.5602
140.5393, 838.1180
141.0214, 834.4521
141.5036, 832.8104
141.9857, 833.4119
142.4678, 836.2761
142.9499, 841.9836
143.4320, 851.8536
143.9141, 862.8539
144.3963, 872.6142
144.8784, 881.2529
145.3605, 888.5017
145.8426, 893.3015
146.3247, 895.0297
146.8068, 900.5536
147.2890, 909.9882
147.7711, 923.1505
148.2532, 940.0460
148.7353, 967.0119
149.2174, 991.0219
149.6995, 1008.495
150.1817, 1017.218
150.6638, 1025.718
151.1459, 1031.679
151.6280, 1037.733
152.1101, 1048.394
152.5922, 1071.804
153.0744, 1093.437
153.5565, 1108.122
154.0386, 1111.091
154.5207, 1113.656
155.0028, 1118.136
155.4849, 1123.460
155.9671, 1126.326
156.4492, 1123.500
156.9313, 1119.663
157.4134, 1117.420
157.8955, 1117.936
158.3777, 1119.386
158.8598, 1122.391
159.3419, 1126.562
159.8240, 1128.828
160.3061, 1126.474
160.7882, 1122.545
161.2704, 1119.650
161.7525, 1119.026
162.2346, 1119.208
162.7167, 1120.496
163.1988, 1122.953
163.6809, 1123.336
164.1631, 1116.781
164.6452, 1107.988
165.1273, 1103.048
165.6094, 1108.796
166.0915, 1116.329
166.5736, 1119.870
167.0558, 1118.584
167.5379, 1115.279
168.0200, 1107.444
168.5021, 1098.828
168.9842, 1096.890
169.4663, 1112.979
169.9485, 1133.927
170.4306, 1146.917
170.9127, 1148.570
171.3948, 1145.500
171.8769, 1141.969
172.3590, 1137.979
172.8412, 1133.564
173.3233, 1124.901
173.8054, 1116.881
174.2875, 1117.645
174.7696, 1134.346
175.2517, 1152.802
175.7339, 1154.808
176.2160, 1142.394
176.6981, 1129.515
177.1802, 1127.857
177.6623, 1132.999
178.1444, 1135.624
178.6266, 1131.208
179.1087, 1124.333
179.5908, 1122.315
180.0729, 1125.094
180.5550, 1129.505
181.0371, 1134.528
181.5193, 1139.264
182.0014, 1140.545
182.4835, 1134.574
182.9656, 1125.033
183.4477, 1120.490
183.9298, 1121.389
184.4120, 1124.135
184.8941, 1124.284
185.3762, 1122.435
185.8583, 1122.150
186.3404, 1127.136
186.8225, 1135.296
187.3047, 1137.490
187.7868, 1132.015
188.2689, 1125.675
188.7510, 1129.626
189.2331, 1143.316
189.7152, 1156.623
190.1974, 1164.152
190.6795, 1166.483
191.1616, 1167.784
191.6437, 1168.414
192.1258, 1167.848
192.6080, 1163.396
193.0901, 1154.624
193.5722, 1148.791
194.0543, 1152.628
194.5364, 1165.545
195.0185, 1174.246
195.5007, 1176.432
195.9828, 1174.406
196.4649, 1173.429
196.9470, 1173.437
197.4291, 1174.753
197.9112, 1178.187
198.3934, 1183.884
198.8755, 1188.779
199.3576, 1192.239
199.8397, 1194.645
200.3218, 1198.008
200.8039, 1203.027
201.2861, 1206.629
201.7682, 1204.965
202.2503, 1196.925
202.7324, 1191.656
203.2145, 1191.266
203.6966, 1195.238
204.1788, 1200.463
204.6609, 1207.717
205.1430, 1214.303
205.6251, 1216.821
206.1072, 1214.089
206.5893, 1212.530
207.0715, 1213.597
207.5536, 1217.237
208.0357, 1223.049
208.5178, 1233.007
208.9999, 1241.967
209.4820, 1242.734
209.9642, 1232.255
210.4463, 1223.567
210.9284, 1220.864
211.4105, 1224.639
211.8926, 1227.920
212.3747, 1232.148
212.8569, 1234.204
213.3390, 1227.893
213.8211, 1208.498
214.3032, 1193.182
214.7853, 1188.392
215.2674, 1196.013
215.7496, 1203.802
216.2317, 1213.371
216.7138, 1221.806
217.1959, 1223.292
217.6780, 1214.545
218.1601, 1205.904
218.6423, 1201.796
219.1244, 1204.102
219.6065, 1203.905
220.0886, 1200.646
220.5707, 1195.148
221.0528, 1188.825
221.5350, 1179.877
222.0171, 1173.195
222.4992, 1171.206
222.9813, 1175.996
223.4634, 1179.960
223.9455, 1182.407
224.4277, 1184.221
224.9098, 1187.932
225.3919, 1195.249
225.8740, 1201.797
226.3561, 1204.889
226.8382, 1201.183
227.3204, 1202.336
227.8025, 1211.892
228.2846, 1226.182
228.7667, 1232.122
229.2488, 1224.011
229.7310, 1215.623
230.2131, 1214.448
230.6952, 1224.193
231.1773, 1233.121
231.6594, 1240.576
232.1415, 1246.765
232.6237, 1252.741
233.1058, 1258.446
233.5879, 1264.015
234.0700, 1269.050
234.5521, 1271.285
235.0342, 1277.845
235.5164, 1290.483
235.9985, 1308.234
236.4806, 1325.993
236.9627, 1346.447
237.4448, 1363.232
237.9269, 1371.126
238.4091, 1362.724
238.8912, 1360.410
239.3733, 1369.040
239.8554, 1386.789
240.3375, 1398.126
240.8196, 1397.600
241.3018, 1397.037
241.7839, 1405.308
242.2660, 1426.813
242.7481, 1448.568
243.2302, 1470.818
243.7123, 1492.980
244.1945, 1507.183
244.6766, 1509.719
245.1587, 1508.585
245.6408, 1509.749
246.1229, 1514.276
246.6050, 1518.984
247.0872, 1523.814
247.5693, 1528.685
248.0514, 1532.408
248.5335, 1536.267
249.0156, 1537.514
249.4977, 1532.148
249.9799, 1512.678
250.4620, 1503.171
250.9441, 1511.440
251.4262, 1536.442
251.9083, 1551.346
252.3904, 1553.300
252.8726, 1548.350
253.3547, 1541.655
253.8368, 1533.797
254.3189, 1522.476
254.8010, 1505.341
255.2831, 1482.725
255.7653, 1466.608
256.2474, 1460.112
256.7295, 1456.397
257.2116, 1449.839
257.6937, 1441.037
258.1758, 1427.607
258.6580, 1406.859
259.1401, 1379.142
259.6222, 1359.471
260.1043, 1350.332
260.5864, 1346.099
261.0685, 1342.449
261.5507, 1340.675
262.0328, 1335.777
262.5149, 1325.733
262.9970, 1310.741
263.4791, 1298.197
263.9612, 1288.509
264.4434, 1280.440
264.9255, 1273.013
265.4076, 1266.550
265.8897, 1259.655
266.3718, 1251.643
266.8539, 1242.714
267.3361, 1235.323
267.8182, 1230.193
268.3003, 1225.437
268.7824, 1218.688
269.2645, 1209.008
269.7466, 1201.149
270.2288, 1196.592
270.7109, 1194.958
271.1930, 1191.148
271.6751, 1183.709
272.1572, 1177.146
272.6393, 1177.492
273.1215, 1186.775
273.6036, 1191.455
274.0857, 1186.653
274.5678, 1174.200
275.0499, 1167.934
275.5320, 1168.881
276.0142, 1173.081
276.4963, 1176.850
276.9784, 1180.039
277.4605, 1184.356
277.9426, 1190.707
278.4247, 1198.473
278.9069, 1205.473
279.3890, 1212.275
279.8711, 1216.019
280.3532, 1210.148
280.8354, 1193.906
281.3175, 1188.390
281.7996, 1202.984
282.2817, 1230.504
282.7638, 1242.794
283.2459, 1238.211
283.7281, 1227.827
284.2102, 1219.083
284.6923, 1212.117
285.1744, 1210.967
285.6565, 1218.628
286.1386, 1231.543
286.6208, 1239.799
287.1029, 1243.271
287.5850, 1243.444
288.0671, 1239.913
288.5492, 1233.355
289.0313, 1228.872
289.5135, 1227.915
289.9956, 1229.389
290.4777, 1229.641
290.9598, 1228.646
291.4419, 1231.002
291.9240, 1244.342
292.4062, 1265.378
292.8883, 1279.255
293.3704, 1280.813
293.8525, 1276.658
294.3346, 1277.928
294.8167, 1284.414
295.2989, 1293.215
295.7810, 1302.788
296.2631, 1313.005
296.7452, 1323.941
297.2273, 1335.825
297.7094, 1347.886
298.1916, 1359.517
298.6737, 1370.559
299.1558, 1380.697
299.6379, 1391.371
300.1200, 1400.674
300.6021, 1403.636
301.0843, 1395.750
301.5664, 1388.850
302.0485, 1399.790
302.5306, 1424.623
303.0127, 1447.398
303.4948, 1459.276
303.9770, 1463.214
304.4591, 1462.557
304.9412, 1456.714
305.4233, 1449.329
305.9054, 1444.102
306.3875, 1440.060
306.8697, 1434.440
307.3518, 1423.531
307.8339, 1411.406
308.3160, 1402.843
308.7981, 1399.522
309.2802, 1396.050
309.7624, 1388.161
310.2445, 1377.384
310.7266, 1366.901
311.2087, 1360.259
311.6908, 1353.028
312.1729, 1341.038
312.6551, 1322.628
313.1372, 1304.853
313.6193, 1292.495
314.1014, 1283.191
314.5835, 1273.430
315.0656, 1258.203
315.5478, 1244.874
316.0299, 1238.406
316.5120, 1240.170
316.9941, 1241.826
317.4762, 1243.063
317.9583, 1241.565
318.4405, 1234.540
318.9226, 1213.921
319.4047, 1194.124
319.8868, 1179.524
320.3689, 1170.353
320.8510, 1167.151
321.3332, 1181.272
321.8153, 1196.558
322.2974, 1197.877
322.7795, 1163.354
323.2616, 1134.039
323.7437, 1122.993
324.2259, 1130.932
324.7080, 1132.781
325.1901, 1114.481
325.6722, 1095.428
326.1543, 1090.033
326.6364, 1119.820
327.1186, 1139.589
327.6007, 1141.017
328.0828, 1125.773
328.5649, 1114.392
329.0470, 1108.828
329.5291, 1105.553
330.0113, 1102.500
330.4934, 1098.879
330.9755, 1096.683
331.4576, 1095.917
331.9397, 1096.652
332.4218, 1100.140
332.9040, 1112.255
333.3861, 1119.262
333.8682, 1111.252
334.3503, 1076.115
334.8324, 1058.328
335.3145, 1065.074
335.7967, 1087.358
336.2788, 1101.898
336.7609, 1107.255
337.2430, 1108.709
337.7251, 1108.052
338.2072, 1104.891
338.6894, 1101.960
339.1715, 1099.302
339.6536, 1096.800
340.1357, 1093.465
340.6178, 1088.646
341.0999, 1086.874
341.5821, 1091.251
342.0642, 1101.318
342.5463, 1109.990
343.0284, 1117.287
343.5105, 1122.884
343.9926, 1124.931
344.4748, 1123.670
344.9569, 1124.426
345.4390, 1130.990
345.9211, 1140.887
346.4032, 1145.047
346.8853, 1143.109
347.3675, 1139.726
347.8496, 1138.734
348.3317, 1140.005
348.8138, 1143.393
349.2959, 1150.646
349.7780, 1158.533
350.2602, 1160.416
350.7423, 1156.772
351.2244, 1154.449
351.7065, 1160.224
352.1887, 1170.753
352.6708, 1180.053
353.1529, 1186.805
353.6350, 1191.599
354.1171, 1196.482
354.5992, 1200.516
355.0814, 1199.803
355.5635, 1186.479
356.0456, 1169.774
356.5277, 1159.802
357.0098, 1160.535
357.4919, 1162.714
357.9741, 1160.564
358.4562, 1155.549
358.9383, 1150.682
359.4204, 1143.604
359.9025, 1139.766
360.3846, 1144.891
360.8668, 1162.638
361.3489, 1175.801
361.8310, 1176.269
362.3131, 1168.518
362.7952, 1158.415
363.2773, 1139.858
363.7595, 1126.402
364.2416, 1126.078
364.7237, 1141.194
365.2058, 1149.867
365.6879, 1142.344
366.1700, 1129.694
366.6522, 1121.630
367.1343, 1123.341
367.6164, 1124.961
368.0985, 1124.972
368.5806, 1123.479
369.0627, 1122.564
369.5449, 1124.069
370.0270, 1124.574
370.5091, 1121.483
370.9912, 1109.551
371.4733, 1103.627
371.9554, 1106.440
372.4376, 1115.743
372.9197, 1124.755
373.4018, 1136.016
373.8839, 1142.128
374.3660, 1136.814
374.8481, 1115.160
375.3303, 1104.738
375.8124, 1108.990
376.2945, 1121.156
376.7766, 1129.959
377.2587, 1135.098
377.7408, 1138.233
378.2230, 1139.587
378.7051, 1139.278
379.1872, 1138.852
379.6693, 1138.210
380.1514, 1137.849
380.6335, 1136.398
381.1157, 1134.514
381.5978, 1139.370
382.0799, 1157.706
382.5620, 1182.136
383.0441, 1194.385
383.5262, 1194.658
384.0084, 1192.059
384.4905, 1192.038
384.9726, 1194.956
385.4547, 1202.267
385.9368, 1216.966
386.4189, 1232.153
386.9011, 1237.248
387.3832, 1235.062
387.8653, 1236.626
388.3474, 1253.704
388.8295, 1275.631
389.3116, 1290.292
389.7938, 1293.797
390.2759, 1296.078
390.7580, 1301.543
391.2401, 1310.284
391.7222, 1322.468
392.2043, 1345.838
392.6865, 1366.511
393.1686, 1374.604
393.6507, 1367.311
394.1328, 1364.073
394.6149, 1372.708
395.0970, 1387.773
395.5792, 1403.867
396.0613, 1421.196
396.5434, 1438.042
397.0255, 1454.110
397.5076, 1469.225
397.9897, 1484.368
398.4719, 1498.733
398.9540, 1513.772
399.4361, 1530.204
399.9182, 1547.496
400.4003, 1567.159
400.8824, 1591.151
401.3646, 1617.483
401.8467, 1639.119
402.3288, 1652.105
402.8109, 1667.182
403.2930, 1688.028
403.7751, 1714.269
404.2573, 1749.354
404.7394, 1796.328
405.2215, 1848.119
405.7036, 1894.639
406.1857, 1935.630
406.6678, 1971.863
407.1500, 2001.797
407.6321, 2026.843
408.1142, 2055.571
408.5963, 2088.144
409.0784, 2121.510
409.5605, 2152.589
410.0427, 2181.721
410.5248, 2211.167
411.0069, 2241.297
411.4890, 2272.627
411.9711, 2306.941
412.4532, 2343.695
412.9354, 2378.750
413.4175, 2411.787
413.8996, 2440.012
414.3817, 2457.914
414.8638, 2463.227
415.3459, 2463.342
415.8281, 2462.387
416.3102, 2460.732
416.7923, 2459.077
417.2744, 2466.239
417.7565, 2467.171
418.2386, 2446.802
418.7208, 2403.505
419.2029, 2366.213
419.6850, 2350.323
420.1671, 2344.529
420.6492, 2338.040
421.1313, 2338.598
421.6135, 2327.153
422.0956, 2295.878
422.5777, 2247.563
423.0598, 2196.109
423.5420, 2130.247
424.0241, 2072.447
424.5062, 2032.952
424.9883, 2022.351
425.4704, 2011.582
425.9525, 2000.775
426.4347, 1989.596
426.9168, 1977.382
427.3989, 1963.672
427.8810, 1949.459
428.3631, 1934.247
428.8452, 1917.920
429.3274, 1904.607
429.8095, 1893.247
430.2916, 1887.683
430.7737, 1895.443
431.2558, 1917.601
431.7379, 1932.911
432.2201, 1934.974
432.7022, 1928.817
433.1843, 1925.610
433.6664, 1925.374
434.1485, 1931.046
434.6306, 1948.748
435.1128, 1974.007
435.5949, 1993.345
436.0770, 2004.014
436.5591, 2013.718
437.0412, 2032.234
437.5233, 2056.646
438.0055, 2079.389
438.4876, 2089.252
438.9697, 2100.612
439.4518, 2130.210
439.9339, 2178.046
440.4160, 2225.892
440.8982, 2262.204
441.3803, 2293.369
441.8624, 2326.112
442.3445, 2361.452
442.8266, 2399.576
443.3087, 2439.413
443.7909, 2482.042
444.2730, 2530.071
444.7551, 2589.850
445.2372, 2650.821
445.7193, 2709.541
446.2014, 2767.501
446.6836, 2819.149
447.1657, 2864.775
447.6478, 2904.282
448.1299, 2936.343
448.6120, 2951.045
449.0941, 2975.114
449.5763, 3018.060
450.0584, 3078.487
450.5405, 3125.855
451.0226, 3158.294
451.5047, 3182.656
451.9868, 3205.558
452.4690, 3227.878
452.9511, 3237.995
453.4332, 3232.192
453.9153, 3217.549
454.3974, 3206.910
454.8795, 3200.103
455.3617, 3194.990
455.8438, 3198.455
456.3259, 3202.158
456.8080, 3179.270
457.2901, 3128.005
457.7722, 3072.543
458.2544, 3038.005
458.7365, 3015.567
459.2186, 2989.269
459.7007, 2950.963
460.1828, 2909.506
460.6649, 2870.135
461.1471, 2833.249
461.6292, 2800.617
462.1113, 2780.635
462.5934, 2759.893
463.0755, 2726.873
463.5576, 2673.227
464.0398, 2625.606
464.5219, 2595.381
465.0040, 2574.841
465.4861, 2553.081
465.9682, 2528.660
466.4503, 2502.761
466.9325, 2475.780
467.4146, 2447.863
467.8967, 2416.728
468.3788, 2381.639
468.8609, 2344.125
469.3430, 2304.338
469.8252, 2259.925
470.3073, 2220.219
470.7894, 2186.660
471.2715, 2157.442
471.7536, 2128.805
472.2357, 2100.690
472.7179, 2073.529
473.2000, 2047.574
473.6821, 2022.760
474.1642, 1999.089
474.6463, 1976.747
475.1284, 1954.081
475.6106, 1926.643
476.0927, 1897.044
476.5748, 1874.634
477.0569, 1864.379
477.5390, 1858.101
478.0211, 1849.823
478.5033, 1838.243
478.9854, 1818.531
479.4675, 1781.495
479.9496, 1739.301
480.4317, 1699.998
480.9138, 1663.790
481.3960, 1637.258
481.8781, 1630.753
482.3602, 1632.983
482.8423, 1630.893
483.3244, 1619.820
483.8065, 1605.648
484.2887, 1587.160
484.7708, 1565.355
485.2529, 1548.657
485.7350, 1541.909
486.2171, 1535.621
486.6992, 1525.626
487.1814, 1511.310
487.6635, 1494.470
488.1456, 1472.023
488.6277, 1449.944
489.1098, 1438.490
489.5919, 1440.026
490.0741, 1440.167
490.5562, 1434.091
491.0383, 1423.415
491.5204, 1416.555
492.0026, 1413.864
492.4847, 1409.883
492.9668, 1398.310
493.4489, 1381.883
493.9310, 1368.992
494.4131, 1361.514
494.8953, 1355.896
495.3774, 1350.503
495.8595, 1344.020
496.3416, 1333.574
496.8237, 1310.450
497.3058, 1288.135
497.7880, 1278.866
498.2701, 1282.271
498.7522, 1284.886
499.2343, 1277.713
499.7164, 1268.867
500.1985, 1264.439
500.6807, 1267.653
501.1628, 1272.423
501.6449, 1281.172
502.1270, 1290.537
502.6091, 1293.530
503.0912, 1288.963
503.5734, 1279.200
504.0555, 1261.918
504.5376, 1236.694
505.0197, 1221.776
505.5018, 1220.304
505.9839, 1223.882
506.4661, 1226.628
506.9482, 1228.731
507.4303, 1228.522
507.9124, 1226.103
508.3945, 1220.753
508.8766, 1208.512
509.3588, 1190.231
509.8409, 1175.807
510.3230, 1170.802
510.8051, 1172.733
511.2872, 1179.561
511.7693, 1191.202
512.2515, 1199.252
512.7336, 1192.999
513.2157, 1180.833
513.6978, 1174.242
514.1799, 1180.741
514.6620, 1185.342
515.1442, 1175.195
515.6263, 1157.195
516.1084, 1146.488
516.5905, 1155.254
517.0726, 1165.212
517.5547, 1168.587
518.0369, 1163.939
518.5190, 1161.626
519.0011, 1164.790
519.4832, 1168.222
519.9653, 1167.911
520.4474, 1160.946
520.9296, 1157.176
521.4117, 1158.657
521.8938, 1162.633
522.3759, 1162.159
522.8580, 1156.159
523.3401, 1151.829
523.8223, 1152.402
524.3044, 1157.094
524.7865, 1163.370
525.2686, 1171.427
525.7507, 1177.002
526.2328, 1174.376
526.7150, 1166.543
527.1971, 1160.431
527.6792, 1158.209
528.1613, 1156.200
528.6434, 1147.158
529.1255, 1135.805
529.6077, 1132.056
530.0898, 1147.927
530.5719, 1166.279
531.0540, 1176.615
531.5361, 1178.512
532.0182, 1183.494
532.5004, 1201.851
532.9825, 1219.520
533.4646, 1227.019
533.9467, 1214.688
534.4288, 1205.629
534.9109, 1197.011
535.3931, 1192.939
535.8752, 1202.722
536.3573, 1233.256
536.8394, 1258.880
537.3215, 1272.027
537.8036, 1274.198
538.2858, 1274.995
538.7679, 1274.198
539.2500, 1273.595
539.7321, 1271.691
540.2142, 1270.621
540.6964, 1281.150
541.1785, 1306.794
541.6606, 1333.625
542.1427, 1345.094
542.6248, 1345.827
543.1069, 1345.778
543.5891, 1348.858
544.0712, 1352.823
544.5533, 1353.630
545.0354, 1352.904
545.5175, 1359.075
545.9996, 1388.498
546.4818, 1416.019
546.9639, 1424.837
547.4460, 1402.403
547.9281, 1390.207
548.4102, 1395.387
548.8923, 1409.968
549.3745, 1426.625
549.8566, 1447.491
550.3387, 1466.102
550.8208, 1481.986
551.3029, 1494.839
551.7850, 1502.933
552.2672, 1505.914
552.7493, 1506.617
553.2314, 1504.795
553.7135, 1501.473
554.1956, 1501.745
554.6777, 1505.610
555.1599, 1513.763
555.6420, 1530.917
556.1241, 1552.243
556.6062, 1567.595
557.0883, 1571.418
557.5704, 1573.766
558.0526, 1581.533
558.5347, 1593.720
559.0168, 1608.235
559.4989, 1629.193
559.9810, 1647.449
560.4631, 1654.716
560.9453, 1649.909
561.4274, 1656.796
561.9095, 1695.409
562.3916, 1733.825
562.8737, 1753.401
563.3558, 1742.888
563.8380, 1737.701
564.3201, 1739.449
564.8022, 1745.460
565.2843, 1751.815
565.7664, 1758.469
566.2485, 1766.255
566.7307, 1776.552
567.2128, 1787.581
567.6949, 1793.706
568.1770, 1795.228
568.6591, 1796.194
569.1412, 1796.037
569.6234, 1798.217
570.1055, 1810.201
570.5876, 1833.760
571.0697, 1857.071
571.5518, 1865.770
572.0339, 1871.843
572.5161, 1889.121
572.9982, 1932.946
573.4803, 1975.720
573.9624, 2007.371
574.4445, 2031.989
574.9266, 2059.721
575.4088, 2089.593
575.8909, 2125.137
576.3730, 2168.227
576.8551, 2218.934
577.3372, 2270.228
577.8193, 2323.041
578.3015, 2373.625
578.7836, 2415.516
579.2657, 2448.083
579.7478, 2497.940
580.2299, 2570.704
580.7120, 2651.200
581.1942, 2717.588
581.6763, 2772.452
582.1584, 2825.198
582.6405, 2875.766
583.1226, 2928.551
583.6047, 2994.843
584.0869, 3069.211
584.5690, 3128.378
585.0511, 3143.058
585.5332, 3151.698
586.0153, 3181.699
586.4974, 3242.291
586.9796, 3292.528
587.4617, 3324.024
587.9438, 3342.695
588.4259, 3353.802
588.9080, 3356.688
589.3901, 3352.570
589.8723, 3339.761
590.3544, 3321.174
590.8365, 3302.499
591.3186, 3283.293
591.8007, 3267.220
592.2828, 3261.803
592.7650, 3258.805
593.2471, 3227.212
593.7292, 3167.444
594.2113, 3101.654
594.6934, 3050.530
595.1755, 3001.573
595.6577, 2932.072
596.1398, 2836.220
596.6219, 2739.750
597.1040, 2664.725
597.5862, 2596.786
598.0683, 2517.751
598.5504, 2408.018
599.0325, 2303.898
599.5146, 2213.611
599.9968, 2135.638
600.4789, 2065.826
600.9610, 2010.090
601.4431, 1954.660
601.9252, 1892.917
602.4073, 1826.451
602.8895, 1773.212
603.3716, 1735.397
603.8537, 1702.715
604.3358, 1666.818
604.8179, 1628.831
605.3000, 1592.959
605.7822, 1558.617
606.2643, 1530.321
606.7464, 1514.482
607.2285, 1507.514
607.7106, 1501.793
608.1927, 1494.529
608.6749, 1488.047
609.1570, 1484.520
609.6391, 1483.086
610.1212, 1481.537
610.6033, 1480.183
611.0854, 1477.590
611.5676, 1472.442
612.0497, 1464.277
612.5318, 1458.138
613.0139, 1453.276
613.4960, 1451.354
613.9781, 1455.186
614.4603, 1467.087
614.9424, 1470.859
615.4245, 1464.003
615.9066, 1453.496
616.3887, 1447.367
616.8708, 1445.528
617.3530, 1447.762
617.8351, 1456.387
618.3172, 1465.352
618.7993, 1462.104
619.2814, 1451.872
619.7635, 1450.870
620.2457, 1480.149
620.7278, 1511.102
621.2099, 1523.588
621.6920, 1517.032
622.1741, 1511.099
622.6563, 1509.736
623.1384, 1511.475
623.6205, 1516.258
624.1026, 1527.530
624.5847, 1532.198
625.0668, 1526.558
625.5490, 1518.633
626.0311, 1519.224
626.5132, 1529.539
626.9953, 1535.364
627.4774, 1532.843
627.9595, 1526.451
628.4417, 1522.602
628.9238, 1521.751
629.4059, 1526.242
629.8880, 1539.659
630.3701, 1557.449
630.8522, 1576.568
631.3344, 1596.305
631.8165, 1613.135
632.2986, 1621.966
632.7807, 1629.730
633.2628, 1640.624
633.7449, 1655.557
634.2271, 1672.423
634.7092, 1691.004
635.1913, 1711.516
635.6734, 1734.269
636.1555, 1759.101
636.6376, 1785.868
637.1198, 1814.435
637.6019, 1845.161
638.0840, 1881.299
638.5661, 1922.617
639.0482, 1962.327
639.5303, 1998.327
640.0125, 2030.651
640.4946, 2058.343
640.9767, 2081.571
641.4588, 2101.733
641.9409, 2118.484
642.4230, 2133.062
642.9052, 2149.612
643.3873, 2169.175
643.8694, 2174.550
644.3515, 2154.493
644.8336, 2122.288
645.3157, 2086.529
645.7979, 2046.437
646.2800, 2005.712
646.7621, 1964.060
647.2442, 1922.416
647.7263, 1882.487
648.2084, 1843.858
648.6906, 1807.793
649.1727, 1775.853
649.6548, 1745.278
650.1369, 1710.805
650.6190, 1673.544
651.1011, 1637.856
651.5833, 1602.938
652.0654, 1573.134
652.5475, 1557.677
653.0296, 1553.938
653.5117, 1544.147
653.9938, 1514.568
654.4760, 1480.777
654.9581, 1450.975
655.4402, 1425.474
655.9223, 1406.642
656.4044, 1397.891
656.8865, 1392.374
657.3687, 1384.833
657.8508, 1374.502
658.3329, 1365.361
658.8150, 1357.699
659.2971, 1351.287
659.7792, 1347.242
660.2614, 1344.790
660.7435, 1338.511
661.2256, 1323.935
661.7077, 1308.535
662.1898, 1303.855
662.6719, 1306.356
663.1541, 1305.758
663.6362, 1289.800
664.1183, 1275.706
664.6004, 1277.114
665.0825, 1293.230
665.5646, 1300.566
666.0468, 1287.048
666.5289, 1271.370
667.0110, 1261.036
667.4931, 1256.921
667.9752, 1253.219
668.4573, 1249.373
668.9395, 1247.347
669.4216, 1250.046
669.9037, 1256.846
670.3858, 1263.314
670.8679, 1269.459
671.3500, 1272.796
671.8322, 1268.578
672.3143, 1259.615
672.7964, 1251.071
673.2785, 1242.257
673.7606, 1237.347
674.2427, 1243.344
674.7249, 1255.053
675.2070, 1259.634
675.6891, 1245.050
676.1712, 1232.844
676.6533, 1228.436
677.1354, 1231.301
677.6176, 1236.852
678.0997, 1246.597
678.5818, 1254.671
679.0639, 1259.086
679.5460, 1259.480
680.0281, 1249.894
680.5103, 1229.786
680.9924, 1211.292
681.4745, 1206.635
681.9566, 1210.180
682.4387, 1213.480
682.9208, 1215.001
683.4030, 1216.834
683.8851, 1221.278
684.3672, 1226.224
684.8493, 1229.322
685.3314, 1230.386
685.8135, 1229.117
686.2957, 1224.219
686.7778, 1217.598
687.2599, 1212.304
687.7420, 1207.754
688.2241, 1207.027
688.7062, 1212.489
689.1884, 1221.100
689.6705, 1222.597
690.1526, 1217.841
690.6347, 1215.823
691.1168, 1228.373
691.5989, 1242.570
692.0811, 1238.477
692.5632, 1217.956
693.0453, 1201.913
693.5274, 1207.812
694.0095, 1216.285
694.4916, 1213.347
694.9738, 1192.794
695.4559, 1180.535
695.9380, 1180.145
696.4201, 1185.476
696.9022, 1193.800
697.3843, 1206.980
697.8665, 1212.024
698.3486, 1206.171
698.8307, 1197.579
699.3128, 1198.391
699.7949, 1206.032
700.2770, 1210.768
700.7592, 1209.784
701.2413, 1205.628
701.7234, 1196.863
702.2055, 1187.187
702.6876, 1183.647
703.1697, 1198.278
703.6519, 1209.657
704.1340, 1207.440
704.6161, 1195.131
705.0982, 1189.286
705.5803, 1192.330
706.0624, 1198.208
706.5446, 1206.972
707.0267, 1217.320
707.5088, 1218.236
707.9909, 1208.974
708.4730, 1199.491
708.9551, 1196.248
709.4373, 1197.672
709.9194, 1201.893
710.4015, 1208.769
710.8836, 1214.229
711.3657, 1215.204
711.8478, 1213.780
712.3300, 1211.655
712.8121, 1209.007
713.2942, 1205.923
713.7763, 1200.980
714.2584, 1196.554
714.7405, 1195.336
715.2227, 1199.555
715.7048, 1199.503
716.1869, 1193.133
716.6690, 1184.671
717.1511, 1179.112
717.6332, 1176.741
718.1154, 1181.027
718.5975, 1196.655
719.0796, 1212.681
719.5617, 1214.993
720.0438, 1208.061
720.5259, 1202.040
721.0081, 1205.120
721.4902, 1206.120
721.9723, 1197.776
722.4544, 1182.535
722.9365, 1172.557
723.4186, 1168.405
723.9008, 1169.688
724.3829, 1178.815
724.8650, 1194.205
725.3471, 1201.469
725.8292, 1200.257
726.3113, 1194.391
726.7935, 1181.465
727.2756, 1166.900
727.7577, 1164.323
728.2398, 1174.000
728.7219, 1183.937
729.2040, 1187.101
729.6862, 1186.201
730.1683, 1183.595
730.6504, 1180.034
731.1325, 1173.151
731.6146, 1156.591
732.0967, 1140.923
732.5789, 1134.396
733.0610, 1139.972
733.5431, 1144.406
734.0252, 1146.897
734.5073, 1148.383
734.9894, 1149.779
735.4716, 1151.148
735.9537, 1152.816
736.4358, 1154.893
736.9179, 1157.204
737.4000, 1158.971
737.8821, 1160.942
738.3643, 1164.381
738.8464, 1175.387
739.3286, 1181.651
739.8107, 1175.692
740.2928, 1162.380
740.7749, 1154.313
741.2570, 1152.554
741.7391, 1154.270
742.2213, 1160.477
742.7034, 1168.864
743.1855, 1170.667
743.6676, 1166.117
744.1497, 1161.183
744.6318, 1156.706
745.1140, 1154.906
745.5961, 1162.718
746.0782, 1177.725
746.5603, 1186.779
747.0424, 1176.473
747.5245, 1163.881
748.0067, 1158.938
748.4888, 1163.045
748.9709, 1165.982
749.4530, 1168.491
749.9351, 1168.243
750.4172, 1162.257
750.8994, 1149.969
751.3815, 1145.918
751.8636, 1151.074
752.3457, 1157.265
752.8278, 1154.553
753.3099, 1148.374
753.7921, 1151.724
754.2742, 1167.554
754.7563, 1180.515
755.2384, 1179.013
755.7205, 1171.049
756.2026, 1163.436
756.6848, 1154.146
757.1669, 1152.388
757.6490, 1163.675
758.1311, 1177.832
758.6132, 1184.360
759.0953, 1182.424
759.5775, 1178.040
760.0596, 1171.709
760.5417, 1163.611
761.0238, 1151.087
761.5059, 1136.906
761.9880, 1129.539
762.4702, 1133.950
762.9523, 1141.590
763.4344, 1148.165
763.9165, 1153.460
764.3986, 1157.013
764.8807, 1155.838
765.3629, 1156.750
765.8450, 1163.059
766.3271, 1171.323
766.8092, 1172.069
767.2913, 1163.395
767.7734, 1157.762
768.2556, 1160.127
768.7377, 1166.821
769.2198, 1169.841
769.7019, 1170.034
770.1840, 1171.059
770.6661, 1177.722
771.1483, 1183.483
771.6304, 1183.732
772.1125, 1178.858
772.5946, 1171.214
773.0767, 1157.961
773.5588, 1145.466
774.0410, 1133.570
774.5231, 1123.147
775.0052, 1125.623
775.4873, 1143.931
775.9694, 1162.026
776.4515, 1171.801
776.9337, 1174.628
777.4158, 1173.651
777.8979, 1169.064
778.3800, 1163.333
778.8621, 1155.506
779.3442, 1149.057
779.8264, 1146.984
780.3085, 1149.704
780.7906, 1153.845
781.2727, 1162.495
781.7548, 1168.828
782.2369, 1168.117
782.7191, 1158.890
783.2012, 1157.601
783.6833, 1165.831
784.1654, 1175.264
784.6475, 1179.664
785.1296, 1179.923
785.6118, 1177.335
786.0939, 1171.816
786.5760, 1167.751
787.0581, 1171.369
787.5402, 1176.183
788.0223, 1175.730
788.5045, 1165.950
788.9866, 1159.915
789.4687, 1160.215
789.9508, 1163.526
790.4329, 1167.864
790.9150, 1173.684
791.3972, 1178.442
791.8793, 1182.593
792.3614, 1183.613
792.8435, 1173.338
793.3256, 1158.427
793.8077, 1156.302
794.2899, 1173.793
794.7720, 1190.604
795.2541, 1192.423
795.7362, 1187.470
796.2183, 1184.737
796.7004, 1186.828
797.1826, 1189.992
797.6647, 1195.190
798.1468, 1200.387
798.6289, 1202.711
799.1110, 1202.070
799.5931, 1201.222
800.0753, 1200.675
800.5574, 1199.728
801.0395, 1195.005
801.5216, 1189.594
802.0037, 1190.569
802.4858, 1206.829
802.9680, 1218.007
803.4501, 1207.054
803.9322, 1187.370
804.4143, 1180.358
804.8964, 1196.126
805.3785, 1207.494
805.8607, 1210.977
806.3428, 1209.600
806.8249, 1208.274
807.3070, 1206.958
807.7891, 1204.586
808.2712, 1199.638
808.7534, 1196.182
809.2355, 1201.123
809.7176, 1210.834
810.1997, 1218.280
810.6818, 1220.262
811.1639, 1220.450
811.6461, 1219.077
812.1282, 1216.766
812.6103, 1214.577
813.0924, 1212.015
813.5745, 1211.022
814.0566, 1212.286
814.5388, 1214.890
815.0209, 1217.763
815.5030, 1220.569
815.9851, 1221.434
816.4672, 1218.462
816.9493, 1214.927
817.4315, 1212.998
817.9136, 1212.707
818.3957, 1214.114
818.8778, 1219.875
819.3599, 1224.002
819.8420, 1223.392
820.3242, 1221.152
820.8063, 1227.659
821.2884, 1245.721
821.7705, 1251.443
822.2526, 1232.416
822.7347, 1205.501
823.2169, 1202.463
823.6990, 1216.629
824.1811, 1228.434
824.6632, 1225.091
825.1453, 1221.058
825.6274, 1224.491
826.1096, 1232.929
826.5917, 1239.800
827.0738, 1245.957
827.5559, 1247.681
828.0380, 1241.654
828.5201, 1232.545
829.0023, 1234.392
829.4844, 1246.408
829.9665, 1257.482
830.4486, 1265.563
830.9307, 1267.812
831.4128, 1256.433
831.8950, 1236.614
832.3771, 1220.148
832.8592, 1209.881
833.3413, 1205.973
833.8234, 1212.487
834.3055, 1224.832
834.7877, 1233.310
835.2698, 1237.891
835.7519, 1238.375
836.2340, 1232.892
836.7161, 1225.625
837.1982, 1225.417
837.6804, 1230.958
838.1625, 1237.220
838.6446, 1242.826
839.1267, 1247.521
839.6088, 1250.001
840.0909, 1251.527
840.5731, 1255.079
841.0552, 1268.503
841.5373, 1273.234
842.0194, 1263.186
842.5015, 1244.924
842.9836, 1233.870
843.4658, 1229.974
843.9479, 1226.765
844.4300, 1221.318
844.9121, 1217.069
845.3942, 1219.189
845.8763, 1225.848
846.3585, 1233.146
846.8406, 1240.779
847.3227, 1247.473
847.8048, 1254.384
848.2869, 1259.599
848.7690, 1258.457
849.2512, 1247.729
849.7333, 1242.757
850.2154, 1248.531
850.6975, 1258.035
851.1796, 1255.514
851.6617, 1245.530
852.1439, 1244.335
852.6260, 1264.471
853.1081, 1282.916
853.5902, 1280.042
854.0723, 1266.533
854.5544, 1260.312
855.0366, 1273.376
855.5187, 1280.127
856.0008, 1276.826
856.4829, 1268.225
856.9650, 1260.437
857.4471, 1253.708
857.9293, 1252.146
858.4114, 1258.244
858.8935, 1265.247
859.3756, 1264.106
859.8577, 1259.281
860.3398, 1257.646
860.8220, 1264.019
861.3041, 1269.370
861.7862, 1271.474
862.2683, 1271.667
862.7504, 1270.906
863.2325, 1268.845
863.7147, 1266.462
864.1968, 1262.269
864.6789, 1263.080
865.1610, 1285.573
865.6431, 1318.113
866.1252, 1334.641
866.6074, 1325.797
867.0895, 1313.233
867.5716, 1304.467
868.0537, 1299.696
868.5358, 1299.878
869.0179, 1309.601
869.5001, 1312.520
869.9822, 1305.962
870.4643, 1298.070
870.9464, 1297.901
871.4285, 1303.854
871.9106, 1308.155
872.3928, 1309.798
872.8749, 1313.048
873.3570, 1326.180
873.8391, 1339.669
874.3212, 1342.995
874.8033, 1331.029
875.2855, 1324.210
875.7676, 1327.560
876.2497, 1331.919
876.7318, 1329.268
877.2139, 1319.379
877.6960, 1323.426
878.1782, 1342.391
878.6603, 1359.093
879.1424, 1357.334
879.6245, 1347.192
880.1067, 1338.182
880.5888, 1331.241
881.0709, 1331.034
881.5530, 1343.623
882.0352, 1359.275
882.5173, 1375.234
882.9994, 1391.312
883.4815, 1400.007
883.9636, 1400.737
884.4457, 1398.291
884.9279, 1393.207
885.4100, 1387.824
885.8921, 1386.124
886.3742, 1388.084
886.8563, 1393.463
887.3384, 1411.687
887.8206, 1424.001
888.3027, 1414.502
888.7848, 1389.312
889.2669, 1382.023
889.7490, 1398.558
890.2311, 1413.159
890.7133, 1415.471
891.1954, 1411.553
891.6775, 1416.380
892.1596, 1427.437
892.6417, 1435.597
893.1238, 1432.507
893.6060, 1429.255
894.0881, 1433.939
894.5702, 1442.694
895.0523, 1445.441
895.5344, 1436.539
896.0165, 1432.826
896.4987, 1438.475
896.9808, 1448.444
897.4629, 1452.507
897.9450, 1452.299
898.4271, 1456.056
898.9092, 1467.759
899.3914, 1479.770
899.8735, 1486.177
900.3556, 1488.992
900.8377, 1490.676
901.3198, 1487.180
901.8019, 1490.313
902.2841, 1505.085
902.7662, 1519.939
903.2483, 1518.068
903.7304, 1501.784
904.2125, 1497.165
904.6946, 1508.340
905.1768, 1522.264
905.6589, 1528.922
906.1410, 1531.330
906.6231, 1532.596
907.1052, 1533.199
907.5873, 1532.231
908.0695, 1522.453
908.5516, 1519.669
909.0337, 1539.806
909.5158, 1582.488
909.9979, 1593.273
910.4800, 1571.116
910.9622, 1545.609
911.4443, 1537.055
911.9264, 1538.184
912.4085, 1542.333
912.8906, 1548.896
913.3727, 1556.275
913.8549, 1565.553
914.3370, 1573.843
914.8191, 1580.059
915.3012, 1584.422
915.7833, 1588.057
916.2654, 1590.921
916.7476, 1593.502
917.2297, 1594.947
917.7118, 1597.282
918.1939, 1603.760
918.6760, 1613.291
919.1581, 1623.112
919.6403, 1634.612
920.1224, 1643.138
920.6045, 1647.394
921.0866, 1648.315
921.5687, 1646.338
922.0508, 1640.967
922.5330, 1639.471
923.0151, 1644.094
923.4972, 1651.061
923.9793, 1652.257
924.4614, 1653.523
924.9435, 1666.017
925.4257, 1701.203
925.9078, 1729.293
926.3899, 1736.420
926.8720, 1736.382
927.3541, 1738.718
927.8362, 1742.747
928.3184, 1754.828
928.8005, 1776.083
929.2826, 1800.071
929.7647, 1820.230
930.2468, 1839.839
930.7289, 1866.566
931.2111, 1901.703
931.6932, 1928.804
932.1753, 1932.747
932.6574, 1935.928
933.1395, 1948.525
933.6216, 1970.255
934.1038, 1998.048
934.5859, 2032.125
935.0680, 2069.127
935.5501, 2110.604
936.0322, 2151.567
936.5143, 2182.274
936.9965, 2205.800
937.4786, 2233.757
937.9607, 2267.069
938.4428, 2309.861
938.9249, 2367.135
939.4070, 2433.334
939.8892, 2494.842
940.3713, 2550.988
940.8534, 2616.795
941.3355, 2697.670
941.8176, 2785.416
942.2997, 2867.971
942.7819, 2947.890
943.2640, 3028.264
943.7461, 3105.510
944.2282, 3191.649
944.7103, 3292.353
945.1924, 3400.486
945.6746, 3511.437
946.1567, 3624.394
946.6388, 3736.494
947.1209, 3847.465
947.6030, 3967.170
948.0851, 4101.889
948.5673, 4252.617
949.0494, 4429.002
949.5315, 4630.970
950.0136, 4819.985
950.4957, 4954.328
950.9778, 5106.477
951.4600, 5310.628
951.9421, 5559.336
952.4242, 5791.233
952.9063, 6006.336
953.3884, 6225.443
953.8705, 6456.226
954.3527, 6696.570
954.8348, 6938.377
955.3169, 7186.201
955.7990, 7457.676
956.2811, 7788.168
956.7632, 8103.511
957.2454, 8383.568
957.7275, 8647.807
958.2096, 8924.414
958.6917, 9213.331
959.1738, 9501.372
959.6559, 9786.940
960.1381, 10067.57
960.6202, 10352.27
961.1023, 10620.94
961.5844, 10852.13
962.0665, 11027.88
962.5486, 11196.57
963.0308, 11374.75
963.5129, 11525.65
963.9950, 11628.38
964.4771, 11683.15
964.9592, 11689.96
965.4413, 11649.00
965.9235, 11557.85
966.4056, 11411.89
966.8877, 11217.17
967.3698, 10969.80
967.8519, 10669.66
968.3340, 10346.88
968.8162, 9999.791
969.2983, 9629.192
969.7804, 9221.943
970.2625, 8800.119
970.7446, 8411.893
971.2267, 8048.868
971.7089, 7692.305
972.1910, 7324.824
972.6731, 6978.904
973.1552, 6676.638
973.6373, 6404.723
974.1194, 6150.122
974.6016, 5917.705
975.0837, 5684.977
975.5658, 5448.135
976.0479, 5223.369
976.5300, 5024.049
977.0121, 4844.523
977.4943, 4669.879
977.9764, 4499.283
978.4585, 4342.562
978.9406, 4207.026
979.4227, 4086.880
979.9048, 3981.191
980.3870, 3888.864
980.8691, 3801.847
981.3512, 3720.539
981.8333, 3644.520
982.3154, 3572.479
982.7975, 3506.524
983.2797, 3450.489
983.7618, 3403.514
984.2439, 3364.214
984.7260, 3338.354
985.2081, 3312.140
985.6902, 3282.339
986.1724, 3251.708
986.6545, 3222.262
987.1366, 3194.435
987.6187, 3176.089
988.1008, 3169.091
988.5829, 3165.552
989.0651, 3159.140
989.5472, 3151.803
990.0293, 3145.377
990.5114, 3140.098
990.9935, 3135.464
991.4756, 3128.695
991.9578, 3127.454
992.4399, 3137.032
992.9220, 3155.114
993.4041, 3173.418
993.8862, 3191.510
994.3683, 3207.211
994.8505, 3215.968
995.3326, 3225.680
995.8147, 3238.193
996.2968, 3255.570
996.7789, 3282.789
997.2610, 3323.783
997.7432, 3361.006
998.2253, 3391.219
998.7074, 3419.204
999.1895, 3448.507
999.6716, 3482.048
1000.154, 3525.706
1000.636, 3581.665
1001.118, 3643.279
1001.600, 3706.914
1002.082, 3777.482
1002.564, 3857.235
1003.046, 3946.825
1003.529, 4042.185
1004.011, 4143.909
1004.493, 4254.806
1004.975, 4378.268
1005.457, 4512.220
1005.939, 4658.859
1006.421, 4816.480
1006.903, 4975.729
1007.385, 5132.656
1007.868, 5296.461
1008.350, 5469.130
1008.832, 5648.063
1009.314, 5823.731
1009.796, 5996.847
1010.278, 6187.847
1010.760, 6402.715
1011.242, 6613.502
1011.725, 6804.470
1012.207, 6981.511
1012.689, 7151.388
1013.171, 7314.812
1013.653, 7459.207
1014.135, 7581.596
1014.617, 7700.093
1015.099, 7832.706
1015.581, 7965.396
1016.064, 8071.396
1016.546, 8151.382
1017.028, 8207.692
1017.510, 8229.140
1017.992, 8241.364
1018.474, 8255.887
1018.956, 8263.662
1019.438, 8248.038
1019.921, 8208.466
1020.403, 8162.412
1020.885, 8112.458
1021.367, 8059.084
1021.849, 8012.975
1022.331, 7957.814
1022.813, 7871.101
1023.295, 7743.670
1023.778, 7626.138
1024.260, 7530.907
1024.742, 7430.126
1025.224, 7305.998
1025.706, 7168.979
1026.188, 7065.271
1026.670, 6984.617
1027.152, 6882.234
1027.634, 6721.184
1028.117, 6549.249
1028.599, 6375.552
1029.081, 6207.211
1029.563, 6055.790
1030.045, 5925.859
1030.527, 5796.177
1031.009, 5664.839
1031.491, 5532.258
1031.974, 5397.081
1032.456, 5265.220
1032.938, 5151.379
1033.420, 5059.177
1033.902, 4949.461
1034.384, 4785.748
1034.866, 4642.427
1035.348, 4554.118
1035.830, 4504.759
1036.313, 4425.957
1036.795, 4324.028
1037.277, 4231.468
1037.759, 4163.475
1038.241, 4108.020
1038.723, 4056.272
1039.205, 4014.123
1039.687, 3992.803
1040.169, 4007.441
1040.652, 3990.465
1041.134, 3933.804
1041.616, 3870.857
1042.098, 3830.298
1042.580, 3804.868
1043.062, 3784.455
1043.544, 3768.292
1044.026, 3755.609
1044.509, 3742.372
1044.991, 3738.744
1045.473, 3753.531
1045.955, 3776.186
1046.437, 3774.522
1046.919, 3751.531
1047.401, 3730.512
1047.883, 3719.362
1048.365, 3708.610
1048.848, 3690.677
1049.330, 3669.449
1049.812, 3649.875
1050.294, 3634.291
1050.776, 3612.118
1051.258, 3582.344
1051.740, 3550.207
1052.222, 3518.004
1052.704, 3486.695
1053.187, 3458.656
1053.669, 3432.890
1054.151, 3405.425
1054.633, 3377.329
1055.115, 3343.104
1055.597, 3299.457
1056.079, 3251.679
1056.561, 3209.345
1057.044, 3171.614
1057.526, 3129.382
1058.008, 3080.137
1058.490, 3036.362
1058.972, 3011.966
1059.454, 2993.203
1059.936, 2970.040
1060.418, 2941.839
1060.901, 2906.772
1061.383, 2863.134
1061.865, 2821.430
1062.347, 2785.384
1062.829, 2754.610
1063.311, 2731.011
1063.793, 2711.781
1064.275, 2691.289
1064.757, 2668.080
1065.240, 2642.249
1065.722, 2612.127
1066.204, 2581.721
1066.686, 2554.413
1067.168, 2529.887
1067.650, 2507.422
1068.132, 2486.620
1068.614, 2465.903
1069.096, 2437.820
1069.579, 2414.974
1070.061, 2411.027
1070.543, 2419.092
1071.025, 2415.006
1071.507, 2397.833
1071.989, 2372.604
1072.471, 2336.449
1072.953, 2303.992
1073.436, 2295.931
1073.918, 2300.169
1074.400, 2300.969
1074.882, 2294.873
1075.364, 2286.611
1075.846, 2274.469
1076.328, 2264.656
1076.810, 2262.268
1077.292, 2264.408
1077.775, 2259.476
1078.257, 2249.941
1078.739, 2245.828
1079.221, 2253.876
1079.703, 2265.872
1080.185, 2288.535
1080.667, 2307.526
1081.149, 2302.425
1081.631, 2272.037
1082.114, 2246.141
1082.596, 2226.900
1083.078, 2216.199
1083.560, 2217.091
1084.042, 2226.524
1084.524, 2248.563
1085.006, 2280.433
1085.488, 2291.807
1085.971, 2274.902
1086.453, 2259.754
1086.935, 2253.947
1087.417, 2255.211
1087.899, 2263.054
1088.381, 2274.355
1088.863, 2282.778
1089.345, 2284.463
1089.828, 2291.274
1090.310, 2311.881
1090.792, 2330.017
1091.274, 2334.860
1091.756, 2328.840
1092.238, 2321.348
1092.720, 2314.246
1093.202, 2318.715
1093.684, 2355.580
1094.167, 2389.075
1094.649, 2393.533
1095.131, 2387.921
1095.613, 2401.389
1096.095, 2437.589
1096.577, 2462.077
1097.059, 2470.999
1097.541, 2479.358
1098.024, 2499.261
1098.506, 2525.955
1098.988, 2556.874
1099.470, 2591.058
1099.952, 2620.759
1100.434, 2643.534
1100.916, 2667.504
1101.398, 2695.223
1101.880, 2724.660
1102.363, 2751.362
1102.845, 2776.971
1103.327, 2803.120
1103.809, 2829.241
1104.291, 2860.657
1104.773, 2899.801
1105.255, 2943.358
1105.737, 2991.234
1106.219, 3041.682
1106.702, 3082.338
1107.184, 3114.706
1107.666, 3144.637
1108.148, 3175.471
1108.630, 3204.354
1109.112, 3231.621
1109.594, 3255.212
1110.076, 3274.195
1110.559, 3288.793
1111.041, 3293.611
1111.523, 3288.012
1112.005, 3282.321
1112.487, 3294.827
1112.969, 3302.385
1113.451, 3282.329
1113.933, 3238.205
1114.416, 3191.477
1114.898, 3141.486
1115.380, 3095.731
1115.862, 3056.335
1116.344, 3019.468
1116.826, 2983.049
1117.308, 2945.631
1117.790, 2905.250
1118.272, 2861.123
1118.755, 2815.820
1119.237, 2774.023
1119.719, 2722.790
1120.201, 2649.411
1120.683, 2569.943
1121.165, 2528.885
1121.647, 2515.932
1122.129, 2501.477
1122.611, 2479.904
1123.094, 2446.646
1123.576, 2383.981
1124.058, 2322.357
1124.540, 2283.676
1125.022, 2266.834
1125.504, 2260.407
1125.986, 2262.232
1126.468, 2248.189
1126.951, 2185.360
1127.433, 2121.656
1127.915, 2085.954
1128.397, 2069.511
1128.879, 2057.686
1129.361, 2052.541
1129.843, 2034.279
1130.325, 1999.351
1130.807, 1969.637
1131.290, 1977.173
1131.772, 1990.285
1132.254, 1973.875
1132.736, 1930.862
1133.218, 1901.858
1133.700, 1891.058
1134.182, 1887.103
1134.664, 1889.888
1135.146, 1891.832
1135.629, 1879.555
1136.111, 1860.714
1136.593, 1847.992
1137.075, 1845.458
1137.557, 1835.354
1138.039, 1808.015
1138.521, 1788.042
1139.003, 1790.389
1139.486, 1802.709
1139.968, 1790.618
1140.450, 1763.706
1140.932, 1748.117
1141.414, 1760.985
1141.896, 1769.568
1142.378, 1758.771
1142.860, 1748.342
1143.343, 1756.396
1143.825, 1779.129
1144.307, 1782.107
1144.789, 1767.958
1145.271, 1752.884
1145.753, 1742.989
1146.235, 1737.442
1146.717, 1737.021
1147.199, 1740.075
1147.682, 1747.806
1148.164, 1760.453
1148.646, 1755.850
1149.128, 1732.169
1149.610, 1709.688
1150.092, 1706.157
1150.574, 1706.988
1151.056, 1699.325
1151.538, 1687.733
1152.021, 1690.831
1152.503, 1711.682
1152.985, 1722.219
1153.467, 1715.873
1153.949, 1704.355
1154.431, 1696.963
1154.913, 1692.130
1155.395, 1689.723
1155.878, 1689.813
1156.360, 1681.819
1156.842, 1660.762
1157.324, 1653.023
1157.806, 1672.423
1158.288, 1699.310
1158.770, 1711.496
1159.252, 1710.549
1159.734, 1695.914
1160.217, 1658.310
1160.699, 1638.805
1161.181, 1644.104
1161.663, 1652.531
1162.145, 1653.508
1162.627, 1648.550
1163.109, 1635.277
1163.591, 1619.101
1164.073, 1612.758
1164.556, 1630.631
1165.038, 1643.554
1165.520, 1650.449
1166.002, 1650.440
1166.484, 1639.159
1166.966, 1621.138
1167.448, 1607.630
1167.930, 1599.264
1168.413, 1597.245
1168.895, 1609.531
1169.377, 1618.222
1169.859, 1619.617
1170.341, 1616.158
1170.823, 1606.714
1171.305, 1594.804
1171.787, 1598.874
1172.270, 1619.313
1172.752, 1633.898
1173.234, 1627.226
1173.716, 1616.045
1174.198, 1601.984
1174.680, 1591.600
1175.162, 1606.685
1175.644, 1640.467
1176.126, 1650.043
1176.609, 1625.566
1177.091, 1598.687
1177.573, 1586.033
1178.055, 1580.839
1178.537, 1579.927
1179.019, 1582.427
1179.501, 1585.827
1179.983, 1589.957
1180.465, 1592.771
1180.948, 1592.969
1181.430, 1594.159
1181.912, 1603.263
1182.394, 1610.700
1182.876, 1605.474
1183.358, 1588.679
1183.840, 1591.460
1184.322, 1613.078
1184.805, 1625.371
1185.287, 1610.407
1185.769, 1590.975
1186.251, 1582.951
1186.733, 1581.512
1187.215, 1580.949
1187.697, 1580.579
1188.179, 1585.242
1188.661, 1595.136
1189.144, 1603.920
1189.626, 1609.718
1190.108, 1610.564
1190.590, 1601.527
1191.072, 1587.522
1191.554, 1576.383
1192.036, 1566.851
1192.518, 1569.828
1193.000, 1587.206
1193.483, 1601.018
1193.965, 1594.121
1194.447, 1580.175
1194.929, 1569.607
1195.411, 1562.393
1195.893, 1556.737
1196.375, 1552.312
1196.857, 1550.418
1197.340, 1551.428
1197.822, 1553.611
1198.304, 1555.878
1198.786, 1558.079
1199.268, 1560.651
1199.750, 1563.139
1200.232, 1562.838
1200.714, 1558.413
1201.197, 1556.321
1201.679, 1557.779
1202.161, 1561.724
1202.643, 1571.615
1203.125, 1580.258
1203.607, 1577.570
1204.089, 1562.818
1204.571, 1554.322
1205.053, 1554.056
1205.536, 1553.032
1206.018, 1548.489
1206.500, 1543.006
1206.982, 1536.356
1207.464, 1532.735
1207.946, 1541.069
1208.428, 1565.459
1208.910, 1571.356
1209.392, 1553.691
1209.875, 1537.389
1210.357, 1531.987
1210.839, 1532.526
1211.321, 1534.566
1211.803, 1536.952
1212.285, 1537.601
1212.767, 1534.797
1213.249, 1536.655
1213.732, 1544.285
1214.214, 1552.097
1214.696, 1557.783
1215.178, 1561.478
1215.660, 1563.661
1216.142, 1563.880
1216.624, 1560.488
1217.106, 1547.843
1217.589, 1549.028
1218.071, 1568.153
1218.553, 1582.656
1219.035, 1575.128
1219.517, 1557.011
1219.999, 1536.394
1220.481, 1518.360
1220.963, 1514.759
1221.445, 1537.671
1221.927, 1546.760
1222.410, 1538.209
1222.892, 1530.656
1223.374, 1541.021
1223.856, 1558.433
1224.338, 1576.182
1224.820, 1589.597
1225.302, 1583.888
1225.784, 1546.010
1226.267, 1527.279
1226.749, 1533.232
1227.231, 1543.796
1227.713, 1538.951
1228.195, 1530.786
1228.677, 1532.200
1229.159, 1542.271
1229.641, 1556.738
1230.124, 1579.302
1230.606, 1589.132
1231.088, 1582.551
1231.570, 1571.681
1232.052, 1565.896
1232.534, 1563.708
1233.016, 1566.670
1233.498, 1572.323
1233.980, 1568.088
1234.463, 1550.423
1234.945, 1540.376
1235.427, 1542.297
1235.909, 1545.890
1236.391, 1536.710
1236.873, 1527.333
1237.355, 1531.148
1237.837, 1547.246
1238.320, 1562.444
1238.802, 1577.107
1239.284, 1587.093
1239.766, 1591.343
1240.248, 1591.825
1240.730, 1593.537
1241.212, 1589.997
1241.694, 1570.183
1242.177, 1537.989
1242.659, 1517.944
1243.141, 1510.322
1243.623, 1514.595
1244.105, 1533.202
1244.587, 1551.666
1245.069, 1557.509
1245.551, 1557.056
1246.033, 1552.099
1246.516, 1544.962
1246.998, 1552.776
1247.480, 1575.058
1247.962, 1587.373
1248.444, 1581.134
1248.926, 1568.689
1249.408, 1553.556
1249.890, 1541.146
1250.372, 1534.857
1250.855, 1534.561
1251.337, 1542.229
1251.819, 1556.560
1252.301, 1566.772
1252.783, 1568.331
1253.265, 1567.486
1253.747, 1567.202
1254.229, 1566.456
1254.712, 1563.337
1255.194, 1559.103
1255.676, 1564.778
1256.158, 1577.849
1256.640, 1584.848
1257.122, 1577.691
1257.604, 1571.491
1258.086, 1579.004
1258.568, 1582.911
1259.051, 1568.273
1259.533, 1542.662
1260.015, 1543.052
1260.497, 1562.916
1260.979, 1579.354
1261.461, 1584.647
1261.943, 1583.806
1262.425, 1573.011
1262.907, 1564.342
1263.390, 1567.282
1263.872, 1577.332
1264.354, 1580.427
1264.836, 1578.770
1265.318, 1578.470
1265.800, 1582.400
1266.282, 1586.751
1266.764, 1592.561
1267.247, 1595.573
1267.729, 1591.061
1268.211, 1582.849
1268.693, 1576.241
1269.175, 1572.848
1269.657, 1576.767
1270.139, 1601.961
1270.621, 1609.182
1271.104, 1592.742
1271.586, 1577.024
1272.068, 1583.120
1272.550, 1597.916
1273.032, 1604.866
1273.514, 1605.255
1273.996, 1601.025
1274.478, 1586.709
1274.960, 1586.472
1275.443, 1602.802
1275.925, 1618.098
1276.407, 1614.527
1276.889, 1608.835
1277.371, 1624.515
1277.853, 1647.043
1278.335, 1648.183
1278.817, 1622.061
1279.299, 1601.853
1279.782, 1588.159
1280.264, 1583.045
1280.746, 1593.611
1281.228, 1607.130
1281.710, 1618.574
1282.192, 1625.385
1282.674, 1623.797
1283.156, 1613.645
1283.639, 1601.125
1284.121, 1587.206
1284.603, 1580.040
1285.085, 1590.917
1285.567, 1601.626
1286.049, 1600.551
1286.531, 1598.843
1287.013, 1612.803
1287.495, 1637.782
1287.978, 1641.563
1288.460, 1626.184
1288.942, 1609.557
1289.424, 1593.652
1289.906, 1587.700
1290.388, 1595.867
1290.870, 1608.593
1291.352, 1619.938
1291.834, 1627.024
1292.317, 1615.810
1292.799, 1592.624
1293.281, 1583.856
1293.763, 1613.801
1294.245, 1634.560
1294.727, 1643.292
1295.209, 1641.439
1295.691, 1621.934
1296.174, 1598.490
1296.656, 1591.535
1297.138, 1597.716
1297.620, 1604.704
1298.102, 1614.203
1298.584, 1611.084
1299.066, 1592.099
1299.548, 1579.400
1300.031, 1600.677
1300.513, 1627.915
1300.995, 1636.903
1301.477, 1632.573
1301.959, 1630.308
1302.441, 1631.126
1302.923, 1618.703
1303.405, 1592.558
1303.887, 1573.116
1304.370, 1582.771
1304.852, 1593.625
1305.334, 1582.632
1305.816, 1569.578
##END=



