##NAMES=Graftonite
##RRUFFID=R070153
##IDEAL CHEMISTRY=Fe^2+^Fe^2+^_2_(P^5+^O_4_)_2_
##LOCALITY=Bull Moose mine, Custer, Custer County, South Dakota, USA
##OWNER=RRUFF
##SOURCE=James Shigley
##DESCRIPTION=Dark brown vitreous massive
##STATUS=The identification of this mineral has been confirmed only by single crystal X-ray diffraction.
##URL=rruff.info/R070153
170.9677, 1297.816
171.4499, 1289.916
171.9320, 1294.856
172.4141, 1309.809
172.8962, 1325.163
173.3783, 1338.427
173.8604, 1348.181
174.3426, 1352.685
174.8247, 1351.154
175.3068, 1346.854
175.7889, 1337.612
176.2710, 1325.671
176.7531, 1322.563
177.2353, 1337.233
177.7174, 1358.530
178.1995, 1368.087
178.6816, 1363.207
179.1637, 1355.845
179.6458, 1352.859
180.1279, 1353.653
180.6101, 1354.626
181.0922, 1353.901
181.5743, 1353.747
182.0564, 1357.605
182.5385, 1366.476
183.0206, 1374.292
183.5028, 1376.466
183.9849, 1373.727
184.4670, 1370.533
184.9491, 1366.765
185.4312, 1364.564
185.9133, 1366.487
186.3955, 1372.904
186.8776, 1379.415
187.3597, 1384.000
187.8418, 1386.489
188.3239, 1385.098
188.8060, 1375.414
189.2882, 1366.138
189.7703, 1366.765
190.2524, 1377.285
190.7345, 1386.802
191.2166, 1386.701
191.6987, 1378.332
192.1809, 1370.918
192.6630, 1364.242
193.1451, 1361.328
193.6272, 1366.066
194.1093, 1377.616
194.5914, 1387.557
195.0736, 1388.389
195.5557, 1381.739
196.0378, 1378.431
196.5199, 1380.456
197.0020, 1385.373
197.4841, 1391.319
197.9663, 1398.270
198.4484, 1406.099
198.9305, 1416.007
199.4126, 1427.178
199.8947, 1435.157
200.3768, 1437.470
200.8590, 1439.455
201.3411, 1445.399
201.8232, 1453.956
202.3053, 1461.066
202.7874, 1464.309
203.2695, 1464.076
203.7517, 1461.612
204.2338, 1454.354
204.7159, 1449.100
205.1980, 1450.081
205.6801, 1455.469
206.1622, 1461.355
206.6444, 1465.919
207.1265, 1469.366
207.6086, 1472.920
208.0907, 1478.587
208.5728, 1480.330
209.0549, 1471.107
209.5371, 1457.147
210.0192, 1449.122
210.5013, 1455.300
210.9834, 1468.739
211.4655, 1471.047
211.9476, 1456.903
212.4298, 1443.250
212.9119, 1437.936
213.3940, 1437.017
213.8761, 1435.780
214.3582, 1431.938
214.8403, 1427.386
215.3225, 1426.534
215.8046, 1431.368
216.2867, 1434.115
216.7688, 1430.971
217.2509, 1424.816
217.7330, 1417.719
218.2152, 1409.849
218.6973, 1402.828
219.1794, 1399.520
219.6615, 1400.878
220.1436, 1402.240
220.6257, 1401.875
221.1079, 1401.070
221.5900, 1400.543
222.0721, 1400.409
222.5542, 1401.151
223.0363, 1404.756
223.5184, 1412.248
224.0006, 1415.204
224.4827, 1404.667
224.9648, 1393.402
225.4469, 1391.090
225.9290, 1398.968
226.4111, 1408.993
226.8933, 1413.556
227.3754, 1412.517
227.8575, 1410.573
228.3396, 1409.502
228.8217, 1406.518
229.3038, 1396.493
229.7859, 1380.634
230.2681, 1369.869
230.7502, 1374.838
231.2323, 1394.276
231.7144, 1413.949
232.1965, 1437.098
232.6786, 1454.405
233.1608, 1458.610
233.6429, 1452.191
234.1250, 1444.646
234.6071, 1439.409
235.0892, 1437.279
235.5714, 1443.066
236.0535, 1462.145
236.5356, 1480.292
237.0177, 1489.141
237.4998, 1491.360
237.9819, 1492.129
238.4641, 1492.683
238.9462, 1493.836
239.4283, 1498.118
239.9104, 1506.965
240.3925, 1515.112
240.8746, 1518.023
241.3568, 1518.921
241.8389, 1522.226
242.3210, 1529.566
242.8031, 1539.752
243.2852, 1552.804
243.7673, 1570.014
244.2495, 1583.036
244.7316, 1584.961
245.2137, 1581.981
245.6958, 1579.819
246.1779, 1578.781
246.6600, 1580.788
247.1422, 1590.624
247.6243, 1608.385
248.1064, 1620.355
248.5885, 1618.082
249.0706, 1610.857
249.5527, 1610.105
250.0349, 1617.665
250.5170, 1623.409
250.9991, 1618.167
251.4812, 1603.994
251.9633, 1592.843
252.4454, 1588.640
252.9276, 1586.580
253.4097, 1580.637
253.8918, 1570.997
254.3739, 1563.743
254.8560, 1564.402
255.3381, 1569.435
255.8203, 1570.887
256.3024, 1568.057
256.7845, 1560.561
257.2666, 1543.291
257.7487, 1519.430
258.2308, 1502.338
258.7130, 1503.413
259.1951, 1510.186
259.6772, 1503.069
260.1593, 1479.183
260.6414, 1457.745
261.1235, 1457.642
261.6057, 1471.260
262.0878, 1473.038
262.5699, 1449.179
263.0520, 1420.531
263.5341, 1404.835
264.0162, 1400.988
264.4984, 1396.965
264.9805, 1385.800
265.4626, 1370.278
265.9447, 1358.990
266.4268, 1355.053
266.9089, 1350.541
267.3911, 1340.735
267.8732, 1327.227
268.3553, 1313.954
268.8374, 1301.902
269.3195, 1291.791
269.8016, 1285.437
270.2838, 1282.858
270.7659, 1282.450
271.2480, 1287.142
271.7301, 1292.694
272.2122, 1292.527
272.6943, 1284.774
273.1765, 1273.609
273.6586, 1263.338
274.1407, 1253.020
274.6228, 1248.957
275.1049, 1255.405
275.5870, 1265.618
276.0692, 1276.070
276.5513, 1285.609
277.0334, 1291.119
277.5155, 1289.574
277.9976, 1280.431
278.4797, 1269.873
278.9619, 1252.200
279.4440, 1238.697
279.9261, 1235.792
280.4082, 1241.624
280.8903, 1251.652
281.3724, 1264.060
281.8546, 1277.307
282.3367, 1282.092
282.8188, 1272.238
283.3009, 1261.737
283.7830, 1249.857
284.2651, 1239.627
284.7473, 1235.059
285.2294, 1237.794
285.7115, 1245.807
286.1936, 1255.407
286.6757, 1273.114
287.1578, 1281.785
287.6400, 1274.175
288.1221, 1262.993
288.6042, 1258.473
289.0863, 1262.064
289.5684, 1267.718
290.0505, 1267.792
290.5327, 1260.162
291.0148, 1255.875
291.4969, 1257.005
291.9790, 1259.250
292.4611, 1261.801
292.9432, 1263.989
293.4254, 1264.592
293.9075, 1262.104
294.3896, 1257.063
294.8717, 1255.924
295.3538, 1262.854
295.8359, 1268.589
296.3181, 1271.567
296.8002, 1271.840
297.2823, 1268.596
297.7644, 1260.882
298.2465, 1252.065
298.7286, 1250.432
299.2108, 1259.995
299.6929, 1266.206
300.1750, 1261.957
300.6571, 1255.743
301.1392, 1254.256
301.6213, 1258.786
302.1035, 1265.192
302.5855, 1268.606
303.0677, 1268.866
303.5498, 1271.757
304.0319, 1282.785
304.5140, 1291.272
304.9961, 1289.184
305.4782, 1278.063
305.9604, 1265.879
306.4425, 1257.059
306.9246, 1250.806
307.4067, 1245.005
307.8888, 1239.821
308.3709, 1234.626
308.8531, 1227.027
309.3352, 1219.346
309.8173, 1216.399
310.2994, 1223.022
310.7815, 1231.336
311.2636, 1233.190
311.7458, 1228.721
312.2279, 1220.806
312.7100, 1208.149
313.1921, 1194.563
313.6742, 1186.732
314.1563, 1185.519
314.6385, 1187.476
315.1206, 1195.134
315.6027, 1204.476
316.0848, 1205.654
316.5669, 1195.120
317.0490, 1179.609
317.5312, 1167.195
318.0133, 1157.772
318.4954, 1150.932
318.9775, 1149.793
319.4596, 1149.213
319.9417, 1142.329
320.4239, 1129.751
320.9060, 1120.789
321.3881, 1124.339
321.8702, 1139.785
322.3523, 1146.835
322.8344, 1140.226
323.3166, 1132.353
323.7987, 1126.209
324.2808, 1122.175
324.7629, 1121.376
325.2450, 1124.624
325.7271, 1129.302
326.2093, 1128.504
326.6914, 1115.549
327.1735, 1105.909
327.6556, 1099.824
328.1377, 1096.979
328.6198, 1098.915
329.1020, 1105.016
329.5841, 1110.603
330.0662, 1109.266
330.5483, 1098.492
331.0304, 1093.587
331.5125, 1100.548
331.9947, 1107.538
332.4768, 1111.762
332.9589, 1112.535
333.4410, 1108.869
333.9231, 1098.947
334.4052, 1085.271
334.8874, 1077.529
335.3695, 1076.315
335.8516, 1080.523
336.3337, 1095.335
336.8158, 1112.067
337.2979, 1121.483
337.7801, 1120.636
338.2622, 1115.512
338.7443, 1113.262
339.2264, 1114.067
339.7085, 1112.692
340.1906, 1104.677
340.6728, 1098.043
341.1549, 1100.187
341.6370, 1110.147
342.1191, 1119.549
342.6012, 1123.460
343.0833, 1123.874
343.5655, 1125.442
344.0476, 1128.983
344.5297, 1130.828
345.0118, 1126.859
345.4939, 1119.301
345.9760, 1114.267
346.4582, 1114.470
346.9403, 1115.205
347.4224, 1113.245
347.9045, 1109.081
348.3866, 1103.375
348.8687, 1094.925
349.3509, 1087.920
349.8330, 1093.456
350.3151, 1118.793
350.7972, 1134.021
351.2793, 1123.451
351.7614, 1105.992
352.2436, 1102.742
352.7257, 1116.204
353.2078, 1132.867
353.6899, 1139.958
354.1720, 1136.865
354.6541, 1129.679
355.1363, 1112.062
355.6184, 1097.754
356.1005, 1093.080
356.5826, 1095.391
357.0647, 1100.242
357.5468, 1105.548
358.0290, 1110.112
358.5111, 1110.111
358.9932, 1101.088
359.4753, 1095.105
359.9574, 1094.927
360.4395, 1096.462
360.9217, 1097.609
361.4038, 1097.557
361.8859, 1095.277
362.3680, 1087.623
362.8501, 1074.128
363.3322, 1068.170
363.8144, 1075.513
364.2965, 1083.596
364.7786, 1087.444
365.2607, 1087.948
365.7428, 1087.163
366.2249, 1086.737
366.7071, 1084.516
367.1892, 1074.413
367.6713, 1054.890
368.1534, 1041.674
368.6355, 1044.078
369.1176, 1053.305
369.5998, 1058.259
370.0819, 1057.906
370.5640, 1057.121
371.0461, 1058.556
371.5282, 1061.395
372.0103, 1064.570
372.4925, 1068.255
372.9746, 1069.787
373.4567, 1064.328
373.9388, 1052.492
374.4209, 1049.354
374.9030, 1064.733
375.3852, 1080.625
375.8673, 1086.332
376.3494, 1083.564
376.8315, 1077.247
377.3136, 1069.098
377.7957, 1061.296
378.2779, 1059.586
378.7600, 1072.072
379.2421, 1079.816
379.7242, 1077.745
380.2063, 1073.916
380.6884, 1075.283
381.1706, 1082.559
381.6527, 1091.626
382.1348, 1097.927
382.6169, 1101.073
383.0990, 1108.828
383.5811, 1132.681
384.0633, 1148.439
384.5454, 1143.082
385.0275, 1127.402
385.5096, 1117.427
385.9917, 1120.457
386.4738, 1130.698
386.9560, 1139.422
387.4381, 1146.923
387.9202, 1150.749
388.4023, 1145.302
388.8844, 1140.198
389.3665, 1141.903
389.8487, 1150.599
390.3308, 1163.682
390.8129, 1185.112
391.2950, 1208.795
391.7771, 1220.106
392.2592, 1216.585
392.7414, 1210.977
393.2235, 1211.420
393.7056, 1216.064
394.1877, 1218.630
394.6698, 1215.748
395.1519, 1214.917
395.6341, 1222.309
396.1162, 1234.339
396.5983, 1241.942
397.0804, 1241.701
397.5625, 1241.727
398.0446, 1254.655
398.5268, 1287.332
399.0089, 1311.005
399.4910, 1322.740
399.9731, 1328.289
400.4552, 1327.833
400.9373, 1323.789
401.4194, 1320.301
401.9016, 1319.480
402.3837, 1322.609
402.8658, 1336.336
403.3479, 1373.815
403.8300, 1400.831
404.3121, 1404.506
404.7943, 1402.953
405.2764, 1413.012
405.7585, 1436.812
406.2406, 1461.437
406.7227, 1471.424
407.2048, 1467.604
407.6870, 1471.587
408.1691, 1487.551
408.6512, 1505.564
409.1333, 1519.577
409.6154, 1531.855
410.0975, 1547.181
410.5797, 1570.007
411.0618, 1591.754
411.5439, 1600.442
412.0260, 1598.327
412.5081, 1601.892
412.9902, 1618.686
413.4724, 1639.528
413.9545, 1648.712
414.4366, 1645.097
414.9187, 1647.226
415.4008, 1670.162
415.8829, 1692.265
416.3651, 1689.318
416.8472, 1664.323
417.3293, 1641.675
417.8114, 1638.557
418.2935, 1650.274
418.7756, 1651.567
419.2578, 1626.117
419.7399, 1610.540
420.2220, 1618.127
420.7041, 1631.368
421.1862, 1633.711
421.6683, 1621.830
422.1505, 1602.947
422.6326, 1583.873
423.1147, 1564.432
423.5968, 1547.713
424.0789, 1534.484
424.5610, 1523.254
425.0432, 1514.581
425.5253, 1507.127
426.0074, 1498.577
426.4895, 1487.500
426.9716, 1476.739
427.4537, 1469.800
427.9359, 1466.572
428.4180, 1465.063
428.9001, 1464.583
429.3822, 1466.044
429.8643, 1470.705
430.3464, 1478.302
430.8286, 1487.151
431.3107, 1500.338
431.7928, 1512.140
432.2749, 1514.107
432.7570, 1508.227
433.2391, 1506.504
433.7213, 1515.731
434.2034, 1533.032
434.6855, 1549.773
435.1676, 1569.745
435.6497, 1583.397
436.1318, 1583.049
436.6140, 1580.995
437.0961, 1587.149
437.5782, 1602.545
438.0603, 1622.937
438.5424, 1644.639
439.0245, 1667.767
439.5067, 1694.208
439.9888, 1730.315
440.4709, 1759.784
440.9530, 1772.358
441.4351, 1780.088
441.9172, 1796.460
442.3994, 1825.172
442.8815, 1858.115
443.3636, 1889.515
443.8457, 1918.854
444.3278, 1940.770
444.8099, 1950.532
445.2921, 1961.993
445.7742, 1988.059
446.2563, 2024.783
446.7384, 2062.353
447.2205, 2098.337
447.7026, 2135.122
448.1848, 2174.931
448.6669, 2216.720
449.1490, 2259.070
449.6311, 2302.627
450.1132, 2341.086
450.5953, 2365.046
451.0775, 2370.451
451.5596, 2371.821
452.0417, 2362.081
452.5238, 2355.258
453.0059, 2364.761
453.4880, 2382.934
453.9702, 2392.596
454.4523, 2384.173
454.9344, 2361.369
455.4165, 2330.800
455.8986, 2285.687
456.3807, 2251.814
456.8629, 2243.384
457.3450, 2239.848
457.8271, 2232.083
458.3092, 2218.855
458.7913, 2200.093
459.2734, 2170.824
459.7556, 2137.639
460.2377, 2115.342
460.7198, 2105.055
461.2019, 2089.529
461.6840, 2058.915
462.1661, 2019.563
462.6483, 1983.360
463.1304, 1949.844
463.6125, 1920.851
464.0946, 1901.604
464.5767, 1884.396
465.0588, 1859.952
465.5410, 1828.172
466.0231, 1796.100
466.5052, 1769.201
466.9873, 1746.834
467.4694, 1724.170
467.9515, 1696.797
468.4337, 1674.792
468.9158, 1662.813
469.3979, 1654.376
469.8800, 1645.286
470.3621, 1633.912
470.8442, 1618.380
471.3264, 1594.326
471.8085, 1563.171
472.2906, 1537.712
472.7727, 1519.696
473.2548, 1503.766
473.7369, 1490.252
474.2191, 1476.335
474.7012, 1457.081
475.1833, 1429.613
475.6654, 1403.386
476.1475, 1384.158
476.6296, 1370.518
477.1118, 1361.025
477.5939, 1355.549
478.0760, 1349.170
478.5581, 1336.177
479.0402, 1316.768
479.5223, 1306.093
480.0045, 1318.897
480.4866, 1321.710
480.9687, 1298.427
481.4508, 1262.950
481.9329, 1229.906
482.4150, 1204.377
482.8972, 1188.653
483.3793, 1188.576
483.8614, 1206.128
484.3435, 1213.885
484.8256, 1208.290
485.3077, 1197.092
485.7899, 1179.835
486.2720, 1160.699
486.7541, 1145.816
487.2362, 1137.207
487.7183, 1132.100
488.2004, 1130.617
488.6826, 1130.914
489.1647, 1124.753
489.6468, 1109.181
490.1289, 1093.760
490.6110, 1088.219
491.0931, 1092.162
491.5753, 1090.870
492.0574, 1080.615
492.5395, 1069.358
493.0216, 1060.678
493.5037, 1052.839
493.9858, 1041.338
494.4680, 1025.494
494.9501, 1012.381
495.4322, 1012.790
495.9143, 1029.322
496.3964, 1037.445
496.8785, 1030.167
497.3607, 1022.213
497.8428, 1021.049
498.3249, 1021.007
498.8070, 1012.371
499.2891, 990.7672
499.7712, 968.8962
500.2533, 961.6454
500.7354, 966.0157
501.2176, 966.6213
501.6997, 960.0021
502.1818, 953.6349
502.6639, 954.5121
503.1460, 961.3664
503.6281, 964.9235
504.1103, 965.4995
504.5924, 962.1395
505.0745, 950.8315
505.5566, 936.6823
506.0387, 928.2155
506.5208, 927.0313
507.0030, 926.3635
507.4851, 917.5247
507.9672, 899.6402
508.4493, 890.7458
508.9314, 899.0843
509.4135, 906.3402
509.8957, 909.0472
510.3778, 907.7667
510.8599, 901.4955
511.3420, 889.9405
511.8241, 880.3126
512.3063, 881.2151
512.7884, 889.8934
513.2705, 896.1318
513.7526, 899.1278
514.2347, 898.9287
514.7169, 893.6998
515.1990, 885.4300
515.6811, 881.5659
516.1632, 884.3776
516.6453, 887.8989
517.1274, 893.4069
517.6096, 897.0036
518.0917, 891.6806
518.5738, 878.0538
519.0559, 865.9736
519.5380, 864.7619
520.0201, 872.7270
520.5023, 873.7943
520.9844, 861.0562
521.4665, 852.9641
521.9486, 856.1271
522.4307, 862.7130
522.9128, 866.3347
523.3950, 866.2112
523.8771, 865.2588
524.3592, 864.7341
524.8413, 864.9950
525.3234, 867.7571
525.8055, 873.2092
526.2877, 876.2745
526.7698, 873.2725
527.2519, 867.5967
527.7340, 867.3337
528.2161, 874.4205
528.6982, 880.1347
529.1804, 883.9130
529.6625, 885.4060
530.1446, 883.0829
530.6267, 878.1104
531.1088, 874.2474
531.5909, 874.0069
532.0731, 874.6843
532.5552, 867.7939
533.0373, 848.0837
533.5194, 837.4298
534.0015, 845.3951
534.4836, 856.9838
534.9658, 864.3490
535.4479, 868.1853
535.9300, 872.2471
536.4121, 879.2931
536.8942, 885.7833
537.3763, 886.7847
537.8585, 883.7369
538.3406, 881.8154
538.8227, 882.2405
539.3048, 886.1912
539.7869, 896.6628
540.2690, 915.8222
540.7512, 924.5201
541.2333, 913.6545
541.7154, 903.7761
542.1975, 902.7581
542.6796, 906.7807
543.1617, 910.3808
543.6439, 911.8679
544.1260, 913.2419
544.6081, 918.5273
545.0902, 927.3101
545.5723, 928.0212
546.0544, 915.6443
546.5366, 906.1275
547.0187, 909.7814
547.5008, 920.6673
547.9829, 931.1926
548.4650, 941.6857
548.9471, 948.3810
549.4292, 947.6001
549.9113, 943.0735
550.3934, 938.0691
550.8755, 933.5683
551.3577, 932.5203
551.8398, 937.6347
552.3219, 946.3063
552.8040, 948.2090
553.2861, 934.6612
553.7682, 929.6194
554.2504, 942.4209
554.7325, 956.2208
555.2146, 958.8607
555.6967, 952.7874
556.1788, 949.3095
556.6609, 956.2335
557.1431, 966.5900
557.6252, 968.0230
558.1073, 961.6108
558.5894, 961.0941
559.0715, 971.9365
559.5536, 985.2996
560.0358, 990.6279
560.5179, 987.1844
561.0000, 989.0437
561.4821, 1001.392
561.9642, 1013.503
562.4464, 1022.075
562.9285, 1027.307
563.4106, 1028.470
563.8927, 1025.921
564.3748, 1023.605
564.8569, 1026.381
565.3391, 1033.975
565.8212, 1040.450
566.3033, 1046.391
566.7854, 1049.921
567.2675, 1048.745
567.7496, 1045.472
568.2318, 1041.896
568.7139, 1037.793
569.1960, 1036.995
569.6781, 1044.508
570.1602, 1054.171
570.6423, 1056.965
571.1245, 1054.328
571.6066, 1056.525
572.0887, 1069.467
572.5708, 1087.972
573.0529, 1099.635
573.5350, 1097.428
574.0172, 1104.726
574.4993, 1133.699
574.9814, 1159.481
575.4635, 1166.295
575.9456, 1162.820
576.4277, 1167.217
576.9099, 1188.201
577.3920, 1212.114
577.8741, 1220.763
578.3562, 1219.295
578.8383, 1228.211
579.3204, 1251.086
579.8026, 1281.808
580.2847, 1319.254
580.7668, 1360.889
581.2489, 1389.787
581.7310, 1392.754
582.2131, 1402.728
582.6953, 1430.758
583.1774, 1463.123
583.6595, 1488.265
584.1416, 1505.854
584.6237, 1522.685
585.1058, 1543.722
585.5880, 1566.375
586.0701, 1585.304
586.5522, 1600.814
587.0343, 1609.238
587.5164, 1605.119
587.9985, 1599.788
588.4807, 1607.153
588.9628, 1624.344
589.4449, 1634.551
589.9270, 1631.579
590.4091, 1624.743
590.8912, 1618.549
591.3734, 1611.740
591.8555, 1603.531
592.3376, 1593.149
592.8197, 1576.585
593.3018, 1547.466
593.7839, 1507.773
594.2661, 1483.881
594.7482, 1487.866
595.2303, 1483.157
595.7124, 1453.979
596.1945, 1415.503
596.6766, 1379.060
597.1588, 1345.228
597.6409, 1310.376
598.1230, 1271.934
598.6051, 1232.501
599.0872, 1190.981
599.5693, 1150.428
600.0515, 1122.563
600.5336, 1112.133
601.0157, 1106.727
601.4978, 1089.044
601.9799, 1057.083
602.4620, 1027.030
602.9442, 997.9349
603.4263, 972.3552
603.9084, 948.9062
604.3905, 930.1956
604.8726, 921.6902
605.3547, 923.9243
605.8369, 924.8493
606.3190, 912.8094
606.8011, 895.1049
607.2832, 885.3946
607.7653, 883.5961
608.2474, 882.1488
608.7296, 877.8064
609.2117, 871.6989
609.6938, 865.5466
610.1759, 858.5011
610.6580, 854.3351
611.1401, 856.6997
611.6223, 857.7016
612.1044, 852.5549
612.5865, 844.6629
613.0686, 838.9240
613.5507, 836.8255
614.0328, 837.0239
614.5150, 839.2238
614.9971, 842.6707
615.4792, 844.3188
615.9613, 843.8082
616.4434, 844.8213
616.9255, 850.2404
617.4077, 857.1973
617.8898, 859.0684
618.3719, 852.4457
618.8540, 849.8817
619.3361, 854.0211
619.8182, 860.1712
620.3004, 869.1450
620.7825, 877.3668
621.2646, 877.5583
621.7467, 866.9486
622.2288, 854.6585
622.7109, 853.9832
623.1931, 862.4545
623.6752, 862.3908
624.1573, 850.8198
624.6394, 839.9764
625.1215, 835.5703
625.6036, 836.7006
626.0858, 842.7718
626.5679, 857.9486
627.0500, 865.4647
627.5321, 854.3434
628.0142, 842.7360
628.4963, 844.2383
628.9785, 854.5155
629.4606, 862.7834
629.9427, 864.4269
630.4248, 863.2711
630.9069, 864.2960
631.3890, 867.3607
631.8712, 870.0204
632.3533, 871.2920
632.8354, 875.1157
633.3175, 884.8854
633.7996, 898.0188
634.2817, 909.1818
634.7639, 918.6021
635.2460, 925.4470
635.7281, 924.5913
636.2102, 925.4672
636.6923, 936.9397
637.1744, 955.3505
637.6566, 971.6719
638.1387, 982.0809
638.6208, 989.5677
639.1029, 998.5965
639.5850, 1009.089
640.0671, 1015.715
640.5493, 1015.977
641.0314, 1019.698
641.5135, 1036.236
641.9956, 1057.121
642.4777, 1064.060
642.9598, 1051.618
643.4420, 1045.595
643.9241, 1060.000
644.4062, 1074.630
644.8883, 1075.044
645.3704, 1064.447
645.8525, 1051.742
646.3347, 1040.483
646.8168, 1027.450
647.2989, 1006.611
647.7810, 978.6094
648.2631, 955.0793
648.7452, 936.6085
649.2274, 921.7774
649.7095, 910.5536
650.1916, 902.2341
650.6737, 896.1424
651.1558, 893.3293
651.6379, 887.5400
652.1201, 873.5540
652.6022, 860.2911
653.0843, 855.8116
653.5664, 855.4028
654.0485, 848.5966
654.5306, 832.3925
655.0128, 816.7252
655.4949, 815.3948
655.9770, 825.9830
656.4591, 831.0113
656.9412, 830.7718
657.4233, 822.6277
657.9055, 800.8759
658.3876, 775.3648
658.8697, 762.0808
659.3518, 762.0237
659.8339, 761.5658
660.3160, 757.7213
660.7982, 755.0504
661.2803, 757.2666
661.7624, 761.3474
662.2445, 762.7485
662.7266, 760.5240
663.2087, 757.4605
663.6909, 755.3123
664.1730, 754.5859
664.6551, 758.7787
665.1372, 768.5383
665.6193, 772.8450
666.1014, 767.0632
666.5836, 756.4126
667.0657, 745.8489
667.5478, 735.2070
668.0299, 728.7373
668.5120, 731.0291
668.9941, 731.7690
669.4763, 724.3762
669.9584, 716.1473
670.4405, 716.3292
670.9226, 724.6559
671.4047, 731.8979
671.8868, 730.6573
672.3690, 725.5876
672.8511, 725.8411
673.3332, 730.7485
673.8153, 734.4559
674.2974, 736.0259
674.7795, 733.5131
675.2617, 722.8346
675.7438, 705.4943
676.2259, 699.6283
676.7080, 718.1096
677.1901, 730.5516
677.6722, 731.4606
678.1544, 727.7909
678.6365, 722.2440
679.1186, 716.6651
679.6007, 714.4788
680.0828, 718.0666
680.5649, 723.7700
681.0471, 728.3912
681.5292, 731.8832
682.0113, 735.2769
682.4934, 738.5537
682.9755, 735.6223
683.4576, 720.5939
683.9398, 699.3704
684.4219, 690.8384
684.9040, 704.0573
685.3861, 710.9009
685.8682, 705.8784
686.3503, 699.4611
686.8325, 694.8856
687.3146, 692.2789
687.7967, 691.2347
688.2788, 691.3547
688.7609, 694.6609
689.2430, 706.2485
689.7252, 719.3953
690.2073, 725.5381
690.6894, 724.8207
691.1715, 719.6022
691.6536, 710.7847
692.1357, 702.0584
692.6179, 699.8663
693.1000, 704.9250
693.5821, 708.8090
694.0642, 712.2618
694.5463, 713.1101
695.0284, 709.1498
695.5106, 702.9223
695.9927, 695.5681
696.4748, 686.8984
696.9569, 684.3393
697.4390, 696.6575
697.9211, 708.8106
698.4033, 708.9509
698.8854, 703.4760
699.3675, 704.1716
699.8496, 712.8750
700.3317, 720.3275
700.8138, 717.0821
701.2960, 707.0447
701.7781, 703.8975
702.2602, 708.2673
702.7423, 711.7706
703.2244, 713.4375
703.7065, 711.3099
704.1887, 701.3987
704.6708, 684.8667
705.1529, 675.0709
705.6350, 676.2255
706.1171, 678.0500
706.5992, 678.9627
707.0814, 679.8497
707.5635, 681.2543
708.0456, 683.2765
708.5277, 685.9101
709.0098, 689.1577
709.4919, 693.0271
709.9741, 700.0004
710.4562, 707.3933
710.9383, 704.4009
711.4204, 690.4329
711.9025, 681.4921
712.3846, 687.8588
712.8668, 701.8209
713.3489, 706.0445
713.8310, 697.2516
714.3131, 689.1091
714.7952, 678.9174
715.2773, 672.7304
715.7595, 674.4413
716.2416, 680.2437
716.7237, 685.5842
717.2058, 689.7912
717.6879, 694.6724
718.1700, 705.5767
718.6522, 713.5482
719.1343, 706.3394
719.6164, 690.7654
720.0985, 683.1142
720.5806, 687.1964
721.0627, 691.9183
721.5449, 685.0934
722.0270, 670.3563
722.5091, 665.9418
722.9912, 673.9875
723.4733, 680.9346
723.9554, 684.2734
724.4376, 684.8451
724.9197, 683.0619
725.4018, 678.9681
725.8839, 673.5289
726.3660, 664.4592
726.8481, 657.2121
727.3303, 652.1009
727.8124, 649.7693
728.2945, 651.9616
728.7766, 657.2358
729.2587, 662.0287
729.7408, 664.6092
730.2230, 667.3483
730.7051, 675.4669
731.1872, 685.2319
731.6693, 684.7876
732.1514, 674.1022
732.6335, 665.7500
733.1157, 665.8998
733.5978, 671.2374
734.0799, 677.2993
734.5620, 685.6044
735.0441, 684.5577
735.5262, 664.0186
736.0084, 649.1535
736.4905, 651.8125
736.9726, 659.9655
737.4547, 661.4124
737.9368, 656.0534
738.4189, 654.1686
738.9011, 665.3367
739.3832, 674.1374
739.8653, 666.6225
740.3474, 653.0173
740.8295, 649.2017
741.3116, 655.8885
741.7938, 661.5396
742.2759, 657.5551
742.7580, 649.1158
743.2401, 646.9189
743.7222, 650.7052
744.2043, 655.3992
744.6865, 660.9841
745.1686, 664.4855
745.6507, 663.6359
746.1328, 659.7520
746.6149, 656.4073
747.0970, 654.7252
747.5791, 650.9197
748.0612, 639.8863
748.5433, 632.5616
749.0255, 634.9280
749.5076, 642.7383
749.9897, 652.1338
750.4718, 662.0166
750.9539, 666.8593
751.4360, 659.0856
751.9182, 648.3881
752.4003, 644.7607
752.8824, 646.2158
753.3645, 648.0256
753.8466, 648.9403
754.3287, 649.8929
754.8109, 651.9894
755.2930, 654.3439
755.7751, 653.2527
756.2572, 648.0683
756.7393, 644.4848
757.2214, 644.1284
757.7036, 643.6668
758.1857, 638.8724
758.6678, 632.4225
759.1499, 634.5840
759.6320, 653.5303
760.1141, 663.4072
760.5963, 655.4847
761.0784, 644.9394
761.5605, 638.0460
762.0426, 634.7474
762.5247, 634.3973
763.0068, 636.7520
763.4890, 632.1179
763.9711, 641.8524
764.4532, 647.3704
764.9353, 648.8988
765.4174, 634.4877
765.8995, 640.6591
766.3817, 638.5820
766.8638, 636.1666
767.3459, 645.2349
767.8280, 633.1422
768.3101, 642.0284
768.7922, 642.5402
769.2744, 646.8848
769.7565, 642.9298
770.2386, 641.5383
770.7207, 648.4490
771.2028, 643.8316
771.6849, 643.5391
772.1671, 638.4708
772.6492, 635.8165
773.1313, 638.6692
773.6134, 641.7764
774.0955, 642.5213
774.5776, 641.4996
775.0598, 639.3194
775.5419, 636.2866
776.0240, 634.5361
776.5061, 637.2715
776.9882, 640.8727
777.4703, 639.7751
777.9525, 635.6738
778.4346, 633.5095
778.9167, 634.4134
779.3988, 636.2306
779.8809, 637.1083
780.3630, 637.4435
780.8452, 638.9816
781.3273, 642.1672
781.8094, 643.0599
782.2915, 640.2194
782.7736, 637.2017
783.2557, 636.4112
783.7379, 636.9343
784.2200, 636.1038
784.7021, 632.1508
785.1842, 631.7112
785.6663, 640.8682
786.1484, 647.0141
786.6306, 640.2051
787.1127, 629.8646
787.5948, 630.3726
788.0769, 642.5005
788.5590, 649.6742
789.0411, 634.4410
789.5233, 617.9697
790.0054, 625.4789
790.4875, 644.2487
790.9696, 648.6442
791.4517, 636.5990
791.9338, 625.5070
792.4160, 627.4651
792.8981, 635.7277
793.3802, 635.8499
793.8623, 628.1345
794.3444, 623.6104
794.8265, 623.6606
795.3087, 623.9061
795.7908, 621.9615
796.2729, 619.3367
796.7550, 618.4346
797.2371, 619.1974
797.7192, 622.0120
798.2014, 631.3669
798.6835, 636.9993
799.1656, 634.0558
799.6477, 628.7147
800.1298, 625.6025
800.6119, 624.9859
801.0941, 626.1251
801.5762, 631.6417
802.0583, 634.2371
802.5404, 627.0806
803.0225, 617.1733
803.5046, 612.3935
803.9868, 611.8235
804.4689, 609.2318
804.9510, 601.8973
805.4331, 597.0548
805.9152, 606.2181
806.3973, 623.8739
806.8795, 634.0615
807.3616, 636.8022
807.8437, 635.7333
808.3258, 631.6948
808.8079, 627.6186
809.2900, 626.7130
809.7722, 628.5260
810.2543, 629.7200
810.7364, 630.7782
811.2185, 629.6760
811.7006, 624.5535
812.1827, 619.3506
812.6649, 615.6965
813.1470, 614.0126
813.6291, 615.9199
814.1112, 623.8094
814.5933, 628.2523
815.0754, 626.2559
815.5576, 622.2907
816.0397, 615.1752
816.5218, 609.2438
817.0039, 611.5357
817.4860, 621.9504
817.9681, 630.8839
818.4503, 632.2881
818.9324, 630.5774
819.4145, 628.2012
819.8966, 626.4766
820.3787, 629.4633
820.8608, 636.2392
821.3430, 639.6791
821.8251, 635.3893
822.3072, 628.0717
822.7893, 626.3172
823.2714, 629.1430
823.7535, 626.2300
824.2357, 616.4071
824.7178, 611.6534
825.1999, 617.7493
825.6820, 627.1161
826.1641, 630.5679
826.6462, 628.1908
827.1284, 625.8557
827.6105, 623.9759
828.0926, 621.2953
828.5747, 614.1550
829.0568, 609.7125
829.5389, 616.1411
830.0211, 627.8950
830.5032, 630.9010
830.9853, 619.5652
831.4674, 611.9302
831.9495, 616.6806
832.4316, 621.8094
832.9138, 619.2065
833.3959, 612.9001
833.8780, 609.1027
834.3601, 608.8828
834.8422, 609.3152
835.3243, 607.4603
835.8065, 606.7579
836.2886, 613.9318
836.7707, 623.8217
837.2528, 625.3120
837.7349, 618.4136
838.2170, 611.2178
838.6992, 608.1938
839.1813, 608.4350
839.6634, 612.2189
840.1455, 618.5781
840.6276, 618.7882
841.1097, 612.1470
841.5919, 608.8500
842.0740, 613.1987
842.5561, 619.0622
843.0382, 619.6853
843.5203, 615.5449
844.0024, 611.7600
844.4846, 606.9544
844.9667, 606.0161
845.4488, 615.0583
845.9309, 621.1702
846.4130, 610.3936
846.8951, 593.2857
847.3773, 590.9923
847.8594, 608.8450
848.3415, 622.3687
848.8236, 628.6136
849.3057, 629.2573
849.7878, 621.1775
850.2700, 610.4109
850.7521, 602.1589
851.2342, 597.5118
851.7163, 597.2151
852.1984, 604.0942
852.6805, 610.6347
853.1627, 610.4268
853.6448, 607.3509
854.1269, 605.1465
854.6090, 604.6832
855.0911, 608.1444
855.5732, 616.0699
856.0554, 621.7104
856.5375, 613.2083
857.0196, 598.7753
857.5017, 602.9608
857.9838, 621.5952
858.4659, 628.9658
858.9481, 619.2791
859.4302, 607.1804
859.9123, 603.6085
860.3944, 605.9803
860.8765, 608.0428
861.3586, 610.0062
861.8408, 609.5922
862.3229, 606.3862
862.8050, 601.3577
863.2871, 593.0430
863.7692, 585.8544
864.2513, 586.4130
864.7335, 595.1029
865.2156, 601.3920
865.6977, 605.8580
866.1798, 606.9732
866.6619, 598.5219
867.1440, 592.7034
867.6262, 601.5411
868.1083, 617.4999
868.5904, 622.9173
869.0725, 612.2546
869.5546, 604.4524
870.0367, 606.3840
870.5189, 610.4117
871.0010, 614.6595
871.4831, 617.2252
871.9652, 614.6013
872.4473, 607.6964
872.9294, 602.9920
873.4116, 604.6812
873.8937, 607.4722
874.3758, 607.1660
874.8579, 605.3342
875.3400, 604.1896
875.8221, 603.5087
876.3043, 601.5212
876.7864, 597.6885
877.2685, 594.6057
877.7506, 595.6201
878.2327, 598.8489
878.7148, 599.6499
879.1970, 598.7325
879.6791, 599.7808
880.1612, 603.4030
880.6433, 606.8036
881.1254, 608.1377
881.6075, 607.8198
882.0897, 604.7065
882.5718, 598.5159
883.0539, 605.5476
883.5360, 629.9966
884.0181, 643.6554
884.5002, 634.2139
884.9824, 616.5121
885.4645, 604.9341
885.9466, 599.6281
886.4287, 602.7444
886.9108, 620.8464
887.3929, 632.4563
887.8751, 634.2042
888.3572, 631.5760
888.8393, 624.6385
889.3214, 616.3327
889.8035, 610.7991
890.2856, 607.7347
890.7678, 609.8560
891.2499, 621.3780
891.7320, 632.7761
892.2141, 645.7550
892.6962, 653.9794
893.1783, 645.6290
893.6605, 629.0535
894.1426, 629.5511
894.6247, 660.4847
895.1068, 680.6211
895.5889, 662.0756
896.0710, 637.4871
896.5532, 627.5728
897.0353, 628.0399
897.5174, 633.6628
897.9995, 641.5026
898.4816, 644.9117
898.9637, 637.9891
899.4459, 629.9926
899.9280, 630.1588
900.4101, 634.2563
900.8922, 635.9388
901.3743, 635.7917
901.8564, 638.2971
902.3386, 644.7463
902.8207, 650.2295
903.3028, 649.1252
903.7849, 644.5677
904.2670, 642.8841
904.7491, 643.4121
905.2313, 644.7402
905.7134, 646.2011
906.1955, 642.7802
906.6776, 630.9616
907.1597, 618.5878
907.6418, 620.8453
908.1240, 635.7650
908.6061, 639.7200
909.0882, 631.9305
909.5703, 631.1657
910.0524, 644.3098
910.5345, 653.5633
911.0167, 641.5306
911.4988, 617.6048
911.9809, 614.5714
912.4630, 639.3778
912.9451, 651.3631
913.4272, 644.1330
913.9094, 638.8865
914.3915, 645.2505
914.8736, 654.9623
915.3557, 658.7516
915.8378, 656.8885
916.3199, 653.9397
916.8021, 648.2401
917.2842, 644.4899
917.7663, 645.1625
918.2484, 645.3097
918.7305, 638.2631
919.2126, 631.2429
919.6948, 636.9713
920.1769, 657.3173
920.6590, 672.2948
921.1411, 680.7203
921.6232, 682.7274
922.1053, 671.6996
922.5875, 660.4011
923.0696, 659.3120
923.5517, 664.9359
924.0338, 667.8877
924.5159, 665.6600
924.9980, 665.2108
925.4802, 668.2108
925.9623, 674.3539
926.4444, 686.3974
926.9265, 699.4597
927.4086, 710.2379
927.8907, 716.8977
928.3729, 714.0275
928.8550, 695.3021
929.3371, 682.5094
929.8192, 694.9281
930.3013, 714.3898
930.7834, 724.4947
931.2656, 728.6495
931.7477, 733.8591
932.2298, 741.7643
932.7119, 751.0829
933.1940, 761.4418
933.6761, 772.0622
934.1583, 782.9124
934.6404, 793.0100
935.1225, 800.5830
935.6046, 805.8756
936.0867, 808.8327
936.5688, 809.9428
937.0510, 813.1223
937.5331, 821.4119
938.0152, 834.3279
938.4973, 854.0655
938.9794, 877.1857
939.4615, 890.7162
939.9437, 896.3623
940.4258, 913.4431
940.9079, 950.4561
941.3900, 989.9375
941.8721, 1008.971
942.3542, 1015.629
942.8364, 1034.228
943.3185, 1063.800
943.8006, 1100.274
944.2827, 1142.292
944.7648, 1179.002
945.2469, 1203.261
945.7290, 1222.418
946.2111, 1246.873
946.6932, 1276.679
947.1754, 1314.771
947.6575, 1361.268
948.1396, 1408.576
948.6217, 1454.698
949.1038, 1504.236
949.5859, 1561.303
950.0681, 1622.573
950.5502, 1681.162
951.0323, 1737.092
951.5144, 1787.293
951.9965, 1827.899
952.4786, 1884.733
952.9608, 1968.720
953.4429, 2058.381
953.9250, 2133.489
954.4071, 2201.304
954.8892, 2289.392
955.3713, 2406.602
955.8535, 2506.949
956.3356, 2581.991
956.8177, 2660.357
957.2998, 2752.348
957.7819, 2850.902
958.2640, 2952.472
958.7462, 3054.256
959.2283, 3139.593
959.7104, 3193.970
960.1925, 3266.599
960.6746, 3369.139
961.1567, 3472.354
961.6389, 3570.289
962.1210, 3659.184
962.6031, 3737.237
963.0852, 3803.451
963.5673, 3847.752
964.0494, 3853.884
964.5316, 3865.580
965.0137, 3906.476
965.4958, 3926.820
965.9779, 3896.114
966.4600, 3838.722
966.9421, 3788.179
967.4243, 3744.278
967.9064, 3673.583
968.3885, 3558.182
968.8706, 3440.634
969.3527, 3322.790
969.8348, 3206.596
970.3170, 3098.207
970.7991, 2989.328
971.2812, 2866.015
971.7633, 2727.029
972.2454, 2595.325
972.7275, 2469.993
973.2097, 2357.363
973.6918, 2265.730
974.1739, 2179.857
974.6560, 2084.740
975.1381, 1991.678
975.6202, 1924.494
976.1024, 1887.000
976.5845, 1840.865
977.0666, 1772.654
977.5487, 1702.634
978.0308, 1631.167
978.5129, 1565.278
978.9951, 1511.413
979.4772, 1466.165
979.9593, 1421.301
980.4414, 1374.767
980.9235, 1339.870
981.4056, 1333.849
981.8878, 1322.304
982.3699, 1281.690
982.8520, 1239.885
983.3341, 1221.008
983.8162, 1218.450
984.2983, 1216.858
984.7805, 1213.729
985.2626, 1204.701
985.7447, 1184.681
986.2268, 1163.049
986.7089, 1137.460
987.1910, 1117.683
987.6732, 1116.172
988.1553, 1126.373
988.6374, 1132.750
989.1195, 1131.609
989.6016, 1128.854
990.0837, 1127.204
990.5659, 1123.955
991.0480, 1113.713
991.5301, 1104.534
992.0122, 1106.802
992.4943, 1116.046
992.9764, 1119.873
993.4586, 1114.765
993.9407, 1109.530
994.4228, 1104.372
994.9049, 1104.421
995.3870, 1117.379
995.8691, 1133.077
996.3513, 1139.337
996.8334, 1139.948
997.3155, 1147.663
997.7976, 1166.692
998.2797, 1182.874
998.7618, 1186.286
999.2440, 1189.313
999.7261, 1197.946
1000.208, 1210.610
1000.690, 1226.348
1001.172, 1244.267
1001.655, 1262.534
1002.137, 1280.401
1002.619, 1301.465
1003.101, 1325.886
1003.583, 1355.705
1004.065, 1396.996
1004.547, 1440.704
1005.029, 1475.132
1005.511, 1504.548
1005.994, 1541.460
1006.476, 1589.610
1006.958, 1639.005
1007.440, 1682.152
1007.922, 1728.740
1008.404, 1791.138
1008.886, 1853.838
1009.368, 1896.261
1009.851, 1926.753
1010.333, 1966.478
1010.815, 2020.493
1011.297, 2084.483
1011.779, 2173.194
1012.261, 2250.605
1012.743, 2286.263
1013.225, 2312.758
1013.707, 2364.730
1014.190, 2431.129
1014.672, 2482.483
1015.154, 2511.723
1015.636, 2535.274
1016.118, 2556.602
1016.600, 2577.182
1017.082, 2603.946
1017.564, 2624.732
1018.047, 2621.862
1018.529, 2607.591
1019.011, 2608.577
1019.493, 2630.177
1019.975, 2647.328
1020.457, 2653.300
1020.939, 2651.163
1021.421, 2639.554
1021.903, 2622.668
1022.386, 2602.726
1022.868, 2580.207
1023.350, 2554.282
1023.832, 2525.054
1024.314, 2497.730
1024.796, 2480.431
1025.278, 2456.045
1025.760, 2418.822
1026.243, 2373.425
1026.725, 2314.508
1027.207, 2253.993
1027.689, 2214.889
1028.171, 2198.202
1028.653, 2164.917
1029.135, 2093.019
1029.617, 2024.994
1030.099, 1972.185
1030.582, 1922.331
1031.064, 1865.547
1031.546, 1809.336
1032.028, 1764.890
1032.510, 1731.960
1032.992, 1700.479
1033.474, 1673.311
1033.956, 1641.043
1034.438, 1595.844
1034.921, 1553.562
1035.403, 1524.969
1035.885, 1500.703
1036.367, 1469.731
1036.849, 1432.813
1037.331, 1398.684
1037.813, 1368.958
1038.295, 1339.855
1038.778, 1307.911
1039.260, 1281.245
1039.742, 1264.194
1040.224, 1251.805
1040.706, 1240.644
1041.188, 1230.179
1041.670, 1217.856
1042.152, 1200.946
1042.635, 1189.175
1043.117, 1185.040
1043.599, 1181.783
1044.081, 1179.503
1044.563, 1174.548
1045.045, 1162.586
1045.527, 1146.392
1046.009, 1133.980
1046.491, 1126.362
1046.974, 1117.473
1047.456, 1106.017
1047.938, 1097.331
1048.420, 1094.453
1048.902, 1089.990
1049.384, 1077.967
1049.866, 1062.309
1050.348, 1051.472
1050.830, 1045.761
1051.313, 1035.042
1051.795, 1017.707
1052.277, 1004.553
1052.759, 998.4688
1053.241, 991.6629
1053.723, 979.2120
1054.205, 965.6497
1054.687, 958.3865
1055.169, 956.2458
1055.652, 950.3371
1056.134, 940.6641
1056.616, 928.4948
1057.098, 913.9828
1057.580, 894.3308
1058.062, 867.3925
1058.544, 845.7159
1059.026, 845.4951
1059.509, 858.3610
1059.991, 859.6294
1060.473, 850.4459
1060.955, 835.0417
1061.437, 815.1355
1061.919, 801.7542
1062.401, 798.4473
1062.883, 799.1179
1063.365, 799.1284
1063.848, 798.2610
1064.330, 795.8380
1064.812, 792.3278
1065.294, 790.2609
1065.776, 788.2738
1066.258, 779.5097
1066.740, 763.8895
1067.222, 752.1810
1067.704, 751.7461
1068.187, 751.8868
1068.669, 734.8593
1069.151, 714.6334
1069.633, 714.6177
1070.115, 726.3485
1070.597, 733.9951
1071.079, 734.9052
1071.561, 730.4737
1072.044, 721.0264
1072.526, 713.4258
1073.008, 714.1614
1073.490, 717.7445
1073.972, 721.1676
1074.454, 723.2513
1074.936, 721.6024
1075.418, 717.8011
1075.901, 716.5310
1076.383, 718.7610
1076.865, 717.8400
1077.347, 704.0616
1077.829, 695.1418
1078.311, 704.8275
1078.793, 717.3833
1079.275, 723.7602
1079.757, 723.2123
1080.240, 711.8812
1080.722, 691.7742
1081.204, 681.4280
1081.686, 690.5268
1082.168, 699.5680
1082.650, 707.7315
1083.132, 711.6027
1083.614, 706.4218
1084.096, 698.7661
1084.579, 695.4999
1085.061, 695.5818
1085.543, 693.5039
1086.025, 687.1208
1086.507, 684.9161
1086.989, 690.6486
1087.471, 693.7094
1087.953, 689.5042
1088.436, 685.4599
1088.918, 685.8083
1089.400, 690.6212
1089.882, 701.6860
1090.364, 719.5498
1090.846, 724.2182
1091.328, 711.4461
1091.810, 706.3660
1092.292, 713.9919
1092.775, 722.1301
1093.257, 724.8601
1093.739, 726.0314
1094.221, 730.9734
1094.703, 737.5087
1095.185, 734.8209
1095.667, 724.1551
1096.149, 723.6808
1096.631, 734.1612
1097.114, 748.2356
1097.596, 763.2488
1098.078, 772.2134
1098.560, 768.7169
1099.042, 760.9847
1099.524, 760.8622
1100.006, 767.6427
1100.488, 783.7067
1100.971, 804.4203
1101.453, 815.4427
1101.935, 816.3412
1102.417, 818.3885
1102.899, 826.9616
1103.381, 836.1971
1103.863, 841.5743
1104.345, 844.1205
1104.828, 841.5574
1105.310, 839.1968
1105.792, 844.3924
1106.274, 855.7751
1106.756, 870.6259
1107.238, 887.4014
1107.720, 898.1962
1108.202, 893.7036
1108.684, 891.6670
1109.167, 904.5071
1109.649, 917.9609
1110.131, 920.8668
1110.613, 919.7585
1111.095, 923.7717
1111.577, 932.2581
1112.059, 938.5427
1112.541, 942.9133
1113.023, 942.0067
1113.506, 932.2675
1113.988, 921.6449
1114.470, 913.7179
1114.952, 903.6346
1115.434, 886.0869
1115.916, 865.6009
1116.398, 850.6166
1116.880, 841.2407
1117.363, 835.6754
1117.845, 836.3440
1118.327, 830.3898
1118.809, 813.4932
1119.291, 803.2569
1119.773, 809.5438
1120.255, 815.6564
1120.737, 802.5843
1121.219, 777.2048
1121.702, 760.6114
1122.184, 751.7332
1122.666, 741.1816
1123.148, 729.0675
1123.630, 720.4442
1124.112, 716.2708
1124.594, 712.6837
1125.076, 707.4655
1125.558, 700.0933
1126.041, 686.9510
1126.523, 673.2932
1127.005, 671.0106
1127.487, 673.7254
1127.969, 668.9211
1128.451, 657.2430
1128.933, 644.6497
1129.415, 633.3309
1129.898, 625.0669
1130.380, 622.3726
1130.862, 620.4914
1131.344, 617.7769
1131.826, 613.1630
1132.308, 603.3668
1132.790, 592.7070
1133.272, 586.7162
1133.755, 585.3871
1134.237, 585.6675
1134.719, 587.5991
1135.201, 589.1597
1135.683, 590.8420
1136.165, 591.0049
1136.647, 587.9545
1137.129, 584.6945
1137.611, 584.9451
1138.094, 584.4722
1138.576, 574.4561
1139.058, 555.3961
1139.540, 546.7352
1140.022, 549.9730
1140.504, 558.9600
1140.986, 575.9969
1141.468, 582.2092
1141.950, 568.9135
1142.433, 555.8467
1142.915, 561.1657
1143.397, 575.6489
1143.879, 580.2512
1144.361, 576.5334
1144.843, 570.9034
1145.325, 563.8464
1145.807, 556.2108
1146.290, 548.7850
1146.772, 544.9034
1147.254, 545.9545
1147.736, 548.2219
1148.218, 549.7311
1148.700, 548.9122
1149.182, 541.6417
1149.664, 532.9424
1150.146, 528.0837
1150.629, 527.1956
1151.111, 532.2252
1151.593, 541.0445
1152.075, 542.3245
1152.557, 527.8629
1153.039, 519.6755
1153.521, 531.6913
1154.003, 543.2791
1154.485, 546.5896
1154.968, 545.3308
1155.450, 541.3688
1155.932, 535.6414
1156.414, 528.5256
1156.896, 519.7773
1157.378, 519.3398
1157.860, 531.7510
1158.342, 538.7838
1158.825, 537.2719
1159.307, 536.8727
1159.789, 541.7198
1160.271, 545.8434
1160.753, 543.6106
1161.235, 538.1604
1161.717, 537.0181
1162.199, 539.1793
1162.682, 537.0940
1163.164, 532.0953
1163.646, 533.2551
1164.128, 540.2093
1164.610, 541.4987
1165.092, 532.6571
1165.574, 522.2963
1166.056, 518.0145
1166.538, 515.1462
1167.021, 505.7299
1167.503, 497.4969
1167.985, 502.0277
1168.467, 512.6813
1168.949, 518.2380
1169.431, 518.2124
1169.913, 518.9268
1170.395, 523.1306
1170.877, 523.0659
1171.360, 509.5648
1171.842, 501.2515
1172.324, 508.0522
1172.806, 517.1882
1173.288, 523.1599
1173.770, 524.8629
1174.252, 519.1131
1174.734, 507.5084
1175.217, 502.1629
1175.699, 504.3954
1176.181, 507.2178
1176.663, 511.1481
1177.145, 509.3934
1177.627, 499.6198
1178.109, 490.9387
1178.591, 489.0333
1179.073, 492.4005
1179.556, 500.7827
1180.038, 511.1988
1180.520, 516.1071
1181.002, 516.9828
1181.484, 515.9668
1181.966, 514.4999
1182.448, 516.9430
1182.930, 523.1252
1183.412, 525.4639
1183.895, 519.4426
1184.377, 511.2576
1184.859, 502.7260
1185.341, 495.8993
1185.823, 490.9335
1186.305, 489.3645
1186.787, 494.9693
1187.269, 504.1051
1187.752, 510.1262
1188.234, 512.4496
1188.716, 510.1318
1189.198, 498.9099
1189.680, 492.7397
1190.162, 494.6651
1190.644, 494.8238
1191.126, 488.8132
1191.609, 484.8225
1192.091, 490.0179
1192.573, 498.3664
1193.055, 498.1078
1193.537, 491.1384
1194.019, 486.3527
1194.501, 483.5799
1194.983, 483.0970
1195.465, 483.9559
1195.948, 481.4272
1196.430, 474.5869
1196.912, 467.5934
1197.394, 461.2712
1197.876, 462.7925
1198.358, 490.6075
1198.840, 515.6198
1199.322, 504.2625
1199.804, 483.1935
1200.287, 486.1139
1200.769, 503.2801
1201.251, 505.3441
1201.733, 488.1112
1202.215, 477.8442
1202.697, 482.7876
1203.179, 486.0748
1203.661, 487.1975
1204.144, 485.8758
1204.626, 479.1101
1205.108, 477.6749
1205.590, 492.2917
1206.072, 511.5366
1206.554, 513.0392
1207.036, 500.0403
1207.518, 488.6812
1208.000, 479.7483
1208.483, 480.5754
1208.965, 489.1831
1209.447, 490.6695
1209.929, 482.2086
1210.411, 478.9179
1210.893, 491.8158
1211.375, 503.4820
1211.857, 495.7785
1212.339, 483.9001
1212.822, 479.6213
1213.304, 478.7508
1213.786, 475.8815
1214.268, 472.9168
1214.750, 476.1448
1215.232, 485.5807
1215.714, 487.9420
1216.196, 476.9699
1216.679, 468.9235
1217.161, 464.5169
1217.643, 461.4075
1218.125, 458.7866
1218.607, 458.3447
1219.089, 461.7507
1219.571, 465.6097
1220.053, 464.2363
1220.536, 460.2339
1221.018, 463.6953
1221.500, 471.9828
1221.982, 475.9972
1222.464, 475.2512
1222.946, 467.4232
1223.428, 455.1697
1223.910, 453.4781
1224.392, 470.1755
1224.875, 484.7510
1225.357, 481.6359
1225.839, 474.8869
1226.321, 470.0326
1226.803, 467.7325
1227.285, 469.0522
1227.767, 472.7338
1228.249, 479.9118
1228.731, 488.0589
1229.214, 486.2162
1229.696, 472.5048
1230.178, 456.8914
1230.660, 435.9067
1231.142, 431.4249
1231.624, 448.9071
1232.106, 463.4951
1232.588, 464.1982
1233.071, 462.9253
1233.553, 471.8902
1234.035, 481.8225
1234.517, 473.3532
1234.999, 457.9029
1235.481, 455.5356
1235.963, 462.1077
1236.445, 471.9322
1236.927, 481.6896
1237.410, 485.6091
##END=



