##NAMES=Grandidierite
##RRUFFID=R050196
##IDEAL CHEMISTRY=MgAl_3_O_2_(BO_3_)SiO_4_
##LOCALITY=Madagascar
##OWNER=RRUFF
##SOURCE=Marcus Origlieri
##DESCRIPTION=Aggregate of anhedral blue-green crystals
##STATUS=The identification of this mineral has been confirmed by X-ray diffraction and chemical analysis
##URL=rruff.info/R050196
##MEASURED CHEMISTRY=(Mg_0.829_Fe^2+^_0.169_Mn_0.002_)Al_3_(BO_3_)(SiO_4_)O_2_
93.77539, 27.19919
94.25751, 26.31391
94.73962, 26.70419
95.22174, 28.18759
95.70386, 30.10839
96.18597, 32.27422
96.66809, 34.69035
97.15021, 37.34845
97.63232, 40.23207
98.11444, 43.48928
98.59656, 47.26685
99.07867, 51.58019
99.56079, 56.37039
100.0429, 61.60992
100.5250, 67.27473
101.0071, 73.24283
101.4893, 79.31644
101.9714, 85.84174
102.4535, 93.59799
102.9356, 102.9682
103.4177, 112.6564
103.8998, 121.8960
104.3820, 130.7914
104.8641, 139.1853
105.3462, 146.9310
105.8283, 154.1676
106.3104, 162.2503
106.7925, 172.0488
107.2747, 181.6685
107.7568, 189.5784
108.2389, 194.4137
108.7210, 199.6331
109.2031, 205.5925
109.6852, 212.3567
110.1674, 219.6563
110.6495, 227.4478
111.1316, 235.8634
111.6137, 245.0142
112.0958, 254.6209
112.5779, 265.3528
113.0601, 277.6828
113.5422, 292.0890
114.0243, 306.2819
114.5064, 319.9896
114.9885, 333.2531
115.4706, 346.3116
115.9528, 359.2213
116.4349, 371.8579
116.9170, 383.9702
117.3991, 395.6666
117.8812, 407.0735
118.3633, 418.4303
118.8455, 429.5417
119.3276, 439.9794
119.8097, 449.3621
120.2918, 458.2784
120.7739, 467.0934
121.2560, 476.0354
121.7382, 484.7308
122.2203, 492.9278
122.7024, 500.6812
123.1845, 508.1739
123.6666, 515.6642
124.1487, 522.8740
124.6309, 529.5746
125.1130, 535.3953
125.5951, 540.8279
126.0772, 546.2051
126.5593, 551.5446
127.0414, 557.0035
127.5236, 562.7433
128.0057, 568.6691
128.4878, 574.7311
128.9699, 580.8217
129.4520, 587.0145
129.9341, 593.3654
130.4162, 599.8719
130.8984, 606.5923
131.3805, 613.6694
131.8626, 621.0515
132.3447, 628.4977
132.8268, 635.8318
133.3089, 643.1447
133.7911, 649.5233
134.2732, 653.1616
134.7553, 654.5341
135.2374, 655.3839
135.7195, 655.7271
136.2016, 655.9700
136.6838, 656.1453
137.1659, 656.2604
137.6480, 656.8876
138.1301, 658.1069
138.6122, 659.6984
139.0943, 661.4382
139.5765, 663.4561
140.0586, 665.1189
140.5407, 665.9615
141.0228, 665.7307
141.5049, 666.0364
141.9870, 667.0389
142.4692, 668.5307
142.9513, 669.9640
143.4334, 671.4348
143.9155, 672.6705
144.3976, 673.4496
144.8797, 673.4116
145.3619, 673.7401
145.8440, 674.5164
146.3261, 675.7001
146.8082, 677.1065
147.2903, 678.9824
147.7724, 680.8194
148.2546, 682.2803
148.7367, 682.6360
149.2188, 683.7100
149.7009, 685.9642
150.1830, 689.3167
150.6651, 692.2108
151.1473, 694.4404
151.6294, 696.3519
152.1115, 698.1639
152.5936, 699.4786
153.0757, 701.1324
153.5578, 703.0140
154.0400, 705.0606
154.5221, 708.1387
155.0042, 712.5212
155.4863, 717.8379
155.9684, 723.7487
156.4505, 729.4457
156.9327, 736.4919
157.4148, 745.0837
157.8969, 755.0680
158.3790, 767.1776
158.8611, 783.8896
159.3432, 802.0872
159.8254, 818.3903
160.3075, 838.2526
160.7896, 850.8348
161.2717, 851.1711
161.7538, 837.7744
162.2359, 818.8430
162.7181, 792.4535
163.2002, 763.1990
163.6823, 737.4500
164.1644, 717.6439
164.6465, 701.7732
165.1286, 688.9716
165.6108, 679.2531
166.0929, 671.8806
166.5750, 667.1971
167.0571, 664.4634
167.5392, 662.3488
168.0213, 660.4481
168.5035, 658.7946
168.9856, 657.3492
169.4677, 656.0008
169.9498, 655.1318
170.4319, 655.7023
170.9140, 657.0135
171.3962, 657.4161
171.8783, 655.0691
172.3604, 651.8121
172.8425, 649.5010
173.3246, 648.5670
173.8067, 648.3761
174.2889, 648.7048
174.7710, 649.4067
175.2531, 649.9943
175.7352, 649.9741
176.2173, 649.7211
176.6994, 649.8021
177.1816, 650.5010
177.6637, 651.2487
178.1458, 651.3640
178.6279, 650.9365
179.1100, 650.4059
179.5921, 649.8347
180.0743, 649.3778
180.5564, 649.4127
181.0385, 650.2162
181.5206, 651.2382
182.0027, 651.6537
182.4848, 651.5068
182.9670, 651.2327
183.4491, 651.2139
183.9312, 651.3212
184.4133, 651.1809
184.8954, 650.6307
185.3775, 649.8755
185.8597, 649.2280
186.3418, 648.6912
186.8239, 648.2628
187.3060, 648.0667
187.7881, 648.0195
188.2702, 647.7452
188.7523, 647.0801
189.2345, 646.1937
189.7166, 645.4953
190.1987, 644.9952
190.6808, 644.5261
191.1629, 643.9636
191.6451, 643.3195
192.1272, 642.5801
192.6093, 641.5751
193.0914, 640.5561
193.5735, 640.4071
194.0556, 641.2221
194.5378, 642.2849
195.0199, 642.7422
195.5020, 642.6357
195.9841, 643.0883
196.4662, 644.6241
196.9483, 646.8950
197.4305, 648.3195
197.9126, 648.7361
198.3947, 648.9316
198.8768, 649.7226
199.3589, 651.1225
199.8410, 652.4221
200.3232, 653.2947
200.8053, 653.8738
201.2874, 655.1220
201.7695, 657.1529
202.2516, 659.4756
202.7337, 661.7405
203.2159, 663.9799
203.6980, 665.7269
204.1801, 666.6234
204.6622, 666.8289
205.1443, 668.0225
205.6264, 670.5653
206.1086, 673.2737
206.5907, 674.6491
207.0728, 674.3160
207.5549, 674.6354
208.0370, 676.3995
208.5191, 679.4987
209.0013, 681.9803
209.4834, 683.6755
209.9655, 685.0795
210.4476, 686.6544
210.9297, 688.3484
211.4118, 690.4278
211.8940, 693.2459
212.3761, 696.7664
212.8582, 699.1408
213.3403, 700.1315
213.8224, 700.3755
214.3045, 700.4607
214.7867, 700.2961
215.2688, 700.2673
215.7509, 700.4725
216.2330, 700.9064
216.7151, 701.3897
217.1972, 701.8591
217.6794, 702.4503
218.1615, 703.2772
218.6436, 704.3068
219.1257, 705.6769
219.6078, 707.5985
220.0899, 710.0892
220.5721, 711.6392
221.0542, 711.7642
221.5363, 711.5162
222.0184, 711.9924
222.5005, 713.4461
222.9826, 715.0530
223.4648, 716.6691
223.9469, 718.3192
224.4290, 719.8361
224.9111, 721.2333
225.3932, 722.5098
225.8753, 723.6037
226.3575, 724.1995
226.8396, 725.3525
227.3217, 727.6791
227.8038, 731.2496
228.2859, 732.9540
228.7680, 731.9099
229.2502, 730.0150
229.7323, 729.2444
230.2144, 730.7004
230.6965, 731.0162
231.1786, 729.3314
231.6607, 725.6517
232.1429, 722.1285
232.6250, 718.7131
233.1071, 715.5109
233.5892, 712.6113
234.0713, 709.8455
234.5534, 707.7413
235.0356, 706.5169
235.5177, 706.1545
235.9998, 705.8425
236.4819, 705.2639
236.9640, 705.0699
237.4461, 705.8438
237.9283, 707.8904
238.4104, 710.2894
238.8925, 713.0045
239.3746, 716.0227
239.8567, 718.8978
240.3388, 721.7347
240.8210, 724.3257
241.3031, 726.6408
241.7852, 729.2597
242.2673, 730.4371
242.7494, 729.9891
243.2315, 727.9022
243.7137, 723.9883
244.1958, 717.0828
244.6779, 709.7556
245.1600, 703.8037
245.6421, 699.5696
246.1242, 696.0189
246.6064, 693.1227
247.0885, 690.8477
247.5706, 688.9454
248.0527, 687.3910
248.5348, 686.2771
249.0169, 685.6841
249.4990, 685.6446
249.9812, 686.0976
250.4633, 687.3082
250.9454, 689.0461
251.4275, 690.1116
251.9096, 690.0002
252.3917, 689.9464
252.8739, 690.8067
253.3560, 693.3320
253.8381, 694.8666
254.3202, 694.7043
254.8023, 693.4839
255.2844, 693.6371
255.7666, 695.7538
256.2487, 698.2395
256.7308, 700.2402
257.2129, 701.5677
257.6950, 702.9092
258.1772, 704.2090
258.6593, 705.5527
259.1414, 707.2653
259.6235, 709.5794
260.1056, 711.8458
260.5877, 713.7668
261.0699, 715.1469
261.5520, 716.7176
262.0341, 718.4313
262.5162, 720.3695
262.9983, 722.9137
263.4804, 726.5070
263.9626, 729.6892
264.4447, 731.6385
264.9268, 731.9052
265.4089, 733.1528
265.8910, 735.8346
266.3731, 739.0870
266.8553, 741.4122
267.3374, 742.5032
267.8195, 743.5135
268.3016, 745.1315
268.7837, 747.6486
269.2658, 748.2570
269.7480, 746.4030
270.2301, 743.4118
270.7122, 741.4319
271.1943, 741.0130
271.6764, 739.5291
272.1585, 735.7006
272.6407, 729.5190
273.1228, 724.6540
273.6049, 721.2892
274.0870, 718.9443
274.5691, 717.2418
275.0512, 716.3464
275.5334, 715.2230
276.0155, 713.4425
276.4976, 711.1047
276.9797, 709.4158
277.4618, 708.5377
277.9439, 707.8721
278.4261, 706.8187
278.9081, 705.3546
279.3903, 703.8849
279.8724, 702.6027
280.3545, 701.4075
280.8366, 699.5311
281.3187, 696.7787
281.8008, 694.2481
282.2830, 693.1050
282.7651, 693.3827
283.2472, 693.3847
283.7293, 692.8248
284.2114, 691.7869
284.6935, 690.2911
285.1757, 688.2377
285.6578, 686.5616
286.1399, 686.1663
286.6220, 686.9439
287.1041, 687.5193
287.5862, 687.7028
288.0684, 687.6064
288.5505, 687.3972
289.0326, 687.0690
289.5147, 686.7740
289.9968, 686.4654
290.4789, 686.2137
290.9611, 686.5203
291.4432, 687.5330
291.9253, 688.8248
292.4074, 689.8226
292.8895, 690.5330
293.3716, 690.9396
293.8538, 690.8792
294.3359, 690.5032
294.8180, 690.2523
295.3001, 690.1370
295.7822, 690.2209
296.2643, 690.6733
296.7465, 691.4340
297.2286, 692.2154
297.7107, 692.6242
298.1928, 693.0295
298.6749, 694.3737
299.1570, 696.7120
299.6392, 699.2172
300.1213, 701.1955
300.6034, 702.6937
301.0855, 703.7228
301.5676, 704.0383
302.0497, 704.0613
302.5319, 704.4083
303.0140, 705.0630
303.4961, 705.7405
303.9782, 706.2516
304.4603, 706.6224
304.9424, 706.9260
305.4246, 707.2062
305.9067, 707.3841
306.3888, 707.1942
306.8709, 706.7400
307.3530, 706.5388
307.8351, 707.0710
308.3173, 707.9922
308.7994, 709.0252
309.2815, 710.4586
309.7636, 711.2823
310.2457, 710.3896
310.7278, 708.2090
311.2100, 705.9120
311.6921, 704.1432
312.1742, 702.5118
312.6563, 700.5378
313.1384, 697.8895
313.6205, 695.9257
314.1027, 696.0234
314.5848, 697.2805
315.0669, 698.1210
315.5490, 697.1641
316.0311, 696.1382
316.5132, 696.2341
316.9954, 697.6531
317.4775, 699.0173
317.9596, 699.5660
318.4417, 699.7801
318.9238, 700.2101
319.4059, 701.1229
319.8881, 702.1713
320.3702, 703.2258
320.8523, 704.2773
321.3344, 705.3369
321.8165, 706.5141
322.2986, 707.6297
322.7808, 708.5482
323.2629, 708.8859
323.7450, 709.4120
324.2271, 710.2188
324.7092, 711.3242
325.1913, 712.8182
325.6735, 715.0352
326.1556, 717.4326
326.6377, 719.7785
327.1198, 722.5443
327.6019, 724.5780
328.0840, 725.2499
328.5662, 725.1317
329.0483, 725.6768
329.5304, 727.2128
330.0125, 729.1119
330.4946, 731.2673
330.9767, 733.9150
331.4589, 736.1348
331.9410, 737.4166
332.4231, 738.4990
332.9052, 740.4402
333.3873, 743.7557
333.8694, 747.1383
334.3516, 750.0828
334.8337, 752.5031
335.3158, 755.8474
335.7979, 760.2851
336.2800, 765.4008
336.7621, 770.5707
337.2443, 775.3036
337.7264, 781.5660
338.2085, 790.0427
338.6906, 800.3472
339.1727, 810.7319
339.6548, 821.2652
340.1370, 831.7913
340.6191, 842.6971
341.1012, 854.0278
341.5833, 864.3820
342.0654, 874.2717
342.5475, 882.3153
343.0297, 885.4980
343.5118, 883.8193
343.9939, 877.1786
344.4760, 863.7792
344.9581, 844.3552
345.4402, 825.7682
345.9224, 808.2158
346.4045, 791.9599
346.8866, 777.3261
347.3687, 764.2718
347.8508, 753.9125
348.3329, 747.3549
348.8151, 743.6735
349.2972, 740.4789
349.7793, 737.7922
350.2614, 735.4177
350.7435, 732.9716
351.2256, 730.7014
351.7078, 729.3490
352.1899, 729.4590
352.6720, 730.2314
353.1541, 730.4773
353.6362, 730.3144
354.1183, 730.4394
354.6005, 731.3712
355.0826, 732.8658
355.5647, 734.6311
356.0468, 736.6509
356.5289, 738.8138
357.0110, 740.7274
357.4932, 742.7029
357.9753, 745.4739
358.4574, 750.3889
358.9395, 755.6239
359.4216, 759.5781
359.9037, 762.0262
360.3859, 764.1616
360.8680, 766.6541
361.3501, 769.2009
361.8322, 771.4201
362.3143, 774.3312
362.7964, 775.8304
363.2786, 774.5492
363.7607, 770.6765
364.2428, 766.3979
364.7249, 761.9670
365.2070, 757.7137
365.6891, 753.8712
366.1713, 750.3570
366.6534, 747.4035
367.1355, 745.1894
367.6176, 743.5955
368.0997, 742.3193
368.5818, 740.8416
369.0640, 740.1043
369.5461, 740.5842
370.0282, 742.9303
370.5103, 744.9875
370.9924, 746.3821
371.4745, 747.6790
371.9567, 749.6481
372.4388, 752.6707
372.9209, 755.7809
373.4030, 758.7737
373.8851, 761.6537
374.3672, 764.9219
374.8494, 769.5880
375.3315, 773.3012
375.8136, 773.9191
376.2957, 770.7078
376.7778, 766.6992
377.2599, 761.9739
377.7421, 756.8146
378.2242, 752.2050
378.7063, 748.2368
379.1884, 744.5524
379.6705, 741.0019
380.1526, 737.5532
380.6348, 734.2665
381.1169, 731.0506
381.5990, 728.2561
382.0811, 726.5787
382.5632, 725.9736
383.0453, 725.3710
383.5275, 724.2250
384.0096, 722.8099
384.4917, 721.8641
384.9738, 721.3962
385.4559, 721.4434
385.9380, 722.6412
386.4202, 724.4064
386.9023, 725.1293
387.3844, 723.9410
387.8665, 722.2781
388.3486, 721.9235
388.8307, 722.6485
389.3129, 723.5402
389.7950, 724.1204
390.2771, 724.5390
390.7592, 724.9273
391.2413, 725.2843
391.7234, 725.6688
392.2056, 725.7646
392.6877, 725.9664
393.1698, 726.8936
393.6519, 729.6269
394.1340, 732.4365
394.6161, 734.4644
395.0983, 735.6892
395.5804, 736.4631
396.0625, 737.0510
396.5446, 737.1658
397.0267, 736.5677
397.5089, 733.5712
397.9910, 731.8262
398.4731, 732.7875
398.9552, 735.5811
399.4373, 737.5859
399.9194, 737.8912
400.4016, 737.9360
400.8837, 738.1784
401.3658, 738.5987
401.8479, 739.2899
402.3300, 740.5194
402.8121, 741.8507
403.2942, 742.6453
403.7763, 742.1609
404.2585, 742.6218
404.7406, 744.8607
405.2227, 748.6399
405.7048, 751.1907
406.1869, 751.9993
406.6690, 752.6916
407.1512, 754.7430
407.6333, 758.4621
408.1154, 760.7988
408.5975, 761.0878
409.0796, 760.4052
409.5617, 760.9055
410.0439, 762.6111
410.5260, 764.4182
411.0081, 765.9180
411.4902, 767.0897
411.9723, 767.6610
412.4544, 767.5193
412.9366, 767.6990
413.4187, 769.2747
413.9008, 772.0180
414.3829, 775.2986
414.8650, 779.2690
415.3471, 783.3350
415.8293, 785.9934
416.3114, 787.7542
416.7935, 790.9025
417.2756, 797.8122
417.7577, 806.3990
418.2398, 814.2521
418.7220, 820.8499
419.2041, 827.8615
419.6862, 836.2838
420.1683, 845.9442
420.6504, 856.2959
421.1325, 868.0609
421.6147, 879.9183
422.0968, 891.7704
422.5789, 903.6344
423.0610, 913.8417
423.5431, 923.7230
424.0252, 930.7657
424.5074, 933.4427
424.9895, 930.2623
425.4716, 924.2322
425.9537, 914.6262
426.4358, 902.2819
426.9179, 888.9398
427.4001, 872.8478
427.8822, 857.6748
428.3643, 844.2257
428.8464, 832.3651
429.3285, 823.3179
429.8106, 817.8168
430.2928, 814.1806
430.7749, 810.6887
431.2570, 807.1483
431.7391, 804.7360
432.2212, 803.8809
432.7033, 804.1625
433.1855, 804.2169
433.6676, 803.9865
434.1497, 804.0406
434.6318, 804.4973
435.1139, 805.4551
435.5960, 807.6744
436.0782, 811.3504
436.5603, 815.6302
437.0424, 819.3356
437.5245, 822.7236
438.0066, 826.6492
438.4887, 831.7670
438.9709, 837.3193
439.4530, 842.5185
439.9351, 847.3519
440.4172, 851.5472
440.8993, 855.6215
441.3814, 858.7029
441.8636, 859.9355
442.3457, 859.2283
442.8278, 856.4819
443.3099, 851.2628
443.7920, 844.0439
444.2741, 835.4770
444.7563, 824.2252
445.2384, 813.2279
445.7205, 803.4251
446.2026, 794.8669
446.6847, 787.6144
447.1668, 782.2083
447.6490, 777.8370
448.1311, 774.0031
448.6132, 770.4332
449.0953, 767.7861
449.5774, 766.4626
450.0595, 765.9821
450.5417, 765.3510
451.0238, 764.5069
451.5059, 763.6339
451.9880, 762.7529
452.4701, 761.8488
452.9522, 761.1520
453.4344, 760.6796
453.9165, 760.3427
454.3986, 760.0214
454.8807, 759.7029
455.3628, 759.6677
455.8449, 760.0824
456.3271, 760.6155
456.8092, 760.5479
457.2913, 759.9128
457.7734, 759.1862
458.2555, 758.4064
458.7376, 757.7546
459.2198, 757.6849
459.7019, 758.2352
460.1840, 759.0176
460.6661, 759.8444
461.1482, 760.6532
461.6303, 761.3351
462.1125, 761.9252
462.5946, 762.3026
463.0767, 762.0473
463.5588, 761.4531
464.0409, 761.3750
464.5230, 762.6231
465.0052, 764.1680
465.4873, 765.4201
465.9694, 766.2647
466.4515, 767.0671
466.9336, 767.7858
467.4157, 768.5405
467.8979, 769.4432
468.3800, 770.5281
468.8621, 771.7225
469.3442, 773.1417
469.8263, 774.6729
470.3084, 775.8516
470.7906, 776.2691
471.2727, 776.9622
471.7548, 778.4777
472.2369, 781.0168
472.7190, 783.1503
473.2011, 784.7680
473.6833, 786.2897
474.1654, 788.3791
474.6475, 791.0844
475.1296, 793.3116
475.6117, 794.8235
476.0938, 795.6959
476.5760, 795.8847
477.0581, 795.4327
477.5402, 794.9802
478.0223, 795.0865
478.5044, 795.4164
478.9865, 795.1788
479.4687, 794.2567
479.9508, 793.4590
480.4329, 793.2758
480.9150, 793.7396
481.3971, 794.9364
481.8792, 797.3909
482.3614, 800.0647
482.8435, 802.2111
483.3256, 804.0472
483.8077, 806.2122
484.2898, 809.2181
484.7719, 812.3867
485.2541, 815.2840
485.7362, 817.6482
486.2183, 820.5938
486.7004, 825.0234
487.1825, 829.6937
487.6646, 833.5208
488.1468, 836.5145
488.6289, 838.5207
489.1110, 839.5836
489.5931, 839.6261
490.0752, 838.3619
490.5573, 835.6228
491.0395, 831.9529
491.5216, 827.3600
492.0037, 821.7796
492.4858, 816.3561
492.9679, 811.0129
493.4500, 805.8838
493.9322, 801.1249
494.4143, 796.7092
494.8964, 792.7581
495.3785, 789.2744
495.8606, 786.2116
496.3427, 783.5760
496.8249, 781.3123
497.3070, 779.1671
497.7891, 776.8548
498.2712, 774.6827
498.7533, 772.9723
499.2354, 771.7227
499.7176, 768.7608
500.1997, 769.2549
500.6818, 769.4021
501.1639, 769.2236
501.6460, 767.5951
502.1281, 767.9532
502.6103, 767.5850
503.0924, 767.2349
503.5745, 768.0151
504.0566, 766.8540
504.5387, 767.7168
505.0208, 767.8414
505.5030, 768.3766
505.9851, 768.1806
506.4672, 768.2756
506.9493, 769.2017
507.4314, 769.7451
507.9135, 772.2092
508.3957, 774.0956
508.8778, 774.9664
509.3599, 775.3187
509.8420, 776.1667
510.3241, 777.4832
510.8062, 778.1543
511.2884, 777.4276
511.7705, 775.9163
512.2526, 775.0792
512.7347, 774.8775
513.2168, 774.9291
513.6989, 775.4315
514.1810, 775.8439
514.6631, 775.2581
515.1453, 773.3698
515.6274, 771.3629
516.1095, 769.9834
516.5916, 768.9857
517.0737, 768.0403
517.5558, 767.1895
518.0380, 766.2218
518.5201, 764.9509
519.0022, 763.4605
519.4843, 762.1445
519.9664, 760.7235
520.4485, 759.8241
520.9307, 759.8328
521.4128, 761.0931
521.8949, 761.8096
522.3770, 761.7271
522.8591, 761.3772
523.3412, 761.2370
523.8234, 761.3095
524.3055, 761.5997
524.7876, 762.1653
525.2697, 762.8910
525.7518, 763.4164
526.2339, 763.7475
526.7161, 764.3369
527.1982, 765.8021
527.6803, 767.6373
528.1624, 768.3394
528.6445, 767.9436
529.1266, 767.5023
529.6088, 767.7110
530.0909, 768.4348
530.5730, 769.6024
531.0551, 771.4629
531.5372, 773.0321
532.0193, 773.2985
532.5015, 772.9852
532.9836, 773.2122
533.4657, 774.9457
533.9478, 776.6501
534.4299, 777.7428
534.9120, 778.2767
535.3942, 778.9963
535.8763, 780.2233
536.3584, 781.3869
536.8405, 782.2332
537.3226, 782.6920
537.8047, 783.0830
538.2869, 783.2728
538.7690, 783.5944
539.2511, 784.6813
539.7332, 786.6826
540.2153, 787.7692
540.6974, 787.3323
541.1796, 786.1683
541.6617, 785.8251
542.1438, 786.2637
542.6259, 787.0472
543.1080, 787.8895
543.5901, 788.9460
544.0723, 790.6722
544.5544, 793.0156
545.0365, 795.2068
545.5186, 796.4642
546.0007, 797.3766
546.4828, 798.6058
546.9650, 800.4870
547.4471, 802.1533
547.9292, 803.3914
548.4113, 804.1641
548.8934, 804.4196
549.3755, 803.3767
549.8577, 802.6875
550.3398, 803.1356
550.8219, 804.3530
551.3040, 804.2595
551.7861, 801.9022
552.2682, 799.7930
552.7504, 799.2762
553.2325, 800.5690
553.7146, 800.6326
554.1967, 799.1116
554.6788, 797.4294
555.1609, 797.1202
555.6431, 798.0396
556.1252, 799.0831
556.6073, 800.0713
557.0894, 801.0803
557.5715, 802.2831
558.0536, 803.6088
558.5358, 804.8447
559.0179, 805.5430
559.5000, 806.3625
559.9821, 807.8633
560.4642, 809.9987
560.9464, 812.4083
561.4285, 815.0969
561.9106, 817.8824
562.3927, 820.5811
562.8748, 823.0810
563.3569, 825.8113
563.8391, 829.0551
564.3212, 832.4108
564.8033, 835.5421
565.2854, 838.2708
565.7675, 841.0859
566.2496, 843.8816
566.7318, 846.9428
567.2139, 850.8904
567.6960, 855.8193
568.1781, 861.2696
568.6602, 867.0591
569.1423, 873.2380
569.6245, 879.7227
570.1066, 886.6061
570.5887, 893.8218
571.0708, 901.3972
571.5529, 909.4393
572.0350, 918.0707
572.5172, 927.4395
572.9993, 937.0673
573.4814, 946.9836
573.9635, 956.8616
574.4456, 966.1610
574.9277, 974.9910
575.4099, 982.8727
575.8920, 990.4514
576.3741, 997.0526
576.8562, 1000.883
577.3383, 1001.112
577.8204, 999.4785
578.3026, 996.6489
578.7847, 992.6262
579.2668, 985.1479
579.7489, 973.4977
580.2310, 960.2137
580.7131, 946.7407
581.1953, 933.1437
581.6774, 919.9413
582.1595, 907.1832
582.6416, 894.9791
583.1237, 883.5558
583.6058, 872.9188
584.0880, 863.0394
584.5701, 853.9988
585.0522, 845.7147
585.5343, 838.0469
586.0164, 831.0375
586.4985, 824.9205
586.9807, 820.0338
587.4628, 815.7617
587.9449, 811.9031
588.4270, 808.4449
588.9091, 805.3329
589.3912, 802.8229
589.8734, 800.4526
590.3555, 797.8829
590.8376, 794.7913
591.3197, 792.7574
591.8018, 792.2444
592.2839, 792.1756
592.7661, 791.3262
593.2482, 789.5865
593.7303, 788.1895
594.2124, 787.3713
594.6945, 786.8908
595.1766, 786.3496
595.6588, 785.7529
596.1409, 785.1425
596.6230, 784.3712
597.1051, 783.6998
597.5872, 783.5955
598.0693, 783.9444
598.5515, 784.1689
599.0336, 783.7283
599.5157, 783.2169
599.9978, 783.0445
600.4799, 783.2939
600.9620, 783.6505
601.4442, 784.3517
601.9263, 784.9410
602.4084, 785.0635
602.8905, 784.4196
603.3726, 783.8776
603.8547, 783.4425
604.3369, 783.1494
604.8190, 783.0320
605.3011, 783.0744
605.7832, 783.4778
606.2653, 784.4621
606.7474, 785.6779
607.2296, 786.1396
607.7117, 785.9435
608.1938, 785.8215
608.6759, 786.2558
609.1580, 786.9763
609.6401, 787.6182
610.1223, 788.1730
610.6044, 788.8067
611.0865, 789.9072
611.5686, 790.9368
612.0507, 791.4485
612.5328, 791.2422
613.0150, 790.9086
613.4971, 790.6996
613.9792, 790.3403
614.4613, 789.4716
614.9434, 787.3153
615.4255, 786.2896
615.9077, 787.1300
616.3898, 788.8578
616.8719, 789.1721
617.3540, 787.9333
617.8361, 786.8370
618.3182, 786.7330
618.8004, 787.0727
619.2825, 786.3016
619.7646, 784.5425
620.2467, 782.8881
620.7288, 782.2698
621.2109, 782.0065
621.6931, 781.3448
622.1752, 780.2146
622.6573, 778.8868
623.1394, 776.8391
623.6215, 775.0439
624.1036, 774.3666
624.5858, 775.7818
625.0679, 776.6729
625.5500, 776.6059
626.0321, 776.0036
626.5142, 775.2482
626.9963, 774.0853
627.4785, 773.5146
627.9606, 774.0127
628.4427, 774.9023
628.9248, 774.2883
629.4069, 772.1677
629.8890, 770.3714
630.3712, 769.6688
630.8533, 769.7836
631.3354, 770.4741
631.8175, 771.6327
632.2996, 772.5479
632.7817, 772.5800
633.2639, 772.2938
633.7460, 772.1454
634.2281, 772.1846
634.7102, 772.3257
635.1923, 772.8340
635.6744, 773.2424
636.1566, 773.1302
636.6387, 771.5499
637.1208, 771.2394
637.6029, 772.9355
638.0850, 775.2361
638.5671, 776.2228
639.0493, 775.5925
639.5314, 775.4482
640.0135, 776.2438
640.4956, 777.5912
640.9777, 778.8876
641.4598, 780.1083
641.9420, 781.1278
642.4241, 781.6111
642.9062, 782.0823
643.3883, 783.2581
643.8704, 785.0336
644.3525, 786.8859
644.8347, 788.3011
645.3168, 789.9367
645.7989, 792.4520
646.2810, 795.9999
646.7631, 798.9825
647.2452, 800.3575
647.7274, 801.7538
648.2095, 804.1147
648.6916, 808.0073
649.1737, 811.0043
649.6558, 812.6641
650.1379, 814.3079
650.6201, 817.4941
651.1022, 822.1581
651.5843, 827.0112
652.0664, 831.7363
652.5485, 836.7780
653.0306, 842.5512
653.5128, 848.9818
653.9949, 855.9749
654.4770, 863.8110
654.9591, 871.7823
655.4412, 879.8455
655.9233, 887.7844
656.4055, 895.0739
656.8876, 901.3972
657.3697, 907.1101
657.8518, 912.7474
658.3339, 918.2156
658.8160, 921.8203
659.2982, 924.0388
659.7803, 923.4612
660.2624, 918.9819
660.7445, 910.6068
661.2266, 900.7405
661.7087, 889.2711
662.1909, 877.0649
662.6730, 864.1266
663.1551, 851.1417
663.6372, 839.6498
664.1193, 829.8779
664.6014, 821.5071
665.0836, 814.5950
665.5657, 808.7151
666.0478, 803.3607
666.5299, 798.6424
667.0120, 794.1238
667.4941, 789.1564
667.9763, 784.4762
668.4584, 781.4825
668.9405, 781.2160
669.4226, 780.5865
669.9047, 778.7741
670.3868, 776.3226
670.8690, 774.9838
671.3511, 774.7956
671.8332, 775.0671
672.3153, 775.7983
672.7974, 776.6179
673.2795, 776.6223
673.7617, 775.9020
674.2438, 775.1215
674.7259, 774.4933
675.2080, 774.1454
675.6901, 774.3070
676.1722, 775.0280
676.6544, 775.6572
677.1365, 775.8036
677.6186, 775.9417
678.1007, 776.4291
678.5828, 777.5472
679.0649, 778.2419
679.5471, 778.3425
680.0292, 778.2686
680.5113, 778.3463
680.9934, 778.5722
681.4755, 779.2621
681.9576, 780.4759
682.4398, 782.1171
682.9219, 784.4908
683.4040, 787.1991
683.8861, 789.0550
684.3682, 789.3843
684.8503, 789.2295
685.3325, 789.4998
685.8146, 789.8327
686.2967, 789.4850
686.7788, 787.7852
687.2609, 785.8446
687.7430, 783.9783
688.2252, 782.1309
688.7073, 779.8224
689.1894, 776.1639
689.6715, 774.0950
690.1536, 775.6213
690.6357, 779.8558
691.1179, 780.3375
691.6000, 776.9605
692.0821, 773.4818
692.5642, 772.6260
693.0463, 773.2500
693.5284, 773.4376
694.0106, 773.0898
694.4927, 772.7563
694.9748, 773.2399
695.4569, 773.5895
695.9390, 772.8123
696.4211, 770.0843
696.9033, 768.4069
697.3854, 768.8134
697.8675, 769.9256
698.3496, 770.7025
698.8317, 771.0265
699.3138, 771.3505
699.7960, 771.6473
700.2781, 772.0347
700.7602, 772.6039
701.2423, 773.3774
701.7244, 774.6225
702.2065, 776.6483
702.6887, 778.5897
703.1708, 779.2540
703.6529, 779.1259
704.1350, 779.1110
704.6171, 779.8557
705.0992, 780.4971
705.5814, 780.5427
706.0635, 780.2258
706.5456, 780.2393
707.0277, 780.9330
707.5098, 781.4912
707.9919, 781.4619
708.4741, 781.1484
708.9562, 782.4474
709.4383, 785.6073
709.9204, 788.1886
710.4025, 788.3637
710.8846, 787.1901
711.3667, 787.5500
711.8488, 789.2789
712.3309, 791.0975
712.8130, 792.5483
713.2952, 793.4475
713.7773, 793.4308
714.2594, 792.4316
714.7415, 791.6837
715.2236, 791.8018
715.7057, 792.0674
716.1879, 792.1595
716.6700, 792.2220
717.1521, 791.4316
717.6342, 789.3811
718.1163, 787.3307
718.5984, 786.8264
719.0806, 787.6285
719.5627, 787.0795
720.0448, 784.7118
720.5269, 782.2605
721.0090, 781.7069
721.4911, 782.1934
721.9733, 782.3770
722.4554, 781.9058
722.9375, 781.0748
723.4196, 779.6344
723.9017, 778.0449
724.3839, 776.8787
724.8660, 776.5828
725.3481, 776.2172
725.8302, 775.7958
726.3123, 775.2371
726.7944, 774.2744
727.2766, 772.8417
727.7587, 771.8095
728.2408, 771.4960
728.7229, 771.5806
729.2050, 771.4052
729.6871, 771.1306
730.1693, 771.2739
730.6514, 772.7119
731.1335, 774.0734
731.6156, 774.1238
732.0977, 773.2783
732.5798, 772.8301
733.0620, 773.2199
733.5441, 773.9286
734.0262, 774.9427
734.5083, 776.1525
734.9904, 776.9164
735.4725, 777.0742
735.9547, 777.2908
736.4368, 777.9050
736.9189, 778.8120
737.4010, 779.6174
737.8831, 780.3278
738.3652, 781.0658
738.8474, 781.8869
739.3295, 782.8078
739.8116, 784.0181
740.2937, 785.5038
740.7758, 786.5579
741.2579, 786.5909
741.7401, 786.3887
742.2222, 786.4647
742.7043, 786.9440
743.1864, 786.8748
743.6685, 786.0028
744.1506, 785.0773
744.6328, 784.8466
745.1149, 785.2130
745.5970, 784.5562
746.0791, 782.7294
746.5612, 780.9831
747.0433, 781.0061
747.5255, 781.6299
748.0076, 780.9627
748.4897, 778.4281
748.9718, 776.1102
749.4539, 774.9015
749.9360, 774.4490
750.4182, 774.4906
750.9003, 775.4484
751.3824, 776.0639
751.8645, 776.3347
752.3466, 776.2880
752.8287, 775.8254
753.3109, 774.9325
753.7930, 774.3903
754.2751, 774.3831
754.7572, 774.4140
755.2393, 773.5162
755.7214, 772.2707
756.2036, 771.8389
756.6857, 772.8401
757.1678, 774.1656
757.6499, 775.7048
758.1320, 777.0578
758.6141, 777.6213
759.0963, 776.2816
759.5784, 775.6171
760.0605, 775.9763
760.5426, 776.9651
761.0247, 777.9470
761.5068, 778.9212
761.9890, 779.8300
762.4711, 780.7331
762.9532, 781.4024
763.4353, 781.4553
763.9174, 780.9711
764.3995, 780.1343
764.8817, 778.3835
765.3638, 777.0172
765.8459, 777.2222
766.3280, 778.3089
766.8101, 778.6832
767.2922, 777.6492
767.7744, 776.4520
768.2565, 775.1237
768.7386, 773.8406
769.2207, 773.1761
769.7028, 773.1964
770.1849, 773.0477
770.6671, 772.2275
771.1492, 771.2458
771.6313, 771.2215
772.1134, 771.8883
772.5955, 772.3292
773.0776, 771.6863
773.5598, 771.0327
774.0419, 771.1404
774.5240, 771.8148
775.0061, 772.1487
775.4882, 771.9433
775.9703, 771.4576
776.4525, 770.6897
776.9346, 769.6915
777.4167, 768.7531
777.8988, 767.8760
778.3809, 767.0303
778.8630, 766.0327
779.3452, 765.1613
779.8273, 765.1713
780.3094, 765.8790
780.7915, 766.4010
781.2736, 766.0450
781.7557, 765.5506
782.2379, 765.4457
782.7200, 765.6967
783.2021, 765.5222
783.6842, 764.2344
784.1663, 763.4642
784.6484, 764.0439
785.1306, 765.7184
785.6127, 766.2495
786.0948, 765.5605
786.5769, 765.0346
787.0590, 765.8083
787.5411, 767.1650
788.0233, 767.9474
788.5054, 768.1722
788.9875, 768.0298
789.4696, 767.3337
789.9517, 766.5433
790.4338, 765.8769
790.9160, 765.3518
791.3981, 765.0069
791.8802, 764.8646
792.3623, 764.8969
792.8444, 765.2101
793.3265, 765.7473
793.8087, 765.7917
794.2908, 765.3470
794.7729, 764.8981
795.2550, 764.9066
795.7371, 765.0479
796.2192, 764.7131
796.7014, 763.9635
797.1835, 763.6522
797.6656, 764.7569
798.1477, 765.8784
798.6298, 766.0329
799.1119, 765.1419
799.5941, 765.1390
800.0762, 766.5242
800.5583, 767.5917
801.0404, 767.1148
801.5225, 765.4317
802.0046, 764.7647
802.4868, 765.0820
802.9689, 765.7156
803.4510, 766.6876
803.9331, 767.4310
804.4152, 767.1830
804.8973, 765.9797
805.3795, 764.9377
805.8616, 764.2889
806.3437, 764.0557
806.8258, 764.4027
807.3079, 765.3384
807.7900, 765.7014
808.2722, 765.3828
808.7543, 764.9285
809.2364, 764.5516
809.7185, 764.2970
810.2006, 764.4179
810.6827, 764.8660
811.1649, 765.2485
811.6470, 765.1044
812.1291, 764.9301
812.6112, 765.1816
813.0933, 765.8636
813.5754, 766.3138
814.0576, 766.0479
814.5397, 766.0062
815.0218, 766.8234
815.5039, 768.3803
815.9860, 768.3474
816.4681, 766.6028
816.9503, 764.9586
817.4324, 764.7223
817.9145, 765.2957
818.3966, 765.6960
818.8787, 765.9335
819.3608, 766.1717
819.8430, 766.5327
820.3251, 766.8911
820.8072, 767.1319
821.2893, 767.2578
821.7714, 767.5844
822.2535, 768.3546
822.7357, 768.7420
823.2178, 768.0653
823.6999, 766.7485
824.1820, 766.9820
824.6641, 768.6603
825.1462, 770.3293
825.6284, 771.4177
826.1105, 771.8488
826.5926, 771.3099
827.0747, 769.9799
827.5568, 768.7482
828.0389, 767.5720
828.5211, 766.9413
829.0032, 767.2474
829.4853, 768.2729
829.9674, 768.6595
830.4495, 768.2665
830.9316, 768.0770
831.4138, 768.6588
831.8959, 769.5997
832.3780, 769.9661
832.8601, 769.8743
833.3422, 769.8026
833.8243, 769.9063
834.3065, 770.1796
834.7886, 770.7551
835.2707, 771.5145
835.7528, 772.0012
836.2349, 772.1352
836.7170, 772.0339
837.1992, 771.5201
837.6813, 770.9068
838.1634, 771.1999
838.6455, 772.3426
839.1276, 773.4611
839.6097, 774.1667
840.0919, 774.7551
840.5740, 775.8184
841.0561, 777.0212
841.5382, 777.5897
842.0203, 776.3565
842.5024, 775.5364
842.9846, 775.8760
843.4667, 776.9282
843.9488, 777.9648
844.4309, 779.0162
844.9130, 779.9002
845.3951, 780.5255
845.8773, 781.0614
846.3594, 781.4938
846.8415, 782.0551
847.3236, 783.4648
847.8057, 786.5441
848.2878, 789.4313
848.7700, 790.6664
849.2521, 791.1634
849.7342, 792.2017
850.2163, 794.2875
850.6984, 796.1754
851.1805, 797.5679
851.6627, 799.0563
852.1448, 801.6023
852.6269, 805.0793
853.1090, 808.3998
853.5911, 811.3692
854.0732, 814.2952
854.5554, 817.6477
855.0375, 821.0504
855.5196, 823.9225
856.0017, 825.4719
856.4838, 828.2296
856.9659, 833.3457
857.4481, 839.2688
857.9302, 844.9822
858.4123, 850.4805
858.8944, 855.3672
859.3765, 859.5421
859.8586, 863.7078
860.3408, 868.4328
860.8229, 873.6950
861.3050, 879.7080
861.7871, 886.6283
862.2692, 892.6285
862.7513, 897.0691
863.2335, 900.1377
863.7156, 901.7779
864.1977, 901.9277
864.6798, 901.8578
865.1619, 901.8801
865.6440, 900.7918
866.1262, 897.4109
866.6083, 892.2395
867.0904, 887.4733
867.5725, 882.9755
868.0546, 877.9056
868.5367, 871.6135
869.0189, 864.5420
869.5010, 856.3030
869.9831, 847.0588
870.4652, 840.1650
870.9473, 837.1824
871.4294, 834.3097
871.9116, 830.1990
872.3937, 825.2685
872.8758, 821.2032
873.3579, 817.9549
873.8400, 815.2377
874.3221, 813.3546
874.8043, 811.5184
875.2864, 808.6429
875.7685, 805.1680
876.2506, 802.2832
876.7327, 800.6182
877.2148, 799.3368
877.6970, 798.5220
878.1791, 797.8386
878.6612, 796.3298
879.1433, 793.8534
879.6254, 792.1942
880.1075, 791.8653
880.5897, 792.2375
881.0718, 792.8904
881.5539, 793.5225
882.0360, 793.4919
882.5181, 791.9977
883.0002, 790.8983
883.4824, 791.3076
883.9645, 792.1414
884.4466, 792.0875
884.9287, 790.6036
885.4108, 790.3525
885.8929, 791.8246
886.3751, 793.3139
886.8572, 792.6017
887.3393, 790.5343
887.8214, 788.9402
888.3035, 788.0602
888.7856, 787.7340
889.2678, 788.6384
889.7499, 789.5134
890.2320, 789.1841
890.7141, 787.2780
891.1962, 786.5180
891.6783, 787.4242
892.1605, 788.2194
892.6426, 787.2797
893.1247, 785.2773
893.6068, 785.0577
894.0889, 786.5027
894.5710, 788.2502
895.0532, 790.4052
895.5353, 791.7534
896.0174, 790.8139
896.4995, 787.9043
896.9816, 786.1855
897.4637, 786.3398
897.9459, 786.6865
898.4280, 786.7684
898.9101, 786.6649
899.3922, 786.5751
899.8743, 786.5052
900.3564, 786.5541
900.8386, 787.0903
901.3207, 787.3259
901.8028, 786.1068
902.2849, 784.2411
902.7670, 783.1444
903.2491, 784.1999
903.7313, 784.5870
904.2134, 783.7922
904.6955, 782.6123
905.1776, 782.1998
905.6597, 782.5052
906.1418, 782.8234
906.6240, 783.0147
907.1061, 783.3469
907.5882, 784.3945
908.0703, 785.5560
908.5524, 786.1077
909.0345, 785.7291
909.5167, 785.3497
909.9988, 784.9238
910.4809, 784.7403
910.9630, 785.1820
911.4451, 786.2703
911.9272, 786.3727
912.4094, 785.4614
912.8915, 784.4609
913.3736, 783.9874
913.8557, 783.8438
914.3378, 783.8394
914.8199, 783.9675
915.3021, 784.2845
915.7842, 785.0736
916.2663, 785.7278
916.7484, 785.9278
917.2305, 785.8773
917.7126, 786.5705
918.1948, 788.0201
918.6769, 789.0233
919.1590, 788.9009
919.6411, 788.4518
920.1232, 788.6583
920.6053, 789.2925
921.0875, 789.8932
921.5696, 790.1887
922.0517, 790.6144
922.5338, 791.2831
923.0159, 792.0791
923.4980, 792.8306
923.9802, 793.5212
924.4623, 794.4558
924.9444, 795.6666
925.4265, 797.0299
925.9086, 798.4758
926.3907, 799.9626
926.8729, 801.4365
927.3550, 802.9101
927.8371, 804.2744
928.3192, 805.3747
928.8013, 806.4456
929.2834, 807.5764
929.7656, 808.7679
930.2477, 810.0021
930.7298, 811.2559
931.2119, 813.0100
931.6940, 815.6101
932.1761, 818.8396
932.6583, 822.8835
933.1404, 827.4350
933.6225, 831.1768
934.1046, 832.3764
934.5867, 834.4053
935.0688, 838.6376
935.5510, 843.9911
936.0331, 847.2659
936.5152, 848.4747
936.9973, 850.8412
937.4794, 855.3251
937.9615, 860.9501
938.4437, 867.0586
938.9258, 873.3354
939.4079, 879.1171
939.8900, 883.3423
940.3721, 888.8417
940.8542, 896.6230
941.3364, 905.0459
941.8185, 912.8909
942.3006, 920.0779
942.7827, 927.5206
943.2648, 935.3199
943.7469, 943.3221
944.2291, 952.2590
944.7112, 960.8586
945.1933, 967.7027
945.6754, 972.7689
946.1575, 977.6121
946.6396, 982.9114
947.1218, 987.7491
947.6039, 992.1937
948.0860, 995.9022
948.5681, 997.4510
949.0502, 996.9196
949.5323, 995.1064
950.0145, 992.2057
950.4966, 988.3318
950.9787, 983.6331
951.4608, 978.0544
951.9429, 971.5272
952.4250, 962.7959
952.9072, 954.9102
953.3893, 948.4478
953.8714, 942.1887
954.3535, 934.4684
954.8356, 925.6031
955.3177, 917.3835
955.7999, 910.0003
956.2820, 902.9999
956.7641, 895.6360
957.2462, 888.7856
957.7283, 883.3627
958.2104, 879.5473
958.6925, 875.8107
959.1746, 872.1935
959.6567, 868.3209
960.1389, 863.8740
960.6210, 859.1210
961.1031, 854.6900
961.5852, 850.7084
962.0673, 847.9381
962.5494, 847.7017
963.0316, 847.7327
963.5137, 846.7797
963.9958, 845.2079
964.4779, 843.6858
964.9600, 841.9701
965.4421, 841.0544
965.9243, 841.2115
966.4064, 841.7433
966.8885, 841.7130
967.3706, 841.3809
967.8527, 841.3361
968.3348, 841.6546
968.8170, 842.3507
969.2991, 843.4004
969.7812, 844.8718
970.2633, 847.0621
970.7454, 849.9863
971.2275, 851.8643
971.7097, 852.6461
972.1918, 852.7194
972.6739, 851.4739
973.1560, 850.2665
973.6381, 852.0314
974.1202, 855.8284
974.6024, 858.9965
975.0845, 859.9333
975.5666, 860.8239
976.0487, 862.3168
976.5308, 864.0313
977.0129, 865.3622
977.4951, 866.2652
977.9772, 867.6639
978.4593, 869.8176
978.9414, 871.5975
979.4235, 871.6070
979.9056, 870.7581
980.3878, 870.0709
980.8699, 869.7064
981.3520, 869.5480
981.8341, 870.0634
982.3162, 870.0920
982.7983, 868.9069
983.2805, 866.7937
983.7626, 865.2471
984.2447, 864.2398
984.7268, 863.5573
985.2089, 863.8298
985.6910, 863.6495
986.1732, 860.9675
986.6553, 857.2565
987.1374, 855.8600
987.6195, 858.5939
988.1016, 860.0080
988.5837, 859.1186
989.0659, 857.8467
989.5480, 859.2578
990.0301, 862.1961
990.5122, 863.1219
990.9943, 861.4935
991.4764, 859.7627
991.9586, 859.5911
992.4407, 859.5403
992.9228, 858.6896
993.4049, 857.0709
993.8870, 855.2207
994.3691, 853.1654
994.8513, 850.8405
995.3334, 848.0274
995.8155, 845.1555
996.2976, 843.0261
996.7797, 841.3194
997.2618, 839.2720
997.7440, 835.7893
998.2261, 833.0914
998.7082, 832.0787
999.1903, 831.4210
999.6724, 829.3033
1000.155, 825.8161
1000.637, 823.6616
1001.119, 823.1198
1001.601, 822.8382
1002.083, 821.4921
1002.565, 820.0116
1003.047, 819.4501
1003.529, 819.8727
1004.011, 819.4604
1004.494, 817.7412
1004.976, 816.0090
1005.458, 814.6750
1005.940, 813.6711
1006.422, 812.9485
1006.904, 812.4444
1007.386, 811.9648
1007.868, 811.4411
1008.351, 810.9306
1008.833, 810.3333
1009.315, 809.8555
1009.797, 809.7031
1010.279, 809.9257
1010.761, 810.3156
1011.243, 810.8928
1011.725, 811.4210
1012.207, 811.5989
1012.690, 811.6442
1013.172, 812.0261
1013.654, 812.6467
1014.136, 812.7893
1014.618, 811.6963
1015.100, 810.6978
1015.582, 810.0560
1016.064, 809.7629
1016.547, 809.9490
1017.029, 810.5413
1017.511, 810.9186
1017.993, 810.8654
1018.475, 810.7861
1018.957, 811.1697
1019.439, 811.6180
1019.921, 811.6544
1020.403, 811.0530
1020.886, 810.8900
1021.368, 811.2899
1021.850, 811.7560
1022.332, 812.0159
1022.814, 812.0981
1023.296, 811.7341
1023.778, 811.1863
1024.260, 811.4187
1024.743, 814.0082
1025.225, 816.0685
1025.707, 816.3819
1026.189, 815.8223
1026.671, 815.3790
1027.153, 815.0245
1027.635, 815.8046
1028.117, 818.0095
1028.599, 820.1910
1029.082, 820.5472
1029.564, 820.5097
1030.046, 821.8112
1030.528, 824.7498
1031.010, 826.5736
1031.492, 826.6613
1031.974, 826.5999
1032.456, 826.9146
1032.938, 827.5421
1033.421, 828.4787
1033.903, 829.6072
1034.385, 830.5545
1034.867, 831.0606
1035.349, 831.5682
1035.831, 830.1547
1036.313, 832.7815
1036.795, 834.4141
1037.278, 835.1034
1037.760, 832.1895
1038.242, 833.7985
1038.724, 833.5162
1039.206, 833.1024
1039.688, 835.1871
1040.170, 832.5077
1040.652, 834.4395
1041.135, 834.4516
1041.617, 835.2603
1042.099, 834.1663
1042.581, 833.5863
1043.063, 834.7972
1043.545, 834.9290
1044.027, 833.3975
1044.509, 833.9229
1044.991, 830.6164
1045.474, 831.0497
1045.956, 831.5514
1046.438, 831.8224
1046.920, 830.7966
1047.402, 828.5331
1047.884, 828.1678
1048.366, 829.8874
1048.848, 830.7302
1049.330, 828.6758
1049.813, 825.7325
1050.295, 824.2584
1050.777, 823.6229
1051.259, 822.6397
1051.741, 820.2452
1052.223, 818.7289
1052.705, 818.4575
1053.187, 818.4887
1053.670, 817.9338
1054.152, 816.9270
1054.634, 815.8378
1055.116, 814.7054
1055.598, 813.7379
1056.080, 813.4863
1056.562, 812.9482
1057.044, 811.1708
1057.526, 808.8642
1058.009, 808.0009
1058.491, 808.6660
1058.973, 809.2935
1059.455, 809.6430
1059.937, 809.4106
1060.419, 807.6566
1060.901, 805.5005
1061.383, 804.2689
1061.865, 804.3986
1062.348, 804.3483
1062.830, 804.0113
1063.312, 803.6218
1063.794, 803.3434
1064.276, 803.0574
1064.758, 802.2678
1065.240, 801.2034
1065.722, 800.5515
1066.205, 801.0167
1066.687, 801.3763
1067.169, 801.4619
1067.651, 801.1268
1068.133, 799.8267
1068.615, 797.5424
1069.097, 797.2101
1069.579, 798.9515
1070.062, 800.3353
1070.544, 798.8840
1071.026, 796.9407
1071.508, 796.1885
1071.990, 796.5461
1072.472, 797.1996
1072.954, 798.3456
1073.436, 799.0952
1073.918, 799.3123
1074.401, 799.0289
1074.883, 797.8463
1075.365, 796.3830
1075.847, 795.6924
1076.329, 796.0369
1076.811, 796.4473
1077.293, 796.9894
1077.775, 797.1035
1078.257, 796.3026
1078.740, 795.0069
1079.222, 794.8114
1079.704, 795.5322
1080.186, 796.3278
1080.668, 797.1591
1081.150, 797.4659
1081.632, 796.1566
1082.114, 794.6631
1082.596, 794.6248
1083.079, 796.4491
1083.561, 797.1452
1084.043, 796.6389
1084.525, 796.0002
1085.007, 795.8676
1085.489, 796.0919
1085.971, 796.9225
1086.453, 797.9954
1086.936, 798.0833
1087.418, 796.0592
1087.900, 795.3079
1088.382, 796.6967
1088.864, 798.2906
1089.346, 795.8361
1089.828, 797.7485
1090.310, 798.8013
1090.792, 799.0407
1091.275, 796.0300
1091.757, 797.2161
1092.239, 796.7203
1092.721, 796.1556
1093.203, 797.9323
1093.685, 795.3943
1094.167, 797.1339
1094.649, 797.1660
1095.131, 797.9796
1095.614, 797.1008
1096.096, 796.7448
1096.578, 798.0816
1097.060, 798.4811
1097.542, 797.4077
1098.024, 798.2709
1098.506, 795.6739
1098.988, 796.1133
1099.471, 797.8627
1099.953, 795.2397
1100.435, 797.1349
1100.917, 798.1705
1101.399, 798.3925
1101.881, 795.3647
1102.363, 796.5334
1102.845, 796.0203
1103.328, 795.4382
1103.810, 797.1975
1104.292, 794.6423
1104.774, 796.3646
1105.256, 796.3794
1105.738, 797.1757
1106.220, 796.2797
1106.702, 795.9064
1107.184, 797.2259
1107.667, 797.6079
1108.149, 796.5172
1108.631, 797.3631
1109.113, 794.7488
1109.595, 795.1709
1110.077, 796.9031
1110.559, 795.8974
1111.041, 796.7743
1111.523, 796.9341
1112.006, 793.8356
1112.488, 796.4037
1112.970, 796.5212
1113.452, 794.1226
1113.934, 796.4965
1114.416, 794.4447
1114.898, 793.9727
1115.380, 794.6894
1115.863, 794.1667
1116.345, 795.5981
1116.827, 795.1471
1117.309, 794.5279
1117.791, 794.6427
1118.273, 792.6777
1118.755, 794.5711
1119.237, 795.4315
1119.719, 796.7818
1120.202, 797.0660
1120.684, 794.9280
1121.166, 793.4145
1121.648, 792.5950
1122.130, 792.4909
1122.612, 793.7109
1123.094, 795.5219
1123.576, 795.4657
1124.058, 793.9630
1124.541, 793.0602
1125.023, 794.4496
1125.505, 795.5311
1125.987, 795.6180
1126.469, 795.1579
1126.951, 794.5618
1127.433, 793.8929
1127.915, 793.6745
1128.398, 793.9395
1128.880, 794.1757
1129.362, 794.0643
1129.844, 793.8176
1130.326, 793.3663
1130.808, 792.9219
1131.290, 793.2028
1131.772, 794.2213
1132.255, 794.6590
1132.737, 794.1505
1133.219, 793.6051
1133.701, 793.9130
1134.183, 794.4792
1134.665, 794.8886
1135.147, 795.0948
1135.629, 794.5535
1136.111, 792.9582
1136.594, 792.6376
1137.076, 795.0554
1137.558, 797.7145
1138.040, 796.7559
1138.522, 794.3668
1139.004, 793.6055
1139.486, 795.8690
1139.968, 796.9178
1140.450, 796.2711
1140.933, 795.6853
1141.415, 796.3177
1141.897, 797.4603
1142.379, 797.9908
1142.861, 797.9525
1143.343, 797.4341
1143.825, 795.6989
1144.307, 794.7870
1144.790, 795.0650
1145.272, 795.7667
1145.754, 796.4720
1146.236, 797.0593
1146.718, 797.0408
1147.200, 796.5074
1147.682, 795.9097
1148.164, 795.1307
1148.646, 794.7629
1149.129, 795.0168
1149.611, 795.5797
1150.093, 796.1191
1150.575, 796.6243
1151.057, 797.3113
1151.539, 798.1282
1152.021, 798.1194
1152.503, 795.2554
1152.985, 793.1048
1153.468, 793.9474
1153.950, 796.2775
1154.432, 797.0698
1154.914, 796.4257
1155.396, 795.7249
1155.878, 795.1632
1156.360, 794.9795
1156.842, 795.6309
1157.325, 796.4802
1157.807, 797.1746
1158.289, 797.6671
1158.771, 797.6459
1159.253, 797.0743
1159.735, 796.8248
1160.217, 797.1949
1160.699, 797.6400
1161.182, 797.7160
1161.664, 797.5596
1162.146, 797.2673
1162.628, 796.8464
1163.110, 796.3551
1163.592, 795.7469
1164.074, 795.4466
1164.556, 795.6145
1165.038, 796.1989
1165.521, 797.7377
1166.003, 799.3844
1166.485, 799.9373
1166.967, 799.0616
1167.449, 797.5750
1167.931, 795.1409
1168.413, 793.6484
1168.895, 794.7350
1169.377, 796.7829
1169.860, 797.7267
1170.342, 797.7963
1170.824, 797.3636
1171.306, 795.8349
1171.788, 795.0956
1172.270, 795.2688
1172.752, 795.8531
1173.234, 796.5780
1173.717, 797.3972
1174.199, 798.5515
1174.681, 799.7559
1175.163, 800.1870
1175.645, 798.9037
1176.127, 797.8414
1176.609, 797.1140
1177.091, 796.6378
1177.573, 796.3662
1178.056, 796.2737
1178.538, 796.5494
1179.020, 797.0300
1179.502, 796.8861
1179.984, 794.4481
1180.466, 793.4681
1180.948, 795.0186
1181.430, 797.3027
1181.912, 797.8593
1182.395, 797.4139
1182.877, 798.0286
1183.359, 799.7404
1183.841, 800.8510
1184.323, 799.8404
1184.805, 799.2195
1185.287, 799.8389
1185.769, 800.8228
1186.252, 800.4129
1186.734, 799.1403
1187.216, 798.7317
1187.698, 799.4377
1188.180, 799.8957
1188.662, 798.9813
1189.144, 798.3484
1189.626, 798.6058
1190.109, 799.4408
1190.591, 800.5104
1191.073, 801.5576
1191.555, 801.3567
1192.037, 799.4470
1192.519, 798.0012
1193.001, 798.6362
1193.483, 799.2939
1193.965, 798.9807
1194.448, 798.0530
1194.930, 797.4792
1195.412, 797.3153
1195.894, 797.9701
1196.376, 799.9329
1196.858, 801.2699
1197.340, 800.5966
1197.822, 799.4855
1198.304, 798.7206
1198.787, 798.2480
1199.269, 797.8317
1199.751, 797.4763
1200.233, 797.1251
1200.715, 796.5006
1201.197, 796.5097
1201.679, 798.5510
1202.161, 800.4456
1202.644, 800.5046
1203.126, 799.0955
1203.608, 798.7512
1204.090, 799.3350
1204.572, 800.1736
1205.054, 801.5120
1205.536, 802.1398
1206.018, 800.3616
1206.500, 798.6324
1206.983, 799.1475
1207.465, 801.6305
1207.947, 802.9430
1208.429, 803.1902
1208.911, 803.0734
1209.393, 802.9741
1209.875, 802.5570
1210.357, 801.3896
1210.839, 800.0807
1211.322, 798.9944
1211.804, 798.1597
1212.286, 798.4430
1212.768, 799.7039
1213.250, 800.8606
1213.732, 801.0565
1214.214, 801.3508
1214.696, 802.4053
1215.179, 803.5861
1215.661, 804.3723
1216.143, 804.7385
1216.625, 804.1398
1217.107, 802.6875
1217.589, 801.5633
1218.071, 801.3923
1218.553, 801.7252
1219.036, 802.7131
1219.518, 803.8228
1220.000, 804.4412
1220.482, 804.6064
1220.964, 804.5357
1221.446, 804.2779
1221.928, 804.2315
1222.410, 804.8344
1222.892, 805.4095
1223.375, 805.7424
1223.857, 805.8676
1224.339, 805.7384
1224.821, 805.4191
1225.303, 805.3834
1225.785, 805.6320
1226.267, 805.6621
1226.749, 804.6682
1227.231, 804.1748
1227.714, 805.0919
1228.196, 806.2977
1228.678, 805.8482
1229.160, 804.1630
1229.642, 802.6429
1230.124, 801.4700
1230.606, 801.1735
1231.088, 803.1310
1231.571, 804.5443
1232.053, 804.3503
1232.535, 803.4332
1233.017, 803.4619
1233.499, 803.9843
1233.981, 803.3045
1234.463, 801.2778
1234.945, 799.9362
1235.427, 800.5782
1235.910, 801.6660
1236.392, 803.1715
1236.874, 804.3712
1237.356, 803.3063
1237.838, 801.0732
1238.320, 800.6487
1238.802, 802.4319
1239.284, 803.7989
1239.766, 803.4752
1240.249, 803.1468
1240.731, 803.1940
1241.213, 803.4436
1241.695, 803.5488
1242.177, 803.6400
1242.659, 804.1290
1243.141, 805.0833
1243.623, 805.4893
1244.106, 804.6566
1244.588, 804.1447
1245.070, 804.3338
1245.552, 805.0663
1246.034, 806.8204
1246.516, 808.6286
1246.998, 808.6359
1247.480, 806.4827
1247.963, 804.9151
1248.445, 804.2450
1248.927, 804.1038
1249.409, 804.4976
1249.891, 805.1315
1250.373, 805.8398
1250.855, 806.3737
1251.337, 806.3029
1251.819, 805.5339
1252.302, 804.9140
1252.784, 804.4820
1253.266, 804.1863
1253.748, 803.9450
1254.230, 804.0377
1254.712, 805.1009
1255.194, 806.4843
1255.676, 807.5481
1256.158, 808.1804
1256.641, 808.1812
1257.123, 807.4434
1257.605, 806.6512
1258.087, 805.8943
1258.569, 805.5268
1259.051, 806.2316
1259.533, 807.2791
1260.015, 807.9962
1260.498, 808.3690
1260.980, 808.5107
1261.462, 808.4265
1261.944, 808.0473
1262.426, 807.2271
1262.908, 806.5905
1263.390, 806.3696
1263.872, 806.8259
1264.354, 808.5876
1264.837, 811.2332
1265.319, 811.9975
1265.801, 811.0668
1266.283, 810.1832
1266.765, 809.8734
1267.247, 809.6443
1267.729, 809.4286
1268.211, 808.9355
1268.693, 807.9307
1269.176, 806.5943
1269.658, 805.2753
1270.140, 804.1741
1270.622, 804.2875
1271.104, 806.1672
1271.586, 808.0137
1272.068, 809.5373
1272.550, 810.1658
1273.033, 809.2862
1273.515, 807.6833
1273.997, 807.3933
1274.479, 808.0244
1274.961, 808.6467
1275.443, 809.0968
1275.925, 809.1770
1276.407, 808.4776
1276.890, 808.1688
1277.372, 808.8563
1277.854, 809.9402
1278.336, 810.4827
1278.818, 810.5737
1279.300, 810.2487
1279.782, 809.3767
1280.264, 809.1756
1280.746, 809.9904
1281.229, 810.4791
1281.711, 810.0470
1282.193, 809.3348
1282.675, 809.2247
1283.157, 809.3522
1283.639, 809.1485
1284.121, 808.5245
1284.603, 808.6171
1285.085, 809.5243
1285.568, 810.2462
1286.050, 810.4193
1286.532, 810.3948
1287.014, 810.2711
1287.496, 810.2902
1287.978, 810.8781
1288.460, 811.8689
1288.942, 811.8777
1289.425, 810.9846
1289.907, 810.7311
1290.389, 811.6784
1290.871, 812.8557
1291.353, 813.9343
1291.835, 814.7214
1292.317, 815.1875
1292.799, 815.2825
1293.281, 814.4147
1293.764, 812.9697
1294.246, 812.5766
1294.728, 813.8036
1295.210, 814.9398
1295.692, 815.3756
1296.174, 815.4108
1296.656, 814.9333
1297.138, 814.3552
1297.620, 814.7259
1298.103, 815.6113
1298.585, 816.0663
1299.067, 815.8508
1299.549, 815.9999
1300.031, 816.8855
1300.513, 817.7823
1300.995, 818.2146
1301.477, 818.4341
1301.960, 819.2074
1302.442, 820.1594
1302.924, 820.7466
1303.406, 820.8635
1303.888, 820.9998
1304.370, 821.0102
1304.852, 820.7315
1305.334, 819.1779
##END=



