##NAMES=Gratonite
##RRUFFID=R060956
##IDEAL CHEMISTRY=Pb^2+^_9_As^3+^_4_S^2-^_15_
##LOCALITY=Rio Tinto mine, Rio Tinto, Huelva Province, Spain
##OWNER=RRUFF
##SOURCE=Bob Jenkins
##DESCRIPTION=Dark-gray metallic elongated prismatic trigonal crystals
##STATUS=The identification of this mineral is confirmed by single-crystal X-ray diffraction and chemical analysis.
##URL=rruff.info/R060956
##MEASURED CHEMISTRY=Pb_9.00_As_4.00_S_15.00_
119.1124, 183.6576
119.5946, 187.5498
120.0767, 187.8103
120.5588, 175.8354
121.0409, 162.6054
121.5230, 158.5612
122.0051, 170.7073
122.4873, 185.3346
122.9694, 192.0936
123.4515, 191.7274
123.9336, 187.5666
124.4157, 178.6581
124.8979, 167.8766
125.3800, 159.8240
125.8621, 155.7222
126.3442, 155.2198
126.8263, 159.5064
127.3084, 168.6372
127.7905, 177.5525
128.2727, 181.2167
128.7548, 180.5437
129.2369, 178.5420
129.7190, 174.4832
130.2011, 169.9325
130.6832, 170.2187
131.1654, 176.2909
131.6475, 184.2390
132.1296, 189.6151
132.6117, 192.4296
133.0938, 191.9693
133.5759, 185.9858
134.0581, 175.0079
134.5402, 166.5850
135.0223, 161.2130
135.5044, 158.6641
135.9865, 158.7265
136.4686, 161.5722
136.9508, 166.0575
137.4329, 171.9785
137.9150, 179.5802
138.3971, 186.4329
138.8792, 192.5815
139.3613, 197.7439
139.8434, 200.2743
140.3256, 199.9343
140.8077, 197.4717
141.2898, 193.0200
141.7719, 185.5166
142.2540, 179.0981
142.7361, 175.4392
143.2183, 174.9465
143.7004, 170.6390
144.1825, 158.6572
144.6646, 145.8714
145.1467, 141.9075
145.6288, 152.0344
146.1110, 163.4027
146.5931, 173.3046
147.0752, 183.2999
147.5573, 187.4542
148.0394, 181.8239
148.5215, 171.0200
149.0037, 164.4236
149.4858, 165.6804
149.9679, 167.9535
150.4500, 168.9769
150.9321, 169.3669
151.4142, 167.6639
151.8964, 161.2826
152.3785, 152.1893
152.8606, 147.3414
153.3427, 150.0491
153.8248, 155.0557
154.3069, 159.6546
154.7890, 165.8618
155.2712, 169.2860
155.7533, 168.0817
156.2354, 162.7415
156.7175, 157.8983
157.1996, 153.5661
157.6817, 150.4557
158.1639, 149.0993
158.6460, 153.0234
159.1281, 155.5769
159.6102, 153.1238
160.0923, 145.2907
160.5744, 140.1318
161.0566, 142.2369
161.5387, 147.9216
162.0208, 153.0132
162.5029, 157.6630
162.9850, 160.1660
163.4671, 158.4184
163.9493, 151.3053
164.4314, 145.7719
164.9135, 147.0032
165.3956, 151.8472
165.8777, 155.1077
166.3598, 151.5899
166.8420, 147.4077
167.3241, 148.0462
167.8062, 156.3671
168.2883, 163.3056
168.7704, 161.3786
169.2525, 153.2732
169.7346, 145.7888
170.2168, 141.6837
170.6989, 140.5219
171.1810, 142.4028
171.6631, 148.8896
172.1452, 155.7563
172.6273, 159.6536
173.1095, 160.8375
173.5916, 160.6209
174.0737, 159.4705
174.5558, 157.5219
175.0379, 154.8086
175.5201, 150.2080
176.0022, 145.9690
176.4843, 145.5960
176.9664, 148.7583
177.4485, 151.9200
177.9306, 152.1050
178.4128, 150.1972
178.8949, 148.0748
179.3770, 145.6429
179.8591, 143.7138
180.3412, 144.2057
180.8233, 147.1918
181.3055, 150.1925
181.7876, 150.3683
182.2697, 148.4591
182.7518, 147.0519
183.2339, 148.2774
183.7160, 150.6634
184.1982, 150.0437
184.6803, 146.0216
185.1624, 141.4285
185.6445, 139.6050
186.1266, 140.2555
186.6087, 141.3406
187.0908, 142.3810
187.5730, 143.1895
188.0551, 142.2682
188.5372, 138.8044
189.0193, 135.8899
189.5014, 138.9904
189.9835, 147.9171
190.4657, 156.8791
190.9478, 163.3788
191.4299, 167.4940
191.9120, 168.8785
192.3941, 166.8201
192.8762, 163.3147
193.3584, 162.0534
193.8405, 163.1183
194.3226, 164.8678
194.8047, 166.7824
195.2868, 168.8203
195.7689, 169.4730
196.2511, 168.1437
196.7332, 165.8102
197.2153, 165.7704
197.6974, 168.6434
198.1795, 169.9689
198.6616, 164.2431
199.1438, 150.6545
199.6259, 144.7090
200.1080, 151.1510
200.5901, 165.6079
201.0722, 171.7377
201.5543, 168.1717
202.0364, 161.4669
202.5186, 156.0667
203.0007, 151.9094
203.4828, 149.5505
203.9649, 149.2717
204.4470, 150.8871
204.9291, 154.2952
205.4113, 160.9988
205.8934, 165.7602
206.3755, 161.8757
206.8576, 146.4770
207.3397, 136.0804
207.8218, 135.4239
208.3040, 143.6010
208.7861, 149.3549
209.2682, 152.5421
209.7503, 153.4869
210.2324, 152.0765
210.7145, 147.6888
211.1967, 143.0024
211.6788, 137.5271
212.1609, 131.2068
212.6430, 131.8183
213.1251, 143.1589
213.6072, 156.2003
214.0894, 160.0839
214.5715, 151.8609
215.0536, 142.2374
215.5357, 133.3646
216.0178, 124.9875
216.4999, 119.8651
216.9820, 118.7760
217.4642, 120.1881
217.9463, 122.8174
218.4284, 128.5076
218.9105, 131.0020
219.3926, 126.8421
219.8747, 113.9959
220.3569, 107.5930
220.8390, 110.2984
221.3211, 117.3251
221.8032, 121.8114
222.2853, 123.6173
222.7674, 123.0065
223.2496, 118.9668
223.7317, 109.4681
224.2138, 105.4362
224.6959, 109.6474
225.1780, 117.5409
225.6601, 120.8588
226.1423, 116.7538
226.6244, 113.1070
227.1065, 113.5812
227.5886, 121.0330
228.0707, 122.9639
228.5528, 116.5612
229.0350, 105.9170
229.5171, 99.16595
229.9992, 96.45895
230.4813, 97.22528
230.9634, 102.1786
231.4455, 114.7187
231.9276, 122.4155
232.4098, 124.0049
232.8919, 121.1835
233.3740, 117.7208
233.8561, 113.1749
234.3382, 108.6498
234.8203, 104.1823
235.3025, 98.32851
235.7846, 96.31732
236.2667, 100.2882
236.7488, 107.5747
237.2309, 110.9014
237.7130, 107.7774
238.1952, 104.2962
238.6773, 102.9645
239.1594, 103.9941
239.6415, 107.0888
240.1236, 114.9330
240.6057, 124.4147
241.0879, 125.6232
241.5700, 111.7137
242.0521, 99.30559
242.5342, 97.00836
243.0163, 112.5487
243.4984, 121.2906
243.9806, 120.6378
244.4627, 113.1972
244.9448, 106.6714
245.4269, 100.7305
245.9090, 96.16242
246.3911, 93.08237
246.8732, 90.58723
247.3554, 92.08475
247.8375, 100.9577
248.3196, 113.5101
248.8017, 117.0326
249.2838, 106.0259
249.7659, 94.01412
250.2481, 87.53479
250.7302, 88.55874
251.2123, 90.62970
251.6944, 93.92300
252.1765, 98.05203
252.6586, 101.8924
253.1408, 105.4628
253.6229, 108.7385
254.1050, 112.3132
254.5871, 118.1763
255.0692, 118.8359
255.5513, 111.2967
256.0334, 98.85212
256.5156, 92.03893
256.9977, 92.60641
257.4798, 95.96345
257.9619, 100.0825
258.4440, 105.6165
258.9261, 110.2433
259.4083, 113.9498
259.8904, 116.6942
260.3725, 118.0539
260.8546, 117.2044
261.3367, 116.4886
261.8188, 117.2813
262.3010, 120.1952
262.7831, 122.8538
263.2652, 125.6324
263.7473, 127.9252
264.2294, 127.9567
264.7115, 125.3796
265.1937, 121.2594
265.6758, 115.4484
266.1579, 106.8727
266.6400, 101.3937
267.1221, 100.4438
267.6042, 102.1896
268.0864, 101.0026
268.5685, 94.94240
269.0506, 90.80922
269.5327, 93.48031
270.0148, 105.1449
270.4969, 112.6309
270.9791, 114.6131
271.4612, 112.7282
271.9433, 110.4724
272.4254, 107.5100
272.9075, 105.2904
273.3896, 104.8710
273.8718, 106.5449
274.3539, 108.0138
274.8360, 109.5499
275.3181, 110.4724
275.8002, 108.3266
276.2823, 102.0118
276.7645, 97.51603
277.2466, 98.85891
277.7287, 106.6926
278.2108, 112.7488
278.6929, 117.1133
279.1750, 119.1069
279.6572, 115.2513
280.1393, 104.2138
280.6214, 96.92680
281.1035, 102.5484
281.5856, 120.9153
282.0677, 128.1671
282.5499, 121.1531
283.0320, 107.7335
283.5141, 100.7088
283.9962, 100.3501
284.4783, 101.8299
284.9604, 103.5502
285.4425, 105.4331
285.9247, 106.5454
286.4068, 106.9594
286.8889, 106.3608
287.3710, 102.7221
287.8531, 96.22843
288.3352, 92.75475
288.8174, 98.27947
289.2995, 110.2048
289.7816, 113.3245
290.2637, 105.9547
290.7458, 96.04859
291.2279, 94.22266
291.7101, 99.57690
292.1922, 104.9071
292.6743, 106.9840
293.1564, 106.6113
293.6385, 105.7918
294.1206, 104.3842
294.6028, 103.5275
295.0849, 106.9613
295.5670, 112.9101
296.0491, 113.7484
296.5312, 99.97793
297.0133, 80.53337
297.4955, 76.21986
297.9776, 87.75136
298.4597, 102.4634
298.9418, 109.3202
299.4239, 109.8274
299.9060, 107.7088
300.3882, 102.2507
300.8703, 96.01018
301.3524, 92.37830
301.8345, 91.36565
302.3166, 93.27968
302.7987, 101.1862
303.2809, 111.9510
303.7630, 119.8970
304.2451, 122.6706
304.7272, 121.9959
305.2093, 118.4459
305.6914, 112.2828
306.1736, 106.6523
306.6557, 104.8616
307.1378, 104.5611
307.6199, 102.2372
308.1020, 94.20193
308.5841, 86.81843
309.0663, 86.35651
309.5484, 91.70785
310.0305, 97.20222
310.5126, 99.56062
310.9947, 100.4099
311.4768, 101.2413
311.9590, 102.0768
312.4411, 103.5019
312.9232, 106.7535
313.4053, 111.1111
313.8874, 114.1339
314.3695, 115.1004
314.8517, 114.1167
315.3337, 110.5993
315.8159, 101.9691
316.2980, 95.84229
316.7801, 97.63779
317.2622, 104.4266
317.7443, 109.4185
318.2264, 108.6509
318.7086, 106.4076
319.1907, 104.9734
319.6728, 105.0170
320.1549, 104.9494
320.6370, 104.9000
321.1191, 104.3778
321.6013, 102.5409
322.0834, 95.16545
322.5655, 89.90032
323.0476, 90.61531
323.5297, 99.72449
324.0118, 106.9538
324.4940, 111.2034
324.9761, 112.6470
325.4582, 111.5052
325.9403, 101.4678
326.4224, 95.00648
326.9045, 97.24286
327.3867, 110.8697
327.8688, 118.5395
328.3509, 115.9740
328.8330, 109.2168
329.3151, 103.7582
329.7972, 100.1683
330.2794, 97.17873
330.7615, 94.61551
331.2436, 92.47222
331.7257, 90.58038
332.2078, 87.19345
332.6899, 85.65629
333.1721, 89.13959
333.6542, 101.6424
334.1363, 111.3498
334.6184, 116.6926
335.1005, 118.0515
335.5826, 117.9606
336.0648, 116.3132
336.5469, 113.3827
337.0290, 108.5694
337.5111, 100.3593
337.9932, 95.91646
338.4753, 97.16888
338.9575, 101.8125
339.4396, 102.5293
339.9217, 97.66611
340.4038, 94.54150
340.8859, 99.30970
341.3680, 112.8983
341.8502, 119.1076
342.3323, 115.4854
342.8144, 106.9496
343.2965, 101.8060
343.7786, 100.1257
344.2607, 99.81547
344.7429, 100.1687
345.2250, 101.1439
345.7071, 102.7987
346.1892, 105.4818
346.6713, 107.5374
347.1534, 106.2165
347.6355, 102.0195
348.1176, 98.41261
348.5998, 96.64254
349.0819, 96.41878
349.5640, 97.90051
350.0461, 101.2419
350.5282, 103.3942
351.0103, 99.78059
351.4925, 92.74516
351.9746, 87.94786
352.4567, 87.87206
352.9388, 90.45640
353.4209, 94.30270
353.9030, 99.09262
354.3852, 102.3385
354.8673, 102.3850
355.3494, 99.81496
355.8315, 94.76909
356.3136, 84.76921
356.7957, 76.43583
357.2779, 76.08990
357.7600, 82.06230
358.2421, 88.91644
358.7242, 97.18367
359.2063, 103.2537
359.6884, 103.1470
360.1706, 93.58159
360.6527, 85.32640
361.1348, 85.27101
361.6169, 89.83416
362.0990, 92.49550
362.5811, 87.87305
363.0633, 83.45729
363.5454, 83.03550
364.0275, 87.62206
364.5096, 92.38840
364.9917, 97.57915
365.4738, 101.8310
365.9560, 103.6306
366.4381, 98.65501
366.9202, 95.30479
367.4023, 96.97791
367.8844, 104.1059
368.3665, 107.4423
368.8487, 102.0754
369.3308, 95.53443
369.8129, 93.12483
370.2950, 98.55926
370.7771, 102.7970
371.2592, 105.0858
371.7414, 105.5641
372.2235, 104.7937
372.7056, 101.2850
373.1877, 98.51770
373.6698, 98.94767
374.1519, 104.7320
374.6341, 107.1589
375.1162, 104.7395
375.5983, 99.68079
376.0804, 96.37499
376.5625, 94.67707
377.0446, 95.36373
377.5267, 100.0094
378.0089, 108.9253
378.4910, 114.3577
378.9731, 116.1604
379.4552, 114.8863
379.9373, 108.9774
380.4194, 98.43148
380.9016, 92.72594
381.3837, 97.81853
381.8658, 109.4872
382.3479, 112.2595
382.8300, 105.7224
383.3121, 98.42428
383.7943, 99.03596
384.2764, 105.4058
384.7585, 110.9063
385.2406, 113.9643
385.7227, 115.3233
386.2048, 115.9283
386.6870, 115.7214
387.1691, 114.3568
387.6512, 110.5038
388.1333, 105.7621
388.6154, 102.4896
389.0975, 101.6506
389.5797, 100.4961
390.0618, 93.97565
390.5439, 85.57208
391.0260, 82.45722
391.5081, 94.82420
391.9902, 108.5430
392.4724, 113.4487
392.9545, 107.9208
393.4366, 102.3412
393.9187, 102.0191
394.4008, 103.7333
394.8829, 104.0821
395.3651, 98.39159
395.8472, 94.95152
396.3293, 98.76225
396.8114, 108.9359
397.2935, 114.2268
397.7756, 110.4606
398.2578, 102.7647
398.7399, 94.09269
399.2220, 78.27646
399.7041, 69.52303
400.1862, 71.53036
400.6683, 80.58317
401.1505, 87.01022
401.6326, 90.89217
402.1147, 91.96672
402.5968, 89.07343
403.0789, 80.06657
403.5610, 76.58079
404.0432, 81.31149
404.5253, 88.68127
405.0074, 89.75742
405.4895, 81.43629
405.9716, 78.81404
406.4537, 89.27276
406.9359, 109.8091
407.4180, 115.9387
407.9001, 104.7601
408.3822, 91.43360
408.8643, 90.84751
409.3464, 101.8525
409.8285, 109.1351
410.3106, 109.0872
410.7928, 105.0341
411.2749, 102.8620
411.7570, 102.3905
412.2391, 101.8564
412.7212, 99.40740
413.2033, 96.23989
413.6855, 95.13826
414.1676, 96.65255
414.6497, 98.59332
415.1318, 97.45174
415.6139, 95.15073
416.0960, 95.69748
416.5782, 106.1625
417.0603, 116.5568
417.5424, 116.6166
418.0245, 106.7040
418.5066, 97.87290
418.9887, 96.64661
419.4709, 98.98726
419.9530, 101.1974
420.4351, 102.8307
420.9172, 103.5215
421.3993, 101.0254
421.8814, 97.08272
422.3636, 97.30515
422.8457, 110.0374
423.3278, 121.4800
423.8099, 124.9045
424.2920, 115.9233
424.7741, 108.3297
425.2563, 101.9817
425.7384, 97.57802
426.2205, 96.33704
426.7026, 100.0107
427.1847, 104.2591
427.6668, 108.9228
428.1490, 113.9724
428.6311, 115.2527
429.1132, 111.0228
429.5953, 105.8525
430.0774, 104.0613
430.5595, 106.6512
431.0417, 106.2662
431.5238, 100.8366
432.0059, 93.02724
432.4880, 89.24838
432.9701, 89.63882
433.4522, 92.10611
433.9344, 97.37292
434.4165, 104.2408
434.8986, 106.7607
435.3807, 104.3384
435.8628, 99.72842
436.3449, 93.96327
436.8271, 88.24400
437.3092, 86.48789
437.7913, 93.82384
438.2734, 103.2728
438.7555, 106.2096
439.2376, 103.1471
439.7197, 98.14356
440.2018, 89.65240
440.6840, 82.51535
441.1661, 82.92120
441.6482, 96.43845
442.1303, 108.7945
442.6124, 110.6760
443.0945, 106.1581
443.5767, 103.6051
444.0588, 109.0827
444.5409, 114.2723
445.0230, 115.0231
445.5051, 110.1426
445.9872, 106.4172
446.4694, 106.1932
446.9515, 106.8912
447.4336, 106.1764
447.9157, 100.7441
448.3978, 98.32712
448.8799, 101.3856
449.3621, 108.4815
449.8442, 111.9069
450.3263, 109.3924
450.8084, 107.0721
451.2905, 108.8021
451.7726, 116.1357
452.2548, 119.9884
452.7369, 120.0441
453.2190, 116.9706
453.7011, 109.7780
454.1832, 98.06361
454.6653, 90.77699
455.1475, 92.64232
455.6296, 100.7499
456.1117, 106.0665
456.5938, 108.5290
457.0759, 109.1603
457.5580, 106.5809
458.0402, 102.8957
458.5223, 103.8289
459.0044, 112.2854
459.4865, 121.3519
459.9686, 124.8762
460.4507, 123.4016
460.9329, 118.4205
461.4150, 104.7830
461.8971, 92.14039
462.3792, 89.00555
462.8613, 96.51701
463.3434, 104.4117
463.8256, 109.3994
464.3077, 111.7929
464.7898, 111.9235
465.2719, 106.6536
465.7540, 102.6051
466.2361, 101.6945
466.7183, 103.3048
467.2004, 104.7414
467.6825, 107.4054
468.1646, 108.3512
468.6467, 105.8059
469.1288, 97.45895
469.6110, 92.59075
470.0930, 91.16433
470.5752, 93.16834
471.0573, 100.0484
471.5394, 114.4021
472.0215, 124.3976
472.5036, 126.8100
472.9857, 122.7370
473.4679, 115.2607
473.9500, 103.5371
474.4321, 95.25878
474.9142, 98.06847
475.3963, 109.7946
475.8784, 120.3834
476.3606, 129.1730
476.8427, 135.1320
477.3248, 137.1636
477.8069, 135.3093
478.2890, 129.5736
478.7711, 114.5547
479.2533, 98.95332
479.7354, 92.98347
480.2175, 96.08920
480.6996, 100.2604
481.1817, 101.6710
481.6638, 101.3395
482.1460, 99.98574
482.6281, 96.84359
483.1102, 94.32996
483.5923, 93.38562
484.0744, 93.61313
484.5565, 94.22373
485.0387, 94.61483
485.5208, 95.78920
486.0029, 98.62072
486.4850, 103.4690
486.9671, 106.5789
487.4492, 107.2038
487.9314, 106.7838
488.4135, 106.3308
488.8956, 105.7939
489.3777, 105.1788
489.8598, 103.7587
490.3419, 102.7818
490.8241, 106.5539
491.3062, 116.0603
491.7883, 123.7160
492.2704, 125.1954
492.7525, 121.4994
493.2346, 118.1075
493.7168, 115.0228
494.1989, 112.7412
494.6810, 112.3954
495.1631, 113.2765
495.6452, 113.5142
496.1273, 112.3296
496.6095, 110.7328
497.0916, 109.2047
497.5737, 108.0573
498.0558, 108.2457
498.5379, 112.9087
499.0201, 117.2407
499.5022, 117.0335
499.9843, 111.2500
500.4664, 106.3670
500.9485, 106.2879
501.4306, 107.5005
501.9127, 106.7544
502.3948, 98.96127
502.8770, 94.48464
503.3591, 96.59962
503.8412, 103.2969
504.3233, 107.7776
504.8054, 108.9434
505.2875, 109.3833
505.7697, 110.1596
506.2518, 111.4579
506.7339, 111.5995
507.2160, 110.0785
507.6981, 108.4218
508.1802, 108.4686
508.6624, 110.2360
509.1445, 112.6608
509.6266, 117.0648
510.1087, 120.1112
510.5908, 111.2098
511.0729, 92.18220
511.5551, 77.76385
512.0372, 79.75038
512.5193, 90.90346
513.0014, 101.3176
513.4835, 110.4602
513.9656, 117.0622
514.4478, 119.5539
514.9299, 119.1789
515.4120, 117.3618
515.8941, 111.0985
516.3762, 107.3360
516.8583, 111.8354
517.3405, 121.4880
517.8226, 126.6871
518.3047, 119.9324
518.7868, 113.1012
519.2689, 112.0734
519.7510, 119.6572
520.2332, 120.5815
520.7153, 109.1319
521.1974, 96.47997
521.6795, 93.75372
522.1616, 104.6180
522.6437, 113.7896
523.1259, 119.3154
523.6080, 121.7534
524.0901, 122.0247
524.5722, 120.0000
525.0543, 117.2323
525.5364, 113.2495
526.0186, 109.0364
526.5007, 108.7946
526.9828, 112.7294
527.4649, 117.2489
527.9470, 121.4937
528.4291, 123.5625
528.9113, 118.9986
529.3934, 101.7145
529.8755, 86.78559
530.3576, 88.16770
530.8397, 100.3078
531.3218, 110.6940
531.8040, 112.4234
532.2861, 112.7818
532.7682, 115.6627
533.2503, 121.6256
533.7324, 125.2721
534.2145, 126.0626
534.6967, 124.1167
535.1788, 119.1441
535.6609, 107.1237
536.1430, 99.82648
536.6251, 99.77860
537.1072, 103.2797
537.5894, 102.2219
538.0715, 94.70016
538.5536, 91.27007
539.0357, 97.16361
539.5178, 110.0196
539.9999, 119.2433
540.4821, 124.6320
540.9642, 127.6293
541.4463, 129.4417
541.9284, 129.6982
542.4105, 127.2404
542.8926, 121.5960
543.3748, 114.6017
543.8569, 104.6903
544.3390, 95.18642
544.8211, 91.81837
545.3032, 103.4137
545.7853, 115.7950
546.2675, 121.3757
546.7495, 120.9697
547.2316, 119.8504
547.7137, 118.4997
548.1959, 117.6081
548.6780, 117.6031
549.1601, 118.9589
549.6422, 120.0923
550.1243, 121.9226
550.6064, 122.7974
551.0886, 120.5887
551.5707, 114.1940
552.0528, 107.8650
552.5349, 101.3637
553.0170, 96.11454
553.4991, 97.98542
553.9813, 107.3747
554.4634, 114.8372
554.9455, 113.1442
555.4276, 105.7117
555.9097, 102.7436
556.3918, 104.4744
556.8740, 107.4949
557.3561, 109.8074
557.8382, 111.3310
558.3203, 111.4249
558.8024, 107.9598
559.2845, 107.0255
559.7667, 116.5827
560.2488, 130.5732
560.7309, 137.9762
561.2130, 129.6383
561.6951, 119.9771
562.1772, 113.4076
562.6594, 110.1317
563.1415, 107.0411
563.6236, 102.3197
564.1057, 99.76593
564.5878, 102.2441
565.0699, 112.2100
565.5521, 118.4616
566.0342, 120.5230
566.5163, 119.5746
566.9984, 115.4732
567.4805, 108.3375
567.9626, 105.6147
568.4448, 110.9813
568.9269, 119.9224
569.4090, 125.3542
569.8911, 127.2092
570.3732, 125.3800
570.8553, 114.0979
571.3375, 102.1636
571.8196, 101.7566
572.3017, 114.1036
572.7838, 124.3346
573.2659, 121.0699
573.7480, 114.0109
574.2302, 111.9835
574.7123, 124.5559
575.1944, 131.6093
575.6765, 124.0287
576.1586, 110.0569
576.6407, 105.6231
577.1229, 118.7713
577.6050, 128.0205
578.0871, 127.1750
578.5692, 117.4127
579.0513, 109.4146
579.5334, 103.2297
580.0156, 98.59953
580.4977, 94.84884
580.9798, 92.30132
581.4619, 94.15633
581.9440, 101.2742
582.4261, 108.2683
582.9083, 107.3584
583.3904, 102.0678
583.8725, 100.0240
584.3546, 106.2884
584.8367, 112.7242
585.3188, 112.0406
585.8010, 106.8224
586.2831, 103.7121
586.7652, 106.5762
587.2473, 110.8532
587.7294, 116.0589
588.2115, 122.5875
588.6937, 123.5628
589.1758, 112.6963
589.6579, 102.1843
590.1400, 99.83949
590.6221, 109.2252
591.1042, 115.8980
591.5864, 119.2343
592.0685, 120.1711
592.5506, 119.3243
593.0327, 116.7302
593.5148, 114.9397
593.9969, 115.3852
594.4791, 116.2141
594.9612, 112.0480
595.4433, 104.3900
595.9254, 100.4208
596.4075, 109.9966
596.8896, 121.8202
597.3718, 123.3472
597.8539, 113.7725
598.3360, 105.0424
598.8181, 104.6358
599.3002, 106.2337
599.7823, 104.5542
600.2645, 93.36054
600.7466, 87.96765
601.2287, 95.18697
601.7108, 106.0991
602.1929, 106.8652
602.6750, 90.49467
603.1572, 81.35508
603.6393, 87.05773
604.1214, 102.5696
604.6035, 108.5227
605.0856, 104.0851
605.5677, 101.4538
606.0499, 111.5698
606.5320, 128.4205
607.0141, 134.7668
607.4962, 130.1521
607.9783, 122.9642
608.4604, 117.5202
608.9425, 114.4493
609.4246, 115.2704
609.9067, 122.4621
610.3889, 128.4144
610.8710, 130.4431
611.3531, 128.9015
611.8352, 124.3209
612.3173, 110.9016
612.7994, 101.2938
613.2816, 98.18851
613.7637, 100.5790
614.2458, 104.2579
614.7279, 110.2661
615.2100, 115.1748
615.6921, 117.8620
616.1743, 118.3047
616.6564, 114.3571
617.1385, 105.3371
617.6206, 97.43257
618.1027, 96.44412
618.5848, 100.7582
619.0670, 106.8221
619.5491, 114.6565
620.0312, 121.6944
620.5133, 127.0982
620.9954, 129.9774
621.4775, 129.0146
621.9597, 118.6305
622.4418, 109.6729
622.9239, 106.9405
623.4060, 108.8257
623.8881, 109.7506
624.3702, 108.4765
624.8524, 106.8815
625.3345, 105.2317
625.8166, 103.5082
626.2987, 102.8605
626.7808, 103.2103
627.2629, 104.8209
627.7451, 107.7740
628.2272, 112.1002
628.7093, 119.3371
629.1914, 130.4454
629.6735, 139.9146
630.1556, 142.1142
630.6378, 137.8971
631.1199, 127.7298
631.6020, 105.6025
632.0841, 87.26665
632.5662, 86.27815
633.0483, 97.12061
633.5305, 107.9288
634.0126, 119.6225
634.4947, 125.5556
634.9768, 119.8265
635.4589, 103.4437
635.9410, 94.45075
636.4232, 96.35001
636.9053, 100.2549
637.3874, 101.3737
637.8695, 99.12907
638.3516, 102.0377
638.8337, 111.5099
639.3159, 120.5705
639.7980, 121.2842
640.2801, 115.5477
640.7622, 110.2722
641.2443, 106.2720
641.7264, 104.2834
642.2086, 107.5010
642.6907, 112.8758
643.1728, 114.9220
643.6549, 107.5980
644.1370, 100.5177
644.6191, 97.31000
645.1013, 97.58395
645.5834, 99.62901
646.0655, 106.4841
646.5476, 111.5428
647.0297, 112.3902
647.5118, 108.9837
647.9940, 106.0812
648.4761, 103.3625
648.9582, 101.9258
649.4403, 102.5756
649.9224, 105.2407
650.4045, 110.3404
650.8867, 118.5926
651.3688, 124.8246
651.8509, 121.4000
652.3330, 112.4472
652.8151, 105.7504
653.2972, 103.8495
653.7794, 103.8697
654.2615, 104.7196
654.7436, 106.1761
655.2257, 107.8436
655.7078, 109.8931
656.1899, 111.8797
656.6721, 115.4158
657.1542, 119.2122
657.6363, 116.3429
658.1184, 102.4173
658.6005, 91.20544
659.0826, 88.80029
659.5648, 94.63191
660.0469, 102.6866
660.5290, 113.2631
661.0111, 122.9564
661.4932, 130.9351
661.9753, 135.6049
662.4575, 131.2436
662.9396, 115.9336
663.4217, 102.0414
663.9038, 100.6008
664.3859, 105.1606
664.8680, 108.1556
665.3502, 105.2715
665.8323, 104.0832
666.3144, 108.7392
666.7965, 115.6759
667.2786, 118.2772
667.7607, 113.9732
668.2429, 109.8123
668.7250, 106.5243
669.2071, 104.5573
669.6892, 106.8432
670.1713, 113.8786
670.6534, 118.4036
671.1355, 114.8260
671.6176, 106.4067
672.0997, 101.2863
672.5818, 99.26973
673.0640, 97.89079
673.5461, 95.08934
674.0282, 92.36914
674.5103, 91.04176
674.9924, 91.33238
675.4745, 92.70660
675.9567, 94.87545
676.4388, 98.13832
676.9209, 102.9413
677.4030, 111.6034
677.8851, 117.5159
678.3672, 120.6397
678.8494, 120.8214
679.3315, 116.2651
679.8136, 106.5115
680.2957, 99.87182
680.7778, 98.60985
681.2599, 101.2446
681.7421, 107.9036
682.2242, 116.9465
682.7063, 122.0513
683.1884, 116.8252
683.6705, 109.0079
684.1526, 104.0015
684.6348, 101.7327
685.1169, 101.1173
685.5990, 102.6496
686.0811, 105.0220
686.5632, 108.3116
687.0453, 112.8104
687.5275, 114.5346
688.0096, 111.9495
688.4917, 109.1048
688.9738, 109.4559
689.4559, 113.1185
689.9380, 113.2303
690.4202, 108.9375
690.9023, 104.1699
691.3844, 103.0780
691.8665, 104.8521
692.3486, 108.1639
692.8307, 113.8304
693.3129, 118.1260
693.7950, 116.8183
694.2771, 112.8437
694.7592, 110.6188
695.2413, 114.7043
695.7234, 116.7288
696.2056, 112.0225
696.6877, 104.3228
697.1698, 103.1764
697.6519, 110.7054
698.1340, 119.8174
698.6161, 130.6629
699.0983, 140.7917
699.5804, 137.2979
700.0625, 120.6182
700.5446, 105.4245
701.0267, 104.1242
701.5089, 108.3487
701.9910, 103.0185
702.4731, 88.50300
702.9552, 80.37965
703.4373, 95.08911
703.9194, 114.2847
704.4016, 124.5644
704.8837, 121.2528
705.3658, 119.2012
705.8479, 121.1595
706.3300, 123.4529
706.8121, 123.1003
707.2943, 119.4277
707.7764, 115.9604
708.2585, 112.9055
708.7406, 110.0596
709.2227, 107.5997
709.7048, 105.2395
710.1870, 101.0268
710.6691, 92.15967
711.1512, 85.95100
711.6333, 92.84145
712.1154, 107.1739
712.5975, 117.8571
713.0797, 116.5091
713.5618, 115.5043
714.0439, 121.0935
714.5260, 130.8836
715.0081, 135.0828
715.4902, 131.2629
715.9724, 125.7734
716.4545, 119.9174
716.9366, 113.9379
717.4187, 110.1514
717.9008, 108.6856
718.3829, 106.7544
718.8651, 101.3192
719.3472, 94.64729
719.8293, 90.44138
720.3114, 88.87158
720.7935, 89.92340
721.2756, 97.03336
721.7578, 104.4917
722.2399, 107.1321
722.7220, 102.7723
723.2041, 99.77950
723.6862, 98.24688
724.1683, 99.44879
724.6505, 105.7138
725.1326, 120.3687
725.6147, 126.6031
726.0968, 121.7726
726.5789, 112.9944
727.0610, 108.4140
727.5432, 107.6184
728.0253, 109.2905
728.5074, 114.1484
728.9895, 118.5958
729.4716, 117.7814
729.9537, 114.2454
730.4359, 112.3115
730.9180, 116.8379
731.4001, 119.3597
731.8822, 114.7377
732.3643, 106.4605
732.8464, 103.9817
733.3285, 111.5013
733.8106, 116.4558
734.2927, 115.1950
734.7748, 109.5443
735.2570, 105.0403
735.7391, 101.6922
736.2212, 100.2199
736.7033, 102.8643
737.1854, 106.6812
737.6675, 106.3571
738.1497, 102.6378
738.6318, 99.68230
739.1139, 100.5755
739.5960, 102.2028
740.0781, 101.9177
740.5602, 99.14106
741.0424, 100.4477
741.5245, 111.7247
742.0066, 120.3486
742.4887, 103.6189
742.9708, 121.2044
743.4529, 130.9891
743.9351, 133.3919
744.4172, 106.3040
744.8993, 117.2974
745.3814, 113.0295
745.8635, 108.1358
746.3456, 124.4890
746.8278, 101.6904
747.3099, 117.7066
747.7920, 118.2286
748.2741, 125.8420
748.7562, 118.0998
749.2383, 115.1005
749.7205, 127.4615
750.2026, 131.3174
750.6847, 121.8076
751.1668, 129.8717
751.6489, 106.5368
752.1310, 110.7549
752.6132, 126.8609
753.0953, 118.1232
753.5774, 126.4681
754.0595, 128.3069
754.5416, 100.5787
755.0237, 124.2706
755.5059, 125.7249
755.9880, 104.3463
756.4701, 126.2763
756.9522, 108.0454
757.4343, 104.1495
757.9164, 111.0416
758.3986, 106.6875
758.8807, 120.0643
759.3628, 116.3597
759.8449, 111.1290
760.3270, 112.5585
760.8091, 95.11514
761.2913, 112.6846
761.7734, 106.3373
762.2555, 111.8786
762.7376, 120.1144
763.2197, 107.7173
763.7018, 117.1639
764.1840, 92.73587
764.6661, 96.65205
765.1482, 97.51606
765.6303, 116.4970
766.1124, 92.23416
766.5945, 95.36284
767.0767, 112.0346
767.5588, 110.2463
768.0409, 107.2116
768.5230, 106.4530
769.0051, 107.5868
769.4872, 107.8146
769.9694, 107.1374
770.4515, 106.4514
770.9336, 105.3125
771.4157, 105.1725
771.8978, 108.4280
772.3799, 115.6277
772.8621, 122.0513
773.3442, 126.9851
773.8263, 129.7440
774.3084, 129.5642
774.7905, 125.5359
775.2726, 122.0717
775.7548, 119.3399
776.2369, 116.8300
776.7190, 113.3031
777.2011, 109.2153
777.6832, 108.7224
778.1653, 112.5356
778.6475, 117.3260
779.1296, 119.9681
779.6117, 121.6132
780.0938, 124.4659
780.5759, 131.2071
781.0580, 133.2467
781.5402, 120.2628
782.0223, 105.4148
782.5044, 103.2292
782.9865, 122.2041
783.4686, 132.4135
783.9507, 129.9921
784.4329, 121.9698
784.9150, 117.4201
785.3971, 115.8576
785.8792, 113.8838
786.3613, 109.8360
786.8434, 107.8680
787.3256, 116.9118
787.8077, 129.5832
788.2898, 134.6064
788.7719, 118.4703
789.2540, 106.3592
789.7361, 107.5428
790.2183, 115.0899
790.7004, 118.7365
791.1825, 117.4275
791.6646, 115.2662
792.1467, 112.5558
792.6288, 109.9643
793.1110, 108.7246
793.5930, 108.7214
794.0751, 109.3483
794.5573, 110.2639
795.0394, 111.9059
795.5215, 115.1056
796.0036, 119.2383
796.4857, 123.0900
796.9678, 128.8971
797.4500, 131.1145
797.9321, 126.8634
798.4142, 118.7340
798.8963, 112.9938
799.3784, 109.8317
799.8605, 108.0887
800.3427, 107.7555
800.8248, 108.2090
801.3069, 107.6737
801.7890, 106.6255
802.2711, 106.9868
802.7532, 111.6797
803.2354, 116.2981
803.7175, 117.3091
804.1996, 115.7601
804.6817, 115.2949
805.1638, 119.1330
805.6459, 121.1267
806.1281, 119.1189
806.6102, 114.3411
807.0923, 111.9454
807.5744, 112.0504
808.0565, 113.0258
808.5386, 115.3600
809.0208, 117.2256
809.5029, 112.4596
809.9850, 103.3798
810.4671, 99.44940
810.9492, 112.1049
811.4313, 124.9772
811.9135, 129.9423
812.3956, 127.2429
812.8777, 121.0703
813.3598, 107.4240
813.8419, 97.87959
814.3240, 97.38023
814.8062, 103.8382
815.2883, 107.2419
815.7704, 107.6722
816.2525, 108.5714
816.7346, 112.1957
817.2167, 117.1513
817.6989, 123.8054
818.1810, 130.9220
818.6631, 132.7916
819.1452, 121.1469
819.6273, 109.5395
820.1094, 103.9917
820.5916, 103.8434
821.0737, 105.3697
821.5558, 109.2533
822.0379, 112.7364
822.5200, 114.4289
823.0021, 114.8229
823.4843, 116.5013
823.9664, 118.9609
824.4485, 118.5148
824.9306, 108.5411
825.4127, 98.13322
825.8948, 95.78593
826.3770, 100.6154
826.8591, 104.1759
827.3412, 101.4564
827.8233, 100.6960
828.3054, 105.6016
828.7875, 115.0779
829.2697, 119.4988
829.7518, 118.5026
830.2339, 116.0323
830.7160, 112.4609
831.1981, 109.5875
831.6802, 112.0078
832.1624, 118.7003
832.6445, 124.3658
833.1266, 125.4499
833.6087, 125.4744
834.0908, 126.9181
834.5729, 129.4889
835.0551, 128.5675
835.5372, 122.1417
836.0193, 116.3652
836.5014, 114.1458
836.9835, 114.3308
837.4656, 110.1611
837.9478, 102.4117
838.4299, 99.35587
838.9120, 112.6313
839.3941, 127.8451
839.8762, 127.9551
840.3583, 116.2282
840.8405, 110.0682
841.3226, 124.2612
841.8047, 134.4981
842.2868, 131.0437
842.7689, 116.9685
843.2510, 111.1270
843.7332, 114.6136
844.2153, 119.3146
844.6974, 122.7896
845.1795, 124.2897
845.6616, 120.7522
846.1437, 113.4838
846.6259, 107.5231
847.1080, 103.5236
847.5901, 103.3789
848.0722, 112.8950
848.5543, 128.5173
849.0364, 131.4138
849.5186, 112.4111
850.0007, 99.37469
850.4828, 102.2505
850.9649, 115.2706
851.4470, 120.5849
851.9291, 119.0478
852.4113, 117.9528
852.8934, 121.9307
853.3755, 126.6722
853.8576, 128.3769
854.3397, 127.6466
854.8218, 126.1320
855.3040, 126.0225
855.7860, 122.7170
856.2681, 112.1761
856.7502, 99.02965
857.2324, 97.27423
857.7145, 108.2865
858.1966, 115.2422
858.6787, 110.9092
859.1608, 103.1868
859.6429, 108.1351
860.1251, 119.5125
860.6072, 122.5130
861.0893, 95.11436
861.5714, 75.84855
862.0535, 87.13356
862.5356, 114.9333
863.0178, 130.2018
863.4999, 129.7418
863.9820, 123.5796
864.4641, 110.8047
864.9462, 97.54427
865.4283, 96.29982
865.9105, 104.3403
866.3926, 112.1814
866.8747, 118.6469
867.3568, 120.3559
867.8389, 109.0526
868.3210, 93.40250
868.8032, 85.06969
869.2853, 91.26989
869.7674, 98.80621
870.2495, 108.4466
870.7316, 117.9881
871.2137, 124.8857
871.6959, 129.1514
872.1780, 130.3864
872.6601, 127.9670
873.1422, 125.1775
873.6243, 127.9619
874.1064, 131.4411
874.5886, 127.5481
875.0707, 108.3400
875.5528, 97.30959
876.0349, 108.1176
876.5170, 123.0199
876.9991, 127.9392
877.4813, 120.5650
877.9634, 117.4119
878.4455, 119.7607
878.9276, 122.5050
879.4097, 117.8074
879.8918, 110.8888
880.3740, 112.5287
880.8561, 124.8224
881.3382, 135.2124
881.8203, 138.0495
882.3024, 136.3620
882.7845, 130.8414
883.2667, 120.4541
883.7488, 115.6412
884.2309, 117.9188
884.7130, 121.0970
885.1951, 119.7790
885.6772, 115.9573
886.1594, 116.2266
886.6415, 120.5041
887.1236, 125.4405
887.6057, 132.2245
888.0878, 136.1914
888.5699, 132.7104
889.0521, 121.5645
889.5342, 112.6814
890.0163, 106.0092
890.4984, 102.3639
890.9805, 103.0387
891.4626, 106.6698
891.9448, 106.8611
892.4269, 104.1729
892.9090, 103.2468
893.3911, 110.5226
893.8732, 117.4145
894.3553, 115.1572
894.8375, 106.3505
895.3196, 100.2442
895.8017, 98.80613
896.2838, 100.3594
896.7659, 106.0898
897.2480, 113.6860
897.7302, 116.7148
898.2123, 115.4326
898.6944, 115.3395
899.1765, 119.9193
899.6586, 123.4241
900.1407, 115.1497
900.6229, 102.2626
901.1050, 97.32513
901.5871, 111.5109
902.0692, 124.4888
902.5513, 136.6040
903.0334, 144.0205
903.5156, 138.0796
903.9977, 117.2887
904.4798, 109.9850
904.9619, 122.6413
905.4440, 137.9430
905.9261, 134.8070
906.4083, 122.2802
906.8904, 112.5792
907.3725, 107.5785
907.8546, 108.1177
908.3367, 120.8461
908.8188, 134.3027
909.3010, 140.0192
909.7831, 136.7685
910.2652, 132.7500
910.7473, 127.6743
911.2294, 123.7064
911.7115, 124.7409
912.1937, 127.2199
912.6758, 123.4268
913.1579, 113.2282
913.6400, 106.8486
914.1221, 112.4263
914.6042, 119.6789
915.0864, 124.2954
915.5685, 126.2018
916.0506, 122.7598
916.5327, 112.3302
917.0148, 105.6324
917.4969, 111.5030
917.9790, 122.3216
918.4611, 122.4149
918.9432, 114.2352
919.4254, 106.5602
919.9075, 102.7522
920.3896, 101.0973
920.8717, 101.3455
921.3538, 103.2329
921.8359, 107.1655
922.3181, 114.9050
922.8002, 116.0204
923.2823, 104.6482
923.7644, 92.27444
924.2465, 105.5616
924.7286, 132.4350
925.2108, 143.7826
925.6929, 120.4236
926.1750, 99.43965
926.6571, 100.1317
927.1392, 110.4097
927.6213, 115.6089
928.1035, 113.2583
928.5856, 113.6825
929.0677, 118.2961
929.5498, 122.4385
930.0319, 120.0570
930.5140, 113.8250
930.9962, 109.4432
931.4783, 107.6131
931.9604, 106.8633
932.4425, 104.3692
932.9246, 104.3234
933.4067, 112.2191
933.8889, 128.8466
934.3710, 133.7448
934.8531, 124.4640
935.3352, 112.8073
935.8173, 102.7734
936.2994, 96.51015
936.7816, 102.8416
937.2637, 119.0913
937.7458, 132.3608
938.2279, 136.3956
938.7100, 135.5936
939.1921, 129.6343
939.6743, 120.4207
940.1564, 113.0561
940.6385, 107.7029
941.1206, 103.5427
941.6027, 99.82306
942.0848, 98.13107
942.5670, 103.4826
943.0491, 112.6883
943.5312, 118.2861
944.0133, 115.0378
944.4954, 112.9958
944.9775, 117.8216
945.4597, 125.1044
945.9418, 129.8876
946.4239, 131.8138
946.9060, 133.0547
947.3881, 134.2012
947.8702, 132.5723
948.3524, 119.6046
948.8345, 104.0174
949.3166, 105.1649
949.7987, 125.5057
950.2808, 140.3133
950.7629, 132.2718
951.2451, 120.6989
951.7272, 116.6258
952.2093, 119.7317
952.6914, 117.9325
953.1735, 110.2210
953.6556, 105.3045
954.1378, 110.4536
954.6199, 119.3391
955.1020, 120.4204
955.5841, 116.6234
956.0662, 116.9975
956.5483, 134.9618
957.0305, 145.7058
957.5126, 137.5123
957.9947, 120.2256
958.4768, 112.1647
958.9589, 113.8617
959.4410, 116.1027
959.9232, 117.4619
960.4053, 117.4367
960.8874, 113.0278
961.3695, 107.7692
961.8516, 107.1155
962.3337, 113.5683
962.8159, 121.1125
963.2980, 132.2852
963.7801, 140.3334
964.2622, 138.8011
964.7443, 127.1448
965.2264, 123.0816
965.7086, 126.7722
966.1907, 132.0314
966.6728, 136.2158
967.1549, 138.3622
967.6370, 137.8306
968.1191, 134.4809
968.6013, 127.2273
969.0834, 106.9610
969.5655, 96.21404
970.0476, 105.0711
970.5297, 124.3444
971.0118, 124.7964
971.4940, 109.4103
971.9761, 99.93855
972.4582, 106.4458
972.9403, 117.1723
973.4224, 127.1593
973.9045, 133.9354
974.3867, 133.4690
974.8688, 116.2775
975.3509, 109.2551
975.8330, 116.4729
976.3151, 126.5861
976.7972, 128.1483
977.2794, 122.5344
977.7615, 111.4145
978.2436, 94.94849
978.7257, 85.36531
979.2078, 95.56046
979.6899, 111.1062
980.1720, 124.7376
980.6541, 135.6662
981.1362, 137.7981
981.6183, 128.6677
982.1005, 120.2933
982.5826, 118.5093
983.0647, 120.1065
983.5468, 118.1347
984.0289, 114.0406
984.5110, 112.0128
984.9932, 117.0693
985.4753, 120.5611
985.9574, 117.2558
986.4395, 112.1166
986.9216, 111.5630
987.4037, 116.0696
987.8859, 122.9905
988.3680, 133.2563
988.8501, 138.9223
989.3322, 123.8314
989.8143, 102.8399
990.2964, 98.15350
990.7786, 115.4390
991.2607, 126.3005
991.7428, 116.2586
992.2249, 108.0427
992.7070, 114.0344
993.1891, 131.1117
993.6713, 134.9857
994.1534, 126.7140
994.6355, 118.8166
995.1176, 118.5844
995.5997, 121.2327
996.0818, 125.5972
996.5640, 129.6137
997.0461, 127.7716
997.5282, 113.9557
998.0103, 105.1638
998.4924, 103.3426
998.9745, 107.1013
999.4567, 116.9097
999.9388, 130.6531
1000.421, 142.1812
1000.903, 150.9048
1001.385, 154.4622
1001.867, 147.5871
1002.349, 137.8678
1002.831, 130.5726
1003.314, 125.8297
1003.796, 123.4892
1004.278, 124.0552
1004.760, 123.9771
1005.242, 119.3559
1005.724, 114.1936
1006.206, 117.4151
1006.688, 125.9178
1007.171, 130.3530
1007.653, 123.0205
1008.135, 116.5221
1008.617, 112.5495
1009.099, 111.5373
1009.581, 115.7677
1010.063, 125.0557
1010.545, 129.3623
1011.027, 126.5592
1011.510, 123.5821
1011.992, 127.7617
1012.474, 134.4093
1012.956, 139.6684
1013.438, 143.4433
1013.920, 141.7493
1014.402, 131.3781
1014.884, 122.5925
1015.367, 121.0209
1015.849, 124.6562
1016.331, 128.8529
1016.813, 132.7861
1017.295, 132.9620
1017.777, 124.0011
1018.259, 114.9777
1018.741, 106.8422
1019.223, 102.4830
1019.706, 108.0450
1020.188, 126.7685
1020.670, 137.8495
1021.152, 137.9760
1021.634, 134.6690
1022.116, 135.4904
1022.598, 138.4830
1023.080, 142.3022
1023.563, 147.2305
1024.045, 146.4943
1024.527, 133.8847
1025.009, 120.9566
1025.491, 111.4383
1025.973, 105.4606
1026.455, 104.1305
1026.937, 107.2789
1027.419, 113.9431
1027.901, 128.9434
1028.384, 140.6806
1028.866, 137.8550
1029.348, 127.4486
1029.830, 120.8416
1030.312, 118.7461
1030.794, 121.1726
1031.276, 129.8301
1031.758, 137.4123
1032.241, 132.6290
1032.723, 122.5862
1033.205, 122.4613
1033.687, 133.2229
1034.169, 140.4902
1034.651, 133.4632
1035.133, 127.0901
1035.615, 128.6484
1036.098, 135.2290
1036.580, 133.1711
1037.062, 123.1272
1037.544, 116.7523
1038.026, 119.0603
1038.508, 124.8609
1038.990, 132.2746
1039.472, 139.0086
1039.954, 141.6921
1040.437, 137.3327
1040.919, 134.4852
1041.401, 133.5868
1041.883, 133.0291
1042.365, 129.3771
1042.847, 125.5163
1043.329, 131.5671
1043.811, 146.1411
1044.293, 156.2513
1044.776, 153.6335
1045.258, 147.2810
1045.740, 138.1287
1046.222, 128.8159
1046.704, 126.9548
1047.186, 132.7111
1047.668, 135.3316
1048.150, 131.2142
1048.633, 127.6864
1049.115, 136.5271
1049.597, 147.6624
1050.079, 148.3196
1050.561, 131.5089
1051.043, 123.1264
1051.525, 126.0335
1052.007, 131.6735
1052.490, 134.9325
1052.972, 137.1727
1053.454, 145.2999
1053.936, 156.4880
1054.418, 159.7988
1054.900, 137.8670
1055.382, 121.8192
1055.864, 126.1738
1056.346, 139.5035
1056.828, 148.6266
1057.311, 153.6251
1057.793, 148.5088
1058.275, 131.2796
1058.757, 115.8321
1059.239, 116.0424
1059.721, 122.7330
1060.203, 128.0824
1060.685, 131.2792
1061.168, 134.2547
1061.650, 137.1748
1062.132, 139.5858
1062.614, 141.0527
1063.096, 142.2232
1063.578, 146.2943
1064.060, 150.9377
1064.542, 150.1581
1065.025, 137.9140
1065.507, 127.7071
1065.989, 124.2365
1066.471, 124.1484
1066.953, 126.3984
1067.435, 131.0443
1067.917, 129.5176
1068.399, 121.9077
1068.881, 117.8198
1069.364, 130.5063
1069.846, 143.3208
1070.328, 140.6816
1070.810, 126.9808
1071.292, 121.1151
1071.774, 125.5511
1072.256, 131.4546
1072.738, 137.4717
1073.220, 143.7927
1073.703, 153.4310
1074.185, 162.3526
1074.667, 162.2306
1075.149, 150.2871
1075.631, 140.0386
1076.113, 136.1608
1076.595, 133.2461
1077.077, 128.5065
1077.559, 123.0559
1078.042, 123.1939
1078.524, 127.6617
1079.006, 129.5748
1079.488, 123.1191
1079.970, 117.1899
1080.452, 116.3120
1080.934, 119.1600
1081.416, 123.8945
1081.899, 131.0793
1082.381, 136.9234
1082.863, 141.1127
1083.345, 145.3964
1083.827, 153.9805
1084.309, 161.4627
1084.791, 160.9589
1085.273, 153.3178
1085.755, 145.8423
1086.238, 139.0455
1086.720, 133.7204
1087.202, 130.1849
1087.684, 127.9320
1088.166, 124.5116
1088.648, 121.9121
1089.130, 126.8052
1089.612, 142.4245
1090.094, 153.6309
1090.577, 148.4946
1091.059, 142.5265
1091.541, 145.0589
1092.023, 154.3707
1092.505, 156.9457
1092.987, 153.2464
1093.469, 148.7502
1093.951, 145.8883
1094.434, 143.2181
1094.916, 136.9879
1095.398, 131.5249
1095.880, 134.3662
1096.362, 151.1370
1096.844, 156.3120
1097.326, 147.8985
1097.808, 136.8095
1098.291, 131.0182
1098.773, 128.8136
1099.255, 127.8546
1099.737, 128.3036
1100.219, 131.8994
1100.701, 144.6773
1101.183, 150.9848
1101.665, 146.0979
1102.147, 137.0950
1102.630, 134.7816
1103.112, 137.7895
1103.594, 145.0416
1104.076, 157.6154
1104.558, 161.1716
1105.040, 136.5438
1105.522, 113.8770
1106.004, 109.5850
1106.486, 120.0906
1106.969, 125.8046
1107.451, 127.2227
1107.933, 130.1296
1108.415, 139.9914
1108.897, 146.0492
1109.379, 133.2942
1109.861, 116.0162
1110.343, 112.6151
1110.826, 127.8923
1111.308, 136.8355
1111.790, 138.8945
1112.272, 138.3267
1112.754, 136.8313
1113.236, 135.3548
1113.718, 134.5333
1114.200, 134.6736
1114.682, 136.9979
1115.165, 145.8712
1115.647, 148.4861
1116.129, 141.9720
1116.611, 132.0457
1117.093, 123.6903
1117.575, 117.8907
1118.057, 117.4765
1118.539, 122.6330
1119.021, 128.9976
1119.504, 138.4913
1119.986, 144.2977
1120.468, 143.2697
1120.950, 137.9413
1121.432, 134.3560
1121.914, 132.5423
1122.396, 132.8394
1122.878, 136.0158
1123.361, 138.8909
1123.843, 140.6025
1124.325, 140.3112
1124.807, 137.4468
1125.289, 132.0760
1125.771, 123.2453
1126.253, 111.0473
1126.735, 106.6467
1127.218, 123.3613
1127.700, 141.0813
1128.182, 140.0338
1128.664, 129.3759
1129.146, 124.3550
1129.628, 127.0245
1130.110, 132.6150
1130.592, 142.0597
1131.074, 148.8843
1131.557, 144.5721
1132.039, 136.3905
1132.521, 133.9045
1133.003, 136.4083
1133.485, 139.7638
1133.967, 145.1724
1134.449, 147.5486
1134.931, 145.8216
1135.413, 141.6510
1135.896, 135.5431
1136.378, 129.2935
1136.860, 127.5051
1137.342, 130.8313
1137.824, 132.3265
1138.306, 125.8223
1138.788, 121.6209
1139.270, 123.1060
1139.752, 128.8758
1140.235, 138.6779
1140.717, 149.7873
1141.199, 150.5725
1141.681, 133.8614
1142.163, 119.8064
1142.645, 121.8960
1143.127, 112.9031
1143.609, 130.2727
1144.092, 139.8405
1144.574, 142.0275
1145.056, 114.7236
1145.538, 125.5011
1146.020, 121.0173
1146.502, 115.9078
1146.984, 132.0450
1147.466, 109.0306
1147.948, 124.8308
1148.431, 125.1360
1148.913, 132.5335
1149.395, 124.5754
1149.877, 121.3602
1150.359, 133.5053
1150.841, 137.1454
1151.323, 127.4196
1151.805, 135.2678
1152.287, 111.7170
1152.770, 115.7183
1153.252, 131.6085
1153.734, 122.6548
1154.216, 130.7838
1154.698, 132.4067
1155.180, 104.4626
1155.662, 127.9386
1156.144, 129.1771
1156.627, 107.5817
1157.109, 129.2957
1157.591, 110.8490
1158.073, 106.7371
1158.555, 113.4133
1159.037, 108.8435
1159.519, 122.0043
1160.001, 118.0839
1160.484, 112.6363
1160.966, 113.8499
1161.448, 96.19064
1161.930, 113.5442
1162.412, 106.9811
1162.894, 112.3064
1163.376, 120.3265
1163.858, 107.7133
1164.340, 116.9442
1164.823, 125.8307
1165.305, 136.4431
1165.787, 126.1882
1166.269, 114.6426
1166.751, 114.6960
1167.233, 123.9399
1167.715, 130.6806
1168.197, 135.0388
1168.679, 137.4766
1169.162, 138.1475
1169.644, 137.0279
1170.126, 133.4249
1170.608, 128.5182
1171.090, 121.9744
1171.572, 114.2584
1172.054, 113.0665
1172.536, 118.3284
1173.019, 125.1268
1173.501, 134.5091
1173.983, 140.2924
1174.465, 136.8057
1174.947, 128.7034
1175.429, 121.8640
1175.911, 116.3326
1176.393, 119.2334
1176.875, 131.8696
1177.358, 138.9769
1177.840, 117.6422
1178.322, 96.59385
1178.804, 100.6279
1179.286, 122.1937
1179.768, 136.0097
1180.250, 142.0514
1180.732, 136.1563
1181.214, 114.6411
1181.697, 95.94421
1182.179, 101.4285
1182.661, 114.0366
1183.143, 117.3868
1183.625, 111.3977
1184.107, 109.1116
1184.589, 110.4541
1185.071, 117.4760
1185.554, 133.9650
1186.036, 148.1362
1186.518, 142.7088
1187.000, 130.0902
1187.482, 125.1602
1187.964, 130.0155
1188.446, 137.8003
1188.928, 150.0711
1189.411, 155.1938
1189.893, 142.3645
1190.375, 126.7290
1190.857, 129.0874
1191.339, 140.4139
1191.821, 146.9645
1192.303, 146.3001
1192.785, 141.2507
1193.267, 130.3605
1193.750, 121.9949
1194.232, 125.8234
1194.714, 132.4814
1195.196, 127.2099
1195.678, 115.4180
1196.160, 109.6356
1196.642, 113.4360
1197.124, 121.8671
1197.606, 137.5279
1198.089, 147.2331
1198.571, 130.5058
1199.053, 106.3461
1199.535, 102.0182
1200.017, 114.4936
1200.499, 128.9279
1200.981, 148.5996
1201.463, 156.1485
1201.945, 147.1513
1202.428, 133.7386
1202.910, 127.1654
1203.392, 125.8779
1203.874, 130.0855
1204.356, 138.5892
1204.838, 141.0730
1205.320, 131.8922
1205.802, 126.1270
1206.285, 127.1452
1206.767, 130.8537
1207.249, 131.4999
1207.731, 131.2271
1208.213, 134.1055
1208.695, 140.5955
1209.177, 144.5877
1209.659, 145.0269
1210.141, 143.7355
1210.624, 140.9005
1211.106, 137.2253
1211.588, 131.5575
1212.070, 126.7095
1212.552, 128.4003
1213.034, 138.8289
1213.516, 146.3150
1213.998, 150.7402
1214.480, 149.4167
1214.963, 139.3884
1215.445, 126.0640
1215.927, 115.0041
1216.409, 109.1399
1216.891, 116.2564
1217.373, 144.7335
1217.855, 158.8966
1218.337, 151.7426
1218.820, 142.0690
1219.302, 138.4328
1219.784, 138.7841
1220.266, 141.2169
1220.748, 144.1555
1221.230, 144.4690
1221.712, 140.5066
1222.194, 134.9688
1222.677, 126.1604
1223.159, 120.8408
1223.641, 124.9425
1224.123, 133.9951
1224.605, 144.0046
1225.087, 151.7876
1225.569, 150.0893
1226.051, 123.0952
1226.533, 110.3359
1227.016, 115.4231
1227.498, 125.8721
1227.980, 135.1716
1228.462, 141.8855
1228.944, 142.5582
1229.426, 138.6143
1229.908, 133.6637
1230.390, 122.1480
1230.872, 124.5797
1231.355, 147.0352
1231.837, 165.7011
1232.319, 151.4844
1232.801, 125.1814
1233.283, 117.3359
1233.765, 124.1805
1234.247, 129.3084
1234.729, 127.7589
1235.212, 130.2903
1235.694, 139.1493
1236.176, 146.8650
1236.658, 144.9618
1237.140, 138.2347
1237.622, 129.6245
1238.104, 121.2557
1238.586, 122.1936
1239.068, 137.9471
1239.551, 146.0744
1240.033, 142.9182
1240.515, 134.9913
1240.997, 126.4154
1241.479, 118.6499
1241.961, 112.2206
1242.443, 107.9888
1242.925, 110.1919
1243.407, 121.0217
1243.890, 128.5936
1244.372, 130.5597
1244.854, 130.1345
1245.336, 128.9346
1245.818, 128.3313
1246.300, 130.5717
1246.782, 135.1940
1247.264, 137.3305
1247.747, 136.9814
1248.229, 132.9247
1248.711, 123.5826
1249.193, 117.2021
1249.675, 126.9249
1250.157, 139.0260
1250.639, 140.0625
1251.121, 131.2778
1251.604, 122.9360
1252.086, 114.9115
1252.568, 111.3949
1253.050, 114.2109
1253.532, 118.0828
1254.014, 118.1916
1254.496, 117.6613
1254.978, 118.0071
1255.460, 119.8479
1255.943, 128.8346
1256.425, 144.4935
1256.907, 155.5816
1257.389, 158.6350
1257.871, 158.5219
1258.353, 158.6800
1258.835, 156.7416
1259.317, 150.2044
1259.799, 140.3709
1260.281, 133.9160
1260.764, 130.7696
1261.246, 131.5486
1261.728, 138.2788
1262.210, 142.6874
1262.692, 136.6197
1263.174, 130.9766
1263.656, 133.9372
1264.138, 141.8470
1264.621, 136.0092
1265.103, 120.9363
1265.585, 114.9856
1266.067, 128.4368
1266.549, 138.8107
1267.031, 135.9987
1267.513, 130.7345
1267.995, 128.0462
1268.478, 126.9615
1268.960, 122.0160
1269.442, 116.2142
1269.924, 119.0416
1270.406, 140.1310
1270.888, 151.7776
1271.370, 147.0407
1271.852, 139.1084
1272.334, 134.2111
1272.817, 132.1074
1273.299, 133.4063
1273.781, 136.7174
1274.263, 139.3084
1274.745, 140.8284
1275.227, 140.4061
1275.709, 138.0223
1276.191, 133.6053
##END=



