##NAMES=Griphite
##RRUFFID=R050618
##IDEAL CHEMISTRY=Ca(Mn^2+^,Na,Li)_6_Fe^2+^Al_2_(PO_4_)_6_(F,OH)_2_
##LOCALITY=Pennington County, South Dakota, USA
##OWNER=RRUFF
##SOURCE=University of Arizona Mineral Museum
##DESCRIPTION=Dark brown massive
##STATUS=The identification of this mineral has been confirmed by X-ray diffraction and chemical analysis
##URL=rruff.info/R050618
##MEASURED CHEMISTRY=Ca_1.00_(Mn^2+^_3.76_Na_1.87_Ca_0.24_Li_0.13_)_Σ=6_(Fe^2+^_0.74_Mn^2+^_0.25_Mg_0.01_)_Σ=1_(Al_1.82_Fe^3+^_0.18_)_Σ=2_(P_1.00_O_4_)_6_F_2.00_ ; Li not measured but estimated by difference and charge balance.
169.4662, 8742.771
169.9484, 8792.966
170.4305, 8826.881
170.9126, 8829.533
171.3947, 8825.083
171.8768, 8836.860
172.3589, 8862.655
172.8411, 8886.662
173.3232, 8891.449
173.8053, 8888.099
174.2874, 8894.966
174.7695, 8924.732
175.2516, 8963.814
175.7338, 8995.277
176.2159, 9018.857
176.6980, 9042.205
177.1801, 9079.640
177.6622, 9123.493
178.1443, 9153.098
178.6264, 9151.713
179.1086, 9132.393
179.5907, 9117.853
180.0728, 9108.807
180.5549, 9103.260
181.0370, 9094.785
181.5191, 9086.084
182.0013, 9089.070
182.4834, 9118.132
182.9655, 9163.930
183.4476, 9202.316
183.9297, 9230.850
184.4118, 9251.871
184.8940, 9263.571
185.3761, 9267.154
185.8582, 9276.994
186.3403, 9310.992
186.8224, 9362.173
187.3046, 9397.063
187.7867, 9409.153
188.2688, 9405.300
188.7509, 9393.776
189.2330, 9373.867
189.7151, 9362.460
190.1973, 9377.398
190.6794, 9416.427
191.1615, 9454.030
191.6436, 9486.770
192.1257, 9514.212
192.6078, 9533.915
193.0900, 9545.555
193.5721, 9553.094
194.0542, 9559.711
194.5363, 9565.376
195.0184, 9570.127
195.5005, 9569.896
195.9826, 9567.506
196.4648, 9587.832
196.9469, 9637.165
197.4290, 9689.680
197.9111, 9712.188
198.3932, 9701.366
198.8753, 9687.866
199.3575, 9681.198
199.8396, 9681.321
200.3217, 9683.157
200.8038, 9686.041
201.2859, 9691.752
201.7680, 9703.165
202.2502, 9720.795
202.7323, 9742.319
203.2144, 9769.528
203.6965, 9804.367
204.1786, 9829.308
204.6607, 9841.685
205.1429, 9846.313
205.6250, 9852.342
206.1071, 9859.421
206.5892, 9868.812
207.0713, 9883.138
207.5534, 9904.927
208.0356, 9918.131
208.5177, 9918.470
208.9998, 9911.329
209.4819, 9912.329
209.9640, 9922.253
210.4461, 9938.634
210.9282, 9964.703
211.4104, 10009.25
211.8925, 10030.24
212.3746, 10013.96
212.8567, 9970.370
213.3388, 9950.895
213.8209, 9962.329
214.3031, 9985.336
214.7852, 10007.45
215.2673, 10029.60
215.7494, 10047.17
216.2315, 10057.05
216.7136, 10060.36
217.1958, 10071.79
217.6779, 10094.96
218.1600, 10121.39
218.6421, 10144.18
219.1242, 10162.84
219.6063, 10179.26
220.0885, 10195.04
220.5706, 10210.15
221.0527, 10216.61
221.5348, 10209.71
222.0169, 10199.37
222.4990, 10195.58
222.9812, 10199.03
223.4633, 10208.00
223.9454, 10224.83
224.4275, 10251.76
224.9096, 10266.68
225.3917, 10262.09
225.8739, 10252.24
226.3560, 10254.86
226.8381, 10271.57
227.3202, 10298.54
227.8023, 10343.27
228.2844, 10417.77
228.7665, 10446.72
229.2487, 10405.05
229.7308, 10333.84
230.2129, 10296.67
230.6950, 10308.49
231.1771, 10330.59
231.6592, 10352.86
232.1414, 10377.19
232.6235, 10394.65
233.1056, 10402.59
233.5877, 10404.86
234.0698, 10408.12
234.5519, 10411.28
235.0341, 10417.03
235.5162, 10425.56
235.9983, 10433.86
236.4804, 10454.03
236.9625, 10496.90
237.4446, 10548.28
237.9268, 10574.60
238.4089, 10564.26
238.8910, 10545.65
239.3731, 10528.42
239.8552, 10503.73
240.3373, 10500.27
240.8195, 10526.63
241.3016, 10572.86
241.7837, 10612.39
242.2658, 10649.05
242.7479, 10673.64
243.2300, 10679.47
243.7122, 10653.79
244.1943, 10636.77
244.6764, 10632.95
245.1585, 10638.60
245.6406, 10639.54
246.1227, 10630.67
246.6048, 10624.06
247.0870, 10627.26
247.5691, 10646.78
248.0512, 10662.14
248.5333, 10670.99
249.0154, 10674.59
249.4975, 10677.22
249.9797, 10670.49
250.4618, 10674.31
250.9439, 10706.26
251.4260, 10793.68
251.9081, 10847.79
252.3902, 10851.03
252.8724, 10812.76
253.3545, 10789.01
253.8366, 10782.63
254.3187, 10786.60
254.8008, 10797.95
255.2829, 10821.59
255.7651, 10840.43
256.2472, 10848.09
256.7293, 10848.13
257.2114, 10869.05
257.6935, 10927.75
258.1756, 10982.29
258.6577, 10995.39
259.1399, 10942.43
259.6220, 10914.04
260.1041, 10932.73
260.5862, 10990.33
261.0683, 11012.46
261.5504, 10981.82
262.0326, 10943.39
262.5147, 10932.36
262.9968, 10956.35
263.4789, 10986.78
263.9610, 11024.94
264.4431, 11068.12
264.9253, 11087.43
265.4074, 11074.81
265.8895, 11052.85
266.3716, 11037.50
266.8537, 11027.77
267.3358, 11029.39
267.8180, 11047.08
268.3001, 11078.05
268.7822, 11101.41
269.2643, 11115.76
269.7464, 11124.92
270.2285, 11132.45
270.7107, 11138.75
271.1928, 11141.60
271.6749, 11141.42
272.1570, 11137.62
272.6391, 11120.96
273.1212, 11082.49
273.6034, 11053.01
274.0855, 11070.43
274.5676, 11145.62
275.0497, 11196.60
275.5318, 11199.71
276.0139, 11164.76
276.4961, 11152.96
276.9782, 11170.48
277.4603, 11192.19
277.9424, 11187.15
278.4245, 11151.20
278.9066, 11142.93
279.3888, 11186.68
279.8709, 11266.85
280.3530, 11302.85
280.8351, 11286.65
281.3172, 11259.02
281.7993, 11263.68
282.2815, 11301.16
282.7636, 11319.25
283.2457, 11297.85
283.7278, 11251.21
284.2099, 11232.24
284.6920, 11243.28
285.1741, 11267.50
285.6563, 11296.04
286.1384, 11328.13
286.6205, 11346.58
287.1026, 11341.46
287.5847, 11323.60
288.0668, 11326.43
288.5490, 11351.36
289.0311, 11379.92
289.5132, 11394.16
289.9953, 11396.42
290.4774, 11403.22
290.9595, 11420.95
291.4417, 11443.55
291.9238, 11457.66
292.4059, 11463.11
292.8880, 11463.93
293.3701, 11459.62
293.8522, 11452.53
294.3344, 11451.79
294.8165, 11461.50
295.2986, 11476.60
295.7807, 11487.07
296.2628, 11493.35
296.7449, 11501.65
297.2271, 11521.83
297.7092, 11547.75
298.1913, 11564.01
298.6734, 11563.42
299.1555, 11555.92
299.6376, 11556.16
300.1198, 11562.96
300.6019, 11567.94
301.0840, 11559.18
301.5661, 11545.28
302.0482, 11542.47
302.5303, 11558.82
303.0125, 11580.65
303.4946, 11594.77
303.9767, 11601.71
304.4588, 11604.62
304.9409, 11597.97
305.4230, 11590.90
305.9052, 11598.04
306.3873, 11632.04
306.8694, 11663.37
307.3515, 11654.78
307.8336, 11618.79
308.3157, 11596.73
308.7979, 11628.09
309.2800, 11678.17
309.7621, 11713.12
310.2442, 11724.47
310.7263, 11723.83
311.2084, 11709.56
311.6906, 11687.92
312.1727, 11675.34
312.6548, 11688.80
313.1369, 11709.14
313.6190, 11721.61
314.1011, 11722.07
314.5833, 11719.01
315.0654, 11709.08
315.5475, 11698.49
316.0296, 11700.30
316.5117, 11735.01
316.9938, 11772.53
317.4760, 11794.55
317.9580, 11792.79
318.4402, 11791.93
318.9223, 11806.30
319.4044, 11825.78
319.8865, 11833.33
320.3686, 11795.95
320.8507, 11769.11
321.3329, 11784.13
321.8150, 11862.56
322.2971, 11917.50
322.7792, 11913.99
323.2613, 11882.61
323.7434, 11865.35
324.2256, 11881.26
324.7077, 11900.06
325.1898, 11914.20
325.6719, 11923.03
326.1540, 11927.90
326.6361, 11927.95
327.1183, 11924.41
327.6004, 11918.57
328.0825, 11904.08
328.5646, 11894.16
329.0467, 11890.34
329.5288, 11892.30
330.0110, 11904.44
330.4931, 11942.67
330.9752, 11979.99
331.4573, 11988.21
331.9394, 11941.45
332.4215, 11908.54
332.9037, 11904.15
333.3858, 11927.77
333.8679, 11951.11
334.3500, 11976.93
334.8321, 11999.22
335.3142, 12012.54
335.7964, 12013.90
336.2785, 12013.42
336.7606, 12007.46
337.2427, 12000.13
337.7248, 12022.27
338.2069, 12087.67
338.6891, 12148.83
339.1712, 12166.01
339.6533, 12132.06
340.1354, 12106.58
340.6175, 12098.82
341.0996, 12103.10
341.5818, 12103.66
342.0639, 12100.06
342.5460, 12095.66
343.0281, 12087.29
343.5102, 12076.22
343.9923, 12087.21
344.4745, 12129.94
344.9566, 12183.04
345.4387, 12204.74
345.9208, 12195.88
346.4029, 12179.17
346.8850, 12158.81
347.3672, 12139.81
347.8493, 12145.03
348.3314, 12180.80
348.8135, 12223.11
349.2956, 12239.70
349.7777, 12234.84
350.2599, 12227.04
350.7419, 12217.70
351.2241, 12213.51
351.7062, 12232.02
352.1883, 12276.29
352.6704, 12317.25
353.1525, 12316.11
353.6346, 12291.61
354.1168, 12282.00
354.5989, 12327.90
355.0810, 12381.18
355.5631, 12384.95
356.0452, 12339.01
356.5273, 12304.88
357.0095, 12349.22
357.4916, 12421.29
357.9737, 12458.17
358.4558, 12403.44
358.9379, 12338.61
359.4200, 12302.91
359.9022, 12294.63
360.3843, 12300.91
360.8664, 12339.97
361.3485, 12378.59
361.8306, 12389.36
362.3127, 12337.02
362.7949, 12292.16
363.2770, 12275.86
363.7591, 12283.20
364.2412, 12296.34
364.7233, 12315.58
365.2054, 12336.48
365.6876, 12357.38
366.1697, 12384.94
366.6518, 12401.70
367.1339, 12395.40
367.6160, 12377.34
368.0981, 12372.91
368.5803, 12391.87
369.0624, 12415.41
369.5445, 12437.80
370.0266, 12457.79
370.5087, 12481.44
370.9908, 12520.83
371.4730, 12556.80
371.9551, 12559.58
372.4372, 12505.21
372.9193, 12461.88
373.4014, 12451.52
373.8835, 12475.92
374.3657, 12491.36
374.8478, 12495.62
375.3299, 12494.29
375.8120, 12489.61
376.2941, 12478.32
376.7762, 12481.86
377.2584, 12511.15
377.7405, 12558.78
378.2226, 12586.15
378.7047, 12592.15
379.1868, 12586.44
379.6689, 12572.28
380.1511, 12550.81
380.6332, 12533.26
381.1153, 12518.58
381.5974, 12513.03
382.0795, 12538.53
382.5616, 12592.59
383.0438, 12638.64
383.5259, 12639.61
384.0080, 12616.09
384.4901, 12626.57
384.9722, 12687.17
385.4543, 12746.56
385.9364, 12732.89
386.4185, 12669.48
386.9007, 12624.53
387.3828, 12648.72
387.8649, 12700.15
388.3470, 12734.12
388.8291, 12747.37
389.3112, 12752.64
389.7934, 12753.06
390.2755, 12752.27
390.7576, 12755.23
391.2397, 12774.27
391.7218, 12788.75
392.2039, 12777.63
392.6861, 12744.25
393.1682, 12729.25
393.6503, 12766.51
394.1324, 12819.09
394.6145, 12858.65
395.0966, 12872.29
395.5788, 12879.98
396.0609, 12882.20
396.5430, 12880.88
397.0251, 12883.07
397.5072, 12897.51
397.9893, 12909.49
398.4715, 12911.91
398.9536, 12897.12
399.4357, 12886.50
399.9178, 12875.28
400.3999, 12869.68
400.8820, 12882.34
401.3642, 12928.07
401.8463, 12969.43
402.3284, 12994.25
402.8105, 13000.12
403.2926, 13011.01
403.7747, 13029.96
404.2569, 13049.69
404.7390, 13059.77
405.2211, 13056.55
405.7032, 13061.24
406.1853, 13081.15
406.6674, 13112.39
407.1496, 13137.83
407.6317, 13157.64
408.1138, 13170.90
408.5959, 13170.97
409.0780, 13160.63
409.5602, 13165.55
410.0423, 13194.83
410.5244, 13231.35
411.0065, 13241.79
411.4886, 13230.06
411.9707, 13224.34
412.4529, 13248.09
412.9350, 13287.62
413.4171, 13320.27
413.8992, 13345.75
414.3813, 13357.17
414.8634, 13330.84
415.3456, 13286.91
415.8277, 13265.16
416.3098, 13308.03
416.7919, 13361.07
417.2740, 13381.90
417.7561, 13370.02
418.2382, 13354.51
418.7203, 13345.88
419.2025, 13342.43
419.6846, 13342.81
420.1667, 13346.83
420.6488, 13354.36
421.1309, 13367.36
421.6130, 13384.28
422.0952, 13400.06
422.5773, 13410.07
423.0594, 13421.36
423.5415, 13439.38
424.0236, 13480.52
424.5057, 13496.95
424.9879, 13459.39
425.4700, 13406.47
425.9521, 13401.84
426.4342, 13490.64
426.9163, 13557.24
427.3984, 13562.31
427.8806, 13500.68
428.3627, 13469.27
428.8448, 13477.47
429.3269, 13500.48
429.8090, 13519.04
430.2911, 13535.29
430.7733, 13530.45
431.2554, 13492.52
431.7375, 13436.46
432.2196, 13406.63
432.7017, 13404.25
433.1838, 13416.71
433.6660, 13444.27
434.1481, 13481.44
434.6302, 13504.69
435.1123, 13510.81
435.5944, 13505.38
436.0765, 13486.59
436.5587, 13460.08
437.0408, 13444.79
437.5229, 13457.14
438.0050, 13482.03
438.4871, 13505.30
438.9692, 13526.48
439.4514, 13540.25
439.9335, 13537.46
440.4156, 13527.07
440.8977, 13519.41
441.3798, 13515.41
441.8619, 13517.48
442.3441, 13535.37
442.8262, 13562.86
443.3083, 13575.49
443.7904, 13545.40
444.2725, 13512.88
444.7546, 13499.24
445.2368, 13513.60
445.7189, 13533.46
446.2010, 13568.79
446.6831, 13605.05
447.1652, 13619.32
447.6473, 13590.26
448.1295, 13566.27
448.6116, 13558.95
449.0937, 13568.87
449.5758, 13583.78
450.0579, 13609.55
450.5400, 13631.36
451.0221, 13634.07
451.5042, 13613.15
451.9864, 13595.82
452.4685, 13585.92
452.9506, 13581.84
453.4327, 13577.78
453.9148, 13573.31
454.3969, 13575.51
454.8791, 13590.05
455.3612, 13615.02
455.8433, 13645.54
456.3254, 13683.07
456.8075, 13715.70
457.2896, 13728.87
457.7718, 13725.61
458.2539, 13713.23
458.7360, 13679.57
459.2181, 13648.17
459.7002, 13650.98
460.1823, 13684.11
460.6645, 13715.05
461.1466, 13719.03
461.6287, 13713.70
462.1108, 13716.65
462.5929, 13739.92
463.0750, 13756.28
463.5572, 13747.54
464.0393, 13724.63
464.5214, 13709.72
465.0035, 13709.75
465.4856, 13717.66
465.9677, 13733.65
466.4499, 13760.57
466.9320, 13781.47
467.4141, 13796.84
467.8962, 13805.72
468.3783, 13805.85
468.8604, 13787.25
469.3426, 13779.76
469.8247, 13791.33
470.3068, 13816.36
470.7889, 13830.85
471.2710, 13832.27
471.7531, 13830.85
472.2353, 13831.92
472.7174, 13835.50
473.1995, 13838.66
473.6816, 13840.94
474.1637, 13843.91
474.6458, 13851.29
475.1280, 13862.08
475.6101, 13869.41
476.0922, 13864.53
476.5743, 13858.22
477.0564, 13873.55
477.5385, 13908.75
478.0207, 13942.47
478.5028, 13958.62
478.9849, 13965.14
479.4670, 13971.27
479.9491, 13978.53
480.4312, 13986.72
480.9134, 13994.30
481.3955, 14002.79
481.8776, 14015.09
482.3597, 14043.39
482.8418, 14065.72
483.3239, 14070.56
483.8060, 14055.49
484.2881, 14040.42
484.7703, 14024.12
485.2524, 14011.82
485.7345, 14006.94
486.2166, 14004.23
486.6987, 14018.75
487.1808, 14065.84
487.6630, 14128.79
488.1451, 14149.26
488.6272, 14105.69
489.1093, 14070.83
489.5914, 14084.01
490.0735, 14147.71
490.5557, 14185.08
491.0378, 14191.98
491.5199, 14184.98
492.0020, 14180.75
492.4841, 14179.05
492.9662, 14177.90
493.4484, 14176.58
493.9305, 14175.72
494.4126, 14177.35
494.8947, 14180.95
495.3768, 14183.35
495.8589, 14177.28
496.3411, 14171.27
496.8232, 14180.38
497.3053, 14211.02
497.7874, 14231.38
498.2695, 14201.57
498.7516, 14155.04
499.2338, 14136.00
499.7159, 14191.84
500.1980, 14245.59
500.6801, 14266.48
501.1622, 14257.72
501.6443, 14252.79
502.1265, 14270.81
502.6086, 14281.98
503.0907, 14269.71
503.5728, 14210.27
504.0549, 14178.07
504.5370, 14185.30
505.0192, 14210.77
505.5013, 14221.18
505.9834, 14211.57
506.4655, 14204.83
506.9476, 14210.60
507.4297, 14224.67
507.9119, 14215.91
508.3940, 14180.21
508.8761, 14154.50
509.3582, 14182.33
509.8403, 14246.13
510.3224, 14280.66
510.8046, 14274.34
511.2867, 14247.39
511.7688, 14209.83
512.2509, 14169.09
512.7330, 14142.37
513.2151, 14132.83
513.6973, 14144.00
514.1794, 14192.56
514.6615, 14274.33
515.1436, 14339.32
515.6257, 14363.13
516.1078, 14361.85
516.5900, 14345.13
517.0721, 14299.37
517.5542, 14264.43
518.0363, 14254.58
518.5184, 14258.06
519.0005, 14251.77
519.4827, 14212.49
519.9648, 14195.88
520.4469, 14225.27
520.9290, 14299.11
521.4111, 14342.84
521.8932, 14350.91
522.3754, 14341.01
522.8575, 14320.32
523.3396, 14288.04
523.8217, 14271.83
524.3038, 14278.04
524.7859, 14293.60
525.2681, 14298.40
525.7502, 14293.95
526.2323, 14289.21
526.7144, 14286.96
527.1965, 14287.40
527.6786, 14292.94
528.1608, 14302.98
528.6429, 14310.38
529.1250, 14308.44
529.6071, 14302.32
530.0892, 14295.55
530.5714, 14283.59
531.0535, 14282.53
531.5356, 14315.32
532.0176, 14360.36
532.4998, 14381.49
532.9819, 14340.35
533.4640, 14307.06
533.9461, 14303.22
534.4282, 14328.33
534.9103, 14346.71
535.3925, 14352.19
535.8746, 14359.14
536.3567, 14379.15
536.8388, 14417.71
537.3209, 14442.51
537.8030, 14448.26
538.2852, 14445.98
538.7673, 14454.70
539.2494, 14474.05
539.7315, 14488.06
540.2136, 14486.50
540.6957, 14478.72
541.1779, 14490.31
541.6600, 14518.46
542.1421, 14537.22
542.6242, 14509.88
543.1063, 14470.13
543.5884, 14464.20
544.0706, 14507.39
544.5527, 14549.82
545.0348, 14558.34
545.5169, 14549.91
545.9990, 14547.10
546.4811, 14560.55
546.9633, 14576.08
547.4454, 14587.54
547.9275, 14596.17
548.4096, 14614.29
548.8917, 14653.99
549.3738, 14689.85
549.8560, 14707.57
550.3381, 14698.44
550.8202, 14711.27
551.3023, 14756.15
551.7844, 14806.46
552.2665, 14828.62
552.7487, 14821.79
553.2308, 14815.93
553.7129, 14817.81
554.1950, 14824.60
554.6771, 14830.89
555.1592, 14836.89
555.6414, 14843.93
556.1235, 14851.39
556.6056, 14860.98
557.0877, 14873.15
557.5698, 14887.74
558.0519, 14911.08
558.5341, 14967.35
559.0162, 15025.79
559.4983, 15052.41
559.9804, 15013.60
560.4625, 14977.59
560.9446, 14960.14
561.4268, 14957.68
561.9089, 14961.15
562.3910, 14976.75
562.8731, 14990.07
563.3552, 14997.64
563.8373, 14999.48
564.3195, 14995.01
564.8016, 14979.25
565.2837, 14968.13
565.7658, 14977.50
566.2479, 15007.58
566.7300, 15032.59
567.2122, 15051.24
567.6943, 15060.25
568.1764, 15043.51
568.6585, 15009.78
569.1406, 14994.78
569.6227, 15032.75
570.1049, 15081.52
570.5870, 15083.54
571.0691, 15048.07
571.5512, 15023.69
572.0333, 15049.20
572.5154, 15087.31
572.9976, 15110.39
573.4797, 15110.36
573.9618, 15113.70
574.4439, 15132.59
574.9260, 15155.15
575.4081, 15168.69
575.8903, 15170.97
576.3724, 15166.89
576.8545, 15150.68
577.3366, 15129.94
577.8187, 15131.81
578.3008, 15162.66
578.7830, 15192.22
579.2651, 15208.12
579.7472, 15211.50
580.2293, 15204.43
580.7114, 15185.53
581.1935, 15175.82
581.6757, 15203.96
582.1578, 15254.25
582.6399, 15294.93
583.1220, 15320.88
583.6041, 15332.05
584.0862, 15316.12
584.5684, 15286.70
585.0505, 15267.55
585.5326, 15278.88
586.0147, 15291.34
586.4968, 15288.20
586.9789, 15272.17
587.4611, 15270.12
587.9432, 15296.87
588.4253, 15327.91
588.9074, 15356.78
589.3895, 15388.10
589.8716, 15394.25
590.3538, 15362.60
590.8359, 15325.78
591.3180, 15321.58
591.8001, 15351.12
592.2822, 15382.40
592.7643, 15414.82
593.2465, 15437.20
593.7286, 15416.57
594.2107, 15362.21
594.6928, 15323.08
595.1749, 15333.97
595.6570, 15365.48
596.1392, 15392.17
596.6213, 15412.79
597.1034, 15420.38
597.5854, 15400.22
598.0676, 15372.90
598.5497, 15354.13
599.0318, 15350.15
599.5139, 15345.32
599.9960, 15330.71
600.4781, 15317.00
600.9603, 15317.87
601.4424, 15344.18
601.9245, 15363.24
602.4066, 15367.70
602.8887, 15362.20
603.3708, 15362.76
603.8530, 15370.54
604.3351, 15375.15
604.8172, 15371.08
605.2993, 15359.57
605.7814, 15341.84
606.2635, 15317.93
606.7457, 15299.40
607.2278, 15298.23
607.7099, 15307.82
608.1920, 15320.46
608.6741, 15337.02
609.1563, 15349.76
609.6384, 15351.31
610.1205, 15347.28
610.6026, 15345.54
611.0847, 15361.21
611.5668, 15364.51
612.0490, 15333.44
612.5311, 15281.21
613.0132, 15267.01
613.4953, 15309.44
613.9774, 15357.35
614.4595, 15390.42
614.9417, 15409.09
615.4238, 15422.66
615.9059, 15431.10
616.3880, 15434.48
616.8701, 15431.12
617.3522, 15422.46
617.8344, 15411.01
618.3165, 15393.64
618.7986, 15386.10
619.2807, 15416.90
619.7628, 15467.39
620.2449, 15503.83
620.7271, 15496.24
621.2092, 15487.71
621.6913, 15502.72
622.1734, 15534.99
622.6555, 15557.17
623.1376, 15559.66
623.6198, 15555.13
624.1019, 15546.44
624.5840, 15532.79
625.0661, 15519.14
625.5482, 15495.87
626.0303, 15490.62
626.5125, 15544.35
626.9946, 15657.26
627.4767, 15706.85
627.9588, 15668.46
628.4409, 15606.11
628.9230, 15611.54
629.4052, 15664.30
629.8873, 15704.30
630.3694, 15707.69
630.8515, 15692.39
631.3336, 15668.32
631.8157, 15637.44
632.2979, 15605.72
632.7800, 15563.42
633.2621, 15531.39
633.7442, 15523.04
634.2263, 15540.71
634.7084, 15559.10
635.1906, 15581.27
635.6727, 15599.64
636.1548, 15608.80
636.6369, 15605.80
637.1190, 15605.78
637.6011, 15609.47
638.0833, 15615.06
638.5654, 15625.67
639.0475, 15638.63
639.5296, 15632.19
640.0117, 15589.66
640.4938, 15544.46
640.9760, 15549.52
641.4581, 15588.37
641.9402, 15615.68
642.4223, 15602.02
642.9044, 15576.50
643.3865, 15553.42
643.8687, 15533.60
644.3508, 15516.31
644.8329, 15496.79
645.3150, 15484.22
645.7971, 15483.86
646.2792, 15499.48
646.7614, 15512.85
647.2435, 15525.27
647.7256, 15533.58
648.2077, 15535.51
648.6898, 15531.06
649.1719, 15515.07
649.6541, 15481.76
650.1362, 15449.53
650.6183, 15444.88
651.1004, 15463.31
651.5825, 15492.14
652.0646, 15545.90
652.5468, 15589.47
653.0289, 15579.68
653.5110, 15532.57
653.9931, 15504.51
654.4752, 15538.86
654.9573, 15576.36
655.4395, 15592.48
655.9216, 15584.50
656.4037, 15561.39
656.8858, 15502.87
657.3679, 15455.65
657.8500, 15458.97
658.3322, 15523.94
658.8143, 15551.06
659.2964, 15529.69
659.7785, 15495.20
660.2606, 15491.46
660.7427, 15511.53
661.2249, 15530.33
661.7070, 15545.06
662.1891, 15549.94
662.6712, 15532.17
663.1533, 15500.62
663.6354, 15473.92
664.1175, 15456.75
664.5996, 15448.94
665.0817, 15455.30
665.5638, 15473.40
666.0460, 15484.96
666.5281, 15483.34
667.0102, 15482.18
667.4923, 15486.85
667.9744, 15497.76
668.4565, 15509.38
668.9387, 15523.95
669.4208, 15531.38
669.9029, 15514.44
670.3850, 15481.28
670.8671, 15472.69
671.3492, 15496.80
671.8314, 15522.98
672.3135, 15522.17
672.7956, 15503.40
673.2777, 15478.79
673.7598, 15439.98
674.2419, 15414.04
674.7241, 15417.21
675.2062, 15440.64
675.6883, 15466.62
676.1704, 15502.06
676.6525, 15528.04
677.1346, 15541.25
677.6168, 15542.38
678.0989, 15531.88
678.5810, 15505.78
679.0631, 15484.30
679.5452, 15477.33
680.0273, 15483.34
680.5095, 15499.62
680.9916, 15526.16
681.4737, 15546.69
681.9558, 15543.26
682.4379, 15529.11
682.9200, 15519.09
683.4022, 15514.83
683.8843, 15518.28
684.3664, 15537.87
684.8485, 15561.56
685.3306, 15578.26
685.8127, 15598.83
686.2949, 15592.23
686.7770, 15536.26
687.2591, 15466.93
687.7412, 15449.38
688.2233, 15494.25
688.7054, 15526.28
689.1876, 15524.05
689.6697, 15501.58
690.1518, 15480.61
690.6339, 15464.05
691.1160, 15468.49
691.5981, 15531.23
692.0803, 15599.65
692.5624, 15616.10
693.0445, 15585.83
693.5266, 15554.26
694.0087, 15526.09
694.4908, 15513.30
694.9730, 15530.34
695.4551, 15589.95
695.9372, 15618.14
696.4193, 15600.88
696.9014, 15570.83
697.3835, 15548.92
697.8657, 15534.72
698.3478, 15534.20
698.8299, 15550.76
699.3120, 15569.81
699.7941, 15570.83
700.2762, 15559.91
700.7584, 15554.63
701.2405, 15563.25
701.7226, 15570.79
702.2047, 15558.00
702.6868, 15536.85
703.1689, 15528.37
703.6511, 15544.28
704.1332, 15567.68
704.6153, 15601.49
705.0974, 15640.01
705.5795, 15665.12
706.0616, 15676.24
706.5438, 15674.13
707.0259, 15652.45
707.5080, 15617.73
707.9901, 15609.84
708.4722, 15629.23
708.9543, 15648.14
709.4365, 15643.62
709.9186, 15628.61
710.4007, 15623.40
710.8828, 15629.07
711.3649, 15640.50
711.8470, 15667.67
712.3292, 15690.91
712.8113, 15690.74
713.2934, 15646.67
713.7755, 15628.03
714.2576, 15660.10
714.7397, 15702.64
715.2219, 15719.98
715.7040, 15706.20
716.1861, 15692.81
716.6682, 15681.85
717.1503, 15674.19
717.6324, 15671.81
718.1146, 15674.00
718.5967, 15677.75
719.0788, 15683.33
719.5609, 15688.15
720.0430, 15688.48
720.5251, 15686.12
721.0073, 15684.87
721.4894, 15688.04
721.9715, 15690.65
722.4536, 15686.67
722.9357, 15679.40
723.4178, 15686.43
723.9000, 15717.94
724.3821, 15744.81
724.8642, 15757.84
725.3463, 15757.21
725.8284, 15740.46
726.3105, 15706.96
726.7927, 15672.44
727.2748, 15637.48
727.7569, 15612.31
728.2390, 15622.69
728.7211, 15669.74
729.2032, 15714.82
729.6853, 15740.97
730.1674, 15751.30
730.6495, 15742.73
731.1317, 15697.63
731.6138, 15684.02
732.0959, 15725.82
732.5780, 15781.34
733.0601, 15815.91
733.5422, 15827.01
734.0244, 15829.71
734.5065, 15823.95
734.9886, 15813.70
735.4707, 15800.56
735.9528, 15787.00
736.4349, 15781.40
736.9171, 15786.10
737.3992, 15799.46
737.8813, 15836.59
738.3634, 15878.55
738.8455, 15891.22
739.3276, 15811.72
739.8098, 15761.28
740.2919, 15796.63
740.7740, 15881.07
741.2561, 15921.40
741.7382, 15904.46
742.2203, 15877.66
742.7025, 15851.80
743.1846, 15828.64
743.6667, 15813.83
744.1488, 15807.35
744.6309, 15808.89
745.1130, 15822.74
745.5952, 15841.71
746.0773, 15856.67
746.5594, 15868.34
747.0415, 15883.87
747.5236, 15923.66
748.0057, 15954.07
748.4879, 15950.13
748.9700, 15903.88
749.4521, 15875.29
749.9342, 15867.86
750.4163, 15872.02
750.8984, 15883.42
751.3806, 15901.88
751.8627, 15928.98
752.3448, 15967.51
752.8269, 15988.39
753.3090, 15940.19
753.7911, 15862.68
754.2733, 15821.36
754.7554, 15830.74
755.2375, 15858.48
755.7196, 15907.41
756.2017, 15956.09
756.6838, 15983.76
757.1660, 15981.53
757.6481, 15962.03
758.1302, 15905.44
758.6123, 15851.33
759.0944, 15868.14
759.5765, 15961.85
760.0587, 16007.69
760.5408, 15967.37
761.0229, 15904.89
761.5050, 15916.57
761.9871, 15977.96
762.4692, 16029.27
762.9514, 16055.54
763.4335, 16056.23
763.9156, 16000.05
764.3977, 15919.70
764.8798, 15889.32
765.3619, 15977.60
765.8441, 16044.50
766.3262, 16062.58
766.8083, 16043.85
767.2904, 16022.97
767.7725, 15998.41
768.2546, 15987.64
768.7368, 16004.69
769.2189, 16035.88
769.7010, 16055.54
770.1831, 16064.88
770.6652, 16069.59
771.1473, 16068.81
771.6295, 16067.87
772.1116, 16073.03
772.5937, 16083.48
773.0758, 16084.80
773.5579, 16060.42
774.0400, 16043.96
774.5222, 16051.60
775.0043, 16082.49
775.4864, 16099.90
775.9685, 16102.71
776.4506, 16099.21
776.9327, 16089.85
777.4149, 16079.68
777.8970, 16085.47
778.3791, 16107.08
778.8612, 16118.63
779.3433, 16086.30
779.8254, 16048.52
780.3076, 16038.97
780.7897, 16070.36
781.2718, 16087.51
781.7539, 16069.95
782.2360, 16054.57
782.7181, 16071.15
783.2003, 16126.97
783.6824, 16156.76
784.1645, 16156.69
784.6466, 16144.66
785.1287, 16133.84
785.6108, 16125.23
786.0930, 16120.33
786.5751, 16119.16
787.0572, 16123.20
787.5393, 16140.40
788.0214, 16159.51
788.5035, 16169.56
788.9857, 16162.10
789.4678, 16156.15
789.9499, 16152.47
790.4320, 16150.18
790.9141, 16148.99
791.3962, 16149.18
791.8784, 16145.66
792.3605, 16136.71
792.8426, 16127.58
793.3247, 16120.54
793.8068, 16118.82
794.2889, 16130.60
794.7711, 16166.77
795.2531, 16200.25
795.7352, 16214.13
796.2173, 16217.76
796.6995, 16225.27
797.1816, 16245.68
797.6637, 16257.00
798.1458, 16255.01
798.6279, 16245.35
799.1100, 16237.77
799.5922, 16232.17
800.0743, 16225.93
800.5564, 16215.38
801.0385, 16209.99
801.5206, 16228.84
802.0027, 16261.57
802.4849, 16286.48
802.9670, 16293.70
803.4491, 16293.02
803.9312, 16277.00
804.4133, 16256.92
804.8954, 16263.06
805.3776, 16323.96
805.8597, 16342.22
806.3418, 16277.83
806.8239, 16177.68
807.3060, 16155.35
807.7881, 16203.50
808.2703, 16264.53
808.7524, 16331.43
809.2345, 16381.94
809.7166, 16380.21
810.1987, 16343.02
810.6808, 16313.84
811.1630, 16307.11
811.6451, 16311.89
812.1272, 16334.82
812.6093, 16366.00
813.0914, 16371.29
813.5735, 16341.29
814.0557, 16321.34
814.5378, 16328.38
815.0199, 16353.71
815.5020, 16385.68
815.9841, 16419.92
816.4662, 16436.09
816.9484, 16397.13
817.4305, 16359.03
817.9126, 16373.34
818.3947, 16425.67
818.8768, 16460.31
819.3589, 16438.74
819.8411, 16431.32
820.3232, 16466.02
820.8053, 16527.29
821.2874, 16539.52
821.7695, 16499.92
822.2516, 16448.85
822.7338, 16387.75
823.2159, 16337.70
823.6980, 16354.73
824.1801, 16420.99
824.6622, 16466.13
825.1443, 16431.90
825.6265, 16390.67
826.1086, 16376.86
826.5907, 16389.29
827.0728, 16405.05
827.5549, 16427.82
828.0370, 16446.25
828.5192, 16456.01
829.0013, 16458.65
829.4834, 16461.30
829.9655, 16463.39
830.4476, 16458.24
830.9297, 16433.13
831.4119, 16405.41
831.8940, 16392.38
832.3761, 16392.30
832.8582, 16396.71
833.3403, 16395.57
833.8224, 16407.33
834.3046, 16450.07
834.7867, 16513.06
835.2688, 16526.24
835.7509, 16478.76
836.2330, 16437.59
836.7151, 16433.05
837.1973, 16454.77
837.6794, 16487.98
838.1615, 16529.20
838.6436, 16562.72
839.1257, 16580.13
839.6078, 16587.11
840.0900, 16585.49
840.5721, 16575.83
841.0542, 16559.05
841.5363, 16517.47
842.0184, 16500.99
842.5005, 16535.67
842.9827, 16603.95
843.4648, 16631.66
843.9469, 16620.52
844.4290, 16604.31
844.9111, 16594.43
845.3932, 16593.45
845.8754, 16614.52
846.3575, 16648.94
846.8396, 16666.41
847.3217, 16630.70
847.8038, 16603.97
848.2859, 16618.68
848.7681, 16658.77
849.2502, 16657.29
849.7323, 16602.60
850.2144, 16566.05
850.6965, 16581.66
851.1786, 16624.90
851.6608, 16649.62
852.1429, 16657.05
852.6250, 16653.35
853.1071, 16620.21
853.5892, 16597.51
854.0714, 16616.14
854.5535, 16664.16
855.0356, 16700.25
855.5177, 16724.67
855.9998, 16731.38
856.4819, 16713.26
856.9641, 16681.30
857.4462, 16666.40
857.9283, 16666.79
858.4104, 16667.46
858.8925, 16661.28
859.3746, 16654.16
859.8568, 16643.07
860.3389, 16636.26
860.8210, 16651.73
861.3030, 16735.04
861.7852, 16790.57
862.2673, 16787.19
862.7494, 16753.01
863.2315, 16748.52
863.7136, 16777.23
864.1957, 16800.76
864.6779, 16807.74
865.1600, 16808.23
865.6421, 16820.76
866.1242, 16838.23
866.6063, 16844.01
867.0884, 16818.59
867.5706, 16798.79
868.0527, 16803.56
868.5348, 16821.41
869.0169, 16833.47
869.4990, 16837.65
869.9811, 16840.57
870.4633, 16841.75
870.9454, 16844.52
871.4275, 16855.24
871.9096, 16871.92
872.3917, 16887.71
872.8738, 16899.77
873.3560, 16913.62
873.8381, 16944.30
874.3202, 16974.37
874.8023, 16982.80
875.2844, 16942.80
875.7665, 16915.61
876.2487, 16905.55
876.7308, 16902.64
877.2129, 16894.74
877.6950, 16882.70
878.1771, 16875.46
878.6592, 16872.80
879.1414, 16884.81
879.6235, 16941.79
880.1056, 17008.55
880.5877, 17040.34
881.0698, 17017.45
881.5519, 17000.46
882.0341, 17010.07
882.5162, 17021.97
882.9983, 17016.77
883.4804, 16990.04
883.9625, 16985.24
884.4446, 17004.29
884.9268, 17033.35
885.4089, 17073.98
885.8910, 17110.47
886.3731, 17114.53
886.8552, 17083.24
887.3373, 17054.35
887.8195, 17045.18
888.3016, 17042.24
888.7837, 17034.12
889.2658, 17019.35
889.7479, 17035.51
890.2300, 17091.54
890.7122, 17137.77
891.1943, 17134.40
891.6764, 17100.57
892.1585, 17079.71
892.6406, 17071.53
893.1227, 17072.21
893.6049, 17096.35
894.0870, 17113.29
894.5691, 17093.43
895.0512, 17043.79
895.5333, 17035.06
896.0154, 17086.04
896.4976, 17129.06
896.9797, 17133.73
897.4618, 17118.29
897.9439, 17139.79
898.4260, 17189.26
898.9081, 17225.20
899.3903, 17213.47
899.8724, 17195.31
900.3545, 17190.58
900.8366, 17199.65
901.3187, 17225.47
901.8008, 17294.25
902.2830, 17329.12
902.7651, 17306.89
903.2472, 17258.54
903.7293, 17244.13
904.2114, 17259.36
904.6935, 17278.78
905.1757, 17298.45
905.6578, 17312.68
906.1399, 17307.32
906.6220, 17296.67
907.1041, 17299.97
907.5862, 17342.27
908.0684, 17367.34
908.5505, 17364.85
909.0326, 17355.15
909.5147, 17362.76
909.9968, 17386.15
910.4789, 17400.23
910.9611, 17401.98
911.4432, 17397.52
911.9253, 17381.09
912.4074, 17367.86
912.8895, 17377.10
913.3716, 17417.45
913.8538, 17454.08
914.3359, 17487.37
914.8180, 17509.12
915.3001, 17512.58
915.7822, 17497.87
916.2643, 17476.59
916.7465, 17448.58
917.2286, 17430.12
917.7107, 17432.35
918.1928, 17450.93
918.6749, 17490.45
919.1570, 17547.14
919.6392, 17588.23
920.1213, 17582.26
920.6034, 17583.25
921.0855, 17615.01
921.5676, 17666.96
922.0497, 17688.56
922.5319, 17679.38
923.0140, 17662.38
923.4961, 17633.39
923.9782, 17617.65
924.4603, 17669.77
924.9424, 17758.33
925.4246, 17810.83
925.9067, 17759.48
926.3888, 17722.50
926.8708, 17733.76
927.3530, 17765.72
927.8351, 17766.53
928.3172, 17733.50
928.7993, 17727.91
929.2814, 17767.67
929.7635, 17814.98
930.2457, 17815.22
930.7278, 17796.33
931.2099, 17802.93
931.6920, 17860.59
932.1741, 17905.03
932.6563, 17912.09
933.1384, 17908.80
933.6205, 17913.95
934.1026, 17928.46
934.5847, 17944.44
935.0668, 17962.41
935.5490, 17975.14
936.0311, 17958.46
936.5132, 17942.92
936.9953, 17978.60
937.4774, 18067.64
937.9595, 18139.26
938.4417, 18166.73
938.9238, 18174.19
939.4059, 18164.91
939.8880, 18142.70
940.3701, 18135.18
940.8522, 18142.65
941.3344, 18158.24
941.8165, 18182.23
942.2986, 18209.21
942.7807, 18231.31
943.2628, 18250.94
943.7449, 18274.32
944.2271, 18312.01
944.7092, 18342.21
945.1913, 18350.88
945.6734, 18356.75
946.1555, 18404.89
946.6376, 18494.75
947.1198, 18553.34
947.6019, 18562.40
948.0840, 18550.50
948.5661, 18535.96
949.0482, 18525.72
949.5303, 18529.40
950.0125, 18551.15
950.4946, 18583.81
950.9767, 18646.77
951.4588, 18696.22
951.9409, 18680.94
952.4230, 18601.89
952.9052, 18606.56
953.3873, 18700.31
953.8694, 18797.62
954.3515, 18829.78
954.8336, 18835.52
955.3157, 18844.98
955.7979, 18861.18
956.2800, 18895.29
956.7621, 18978.86
957.2442, 19035.52
957.7263, 19028.64
958.2084, 18981.56
958.6906, 18975.23
959.1727, 19006.51
959.6548, 19051.29
960.1369, 19111.79
960.6190, 19164.80
961.1011, 19177.29
961.5833, 19171.65
962.0654, 19189.01
962.5475, 19253.85
963.0296, 19313.95
963.5117, 19372.45
963.9938, 19413.56
964.4760, 19393.26
964.9581, 19332.63
965.4402, 19334.80
965.9223, 19420.72
966.4044, 19509.94
966.8865, 19542.30
967.3687, 19553.67
967.8508, 19570.66
968.3329, 19595.91
968.8150, 19631.19
969.2971, 19683.24
969.7792, 19727.64
970.2614, 19734.25
970.7435, 19726.31
971.2256, 19795.69
971.7077, 19923.14
972.1898, 20015.03
972.6719, 19983.29
973.1541, 19940.24
973.6362, 19930.69
974.1183, 19951.96
974.6004, 19995.66
975.0825, 20070.48
975.5646, 20130.98
976.0468, 20162.50
976.5289, 20188.50
977.0110, 20256.68
977.4931, 20341.96
977.9752, 20392.41
978.4573, 20380.20
978.9395, 20372.60
979.4216, 20397.84
979.9037, 20433.41
980.3858, 20462.48
980.8679, 20483.19
981.3500, 20514.08
981.8322, 20556.43
982.3143, 20593.76
982.7964, 20608.94
983.2785, 20614.44
983.7606, 20625.19
984.2427, 20641.05
984.7249, 20655.04
985.2070, 20674.05
985.6891, 20678.41
986.1712, 20655.35
986.6533, 20618.18
987.1354, 20612.76
987.6176, 20635.02
988.0997, 20643.81
988.5818, 20621.37
989.0639, 20588.88
989.5460, 20553.09
990.0281, 20523.49
990.5103, 20513.85
990.9924, 20549.04
991.4745, 20566.18
991.9566, 20565.49
992.4387, 20546.71
992.9208, 20495.98
993.4029, 20426.31
993.8850, 20391.40
994.3671, 20393.27
994.8492, 20397.24
995.3314, 20369.72
995.8135, 20348.26
996.2956, 20376.24
996.7777, 20441.04
997.2598, 20427.02
997.7419, 20313.58
998.2241, 20215.45
998.7062, 20179.14
999.1883, 20176.77
999.6704, 20174.15
1000.153, 20168.69
1000.635, 20153.94
1001.117, 20110.08
1001.599, 20082.83
1002.081, 20109.19
1002.563, 20137.12
1003.045, 20103.81
1003.527, 20004.52
1004.009, 19965.92
1004.492, 20000.42
1004.974, 20030.18
1005.456, 19960.00
1005.938, 19870.01
1006.420, 19848.39
1006.902, 19901.83
1007.384, 19930.72
1007.866, 19909.11
1008.349, 19887.24
1008.831, 19881.99
1009.313, 19888.14
1009.795, 19896.46
1010.277, 19903.76
1010.759, 19894.78
1011.241, 19850.77
1011.723, 19808.70
1012.205, 19791.84
1012.688, 19788.39
1013.170, 19779.52
1013.652, 19756.78
1014.134, 19758.11
1014.616, 19789.71
1015.098, 19826.62
1015.580, 19848.68
1016.062, 19857.81
1016.544, 19859.73
1017.027, 19854.28
1017.509, 19829.29
1017.991, 19752.25
1018.473, 19685.37
1018.955, 19649.57
1019.437, 19641.92
1019.919, 19659.48
1020.401, 19700.64
1020.884, 19730.00
1021.366, 19729.03
1021.848, 19721.45
1022.330, 19731.50
1022.812, 19748.23
1023.294, 19755.85
1023.776, 19745.56
1024.258, 19735.56
1024.740, 19723.63
1025.223, 19717.38
1025.705, 19731.75
1026.187, 19756.39
1026.669, 19756.56
1027.151, 19732.56
1027.633, 19711.07
1028.115, 19700.69
1028.597, 19702.64
1029.079, 19730.38
1029.562, 19770.23
1030.044, 19765.46
1030.526, 19709.95
1031.008, 19684.89
1031.490, 19725.81
1031.972, 19777.38
1032.454, 19773.58
1032.936, 19736.78
1033.419, 19694.55
1033.901, 19630.97
1034.383, 19621.48
1034.865, 19700.12
1035.347, 19784.45
1035.829, 19807.80
1036.311, 19782.04
1036.793, 19768.64
1037.276, 19767.36
1037.758, 19770.42
1038.240, 19771.26
1038.722, 19776.96
1039.204, 19804.06
1039.686, 19837.73
1040.168, 19831.94
1040.650, 19774.65
1041.132, 19741.03
1041.615, 19749.75
1042.097, 19771.91
1042.579, 19770.38
1043.061, 19758.42
1043.543, 19755.42
1044.025, 19765.55
1044.507, 19782.18
1044.989, 19808.81
1045.471, 19834.94
1045.954, 19857.87
1046.436, 19875.64
1046.918, 19871.59
1047.400, 19849.12
1047.882, 19831.18
1048.364, 19834.41
1048.846, 19841.36
1049.328, 19844.32
1049.811, 19843.47
1050.293, 19838.92
1050.775, 19828.82
1051.257, 19821.59
1051.739, 19817.14
1052.221, 19819.63
1052.703, 19842.83
1053.185, 19871.07
1053.667, 19879.26
1054.150, 19864.32
1054.632, 19852.97
1055.114, 19855.87
1055.596, 19858.48
1056.078, 19853.97
1056.560, 19846.88
1057.042, 19855.92
1057.524, 19877.46
1058.006, 19891.09
1058.489, 19881.76
1058.971, 19877.91
1059.453, 19906.72
1059.935, 19944.88
1060.417, 19965.69
1060.899, 19965.02
1061.381, 19958.65
1061.863, 19945.18
1062.346, 19935.96
1062.828, 19943.59
1063.310, 19958.42
1063.792, 19968.39
1064.274, 19973.76
1064.756, 19977.85
1065.238, 19985.70
1065.720, 19985.09
1066.203, 19969.21
1066.685, 19950.18
1067.167, 19953.21
1067.649, 19972.08
1068.131, 19981.74
1068.613, 19974.56
1069.095, 19974.38
1069.577, 20004.25
1070.059, 20038.26
1070.542, 20055.42
1071.024, 20056.24
1071.506, 20085.61
1071.988, 20146.64
1072.470, 20171.81
1072.952, 20096.50
1073.434, 20004.75
1073.916, 19993.21
1074.398, 20031.89
1074.881, 20065.59
1075.363, 20077.51
1075.845, 20095.98
1076.327, 20128.04
1076.809, 20152.45
1077.291, 20131.05
1077.773, 20089.47
1078.255, 20107.52
1078.738, 20182.15
1079.220, 20231.11
1079.702, 20170.31
1080.184, 20128.46
1080.666, 20165.17
1081.148, 20244.79
1081.630, 20267.10
1082.112, 20236.54
1082.594, 20219.88
1083.077, 20236.45
1083.559, 20256.46
1084.041, 20249.43
1084.523, 20236.48
1085.005, 20241.77
1085.487, 20271.24
1085.969, 20279.73
1086.451, 20264.02
1086.933, 20242.05
1087.416, 20218.43
1087.898, 20198.98
1088.380, 20194.38
1088.862, 20200.89
1089.344, 20209.92
1089.826, 20221.68
1090.308, 20231.43
1090.790, 20237.86
1091.272, 20243.66
1091.755, 20247.51
1092.237, 20253.00
1092.719, 20281.09
1093.201, 20331.35
1093.683, 20371.37
1094.165, 20380.20
1094.647, 20376.89
1095.129, 20362.10
1095.612, 20344.83
1096.094, 20350.95
1096.576, 20380.81
1097.058, 20414.36
1097.540, 20450.23
1098.022, 20476.36
1098.504, 20478.11
1098.986, 20465.80
1099.469, 20447.17
1099.951, 20421.19
1100.433, 20403.25
1100.915, 20394.10
1101.397, 20389.20
1101.879, 20381.58
1102.361, 20381.56
1102.843, 20416.16
1103.325, 20470.58
1103.807, 20513.23
1104.290, 20534.52
1104.772, 20539.96
1105.254, 20523.84
1105.736, 20503.55
1106.218, 20498.81
1106.700, 20503.88
1107.182, 20492.51
1107.664, 20465.84
1108.147, 20442.49
1108.629, 20432.05
1109.111, 20428.37
1109.593, 20429.41
1110.075, 20435.10
1110.557, 20445.28
1111.039, 20459.93
1111.521, 20485.46
1112.004, 20524.17
1112.486, 20564.71
1112.968, 20610.44
1113.450, 20644.27
1113.932, 20648.79
1114.414, 20623.37
1114.896, 20586.88
1115.378, 20532.96
1115.860, 20502.88
1116.343, 20515.82
1116.825, 20553.62
1117.307, 20606.74
1117.789, 20661.93
1118.271, 20698.21
1118.753, 20707.77
1119.235, 20701.15
1119.717, 20669.73
1120.199, 20643.22
1120.682, 20645.45
1121.164, 20667.70
1121.646, 20691.43
1122.128, 20714.78
1122.610, 20730.87
1123.092, 20726.62
1123.574, 20729.26
1124.056, 20755.40
1124.539, 20779.06
1125.021, 20754.15
1125.503, 20693.44
1125.985, 20687.80
1126.467, 20743.56
1126.949, 20798.68
1127.431, 20813.91
1127.913, 20816.27
1128.396, 20822.29
1128.878, 20827.31
1129.360, 20809.86
1129.842, 20769.44
1130.324, 20750.41
1130.806, 20765.67
1131.288, 20791.40
1131.770, 20802.15
1132.252, 20814.44
1132.734, 20852.96
1133.217, 20922.21
1133.699, 20950.78
1134.181, 20933.58
1134.663, 20900.04
1135.145, 20851.28
1135.627, 20809.76
1136.109, 20803.76
1136.591, 20825.53
1137.074, 20864.91
1137.556, 20946.24
1138.038, 20983.89
1138.520, 20961.16
1139.002, 20935.16
1139.484, 20953.79
1139.966, 20997.63
1140.448, 21024.15
1140.931, 21037.45
1141.413, 21051.61
1141.895, 21085.55
1142.377, 21098.97
1142.859, 21073.16
1143.341, 21044.75
1143.823, 21067.73
1144.305, 21124.72
1144.787, 21144.75
1145.270, 21125.35
1145.752, 21111.31
1146.234, 21144.21
1146.716, 21165.07
1147.198, 21136.34
1147.680, 21091.46
1148.162, 21116.65
1148.644, 21200.93
1149.126, 21245.34
1149.609, 21226.60
1150.091, 21200.04
1150.573, 21200.75
1151.055, 21210.98
1151.537, 21225.05
1152.019, 21239.26
1152.501, 21215.79
1152.983, 21154.40
1153.466, 21122.56
1153.948, 21155.93
1154.430, 21197.58
1154.912, 21185.19
1155.394, 21160.85
1155.876, 21178.18
1156.358, 21246.90
1156.840, 21296.21
1157.322, 21325.63
1157.805, 21339.57
1158.287, 21332.18
1158.769, 21319.47
1159.251, 21316.13
1159.733, 21321.85
1160.215, 21336.79
1160.697, 21363.87
1161.179, 21395.11
1161.661, 21433.76
1162.144, 21463.53
1162.626, 21469.99
1163.108, 21459.73
1163.590, 21430.06
1164.072, 21390.26
1164.554, 21377.26
1165.036, 21416.78
1165.518, 21451.65
1166.000, 21477.25
1166.483, 21493.01
1166.965, 21489.99
1167.447, 21480.14
1167.929, 21488.33
1168.411, 21515.52
1168.893, 21543.52
1169.375, 21576.12
1169.857, 21594.27
1170.340, 21589.64
1170.822, 21574.57
1171.304, 21566.10
1171.786, 21566.16
1172.268, 21581.57
1172.750, 21614.75
1173.232, 21651.05
1173.714, 21690.38
1174.197, 21725.08
1174.679, 21754.04
1175.161, 21774.69
1175.643, 21770.29
1176.125, 21749.25
1176.607, 21744.04
1177.089, 21771.56
1177.571, 21792.87
1178.053, 21789.54
1178.536, 21774.74
1179.018, 21750.27
1179.500, 21720.49
1179.982, 21715.82
1180.464, 21733.57
1180.946, 21760.59
1181.428, 21804.40
1181.910, 21834.77
1182.392, 21825.31
1182.875, 21804.76
1183.357, 21795.55
1183.839, 21797.64
1184.321, 21820.64
1184.803, 21862.30
1185.285, 21895.17
1185.767, 21898.25
1186.249, 21893.31
1186.732, 21882.29
1187.214, 21875.98
1187.696, 21893.18
1188.178, 21935.46
1188.660, 21958.20
1189.142, 21959.23
1189.624, 21956.26
1190.106, 21956.08
1190.589, 21962.06
1191.071, 21980.27
1191.553, 22005.36
1192.035, 22025.13
1192.517, 22038.99
1192.999, 22062.02
1193.481, 22098.06
1193.963, 22119.39
1194.445, 22068.83
1194.927, 22025.15
1195.410, 22073.01
1195.892, 22182.77
1196.374, 22223.85
1196.856, 22190.21
1197.338, 22159.65
1197.820, 22146.77
1198.302, 22148.55
1198.784, 22182.10
1199.267, 22214.08
1199.749, 22202.29
1200.231, 22152.57
1200.713, 22145.22
1201.195, 22184.56
1201.677, 22220.39
1202.159, 22237.31
1202.641, 22248.14
1203.124, 22275.59
1203.606, 22297.22
1204.088, 22279.85
1204.570, 22220.43
1205.052, 22187.12
1205.534, 22178.41
1206.016, 22215.40
1206.498, 22334.72
1206.980, 22449.54
1207.463, 22454.06
1207.945, 22410.15
1208.427, 22398.00
1208.909, 22427.33
1209.391, 22458.92
1209.873, 22495.61
1210.355, 22501.83
1210.837, 22428.09
1211.319, 22351.37
1211.802, 22358.18
1212.284, 22412.99
1212.766, 22463.19
1213.248, 22506.49
1213.730, 22535.44
1214.212, 22548.80
1214.694, 22557.42
1215.176, 22561.64
1215.659, 22571.08
1216.141, 22607.15
1216.623, 22651.52
1217.105, 22666.82
1217.587, 22641.56
1218.069, 22627.52
1218.551, 22627.02
1219.033, 22631.29
1219.516, 22636.18
1219.998, 22640.12
1220.480, 22644.88
1220.962, 22646.70
1221.444, 22630.63
1221.926, 22582.00
1222.408, 22594.25
1222.890, 22682.58
1223.372, 22767.55
1223.854, 22765.89
1224.337, 22743.59
1224.819, 22766.73
1225.301, 22819.91
1225.783, 22835.69
1226.265, 22805.53
1226.747, 22785.68
1227.229, 22784.01
1227.711, 22785.00
1228.193, 22753.42
1228.676, 22736.16
1229.158, 22795.14
1229.640, 22907.17
1230.122, 22958.73
1230.604, 22942.03
1231.086, 22938.05
1231.568, 22963.17
1232.050, 22988.74
1232.533, 22985.38
1233.015, 22974.48
1233.497, 22966.55
1233.979, 22966.63
1234.461, 23004.54
1234.943, 23083.22
1235.425, 23117.29
1235.907, 23078.12
1236.390, 23043.71
1236.872, 23096.23
1237.354, 23168.63
1237.836, 23203.50
1238.318, 23208.91
1238.800, 23233.32
1239.282, 23275.76
1239.764, 23288.91
1240.246, 23252.59
1240.729, 23214.73
1241.211, 23204.55
1241.693, 23216.50
1242.175, 23253.37
1242.657, 23308.57
1243.139, 23339.98
1243.621, 23349.77
1244.103, 23359.93
1244.585, 23378.80
1245.068, 23395.14
1245.550, 23400.73
1246.032, 23401.38
1246.514, 23396.13
1246.996, 23389.51
1247.478, 23424.09
1247.960, 23490.25
1248.442, 23522.05
1248.925, 23477.85
1249.407, 23446.05
1249.889, 23491.16
1250.371, 23543.74
1250.853, 23551.22
1251.335, 23529.29
1251.817, 23581.64
1252.299, 23686.23
1252.781, 23746.29
1253.264, 23694.55
1253.746, 23663.17
1254.228, 23730.31
1254.710, 23791.77
1255.192, 23774.65
1255.674, 23703.09
1256.156, 23669.68
1256.638, 23669.42
1257.120, 23688.39
1257.603, 23733.75
1258.085, 23775.13
1258.567, 23809.54
1259.049, 23835.31
1259.531, 23850.85
1260.013, 23856.79
1260.495, 23847.43
1260.977, 23830.06
1261.460, 23824.31
1261.942, 23849.45
1262.424, 23859.73
1262.906, 23836.10
1263.388, 23837.51
1263.870, 23944.16
1264.352, 24082.41
1264.834, 24094.13
1265.317, 24025.63
1265.799, 23987.52
1266.281, 24038.53
1266.763, 24058.84
1267.245, 24038.82
1267.727, 24023.82
1268.209, 24063.38
1268.691, 24115.98
1269.173, 24110.52
1269.656, 24079.06
1270.138, 24102.11
1270.620, 24218.31
1271.102, 24278.57
1271.584, 24274.77
1272.066, 24260.16
1272.548, 24279.65
1273.030, 24301.26
1273.512, 24276.52
1273.995, 24239.88
1274.477, 24258.75
1274.959, 24344.67
1275.441, 24420.90
1275.923, 24485.65
1276.405, 24530.34
1276.887, 24538.96
1277.369, 24537.32
1277.852, 24540.94
1278.334, 24545.37
1278.816, 24544.27
1279.298, 24537.65
1279.780, 24525.93
1280.262, 24509.82
1280.744, 24499.89
1281.226, 24491.89
1281.708, 24505.27
1282.191, 24572.24
1282.673, 24641.20
1283.155, 24648.75
1283.637, 24606.43
1284.119, 24576.04
1284.601, 24559.65
1285.083, 24549.67
1285.565, 24511.88
1286.047, 24532.22
1286.530, 24653.46
1287.012, 24785.80
1287.494, 24817.17
1287.976, 24791.01
1288.458, 24818.66
1288.940, 24890.59
1289.422, 24945.44
1289.904, 24965.03
1290.386, 24957.24
1290.869, 24912.44
1291.351, 24870.90
1291.833, 24880.00
1292.315, 24911.58
1292.797, 24922.61
1293.279, 24920.82
1293.761, 24945.05
1294.243, 25020.96
1294.726, 25038.24
1295.208, 24980.09
1295.690, 24925.47
1296.172, 24945.96
##END=



