##NAMES=Grossular
##RRUFFID=R060442
##IDEAL CHEMISTRY=Ca_3_Al_2_(SiO_4_)_3_
##LOCALITY=Pakistan(?)
##OWNER=RRUFF
##SOURCE=Gemological Institute of America
##DESCRIPTION=Orange crystals
##STATUS=The identification of this mineral has been confirmed by X-ray diffraction and chemical analysis
##URL=rruff.info/R060442
##MEASURED CHEMISTRY=(Ca_2.85_Fe^2+^_0.15_)_Σ=3_(Al_1.85_Fe^3+^_0.15_)_Σ=2_(Si_1.00_O_4_)_3_; trace amounts of Ti, Mg
92.37695, 75.10011
92.85907, 74.08360
93.34119, 74.30793
93.82330, 75.16745
94.30542, 75.83791
94.78754, 76.31030
95.26965, 76.67164
95.75177, 76.50973
96.23389, 75.35798
96.71600, 73.95675
97.19812, 73.04370
97.68024, 72.77414
98.16235, 72.79628
98.64447, 72.68607
99.12659, 72.45970
99.60870, 71.90850
100.0908, 71.05412
100.5729, 70.15923
101.0551, 69.41850
101.5372, 68.90257
102.0193, 68.60163
102.5014, 68.54015
102.9835, 69.20638
103.4656, 69.61575
103.9478, 69.43313
104.4299, 68.86271
104.9120, 68.33251
105.3941, 68.21507
105.8762, 68.58116
106.3583, 68.45809
106.8405, 67.32920
107.3226, 66.20909
107.8047, 65.72705
108.2868, 65.92298
108.7689, 66.34443
109.2510, 66.52187
109.7332, 66.43880
110.2153, 66.29651
110.6974, 66.06876
111.1795, 65.80701
111.6616, 65.56880
112.1437, 65.34075
112.6259, 65.20330
113.1080, 65.31334
113.5901, 65.64860
114.0722, 65.88914
114.5543, 65.73853
115.0364, 65.22121
115.5185, 64.86771
116.0007, 64.91587
116.4828, 65.07687
116.9649, 65.17474
117.4470, 65.18437
117.9291, 65.18603
118.4112, 65.30967
118.8934, 65.64938
119.3755, 65.87489
119.8576, 65.84105
120.3397, 65.75407
120.8218, 65.82423
121.3039, 66.13177
121.7861, 66.53407
122.2682, 66.61817
122.7503, 65.85587
123.2324, 65.32456
123.7145, 65.22411
124.1966, 65.38026
124.6788, 65.53991
125.1609, 65.55524
125.6430, 65.44810
126.1251, 65.41241
126.6072, 65.51576
127.0893, 65.60521
127.5715, 65.67380
128.0536, 65.69744
128.5357, 65.54817
129.0178, 64.99752
129.4999, 64.17393
129.9821, 63.79932
130.4642, 64.38632
130.9463, 65.17599
131.4284, 65.24504
131.9105, 64.39533
132.3926, 63.60943
132.8748, 63.92859
133.3569, 64.85435
133.8390, 65.49247
134.3211, 65.24766
134.8032, 64.38824
135.2853, 63.83928
135.7674, 63.72631
136.2496, 63.80053
136.7317, 64.03473
137.2138, 64.34880
137.6959, 64.55720
138.1780, 64.48538
138.6601, 64.10529
139.1423, 63.74310
139.6244, 63.24904
140.1065, 62.90059
140.5886, 62.89373
141.0707, 63.18298
141.5528, 63.54406
142.0350, 63.72180
142.5171, 63.68697
142.9992, 63.50572
143.4813, 62.91046
143.9634, 62.37436
144.4455, 62.30991
144.9277, 62.78575
145.4098, 63.43276
145.8919, 63.63398
146.3740, 62.98600
146.8561, 62.62292
147.3382, 62.90284
147.8204, 63.39010
148.3025, 63.42547
148.7846, 62.69204
149.2667, 61.73592
149.7488, 61.88185
150.2309, 63.49757
150.7131, 64.71545
151.1952, 64.44868
151.6773, 63.15179
152.1594, 62.30562
152.6415, 62.64475
153.1236, 63.55393
153.6058, 64.01676
154.0879, 63.95034
154.5700, 63.68803
155.0521, 63.40762
155.5342, 63.10134
156.0163, 62.95623
156.4985, 63.19306
156.9806, 63.55702
157.4627, 63.85612
157.9448, 64.04301
158.4269, 64.16647
158.9090, 64.28845
159.3912, 64.39260
159.8733, 64.53852
160.3554, 64.74168
160.8375, 64.98470
161.3196, 65.26244
161.8017, 65.57376
162.2839, 65.90627
162.7660, 66.22649
163.2481, 66.59907
163.7302, 66.86048
164.2123, 66.96715
164.6944, 66.96430
165.1766, 66.87889
165.6587, 66.71664
166.1408, 66.51093
166.6229, 66.48536
167.1050, 66.79471
167.5871, 67.11494
168.0693, 67.33808
168.5514, 67.52485
169.0335, 67.79507
169.5156, 68.22253
169.9977, 68.81130
170.4798, 69.51875
170.9620, 70.50764
171.4441, 71.43641
171.9262, 71.99674
172.4083, 72.29080
172.8904, 72.79424
173.3725, 73.87222
173.8547, 75.51979
174.3368, 77.21716
174.8189, 78.83871
175.3010, 80.60432
175.7831, 82.87927
176.2652, 85.70306
176.7474, 88.31613
177.2295, 90.28616
177.7116, 91.59337
178.1937, 92.06083
178.6758, 91.39132
179.1579, 89.95185
179.6401, 88.19936
180.1222, 86.08004
180.6043, 83.81572
181.0864, 81.39319
181.5685, 78.94050
182.0506, 76.70379
182.5328, 74.77620
183.0149, 73.14855
183.4970, 71.79830
183.9791, 70.82870
184.4612, 70.01808
184.9433, 69.28904
185.4255, 68.62216
185.9076, 67.96780
186.3897, 67.24800
186.8718, 66.49287
187.3539, 66.05454
187.8360, 66.26736
188.3182, 66.46920
188.8003, 66.51394
189.2824, 66.40012
189.7645, 66.13362
190.2466, 65.66843
190.7287, 64.97972
191.2109, 64.66998
191.6930, 65.28806
192.1751, 65.75404
192.6572, 65.57446
193.1393, 64.91096
193.6214, 64.25359
194.1036, 64.04440
194.5857, 64.34932
195.0678, 64.57555
195.5499, 64.78275
196.0320, 64.88262
196.5141, 64.79872
196.9963, 64.55362
197.4784, 64.23197
197.9605, 63.88559
198.4426, 63.49725
198.9247, 63.33514
199.4068, 63.57325
199.8890, 63.88125
200.3711, 64.04465
200.8532, 64.04752
201.3353, 64.01290
201.8174, 64.10352
202.2995, 64.31763
202.7817, 64.20795
203.2638, 63.41354
203.7459, 62.48564
204.2280, 61.92447
204.7101, 61.78643
205.1922, 61.88301
205.6744, 62.13629
206.1565, 62.51278
206.6386, 62.84847
207.1207, 63.06852
207.6028, 63.24717
208.0849, 63.49163
208.5671, 63.82382
209.0492, 64.17203
209.5313, 64.53202
210.0134, 64.87233
210.4955, 65.09904
210.9776, 65.10875
211.4598, 64.99021
211.9419, 64.92866
212.4240, 64.91513
212.9061, 64.99055
213.3882, 65.15198
213.8703, 65.40620
214.3525, 65.78400
214.8346, 66.33858
215.3167, 67.02847
215.7988, 67.73035
216.2809, 68.61641
216.7630, 69.21838
217.2451, 69.10497
217.7273, 68.63631
218.2094, 68.45623
218.6915, 69.04763
219.1736, 70.25277
219.6557, 71.11038
220.1378, 71.36783
220.6200, 71.54935
221.1021, 71.63757
221.5842, 71.78282
222.0663, 72.24693
222.5484, 73.26669
223.0305, 74.75723
223.5127, 75.89570
223.9948, 76.24275
224.4769, 76.66666
224.9590, 77.22616
225.4411, 78.00236
225.9232, 79.13676
226.4054, 80.77398
226.8875, 82.84158
227.3696, 84.60002
227.8517, 85.87756
228.3338, 86.99913
228.8159, 87.78828
229.2981, 88.48154
229.7802, 89.48589
230.2623, 91.09805
230.7444, 93.25053
231.2265, 95.13264
231.7086, 96.24458
232.1908, 97.64799
232.6729, 99.85484
233.1550, 102.5475
233.6371, 105.0631
234.1192, 106.9604
234.6013, 108.3704
235.0835, 110.2903
235.5656, 113.1228
236.0477, 115.9293
236.5298, 118.7069
237.0119, 121.2546
237.4940, 123.1655
237.9762, 124.1617
238.4583, 124.3819
238.9404, 124.4827
239.4225, 124.2900
239.9046, 124.1904
240.3867, 124.0552
240.8689, 124.0856
241.3510, 124.7596
241.8331, 126.2931
242.3152, 128.6981
242.7973, 131.9476
243.2794, 136.1835
243.7616, 140.8338
244.2437, 146.3769
244.7258, 152.2532
245.2079, 156.9876
245.6900, 160.3982
246.1721, 161.6262
246.6543, 159.2620
247.1364, 152.8662
247.6185, 144.7728
248.1006, 135.2449
248.5827, 124.7756
249.0648, 114.9031
249.5470, 105.8533
250.0291, 98.02281
250.5112, 91.78513
250.9933, 87.16411
251.4754, 83.48556
251.9576, 80.45980
252.4397, 78.07742
252.9218, 76.24950
253.4039, 75.13030
253.8860, 74.39840
254.3681, 73.61632
254.8503, 72.77897
255.3324, 72.17375
255.8145, 72.08454
256.2966, 72.41979
256.7787, 72.71802
257.2608, 72.89584
257.7430, 73.02238
258.2251, 73.11564
258.7072, 73.19188
259.1893, 73.35925
259.6714, 73.70702
260.1535, 74.21236
260.6357, 74.76875
261.1178, 75.44051
261.5999, 76.05727
262.0820, 76.49705
262.5641, 76.80074
263.0462, 77.09484
263.5284, 77.42910
264.0105, 77.81003
264.4926, 78.27816
264.9747, 78.79075
265.4568, 79.46986
265.9389, 80.36268
266.4211, 81.43768
266.9032, 82.63171
267.3853, 83.94149
267.8674, 85.33637
268.3495, 86.64516
268.8316, 87.54787
269.3138, 88.90015
269.7959, 91.25362
270.2780, 94.13758
270.7601, 96.79121
271.2422, 98.67984
271.7243, 100.1972
272.2065, 102.6831
272.6886, 106.6493
273.1707, 110.7594
273.6528, 114.7600
274.1349, 118.6423
274.6170, 122.4421
275.0992, 126.2415
275.5813, 129.7786
276.0634, 132.4817
276.5455, 134.7523
277.0276, 135.2471
277.5097, 133.8151
277.9919, 130.8477
278.4740, 126.4043
278.9561, 120.5038
279.4382, 113.8799
279.9203, 107.7738
280.4024, 102.1807
280.8846, 97.25106
281.3667, 92.98360
281.8488, 89.26143
282.3309, 86.12344
282.8130, 83.53989
283.2951, 81.30026
283.7773, 79.07198
284.2594, 76.70515
284.7415, 74.75410
285.2236, 73.33764
285.7057, 72.18974
286.1878, 71.17789
286.6700, 70.27969
287.1521, 69.53127
287.6342, 69.01263
288.1163, 68.83192
288.5984, 68.46419
289.0805, 67.90336
289.5627, 67.18347
290.0448, 66.13467
290.5269, 64.88700
291.0090, 63.84420
291.4911, 63.44735
291.9732, 63.78719
292.4554, 63.61666
292.9375, 62.18369
293.4196, 60.99518
293.9017, 60.68886
294.3838, 61.02364
294.8659, 61.41880
295.3481, 61.46763
295.8302, 61.19425
296.3123, 60.92041
296.7944, 60.49628
297.2765, 60.23779
297.7586, 60.36234
298.2408, 60.66345
298.7229, 60.83874
299.2050, 60.71939
299.6871, 60.36458
300.1692, 59.99590
300.6513, 59.46412
301.1335, 59.11550
301.6156, 58.98285
302.0977, 59.04611
302.5798, 59.32664
303.0619, 59.82697
303.5440, 60.44347
304.0262, 60.97148
304.5083, 61.42106
304.9904, 61.73944
305.4725, 61.82517
305.9546, 61.85262
306.4367, 62.02666
306.9189, 62.36678
307.4010, 62.64721
307.8831, 62.49897
308.3652, 61.56304
308.8473, 61.15991
309.3294, 61.47751
309.8116, 62.07318
310.2937, 62.80046
310.7758, 63.57643
311.2579, 64.27494
311.7400, 64.76421
312.2221, 65.02886
312.7043, 65.20483
313.1864, 65.31915
313.6685, 65.33591
314.1506, 65.12135
314.6327, 64.78719
315.1148, 64.58472
315.5970, 64.70399
316.0791, 65.12511
316.5612, 65.57759
317.0433, 66.16143
317.5254, 66.66904
318.0075, 66.98873
318.4897, 67.21708
318.9718, 67.53010
319.4539, 68.02523
319.9360, 68.59910
320.4181, 68.91136
320.9002, 68.31004
321.3824, 68.28704
321.8645, 69.22946
322.3466, 70.61954
322.8287, 72.02770
323.3108, 73.28345
323.7929, 74.39576
324.2751, 75.32743
324.7572, 75.74716
325.2393, 76.66355
325.7214, 78.56450
326.2035, 80.53805
326.6856, 82.02615
327.1678, 82.93443
327.6499, 83.47353
328.1320, 83.89330
328.6141, 84.26970
329.0962, 84.10638
329.5783, 83.25303
330.0605, 82.08831
330.5426, 80.52843
331.0247, 78.76303
331.5068, 77.22777
331.9889, 76.29659
332.4710, 75.91101
332.9532, 75.11865
333.4353, 73.17686
333.9174, 71.61487
334.3995, 70.80886
334.8816, 70.54817
335.3637, 70.57161
335.8459, 70.75594
336.3280, 71.03472
336.8101, 71.19332
337.2922, 71.02354
337.7743, 71.05439
338.2564, 71.37431
338.7386, 71.86560
339.2206, 72.42655
339.7028, 73.02995
340.1849, 73.70557
340.6670, 74.52676
341.1491, 75.60703
341.6312, 76.54060
342.1133, 77.21523
342.5955, 77.85221
343.0776, 78.39654
343.5597, 78.96564
344.0418, 79.90835
344.5239, 81.64832
345.0060, 84.25081
345.4882, 86.49875
345.9703, 88.33513
346.4524, 89.83012
346.9345, 91.03075
347.4166, 91.89031
347.8987, 92.21226
348.3809, 91.76416
348.8630, 90.87575
349.3451, 90.95257
349.8272, 92.71266
350.3093, 94.37684
350.7914, 95.32921
351.2736, 96.15688
351.7557, 97.42302
352.2378, 99.32736
352.7199, 101.7068
353.2020, 104.3229
353.6841, 107.2342
354.1663, 110.2066
354.6484, 113.0833
355.1305, 116.1138
355.6126, 119.4439
356.0947, 123.0814
356.5768, 126.9331
357.0590, 130.9846
357.5411, 135.2242
358.0232, 139.3560
358.5053, 143.0788
358.9874, 147.0383
359.4695, 151.4216
359.9517, 156.2180
360.4338, 161.3412
360.9159, 166.6832
361.3980, 172.3532
361.8801, 178.8577
362.3622, 186.4783
362.8444, 194.2657
363.3265, 201.5552
363.8086, 208.9695
364.2907, 217.2773
364.7728, 226.8238
365.2549, 236.8803
365.7371, 246.5942
366.2192, 255.9900
366.7013, 265.1732
367.1834, 274.1857
367.6655, 282.9544
368.1476, 291.1093
368.6298, 298.7571
369.1119, 306.9054
369.5940, 316.5412
370.0761, 327.3673
370.5582, 337.9990
371.0403, 348.6336
371.5225, 358.4562
372.0046, 367.7372
372.4867, 375.9213
372.9688, 381.6113
373.4509, 385.0722
373.9330, 385.2323
374.4152, 380.1286
374.8973, 369.5403
375.3794, 355.6417
375.8615, 338.4800
376.3436, 318.9555
376.8257, 298.1728
377.3079, 275.5094
377.7900, 253.2899
378.2721, 232.5942
378.7542, 213.5760
379.2363, 197.0551
379.7184, 183.4921
380.2006, 172.0637
380.6827, 161.8670
381.1648, 152.8649
381.6469, 144.5424
382.1290, 136.5361
382.6111, 129.1556
383.0933, 122.9776
383.5754, 118.0691
384.0575, 113.8235
384.5396, 109.8238
385.0217, 106.0971
385.5038, 102.5020
385.9860, 98.80680
386.4681, 95.46934
386.9502, 92.95632
387.4323, 91.08781
387.9144, 89.17540
388.3965, 86.86036
388.8787, 84.37221
389.3608, 82.35220
389.8429, 80.93980
390.3250, 79.56912
390.8071, 78.02092
391.2892, 76.49784
391.7714, 75.22317
392.2535, 74.25191
392.7356, 73.56033
393.2177, 73.18343
393.6998, 73.24033
394.1819, 72.99039
394.6641, 72.07259
395.1462, 71.19793
395.6283, 70.83718
396.1104, 70.88053
396.5925, 70.92608
397.0746, 70.70730
397.5568, 70.28181
398.0389, 69.96349
398.5210, 69.85886
399.0031, 69.73936
399.4852, 69.69677
399.9673, 69.57451
400.4495, 69.05174
400.9316, 68.07620
401.4137, 67.12240
401.8958, 66.96487
402.3779, 67.96809
402.8600, 68.79385
403.3422, 69.69105
403.8243, 70.22585
404.3064, 69.92361
404.7885, 69.01798
405.2706, 68.19476
405.7527, 67.99212
406.2349, 68.33359
406.7170, 68.63723
407.1991, 68.95177
407.6812, 69.14355
408.1633, 69.02876
408.6454, 68.85317
409.1276, 68.86768
409.6097, 69.16166
410.0918, 69.69809
410.5739, 70.50054
411.0560, 71.64213
411.5381, 72.64816
412.0203, 73.56384
412.5024, 74.20223
412.9845, 74.37901
413.4666, 74.14341
413.9487, 73.75089
414.4308, 73.46305
414.9130, 73.17049
415.3951, 72.45763
415.8772, 71.29408
416.3593, 69.77703
416.8414, 67.71729
417.3235, 65.40667
417.8057, 63.16740
418.2878, 60.93786
418.7699, 59.08120
419.2520, 58.15791
419.7341, 58.06306
420.2162, 57.78325
420.6984, 57.00386
421.1805, 55.92582
421.6626, 54.66402
422.1447, 53.18916
422.6268, 52.14599
423.1089, 52.10034
423.5911, 52.47202
424.0732, 52.45481
424.5553, 51.96091
425.0374, 51.34393
425.5195, 50.80236
426.0016, 50.36896
426.4838, 50.15139
426.9659, 50.40785
427.4480, 50.60149
427.9301, 50.46399
428.4122, 50.08867
428.8943, 49.61540
429.3765, 49.07383
429.8586, 48.61866
430.3407, 48.54725
430.8228, 49.15481
431.3049, 49.50849
431.7870, 49.46443
432.2692, 49.26698
432.7513, 48.99302
433.2334, 48.71102
433.7155, 48.59895
434.1976, 48.84232
434.6797, 49.39668
435.1619, 49.60759
435.6440, 48.98831
436.1261, 48.58098
436.6082, 48.68616
437.0903, 49.03636
437.5724, 49.35330
438.0546, 49.53008
438.5367, 49.57415
439.0188, 49.45369
439.5009, 49.06276
439.9830, 48.85089
440.4651, 49.04377
440.9473, 49.22530
441.4294, 49.19597
441.9115, 48.99052
442.3936, 48.74070
442.8757, 48.50568
443.3578, 48.30908
443.8400, 48.26382
444.3221, 48.45022
444.8042, 48.58704
445.2863, 48.36429
445.7684, 48.15607
446.2505, 48.43191
446.7327, 49.32381
447.2148, 50.15031
447.6969, 50.18137
448.1790, 49.57177
448.6611, 49.20229
449.1432, 49.27946
449.6254, 49.47329
450.1075, 49.52657
450.5896, 49.46882
451.0717, 49.37252
451.5538, 49.09122
452.0359, 48.89863
452.5181, 49.15150
453.0002, 49.78749
453.4823, 50.38576
453.9644, 50.78742
454.4465, 50.99946
454.9286, 50.98148
455.4108, 50.62960
455.8929, 50.40345
456.3750, 50.52869
456.8571, 50.76603
457.3392, 50.83377
457.8214, 50.70268
458.3035, 50.55621
458.7856, 50.56196
459.2677, 50.72237
459.7498, 50.82384
460.2319, 50.85771
460.7141, 50.85376
461.1962, 50.77348
461.6783, 50.67524
462.1604, 50.66980
462.6425, 50.79391
463.1246, 50.93028
463.6068, 50.85115
464.0889, 50.40831
464.5710, 50.14695
465.0531, 50.23664
465.5352, 50.33899
466.0173, 50.22210
466.4995, 49.97723
466.9816, 49.87282
467.4637, 50.10674
467.9458, 50.57879
468.4279, 50.96440
468.9100, 51.21840
469.3922, 51.50731
469.8743, 51.92330
470.3564, 52.37008
470.8385, 52.77849
471.3206, 53.13735
471.8027, 53.45450
472.2849, 53.58779
472.7670, 53.66224
473.2491, 54.26980
473.7312, 55.67879
474.2133, 56.99335
474.6954, 57.39262
475.1776, 57.21982
475.6597, 57.26031
476.1418, 57.89628
476.6239, 58.45518
477.1060, 58.44771
477.5881, 57.98368
478.0703, 57.38424
478.5524, 56.76162
479.0345, 56.02430
479.5166, 54.96761
479.9987, 53.43934
480.4808, 52.32502
480.9630, 51.93472
481.4451, 51.75695
481.9272, 51.49895
482.4093, 51.15065
482.8914, 50.78515
483.3735, 50.44202
483.8557, 50.12057
484.3378, 49.81404
484.8199, 49.47742
485.3020, 49.22746
485.7841, 49.04381
486.2662, 48.95903
486.7484, 49.01751
487.2305, 49.21038
487.7126, 49.47532
488.1947, 49.76995
488.6768, 50.09139
489.1589, 50.39614
489.6411, 50.69305
490.1232, 50.95757
490.6053, 51.13665
491.0874, 51.30531
491.5695, 51.53953
492.0516, 51.85836
492.5338, 52.26307
493.0159, 52.91474
493.4980, 53.74384
493.9801, 54.01765
494.4622, 53.37276
494.9443, 52.64812
495.4265, 52.60522
495.9086, 53.03904
496.3907, 53.41144
496.8728, 53.49070
497.3549, 53.55293
497.8370, 53.84676
498.3192, 54.32249
498.8013, 54.78553
499.2834, 55.14710
499.7655, 55.50243
500.2476, 56.00438
500.7297, 56.66140
501.2119, 57.44832
501.6940, 58.51375
502.1761, 59.58570
502.6582, 60.39469
503.1403, 61.02552
503.6224, 61.78001
504.1045, 62.84072
504.5866, 64.18290
505.0688, 65.75437
505.5509, 68.05020
506.0330, 69.77864
506.5151, 70.83647
506.9972, 71.38927
507.4793, 71.49679
507.9615, 71.20722
508.4436, 70.63177
508.9257, 69.92860
509.4078, 69.01852
509.8899, 67.32929
510.3720, 64.37358
510.8542, 61.69408
511.3363, 60.04804
511.8184, 58.86092
512.3005, 57.55891
512.7827, 56.01375
513.2648, 54.62715
513.7469, 53.72871
514.2290, 53.22097
514.7111, 52.87022
515.1932, 52.69655
515.6754, 52.43506
516.1575, 51.79660
516.6396, 50.88764
517.1217, 50.22074
517.6038, 49.77829
518.0859, 49.62326
518.5681, 50.15500
519.0502, 50.89976
519.5323, 50.91923
520.0144, 49.96185
520.4965, 48.76246
520.9786, 48.21102
521.4608, 48.40818
521.9429, 48.66402
522.4250, 49.03163
522.9071, 49.39357
523.3892, 49.72512
523.8713, 50.01797
524.3535, 50.26570
524.8356, 50.46418
525.3177, 50.61476
525.7998, 50.68303
526.2819, 50.62331
526.7640, 50.71175
527.2462, 51.08089
527.7283, 51.48405
528.2104, 51.79879
528.6925, 52.05494
529.1746, 52.31927
529.6567, 52.58149
530.1389, 52.92616
530.6210, 53.47718
531.1031, 54.22801
531.5852, 55.10228
532.0673, 56.18800
532.5494, 57.21804
533.0316, 57.71870
533.5137, 57.72685
533.9958, 58.05208
534.4779, 59.04128
534.9600, 60.25193
535.4421, 61.37729
535.9243, 62.42821
536.4064, 63.49146
536.8885, 64.58335
537.3706, 65.80336
537.8527, 67.34371
538.3348, 69.28692
538.8170, 71.45749
539.2991, 73.81469
539.7812, 76.40449
540.2633, 79.24218
540.7454, 82.34966
541.2275, 85.80025
541.7097, 89.64988
542.1918, 93.83395
542.6739, 98.16386
543.1560, 102.6115
543.6381, 107.3746
544.1202, 113.0913
544.6024, 118.6209
545.0845, 123.6268
545.5666, 127.9223
546.0487, 130.7292
546.5308, 131.5805
547.0129, 130.7544
547.4951, 128.7192
547.9772, 125.4679
548.4593, 120.5496
548.9414, 113.3523
549.4235, 104.9183
549.9056, 96.97389
550.3878, 89.43961
550.8699, 82.62988
551.3520, 76.64690
551.8341, 71.44142
552.3162, 67.01252
552.7983, 63.33040
553.2805, 60.39172
553.7626, 58.22088
554.2447, 56.62044
554.7268, 54.99746
555.2089, 53.17196
555.6910, 51.66443
556.1732, 50.52738
556.6553, 49.62719
557.1374, 49.00783
557.6195, 48.55736
558.1016, 47.97515
558.5837, 46.97881
559.0659, 45.85917
559.5480, 45.38958
560.0301, 45.69748
560.5122, 45.89701
560.9943, 45.61936
561.4764, 45.25798
561.9586, 45.26731
562.4407, 45.61579
562.9228, 45.80230
563.4049, 45.50297
563.8870, 45.04841
564.3691, 44.75838
564.8513, 44.63081
565.3334, 44.61621
565.8155, 44.72010
566.2976, 44.84303
566.7797, 44.78958
567.2618, 44.46212
567.7440, 44.17322
568.2261, 43.90907
568.7082, 43.69765
569.1903, 43.52672
569.6724, 43.42368
570.1545, 43.47550
570.6367, 43.74027
571.1188, 44.07589
571.6009, 44.15680
572.0830, 43.90501
572.5651, 43.69633
573.0472, 43.56929
573.5294, 43.49840
574.0115, 43.46251
574.4936, 43.46933
574.9757, 43.56207
575.4578, 43.87767
575.9399, 44.12373
576.4221, 43.84108
576.9042, 43.13704
577.3863, 42.62590
577.8684, 42.49707
578.3505, 42.57800
578.8326, 42.75371
579.3148, 43.04057
579.7969, 43.01030
580.2790, 42.29916
580.7611, 41.63605
581.2432, 41.40200
581.7253, 41.44552
582.2075, 41.50710
582.6896, 41.49353
583.1717, 41.44983
583.6538, 41.44899
584.1359, 41.51091
584.6180, 41.46809
585.1002, 41.14232
585.5823, 40.92602
586.0643, 41.04203
586.5464, 41.29474
587.0286, 41.40974
587.5107, 41.30102
587.9928, 41.15676
588.4749, 41.18016
588.9570, 41.32153
589.4391, 41.40125
589.9213, 41.40959
590.4034, 41.31349
590.8855, 41.09668
591.3676, 40.74731
591.8497, 40.24964
592.3318, 39.40471
592.8140, 38.74232
593.2961, 38.59460
593.7782, 38.62260
594.2603, 38.34896
594.7424, 37.79033
595.2245, 37.44281
595.7067, 37.75672
596.1888, 38.57276
596.6709, 38.97599
597.1530, 38.82395
597.6351, 38.48765
598.1172, 37.73162
598.5994, 37.05440
599.0815, 36.91448
599.5636, 37.24616
600.0457, 37.55108
600.5278, 37.40737
601.0099, 37.10242
601.4921, 37.25142
601.9742, 37.86109
602.4563, 38.40903
602.9384, 38.71157
603.4205, 38.87700
603.9026, 39.02129
604.3848, 39.14048
604.8669, 39.31776
605.3490, 39.69541
605.8311, 40.01339
606.3132, 39.99390
606.7953, 39.80026
607.2775, 39.83905
607.7596, 40.26396
608.2417, 40.79593
608.7238, 40.98675
609.2059, 40.76222
609.6880, 40.56000
610.1702, 40.17113
610.6523, 40.06000
611.1344, 40.70171
611.6165, 41.58419
612.0986, 41.93784
612.5807, 41.51375
613.0629, 40.94715
613.5450, 40.75330
614.0271, 40.88780
614.5092, 41.29977
614.9913, 42.04044
615.4734, 42.62793
615.9556, 42.68435
616.4377, 42.37650
616.9198, 42.28523
617.4019, 42.39259
617.8840, 42.71392
618.3661, 43.47367
618.8483, 44.29243
619.3304, 44.76433
619.8125, 44.94181
620.2946, 45.19355
620.7767, 45.77522
621.2589, 46.54545
621.7410, 47.03971
622.2231, 47.08619
622.7052, 47.36753
623.1873, 48.10940
623.6694, 48.99550
624.1516, 50.00351
624.6337, 51.01457
625.1158, 51.69497
625.5979, 51.75043
626.0800, 51.65888
626.5621, 51.95402
627.0443, 52.51136
627.5264, 52.95380
628.0085, 53.21559
628.4906, 53.14124
628.9727, 52.51602
629.4548, 51.33961
629.9370, 50.23446
630.4191, 49.30750
630.9012, 48.31118
631.3833, 47.07065
631.8654, 45.79601
632.3475, 44.71119
632.8297, 43.83897
633.3118, 43.04137
633.7939, 42.21436
634.2760, 41.36334
634.7581, 40.49232
635.2402, 39.54124
635.7224, 38.81654
636.2045, 38.55873
636.6866, 38.44949
637.1687, 38.15711
637.6508, 37.68935
638.1329, 37.21489
638.6151, 36.76358
639.0972, 36.34442
639.5793, 35.96287
640.0614, 35.62151
640.5435, 35.29038
641.0256, 34.95954
641.5078, 34.76304
641.9899, 34.94057
642.4720, 35.58794
642.9541, 35.81993
643.4362, 35.28474
643.9183, 34.72482
644.4005, 34.14658
644.8826, 33.71059
645.3647, 33.68340
645.8468, 34.08271
646.3289, 34.45453
646.8110, 34.38499
647.2932, 34.01974
647.7753, 33.68343
648.2574, 33.38257
648.7395, 33.19065
649.2216, 33.17243
649.7037, 33.23992
650.1859, 33.22132
650.6680, 33.07122
651.1501, 33.04374
651.6322, 33.38229
652.1143, 33.62967
652.5964, 33.40890
653.0786, 32.92892
653.5607, 32.58254
654.0428, 32.51910
654.5249, 32.61848
655.0070, 32.76323
655.4891, 32.95952
655.9713, 33.01599
656.4534, 32.86480
656.9355, 32.70552
657.4176, 32.65572
657.8997, 32.63910
658.3818, 32.56157
658.8640, 32.40673
659.3461, 32.24601
659.8282, 32.04223
660.3103, 31.89472
660.7924, 32.00990
661.2745, 32.31132
661.7567, 32.41718
662.2388, 32.11965
662.7209, 31.68203
663.2030, 31.63309
663.6851, 32.17013
664.1672, 32.44843
664.6494, 32.22522
665.1315, 32.00341
665.6136, 31.94836
666.0957, 31.99679
666.5778, 32.07370
667.0599, 32.16217
667.5421, 32.18765
668.0242, 31.99747
668.5063, 31.71292
668.9884, 31.69589
669.4705, 31.97358
669.9526, 32.12917
670.4348, 31.89157
670.9169, 31.46258
671.3990, 31.29080
671.8811, 31.51551
672.3632, 31.66015
672.8453, 31.62777
673.3275, 31.60155
673.8096, 31.81335
674.2917, 32.06666
674.7738, 31.86529
675.2559, 31.03144
675.7380, 30.31077
676.2202, 30.96684
676.7023, 32.79017
677.1844, 33.52562
677.6665, 32.80233
678.1486, 31.97501
678.6307, 31.65532
679.1129, 31.70184
679.5950, 31.86171
680.0771, 32.18709
680.5592, 32.39827
681.0413, 32.38470
681.5234, 32.26887
682.0056, 32.06986
682.4877, 31.85283
682.9698, 31.78771
683.4519, 31.94310
683.9340, 32.10976
684.4161, 31.92623
684.8983, 31.34678
685.3804, 30.97703
685.8625, 30.91839
686.3446, 30.89495
686.8267, 30.79307
687.3088, 30.66093
687.7910, 30.52790
688.2731, 30.38960
688.7552, 30.34967
689.2373, 30.52044
689.7194, 30.76365
690.2015, 30.96422
690.6837, 31.10858
691.1658, 31.18194
691.6479, 31.17797
692.1300, 31.10089
692.6121, 30.92976
693.0942, 30.62674
693.5764, 30.51066
694.0585, 30.68303
694.5406, 30.91416
695.0227, 31.28647
695.5048, 31.59652
695.9869, 31.56424
696.4691, 31.16567
696.9512, 30.80041
697.4333, 30.73124
697.9154, 30.81057
698.3975, 30.87930
698.8796, 30.92335
699.3618, 30.88295
699.8439, 30.72738
700.3260, 30.55734
700.8081, 30.51363
701.2902, 30.61377
701.7723, 30.67386
702.2545, 30.69527
702.7366, 30.67242
703.2187, 30.48100
703.7008, 30.32333
704.1829, 30.46595
704.6650, 30.88912
705.1472, 31.24751
705.6293, 31.27424
706.1114, 31.12694
706.5935, 31.03538
707.0756, 30.99400
707.5577, 30.96597
708.0399, 30.94061
708.5220, 30.92605
709.0041, 30.93331
709.4862, 30.93643
709.9683, 30.98544
710.4504, 30.97697
710.9326, 30.99615
711.4147, 31.03037
711.8968, 31.11243
712.3789, 31.37164
712.8610, 31.72877
713.3431, 31.86445
713.8253, 31.51989
714.3074, 30.96150
714.7895, 30.52697
715.2716, 30.23117
715.7537, 30.21161
716.2358, 30.53898
716.7180, 30.94954
717.2001, 31.25867
717.6822, 31.46152
718.1643, 31.52095
718.6464, 31.28208
719.1285, 31.12880
719.6107, 31.14348
720.0928, 31.21677
720.5749, 31.33481
721.0570, 31.43958
721.5391, 31.40286
722.0212, 31.14536
722.5034, 30.80984
722.9855, 30.51750
723.4676, 30.29606
723.9497, 30.39707
724.4318, 30.91223
724.9139, 31.32035
725.3961, 31.22835
725.8782, 30.85339
726.3603, 30.83522
726.8424, 31.50302
727.3245, 31.75854
727.8066, 31.00870
728.2888, 30.36452
728.7709, 30.69342
729.2530, 31.50673
729.7351, 31.85335
730.2172, 31.41430
730.6993, 30.77875
731.1815, 30.54812
731.6636, 30.64313
732.1457, 30.75989
732.6278, 30.88335
733.1099, 31.17408
733.5920, 31.83706
734.0742, 32.47491
734.5563, 32.37432
735.0384, 31.27741
735.5205, 30.77360
736.0026, 31.42137
736.4847, 31.99892
736.9669, 32.02080
737.4490, 31.76611
737.9311, 31.51399
738.4132, 31.34918
738.8953, 31.31294
739.3774, 31.50106
739.8596, 31.78370
740.3417, 31.87961
740.8238, 31.79901
741.3059, 31.68098
741.7880, 31.53475
742.2701, 31.46626
742.7523, 31.62911
743.2344, 31.99499
743.7165, 32.11722
744.1986, 31.60327
744.6807, 31.40658
745.1628, 32.09985
745.6450, 32.77585
746.1271, 32.58813
746.6092, 31.76219
747.0913, 31.09184
747.5734, 30.95068
748.0555, 31.15925
748.5377, 31.68863
749.0198, 32.39978
749.5019, 32.65576
749.9840, 32.35735
750.4661, 32.21705
750.9482, 32.74382
751.4304, 33.60008
751.9125, 33.94624
752.3946, 33.50619
752.8767, 33.19487
753.3588, 32.98242
753.8409, 32.91848
754.3231, 33.18375
754.8052, 33.53931
755.2873, 33.56707
755.7694, 33.18751
756.2515, 32.96802
756.7336, 33.67853
757.2158, 34.64975
757.6979, 34.52427
758.1800, 33.50315
758.6621, 32.93633
759.1442, 33.31545
759.6263, 34.04301
760.1085, 34.43886
760.5906, 34.50098
761.0727, 34.51496
761.5548, 34.32067
762.0369, 34.32378
762.5190, 34.66916
763.0012, 35.14962
763.4833, 35.78282
763.9654, 36.43664
764.4475, 36.66408
764.9296, 35.99642
765.4117, 35.36734
765.8939, 35.76161
766.3760, 36.65873
766.8581, 37.07524
767.3402, 36.91048
767.8223, 36.58190
768.3044, 36.33044
768.7866, 36.19351
769.2687, 36.30188
769.7508, 36.75548
770.2329, 37.08705
770.7150, 37.24156
771.1971, 37.33280
771.6793, 37.33892
772.1614, 37.34823
772.6435, 37.50314
773.1256, 37.83538
773.6077, 38.14324
774.0898, 38.40879
774.5720, 38.56512
775.0541, 38.47757
775.5362, 38.25751
776.0183, 38.13605
776.5004, 38.17496
776.9825, 38.25850
777.4647, 38.30081
777.9468, 38.27279
778.4289, 37.94576
778.9110, 37.20245
779.3931, 36.80085
779.8752, 37.07078
780.3574, 37.50535
780.8395, 37.62780
781.3216, 37.51534
781.8037, 37.56581
782.2858, 38.06037
782.7679, 38.33462
783.2501, 38.05006
783.7322, 37.62948
784.2143, 37.37054
784.6964, 37.28830
785.1785, 37.30740
785.6606, 37.39455
786.1428, 37.56040
786.6249, 37.85675
787.1070, 38.24656
787.5891, 38.61804
788.0712, 38.97007
788.5533, 39.08847
789.0355, 38.78984
789.5176, 38.40540
789.9997, 38.49741
790.4818, 39.20130
790.9639, 39.52842
791.4460, 38.90113
791.9282, 38.64936
792.4103, 39.48748
792.8924, 40.52918
793.3745, 40.83562
793.8566, 40.48372
794.3387, 40.38290
794.8209, 41.09826
795.3030, 42.05645
795.7851, 42.78890
796.2672, 43.32516
796.7493, 43.67915
797.2314, 43.87482
797.7136, 44.03624
798.1957, 44.22688
798.6778, 44.50892
799.1599, 45.04354
799.6420, 45.87273
800.1241, 46.79497
800.6063, 47.87625
801.0884, 48.94392
801.5705, 49.89889
802.0526, 50.79832
802.5347, 51.65754
803.0168, 52.46338
803.4990, 53.45365
803.9811, 54.86338
804.4632, 56.29792
804.9453, 57.36756
805.4274, 58.35742
805.9095, 59.71223
806.3917, 61.49516
806.8738, 63.50282
807.3559, 65.62474
807.8380, 67.76423
808.3201, 69.53233
808.8022, 70.97471
809.2844, 73.03647
809.7665, 75.98681
810.2486, 79.06186
810.7307, 81.69228
811.2128, 84.06630
811.6949, 86.72820
812.1771, 89.88087
812.6592, 92.89063
813.1413, 95.78371
813.6234, 98.49432
814.1055, 100.4956
814.5876, 102.5138
815.0698, 105.6568
815.5519, 110.0751
816.0340, 114.5671
816.5161, 118.1272
816.9982, 121.5503
817.4803, 125.9425
817.9625, 130.9196
818.4446, 135.3499
818.9267, 139.0234
819.4088, 142.6703
819.8909, 146.9026
820.3730, 151.5755
820.8552, 156.1228
821.3373, 160.4942
821.8194, 165.1963
822.3015, 171.0818
822.7836, 176.0127
823.2657, 178.3324
823.7479, 178.9115
824.2300, 179.5056
824.7121, 180.4250
825.1942, 180.3230
825.6763, 178.8258
826.1584, 176.3584
826.6406, 172.7684
827.1227, 168.5429
827.6048, 164.3632
828.0869, 160.3432
828.5690, 156.0046
829.0511, 150.8289
829.5333, 145.3181
830.0154, 140.2709
830.4975, 135.6589
830.9796, 131.3033
831.4617, 127.1627
831.9438, 123.5285
832.4260, 120.6878
832.9081, 118.3814
833.3902, 115.7676
833.8723, 112.6137
834.3544, 109.7431
834.8365, 107.0422
835.3187, 104.8092
835.8008, 103.5044
836.2829, 102.5190
836.7650, 101.0051
837.2471, 98.87525
837.7292, 96.98648
838.2114, 95.55716
838.6935, 94.50685
839.1756, 94.14829
839.6577, 93.94961
840.1398, 92.97210
840.6219, 91.28094
841.1041, 89.92788
841.5862, 89.65674
842.0683, 89.94957
842.5504, 89.90916
843.0325, 89.60065
843.5146, 89.50108
843.9968, 89.68298
844.4789, 89.80073
844.9610, 89.64737
845.4431, 89.36388
845.9252, 89.15798
846.4073, 88.94309
846.8895, 89.26576
847.3716, 91.00084
847.8537, 92.09507
848.3358, 91.52998
848.8179, 90.59769
849.3000, 90.61118
849.7822, 91.39144
850.2643, 91.61195
850.7464, 90.47907
851.2285, 89.30020
851.7106, 88.82089
852.1927, 88.70171
852.6749, 88.58027
853.1570, 88.43960
853.6391, 88.44032
854.1212, 88.65535
854.6033, 88.83374
855.0854, 88.41291
855.5676, 87.64247
856.0497, 87.89935
856.5318, 89.23171
857.0139, 90.31433
857.4960, 90.63280
857.9781, 90.88364
858.4603, 91.83229
858.9424, 93.41226
859.4245, 94.83669
859.9066, 95.65987
860.3887, 97.09660
860.8708, 99.60620
861.3530, 102.3653
861.8351, 104.8521
862.3172, 107.3218
862.7993, 110.2975
863.2814, 113.9487
863.7635, 117.7141
864.2457, 121.0751
864.7278, 124.7564
865.2099, 129.5154
865.6920, 134.9316
866.1741, 140.1472
866.6563, 145.0378
867.1384, 150.0750
867.6205, 155.6501
868.1026, 161.5324
868.5847, 166.9371
869.0668, 172.1102
869.5490, 178.8685
870.0311, 187.5097
870.5132, 196.7103
870.9953, 205.9238
871.4774, 214.9064
871.9595, 223.0495
872.4417, 230.0471
872.9238, 237.9085
873.4059, 246.4478
873.8880, 256.2281
874.3701, 268.3959
874.8522, 281.1048
875.3344, 292.8882
875.8165, 303.8096
876.2986, 314.5435
876.7807, 325.5839
877.2628, 335.8497
877.7449, 345.6141
878.2271, 353.8527
878.7092, 359.5781
879.1913, 362.9431
879.6734, 364.5001
880.1555, 364.4463
880.6376, 362.5535
881.1198, 358.6375
881.6019, 352.7195
882.0840, 344.7383
882.5661, 334.7735
883.0482, 322.8720
883.5303, 309.0877
884.0125, 294.4644
884.4946, 279.7830
884.9767, 265.1480
885.4588, 250.8960
885.9409, 237.0121
886.4230, 223.4247
886.9052, 209.8581
887.3873, 197.1145
887.8694, 185.5753
888.3515, 174.9682
888.8336, 164.6876
889.3157, 154.6778
889.7979, 145.5454
890.2800, 137.4347
890.7621, 129.9789
891.2442, 123.2053
891.7263, 116.9388
892.2084, 111.1290
892.6906, 105.7073
893.1727, 100.6010
893.6548, 95.68838
894.1369, 91.35782
894.6190, 88.16988
895.1011, 85.47956
895.5833, 82.62889
896.0654, 79.63987
896.5475, 76.64762
897.0296, 73.73776
897.5117, 71.09917
897.9938, 68.93859
898.4760, 67.15163
898.9581, 65.51819
899.4402, 64.03271
899.9223, 62.58186
900.4044, 61.13758
900.8865, 59.80096
901.3687, 58.63269
901.8508, 57.61616
902.3329, 56.73064
902.8150, 56.00322
903.2971, 55.25860
903.7792, 54.51748
904.2614, 53.72112
904.7435, 52.71309
905.2256, 51.75735
905.7077, 51.19894
906.1898, 50.94403
906.6719, 50.46729
907.1541, 49.51343
907.6362, 48.64374
908.1183, 47.93850
908.6004, 47.42468
909.0825, 47.32110
909.5646, 47.35375
910.0468, 47.04610
910.5289, 46.28630
911.0110, 45.40613
911.4931, 44.50000
911.9752, 43.70135
912.4573, 43.26953
912.9395, 43.01323
913.4216, 42.41781
913.9037, 41.50596
914.3858, 40.88530
914.8679, 40.94234
915.3500, 41.32100
915.8321, 41.52586
916.3142, 41.53749
916.7963, 41.07821
917.2784, 40.10488
917.7606, 39.44865
918.2427, 39.45774
918.7248, 39.65306
919.2069, 39.54757
919.6890, 39.16430
920.1711, 38.64816
920.6533, 37.84868
921.1354, 37.29253
921.6175, 37.30808
922.0996, 37.19513
922.5817, 36.23002
923.0638, 35.07191
923.5460, 34.87148
924.0281, 35.82363
924.5102, 36.19130
924.9923, 35.15026
925.4744, 34.23133
925.9565, 34.07557
926.4387, 34.20310
926.9208, 34.20078
927.4029, 34.06724
927.8850, 33.97493
928.3671, 34.00548
928.8492, 33.97915
929.3314, 33.76691
929.8135, 33.43757
930.2956, 32.93071
930.7777, 32.40245
931.2598, 32.24382
931.7419, 32.49332
932.2241, 32.73640
932.7062, 32.64982
933.1883, 32.36327
933.6704, 32.06520
934.1525, 31.77174
934.6346, 31.54985
935.1168, 31.40708
935.5989, 31.34746
936.0810, 31.38162
936.5631, 31.43008
937.0452, 31.35937
937.5273, 31.50154
938.0095, 31.26440
938.4916, 31.68551
938.9737, 31.95174
939.4558, 31.95919
939.9379, 31.81327
940.4200, 31.51567
940.9022, 31.15374
941.3843, 30.95179
941.8664, 30.95306
942.3485, 30.98088
942.8306, 31.07625
943.3127, 31.14395
943.7949, 31.11741
944.2770, 31.08529
944.7591, 31.22783
945.2412, 31.45019
945.7233, 31.32823
946.2054, 30.49726
946.6876, 29.91436
947.1697, 30.13648
947.6518, 30.52518
948.1339, 30.62065
948.6160, 30.54897
949.0981, 30.61417
949.5803, 30.83836
950.0624, 30.87963
950.5445, 30.41236
951.0266, 29.85213
951.5087, 29.57459
951.9908, 29.50380
952.4730, 29.55314
952.9551, 29.68287
953.4372, 29.85857
953.9193, 30.05787
954.4014, 30.12866
954.8835, 29.84233
955.3657, 29.32209
955.8478, 28.88080
956.3299, 28.52563
956.8120, 28.35251
957.2941, 28.38184
957.7762, 28.34132
958.2584, 28.03043
958.7405, 27.63745
959.2226, 27.57035
959.7047, 27.85703
960.1868, 28.02567
960.6689, 28.08840
961.1511, 27.96524
961.6332, 27.55773
962.1153, 27.10914
962.5974, 26.80633
963.0795, 26.65294
963.5616, 26.68273
964.0438, 27.11190
964.5259, 27.25817
965.0080, 26.89887
965.4901, 26.54278
965.9722, 26.18485
966.4543, 26.03816
966.9365, 26.48433
967.4186, 27.43952
967.9007, 28.08593
968.3828, 28.25485
968.8649, 28.19583
969.3470, 27.62939
969.8292, 27.18554
970.3113, 27.42822
970.7934, 27.99357
971.2755, 28.27546
971.7576, 28.17956
972.2397, 28.10476
972.7219, 28.26044
973.2040, 28.47185
973.6861, 28.59153
974.1682, 28.73251
974.6503, 29.10501
975.1324, 29.60672
975.6146, 29.91166
976.0967, 29.91103
976.5788, 29.91006
977.0609, 30.27181
977.5430, 30.71500
978.0251, 30.75294
978.5073, 30.58372
978.9894, 30.73680
979.4715, 31.22442
979.9536, 31.58394
980.4357, 31.55600
980.9178, 31.43302
981.4000, 31.70409
981.8821, 32.22241
982.3642, 32.37908
982.8463, 32.21111
983.3284, 32.06546
983.8105, 32.02648
984.2927, 32.11715
984.7748, 32.35836
985.2569, 32.72670
985.7390, 33.20446
986.2211, 33.80111
986.7032, 34.34141
987.1854, 34.87185
987.6675, 35.01032
988.1496, 34.50859
988.6317, 33.96285
989.1138, 33.95056
989.5959, 34.34801
990.0781, 34.58960
990.5602, 34.46349
991.0423, 34.84446
991.5244, 36.14594
992.0065, 37.20407
992.4886, 37.49780
992.9708, 37.43970
993.4529, 37.37910
993.9350, 37.33752
994.4171, 37.58192
994.8992, 38.34271
995.3813, 39.02839
995.8635, 39.68107
996.3456, 40.18539
996.8277, 40.26855
997.3098, 40.30756
997.7919, 40.87933
998.2740, 41.96189
998.7562, 42.74585
999.2383, 42.82521
999.7204, 42.93747
1000.203, 43.09885
1000.685, 43.53155
1001.167, 44.59441
1001.649, 45.93839
1002.131, 46.98293
1002.613, 47.65198
1003.095, 48.33513
1003.577, 49.33308
1004.059, 50.23058
1004.542, 50.70093
1005.024, 51.03834
1005.506, 51.73799
1005.988, 52.49229
1006.470, 52.45126
1006.952, 51.43246
1007.434, 50.52360
1007.916, 50.85458
1008.398, 51.23231
1008.881, 50.40672
1009.363, 48.95516
1009.845, 47.71911
1010.327, 46.68057
1010.809, 45.30955
1011.291, 43.42527
1011.773, 41.59690
1012.255, 40.49694
1012.738, 38.94480
1013.220, 37.67332
1013.702, 36.65594
1014.184, 35.42314
1014.666, 34.64053
1015.148, 33.94878
1015.630, 33.17576
1016.112, 32.36371
1016.594, 31.52452
1017.077, 30.70636
1017.559, 30.04669
1018.041, 29.52617
1018.523, 29.04112
1019.005, 28.57697
1019.487, 28.17262
1019.969, 27.84910
1020.451, 27.59268
1020.934, 27.45816
1021.416, 27.36978
1021.898, 26.69776
1022.380, 25.47283
1022.862, 24.94360
1023.344, 25.39152
1023.826, 25.86532
1024.308, 25.77478
1024.791, 25.33990
1025.273, 24.89642
1025.755, 24.45099
1026.237, 24.33674
1026.719, 24.59597
1027.201, 24.88773
1027.683, 25.18466
1028.165, 25.28822
1028.647, 25.01232
1029.130, 24.56268
1029.612, 24.38963
1030.094, 24.52488
1030.576, 24.49589
1031.058, 24.24048
1031.540, 24.03706
1032.022, 23.96125
1032.504, 23.90842
1032.986, 23.78210
1033.469, 23.65432
1033.951, 23.72183
1034.433, 23.60015
1034.915, 23.45835
1035.397, 23.56936
1035.879, 23.23404
1036.361, 23.33893
1036.843, 23.51172
1037.326, 23.48439
1037.808, 23.34204
1038.290, 23.28443
1038.772, 23.33347
1039.254, 23.37547
1039.736, 23.58875
1040.218, 23.50314
1040.700, 22.59945
1041.182, 21.82597
1041.665, 22.00455
1042.147, 22.75167
1042.629, 23.19561
1043.111, 23.30380
1043.593, 23.26093
1044.075, 22.86126
1044.557, 22.59990
1045.039, 22.75107
1045.521, 22.90201
1046.004, 22.68984
1046.486, 22.29432
1046.968, 22.14966
1047.450, 22.36103
1047.932, 22.37796
1048.414, 21.92389
1048.896, 21.56703
1049.378, 21.43900
1049.861, 21.47459
1050.343, 21.77471
1050.825, 22.15301
1051.307, 22.17843
1051.789, 21.73310
1052.271, 21.57695
1052.753, 22.20983
1053.235, 22.67497
1053.718, 22.54835
1054.200, 22.26152
1054.682, 22.10882
1055.164, 22.04676
1055.646, 21.92316
1056.128, 21.70726
1056.610, 21.62937
1057.092, 21.94964
1057.574, 22.14927
1058.057, 21.95459
1058.539, 21.65915
1059.021, 21.36522
1059.503, 21.18612
1059.985, 21.45088
1060.467, 22.19865
1060.949, 22.39772
1061.431, 21.00133
1061.913, 19.95450
1062.396, 20.27843
1062.878, 20.97583
1063.360, 21.37531
1063.842, 21.54560
1064.324, 21.73276
1064.806, 21.96477
1065.288, 22.01332
1065.770, 21.61724
1066.253, 21.26232
1066.735, 21.14689
1067.217, 21.14959
1067.699, 21.31540
1068.181, 21.46674
1068.663, 21.22057
1069.145, 20.60338
1069.627, 20.31300
1070.109, 20.80431
1070.592, 21.33949
1071.074, 21.70594
1071.556, 21.87142
1072.038, 21.68479
1072.520, 21.35421
1073.002, 21.20599
1073.484, 21.24347
1073.966, 21.15937
1074.448, 20.74679
1074.931, 20.40852
1075.413, 20.25157
1075.895, 20.32668
1076.377, 20.92476
1076.859, 21.62087
1077.341, 21.81477
1077.823, 21.52965
1078.305, 21.23612
1078.788, 21.07860
1079.270, 20.97940
1079.752, 20.92974
1080.234, 20.89697
1080.716, 20.81467
1081.198, 20.76732
1081.680, 20.91529
1082.162, 21.19381
1082.644, 21.34834
1083.127, 21.28358
1083.609, 21.17866
1084.091, 21.03600
1084.573, 20.96734
1085.055, 21.12856
1085.537, 21.33029
1086.019, 21.39371
1086.501, 21.31621
1086.984, 21.11694
1087.466, 20.78158
1087.948, 20.54613
1088.430, 20.70835
1088.912, 20.74819
1089.394, 20.14485
1089.876, 19.51319
1090.358, 19.55317
1090.840, 19.97688
1091.323, 20.05818
1091.805, 19.64926
1092.287, 19.41127
1092.769, 19.79806
1093.251, 20.12676
1093.733, 19.95199
1094.215, 19.76458
1094.697, 20.15851
1095.179, 20.70876
1095.662, 20.54806
1096.144, 19.64111
1096.626, 19.09651
1097.108, 19.58491
1097.590, 19.97232
1098.072, 19.75503
1098.554, 19.46898
1099.036, 19.40968
1099.519, 19.50977
1100.001, 19.71180
1100.483, 19.97406
1100.965, 20.15256
1101.447, 20.24404
1101.929, 20.17983
1102.411, 19.71195
1102.893, 19.36180
1103.375, 19.42086
1103.858, 19.68402
1104.340, 20.02927
1104.822, 20.38151
1105.304, 20.55836
1105.786, 20.52394
1106.268, 20.35522
1106.750, 19.87904
1107.232, 19.51706
1107.714, 19.47083
1108.197, 19.53186
1108.679, 19.55494
1109.161, 19.55505
1109.643, 19.56284
1110.125, 19.56167
1110.607, 19.69971
1111.089, 20.33282
1111.571, 20.61088
1112.054, 20.00746
1112.536, 19.40518
1113.018, 19.34111
1113.500, 19.57074
1113.982, 19.76419
1114.464, 19.91885
1114.946, 19.88595
1115.428, 19.32383
1115.911, 19.15414
1116.393, 19.83345
1116.875, 20.33561
1117.357, 20.06429
1117.839, 19.60153
1118.321, 19.59471
1118.803, 19.95943
1119.285, 20.21107
1119.767, 20.40371
1120.250, 20.33024
1120.732, 19.83024
1121.214, 19.38796
1121.696, 19.12995
1122.178, 18.99437
1122.660, 18.94613
1123.142, 18.97278
1123.624, 19.04674
1124.106, 19.17304
1124.589, 19.29690
1125.071, 19.38763
1125.553, 19.61534
1126.035, 20.10271
1126.517, 20.43525
1126.999, 20.31985
1127.481, 20.02507
1127.963, 20.00551
1128.446, 19.77576
1128.928, 19.53067
1129.410, 19.48737
1129.892, 19.15134
1130.374, 19.14496
1130.856, 19.27641
1131.338, 19.47250
1131.820, 19.73764
1132.302, 20.08941
1132.785, 20.48252
1133.267, 20.81357
1133.749, 21.07125
1134.231, 21.00675
1134.713, 20.62170
1135.195, 20.32741
1135.677, 20.23811
1136.159, 20.22322
1136.641, 20.19717
1137.124, 20.13568
1137.606, 19.89827
1138.088, 19.60462
1138.570, 19.82540
1139.052, 20.42198
1139.534, 20.71667
1140.016, 20.63564
1140.498, 20.50092
1140.981, 20.46597
1141.463, 20.50687
1141.945, 20.62745
1142.427, 20.77178
1142.909, 20.89389
1143.391, 20.94343
1143.873, 20.68401
1144.355, 20.25662
1144.838, 20.16959
1145.320, 20.52277
1145.802, 20.93194
1146.284, 21.19531
1146.766, 21.24575
1147.248, 20.79708
1147.730, 20.28215
1148.212, 20.25296
1148.694, 20.53229
1149.177, 20.85550
1149.659, 21.12376
1150.141, 21.21109
1150.623, 21.05593
1151.105, 20.86285
1151.587, 20.69471
1152.069, 20.60645
1152.551, 20.73075
1153.033, 20.87259
1153.516, 20.83618
1153.998, 20.65783
1154.480, 20.40357
1154.962, 20.09924
1155.444, 19.91479
1155.926, 19.82650
1156.408, 19.98775
1156.890, 20.75906
1157.373, 21.43262
1157.855, 21.60115
1158.337, 21.45800
1158.819, 21.12482
1159.301, 20.69109
1159.783, 20.49973
1160.265, 20.70422
1160.747, 20.81193
1161.229, 20.67327
1161.712, 20.60555
1162.194, 20.74878
1162.676, 20.89972
1163.158, 20.91346
1163.640, 20.85889
1164.122, 20.87659
1164.604, 20.97249
1165.086, 20.89962
1165.568, 20.94982
1166.051, 21.07675
1166.533, 20.89705
1167.015, 21.21228
1167.497, 21.06437
1167.979, 20.79183
1168.461, 20.73122
1168.943, 20.83727
1169.425, 21.01676
1169.908, 21.27731
1170.390, 21.24118
1170.872, 20.89517
1171.354, 20.52554
1171.836, 20.19522
1172.318, 20.05856
1172.800, 20.22959
1173.282, 20.40646
1173.765, 20.07620
1174.247, 20.19059
1174.729, 20.06866
1175.211, 19.91406
1175.693, 19.89814
1176.175, 19.51240
1176.657, 19.46640
1177.139, 19.95930
1177.621, 20.51909
1178.104, 20.85832
1178.586, 20.91179
1179.068, 20.29182
1179.550, 19.58121
1180.032, 19.71552
1180.514, 20.30552
1180.996, 20.66341
1181.478, 20.69514
1181.960, 20.51383
1182.443, 20.15038
1182.925, 19.87311
1183.407, 19.84307
1183.889, 19.94403
1184.371, 20.31805
1184.853, 20.58793
1185.335, 20.20960
1185.817, 19.61432
1186.300, 19.62036
1186.782, 20.21741
1187.264, 20.49127
1187.746, 20.07659
1188.228, 19.70658
1188.710, 19.46490
1189.192, 19.34157
1189.674, 19.36513
1190.156, 19.47935
1190.639, 19.71775
1191.121, 19.97772
1191.603, 20.01022
1192.085, 19.78852
1192.567, 19.70355
1193.049, 19.82436
1193.531, 19.85617
1194.013, 19.67834
1194.495, 19.72432
1194.978, 20.26767
1195.460, 20.80917
1195.942, 20.81218
1196.424, 20.45655
1196.906, 20.26719
1197.388, 20.23572
1197.870, 20.17994
1198.352, 20.10107
1198.835, 20.06277
1199.317, 20.08043
1199.799, 20.19342
1200.281, 20.42428
1200.763, 20.65232
1201.245, 20.76991
1201.727, 20.75158
1202.209, 20.40688
1202.692, 19.96099
1203.174, 19.90432
1203.656, 20.16202
1204.138, 20.52820
1204.620, 20.88121
1205.102, 20.90913
1205.584, 20.37355
1206.066, 19.91599
1206.548, 20.14560
1207.031, 20.47074
1207.513, 20.41727
1207.995, 20.52121
1208.477, 20.24554
1208.959, 20.34261
1209.441, 20.23910
1209.923, 19.89971
1210.405, 19.63813
1210.887, 19.53810
1211.370, 19.50637
1211.852, 19.54136
1212.334, 19.62625
1212.816, 19.92327
1213.298, 20.09358
1213.780, 19.66623
1214.262, 18.99742
1214.744, 19.06684
1215.227, 19.99524
1215.709, 20.29016
1216.191, 19.74131
1216.673, 19.46976
1217.155, 19.69144
1217.637, 19.80978
1218.119, 19.54275
1218.601, 19.23223
1219.083, 19.24202
1219.566, 19.41466
1220.048, 19.35943
1220.530, 19.12853
1221.012, 18.94106
1221.494, 18.80554
1221.976, 18.75427
1222.458, 18.76647
1222.940, 18.66955
1223.422, 18.39510
1223.905, 18.23124
1224.387, 18.48118
1224.869, 18.88239
1225.351, 19.35761
1225.833, 19.64905
1226.315, 19.15686
1226.797, 18.41133
1227.279, 18.45307
1227.762, 19.16861
1228.244, 19.44273
1228.726, 18.81473
1229.208, 18.46883
1229.690, 19.11711
1230.172, 19.67587
1230.654, 19.60499
1231.136, 19.49676
1231.619, 19.86278
1232.101, 20.33826
1232.583, 20.44571
1233.065, 20.21376
1233.547, 19.79727
1234.029, 19.03351
1234.511, 18.64838
1234.993, 18.70194
1235.475, 18.94111
1235.958, 19.36035
1236.440, 19.69701
1236.922, 19.78548
1237.404, 19.79484
1237.886, 19.97380
1238.368, 19.96172
1238.850, 19.92847
1239.332, 19.96915
1239.814, 19.80485
1240.297, 19.71628
1240.779, 19.70654
1241.261, 19.73764
1241.743, 19.56618
1242.225, 19.04483
1242.707, 18.67752
1243.189, 19.10568
1243.671, 19.66672
1244.154, 19.78521
1244.636, 19.69891
1245.118, 19.60305
1245.600, 19.53218
1246.082, 19.51590
1246.564, 19.54208
1247.046, 19.52723
1247.528, 19.41874
1248.010, 19.36865
1248.493, 19.59315
1248.975, 19.59539
1249.457, 18.93570
1249.939, 18.45495
1250.421, 18.73207
1250.903, 19.30462
1251.385, 19.56336
1251.867, 19.56443
1252.349, 19.64821
1252.832, 19.83511
1253.314, 19.77525
1253.796, 19.44686
1254.278, 19.41157
1254.760, 19.78675
1255.242, 20.12869
1255.724, 20.19680
1256.206, 20.10287
1256.689, 19.91757
1257.171, 19.73716
1257.653, 19.77385
1258.135, 19.89251
1258.617, 19.89358
1259.099, 19.77294
1259.581, 19.47719
1260.063, 19.08585
1260.546, 18.89809
1261.028, 19.03316
1261.510, 19.19626
1261.992, 19.31735
1262.474, 19.35271
1262.956, 19.25844
1263.438, 19.10184
1263.920, 18.81657
1264.402, 18.57355
1264.885, 18.54366
1265.367, 18.72829
1265.849, 19.19660
1266.331, 20.08025
1266.813, 20.35118
1267.295, 19.86396
1267.777, 19.46588
1268.259, 19.29644
1268.741, 19.08688
1269.224, 18.71413
1269.706, 18.38063
1270.188, 18.28464
1270.670, 18.31630
1271.152, 18.20368
1271.634, 18.09714
1272.116, 18.49499
1272.598, 19.13293
1273.081, 19.38751
1273.563, 19.26036
1274.045, 18.98273
1274.527, 18.65414
1275.009, 18.46849
1275.491, 18.59463
1275.973, 18.71802
1276.455, 18.70797
1276.938, 18.62691
1277.420, 18.43035
1277.902, 18.25175
1278.384, 18.19205
1278.866, 18.24587
1279.348, 18.44138
1279.830, 18.76365
1280.312, 18.82574
1280.794, 18.54585
1281.276, 18.32684
1281.759, 18.19184
1282.241, 18.05694
1282.723, 17.88942
1283.205, 17.87347
1283.687, 18.13532
1284.169, 18.42705
1284.651, 18.39306
1285.133, 18.23279
1285.616, 18.28519
1286.098, 18.54925
##END=



