##NAMES=Grossular
##RRUFFID=R050036
##IDEAL CHEMISTRY=Ca_3_Al_2_(SiO_4_)_3_
##LOCALITY=Wah Wah Mountains, Utah, USA
##OWNER=RRUFF
##SOURCE=Eugene Schlepp
##DESCRIPTION=Colorless single crystal in rhyolite matrix
##STATUS=The identification of this mineral has been confirmed by X-ray diffraction and chemical analysis
##URL=rruff.info/R050036
##MEASURED CHEMISTRY=(Ca_2.95_Mg_0.05_)_Σ=3_(Al_1.70_Fe^3+^_0.30_)_Σ=2_(Si_1.00_O_4_)_3_; trace amounts of P
138.3756, 264.5284
138.8577, 267.0536
139.3398, 270.1121
139.8220, 273.7150
140.3041, 278.1277
140.7862, 283.6475
141.2683, 289.4808
141.7504, 294.2373
142.2325, 298.6541
142.7147, 305.2218
143.1968, 316.0401
143.6789, 331.2859
144.1610, 347.3979
144.6431, 367.6288
145.1252, 385.8774
145.6074, 396.3897
146.0895, 400.2631
146.5716, 405.4767
147.0537, 418.9266
147.5358, 440.8869
148.0179, 459.8282
148.5001, 472.0712
148.9822, 484.0351
149.4643, 500.4707
149.9464, 521.6698
150.4285, 544.9825
150.9106, 569.8945
151.3928, 595.6568
151.8749, 617.0308
152.3570, 632.4589
152.8391, 644.1018
153.3212, 652.3441
153.8033, 657.0200
154.2855, 663.1713
154.7676, 675.9970
155.2497, 694.0951
155.7318, 711.1800
156.2139, 728.9211
156.6960, 743.8863
157.1782, 749.5923
157.6603, 744.1883
158.1424, 739.9480
158.6245, 747.6418
159.1066, 763.9382
159.5887, 781.8262
160.0709, 797.4775
160.5530, 814.4878
161.0351, 839.0164
161.5172, 872.6330
161.9993, 907.9745
162.4814, 942.7368
162.9636, 975.3964
163.4457, 1002.572
163.9278, 1018.428
164.4099, 1029.166
164.8920, 1048.026
165.3741, 1079.606
165.8563, 1106.108
166.3384, 1112.364
166.8205, 1106.617
167.3026, 1102.204
167.7847, 1107.062
168.2668, 1115.849
168.7490, 1115.783
169.2311, 1102.776
169.7132, 1090.092
170.1953, 1084.131
170.6774, 1083.069
171.1595, 1084.300
171.6417, 1085.430
172.1238, 1088.589
172.6059, 1100.349
173.0880, 1125.254
173.5701, 1149.841
174.0522, 1160.871
174.5344, 1169.111
175.0165, 1190.014
175.4986, 1230.935
175.9807, 1289.481
176.4628, 1360.481
176.9449, 1446.674
177.4271, 1541.720
177.9092, 1640.922
178.3913, 1746.131
178.8734, 1866.392
179.3555, 2021.807
179.8376, 2182.214
180.3197, 2260.506
180.8019, 2241.143
181.2840, 2157.004
181.7661, 1999.231
182.2482, 1801.433
182.7303, 1601.294
183.2124, 1412.270
183.6946, 1239.760
184.1767, 1099.231
184.6588, 995.5583
185.1409, 921.3024
185.6230, 881.2088
186.1051, 861.4796
186.5873, 846.5886
187.0694, 829.4393
187.5515, 812.8655
188.0336, 804.9889
188.5157, 812.3508
188.9978, 817.4925
189.4800, 815.6206
189.9621, 810.3955
190.4442, 805.1951
190.9263, 801.4313
191.4084, 799.0801
191.8905, 798.6439
192.3727, 803.2990
192.8548, 803.9225
193.3369, 793.6671
193.8190, 781.7904
194.3011, 778.0397
194.7832, 786.3742
195.2654, 801.4668
195.7475, 811.8395
196.2296, 815.3011
196.7117, 817.9442
197.1938, 821.4819
197.6759, 824.2732
198.1581, 824.1107
198.6402, 820.3677
199.1223, 815.5529
199.6044, 814.5060
200.0865, 819.2604
200.5686, 823.9420
201.0508, 828.8256
201.5329, 832.9855
202.0150, 834.9716
202.4971, 834.6089
202.9792, 833.8932
203.4613, 836.3919
203.9435, 844.3763
204.4256, 850.4473
204.9077, 851.9148
205.3898, 853.2751
205.8719, 858.0784
206.3540, 866.7932
206.8362, 876.7685
207.3183, 884.0510
207.8004, 886.4113
208.2825, 891.7300
208.7646, 901.8050
209.2467, 913.0950
209.7289, 925.0540
210.2110, 936.7555
210.6931, 945.8395
211.1752, 947.9205
211.6573, 938.6445
212.1395, 938.6442
212.6216, 954.2879
213.1037, 972.9999
213.5858, 990.8250
214.0679, 1006.407
214.5500, 1018.564
215.0322, 1024.503
215.5143, 1021.887
215.9964, 1028.830
216.4785, 1056.974
216.9606, 1083.786
217.4427, 1100.464
217.9249, 1108.222
218.4070, 1112.633
218.8891, 1117.048
219.3712, 1121.232
219.8533, 1134.177
220.3354, 1165.235
220.8176, 1196.479
221.2997, 1225.138
221.7818, 1250.254
222.2639, 1270.111
222.7460, 1281.948
223.2281, 1287.455
223.7103, 1303.817
224.1924, 1341.709
224.6745, 1379.821
225.1566, 1414.863
225.6387, 1447.194
226.1208, 1477.082
226.6030, 1504.017
227.0851, 1529.838
227.5672, 1562.547
228.0493, 1608.969
228.5314, 1653.663
229.0135, 1689.686
229.4957, 1724.088
229.9778, 1765.688
230.4599, 1818.625
230.9420, 1878.445
231.4241, 1934.876
231.9062, 1987.069
232.3884, 2036.512
232.8705, 2076.409
233.3526, 2117.604
233.8347, 2172.514
234.3168, 2244.590
234.7989, 2323.586
235.2811, 2390.358
235.7632, 2437.463
236.2453, 2490.458
236.7274, 2567.473
237.2095, 2639.967
237.6916, 2688.880
238.1738, 2710.666
238.6559, 2715.499
239.1380, 2712.695
239.6201, 2698.230
240.1022, 2691.204
240.5843, 2686.693
241.0665, 2694.291
241.5486, 2720.616
242.0307, 2765.025
242.5128, 2821.281
242.9949, 2884.438
243.4770, 2954.752
243.9592, 3030.746
244.4413, 3131.086
244.9234, 3219.527
245.4055, 3294.115
245.8876, 3346.997
246.3697, 3362.222
246.8519, 3325.688
247.3340, 3240.215
247.8161, 3132.340
248.2982, 2983.394
248.7803, 2835.306
249.2624, 2688.984
249.7446, 2554.563
250.2267, 2449.375
250.7088, 2384.919
251.1909, 2352.205
251.6730, 2326.052
252.1551, 2307.468
252.6373, 2293.744
253.1194, 2282.270
253.6015, 2275.169
254.0836, 2275.839
254.5657, 2286.291
255.0478, 2301.878
255.5300, 2313.255
256.0121, 2316.584
256.4942, 2330.403
256.9763, 2367.093
257.4584, 2412.470
257.9406, 2459.450
258.4227, 2506.740
258.9048, 2550.393
259.3869, 2586.943
259.8690, 2616.397
260.3511, 2639.494
260.8333, 2655.375
261.3154, 2665.237
261.7975, 2669.882
262.2796, 2669.462
262.7617, 2665.460
263.2438, 2663.009
263.7260, 2659.497
264.2081, 2637.874
264.6902, 2587.549
265.1723, 2532.005
265.6544, 2486.943
266.1365, 2450.594
266.6187, 2418.394
267.1008, 2387.813
267.5829, 2359.961
268.0650, 2337.223
268.5471, 2319.887
269.0292, 2306.968
269.5114, 2299.073
269.9935, 2295.157
270.4756, 2293.713
270.9577, 2287.804
271.4398, 2289.588
271.9219, 2314.003
272.4041, 2361.492
272.8862, 2420.194
273.3683, 2487.164
273.8504, 2561.213
274.3325, 2639.556
274.8146, 2726.561
275.2968, 2809.950
275.7789, 2895.832
276.2610, 2975.482
276.7431, 3013.181
277.2252, 2994.967
277.7073, 2928.615
278.1895, 2821.998
278.6716, 2670.028
279.1537, 2514.577
279.6358, 2364.142
280.1179, 2221.630
280.6000, 2090.212
281.0822, 1968.833
281.5643, 1866.929
282.0464, 1800.499
282.5285, 1772.389
283.0106, 1747.591
283.4927, 1720.387
283.9749, 1696.163
284.4570, 1681.815
284.9391, 1677.117
285.4212, 1673.129
285.9033, 1662.289
286.3854, 1644.746
286.8676, 1630.751
287.3497, 1615.627
287.8318, 1608.088
288.3139, 1617.220
288.7960, 1637.863
289.2781, 1656.815
289.7603, 1666.970
290.2424, 1669.604
290.7245, 1669.573
291.2066, 1663.928
291.6887, 1659.455
292.1708, 1656.866
292.6530, 1656.105
293.1351, 1656.396
293.6172, 1657.537
294.0993, 1661.469
294.5814, 1672.057
295.0635, 1695.677
295.5457, 1713.986
296.0278, 1719.973
296.5099, 1725.976
296.9920, 1741.859
297.4741, 1767.900
297.9562, 1796.583
298.4384, 1820.232
298.9205, 1838.009
299.4026, 1856.806
299.8847, 1873.812
300.3668, 1894.555
300.8489, 1922.072
301.3311, 1954.986
301.8131, 1990.023
302.2953, 2025.038
302.7774, 2060.491
303.2595, 2099.766
303.7416, 2153.158
304.2237, 2194.272
304.7058, 2207.245
305.1880, 2211.113
305.6701, 2227.587
306.1522, 2264.993
306.6343, 2311.335
307.1164, 2345.092
307.5985, 2360.350
308.0807, 2384.647
308.5628, 2434.184
309.0449, 2486.381
309.5270, 2526.698
310.0091, 2554.395
310.4912, 2579.456
310.9734, 2608.033
311.4555, 2640.482
311.9376, 2681.263
312.4197, 2735.041
312.9018, 2791.018
313.3839, 2842.883
313.8661, 2891.628
314.3482, 2938.982
314.8303, 2980.618
315.3124, 3023.612
315.7945, 3087.520
316.2766, 3178.295
316.7588, 3253.979
317.2409, 3276.524
317.7230, 3273.771
318.2051, 3291.483
318.6872, 3338.560
319.1693, 3400.234
319.6515, 3470.101
320.1336, 3546.381
320.6157, 3622.610
321.0978, 3696.375
321.5799, 3768.670
322.0620, 3841.054
322.5442, 3912.086
323.0263, 3988.147
323.5084, 4075.440
323.9905, 4167.217
324.4726, 4254.024
324.9547, 4334.657
325.4369, 4415.150
325.9190, 4502.172
326.4011, 4596.552
326.8832, 4685.882
327.3653, 4769.213
327.8474, 4849.037
328.3296, 4931.057
328.8117, 5011.565
329.2938, 5077.799
329.7759, 5121.011
330.2580, 5147.197
330.7401, 5182.154
331.2223, 5225.265
331.7044, 5278.340
332.1865, 5340.666
332.6686, 5413.654
333.1507, 5500.086
333.6328, 5600.280
334.1150, 5710.464
334.5971, 5825.707
335.0792, 5944.237
335.5613, 6072.118
336.0434, 6213.335
336.5255, 6358.857
337.0077, 6500.088
337.4898, 6640.003
337.9719, 6790.327
338.4540, 6960.853
338.9361, 7149.628
339.4182, 7338.526
339.9004, 7517.552
340.3825, 7710.877
340.8646, 7933.153
341.3467, 8169.967
341.8288, 8401.414
342.3109, 8619.762
342.7931, 8835.725
343.2752, 9071.700
343.7573, 9333.969
344.2394, 9573.573
344.7215, 9768.566
345.2036, 9944.420
345.6858, 10126.25
346.1679, 10314.88
346.6500, 10486.33
347.1321, 10628.32
347.6142, 10741.59
348.0963, 10828.64
348.5785, 10889.41
349.0606, 10924.71
349.5427, 10924.42
350.0248, 10897.59
350.5069, 10868.98
350.9890, 10870.92
351.4712, 10850.19
351.9533, 10756.19
352.4354, 10597.43
352.9175, 10417.97
353.3996, 10236.39
353.8817, 10049.34
354.3639, 9844.496
354.8460, 9614.072
355.3281, 9388.233
355.8102, 9167.822
356.2923, 8958.414
356.7744, 8765.435
357.2566, 8590.191
357.7387, 8442.315
358.2208, 8331.883
358.7029, 8259.950
359.1850, 8225.651
359.6671, 8231.031
360.1493, 8265.392
360.6314, 8317.112
361.1135, 8394.305
361.5956, 8515.539
362.0777, 8693.557
362.5598, 8920.119
363.0420, 9165.929
363.5241, 9425.676
364.0062, 9716.732
364.4883, 10061.02
364.9704, 10420.77
365.4525, 10775.68
365.9347, 11115.91
366.4168, 11427.57
366.8989, 11694.79
367.3810, 11919.67
367.8631, 12096.79
368.3452, 12212.22
368.8274, 12292.55
369.3095, 12324.19
369.7916, 12334.35
370.2737, 12385.73
370.7558, 12511.96
371.2379, 12692.59
371.7201, 12903.32
372.2022, 13147.49
372.6843, 13390.40
373.1664, 13654.07
373.6485, 13880.00
374.1306, 14003.08
374.6128, 14029.00
375.0949, 13923.92
375.5770, 13654.46
376.0591, 13244.40
376.5412, 12727.99
377.0233, 12106.82
377.5055, 11417.51
377.9876, 10676.42
378.4697, 9878.300
378.9518, 9135.956
379.4339, 8462.513
379.9160, 7837.002
380.3982, 7254.138
380.8803, 6713.031
381.3624, 6220.503
381.8445, 5779.963
382.3266, 5390.255
382.8087, 5041.249
383.2909, 4753.263
383.7730, 4487.706
384.2551, 4240.821
384.7372, 4017.915
385.2193, 3826.228
385.7014, 3665.066
386.1836, 3522.054
386.6657, 3384.002
387.1478, 3250.911
387.6299, 3132.788
388.1120, 3027.405
388.5941, 2940.981
389.0763, 2884.154
389.5584, 2844.841
390.0405, 2804.074
390.5226, 2751.509
391.0047, 2699.304
391.4868, 2669.118
391.9690, 2663.629
392.4511, 2655.313
392.9332, 2632.193
393.4153, 2608.168
393.8974, 2595.726
394.3795, 2594.977
394.8617, 2600.375
395.3438, 2611.826
395.8259, 2626.771
396.3080, 2639.817
396.7901, 2650.157
397.2722, 2664.630
397.7544, 2689.056
398.2365, 2721.906
398.7186, 2753.547
399.2007, 2781.907
399.6828, 2811.057
400.1649, 2842.411
400.6471, 2875.559
401.1292, 2911.544
401.6113, 2950.942
402.0934, 2988.528
402.5755, 3015.892
403.0576, 3026.106
403.5398, 3047.272
404.0219, 3085.881
404.5040, 3127.989
404.9861, 3166.728
405.4682, 3203.012
405.9503, 3239.335
406.4325, 3276.253
406.9146, 3316.693
407.3967, 3371.375
407.8788, 3446.135
408.3609, 3523.419
408.8430, 3604.260
409.3252, 3683.595
409.8073, 3756.722
410.2894, 3823.197
410.7715, 3887.883
411.2536, 3965.640
411.7357, 4048.557
412.2179, 4091.230
412.7000, 4084.176
413.1821, 4052.303
413.6642, 4011.301
414.1463, 3957.489
414.6284, 3879.719
415.1106, 3761.135
415.5927, 3635.561
416.0748, 3522.954
416.5569, 3422.823
417.0390, 3334.839
417.5211, 3259.630
418.0033, 3195.000
418.4854, 3138.294
418.9675, 3090.834
419.4496, 3048.554
419.9317, 3016.024
420.4138, 2985.181
420.8960, 2948.821
421.3781, 2908.816
421.8602, 2871.693
422.3423, 2841.091
422.8244, 2817.443
423.3065, 2802.899
423.7887, 2803.426
424.2708, 2804.164
424.7529, 2801.062
425.2350, 2799.145
425.7171, 2804.577
426.1992, 2817.140
426.6814, 2828.755
427.1635, 2827.286
427.6456, 2814.906
428.1277, 2819.211
428.6098, 2847.226
429.0919, 2878.589
429.5741, 2906.624
430.0562, 2930.372
430.5383, 2947.072
431.0204, 2954.027
431.5025, 2958.281
431.9846, 2968.724
432.4668, 2981.839
432.9489, 2983.197
433.4310, 2966.947
433.9131, 2945.425
434.3952, 2933.440
434.8773, 2932.270
435.3595, 2928.090
435.8416, 2922.668
436.3237, 2911.823
436.8058, 2891.348
437.2879, 2863.310
437.7701, 2831.659
438.2522, 2798.034
438.7343, 2764.676
439.2164, 2738.095
439.6985, 2726.074
440.1806, 2706.925
440.6628, 2668.641
441.1449, 2633.240
441.6270, 2617.692
442.1091, 2619.377
442.5912, 2623.135
443.0733, 2619.489
443.5555, 2608.334
444.0376, 2587.518
444.5197, 2552.972
445.0018, 2520.125
445.4839, 2496.215
445.9660, 2476.011
446.4482, 2455.022
446.9303, 2432.883
447.4124, 2409.240
447.8945, 2381.473
448.3766, 2352.493
448.8587, 2328.781
449.3409, 2311.240
449.8230, 2297.223
450.3051, 2286.280
450.7872, 2277.448
451.2693, 2262.433
451.7514, 2235.926
452.2336, 2209.948
452.7157, 2186.258
453.1978, 2166.298
453.6799, 2154.374
454.1620, 2151.008
454.6441, 2148.541
455.1263, 2136.677
455.6084, 2113.592
456.0905, 2091.566
456.5726, 2066.811
457.0547, 2047.455
457.5368, 2041.551
458.0190, 2041.433
458.5011, 2034.033
458.9832, 2012.847
459.4653, 1987.279
459.9474, 1969.984
460.4295, 1961.094
460.9117, 1956.285
461.3938, 1956.777
461.8759, 1958.451
462.3580, 1955.902
462.8401, 1950.490
463.3222, 1950.031
463.8044, 1963.882
464.2865, 1977.895
464.7686, 1976.051
465.2507, 1962.423
465.7328, 1954.598
466.2149, 1961.036
466.6971, 1974.270
467.1792, 1979.594
467.6613, 1971.705
468.1434, 1966.760
468.6255, 1966.227
469.1076, 1967.286
469.5898, 1966.885
470.0719, 1966.448
470.5540, 1970.729
471.0361, 1983.416
471.5182, 2001.022
472.0003, 2013.923
472.4825, 2021.720
472.9646, 2025.625
473.4467, 2024.378
473.9288, 2020.174
474.4109, 2010.795
474.8930, 1997.750
475.3752, 1991.531
475.8573, 2006.689
476.3394, 2029.116
476.8215, 2032.747
477.3036, 2016.844
477.7857, 1998.575
478.2679, 1984.700
478.7500, 1975.348
479.2321, 1970.985
479.7142, 1971.314
480.1963, 1976.117
480.6784, 1989.059
481.1606, 2003.978
481.6427, 2013.963
482.1248, 2019.650
482.6069, 2027.574
483.0890, 2042.974
483.5711, 2064.406
484.0533, 2084.238
484.5354, 2101.861
485.0175, 2118.828
485.4996, 2130.288
485.9817, 2144.757
486.4638, 2169.749
486.9460, 2205.629
487.4281, 2246.003
487.9102, 2287.896
488.3923, 2330.388
488.8744, 2369.530
489.3565, 2404.142
489.8387, 2441.986
490.3208, 2488.957
490.8029, 2540.546
491.2850, 2585.800
491.7671, 2620.327
492.2492, 2661.386
492.7314, 2720.379
493.2135, 2785.434
493.6956, 2842.913
494.1777, 2891.625
494.6598, 2939.132
495.1419, 2991.873
495.6241, 3047.730
496.1062, 3094.121
496.5883, 3121.929
497.0704, 3152.439
497.5525, 3190.374
498.0346, 3230.058
498.5168, 3266.752
498.9989, 3299.938
499.4810, 3331.838
499.9631, 3362.289
500.4452, 3393.046
500.9273, 3431.197
501.4095, 3478.352
501.8916, 3526.435
502.3737, 3572.466
502.8558, 3617.358
503.3379, 3662.872
503.8200, 3709.735
504.3022, 3753.510
504.7843, 3787.790
505.2664, 3820.699
505.7485, 3859.509
506.2306, 3905.573
506.7127, 3959.887
507.1949, 4024.103
507.6770, 4096.313
508.1591, 4167.758
508.6412, 4245.853
509.1233, 4312.048
509.6054, 4360.598
510.0876, 4401.272
510.5697, 4434.351
511.0518, 4464.570
511.5339, 4505.796
512.0161, 4571.512
512.4982, 4653.010
512.9803, 4726.808
513.4624, 4790.957
513.9445, 4856.912
514.4266, 4932.390
514.9088, 5008.101
515.3909, 5073.443
515.8730, 5128.519
516.3551, 5174.766
516.8372, 5205.821
517.3193, 5233.404
517.8015, 5268.033
518.2836, 5309.429
518.7657, 5356.571
519.2478, 5410.207
519.7299, 5462.510
520.2120, 5493.415
520.6942, 5485.920
521.1763, 5489.487
521.6584, 5518.476
522.1405, 5543.832
522.6226, 5550.789
523.1047, 5541.107
523.5869, 5523.378
524.0690, 5503.289
524.5511, 5474.809
525.0332, 5424.095
525.5153, 5351.301
525.9974, 5282.426
526.4796, 5229.386
526.9617, 5172.548
527.4438, 5086.173
527.9259, 4973.929
528.4080, 4866.939
528.8901, 4770.549
529.3723, 4679.350
529.8544, 4590.979
530.3365, 4505.085
530.8186, 4420.494
531.3007, 4336.632
531.7828, 4259.316
532.2650, 4197.383
532.7471, 4152.936
533.2292, 4109.334
533.7113, 4062.650
534.1934, 4021.416
534.6755, 3987.633
535.1577, 3960.980
535.6398, 3938.531
536.1219, 3918.424
536.6040, 3911.670
537.0861, 3932.129
537.5682, 3974.250
538.0504, 4018.902
538.5325, 4062.546
539.0146, 4116.559
539.4967, 4187.120
539.9788, 4274.811
540.4609, 4379.500
540.9431, 4518.441
541.4252, 4650.069
541.9073, 4765.195
542.3894, 4869.732
542.8715, 4981.199
543.3536, 5093.005
543.8358, 5172.991
544.3179, 5199.314
544.8000, 5169.859
545.2821, 5071.735
545.7642, 4894.018
546.2463, 4677.707
546.7285, 4407.041
547.2106, 4120.279
547.6927, 3838.264
548.1748, 3564.114
548.6569, 3306.541
549.1390, 3064.920
549.6211, 2847.277
550.1032, 2668.805
550.5853, 2524.475
551.0674, 2396.985
551.5496, 2278.758
552.0317, 2170.608
552.5138, 2072.531
552.9959, 1981.498
553.4780, 1910.997
553.9601, 1872.110
554.4423, 1838.425
554.9244, 1798.830
555.4065, 1757.558
555.8886, 1721.871
556.3707, 1694.256
556.8528, 1673.575
557.3350, 1659.934
557.8171, 1652.650
558.2992, 1646.874
558.7813, 1643.260
559.2634, 1637.349
559.7455, 1622.140
560.2277, 1603.034
560.7098, 1597.194
561.1919, 1614.677
561.6740, 1627.970
562.1561, 1622.798
562.6382, 1612.657
563.1204, 1612.343
563.6025, 1622.512
564.0846, 1635.321
564.5667, 1645.763
565.0488, 1653.309
565.5309, 1655.136
566.0131, 1647.521
566.4952, 1643.600
566.9773, 1648.427
567.4594, 1655.474
567.9415, 1658.906
568.4236, 1660.350
568.9058, 1667.932
569.3879, 1690.482
569.8700, 1715.855
570.3521, 1729.612
570.8342, 1735.623
571.3163, 1748.058
571.7985, 1771.719
572.2806, 1798.267
572.7627, 1817.802
573.2448, 1829.868
573.7269, 1839.690
574.2090, 1839.091
574.6912, 1846.243
575.1733, 1874.877
575.6554, 1908.798
576.1375, 1928.905
576.6196, 1931.582
577.1017, 1929.648
577.5839, 1933.883
578.0660, 1942.834
578.5481, 1952.087
579.0302, 1961.705
579.5123, 1970.076
579.9944, 1975.146
580.4766, 1979.666
580.9587, 1990.432
581.4408, 2010.392
581.9229, 2023.611
582.4050, 2025.555
582.8871, 2022.131
583.3693, 2014.928
583.8514, 2005.778
584.3335, 1996.834
584.8156, 1989.114
585.2977, 1983.829
585.7798, 1986.526
586.2620, 1999.181
586.7441, 1994.676
587.2262, 1961.657
587.7083, 1927.825
588.1904, 1905.291
588.6725, 1893.207
589.1547, 1894.138
589.6368, 1916.872
590.1189, 1930.045
590.6010, 1911.104
591.0831, 1878.141
591.5652, 1851.769
592.0474, 1834.581
592.5295, 1823.883
593.0116, 1818.544
593.4937, 1816.831
593.9758, 1812.996
594.4579, 1804.858
594.9401, 1799.840
595.4222, 1796.394
595.9043, 1798.397
596.3864, 1812.481
596.8685, 1833.571
597.3506, 1848.890
597.8328, 1852.009
598.3149, 1851.164
598.7970, 1850.554
599.2791, 1852.069
599.7612, 1863.255
600.2433, 1885.649
600.7255, 1906.476
601.2076, 1914.919
601.6897, 1912.167
602.1718, 1907.799
602.6539, 1893.479
603.1360, 1889.368
603.6182, 1911.020
604.1003, 1932.189
604.5824, 1932.710
605.0645, 1913.684
605.5466, 1888.335
606.0287, 1862.401
606.5109, 1836.639
606.9930, 1810.570
607.4751, 1784.797
607.9572, 1766.754
608.4393, 1760.808
608.9214, 1752.439
609.4036, 1724.922
609.8857, 1678.110
610.3678, 1641.457
610.8499, 1619.770
611.3320, 1601.222
611.8141, 1585.056
612.2963, 1569.453
612.7784, 1553.164
613.2605, 1535.859
613.7426, 1517.630
614.2247, 1498.428
614.7068, 1478.447
615.1890, 1456.499
615.6711, 1432.219
616.1532, 1414.773
616.6353, 1408.513
617.1174, 1407.125
617.5995, 1404.370
618.0817, 1400.204
618.5638, 1395.188
619.0459, 1387.490
619.5280, 1381.093
620.0101, 1379.354
620.4922, 1378.883
620.9744, 1373.653
621.4565, 1363.649
621.9386, 1356.557
622.4207, 1360.197
622.9028, 1371.890
623.3849, 1381.848
623.8671, 1390.342
624.3492, 1395.558
624.8313, 1397.132
625.3134, 1394.964
625.7955, 1390.901
626.2776, 1384.986
626.7598, 1367.071
627.2419, 1322.124
627.7240, 1279.655
628.2061, 1260.104
628.6882, 1250.435
629.1703, 1230.623
629.6525, 1196.633
630.1346, 1159.134
630.6167, 1128.148
631.0988, 1102.740
631.5809, 1077.866
632.0630, 1053.985
632.5452, 1028.191
633.0273, 996.8437
633.5094, 965.7352
633.9915, 942.0272
634.4736, 925.3383
634.9557, 907.7620
635.4379, 886.9860
635.9200, 865.9555
636.4021, 843.6211
636.8842, 823.1338
637.3663, 811.7278
637.8484, 809.8059
638.3306, 806.8086
638.8127, 790.8511
639.2948, 764.9219
639.7769, 747.9398
640.2590, 741.4601
640.7411, 738.4271
641.2233, 738.6846
641.7054, 739.9174
642.1875, 740.3618
642.6696, 739.9377
643.1517, 737.2413
643.6339, 731.8722
644.1160, 724.2794
644.5981, 712.8734
645.0802, 700.1195
645.5623, 689.8774
646.0444, 682.8621
646.5266, 676.8623
647.0087, 669.4722
647.4908, 661.6340
647.9729, 658.9748
648.4550, 663.7430
648.9371, 664.4175
649.4193, 655.0326
649.9014, 643.8450
650.3835, 639.4468
650.8656, 640.7957
651.3477, 640.4607
651.8298, 635.8374
652.3120, 630.8177
652.7941, 627.8239
653.2762, 625.2098
653.7583, 619.5024
654.2404, 611.0388
654.7225, 605.0269
655.2047, 606.2927
655.6868, 612.3762
656.1689, 614.9183
656.6510, 613.2595
657.1331, 612.2447
657.6152, 613.6145
658.0974, 614.8465
658.5795, 613.6362
659.0616, 610.3276
659.5437, 606.2642
660.0258, 598.3727
660.5079, 593.6980
660.9901, 598.3951
661.4722, 605.0938
661.9543, 605.4365
662.4364, 599.5419
662.9185, 592.6577
663.4006, 587.7159
663.8828, 585.5201
664.3649, 589.2001
664.8470, 599.0228
665.3291, 605.8627
665.8112, 607.9526
666.2933, 607.7614
666.7755, 606.5930
667.2576, 604.5975
667.7397, 602.5690
668.2218, 601.6102
668.7039, 598.8602
669.1860, 588.9641
669.6682, 581.0187
670.1503, 584.7207
670.6324, 596.6608
671.1145, 606.1717
671.5966, 607.9404
672.0787, 605.6912
672.5609, 603.3502
673.0430, 601.2758
673.5251, 603.3986
674.0072, 611.3395
674.4893, 615.6073
674.9714, 608.6077
675.4536, 595.6432
675.9357, 590.8510
676.4178, 599.2858
676.8999, 604.8524
677.3820, 605.6250
677.8641, 605.0024
678.3463, 604.2160
678.8284, 603.4297
679.3105, 602.2098
679.7926, 600.4254
680.2747, 599.9879
680.7568, 604.2778
681.2390, 610.8635
681.7211, 613.0576
682.2032, 610.8871
682.6853, 610.7970
683.1674, 616.4422
683.6495, 622.4006
684.1317, 619.0305
684.6138, 602.7500
685.0959, 596.2297
685.5780, 609.7007
686.0601, 620.6732
686.5422, 622.5799
687.0244, 620.0884
687.5065, 615.8954
687.9886, 611.3021
688.4707, 612.3391
688.9528, 628.9574
689.4349, 647.9542
689.9171, 651.8570
690.3992, 645.5967
690.8813, 645.2056
691.3634, 654.8749
691.8455, 663.7697
692.3276, 659.6728
692.8098, 645.0388
693.2919, 642.4343
693.7740, 657.8146
694.2561, 672.1896
694.7382, 686.8495
695.2203, 694.9886
695.7025, 685.2681
696.1846, 664.1249
696.6667, 655.9890
697.1488, 676.2221
697.6309, 696.6349
698.1130, 701.5276
698.5952, 698.5005
699.0773, 694.5848
699.5594, 692.0136
700.0415, 694.2892
700.5236, 704.2161
701.0057, 716.8001
701.4879, 721.0865
701.9700, 716.6520
702.4521, 713.0328
702.9342, 711.0940
703.4163, 709.9677
703.8984, 709.7560
704.3806, 709.7697
704.8627, 707.8808
705.3448, 702.2018
705.8269, 700.1155
706.3090, 706.1911
706.7911, 712.5652
707.2733, 714.2134
707.7554, 713.0106
708.2375, 712.4293
708.7196, 713.5500
709.2017, 715.2582
709.6838, 716.7026
710.1660, 717.8829
710.6481, 718.3635
711.1302, 718.2540
711.6123, 719.9587
712.0944, 724.8570
712.5765, 729.6616
713.0587, 730.2545
713.5408, 726.4788
714.0229, 721.7357
714.5050, 712.5264
714.9871, 707.2851
715.4692, 711.2730
715.9514, 716.5450
716.4335, 715.4642
716.9156, 709.2682
717.3977, 705.9521
717.8798, 710.5952
718.3619, 716.4999
718.8441, 720.2541
719.3262, 720.9076
719.8083, 714.5505
720.2904, 702.2079
720.7725, 692.5797
721.2546, 691.9517
721.7368, 696.0975
722.2189, 693.8528
722.7010, 683.5740
723.1831, 679.1042
723.6652, 685.5840
724.1473, 689.6630
724.6295, 680.0153
725.1116, 664.4850
725.5937, 659.7303
726.0758, 669.3966
726.5579, 677.3551
727.0400, 680.7249
727.5222, 681.5869
728.0043, 680.0057
728.4864, 677.2211
728.9685, 674.9141
729.4506, 673.5499
729.9327, 672.5410
730.4149, 672.3994
730.8970, 671.8215
731.3791, 666.3845
731.8612, 656.8406
732.3433, 650.7488
732.8254, 650.5974
733.3076, 652.3450
733.7897, 651.6077
734.2718, 648.7896
734.7539, 649.4930
735.2360, 658.3051
735.7181, 662.9189
736.2003, 660.7051
736.6824, 655.2554
737.1645, 645.0094
737.6466, 633.4603
738.1287, 629.9509
738.6108, 639.7247
739.0930, 651.0325
739.5751, 660.3716
740.0572, 665.6586
740.5393, 660.3787
741.0214, 648.4666
741.5035, 643.3741
741.9857, 651.4874
742.4678, 664.3004
742.9499, 668.6187
743.4320, 665.3907
743.9141, 669.8525
744.3962, 684.5034
744.8784, 693.6663
745.3605, 689.7528
745.8426, 679.8057
746.3247, 672.5767
746.8068, 668.0920
747.2889, 666.3936
747.7711, 669.6776
748.2532, 672.7172
748.7353, 670.9443
749.2174, 670.9061
749.6995, 681.4302
750.1816, 699.9290
750.6638, 714.1678
751.1459, 718.7213
751.6280, 716.2678
752.1101, 703.5323
752.5922, 687.5618
753.0743, 683.0422
753.5565, 690.4041
754.0386, 700.2067
754.5207, 707.1915
755.0028, 711.3719
755.4849, 711.3396
755.9670, 706.0413
756.4492, 707.3857
756.9313, 718.6983
757.4134, 728.8277
757.8955, 732.8450
758.3776, 733.1752
758.8597, 732.8295
759.3419, 731.5638
759.8240, 732.0685
760.3061, 734.9342
760.7882, 739.1633
761.2703, 745.0810
761.7524, 751.7076
762.2346, 758.5897
762.7167, 765.2936
763.1988, 770.6225
763.6809, 773.1694
764.1630, 775.3464
764.6451, 779.9401
765.1273, 786.3546
765.6094, 793.4268
766.0915, 800.8611
766.5736, 808.2126
767.0557, 815.2700
767.5378, 821.7406
768.0200, 826.2042
768.5021, 827.5523
768.9842, 834.3365
769.4663, 850.6664
769.9484, 863.7095
770.4305, 865.3026
770.9127, 862.3239
771.3948, 864.9791
771.8769, 873.6885
772.3590, 881.6149
772.8411, 889.4705
773.3232, 894.5876
773.8054, 892.2750
774.2875, 889.1277
774.7696, 892.8304
775.2517, 903.0596
775.7338, 913.7157
776.2159, 921.6671
776.6981, 928.2364
777.1802, 936.4958
777.6623, 944.1214
778.1444, 942.6146
778.6265, 932.8328
779.1086, 930.2105
779.5908, 944.3018
780.0729, 963.8517
780.5550, 965.2352
781.0371, 945.2457
781.5192, 940.9908
782.0013, 959.4380
782.4835, 974.7841
782.9656, 974.0432
783.4477, 968.5409
783.9298, 974.2089
784.4119, 991.3929
784.8940, 1002.777
785.3762, 1002.910
785.8583, 1003.251
786.3404, 1007.771
786.8225, 1013.031
787.3046, 1016.932
787.7867, 1018.814
788.2689, 1016.752
788.7510, 1007.418
789.2331, 1002.287
789.7152, 1014.646
790.1973, 1035.621
790.6794, 1053.786
791.1616, 1067.225
791.6437, 1071.991
792.1258, 1066.417
792.6079, 1060.975
793.0900, 1070.958
793.5721, 1094.655
794.0543, 1116.373
794.5364, 1137.126
795.0185, 1148.422
795.5006, 1143.224
795.9827, 1137.777
796.4648, 1149.570
796.9470, 1176.581
797.4291, 1196.550
797.9112, 1201.831
798.3933, 1210.879
798.8754, 1223.935
799.3575, 1241.505
799.8397, 1265.390
800.3218, 1293.534
800.8039, 1322.231
801.2860, 1350.250
801.7681, 1380.729
802.2502, 1415.071
802.7324, 1452.750
803.2145, 1495.505
803.6966, 1540.528
804.1787, 1583.359
804.6608, 1622.649
805.1429, 1658.542
805.6251, 1687.807
806.1072, 1718.320
806.5893, 1769.520
807.0714, 1839.110
807.5535, 1910.206
808.0356, 1980.539
808.5178, 2043.110
808.9999, 2090.875
809.4820, 2133.498
809.9641, 2195.089
810.4462, 2280.981
810.9283, 2367.619
811.4105, 2457.885
811.8926, 2544.707
812.3747, 2621.949
812.8568, 2696.339
813.3389, 2774.703
813.8210, 2856.982
814.3032, 2940.868
814.7853, 3022.411
815.2674, 3109.748
815.7495, 3206.999
816.2316, 3310.012
816.7137, 3416.610
817.1959, 3525.754
817.6780, 3638.008
818.1601, 3755.518
818.6422, 3867.507
819.1243, 3963.575
819.6064, 4050.411
820.0886, 4140.334
820.5707, 4230.902
821.0528, 4312.554
821.5349, 4381.976
822.0170, 4431.418
822.4991, 4450.918
822.9813, 4444.785
823.4634, 4436.441
823.9455, 4427.354
824.4276, 4378.070
824.9097, 4272.551
825.3918, 4156.967
825.8740, 4066.546
826.3561, 3992.270
826.8382, 3904.730
827.3203, 3797.282
827.8024, 3691.707
828.2845, 3580.566
828.7667, 3480.722
829.2488, 3404.139
829.7309, 3338.240
830.2130, 3268.780
830.6951, 3194.716
831.1772, 3123.239
831.6594, 3053.290
832.1415, 2989.635
832.6236, 2936.790
833.1057, 2889.138
833.5878, 2839.034
834.0699, 2788.344
834.5521, 2746.743
835.0342, 2720.134
835.5163, 2694.364
835.9984, 2652.258
836.4805, 2604.459
836.9626, 2567.832
837.4448, 2541.733
837.9269, 2520.663
838.4090, 2502.522
838.8911, 2485.064
839.3732, 2465.173
839.8553, 2444.902
840.3375, 2432.952
840.8196, 2429.527
841.3017, 2424.175
841.7838, 2415.379
842.2659, 2401.652
842.7480, 2378.676
843.2302, 2354.315
843.7123, 2350.173
844.1944, 2376.710
844.6765, 2387.905
845.1586, 2371.439
845.6407, 2357.996
846.1229, 2360.081
846.6050, 2368.359
847.0871, 2374.906
847.5692, 2379.565
848.0513, 2382.836
848.5334, 2386.011
849.0156, 2386.171
849.4977, 2376.731
849.9798, 2369.158
850.4619, 2376.544
850.9440, 2391.910
851.4261, 2398.006
851.9083, 2388.948
852.3904, 2380.511
852.8725, 2377.414
853.3546, 2384.826
853.8367, 2413.234
854.3188, 2454.886
854.8010, 2496.625
855.2831, 2534.435
855.7652, 2564.881
856.2473, 2582.665
856.7294, 2599.441
857.2115, 2636.282
857.6937, 2690.204
858.1758, 2749.632
858.6579, 2813.300
859.1400, 2879.116
859.6221, 2946.079
860.1042, 3016.194
860.5864, 3091.657
861.0685, 3172.438
861.5506, 3268.671
862.0327, 3381.700
862.5148, 3505.239
862.9969, 3638.395
863.4791, 3783.625
863.9612, 3945.226
864.4433, 4120.362
864.9254, 4295.255
865.4075, 4458.257
865.8896, 4646.906
866.3718, 4862.321
866.8539, 5102.235
867.3360, 5372.224
867.8181, 5662.580
868.3002, 5963.181
868.7823, 6272.884
869.2645, 6590.041
869.7466, 6909.733
870.2287, 7240.285
870.7108, 7581.569
871.1929, 7936.657
871.6750, 8307.476
872.1572, 8693.082
872.6393, 9094.109
873.1214, 9512.353
873.6035, 9923.543
874.0856, 10332.21
874.5677, 10709.03
875.0499, 11024.93
875.5320, 11285.15
876.0141, 11498.54
876.4962, 11668.41
876.9783, 11800.99
877.4604, 11903.78
877.9426, 11957.69
878.4247, 11937.22
878.9068, 11840.89
879.3889, 11653.66
879.8710, 11378.97
880.3531, 11055.14
880.8353, 10699.01
881.3174, 10309.52
881.7995, 9881.644
882.2816, 9421.509
882.7637, 8964.962
883.2458, 8512.767
883.7280, 8070.988
884.2101, 7644.664
884.6922, 7221.151
885.1743, 6788.447
885.6564, 6365.001
886.1385, 5989.181
886.6207, 5668.315
887.1028, 5368.471
887.5849, 5096.878
888.0670, 4836.046
888.5491, 4578.911
889.0313, 4333.617
889.5134, 4099.818
889.9955, 3881.756
890.4776, 3697.445
890.9597, 3568.403
891.4418, 3438.104
891.9240, 3290.286
892.4061, 3148.008
892.8882, 3018.619
893.3703, 2903.754
893.8524, 2810.569
894.3345, 2737.491
894.8167, 2660.016
895.2988, 2559.775
895.7809, 2463.701
896.2630, 2384.664
896.7451, 2317.616
897.2272, 2258.469
897.7094, 2206.718
898.1915, 2163.797
898.6736, 2130.320
899.1557, 2101.025
899.6378, 2074.197
900.1199, 2047.504
900.6021, 2016.379
901.0842, 1983.655
901.5663, 1957.043
902.0484, 1936.360
902.5305, 1913.376
903.0126, 1883.324
903.4948, 1847.032
903.9769, 1799.631
904.4590, 1747.954
904.9411, 1717.843
905.4232, 1707.463
905.9053, 1696.000
906.3875, 1676.667
906.8696, 1655.040
907.3517, 1636.522
907.8338, 1619.771
908.3159, 1599.174
908.7980, 1574.697
909.2802, 1556.048
909.7623, 1544.938
910.2444, 1534.518
910.7265, 1521.396
911.2086, 1507.977
911.6907, 1498.588
912.1729, 1493.071
912.6550, 1479.351
913.1371, 1454.635
913.6192, 1430.105
914.1013, 1405.952
914.5834, 1385.510
915.0656, 1371.126
915.5477, 1361.820
916.0298, 1356.148
916.5119, 1356.953
916.9940, 1350.576
917.4761, 1332.980
917.9583, 1313.926
918.4404, 1291.072
918.9225, 1271.448
919.4046, 1263.267
919.8867, 1263.164
920.3688, 1258.382
920.8510, 1245.045
921.3331, 1233.481
921.8152, 1222.592
922.2973, 1216.740
922.7794, 1222.003
923.2615, 1230.712
923.7437, 1235.453
924.2258, 1235.120
924.7079, 1229.051
925.1900, 1210.971
925.6721, 1197.154
926.1542, 1198.344
926.6364, 1202.560
927.1185, 1200.709
927.6006, 1194.788
928.0827, 1187.060
928.5648, 1179.038
929.0469, 1179.144
929.5291, 1205.008
930.0112, 1225.727
930.4933, 1206.655
930.9754, 1176.981
931.4575, 1176.037
931.9396, 1197.906
932.4218, 1215.326
932.9039, 1218.404
933.3860, 1215.701
933.8681, 1212.140
934.3502, 1208.905
934.8323, 1205.643
935.3145, 1204.549
935.7966, 1212.703
936.2787, 1228.553
936.7608, 1241.591
937.2429, 1246.254
937.7250, 1245.470
938.2072, 1240.708
938.6893, 1234.010
939.1714, 1226.867
939.6535, 1221.846
940.1356, 1231.193
940.6177, 1256.229
941.0999, 1282.287
941.5820, 1299.580
942.0641, 1309.151
942.5462, 1309.654
943.0283, 1303.639
943.5104, 1306.023
943.9926, 1316.550
944.4747, 1321.765
944.9568, 1317.281
945.4389, 1317.373
945.9210, 1336.759
946.4031, 1365.697
946.8853, 1374.511
947.3674, 1363.344
947.8495, 1361.131
948.3316, 1370.577
948.8137, 1379.151
949.2958, 1382.303
949.7780, 1380.999
950.2601, 1375.045
950.7422, 1366.407
951.2243, 1365.992
951.7064, 1374.779
952.1885, 1386.644
952.6707, 1403.252
953.1528, 1413.334
953.6349, 1408.819
954.1170, 1401.440
954.5991, 1408.826
955.0812, 1429.751
955.5634, 1436.467
956.0455, 1421.934
956.5276, 1414.546
957.0097, 1417.382
957.4918, 1429.441
957.9739, 1457.003
958.4561, 1485.916
958.9382, 1490.426
959.4203, 1467.893
959.9024, 1459.422
960.3845, 1473.825
960.8666, 1484.359
961.3488, 1481.923
961.8309, 1482.071
962.3130, 1497.706
962.7951, 1520.453
963.2772, 1532.157
963.7593, 1528.355
964.2415, 1537.493
964.7236, 1570.198
965.2057, 1600.409
965.6878, 1623.484
966.1699, 1643.173
966.6520, 1659.117
967.1342, 1674.178
967.6163, 1696.951
968.0984, 1733.186
968.5805, 1754.605
969.0626, 1743.467
969.5447, 1739.450
970.0269, 1756.967
970.5090, 1781.086
970.9911, 1803.820
971.4732, 1823.567
971.9553, 1836.303
972.4374, 1838.951
972.9196, 1844.384
973.4017, 1860.044
973.8838, 1871.603
974.3659, 1871.101
974.8480, 1866.807
975.3301, 1867.380
975.8123, 1870.389
976.2944, 1865.610
976.7765, 1846.295
977.2586, 1836.468
977.7407, 1851.509
978.2228, 1864.942
978.7050, 1864.208
979.1871, 1857.077
979.6692, 1847.678
980.1513, 1839.171
980.6334, 1841.022
981.1155, 1861.926
981.5977, 1872.191
982.0798, 1852.599
982.5619, 1832.423
983.0440, 1825.030
983.5261, 1825.964
984.0082, 1829.938
984.4904, 1836.868
984.9725, 1850.224
985.4546, 1875.336
985.9367, 1893.694
986.4188, 1895.088
986.9009, 1891.959
987.3831, 1884.501
987.8652, 1881.447
988.3473, 1895.759
988.8294, 1924.255
989.3115, 1949.529
989.7936, 1964.811
990.2758, 1980.995
990.7579, 2011.795
991.2400, 2034.686
991.7221, 2025.391
992.2042, 2006.272
992.6863, 2005.669
993.1685, 2023.114
993.6506, 2040.552
994.1327, 2053.563
994.6148, 2061.311
995.0969, 2062.278
995.5790, 2059.053
996.0612, 2051.609
996.5433, 2042.172
997.0254, 2031.340
997.5075, 2020.772
997.9896, 2015.953
998.4717, 2020.119
998.9539, 2026.042
999.4360, 2032.877
999.9181, 2037.672
1000.400, 2032.561
1000.882, 2027.873
1001.364, 2043.376
1001.847, 2073.262
1002.329, 2086.475
1002.811, 2069.780
1003.293, 2043.452
1003.775, 2004.925
1004.257, 1972.975
1004.739, 1969.018
1005.221, 1974.029
1005.703, 1964.941
1006.186, 1940.948
1006.668, 1912.011
1007.150, 1880.382
1007.632, 1848.120
1008.114, 1813.347
1008.596, 1781.415
1009.078, 1761.791
1009.560, 1742.953
1010.043, 1705.894
1010.525, 1655.825
1011.007, 1618.631
1011.489, 1605.207
1011.971, 1593.318
1012.453, 1573.386
1012.935, 1551.959
1013.417, 1531.658
1013.899, 1513.113
1014.382, 1495.711
1014.864, 1480.685
1015.346, 1472.155
1015.828, 1472.958
1016.310, 1473.031
1016.792, 1467.825
1017.274, 1461.704
1017.756, 1460.288
1018.239, 1456.615
1018.721, 1438.123
1019.203, 1411.478
1019.685, 1398.208
1020.167, 1405.784
1020.649, 1413.858
1021.131, 1414.188
1021.613, 1415.594
1022.095, 1425.033
1022.578, 1434.979
1023.060, 1436.069
1023.542, 1432.276
1024.024, 1436.693
1024.506, 1454.391
1024.988, 1462.393
1025.470, 1448.087
1025.952, 1431.794
1026.435, 1413.062
1026.917, 1402.665
1027.399, 1415.335
1027.881, 1441.011
1028.363, 1457.923
1028.845, 1462.318
1029.327, 1466.106
1029.809, 1465.582
1030.292, 1472.805
1030.774, 1503.291
1031.256, 1530.278
1031.738, 1529.505
1032.220, 1515.164
1032.702, 1513.763
1033.184, 1528.150
1033.666, 1541.659
1034.148, 1553.843
1034.630, 1563.196
1035.113, 1564.851
1035.595, 1568.647
1036.077, 1583.828
1036.559, 1602.476
1037.041, 1612.727
1037.523, 1614.262
1038.005, 1613.669
1038.487, 1607.019
1038.970, 1604.629
1039.452, 1602.648
1039.934, 1611.195
1040.416, 1645.496
1040.898, 1683.318
1041.380, 1695.278
1041.862, 1684.190
1042.344, 1681.871
1042.826, 1694.154
1043.309, 1701.880
1043.791, 1698.624
1044.273, 1701.818
1044.755, 1720.155
1045.237, 1744.637
1045.719, 1767.787
1046.201, 1789.009
1046.683, 1805.394
1047.166, 1815.560
1047.648, 1826.274
1048.130, 1838.831
1048.612, 1847.265
1049.094, 1846.828
1049.576, 1849.650
1050.058, 1867.355
1050.540, 1893.981
1051.022, 1912.485
1051.505, 1921.310
1051.987, 1938.946
1052.469, 1967.782
1052.951, 1988.832
1053.433, 1996.410
1053.915, 2001.653
1054.397, 2010.999
1054.879, 2026.437
1055.361, 2053.571
1055.844, 2091.027
1056.326, 2123.239
1056.808, 2150.426
1057.290, 2174.635
1057.772, 2196.265
1058.254, 2209.407
1058.736, 2209.750
1059.218, 2214.710
1059.701, 2252.367
1060.183, 2308.791
1060.665, 2331.216
1061.147, 2327.786
1061.629, 2344.166
1062.111, 2383.423
1062.593, 2423.553
1063.075, 2456.004
1063.557, 2488.355
1064.040, 2528.708
1064.522, 2570.929
1065.004, 2602.068
1065.486, 2626.498
1065.968, 2654.525
1066.450, 2685.917
1066.932, 2717.168
1067.414, 2747.228
1067.896, 2775.286
1068.379, 2799.071
1068.861, 2826.823
1069.343, 2876.085
1069.825, 2928.783
1070.307, 2950.699
1070.789, 2960.095
1071.271, 2999.261
1071.753, 3067.646
1072.236, 3130.518
1072.718, 3172.191
1073.200, 3208.542
1073.682, 3249.466
1074.164, 3292.092
1074.646, 3329.002
1075.128, 3370.119
1075.610, 3434.760
1076.093, 3513.084
1076.575, 3575.422
1077.057, 3613.556
1077.539, 3653.715
1078.021, 3710.654
1078.503, 3767.369
1078.985, 3812.938
1079.467, 3858.429
1079.949, 3914.729
1080.432, 3976.087
1080.914, 4032.983
1081.396, 4084.186
1081.878, 4133.164
1082.360, 4177.995
1082.842, 4224.962
1083.324, 4272.424
1083.806, 4325.111
1084.288, 4384.458
1084.771, 4450.484
1085.253, 4524.479
1085.735, 4604.692
1086.217, 4683.468
1086.699, 4758.971
1087.181, 4837.472
1087.663, 4921.533
1088.145, 5002.182
1088.628, 5071.984
1089.110, 5147.237
1089.592, 5241.058
1090.074, 5347.386
1090.556, 5450.586
1091.038, 5549.180
1091.520, 5689.425
1092.002, 5882.081
1092.484, 6035.859
1092.967, 6129.020
1093.449, 6230.264
1093.931, 6374.935
1094.413, 6547.782
1094.895, 6729.502
1095.377, 6924.150
1095.859, 7151.747
1096.341, 7406.711
1096.823, 7636.506
1097.306, 7841.050
1097.788, 8063.849
1098.270, 8318.962
1098.752, 8599.956
1099.234, 8900.146
1099.716, 9224.893
1100.198, 9600.336
1100.680, 9996.702
1101.163, 10325.97
1101.645, 10631.17
1102.127, 11033.45
1102.609, 11536.36
1103.091, 12067.66
1103.573, 12591.21
1104.055, 13107.55
1104.537, 13567.19
1105.020, 14068.22
1105.502, 14711.87
1105.984, 15441.17
1106.466, 16203.08
1106.948, 16987.31
1107.430, 17772.26
1107.912, 18560.58
1108.394, 19411.01
1108.876, 20367.65
1109.359, 21362.51
1109.841, 22345.16
1110.323, 23380.24
1110.805, 24495.56
1111.287, 25689.37
1111.769, 26960.93
1112.251, 28302.31
1112.733, 29681.92
1113.215, 31063.89
1113.698, 32549.46
1114.180, 34185.93
1114.662, 35840.78
1115.144, 37518.41
1115.626, 39180.01
1116.108, 40789.37
1116.590, 42380.27
1117.072, 44031.45
1117.555, 45746.13
1118.037, 47417.33
1118.519, 49062.10
1119.001, 50573.52
1119.483, 51944.31
1119.965, 53145.77
1120.447, 54163.91
1120.929, 55026.43
1121.411, 55764.81
1121.894, 56348.28
1122.376, 56694.85
1122.858, 56803.61
1123.340, 56654.04
1123.822, 56264.44
1124.304, 55724.30
1124.786, 55053.03
1125.268, 54211.44
1125.750, 53180.87
1126.233, 51969.95
1126.715, 50572.07
1127.197, 49030.69
1127.679, 47378.45
1128.161, 45644.43
1128.643, 43846.71
1129.125, 42001.73
1129.607, 40124.03
1130.090, 38221.32
1130.572, 36366.93
1131.054, 34591.74
1131.536, 32864.85
1132.018, 31142.38
1132.500, 29479.99
1132.982, 27903.49
1133.464, 26407.74
1133.947, 24985.46
1134.429, 23636.42
1134.911, 22352.31
1135.393, 21132.60
1135.875, 19985.90
1136.357, 18931.36
1136.839, 17936.33
1137.321, 16996.57
1137.803, 16113.73
1138.286, 15282.29
1138.768, 14510.43
1139.250, 13810.25
1139.732, 13180.52
1140.214, 12589.68
1140.696, 12036.32
1141.178, 11509.25
1141.660, 11005.60
1142.142, 10543.59
1142.625, 10132.57
1143.107, 9732.276
1143.589, 9307.642
1144.071, 8895.602
1144.553, 8570.642
1145.035, 8305.842
1145.517, 8022.512
1145.999, 7729.303
1146.482, 7442.591
1146.964, 7174.560
1147.446, 6963.625
1147.928, 6820.893
1148.410, 6680.356
1148.892, 6487.840
1149.374, 6286.952
1149.856, 6107.589
1150.339, 5949.402
1150.821, 5830.856
1151.303, 5722.626
1151.785, 5569.974
1152.267, 5383.183
1152.749, 5227.932
1153.231, 5126.338
1153.713, 5033.719
1154.195, 4942.918
1154.677, 4854.066
1155.160, 4769.692
1155.642, 4684.412
1156.124, 4595.313
1156.606, 4502.774
1157.088, 4405.492
1157.570, 4304.887
1158.052, 4219.085
1158.534, 4152.292
1159.017, 4079.972
1159.499, 3998.995
1159.981, 3926.947
1160.463, 3869.315
1160.945, 3820.489
1161.427, 3777.049
1161.909, 3733.339
1162.391, 3675.115
1162.874, 3609.957
1163.356, 3570.839
1163.838, 3545.179
1164.320, 3487.547
1164.802, 3402.597
1165.284, 3327.575
1165.766, 3275.013
1166.248, 3240.023
1166.730, 3224.712
1167.213, 3211.774
1167.695, 3190.202
1168.177, 3161.276
1168.659, 3122.277
1169.141, 3079.575
1169.623, 3037.519
1170.105, 2998.958
1170.587, 2971.651
1171.069, 2959.454
1171.552, 2936.738
1172.034, 2882.936
1172.516, 2843.509
1172.998, 2836.914
1173.480, 2829.320
1173.962, 2809.874
1174.444, 2777.666
1174.926, 2726.363
1175.409, 2665.713
1175.891, 2631.757
1176.373, 2626.499
1176.855, 2622.949
1177.337, 2621.470
1177.819, 2599.570
1178.301, 2553.746
1178.783, 2514.902
1179.266, 2498.025
1179.748, 2492.989
1180.230, 2491.873
1180.712, 2491.377
1181.194, 2485.733
1181.676, 2477.272
1182.158, 2475.122
1182.640, 2471.330
1183.122, 2441.145
1183.604, 2390.877
1184.087, 2362.083
1184.569, 2373.531
1185.051, 2379.100
1185.533, 2350.480
1186.015, 2321.462
1186.497, 2303.689
1186.979, 2293.103
1187.461, 2290.968
1187.944, 2291.445
1188.426, 2287.677
1188.908, 2279.454
1189.390, 2264.740
1189.872, 2237.689
1190.354, 2225.266
1190.836, 2229.549
1191.318, 2241.341
1191.801, 2260.719
1192.283, 2272.208
1192.765, 2266.357
1193.247, 2253.211
1193.729, 2244.521
1194.211, 2239.067
1194.693, 2233.005
1195.175, 2227.967
1195.657, 2232.860
1196.140, 2241.714
1196.622, 2234.400
1197.104, 2210.797
1197.586, 2189.717
1198.068, 2179.251
1198.550, 2174.209
1199.032, 2172.087
1199.514, 2173.502
1199.996, 2186.280
1200.479, 2195.024
1200.961, 2181.464
1201.443, 2159.930
1201.925, 2155.260
1202.407, 2164.820
1202.889, 2158.497
1203.371, 2125.583
1203.853, 2112.223
1204.336, 2125.198
1204.818, 2136.191
1205.300, 2139.933
1205.782, 2139.019
1206.264, 2134.236
1206.746, 2129.096
1207.228, 2127.598
1207.710, 2129.163
1208.193, 2135.634
1208.675, 2142.864
1209.157, 2134.797
1209.639, 2117.504
1210.121, 2110.760
1210.603, 2115.859
1211.085, 2121.529
1211.567, 2123.329
1212.049, 2124.055
1212.531, 2126.399
##END=



