##NAMES=Grossular
##RRUFFID=R060444
##IDEAL CHEMISTRY=Ca_3_Al_2_(SiO_4_)_3_
##LOCALITY=Pakistan (?)
##OWNER=RRUFF
##SOURCE=Gemological Institute of America
##DESCRIPTION=Tan colored crystals coating a surface
##STATUS=The identification of this mineral has been confirmed by X-ray diffraction and chemical analysis
##URL=rruff.info/R060444
##MEASURED CHEMISTRY=(Ca_2.98_Mn_0.02_)_Σ=3_(Al_1.84_Fe^3+^_0.13_Ti_0.03_)_Σ=2_((Si_0.99_Al_0.01_)_Σ=1_O_4_)_3_
91.40820, 7.323413
91.89032, 6.931070
92.37244, 7.133417
92.85455, 7.835344
93.33667, 8.468214
93.81879, 8.558541
94.30090, 8.246704
94.78302, 7.961148
95.26514, 7.812826
95.74725, 7.731514
96.22937, 7.520189
96.71149, 7.164514
97.19360, 6.862435
97.67572, 6.873198
98.15784, 7.190309
98.63995, 7.411291
99.12207, 7.386577
99.60419, 7.150956
100.0863, 6.995891
100.5684, 6.909392
101.0505, 6.928145
101.5327, 7.147292
102.0148, 7.644880
102.4969, 8.075068
102.9790, 8.315461
103.4611, 8.329973
103.9432, 8.330647
104.4253, 8.275462
104.9075, 8.229510
105.3896, 8.316304
105.8717, 8.525907
106.3538, 8.884522
106.8359, 9.458559
107.3180, 10.66779
107.8002, 11.34171
108.2823, 11.13935
108.7644, 10.33781
109.2465, 9.948781
109.7286, 10.26677
110.2107, 10.79353
110.6929, 11.32061
111.1750, 11.52736
111.6571, 12.08006
112.1392, 13.18146
112.6213, 14.76041
113.1034, 16.29014
113.5856, 17.72786
114.0677, 19.08739
114.5498, 20.36740
115.0319, 21.43203
115.5140, 22.55959
115.9961, 23.80873
116.4783, 25.18171
116.9604, 26.67080
117.4425, 28.43328
117.9246, 30.28081
118.4067, 31.99010
118.8888, 33.47744
119.3710, 34.82744
119.8531, 36.09295
120.3352, 37.27641
120.8173, 38.34055
121.2994, 38.95266
121.7815, 39.43540
122.2637, 40.35453
122.7458, 42.24361
123.2279, 44.56003
123.7100, 46.81686
124.1921, 48.97716
124.6742, 51.01776
125.1564, 52.79536
125.6385, 54.40206
126.1206, 56.13719
126.6027, 58.21205
127.0848, 60.51362
127.5669, 62.82922
128.0491, 65.11642
128.5312, 67.43085
129.0133, 69.95261
129.4954, 72.62794
129.9775, 75.17138
130.4596, 77.39268
130.9418, 79.29978
131.4239, 81.05412
131.9060, 82.80680
132.3881, 84.31287
132.8702, 84.65858
133.3523, 83.75108
133.8345, 82.94011
134.3166, 83.59982
134.7987, 85.72481
135.2808, 87.58036
135.7629, 88.76202
136.2450, 89.40261
136.7272, 89.97031
137.2093, 90.31538
137.6914, 91.04893
138.1735, 93.09615
138.6556, 96.78227
139.1377, 100.0079
139.6199, 102.1489
140.1020, 103.1936
140.5841, 104.5109
141.0662, 106.1799
141.5483, 107.9939
142.0304, 109.6687
142.5126, 111.0781
142.9947, 112.5571
143.4768, 113.8385
143.9589, 114.6784
144.4410, 115.6024
144.9231, 116.6719
145.4053, 117.7910
145.8874, 118.8652
146.3695, 120.0993
146.8516, 121.0102
147.3337, 121.3831
147.8158, 120.9443
148.2980, 120.7152
148.7801, 120.7359
149.2622, 120.9519
149.7443, 121.2577
150.2264, 121.9723
150.7085, 122.4995
151.1907, 122.6221
151.6728, 122.0861
152.1549, 121.5965
152.6370, 121.0037
153.1191, 120.4462
153.6012, 120.2928
154.0834, 120.9079
154.5655, 121.6587
155.0476, 122.3010
155.5297, 122.9622
156.0118, 123.2871
156.4939, 122.7748
156.9761, 121.7809
157.4582, 121.5202
157.9403, 122.9920
158.4224, 124.7927
158.9045, 126.0929
159.3866, 125.9312
159.8688, 126.1584
160.3509, 127.2998
160.8330, 129.2551
161.3151, 131.5769
161.7972, 134.8219
162.2793, 138.0039
162.7615, 140.3665
163.2436, 141.0269
163.7257, 141.4787
164.2078, 142.3121
164.6899, 143.4893
165.1720, 144.7551
165.6541, 146.1708
166.1363, 147.5411
166.6184, 148.6734
167.1005, 149.0825
167.5826, 149.5603
168.0647, 150.6186
168.5468, 152.2299
169.0290, 154.0522
169.5111, 156.1782
169.9932, 158.3182
170.4753, 160.0967
170.9574, 160.5860
171.4395, 161.1342
171.9217, 163.0160
172.4038, 166.2312
172.8859, 169.7918
173.3680, 172.7160
173.8501, 175.4718
174.3322, 178.9404
174.8144, 183.6976
175.2965, 189.3010
175.7786, 195.0564
176.2607, 200.9880
176.7428, 207.3537
177.2249, 214.9116
177.7071, 223.1055
178.1892, 230.7599
178.6713, 238.8610
179.1534, 245.6608
179.6355, 248.2716
180.1176, 246.5473
180.5998, 241.5959
181.0819, 233.3807
181.5640, 222.6049
182.0461, 211.4530
182.5282, 200.3525
183.0103, 189.7361
183.4925, 180.8096
183.9746, 173.7680
184.4567, 167.8902
184.9388, 162.1898
185.4209, 156.7533
185.9030, 152.4547
186.3852, 150.0535
186.8673, 149.1542
187.3494, 148.4100
187.8315, 147.8343
188.3136, 147.1945
188.7957, 145.7258
189.2779, 143.5515
189.7600, 142.2134
190.2421, 143.5237
190.7242, 146.7608
191.2063, 147.4624
191.6884, 144.9347
192.1706, 141.0859
192.6527, 138.6974
193.1348, 137.7966
193.6169, 137.3733
194.0990, 137.0344
194.5811, 136.7724
195.0633, 136.4385
195.5454, 135.9658
196.0275, 135.5302
196.5096, 135.5140
196.9917, 135.9446
197.4738, 136.4649
197.9560, 137.0166
198.4381, 137.6025
198.9202, 137.6955
199.4023, 137.1081
199.8844, 136.2578
200.3665, 136.0786
200.8487, 136.6947
201.3308, 137.2416
201.8129, 137.1950
202.2950, 136.4971
202.7771, 135.9774
203.2592, 135.6532
203.7414, 135.5285
204.2235, 135.6798
204.7056, 136.1875
205.1877, 136.6466
205.6698, 136.7441
206.1519, 136.3592
206.6341, 136.4627
207.1162, 137.2892
207.5983, 138.4345
208.0804, 138.9057
208.5625, 138.4842
209.0446, 138.0455
209.5268, 138.0153
210.0089, 138.4599
210.4910, 138.9890
210.9731, 139.5538
211.4552, 140.2303
211.9373, 141.2680
212.4195, 142.8485
212.9016, 144.3247
213.3837, 145.2392
213.8658, 145.2507
214.3479, 146.0787
214.8300, 148.1995
215.3121, 150.9075
215.7943, 152.3361
216.2764, 151.8769
216.7585, 151.3897
217.2406, 151.7332
217.7227, 153.1497
218.2048, 154.6005
218.6870, 156.0910
219.1691, 157.5984
219.6512, 159.0862
220.1333, 160.4901
220.6154, 162.0015
221.0975, 163.7832
221.5797, 165.9895
222.0618, 167.9575
222.5439, 169.6261
223.0260, 171.0853
223.5081, 172.5302
223.9902, 173.7860
224.4724, 175.3282
224.9545, 177.3105
225.4366, 179.7935
225.9187, 182.6489
226.4008, 186.0254
226.8829, 189.7332
227.3651, 193.3875
227.8472, 197.0010
228.3293, 200.6055
228.8114, 204.1453
229.2935, 207.3980
229.7757, 211.2771
230.2578, 216.0939
230.7399, 221.3391
231.2220, 226.0762
231.7041, 230.0365
232.1862, 233.8512
232.6684, 237.6883
233.1505, 241.4554
233.6326, 245.5384
234.1147, 249.9680
234.5968, 254.7020
235.0789, 259.6020
235.5611, 264.7743
236.0432, 269.9274
236.5253, 275.1582
237.0074, 280.6468
237.4895, 285.2573
237.9716, 288.8142
238.4538, 291.6049
238.9359, 294.1329
239.4180, 296.7928
239.9001, 298.5736
240.3822, 298.8935
240.8643, 297.2423
241.3465, 296.4629
241.8286, 296.5265
242.3107, 297.4780
242.7928, 299.4344
243.2749, 302.6824
243.7570, 306.4315
244.2392, 310.4388
244.7213, 314.6584
245.2034, 319.7556
245.6855, 327.1419
246.1676, 334.2843
246.6497, 338.2734
247.1319, 339.7333
247.6140, 336.8798
248.0961, 328.7658
248.5782, 314.9240
249.0603, 299.4395
249.5424, 280.6634
250.0246, 261.6869
250.5067, 245.5755
250.9888, 232.6424
251.4709, 221.9849
251.9530, 213.7001
252.4351, 207.8139
252.9173, 202.7408
253.3994, 198.4133
253.8815, 194.8573
254.3636, 192.0806
254.8457, 190.0741
255.3278, 188.9446
255.8100, 188.9333
256.2921, 190.0078
256.7742, 190.8172
257.2563, 191.1259
257.7384, 191.4835
258.2205, 192.3161
258.7026, 193.6300
259.1848, 195.4759
259.6669, 198.1389
260.1490, 201.4653
260.6311, 203.8282
261.1132, 204.8405
261.5953, 205.5282
262.0775, 206.5604
262.5596, 207.9090
263.0417, 209.7537
263.5238, 212.3181
264.0059, 215.3954
264.4880, 218.0796
264.9702, 220.2046
265.4523, 222.2160
265.9344, 224.2912
266.4165, 226.3154
266.8986, 228.9285
267.3807, 232.4107
267.8629, 236.4529
268.3450, 240.0828
268.8271, 243.2685
269.3092, 246.2229
269.7913, 248.9179
270.2734, 251.0893
270.7556, 254.3236
271.2377, 258.9830
271.7198, 264.5612
272.2019, 269.8640
272.6840, 274.7281
273.1661, 279.9062
273.6483, 285.9311
274.1304, 292.9356
274.6125, 299.5610
275.0946, 305.7856
275.5767, 311.5587
276.0588, 316.9867
276.5410, 322.2139
277.0231, 326.2653
277.5052, 329.0415
277.9873, 330.5839
278.4694, 328.8737
278.9515, 323.5277
279.4337, 315.7123
279.9158, 306.6659
280.3979, 296.3370
280.8800, 285.6452
281.3621, 274.8856
281.8442, 264.0908
282.3264, 253.8305
282.8085, 243.9848
283.2906, 235.1124
283.7727, 227.9464
284.2548, 222.4966
284.7369, 218.0379
285.2191, 214.5504
285.7012, 211.8891
286.1833, 209.3167
286.6654, 206.8099
287.1475, 204.5419
287.6296, 202.8489
288.1118, 201.6601
288.5939, 200.3166
289.0760, 198.5798
289.5581, 196.6566
290.0402, 194.9890
290.5223, 193.5712
291.0045, 192.3733
291.4866, 191.3823
291.9687, 190.5848
292.4508, 189.9739
292.9329, 189.6604
293.4150, 189.3566
293.8972, 188.3478
294.3793, 186.7083
294.8614, 185.2804
295.3435, 184.8217
295.8256, 185.0265
296.3077, 185.0164
296.7899, 184.6188
297.2720, 184.1868
297.7541, 184.3369
298.2362, 184.9327
298.7183, 185.3636
299.2004, 184.9334
299.6826, 184.1817
300.1647, 184.2097
300.6468, 185.1815
301.1289, 186.3891
301.6110, 187.0349
302.0931, 187.3273
302.5753, 187.8410
303.0574, 189.1769
303.5395, 190.7332
304.0216, 191.6342
304.5037, 191.8582
304.9858, 191.9406
305.4680, 192.1029
305.9501, 192.4622
306.4322, 193.2237
306.9143, 194.8694
307.3964, 196.6579
307.8785, 197.7807
308.3607, 198.3152
308.8428, 199.0335
309.3249, 200.7420
309.8070, 202.8167
310.2891, 204.5068
310.7712, 205.4510
311.2534, 206.1725
311.7355, 206.9392
312.2176, 207.7640
312.6997, 208.6791
313.1818, 209.6406
313.6639, 210.7160
314.1461, 212.0041
314.6282, 213.6280
315.1103, 215.2164
315.5924, 216.6505
316.0745, 217.9098
316.5566, 218.9737
317.0388, 219.8638
317.5209, 220.5202
318.0030, 220.9430
318.4851, 221.1609
318.9672, 221.0317
319.4493, 220.0338
319.9315, 218.7890
320.4136, 218.1108
320.8957, 218.4353
321.3778, 219.1884
321.8599, 220.2748
322.3420, 221.7156
322.8242, 223.1087
323.3063, 224.0467
323.7884, 225.0547
324.2705, 226.5910
324.7526, 229.3875
325.2347, 232.0365
325.7169, 234.0581
326.1990, 235.5354
326.6811, 237.3251
327.1632, 239.8211
327.6453, 242.4171
328.1274, 244.7786
328.6096, 247.3588
329.0917, 249.1364
329.5738, 249.7218
330.0559, 249.4420
330.5380, 249.3782
331.0201, 250.1155
331.5023, 250.4330
331.9844, 249.7558
332.4665, 247.5624
332.9486, 245.6548
333.4307, 244.0678
333.9128, 242.7570
334.3950, 241.6171
334.8771, 240.3513
335.3592, 239.8103
335.8413, 240.4543
336.3234, 242.4443
336.8055, 243.9878
337.2877, 244.9679
337.7698, 245.6403
338.2519, 246.1669
338.7340, 246.3775
339.2161, 247.0983
339.6982, 248.5580
340.1803, 250.6856
340.6624, 252.9964
341.1446, 255.5611
341.6267, 258.1658
342.1088, 260.6003
342.5909, 262.8228
343.0730, 265.5146
343.5551, 268.7983
344.0373, 272.5312
344.5194, 276.2586
345.0015, 279.9983
345.4836, 284.0236
345.9657, 288.4519
346.4478, 293.2945
346.9300, 298.6504
347.4121, 304.6242
347.8942, 310.9196
348.3763, 317.3600
348.8584, 323.8983
349.3405, 330.4041
349.8227, 336.7300
350.3048, 343.0095
350.7869, 349.3140
351.2690, 355.6024
351.7511, 362.5811
352.2332, 370.6999
352.7154, 379.9370
353.1975, 390.2628
353.6796, 401.8212
354.1617, 414.3064
354.6438, 427.0563
355.1259, 440.2626
355.6081, 454.9043
356.0902, 472.1119
356.5723, 491.0370
357.0544, 510.9444
357.5365, 531.6312
358.0186, 552.8436
358.5008, 574.3891
358.9829, 596.2760
359.4650, 618.5334
359.9471, 640.7295
360.4292, 663.6097
360.9113, 687.7608
361.3935, 713.0668
361.8756, 739.2667
362.3577, 765.5996
362.8398, 792.9709
363.3219, 822.4119
363.8040, 855.6331
364.2862, 889.5957
364.7683, 923.2548
365.2504, 956.7908
365.7325, 990.9938
366.2146, 1027.299
366.6967, 1063.803
367.1789, 1099.328
367.6610, 1133.424
368.1431, 1166.965
368.6252, 1201.346
369.1073, 1235.645
369.5894, 1266.390
370.0716, 1291.467
370.5537, 1315.417
371.0358, 1340.237
371.5179, 1367.034
372.0000, 1391.731
372.4821, 1416.311
372.9643, 1437.197
373.4464, 1450.026
373.9285, 1456.109
374.4106, 1451.153
374.8927, 1434.639
375.3748, 1406.322
375.8570, 1363.650
376.3391, 1303.964
376.8212, 1234.740
377.3033, 1158.992
377.7854, 1075.835
378.2675, 995.2151
378.7497, 916.4586
379.2318, 842.2041
379.7139, 777.3790
380.1960, 722.8232
380.6781, 674.2068
381.1602, 629.8135
381.6424, 589.7388
382.1245, 555.0099
382.6066, 525.6284
383.0887, 500.4965
383.5708, 478.2930
384.0529, 459.0269
384.5351, 441.7086
385.0172, 426.3846
385.4993, 412.8344
385.9814, 400.0811
386.4635, 388.2534
386.9456, 377.7753
387.4278, 369.7484
387.9099, 363.2933
388.3920, 356.9028
388.8741, 350.1922
389.3562, 343.5319
389.8383, 336.9268
390.3205, 330.4917
390.8026, 324.7421
391.2847, 320.0333
391.7668, 316.0604
392.2489, 312.6629
392.7310, 309.9307
393.2132, 307.2850
393.6953, 304.1052
394.1774, 300.9943
394.6595, 298.6650
395.1416, 297.9980
395.6237, 297.5460
396.1059, 296.8942
396.5880, 296.0317
397.0701, 295.0170
397.5522, 293.1079
398.0343, 291.5699
398.5164, 291.1728
398.9986, 293.5074
399.4807, 295.0003
399.9628, 294.9974
400.4449, 294.1284
400.9270, 293.8398
401.4091, 294.3661
401.8913, 295.1754
402.3734, 296.1428
402.8555, 297.2987
403.3376, 298.4323
403.8197, 299.4999
404.3018, 300.5926
404.7840, 301.9079
405.2661, 303.6518
405.7482, 304.8350
406.2303, 305.0098
406.7124, 304.5362
407.1945, 304.9391
407.6767, 306.2680
408.1588, 308.2085
408.6409, 310.6869
409.1230, 313.6651
409.6051, 316.8015
410.0872, 320.1640
410.5694, 323.4686
411.0515, 325.8780
411.5336, 327.6212
412.0157, 330.0767
412.4978, 334.5734
412.9799, 339.9954
413.4621, 344.1661
413.9442, 347.1376
414.4263, 349.4218
414.9084, 352.2144
415.3905, 354.4633
415.8727, 354.4968
416.3548, 351.6865
416.8369, 346.8342
417.3190, 340.0069
417.8011, 331.6362
418.2832, 322.7187
418.7654, 313.2590
419.2475, 303.8393
419.7296, 294.7915
420.2117, 285.9499
420.6938, 278.2007
421.1759, 272.1473
421.6581, 267.2660
422.1402, 262.9342
422.6223, 259.3669
423.1044, 256.0095
423.5865, 252.5932
424.0686, 249.2144
424.5508, 246.5080
425.0329, 245.0326
425.5150, 243.8712
425.9971, 242.5874
426.4792, 240.8587
426.9613, 239.7261
427.4435, 239.6366
427.9256, 239.9077
428.4077, 239.3553
428.8898, 237.4241
429.3719, 235.8934
429.8540, 235.2607
430.3362, 235.4778
430.8183, 235.9919
431.3004, 236.9832
431.7825, 237.7441
432.2646, 237.4786
432.7467, 236.1846
433.2289, 235.2916
433.7110, 235.0828
434.1931, 235.2224
434.6752, 235.0326
435.1573, 234.5589
435.6394, 234.3145
436.1216, 234.8391
436.6037, 235.7346
437.0858, 236.0083
437.5679, 235.6284
438.0500, 235.2222
438.5321, 235.3743
439.0142, 235.8696
439.4963, 236.3398
439.9785, 236.6257
440.4606, 236.9268
440.9427, 237.5647
441.4248, 238.3800
441.9069, 238.8849
442.3890, 238.2109
442.8712, 237.6072
443.3533, 238.1872
443.8354, 240.4629
444.3175, 241.9270
444.7996, 240.7293
445.2817, 238.7124
445.7639, 237.7920
446.2460, 239.6323
446.7281, 241.1340
447.2102, 241.3721
447.6923, 240.5876
448.1744, 240.5648
448.6566, 242.0025
449.1387, 243.4639
449.6208, 244.2629
450.1029, 244.0807
450.5850, 244.2031
451.0671, 244.6911
451.5493, 245.4165
452.0314, 246.2010
452.5135, 247.0228
452.9956, 248.0183
453.4777, 249.4019
453.9598, 250.9504
454.4420, 251.5705
454.9241, 251.1768
455.4062, 250.6111
455.8883, 250.4305
456.3704, 250.5937
456.8525, 250.9331
457.3347, 251.4318
457.8168, 252.0813
458.2989, 253.0571
458.7810, 254.2034
459.2631, 255.0286
459.7452, 255.1690
460.2274, 254.9808
460.7095, 254.6552
461.1916, 254.2487
461.6737, 254.2360
462.1558, 255.4539
462.6379, 256.9038
463.1201, 257.5421
463.6022, 256.6670
464.0843, 256.1718
464.5664, 257.2635
465.0485, 259.1377
465.5306, 260.5123
466.0128, 260.6476
466.4949, 260.6768
466.9770, 260.8149
467.4591, 261.0677
467.9412, 261.6959
468.4233, 263.1182
468.9055, 264.5620
469.3876, 265.5842
469.8697, 265.9656
470.3518, 266.4020
470.8339, 266.8922
471.3160, 267.4712
471.7982, 268.0962
472.2803, 268.6194
472.7624, 269.8478
473.2445, 272.3816
473.7266, 275.8901
474.2087, 278.2092
474.6909, 279.2221
475.1730, 279.9686
475.6551, 281.3892
476.1372, 283.2937
476.6193, 284.9139
477.1014, 286.1158
477.5836, 287.0067
478.0657, 287.6966
478.5478, 288.1750
479.0299, 288.4076
479.5120, 288.8421
479.9941, 288.7197
480.4763, 286.9130
480.9584, 283.5919
481.4405, 280.5102
481.9226, 278.7965
482.4047, 277.6281
482.8868, 276.2554
483.3690, 274.1026
483.8511, 272.6727
484.3332, 272.9841
484.8153, 274.1708
485.2974, 274.8260
485.7795, 274.0989
486.2617, 273.5077
486.7438, 273.3966
487.2259, 273.7599
487.7080, 274.1636
488.1901, 274.4992
488.6722, 275.0215
489.1544, 275.9152
489.6365, 277.2467
490.1186, 278.6906
490.6007, 280.3072
491.0828, 281.9345
491.5649, 283.3037
492.0471, 284.3890
492.5292, 285.5198
493.0113, 286.7119
493.4934, 288.0498
493.9755, 290.0502
494.4576, 292.6504
494.9398, 294.9100
495.4219, 295.4782
495.9040, 295.3644
496.3861, 296.5902
496.8682, 299.6310
497.3503, 302.7486
497.8325, 304.5884
498.3146, 305.5582
498.7967, 306.3272
499.2788, 306.6455
499.7609, 307.2960
500.2430, 308.8913
500.7252, 311.2241
501.2073, 313.4007
501.6894, 314.6774
502.1715, 316.1074
502.6536, 318.1921
503.1357, 321.0378
503.6179, 324.3797
504.1000, 328.7405
504.5821, 333.2310
505.0642, 336.8667
505.5463, 338.9541
506.0284, 341.7664
506.5106, 345.9966
506.9927, 351.0198
507.4748, 354.7991
507.9569, 357.2304
508.4390, 358.8950
508.9211, 360.4980
509.4033, 361.7930
509.8854, 360.4979
510.3675, 356.4688
510.8496, 351.0541
511.3317, 344.9969
511.8138, 338.5684
512.2960, 332.5724
512.7781, 326.9722
513.2602, 322.0836
513.7423, 318.4128
514.2244, 315.7044
514.7065, 313.3338
515.1887, 311.0225
515.6708, 308.9258
516.1529, 307.0966
516.6350, 305.5376
517.1171, 304.4628
517.5992, 304.2939
518.0814, 304.4160
518.5635, 304.4244
519.0456, 304.0703
519.5277, 303.9371
520.0098, 304.1259
520.4919, 304.5141
520.9741, 304.8651
521.4562, 304.8351
521.9383, 305.4891
522.4204, 307.3427
522.9025, 310.1221
523.3846, 311.9901
523.8668, 312.7393
524.3489, 313.3861
524.8310, 314.7430
525.3131, 316.6764
525.7952, 317.9419
526.2773, 318.4471
526.7595, 318.5624
527.2416, 318.5423
527.7237, 318.4594
528.2058, 318.4825
528.6879, 318.5853
529.1700, 318.9297
529.6522, 319.7188
530.1343, 320.8871
530.6164, 322.2643
531.0985, 323.3452
531.5806, 324.9337
532.0627, 327.5022
532.5449, 331.0860
533.0270, 335.4301
533.5091, 340.8951
533.9912, 346.8032
534.4733, 352.5988
534.9554, 358.1992
535.4376, 363.8701
535.9197, 369.6277
536.4018, 375.4069
536.8839, 380.7960
537.3660, 385.4361
537.8481, 390.7373
538.3303, 397.0631
538.8124, 404.3850
539.2945, 412.8331
539.7766, 422.4828
540.2587, 432.6086
540.7408, 442.5074
541.2230, 452.4948
541.7051, 463.3232
542.1872, 475.0321
542.6693, 487.6754
543.1514, 501.4157
543.6335, 516.1898
544.1157, 532.3614
544.5978, 550.9159
545.0799, 569.6031
545.5620, 586.9397
546.0441, 603.0663
546.5262, 618.3229
547.0084, 634.8643
547.4905, 648.6647
547.9726, 659.3190
548.4547, 666.9501
548.9368, 667.2468
549.4189, 658.6901
549.9011, 643.6390
550.3832, 622.7996
550.8653, 593.5054
551.3474, 564.2331
551.8295, 534.6664
552.3116, 506.0258
552.7938, 479.9453
553.2759, 456.3358
553.7580, 436.3054
554.2401, 420.6615
554.7222, 408.3529
555.2043, 396.8651
555.6865, 386.3315
556.1686, 377.1219
556.6507, 369.2714
557.1328, 363.0218
557.6149, 359.1465
558.0970, 357.7043
558.5792, 356.4269
559.0613, 353.5670
559.5434, 350.1629
560.0255, 347.2609
560.5076, 345.2767
560.9897, 343.5729
561.4719, 341.6795
561.9540, 339.9851
562.4361, 339.1583
562.9182, 340.1193
563.4003, 341.0081
563.8824, 341.6072
564.3646, 341.8884
564.8467, 341.5968
565.3288, 340.3882
565.8109, 339.2999
566.2930, 338.8301
566.7751, 338.9895
567.2573, 339.6622
567.7394, 340.9960
568.2215, 342.1746
568.7036, 342.2027
569.1857, 341.3378
569.6678, 340.5123
570.1500, 339.8929
570.6321, 339.4607
571.1142, 339.1834
571.5963, 339.0865
572.0784, 339.2249
572.5605, 340.1975
573.0427, 340.9181
573.5248, 340.3351
574.0069, 338.7172
574.4890, 337.8130
574.9711, 339.0576
575.4532, 340.4437
575.9354, 340.8889
576.4175, 339.9615
576.8996, 339.4695
577.3817, 339.7421
577.8638, 340.1325
578.3459, 339.9823
578.8281, 339.0736
579.3102, 338.5570
579.7923, 338.6785
580.2744, 339.0584
580.7565, 338.8179
581.2386, 338.0091
581.7208, 337.6146
582.2029, 338.3064
582.6850, 339.4310
583.1671, 339.6652
583.6492, 339.1676
584.1313, 338.8802
584.6135, 339.5998
585.0956, 340.6890
585.5776, 341.4119
586.0598, 341.6227
586.5419, 342.3471
587.0240, 344.7881
587.5061, 347.4991
587.9882, 349.2790
588.4703, 349.4010
588.9525, 349.3103
589.4346, 348.8170
589.9167, 348.2623
590.3988, 348.2850
590.8809, 349.2370
591.3630, 349.8291
591.8452, 349.7086
592.3273, 349.0220
592.8094, 348.3152
593.2915, 347.5886
593.7736, 346.7845
594.2557, 345.8047
594.7379, 344.7321
595.2200, 343.6928
595.7021, 342.7008
596.1842, 341.9455
596.6663, 341.7122
597.1484, 341.7529
597.6306, 341.7581
598.1127, 341.6293
598.5948, 341.5834
599.0769, 341.7509
599.5590, 342.0547
600.0411, 342.3979
600.5233, 342.8579
601.0054, 343.2374
601.4875, 343.2661
601.9696, 343.1972
602.4517, 343.8569
602.9338, 345.5795
603.4160, 347.3292
603.8981, 348.7777
604.3802, 349.9508
604.8623, 351.0476
605.3444, 352.0792
605.8265, 353.0166
606.3087, 353.4044
606.7908, 353.6877
607.2729, 355.2132
607.7550, 358.1621
608.2371, 361.8364
608.7192, 367.4166
609.2014, 372.7687
609.6835, 374.6093
610.1656, 368.9588
610.6477, 364.7280
611.1298, 367.8226
611.6119, 374.6007
612.0941, 378.5990
612.5762, 375.6539
613.0583, 373.0292
613.5404, 372.3412
614.0225, 373.2443
614.5046, 373.7624
614.9868, 373.5769
615.4689, 373.7253
615.9510, 374.7946
616.4331, 376.7330
616.9152, 378.3858
617.3973, 379.6696
617.8795, 381.3383
618.3616, 384.3245
618.8437, 388.1512
619.3258, 391.9310
619.8079, 395.7831
620.2900, 398.4356
620.7722, 397.7303
621.2543, 395.4702
621.7364, 394.1892
622.2185, 394.8913
622.7006, 396.4115
623.1827, 398.9971
623.6649, 402.1151
624.1470, 404.4913
624.6291, 404.6588
625.1112, 405.7735
625.5933, 409.0280
626.0754, 413.9850
626.5576, 417.2979
627.0397, 418.7182
627.5218, 419.2923
628.0039, 419.4512
628.4860, 419.2138
628.9681, 418.8051
629.4503, 418.2361
629.9324, 417.3018
630.4145, 415.6551
630.8966, 413.5590
631.3787, 411.4834
631.8608, 409.5776
632.3430, 407.5196
632.8251, 404.9759
633.3072, 402.2144
633.7893, 399.5279
634.2714, 396.9070
634.7535, 394.4782
635.2357, 392.1265
635.7178, 389.9867
636.1999, 388.4185
636.6820, 387.9233
637.1641, 387.0445
637.6462, 385.1618
638.1284, 382.5887
638.6105, 381.1346
639.0926, 380.8587
639.5747, 381.0062
640.0568, 381.2208
640.5389, 381.5101
641.0211, 382.0358
641.5032, 382.7852
641.9853, 383.2376
642.4674, 382.6913
642.9495, 381.7766
643.4316, 381.2024
643.9138, 381.1620
644.3959, 381.1956
644.8780, 381.2303
645.3601, 381.1939
645.8422, 381.0140
646.3243, 380.3249
646.8065, 379.9818
647.2886, 380.1343
647.7707, 380.5795
648.2528, 381.0784
648.7349, 381.7773
649.2170, 381.8013
649.6992, 380.5938
650.1813, 378.8651
650.6634, 378.5505
651.1455, 379.5458
651.6276, 380.7599
652.1097, 381.9056
652.5919, 382.7682
653.0740, 382.8126
653.5561, 382.1657
654.0382, 381.8600
654.5203, 382.5813
655.0024, 383.7516
655.4846, 385.2623
655.9667, 387.3710
656.4488, 388.3579
656.9309, 386.7224
657.4130, 384.8741
657.8951, 384.5059
658.3773, 386.3288
658.8594, 387.4942
659.3415, 387.7035
659.8236, 387.6135
660.3057, 388.3324
660.7878, 389.7311
661.2700, 390.3289
661.7521, 389.5126
662.2342, 388.3741
662.7163, 388.4935
663.1984, 389.4536
663.6805, 390.2011
664.1627, 389.7832
664.6448, 389.4523
665.1269, 390.0809
665.6090, 391.4503
666.0911, 392.6805
666.5732, 393.4257
667.0554, 394.1520
667.5375, 395.0301
668.0196, 396.0601
668.5017, 397.0510
668.9838, 398.1185
669.4659, 398.8809
669.9481, 398.9390
670.4302, 398.3480
670.9123, 398.1362
671.3944, 398.3249
671.8765, 398.7081
672.3586, 399.1507
672.8408, 399.6328
673.3229, 400.0960
673.8050, 400.4979
674.2871, 401.0472
674.7692, 402.2914
675.2513, 403.5818
675.7335, 404.1930
676.2156, 403.0768
676.6977, 402.3881
677.1798, 402.4977
677.6619, 403.1517
678.1440, 404.0206
678.6262, 405.1737
679.1083, 406.4254
679.5904, 407.9218
680.0725, 409.3417
680.5546, 409.6317
681.0367, 408.8646
681.5189, 408.5739
682.0010, 409.8917
682.4831, 411.8132
682.9652, 412.6564
683.4473, 412.6512
683.9294, 412.9770
684.4116, 414.8692
684.8937, 416.8135
685.3758, 417.7980
685.8579, 417.7123
686.3400, 417.6388
686.8221, 417.5416
687.3043, 417.7139
687.7864, 418.4923
688.2685, 420.1899
688.7506, 420.5420
689.2327, 419.0371
689.7148, 417.5528
690.1970, 418.1851
690.6791, 420.5546
691.1612, 422.1547
691.6433, 422.6051
692.1254, 422.7246
692.6075, 423.4199
693.0897, 424.3151
693.5718, 424.7361
694.0539, 423.9878
694.5360, 423.6962
695.0181, 425.0956
695.5002, 427.2730
695.9824, 428.8215
696.4645, 428.8757
696.9466, 429.2179
697.4287, 430.1389
697.9108, 431.4339
698.3929, 432.6414
698.8751, 433.8013
699.3572, 434.7111
699.8393, 435.2490
700.3214, 435.5511
700.8035, 435.8118
701.2856, 436.0792
701.7678, 436.6388
702.2499, 438.2880
702.7320, 439.8492
703.2141, 439.8353
703.6962, 438.4827
704.1783, 437.7708
704.6605, 439.2408
705.1426, 440.8238
705.6247, 441.2103
706.1068, 440.1265
706.5889, 440.3630
707.0710, 442.5370
707.5532, 444.9515
708.0353, 446.6484
708.5174, 447.6288
708.9995, 447.8583
709.4816, 447.2246
709.9637, 446.7112
710.4459, 447.5988
710.9280, 449.2067
711.4101, 450.1725
711.8922, 450.1642
712.3743, 450.1586
712.8564, 450.8379
713.3386, 451.8308
713.8207, 452.7459
714.3028, 453.1284
714.7849, 454.0068
715.2670, 456.0744
715.7491, 458.2600
716.2313, 458.9738
716.7134, 457.6403
717.1955, 457.2987
717.6776, 458.7683
718.1597, 460.9098
718.6418, 461.3252
719.1240, 460.4105
719.6061, 460.1613
720.0882, 461.9580
720.5703, 463.9366
721.0524, 463.6856
721.5345, 462.1203
722.0167, 461.4405
722.4988, 463.2149
722.9809, 465.2701
723.4630, 467.1927
723.9451, 468.8211
724.4272, 469.4106
724.9094, 468.2639
725.3915, 467.4319
725.8736, 467.6091
726.3557, 468.7081
726.8378, 470.5919
727.3199, 473.2987
727.8021, 475.4123
728.2842, 475.2773
728.7663, 474.3062
729.2484, 475.2169
729.7305, 477.8438
730.2126, 479.7847
730.6948, 478.4236
731.1769, 476.8524
731.6590, 477.4398
732.1411, 480.8716
732.6232, 483.2788
733.1053, 483.9357
733.5875, 484.0550
734.0696, 484.2051
734.5517, 484.3196
735.0338, 485.0501
735.5159, 486.4912
735.9980, 488.1862
736.4802, 490.1621
736.9623, 492.0352
737.4444, 492.3476
737.9265, 490.7046
738.4086, 489.3805
738.8907, 490.4325
739.3729, 492.5879
739.8550, 494.4913
740.3371, 495.8406
740.8192, 496.9921
741.3013, 497.9266
741.7834, 498.7174
742.2656, 499.4063
742.7477, 499.9497
743.2298, 500.4464
743.7119, 500.7705
744.1940, 501.3012
744.6761, 502.8146
745.1583, 505.1118
745.6404, 507.1908
746.1225, 508.7454
746.6046, 510.0889
747.0867, 511.3320
747.5688, 512.6180
748.0510, 514.1677
748.5331, 517.0100
749.0152, 519.0627
749.4973, 519.1050
749.9794, 518.1307
750.4615, 518.0216
750.9437, 518.7557
751.4258, 520.5410
751.9079, 523.8874
752.3900, 527.8876
752.8721, 530.2047
753.3542, 530.9621
753.8364, 531.6749
754.3185, 532.8787
754.8006, 534.4396
755.2827, 536.3253
755.7648, 538.4438
756.2469, 540.4862
756.7291, 542.0857
757.2112, 543.8141
757.6933, 546.0886
758.1754, 548.7528
758.6575, 550.9548
759.1396, 552.3165
759.6218, 553.9286
760.1039, 556.2100
760.5860, 559.0251
761.0681, 562.1458
761.5502, 565.5438
762.0323, 568.5858
762.5145, 570.5310
762.9966, 572.1563
763.4787, 574.7475
763.9608, 578.1259
764.4429, 581.0825
764.9250, 582.3964
765.4072, 583.7190
765.8893, 586.2702
766.3714, 590.1788
766.8535, 592.4802
767.3356, 592.0495
767.8177, 592.0188
768.2999, 594.1713
768.7820, 598.2268
769.2641, 601.4764
769.7462, 603.8844
770.2283, 605.8692
770.7104, 607.7625
771.1926, 609.4004
771.6747, 610.4463
772.1568, 610.8927
772.6389, 611.3183
773.1210, 611.9086
773.6031, 612.6451
774.0853, 613.6855
774.5674, 615.2165
775.0495, 615.8181
775.5316, 614.8839
776.0137, 614.1033
776.4958, 615.1567
776.9780, 617.8725
777.4601, 617.6583
777.9422, 614.2678
778.4243, 611.1489
778.9064, 612.1511
779.3885, 614.7238
779.8707, 615.2581
780.3528, 613.1897
780.8349, 611.1661
781.3170, 610.0757
781.7991, 609.6934
782.2813, 610.0908
782.7633, 611.7267
783.2454, 612.2467
783.7275, 611.1438
784.2097, 609.8741
784.6918, 609.6435
785.1739, 610.3748
785.6560, 611.4649
786.1381, 612.9343
786.6202, 614.1669
787.1024, 614.4551
787.5845, 614.2521
788.0666, 613.9237
788.5487, 613.3463
789.0308, 613.6332
789.5129, 616.0190
789.9951, 618.8607
790.4772, 620.7415
790.9593, 620.9730
791.4414, 622.4243
791.9235, 625.5844
792.4056, 628.8597
792.8878, 630.2751
793.3699, 630.3139
793.8520, 631.7894
794.3341, 635.1281
794.8162, 638.7184
795.2983, 641.1088
795.7805, 643.0790
796.2626, 645.5687
796.7447, 648.8859
797.2268, 652.2596
797.7089, 655.3299
798.1910, 658.5829
798.6732, 662.4385
799.1553, 667.2773
799.6374, 671.3997
800.1195, 674.5618
800.6016, 677.6884
801.0837, 681.8491
801.5659, 686.8055
802.0480, 692.0328
802.5301, 697.4926
803.0122, 702.5398
803.4943, 705.6226
803.9764, 708.6833
804.4586, 713.8496
804.9407, 722.6502
805.4228, 730.6363
805.9049, 736.8525
806.3870, 742.6936
806.8691, 749.3525
807.3513, 756.8295
807.8334, 765.0215
808.3155, 774.0624
808.7976, 783.0741
809.2797, 790.6765
809.7618, 797.7217
810.2440, 805.8132
810.7261, 815.3329
811.2082, 825.2690
811.6903, 835.6993
812.1724, 845.9342
812.6545, 855.1121
813.1367, 862.4048
813.6188, 870.8184
814.1009, 880.5532
814.5830, 890.9421
815.0651, 901.5389
815.5472, 912.3209
816.0294, 922.9330
816.5115, 933.2766
816.9936, 943.4342
817.4757, 953.0494
817.9578, 962.5878
818.4399, 972.5406
818.9221, 982.8680
819.4042, 993.8301
819.8863, 1005.910
820.3684, 1018.373
820.8505, 1031.014
821.3326, 1044.330
821.8148, 1055.779
822.2969, 1065.011
822.7790, 1073.375
823.2611, 1082.923
823.7432, 1092.436
824.2253, 1097.446
824.7075, 1097.515
825.1896, 1095.970
825.6717, 1096.105
826.1538, 1095.070
826.6359, 1090.224
827.1180, 1080.777
827.6002, 1070.243
828.0823, 1058.707
828.5644, 1046.722
829.0465, 1034.901
829.5286, 1023.453
830.0107, 1009.528
830.4929, 992.9704
830.9750, 977.5509
831.4571, 967.4503
831.9392, 960.0439
832.4213, 951.6811
832.9034, 942.2424
833.3856, 932.5226
833.8677, 921.2966
834.3498, 911.4142
834.8319, 904.9186
835.3140, 901.9079
835.7961, 898.7682
836.2783, 895.3470
836.7604, 892.1932
837.2425, 889.7670
837.7246, 887.8443
838.2067, 885.2257
838.6888, 882.0169
839.1710, 879.5659
839.6531, 878.3708
840.1352, 878.5773
840.6173, 881.2839
841.0994, 886.0975
841.5815, 889.0569
842.0637, 887.7452
842.5458, 886.4623
843.0279, 886.4587
843.5100, 887.5721
843.9921, 888.8449
844.4742, 890.2656
844.9564, 891.9725
845.4385, 894.0839
845.9206, 896.5099
846.4027, 899.3344
846.8848, 902.4121
847.3669, 905.2058
847.8491, 907.0639
848.3312, 909.0599
848.8133, 911.9744
849.2954, 915.4277
849.7775, 918.1017
850.2596, 919.9278
850.7418, 921.1158
851.2239, 921.2744
851.7060, 921.3378
852.1881, 923.9980
852.6702, 928.5442
853.1523, 932.0991
853.6345, 932.8563
854.1166, 933.0079
854.5987, 933.3864
855.0808, 934.2976
855.5629, 936.3899
856.0450, 940.9608
856.5272, 944.8591
857.0093, 947.1871
857.4914, 949.2590
857.9735, 953.2496
858.4556, 959.1033
858.9377, 966.3321
859.4199, 974.9874
859.9020, 984.0927
860.3841, 991.9417
860.8662, 999.7068
861.3483, 1009.260
861.8304, 1021.250
862.3126, 1034.670
862.7947, 1048.966
863.2768, 1064.782
863.7589, 1082.693
864.2410, 1102.927
864.7231, 1124.736
865.2053, 1148.258
865.6874, 1173.215
866.1695, 1200.043
866.6516, 1228.226
867.1337, 1256.473
867.6158, 1284.273
868.0980, 1314.630
868.5801, 1350.199
869.0622, 1388.553
869.5443, 1427.879
870.0264, 1468.243
870.5085, 1510.637
870.9907, 1554.789
871.4728, 1600.452
871.9549, 1646.524
872.4370, 1693.475
872.9191, 1743.299
873.4012, 1796.342
873.8834, 1850.597
874.3655, 1904.818
874.8476, 1961.063
875.3297, 2016.824
875.8118, 2075.851
876.2939, 2134.798
876.7761, 2194.526
877.2582, 2252.135
877.7403, 2307.618
878.2224, 2360.166
878.7045, 2405.834
879.1866, 2444.579
879.6688, 2472.998
880.1509, 2488.780
880.6330, 2493.802
881.1151, 2491.001
881.5972, 2478.994
882.0793, 2454.085
882.5615, 2410.140
883.0436, 2358.615
883.5257, 2301.465
884.0078, 2239.034
884.4899, 2171.214
884.9720, 2097.786
885.4542, 2022.917
885.9363, 1946.491
886.4184, 1871.173
886.9005, 1799.749
887.3826, 1731.779
887.8647, 1667.006
888.3469, 1605.140
888.8290, 1546.569
889.3111, 1491.890
889.7932, 1441.092
890.2753, 1393.874
890.7574, 1350.126
891.2396, 1310.047
891.7217, 1273.687
892.2038, 1239.785
892.6859, 1206.688
893.1680, 1175.098
893.6501, 1146.086
894.1323, 1119.508
894.6144, 1096.075
895.0965, 1077.370
895.5786, 1060.750
896.0607, 1044.017
896.5428, 1026.765
897.0250, 1012.038
897.5071, 1000.477
897.9892, 989.3777
898.4713, 975.9756
898.9534, 961.8395
899.4355, 951.4464
899.9177, 944.5270
900.3998, 938.5060
900.8819, 932.6481
901.3640, 926.6979
901.8461, 920.1016
902.3282, 913.2057
902.8104, 907.8520
903.2925, 904.6846
903.7746, 901.5596
904.2567, 897.7242
904.7388, 893.7438
905.2209, 891.4274
905.7031, 890.2627
906.1852, 888.0895
906.6673, 883.1832
907.1494, 878.3879
907.6315, 875.7745
908.1136, 874.4650
908.5958, 873.0941
909.0779, 871.4451
909.5600, 869.8774
910.0421, 868.4476
910.5242, 867.0814
911.0063, 865.6528
911.4885, 864.1884
911.9706, 862.7840
912.4527, 861.4645
912.9348, 860.1807
913.4169, 858.8133
913.8990, 857.5071
914.3812, 856.3223
914.8633, 855.1735
915.3454, 854.6212
915.8275, 854.8065
916.3096, 855.3223
916.7917, 856.2369
917.2739, 857.3358
917.7560, 857.1071
918.2381, 855.6154
918.7202, 853.7558
919.2023, 851.5615
919.6844, 849.6866
920.1666, 848.8848
920.6487, 848.9350
921.1308, 848.6163
921.6129, 847.6561
922.0950, 846.4603
922.5771, 844.8577
923.0593, 843.3356
923.5414, 843.6676
924.0235, 845.4891
924.5056, 846.0657
924.9877, 843.7994
925.4698, 841.5086
925.9520, 841.9926
926.4341, 843.8610
926.9162, 845.1611
927.3983, 844.9352
927.8804, 844.9711
928.3625, 845.6007
928.8447, 846.0307
929.3268, 844.9373
929.8089, 842.6624
930.2910, 842.1153
930.7731, 843.5991
931.2552, 845.3456
931.7374, 846.3489
932.2195, 846.7038
932.7016, 846.1531
933.1837, 844.5541
933.6658, 844.0826
934.1479, 845.6210
934.6301, 846.9891
935.1122, 847.0367
935.5943, 846.2204
936.0764, 846.7225
936.5585, 848.3584
937.0406, 849.6870
937.5228, 849.3710
938.0049, 849.0126
938.4870, 849.9182
938.9691, 851.6932
939.4512, 853.3367
939.9333, 853.7427
940.4155, 856.0387
940.8976, 861.6745
941.3797, 867.7233
941.8618, 868.3453
942.3439, 864.8954
942.8260, 864.4854
943.3082, 868.9639
943.7903, 873.4792
944.2724, 874.7335
944.7545, 873.9705
945.2366, 871.9832
945.7188, 868.1196
946.2009, 865.8272
946.6830, 865.4722
947.1651, 865.8401
947.6472, 866.2061
948.1293, 866.6494
948.6115, 867.6867
949.0936, 869.2284
949.5757, 870.5297
950.0578, 871.6376
950.5399, 871.9013
951.0220, 869.7346
951.5042, 866.2230
951.9863, 866.0377
952.4684, 871.0634
952.9505, 874.3912
953.4326, 874.0502
953.9147, 872.0015
954.3969, 871.7457
954.8790, 872.6618
955.3611, 872.9836
955.8432, 871.9821
956.3253, 870.9290
956.8074, 870.1143
957.2896, 869.8030
957.7717, 870.3934
958.2538, 872.4669
958.7359, 872.9004
959.2180, 871.2077
959.7001, 869.7911
960.1823, 871.1768
960.6644, 874.0314
961.1465, 875.3973
961.6286, 875.3761
962.1107, 875.7557
962.5928, 878.4923
963.0750, 880.6270
963.5571, 880.3486
964.0392, 878.4986
964.5213, 878.4518
965.0034, 880.5022
965.4855, 881.6783
965.9677, 880.6065
966.4498, 879.3107
966.9319, 881.0908
967.4140, 884.5798
967.8961, 887.3214
968.3782, 888.3005
968.8604, 889.1545
969.3425, 890.2965
969.8246, 891.4010
970.3067, 891.9473
970.7888, 891.8629
971.2709, 893.3117
971.7531, 896.4072
972.2352, 899.6647
972.7173, 901.5568
973.1994, 903.2190
973.6815, 905.9985
974.1636, 909.8064
974.6458, 913.0418
975.1279, 914.9310
975.6100, 916.8697
976.0921, 919.2488
976.5742, 921.9138
977.0563, 924.6967
977.5385, 927.4885
978.0206, 929.3813
978.5027, 929.6488
978.9848, 929.8011
979.4669, 930.8768
979.9490, 932.5844
980.4311, 934.6258
980.9132, 937.5739
981.3953, 939.3984
981.8774, 939.6822
982.3596, 939.9095
982.8417, 941.7333
983.3238, 944.5232
983.8059, 946.0473
984.2880, 946.3564
984.7701, 947.3502
985.2523, 950.9338
985.7344, 954.6844
986.2165, 957.3735
986.6986, 959.1242
987.1807, 960.3672
987.6628, 961.0158
988.1450, 961.5173
988.6271, 961.8322
989.1092, 962.4119
989.5913, 964.1071
990.0734, 966.5173
990.5555, 968.9608
991.0377, 971.4490
991.5198, 973.4832
992.0019, 974.5205
992.4840, 975.4620
992.9661, 976.9677
993.4482, 979.0560
993.9304, 981.0810
994.4125, 983.0391
994.8946, 985.7244
995.3767, 990.5088
995.8588, 995.7249
996.3409, 999.9170
996.8231, 1003.082
997.3052, 1005.865
997.7873, 1008.280
998.2694, 1010.386
998.7515, 1011.869
999.2336, 1013.454
999.7158, 1016.879
1000.198, 1021.689
1000.680, 1026.125
1001.162, 1029.500
1001.644, 1033.069
1002.126, 1037.907
1002.608, 1043.029
1003.091, 1047.567
1003.573, 1051.625
1004.055, 1054.471
1004.537, 1055.890
1005.019, 1057.272
1005.501, 1059.923
1005.983, 1062.996
1006.465, 1065.139
1006.948, 1066.456
1007.430, 1067.445
1007.912, 1068.984
1008.394, 1069.288
1008.876, 1067.504
1009.358, 1064.616
1009.840, 1062.672
1010.322, 1061.602
1010.804, 1058.717
1011.287, 1053.389
1011.769, 1047.091
1012.251, 1039.845
1012.733, 1033.182
1013.215, 1029.276
1013.697, 1029.176
1014.179, 1026.203
1014.661, 1018.354
1015.143, 1011.690
1015.626, 1009.955
1016.108, 1011.232
1016.590, 1009.694
1017.072, 1006.005
1017.554, 1002.577
1018.036, 999.9393
1018.518, 998.4911
1019.000, 999.9406
1019.483, 1001.940
1019.965, 1000.780
1020.447, 995.3425
1020.929, 993.5529
1021.411, 996.4337
1021.893, 999.7265
1022.375, 998.6544
1022.857, 995.9763
1023.339, 995.2687
1023.822, 996.7526
1024.304, 998.0812
1024.786, 998.5643
1025.268, 999.0069
1025.750, 999.6213
1026.232, 1000.378
1026.714, 1001.378
1027.196, 1002.501
1027.679, 1002.932
1028.161, 1001.918
1028.643, 1001.334
1029.125, 1002.955
1029.607, 1005.327
1030.089, 1006.820
1030.571, 1007.060
1031.053, 1007.604
1031.536, 1008.445
1032.018, 1009.587
1032.500, 1011.255
1032.982, 1013.092
1033.464, 1014.832
1033.946, 1016.268
1034.428, 1016.706
1034.910, 1013.932
1035.392, 1012.752
1035.875, 1014.776
1036.357, 1018.315
1036.839, 1020.699
1037.321, 1021.976
1037.803, 1021.974
1038.285, 1020.458
1038.767, 1019.410
1039.249, 1021.190
1039.731, 1023.538
1040.214, 1024.366
1040.696, 1023.412
1041.178, 1023.355
1041.660, 1024.362
1042.142, 1025.648
1042.624, 1027.010
1043.106, 1028.299
1043.588, 1029.517
1044.071, 1030.467
1044.553, 1030.662
1045.035, 1028.148
1045.517, 1027.714
1045.999, 1031.883
1046.481, 1036.704
1046.963, 1038.344
1047.445, 1037.015
1047.927, 1035.557
1048.410, 1034.087
1048.892, 1033.487
1049.374, 1035.131
1049.856, 1037.188
1050.338, 1038.304
1050.820, 1038.654
1051.302, 1039.235
1051.784, 1040.065
1052.266, 1041.036
1052.749, 1042.026
1053.231, 1043.427
1053.713, 1046.742
1054.195, 1050.472
1054.677, 1051.839
1055.159, 1049.793
1055.641, 1048.572
1056.123, 1049.969
1056.606, 1051.727
1057.088, 1052.879
1057.570, 1053.554
1058.052, 1054.591
1058.534, 1055.869
1059.016, 1056.606
1059.498, 1055.781
1059.980, 1055.178
1060.463, 1055.997
1060.945, 1057.691
1061.427, 1059.492
1061.909, 1061.397
1062.391, 1063.323
1062.873, 1065.302
1063.355, 1066.987
1063.837, 1067.857
1064.319, 1068.371
1064.802, 1069.027
1065.284, 1069.873
1065.766, 1071.065
1066.248, 1073.508
1066.730, 1075.004
1067.212, 1074.835
1067.694, 1073.947
1068.176, 1073.982
1068.658, 1074.802
1069.141, 1076.035
1069.623, 1077.710
1070.105, 1079.062
1070.587, 1079.410
1071.069, 1079.486
1071.551, 1079.532
1072.033, 1079.637
1072.515, 1081.500
1072.998, 1085.178
1073.480, 1087.930
1073.962, 1087.935
1074.444, 1087.338
1074.926, 1088.340
1075.408, 1090.315
1075.890, 1092.310
1076.372, 1094.339
1076.854, 1096.012
1077.337, 1097.358
1077.819, 1098.271
1078.301, 1098.035
1078.783, 1097.489
1079.265, 1099.188
1079.747, 1102.652
1080.229, 1105.177
1080.711, 1104.625
1081.193, 1104.142
1081.676, 1104.469
1082.158, 1105.391
1082.640, 1106.594
1083.122, 1108.066
1083.604, 1109.939
1084.086, 1112.301
1084.568, 1114.099
1085.050, 1113.615
1085.532, 1113.033
1086.015, 1114.410
1086.497, 1117.472
1086.979, 1118.805
1087.461, 1117.902
1087.943, 1119.223
1088.425, 1125.567
1088.907, 1131.861
1089.389, 1130.384
1089.872, 1125.040
1090.354, 1121.262
1090.836, 1120.093
1091.318, 1121.383
1091.800, 1126.336
1092.282, 1130.911
1092.764, 1132.392
1093.246, 1131.661
1093.729, 1130.795
1094.211, 1129.992
1094.693, 1130.036
1095.175, 1131.653
1095.657, 1133.643
1096.139, 1135.762
1096.621, 1138.006
1097.103, 1140.746
1097.585, 1143.907
1098.068, 1144.978
1098.550, 1143.873
1099.032, 1143.046
1099.514, 1144.570
1099.996, 1146.700
1100.478, 1148.711
1100.960, 1150.361
1101.442, 1150.795
1101.924, 1149.688
1102.407, 1149.318
1102.889, 1150.134
1103.371, 1151.670
1103.853, 1153.666
1104.335, 1155.919
1104.817, 1158.416
1105.299, 1161.234
1105.781, 1162.990
1106.264, 1163.224
1106.746, 1163.271
1107.228, 1163.451
1107.710, 1163.967
1108.192, 1165.861
1108.674, 1168.341
1109.156, 1169.476
1109.638, 1167.703
1110.120, 1167.007
1110.603, 1168.739
1111.085, 1171.446
1111.567, 1175.082
1112.049, 1179.118
1112.531, 1178.788
1113.013, 1174.896
1113.495, 1172.486
1113.977, 1176.112
1114.459, 1179.683
1114.942, 1179.514
1115.424, 1178.086
1115.906, 1178.775
1116.388, 1181.855
1116.870, 1184.163
1117.352, 1185.540
1117.834, 1186.246
1118.316, 1185.410
1118.799, 1184.925
1119.281, 1186.877
1119.763, 1190.672
1120.245, 1193.525
1120.727, 1195.282
1121.209, 1196.067
1121.691, 1195.617
1122.173, 1195.224
1122.656, 1196.766
1123.138, 1199.105
1123.620, 1200.682
1124.102, 1201.289
1124.584, 1201.992
1125.066, 1202.904
1125.548, 1203.988
1126.030, 1205.272
1126.512, 1206.677
1126.995, 1208.264
1127.477, 1209.823
1127.959, 1210.630
1128.441, 1210.083
1128.923, 1210.508
1129.405, 1213.721
1129.887, 1216.829
1130.369, 1218.309
1130.851, 1218.497
1131.334, 1218.734
1131.816, 1219.109
1132.298, 1220.119
1132.780, 1222.519
1133.262, 1224.701
1133.744, 1225.225
1134.226, 1225.699
1134.708, 1228.024
1135.191, 1232.417
1135.673, 1234.117
1136.155, 1233.215
1136.637, 1232.444
1137.119, 1233.574
1137.601, 1235.460
1138.083, 1237.895
1138.565, 1240.370
1139.047, 1241.744
1139.530, 1241.769
1140.012, 1242.222
1140.494, 1243.251
1140.976, 1244.600
1141.458, 1246.340
1141.940, 1248.036
1142.422, 1249.065
1142.904, 1249.557
1143.386, 1250.380
1143.869, 1251.635
1144.351, 1253.041
1144.833, 1254.565
1145.315, 1256.118
1145.797, 1257.177
1146.279, 1258.381
1146.761, 1261.447
1147.243, 1266.652
1147.726, 1268.511
1148.208, 1264.121
1148.690, 1261.039
1149.172, 1261.607
1149.654, 1264.600
1150.136, 1268.823
1150.618, 1273.334
1151.100, 1276.040
1151.583, 1276.054
1152.065, 1276.006
1152.547, 1276.318
1153.029, 1277.024
1153.511, 1278.256
1153.993, 1279.828
1154.475, 1281.283
1154.957, 1282.600
1155.439, 1283.713
1155.922, 1284.693
1156.404, 1285.313
1156.886, 1284.982
1157.368, 1284.786
1157.850, 1285.499
1158.332, 1287.039
1158.814, 1288.852
1159.296, 1290.802
1159.778, 1291.980
1160.261, 1290.777
1160.743, 1289.999
1161.225, 1291.058
1161.707, 1293.165
1162.189, 1295.878
1162.671, 1299.227
1163.153, 1300.768
1163.635, 1300.496
1164.118, 1300.345
1164.600, 1301.785
1165.082, 1303.597
1165.564, 1305.248
1166.046, 1306.657
1166.528, 1307.685
1167.010, 1308.309
1167.492, 1308.853
1167.974, 1309.346
1168.457, 1309.933
1168.939, 1310.732
1169.421, 1311.689
1169.903, 1312.627
1170.385, 1313.706
1170.867, 1315.717
1171.349, 1319.088
1171.831, 1320.532
1172.313, 1319.151
1172.796, 1317.680
1173.278, 1318.959
1173.760, 1321.497
1174.242, 1324.405
1174.724, 1327.405
1175.206, 1328.416
1175.688, 1326.705
1176.170, 1326.310
1176.653, 1328.582
1177.135, 1331.568
1177.617, 1332.743
1178.099, 1333.208
1178.581, 1334.351
1179.063, 1336.449
1179.545, 1338.121
1180.027, 1339.066
1180.510, 1340.516
1180.992, 1343.201
1181.474, 1346.012
1181.956, 1347.811
1182.438, 1348.427
1182.920, 1347.136
1183.402, 1342.684
1183.884, 1341.231
1184.366, 1343.890
1184.849, 1347.004
1185.331, 1349.003
1185.813, 1350.191
1186.295, 1350.801
1186.777, 1351.112
1187.259, 1351.657
1187.741, 1352.875
1188.223, 1353.654
1188.705, 1353.955
1189.188, 1353.753
1189.670, 1352.092
1190.152, 1350.495
1190.634, 1352.898
1191.116, 1357.928
1191.598, 1362.291
1192.080, 1364.680
1192.562, 1366.572
1193.045, 1367.878
1193.527, 1369.111
1194.009, 1370.889
1194.491, 1372.811
1194.973, 1374.163
1195.455, 1374.831
1195.937, 1374.480
1196.419, 1370.598
1196.901, 1369.491
1197.384, 1372.794
1197.866, 1377.046
1198.348, 1378.631
1198.830, 1378.752
1199.312, 1380.781
1199.794, 1384.307
1200.276, 1386.682
1200.758, 1385.890
1201.240, 1385.216
1201.723, 1385.195
1202.205, 1385.455
1202.687, 1385.361
1203.169, 1385.264
1203.651, 1386.252
1204.133, 1388.250
1204.615, 1389.953
1205.097, 1389.798
1205.580, 1391.022
1206.062, 1394.953
1206.544, 1399.275
1207.026, 1400.010
1207.508, 1398.594
1207.990, 1398.629
1208.472, 1400.406
1208.954, 1402.182
1209.437, 1403.098
1209.919, 1404.281
1210.401, 1406.209
1210.883, 1408.186
1211.365, 1408.434
1211.847, 1407.983
1212.329, 1409.607
1212.811, 1413.742
1213.293, 1417.621
1213.776, 1420.879
1214.258, 1422.928
1214.740, 1423.298
1215.222, 1422.826
1215.704, 1423.104
1216.186, 1423.826
1216.668, 1424.288
1217.150, 1424.351
1217.632, 1424.294
1218.115, 1423.114
1218.597, 1423.628
1219.079, 1427.460
1219.561, 1432.561
1220.043, 1434.508
1220.525, 1434.640
1221.007, 1436.231
1221.489, 1440.407
1221.972, 1443.083
1222.454, 1442.562
1222.936, 1441.933
1223.418, 1442.304
1223.900, 1443.371
1224.382, 1444.618
1224.864, 1446.032
1225.346, 1447.693
1225.828, 1449.841
1226.311, 1451.293
1226.793, 1451.845
1227.275, 1451.845
1227.757, 1451.222
1228.239, 1450.429
1228.721, 1450.178
1229.203, 1450.534
1229.685, 1451.728
1230.167, 1454.175
1230.650, 1456.255
1231.132, 1457.570
1231.614, 1459.236
1232.096, 1462.220
1232.578, 1465.458
1233.060, 1466.573
1233.542, 1466.452
1234.024, 1466.793
1234.507, 1468.407
1234.989, 1469.353
1235.471, 1469.435
1235.953, 1469.140
1236.435, 1468.166
1236.917, 1467.572
1237.399, 1469.840
1237.881, 1473.574
1238.364, 1476.156
1238.846, 1476.281
1239.328, 1477.134
1239.810, 1478.791
1240.292, 1480.920
1240.774, 1483.701
1241.256, 1486.479
1241.738, 1488.256
1242.220, 1489.479
1242.703, 1491.036
1243.185, 1493.412
1243.667, 1494.760
1244.149, 1494.825
1244.631, 1495.210
1245.113, 1496.998
1245.595, 1499.538
1246.077, 1502.825
1246.559, 1506.049
1247.042, 1507.684
1247.524, 1507.204
1248.006, 1506.899
1248.488, 1506.766
1248.970, 1506.888
1249.452, 1507.323
1249.934, 1508.085
1250.416, 1509.365
1250.899, 1510.960
1251.381, 1512.626
1251.863, 1514.504
1252.345, 1515.694
1252.827, 1516.213
1253.309, 1516.641
1253.791, 1517.549
1254.273, 1518.273
1254.755, 1518.090
1255.238, 1517.560
1255.720, 1517.362
1256.202, 1517.447
1256.684, 1518.076
1257.166, 1519.264
1257.648, 1521.485
1258.130, 1526.330
1258.612, 1530.781
1259.094, 1533.108
1259.577, 1534.301
1260.059, 1535.241
1260.541, 1535.945
1261.023, 1536.036
1261.505, 1535.707
1261.987, 1536.343
1262.469, 1539.933
1262.951, 1543.039
1263.434, 1544.400
1263.916, 1544.992
1264.398, 1545.616
1264.880, 1546.268
1265.362, 1546.824
1265.844, 1547.383
1266.326, 1548.545
1266.808, 1551.981
1267.291, 1553.778
1267.773, 1552.582
1268.255, 1550.969
1268.737, 1551.448
1269.219, 1553.520
1269.701, 1556.710
1270.183, 1560.469
1270.665, 1562.845
1271.147, 1562.092
1271.630, 1561.617
1272.112, 1561.654
1272.594, 1562.048
1273.076, 1562.857
1273.558, 1563.806
1274.040, 1564.229
1274.522, 1564.429
1275.004, 1565.531
1275.486, 1568.429
1275.969, 1570.083
1276.451, 1570.080
1276.933, 1570.060
1277.415, 1571.344
1277.897, 1573.377
1278.379, 1576.171
1278.861, 1579.114
1279.343, 1580.636
1279.825, 1580.321
1280.308, 1580.421
1280.790, 1581.018
1281.272, 1582.432
1281.754, 1586.494
1282.236, 1589.786
1282.718, 1587.988
1283.200, 1584.734
1283.682, 1586.488
1284.165, 1593.502
1284.647, 1597.653
1285.129, 1598.746
1285.611, 1599.002
1286.093, 1599.463
1286.575, 1599.794
1287.057, 1599.447
1287.539, 1599.255
1288.021, 1600.418
1288.504, 1602.601
1288.986, 1603.759
1289.468, 1604.010
1289.950, 1604.461
1290.432, 1605.935
1290.914, 1607.261
1291.396, 1608.105
1291.878, 1608.956
1292.360, 1610.591
1292.843, 1612.502
1293.325, 1613.501
1293.807, 1613.624
1294.289, 1613.130
1294.771, 1610.138
1295.253, 1610.094
1295.735, 1613.915
1296.217, 1618.342
1296.700, 1620.098
1297.182, 1621.153
1297.664, 1625.163
1298.146, 1630.411
1298.628, 1632.537
1299.110, 1630.440
1299.592, 1629.073
1300.074, 1628.530
1300.557, 1628.779
1301.039, 1631.072
1301.521, 1632.820
1302.003, 1630.916
1302.485, 1627.670
1302.967, 1626.850
1303.449, 1629.396
##END=



