##NAMES=Grossular
##RRUFFID=R060452
##IDEAL CHEMISTRY=Ca_3_Al_2_(SiO_4_)_3_
##LOCALITY=unknown
##OWNER=RRUFF
##SOURCE=Gemological Institute of America
##DESCRIPTION=Yellowish-brown colored fragment
##STATUS=The identification of this mineral has been confirmed by X-ray diffraction and chemical analysis
##URL=rruff.info/R060452
##MEASURED CHEMISTRY=(Ca_2.94_Mn_0.03_Mg_0.03_)_Σ=3_(Al_1.91_Fe^3+^_0.06_Ti_0.03_)_Σ=2_((Si_0.99_Al_0.01_)_Σ=1_O_4_)_3_
136.1626, 1652.437
136.6447, 1712.664
137.1268, 1772.480
137.6089, 1833.234
138.0910, 1887.187
138.5731, 1928.965
139.0553, 1958.111
139.5374, 1979.742
140.0195, 1993.435
140.5016, 1999.833
140.9837, 1999.733
141.4658, 1989.223
141.9480, 1978.368
142.4301, 1974.896
142.9122, 1984.113
143.3943, 1989.014
143.8764, 1984.006
144.3585, 1969.550
144.8407, 1967.599
145.3228, 1984.207
145.8049, 2008.768
146.2870, 2031.154
146.7691, 2045.235
147.2512, 2064.768
147.7334, 2092.705
148.2155, 2130.870
148.6976, 2170.527
149.1797, 2210.436
149.6618, 2252.323
150.1439, 2298.041
150.6261, 2354.662
151.1082, 2408.241
151.5903, 2455.358
152.0724, 2496.374
152.5545, 2529.653
153.0366, 2548.834
153.5188, 2560.199
154.0009, 2576.023
154.4830, 2600.460
154.9651, 2628.077
155.4472, 2657.624
155.9293, 2696.968
156.4115, 2726.156
156.8936, 2735.877
157.3757, 2731.041
157.8578, 2728.921
158.3399, 2736.566
158.8221, 2747.316
159.3042, 2756.907
159.7863, 2764.584
160.2684, 2770.693
160.7505, 2774.438
161.2326, 2776.196
161.7148, 2778.609
162.1969, 2778.175
162.6790, 2780.734
163.1611, 2791.862
163.6432, 2827.183
164.1253, 2860.646
164.6075, 2874.292
165.0896, 2867.332
165.5717, 2863.977
166.0538, 2883.772
166.5359, 2914.654
167.0180, 2939.390
167.5002, 2942.011
167.9823, 2941.527
168.4644, 2954.088
168.9465, 2982.543
169.4286, 3012.410
169.9107, 3030.970
170.3929, 3042.945
170.8750, 3058.774
171.3571, 3089.173
171.8392, 3123.606
172.3213, 3149.692
172.8034, 3163.721
173.2856, 3175.659
173.7677, 3195.957
174.2498, 3222.362
174.7319, 3246.763
175.2140, 3256.436
175.6961, 3262.783
176.1783, 3283.980
176.6604, 3325.464
177.1425, 3378.388
177.6246, 3435.194
178.1067, 3494.920
178.5888, 3555.220
179.0710, 3616.856
179.5531, 3676.936
180.0352, 3729.237
180.5173, 3776.175
180.9994, 3809.973
181.4815, 3814.200
181.9637, 3789.348
182.4458, 3749.844
182.9279, 3703.617
183.4100, 3651.677
183.8921, 3596.167
184.3742, 3531.291
184.8564, 3465.911
185.3385, 3425.001
185.8206, 3409.395
186.3027, 3403.856
186.7848, 3391.488
187.2669, 3374.078
187.7491, 3364.746
188.2312, 3370.138
188.7133, 3387.190
189.1954, 3406.856
189.6775, 3430.030
190.1596, 3451.210
190.6418, 3460.563
191.1239, 3458.443
191.6060, 3460.898
192.0881, 3478.751
192.5702, 3509.408
193.0524, 3529.746
193.5345, 3538.651
194.0166, 3540.101
194.4987, 3537.420
194.9808, 3530.135
195.4629, 3525.888
195.9451, 3528.923
196.4272, 3539.147
196.9093, 3550.741
197.3914, 3563.935
197.8735, 3577.848
198.3556, 3590.621
198.8378, 3601.974
199.3199, 3613.673
199.8020, 3628.006
200.2841, 3645.373
200.7662, 3656.837
201.2483, 3659.988
201.7305, 3658.687
202.2126, 3662.414
202.6947, 3671.886
203.1768, 3683.720
203.6589, 3698.084
204.1410, 3716.311
204.6232, 3725.652
205.1053, 3721.571
205.5874, 3709.360
206.0695, 3706.897
206.5516, 3716.008
207.0337, 3730.070
207.5159, 3745.357
207.9980, 3761.808
208.4801, 3779.333
208.9622, 3801.243
209.4443, 3824.146
209.9264, 3828.235
210.4086, 3805.252
210.8907, 3779.978
211.3728, 3772.302
211.8549, 3786.509
212.3370, 3803.656
212.8191, 3821.868
213.3013, 3840.895
213.7834, 3860.656
214.2655, 3882.862
214.7476, 3903.114
215.2297, 3917.444
215.7118, 3925.322
216.1940, 3928.483
216.6761, 3923.949
217.1582, 3912.527
217.6403, 3914.341
218.1224, 3934.443
218.6045, 3960.968
219.0867, 3983.162
219.5688, 4000.368
220.0509, 4014.375
220.5330, 4025.218
221.0151, 4033.040
221.4972, 4036.928
221.9794, 4033.100
222.4615, 4029.590
222.9436, 4035.613
223.4257, 4055.448
223.9078, 4076.432
224.3899, 4096.632
224.8721, 4116.677
225.3542, 4130.086
225.8363, 4130.961
226.3184, 4130.888
226.8005, 4144.395
227.2827, 4176.969
227.7648, 4212.826
228.2469, 4250.085
228.7290, 4289.903
229.2111, 4320.770
229.6932, 4338.920
230.1754, 4350.816
230.6575, 4363.927
231.1396, 4374.305
231.6217, 4392.985
232.1038, 4424.948
232.5859, 4473.371
233.0681, 4518.305
233.5502, 4560.268
234.0323, 4598.227
234.5144, 4629.108
234.9965, 4642.104
235.4786, 4666.233
235.9608, 4713.633
236.4429, 4790.499
236.9250, 4858.753
237.4071, 4915.497
237.8892, 4964.913
238.3713, 5014.271
238.8535, 5068.109
239.3356, 5114.299
239.8177, 5148.805
240.2998, 5170.426
240.7819, 5184.391
241.2640, 5186.991
241.7462, 5184.319
242.2283, 5184.743
242.7104, 5179.414
243.1925, 5191.857
243.6746, 5231.968
244.1567, 5307.198
244.6389, 5386.110
245.1210, 5468.846
245.6031, 5554.940
246.0852, 5649.159
246.5673, 5779.331
247.0494, 5870.053
247.5316, 5890.897
248.0137, 5825.580
248.4958, 5743.158
248.9779, 5638.038
249.4600, 5519.304
249.9421, 5404.123
250.4243, 5285.642
250.9064, 5181.391
251.3885, 5096.742
251.8706, 5030.503
252.3527, 4988.983
252.8348, 4979.683
253.3170, 4990.375
253.7991, 4999.417
254.2812, 5007.903
254.7633, 5012.484
255.2454, 5011.589
255.7275, 5004.345
256.2097, 4993.568
256.6918, 4973.941
257.1739, 4954.542
257.6560, 4955.068
258.1381, 4987.233
258.6202, 5015.131
259.1024, 5023.185
259.5845, 5004.765
260.0666, 4994.223
260.5487, 4994.829
261.0308, 5000.855
261.5129, 5001.154
261.9951, 4992.862
262.4772, 4985.702
262.9593, 4984.548
263.4414, 4991.602
263.9235, 4993.292
264.4056, 4986.479
264.8878, 4977.251
265.3699, 4975.874
265.8520, 4983.080
266.3341, 4996.085
266.8162, 5016.018
267.2983, 5044.648
267.7805, 5065.414
268.2626, 5071.546
268.7447, 5077.215
269.2268, 5110.330
269.7089, 5178.379
270.1910, 5246.842
270.6732, 5303.488
271.1553, 5347.172
271.6374, 5384.763
272.1195, 5411.250
272.6016, 5439.084
273.0837, 5489.220
273.5659, 5565.240
274.0480, 5645.852
274.5301, 5720.924
275.0122, 5789.415
275.4943, 5878.625
275.9764, 5996.248
276.4586, 6120.114
276.9407, 6220.336
277.4228, 6295.487
277.9049, 6350.326
278.3870, 6391.865
278.8691, 6418.743
279.3513, 6393.956
279.8334, 6309.403
280.3155, 6194.007
280.7976, 6078.577
281.2798, 5963.596
281.7619, 5860.260
282.2440, 5772.392
282.7261, 5699.805
283.2082, 5641.988
283.6903, 5599.717
284.1725, 5569.372
284.6546, 5551.454
285.1367, 5545.496
285.6188, 5534.429
286.1009, 5503.342
286.5830, 5461.419
287.0652, 5454.966
287.5473, 5488.893
288.0294, 5529.292
288.5115, 5536.651
288.9936, 5514.453
289.4757, 5491.128
289.9579, 5472.068
290.4400, 5459.604
290.9221, 5463.456
291.4042, 5484.742
291.8863, 5508.364
292.3684, 5517.636
292.8506, 5515.628
293.3327, 5515.934
293.8148, 5524.073
294.2969, 5536.441
294.7790, 5546.075
295.2611, 5553.005
295.7433, 5559.707
296.2254, 5569.311
296.7075, 5580.649
297.1896, 5589.936
297.6717, 5595.033
298.1538, 5598.680
298.6360, 5606.419
299.1181, 5617.784
299.6002, 5626.431
300.0823, 5620.917
300.5644, 5610.038
301.0465, 5610.691
301.5287, 5629.719
302.0108, 5658.968
302.4929, 5697.385
302.9750, 5741.998
303.4571, 5773.626
303.9392, 5768.604
304.4214, 5746.330
304.9035, 5732.756
305.3856, 5735.768
305.8677, 5746.775
306.3498, 5761.257
306.8319, 5778.260
307.3141, 5794.759
307.7962, 5804.488
308.2783, 5814.694
308.7604, 5835.144
309.2425, 5874.402
309.7246, 5908.626
310.2068, 5917.168
310.6889, 5908.138
311.1710, 5902.761
311.6531, 5911.167
312.1352, 5927.210
312.6173, 5946.959
313.0995, 5970.197
313.5816, 5995.205
314.0637, 6025.055
314.5458, 6056.009
315.0279, 6081.306
315.5100, 6097.049
315.9922, 6107.435
316.4743, 6112.871
316.9564, 6111.292
317.4385, 6113.573
317.9206, 6127.456
318.4027, 6146.402
318.8849, 6161.275
319.3670, 6165.346
319.8491, 6168.688
320.3312, 6174.274
320.8133, 6182.157
321.2954, 6193.646
321.7776, 6210.924
322.2597, 6231.240
322.7418, 6251.662
323.2239, 6269.140
323.7060, 6289.309
324.1881, 6315.837
324.6703, 6349.769
325.1524, 6377.664
325.6345, 6392.607
326.1166, 6404.022
326.5987, 6419.557
327.0808, 6437.082
327.5630, 6461.380
328.0451, 6497.570
328.5272, 6544.702
329.0093, 6582.244
329.4914, 6606.308
329.9735, 6623.526
330.4557, 6638.588
330.9378, 6657.627
331.4199, 6662.996
331.9020, 6646.602
332.3841, 6614.392
332.8662, 6595.718
333.3484, 6595.203
333.8305, 6601.489
334.3126, 6609.000
334.7947, 6617.869
335.2768, 6626.827
335.7589, 6634.000
336.2411, 6642.214
336.7232, 6661.806
337.2053, 6698.459
337.6874, 6729.443
338.1695, 6740.673
338.6516, 6728.748
339.1338, 6725.740
339.6159, 6732.506
340.0980, 6747.850
340.5801, 6774.422
341.0622, 6814.741
341.5443, 6845.454
342.0265, 6850.839
342.5086, 6834.794
342.9907, 6837.228
343.4728, 6861.399
343.9549, 6891.191
344.4370, 6901.064
344.9192, 6894.068
345.4013, 6900.941
345.8834, 6939.187
346.3655, 6997.063
346.8476, 7041.976
347.3297, 7073.421
347.8119, 7101.866
348.2940, 7143.340
348.7761, 7190.326
349.2582, 7217.938
349.7403, 7209.342
350.2225, 7188.998
350.7046, 7193.511
351.1867, 7220.292
351.6688, 7249.052
352.1509, 7264.637
352.6331, 7273.042
353.1152, 7282.092
353.5973, 7290.592
354.0794, 7305.695
354.5615, 7339.014
355.0436, 7385.314
355.5258, 7428.667
356.0079, 7447.203
356.4900, 7466.236
356.9721, 7511.291
357.4542, 7593.479
357.9363, 7677.295
358.4185, 7737.278
358.9006, 7786.005
359.3827, 7845.241
359.8648, 7933.178
360.3469, 8026.114
360.8290, 8106.628
361.3112, 8169.447
361.7933, 8250.787
362.2754, 8367.407
362.7575, 8507.027
363.2396, 8656.937
363.7217, 8813.430
364.2039, 8978.794
364.6860, 9156.873
365.1681, 9348.509
365.6502, 9536.893
366.1323, 9703.838
366.6144, 9878.104
367.0966, 10080.78
367.5787, 10368.49
368.0608, 10612.82
368.5429, 10788.38
369.0250, 10909.31
369.5071, 11044.00
369.9893, 11201.84
370.4714, 11361.80
370.9535, 11512.51
371.4356, 11641.72
371.9177, 11788.33
372.3998, 11965.63
372.8820, 12154.71
373.3641, 12314.24
373.8462, 12445.44
374.3283, 12544.52
374.8104, 12630.24
375.2925, 12714.50
375.7747, 12637.63
376.2568, 12370.76
376.7389, 11998.95
377.2210, 11622.05
377.7031, 11238.63
378.1852, 10870.93
378.6674, 10513.93
379.1495, 10177.96
379.6316, 9894.551
380.1137, 9667.707
380.5958, 9478.684
381.0779, 9324.133
381.5601, 9197.370
382.0422, 9075.178
382.5243, 8944.249
383.0064, 8821.787
383.4885, 8740.338
383.9706, 8695.720
384.4528, 8662.702
384.9349, 8630.051
385.4170, 8595.887
385.8991, 8554.633
386.3812, 8502.472
386.8633, 8451.647
387.3455, 8410.322
387.8276, 8378.889
388.3097, 8357.701
388.7918, 8354.652
389.2739, 8357.350
389.7560, 8355.927
390.2382, 8349.310
390.7203, 8342.375
391.2024, 8335.490
391.6845, 8330.508
392.1666, 8329.507
392.6487, 8338.361
393.1309, 8346.531
393.6130, 8347.550
394.0951, 8342.349
394.5772, 8342.172
395.0593, 8359.402
395.5414, 8376.543
396.0236, 8382.453
396.5057, 8359.100
396.9878, 8344.037
397.4699, 8340.708
397.9520, 8348.240
398.4341, 8364.005
398.9163, 8398.281
399.3984, 8430.070
399.8805, 8450.134
400.3626, 8451.004
400.8447, 8463.512
401.3268, 8497.014
401.8090, 8535.216
402.2911, 8552.866
402.7732, 8539.187
403.2553, 8533.205
403.7374, 8549.286
404.2195, 8585.535
404.7017, 8604.063
405.1838, 8598.449
405.6659, 8592.644
406.1480, 8614.286
406.6301, 8664.080
407.1122, 8696.871
407.5944, 8696.068
408.0765, 8682.487
408.5586, 8714.726
409.0407, 8791.903
409.5228, 8861.788
410.0049, 8869.823
410.4871, 8842.894
410.9692, 8861.202
411.4513, 8938.923
411.9334, 9038.026
412.4155, 9126.809
412.8976, 9204.682
413.3798, 9267.027
413.8619, 9298.277
414.3440, 9322.234
414.8261, 9368.231
415.3082, 9436.944
415.7903, 9501.957
416.2725, 9559.091
416.7546, 9598.607
417.2367, 9610.149
417.7188, 9581.272
418.2009, 9533.273
418.6830, 9461.804
419.1652, 9375.135
419.6473, 9306.417
420.1294, 9285.947
420.6115, 9271.524
421.0937, 9236.535
421.5758, 9159.007
422.0579, 9102.536
422.5400, 9080.003
423.0221, 9082.244
423.5042, 9094.443
423.9864, 9140.008
424.4685, 9168.152
424.9506, 9160.078
425.4327, 9111.548
425.9148, 9083.960
426.3969, 9088.110
426.8791, 9100.883
427.3612, 9099.483
427.8433, 9073.761
428.3254, 9066.809
428.8075, 9089.563
429.2896, 9133.356
429.7718, 9169.250
430.2539, 9196.791
430.7360, 9219.470
431.2181, 9236.819
431.7002, 9249.419
432.1823, 9267.635
432.6645, 9294.095
433.1466, 9319.179
433.6287, 9323.350
434.1108, 9311.635
434.5929, 9309.593
435.0750, 9336.115
435.5572, 9375.286
436.0393, 9399.525
436.5214, 9409.253
437.0035, 9413.416
437.4856, 9415.985
437.9677, 9418.172
438.4499, 9420.714
438.9320, 9419.904
439.4141, 9426.138
439.8962, 9453.708
440.3783, 9494.670
440.8604, 9529.357
441.3426, 9547.154
441.8247, 9557.226
442.3068, 9562.392
442.7889, 9560.930
443.2710, 9564.517
443.7531, 9576.583
444.2353, 9595.148
444.7174, 9618.238
445.1995, 9655.457
445.6816, 9686.076
446.1637, 9705.574
446.6458, 9714.579
447.1280, 9720.300
447.6101, 9716.472
448.0922, 9716.310
448.5743, 9727.629
449.0564, 9754.782
449.5385, 9783.001
450.0207, 9814.131
450.5028, 9844.031
450.9849, 9861.188
451.4670, 9861.365
451.9491, 9869.935
452.4312, 9902.879
452.9134, 9955.074
453.3955, 9986.259
453.8776, 9994.835
454.3597, 9993.469
454.8418, 9990.248
455.3239, 9986.402
455.8061, 9986.512
456.2882, 9989.951
456.7703, 10000.42
457.2524, 10026.35
457.7345, 10064.89
458.2166, 10105.29
458.6988, 10152.36
459.1809, 10191.95
459.6630, 10201.27
460.1451, 10173.50
460.6272, 10150.35
461.1093, 10159.25
461.5915, 10187.83
462.0736, 10220.69
462.5557, 10265.79
463.0378, 10301.55
463.5199, 10315.39
464.0020, 10309.96
464.4842, 10306.00
464.9663, 10298.23
465.4484, 10300.11
465.9305, 10320.19
466.4126, 10377.16
466.8947, 10419.95
467.3769, 10440.37
467.8590, 10450.09
468.3411, 10468.41
468.8232, 10498.53
469.3053, 10531.40
469.7874, 10568.33
470.2696, 10608.29
470.7517, 10629.66
471.2338, 10627.49
471.7159, 10621.78
472.1980, 10629.69
472.6801, 10651.00
473.1623, 10672.08
473.6444, 10687.59
474.1265, 10708.91
474.6086, 10766.52
475.0907, 10853.77
475.5728, 10927.60
476.0550, 10953.19
476.5371, 10955.14
477.0192, 10973.61
477.5013, 11010.16
477.9834, 11048.55
478.4655, 11082.54
478.9477, 11108.97
479.4298, 11123.16
479.9119, 11120.68
480.3940, 11109.85
480.8761, 11085.08
481.3582, 11054.00
481.8404, 11038.94
482.3225, 11062.72
482.8046, 11091.42
483.2867, 11107.86
483.7688, 11104.24
484.2509, 11110.39
484.7331, 11134.75
485.2152, 11166.92
485.6973, 11200.07
486.1794, 11251.19
486.6615, 11271.39
487.1436, 11235.17
487.6258, 11161.99
488.1079, 11150.47
488.5900, 11219.48
489.0721, 11298.46
489.5542, 11347.13
490.0363, 11365.44
490.5185, 11394.27
491.0006, 11438.58
491.4827, 11479.45
491.9648, 11482.21
492.4470, 11454.92
492.9291, 11441.83
493.4112, 11460.74
493.8933, 11499.82
494.3754, 11548.06
494.8575, 11603.54
495.3397, 11651.17
495.8218, 11670.71
496.3039, 11682.94
496.7860, 11712.78
497.2681, 11769.50
497.7502, 11823.41
498.2324, 11858.21
498.7145, 11881.14
499.1966, 11902.76
499.6787, 11919.64
500.1608, 11941.92
500.6429, 11977.70
501.1251, 12025.55
501.6072, 12062.28
502.0893, 12063.25
502.5714, 12073.64
503.0535, 12118.80
503.5356, 12226.31
504.0178, 12299.95
504.4999, 12323.70
504.9820, 12327.45
505.4641, 12357.29
505.9462, 12416.84
506.4283, 12483.79
506.9105, 12556.33
507.3926, 12629.96
507.8747, 12685.85
508.3568, 12723.71
508.8389, 12751.92
509.3210, 12779.82
509.8032, 12803.44
510.2853, 12812.15
510.7674, 12804.24
511.2495, 12783.05
511.7316, 12739.65
512.2137, 12685.93
512.6959, 12646.71
513.1780, 12645.44
513.6601, 12650.71
514.1422, 12637.71
514.6243, 12610.12
515.1064, 12594.57
515.5886, 12608.50
516.0707, 12632.79
516.5528, 12656.82
517.0349, 12682.94
517.5170, 12701.48
517.9991, 12703.45
518.4813, 12700.36
518.9634, 12706.68
519.4455, 12726.08
519.9276, 12749.17
520.4097, 12777.93
520.8918, 12809.48
521.3740, 12823.58
521.8561, 12813.20
522.3382, 12808.72
522.8203, 12836.90
523.3024, 12894.83
523.7845, 12933.96
524.2667, 12948.98
524.7488, 12956.02
525.2309, 12971.34
525.7130, 12995.15
526.1951, 13029.00
526.6772, 13086.66
527.1594, 13142.39
527.6415, 13156.98
528.1236, 13139.33
528.6057, 13128.79
529.0878, 13159.67
529.5699, 13198.54
530.0521, 13219.20
530.5342, 13215.19
531.0163, 13208.11
531.4984, 13200.32
531.9805, 13194.88
532.4626, 13194.99
532.9448, 13193.66
533.4269, 13207.41
533.9090, 13245.69
534.3911, 13301.20
534.8732, 13341.59
535.3553, 13353.48
535.8375, 13376.70
536.3196, 13436.70
536.8017, 13537.60
537.2838, 13599.83
537.7659, 13616.87
538.2480, 13618.56
538.7302, 13632.28
539.2123, 13657.91
539.6944, 13695.79
540.1765, 13751.08
540.6586, 13809.25
541.1407, 13838.17
541.6229, 13850.12
542.1050, 13889.32
542.5871, 14003.88
543.0692, 14140.44
543.5513, 14246.02
544.0334, 14317.32
544.5156, 14398.85
544.9977, 14517.19
545.4798, 14651.04
545.9619, 14782.88
546.4440, 14911.35
546.9261, 15034.93
547.4083, 15164.90
547.8904, 15287.76
548.3725, 15379.86
548.8546, 15453.50
549.3367, 15476.54
549.8188, 15432.81
550.3010, 15327.01
550.7831, 15208.03
551.2652, 15069.19
551.7473, 14938.95
552.2294, 14842.29
552.7115, 14775.89
553.1937, 14708.61
553.6758, 14635.41
554.1579, 14572.08
554.6400, 14547.40
555.1221, 14549.36
555.6042, 14543.25
556.0864, 14505.42
556.5685, 14465.43
557.0506, 14450.78
557.5327, 14458.01
558.0148, 14474.89
558.4969, 14507.32
558.9791, 14538.67
559.4612, 14555.78
559.9433, 14553.08
560.4254, 14558.07
560.9075, 14580.36
561.3896, 14609.95
561.8718, 14638.76
562.3539, 14673.01
562.8360, 14695.07
563.3181, 14697.66
563.8002, 14689.94
564.2823, 14693.14
564.7645, 14707.57
565.2466, 14731.83
565.7287, 14769.66
566.2108, 14817.08
566.6929, 14851.78
567.1750, 14872.93
567.6572, 14893.79
568.1393, 14930.72
568.6214, 14974.07
569.1035, 15001.64
569.5856, 15007.62
570.0677, 15008.46
570.5499, 15007.69
571.0320, 15013.02
571.5141, 15036.49
571.9962, 15098.28
572.4783, 15163.34
572.9604, 15232.16
573.4426, 15297.13
573.9247, 15322.19
574.4068, 15245.40
574.8889, 15178.62
575.3710, 15166.72
575.8531, 15219.77
576.3353, 15277.39
576.8174, 15347.46
577.2995, 15409.60
577.7816, 15439.53
578.2637, 15433.23
578.7458, 15435.95
579.2280, 15455.12
579.7101, 15484.42
580.1922, 15517.52
580.6743, 15552.68
581.1564, 15579.93
581.6385, 15590.51
582.1207, 15592.86
582.6028, 15591.23
583.0849, 15587.78
583.5670, 15598.96
584.0491, 15650.89
584.5313, 15710.87
585.0134, 15753.10
585.4955, 15769.75
585.9776, 15781.36
586.4597, 15778.73
586.9418, 15779.73
587.4240, 15805.54
587.9061, 15877.17
588.3882, 15941.48
588.8703, 15992.75
589.3524, 16033.10
589.8345, 16068.07
590.3167, 16097.00
590.7988, 16123.41
591.2809, 16150.37
591.7630, 16176.12
592.2451, 16185.23
592.7272, 16176.84
593.2094, 16172.95
593.6915, 16197.80
594.1736, 16238.98
594.6557, 16272.97
595.1378, 16294.55
595.6199, 16312.28
596.1021, 16333.82
596.5842, 16355.04
597.0663, 16370.18
597.5485, 16364.14
598.0306, 16365.38
598.5127, 16386.81
598.9948, 16424.09
599.4769, 16458.14
599.9590, 16486.21
600.4412, 16513.20
600.9233, 16539.68
601.4054, 16565.53
601.8875, 16596.58
602.3696, 16636.58
602.8517, 16671.98
603.3339, 16681.06
603.8160, 16667.55
604.2981, 16686.40
604.7802, 16750.11
605.2623, 16823.86
605.7444, 16850.52
606.2266, 16850.02
606.7087, 16875.27
607.1908, 16972.09
607.6729, 17075.33
608.1550, 17135.22
608.6371, 17159.21
609.1193, 17173.62
609.6014, 17177.58
610.0835, 17183.91
610.5656, 17195.36
611.0477, 17210.44
611.5298, 17247.27
612.0120, 17339.99
612.4941, 17420.63
612.9762, 17434.53
613.4583, 17351.87
613.9404, 17312.59
614.4225, 17330.90
614.9047, 17378.95
615.3868, 17418.44
615.8689, 17450.78
616.3510, 17491.71
616.8331, 17553.19
617.3152, 17615.89
617.7974, 17641.69
618.2795, 17640.31
618.7616, 17650.83
619.2437, 17712.44
619.7258, 17780.79
620.2079, 17814.49
620.6901, 17811.89
621.1722, 17830.06
621.6543, 17912.91
622.1364, 18006.31
622.6185, 18073.44
623.1006, 18099.28
623.5828, 18128.63
624.0649, 18161.08
624.5470, 18197.42
625.0291, 18238.51
625.5112, 18284.39
625.9933, 18335.03
626.4755, 18389.81
626.9576, 18449.32
627.4397, 18522.44
627.9218, 18605.60
628.4039, 18671.55
628.8860, 18696.04
629.3682, 18701.36
629.8503, 18720.88
630.3324, 18751.64
630.8145, 18769.42
631.2966, 18731.86
631.7787, 18695.80
632.2609, 18712.20
632.7430, 18809.72
633.2251, 18871.49
633.7072, 18844.13
634.1893, 18790.11
634.6714, 18760.09
635.1536, 18761.38
635.6357, 18771.88
636.1178, 18793.92
636.5999, 18820.24
637.0820, 18833.43
637.5641, 18832.42
638.0463, 18844.60
638.5284, 18885.52
639.0105, 18939.30
639.4926, 18977.35
639.9747, 19000.71
640.4568, 19014.79
640.9390, 19016.99
641.4211, 19015.54
641.9032, 19016.35
642.3853, 19019.84
642.8674, 19029.64
643.3495, 19046.32
643.8317, 19070.45
644.3138, 19103.90
644.7959, 19157.63
645.2780, 19198.90
645.7601, 19219.40
646.2422, 19234.63
646.7244, 19263.60
647.2065, 19308.32
647.6886, 19356.61
648.1707, 19409.46
648.6528, 19459.73
649.1349, 19493.20
649.6171, 19510.84
650.0992, 19520.77
650.5813, 19510.67
651.0634, 19504.94
651.5455, 19547.40
652.0276, 19627.85
652.5098, 19689.24
652.9919, 19669.84
653.4740, 19646.34
653.9561, 19677.20
654.4382, 19782.85
654.9203, 19850.81
655.4025, 19829.78
655.8846, 19797.63
656.3667, 19809.18
656.8488, 19886.22
657.3309, 19939.53
657.8130, 19959.69
658.2952, 19967.64
658.7773, 19993.42
659.2594, 20035.70
659.7415, 20075.71
660.2236, 20108.46
660.7057, 20137.08
661.1879, 20164.89
661.6700, 20191.92
662.1521, 20217.91
662.6342, 20240.47
663.1163, 20263.90
663.5984, 20290.95
664.0806, 20321.44
664.5627, 20353.48
665.0448, 20400.11
665.5269, 20434.78
666.0090, 20437.51
666.4911, 20398.24
666.9733, 20405.11
667.4554, 20472.62
667.9375, 20557.53
668.4196, 20628.16
668.9017, 20684.87
669.3839, 20730.80
669.8660, 20764.83
670.3481, 20794.12
670.8302, 20831.97
671.3123, 20870.76
671.7944, 20891.36
672.2766, 20870.64
672.7587, 20857.92
673.2408, 20888.03
673.7229, 20948.87
674.2050, 21017.19
674.6871, 21119.23
675.1693, 21192.29
675.6514, 21202.86
676.1335, 21166.20
676.6156, 21160.93
677.0977, 21195.72
677.5798, 21242.61
678.0620, 21295.36
678.5441, 21351.93
679.0262, 21383.41
679.5083, 21388.70
679.9904, 21391.63
680.4725, 21408.60
680.9547, 21436.94
681.4368, 21473.90
681.9189, 21519.42
682.4010, 21567.89
682.8831, 21627.67
683.3652, 21682.13
683.8474, 21711.70
684.3295, 21680.60
684.8116, 21674.61
685.2937, 21734.92
685.7758, 21814.16
686.2579, 21845.50
686.7401, 21802.88
687.2222, 21784.94
687.7043, 21814.67
688.1864, 21874.04
688.6685, 21918.37
689.1506, 21949.09
689.6328, 21988.91
690.1149, 22057.72
690.5970, 22135.79
691.0791, 22195.12
691.5612, 22237.67
692.0433, 22271.93
692.5255, 22295.56
693.0076, 22318.90
693.4897, 22349.31
693.9718, 22388.02
694.4539, 22425.47
694.9360, 22456.26
695.4182, 22489.25
695.9003, 22533.55
696.3824, 22597.31
696.8645, 22629.88
697.3466, 22621.10
697.8287, 22607.78
698.3109, 22633.58
698.7930, 22691.40
699.2751, 22742.38
699.7572, 22777.10
700.2393, 22811.99
700.7214, 22865.21
701.2036, 22930.00
701.6857, 22995.49
702.1678, 23074.07
702.6499, 23133.70
703.1320, 23146.16
703.6141, 23131.15
704.0963, 23138.75
704.5784, 23183.53
705.0605, 23232.95
705.5426, 23283.12
706.0247, 23332.61
706.5068, 23375.41
706.9890, 23412.31
707.4711, 23437.96
707.9532, 23440.24
708.4353, 23431.18
708.9174, 23441.84
709.3995, 23471.14
709.8817, 23509.01
710.3638, 23555.83
710.8459, 23603.15
711.3280, 23643.79
711.8101, 23677.42
712.2922, 23703.30
712.7744, 23709.75
713.2565, 23717.13
713.7386, 23739.28
714.2207, 23781.42
714.7028, 23825.83
715.1849, 23874.44
715.6671, 23922.73
716.1492, 23975.19
716.6313, 24028.72
717.1134, 24042.94
717.5955, 23998.98
718.0776, 23952.11
718.5598, 23974.36
719.0419, 24042.66
719.5240, 24112.56
720.0061, 24175.95
720.4882, 24228.71
720.9703, 24260.15
721.4525, 24280.57
721.9346, 24313.91
722.4167, 24389.88
722.8988, 24443.71
723.3809, 24452.84
723.8630, 24431.95
724.3452, 24441.35
724.8273, 24483.99
725.3094, 24534.91
725.7915, 24578.79
726.2736, 24623.55
726.7557, 24704.41
727.2379, 24814.28
727.7200, 24897.33
728.2021, 24895.45
728.6842, 24866.98
729.1663, 24858.87
729.6484, 24875.66
730.1306, 24892.86
730.6127, 24885.24
731.0948, 24892.19
731.5769, 24939.88
732.0590, 25045.17
732.5411, 25121.11
733.0233, 25161.57
733.5054, 25186.43
733.9875, 25205.83
734.4696, 25222.88
734.9517, 25265.17
735.4338, 25340.14
735.9160, 25414.97
736.3981, 25449.37
736.8802, 25464.28
737.3623, 25492.70
737.8444, 25557.37
738.3266, 25609.53
738.8087, 25605.99
739.2908, 25587.57
739.7729, 25617.20
740.2551, 25746.39
740.7372, 25830.64
741.2193, 25835.63
741.7014, 25802.05
742.1835, 25817.03
742.6656, 25881.06
743.1478, 25952.15
743.6299, 26022.79
744.1120, 26086.33
744.5941, 26132.35
745.0762, 26162.18
745.5583, 26181.46
746.0405, 26167.61
746.5226, 26167.30
747.0047, 26216.22
747.4868, 26305.71
747.9689, 26382.52
748.4510, 26423.24
748.9332, 26473.04
749.4153, 26560.54
749.8974, 26677.03
750.3795, 26710.38
750.8616, 26649.36
751.3438, 26591.78
751.8259, 26602.66
752.3080, 26661.70
752.7901, 26725.01
753.2722, 26791.26
753.7543, 26861.19
754.2365, 26962.58
754.7186, 27049.12
755.2007, 27065.77
755.6828, 26987.11
756.1649, 26959.26
756.6470, 27043.11
757.1292, 27152.31
757.6113, 27241.18
758.0934, 27311.24
758.5755, 27349.31
759.0576, 27349.36
759.5397, 27338.63
760.0219, 27333.60
760.5040, 27340.66
760.9861, 27389.11
761.4682, 27491.02
761.9503, 27589.79
762.4324, 27634.47
762.9146, 27653.86
763.3967, 27681.23
763.8788, 27718.30
764.3609, 27774.23
764.8430, 27879.39
765.3251, 27987.31
765.8073, 28037.56
766.2894, 28006.35
766.7715, 28013.25
767.2536, 28082.27
767.7357, 28181.57
768.2178, 28267.68
768.7000, 28339.91
769.1821, 28391.73
769.6642, 28410.43
770.1463, 28426.35
770.6284, 28468.26
771.1105, 28525.86
771.5927, 28579.28
772.0748, 28627.99
772.5569, 28664.81
773.0390, 28672.69
773.5211, 28670.35
774.0032, 28711.14
774.4854, 28809.57
774.9675, 28896.55
775.4496, 28949.94
775.9317, 28979.95
776.4138, 29002.79
776.8959, 29021.88
777.3781, 29056.73
777.8602, 29138.27
778.3423, 29223.14
778.8244, 29269.92
779.3065, 29287.21
779.7886, 29313.12
780.2708, 29367.42
780.7529, 29424.27
781.2350, 29485.37
781.7171, 29546.33
782.1992, 29552.03
782.6813, 29480.62
783.1635, 29441.21
783.6456, 29515.53
784.1277, 29660.70
784.6098, 29735.10
785.0919, 29743.75
785.5740, 29740.65
786.0562, 29739.34
786.5383, 29756.94
787.0204, 29825.51
787.5025, 29946.02
787.9846, 30026.91
788.4667, 29991.81
788.9489, 29965.03
789.4310, 30003.04
789.9131, 30109.69
790.3952, 30206.64
790.8773, 30295.45
791.3594, 30363.64
791.8416, 30388.69
792.3237, 30386.82
792.8058, 30399.08
793.2879, 30427.58
793.7700, 30466.33
794.2521, 30514.30
794.7343, 30568.67
795.2164, 30626.89
795.6985, 30689.79
796.1806, 30755.31
796.6627, 30833.76
797.1448, 30903.98
797.6270, 30944.11
798.1091, 30946.09
798.5912, 30989.30
799.0733, 31080.90
799.5554, 31180.24
800.0375, 31251.01
800.5197, 31299.87
801.0018, 31334.00
801.4839, 31351.26
801.9660, 31378.88
802.4481, 31423.49
802.9302, 31491.82
803.4124, 31597.18
803.8945, 31789.71
804.3766, 31903.02
804.8587, 31895.45
805.3408, 31863.53
805.8229, 31892.70
806.3051, 31982.70
806.7872, 32103.26
807.2693, 32259.70
807.7514, 32400.42
808.2335, 32456.65
808.7156, 32469.56
809.1978, 32499.06
809.6799, 32556.76
810.1620, 32634.37
810.6441, 32733.24
811.1262, 32848.46
811.6083, 32976.35
812.0905, 33134.20
812.5726, 33265.66
813.0547, 33366.06
813.5368, 33444.48
814.0189, 33488.83
814.5010, 33512.34
814.9832, 33601.12
815.4653, 33777.48
815.9474, 33976.07
816.4295, 34151.91
816.9116, 34309.47
817.3937, 34451.59
817.8759, 34556.80
818.3580, 34687.87
818.8401, 34874.18
819.3222, 35079.66
819.8043, 35278.75
820.2864, 35477.94
820.7686, 35634.54
821.2507, 35733.26
821.7328, 35819.59
822.2149, 35961.41
822.6970, 36134.73
823.1791, 36283.77
823.6613, 36396.71
824.1434, 36476.18
824.6255, 36501.27
825.1076, 36502.95
825.5897, 36515.24
826.0718, 36568.09
826.5540, 36600.40
827.0361, 36628.53
827.5182, 36617.89
828.0003, 36500.28
828.4824, 36278.45
828.9645, 36115.44
829.4467, 36041.56
829.9288, 36008.02
830.4109, 35974.96
830.8930, 35940.61
831.3751, 35898.56
831.8572, 35834.62
832.3394, 35792.87
832.8215, 35816.27
833.3036, 35854.34
833.7857, 35850.63
834.2678, 35791.84
834.7499, 35725.73
835.2321, 35646.63
835.7142, 35581.29
836.1963, 35569.81
836.6784, 35601.32
837.1605, 35639.91
837.6426, 35681.30
838.1248, 35715.91
838.6069, 35725.89
839.0890, 35729.94
839.5711, 35748.89
840.0532, 35794.51
840.5353, 35841.11
841.0175, 35878.97
841.4996, 35925.30
841.9817, 36004.89
842.4638, 36120.35
842.9459, 36209.51
843.4280, 36264.04
843.9102, 36304.87
844.3923, 36359.93
844.8744, 36415.23
845.3565, 36442.04
845.8386, 36423.87
846.3207, 36419.18
846.8029, 36443.98
847.2850, 36498.36
847.7671, 36587.54
848.2492, 36744.57
848.7313, 36842.94
849.2134, 36872.07
849.6956, 36867.51
850.1777, 36842.51
850.6598, 36812.08
851.1419, 36839.42
851.6240, 36937.59
852.1061, 37037.09
852.5883, 37078.86
853.0704, 37101.91
853.5525, 37144.45
854.0346, 37221.91
854.5167, 37288.10
854.9988, 37347.33
855.4810, 37386.35
855.9631, 37382.23
856.4452, 37333.68
856.9273, 37342.83
857.4094, 37415.77
857.8915, 37494.17
858.3737, 37523.13
858.8558, 37528.39
859.3379, 37539.43
859.8200, 37559.42
860.3021, 37588.32
860.7842, 37623.20
861.2664, 37669.43
861.7485, 37723.11
862.2306, 37780.98
862.7127, 37898.50
863.1948, 38093.94
863.6769, 38272.55
864.1591, 38349.30
864.6412, 38364.39
865.1233, 38405.36
865.6054, 38476.55
866.0875, 38585.38
866.5696, 38773.67
867.0518, 38971.21
867.5339, 39132.25
868.0160, 39253.38
868.4981, 39373.53
868.9802, 39483.84
869.4623, 39613.06
869.9445, 39777.38
870.4266, 39970.59
870.9087, 40154.03
871.3908, 40334.02
871.8729, 40550.18
872.3550, 40869.24
872.8372, 41203.30
873.3193, 41460.47
873.8014, 41659.46
874.2835, 41902.61
874.7656, 42242.96
875.2477, 42598.29
875.7299, 42961.71
876.2120, 43321.06
876.6941, 43637.16
877.1762, 43908.95
877.6583, 44170.02
878.1404, 44450.45
878.6226, 44707.66
879.1047, 44884.71
879.5869, 44992.18
880.0690, 45061.75
880.5511, 45113.24
881.0332, 45118.39
881.5153, 45073.39
881.9974, 44976.09
882.4796, 44804.39
882.9617, 44544.05
883.4438, 44290.53
883.9259, 44073.26
884.4080, 43863.97
884.8901, 43612.92
885.3723, 43336.28
885.8544, 43068.66
886.3365, 42808.54
886.8186, 42585.98
887.3007, 42438.89
887.7828, 42330.50
888.2650, 42206.51
888.7471, 42050.58
889.2292, 41925.97
889.7113, 41843.96
890.1934, 41780.24
890.6755, 41705.61
891.1577, 41622.41
891.6398, 41529.24
892.1219, 41420.71
892.6040, 41333.84
893.0861, 41306.61
893.5682, 41307.21
894.0504, 41307.44
894.5325, 41305.24
895.0146, 41300.01
895.4967, 41298.38
895.9788, 41281.57
896.4609, 41207.09
896.9431, 41094.59
897.4252, 41088.54
897.9073, 41197.88
898.3894, 41307.08
898.8715, 41328.19
899.3536, 41313.02
899.8358, 41300.37
900.3179, 41293.85
900.8000, 41297.54
901.2821, 41313.90
901.7642, 41336.77
902.2463, 41367.81
902.7285, 41403.90
903.2106, 41418.91
903.6927, 41413.88
904.1748, 41417.50
904.6569, 41452.62
905.1390, 41501.16
905.6212, 41553.92
906.1033, 41605.81
906.5854, 41640.14
907.0675, 41609.75
907.5496, 41613.64
908.0317, 41685.83
908.5139, 41803.37
908.9960, 41908.74
909.4781, 42001.47
909.9602, 42048.42
910.4423, 42009.41
910.9244, 41964.51
911.4066, 42028.99
911.8887, 42154.21
912.3708, 42251.60
912.8529, 42244.54
913.3350, 42268.10
913.8171, 42380.32
914.2993, 42509.39
914.7814, 42542.65
915.2635, 42468.70
915.7456, 42458.03
916.2277, 42544.35
916.7098, 42656.59
917.1920, 42703.60
917.6741, 42725.74
918.1562, 42792.30
918.6383, 42940.39
919.1204, 43046.21
919.6025, 43005.38
920.0847, 42964.79
920.5668, 43042.64
921.0489, 43272.57
921.5310, 43357.78
922.0131, 43280.87
922.4952, 43202.55
922.9774, 43273.89
923.4595, 43416.15
923.9416, 43520.95
924.4237, 43581.54
924.9058, 43618.16
925.3879, 43609.55
925.8701, 43609.79
926.3522, 43650.05
926.8343, 43722.29
927.3164, 43746.64
927.7985, 43713.81
928.2806, 43721.48
928.7628, 43841.02
929.2449, 44001.28
929.7270, 44096.82
930.2091, 44141.41
930.6912, 44175.08
931.1733, 44204.79
931.6555, 44235.95
932.1376, 44269.07
932.6197, 44304.91
933.1018, 44344.91
933.5839, 44389.62
934.0660, 44442.00
934.5482, 44510.81
935.0303, 44563.26
935.5124, 44522.11
935.9945, 44445.27
936.4766, 44440.25
936.9587, 44558.87
937.4409, 44674.49
937.9230, 44729.72
938.4051, 44780.57
938.8872, 44875.12
939.3693, 45027.27
939.8514, 45144.24
940.3336, 45222.06
940.8157, 45285.15
941.2978, 45354.25
941.7799, 45421.61
942.2620, 45480.52
942.7441, 45529.41
943.2263, 45556.78
943.7084, 45513.95
944.1905, 45495.57
944.6726, 45547.10
945.1547, 45655.97
945.6368, 45740.47
946.1190, 45799.34
946.6011, 45868.69
947.0832, 45981.25
947.5653, 46094.98
948.0474, 46152.86
948.5295, 46168.90
949.0117, 46175.76
949.4938, 46156.33
949.9759, 46166.27
950.4580, 46223.29
950.9401, 46307.73
951.4222, 46400.57
951.9044, 46503.05
952.3865, 46557.82
952.8686, 46547.12
953.3507, 46528.88
953.8328, 46561.26
954.3149, 46624.57
954.7971, 46699.27
955.2792, 46787.84
955.7613, 46857.84
956.2434, 46891.29
956.7255, 46921.23
957.2076, 46966.86
957.6898, 47028.05
958.1719, 47092.14
958.6540, 47159.62
959.1361, 47231.07
959.6182, 47325.00
960.1003, 47409.80
960.5825, 47436.09
961.0646, 47419.00
961.5467, 47454.75
962.0288, 47621.40
962.5109, 47747.82
962.9930, 47783.40
963.4752, 47761.10
963.9573, 47739.59
964.4394, 47726.14
964.9215, 47770.65
965.4036, 47915.80
965.8857, 48071.54
966.3679, 48168.77
966.8500, 48231.64
967.3321, 48292.27
967.8142, 48355.70
968.2963, 48415.41
968.7784, 48470.42
969.2606, 48522.67
969.7427, 48573.41
970.2248, 48622.49
970.7069, 48675.58
971.1890, 48732.60
971.6711, 48766.28
972.1533, 48717.53
972.6354, 48673.17
973.1175, 48693.13
973.5996, 48779.14
974.0817, 48892.34
974.5638, 49047.46
975.0460, 49174.49
975.5281, 49227.13
976.0102, 49250.81
976.4923, 49359.55
976.9744, 49523.04
977.4565, 49652.34
977.9387, 49695.88
978.4208, 49713.52
978.9029, 49692.52
979.3850, 49673.68
979.8671, 49718.14
980.3492, 49837.70
980.8314, 49953.49
981.3135, 50059.13
981.7956, 50151.59
982.2777, 50241.66
982.7598, 50311.65
983.2419, 50321.23
983.7241, 50253.80
984.2062, 50219.43
984.6883, 50246.10
985.1704, 50322.34
985.6525, 50461.04
986.1346, 50652.98
986.6168, 50802.68
987.0989, 50910.54
987.5810, 50988.98
988.0631, 51023.65
988.5452, 51050.31
989.0273, 51100.05
989.5095, 51168.36
989.9916, 51243.98
990.4737, 51350.34
990.9558, 51416.89
991.4379, 51408.85
991.9200, 51394.64
992.4022, 51511.10
992.8843, 51720.13
993.3664, 51856.17
993.8485, 51880.51
994.3306, 51874.99
994.8127, 51862.24
995.2949, 51867.29
995.7770, 51916.09
996.2591, 52012.62
996.7412, 52131.76
997.2233, 52289.34
997.7054, 52407.71
998.1876, 52396.08
998.6697, 52329.27
999.1518, 52394.19
999.6339, 52558.81
1000.116, 52695.32
1000.598, 52692.38
1001.080, 52715.77
1001.562, 52840.78
1002.044, 53019.77
1002.527, 53173.95
1003.009, 53300.41
1003.491, 53434.50
1003.973, 53588.84
1004.455, 53715.34
1004.937, 53733.32
1005.419, 53702.70
1005.901, 53693.06
1006.384, 53713.41
1006.866, 53773.91
1007.348, 53909.71
1007.830, 54029.86
1008.312, 54072.95
1008.794, 54054.71
1009.276, 54077.82
1009.758, 54135.27
1010.240, 54169.97
1010.723, 54112.61
1011.205, 54057.46
1011.687, 54053.63
1012.169, 54100.21
1012.651, 54194.18
1013.133, 54370.09
1013.615, 54486.28
1014.097, 54511.57
1014.580, 54498.04
1015.062, 54509.26
1015.544, 54536.23
1016.026, 54563.14
1016.508, 54587.37
1016.990, 54608.80
1017.472, 54613.54
1017.954, 54629.12
1018.436, 54672.72
1018.919, 54742.86
1019.401, 54814.18
1019.883, 54886.66
1020.365, 54966.46
1020.847, 55087.39
1021.329, 55192.17
1021.811, 55193.00
1022.293, 55134.65
1022.776, 55128.73
1023.258, 55237.43
1023.740, 55333.91
1024.222, 55409.35
1024.704, 55463.02
1025.186, 55478.77
1025.668, 55471.16
1026.150, 55488.12
1026.632, 55536.54
1027.115, 55606.61
1027.597, 55717.61
1028.079, 55826.64
1028.561, 55895.79
1029.043, 55927.93
1029.525, 56001.88
1030.007, 56119.84
1030.489, 56253.14
1030.972, 56406.02
1031.454, 56546.85
1031.936, 56630.74
1032.418, 56670.89
1032.900, 56694.68
1033.382, 56695.64
1033.864, 56701.82
1034.346, 56714.45
1034.828, 56735.01
1035.311, 56755.36
1035.793, 56781.78
1036.275, 56867.48
1036.757, 57017.70
1037.239, 57162.19
1037.721, 57265.42
1038.203, 57333.30
1038.685, 57348.55
1039.167, 57320.86
1039.650, 57339.79
1040.132, 57416.05
1040.614, 57490.86
1041.096, 57538.82
1041.578, 57582.43
1042.060, 57672.12
1042.542, 57778.95
1043.024, 57844.19
1043.507, 57799.74
1043.989, 57816.49
1044.471, 57974.31
1044.953, 58145.18
1045.435, 58221.89
1045.917, 58213.21
1046.399, 58236.72
1046.881, 58293.86
1047.364, 58368.34
1047.846, 58484.81
1048.328, 58581.91
1048.810, 58583.14
1049.292, 58523.96
1049.774, 58568.35
1050.256, 58763.27
1050.738, 58890.48
1051.220, 58888.36
1051.703, 58851.37
1052.185, 58938.30
1052.667, 59076.25
1053.149, 59122.65
1053.631, 59015.29
1054.113, 58982.80
1054.595, 59154.20
1055.077, 59337.14
1055.559, 59436.19
1056.042, 59461.91
1056.524, 59474.71
1057.006, 59479.89
1057.488, 59520.80
1057.970, 59612.87
1058.452, 59756.75
1058.934, 60019.70
1059.416, 60315.78
1059.899, 60478.20
1060.381, 60469.43
1060.863, 60449.63
1061.345, 60424.54
1061.827, 60419.77
1062.309, 60480.17
1062.791, 60568.74
1063.273, 60626.80
1063.755, 60650.52
1064.238, 60681.34
1064.720, 60727.96
1065.202, 60788.32
1065.684, 60863.63
1066.166, 60950.57
1066.648, 61048.81
1067.130, 61151.08
1067.612, 61228.31
1068.094, 61259.62
1068.577, 61291.66
1069.059, 61351.45
1069.541, 61427.15
1070.023, 61510.88
1070.505, 61607.96
1070.987, 61683.00
1071.469, 61736.80
1071.951, 61770.25
1072.434, 61751.30
1072.916, 61736.69
1073.398, 61815.38
1073.880, 61959.21
1074.362, 62065.27
1074.844, 62068.73
1075.326, 62111.72
1075.808, 62226.09
1076.291, 62361.43
1076.773, 62441.77
1077.255, 62486.53
1077.737, 62552.30
1078.219, 62647.61
1078.701, 62736.36
1079.183, 62791.83
1079.665, 62842.73
1080.147, 62904.59
1080.630, 62975.10
1081.112, 63037.07
1081.594, 63091.38
1082.076, 63170.71
1082.558, 63309.61
1083.040, 63435.23
1083.522, 63456.87
1084.004, 63437.02
1084.486, 63462.50
1084.969, 63566.23
1085.451, 63645.36
1085.933, 63693.99
1086.415, 63737.85
1086.897, 63797.29
1087.379, 63864.48
1087.861, 63918.43
1088.343, 63965.84
1088.826, 64036.23
1089.308, 64199.01
1089.790, 64297.97
1090.272, 64270.80
1090.754, 64211.29
1091.236, 64286.09
1091.718, 64462.27
1092.200, 64579.83
1092.682, 64609.71
1093.165, 64647.66
1093.647, 64775.36
1094.129, 64910.05
1094.611, 64997.63
1095.093, 65044.90
1095.575, 65101.60
1096.057, 65168.16
1096.539, 65234.86
1097.022, 65301.68
1097.504, 65357.27
1097.986, 65367.69
1098.468, 65368.70
1098.950, 65413.96
1099.432, 65542.79
1099.914, 65625.15
1100.396, 65642.47
1100.879, 65668.87
1101.361, 65783.77
1101.843, 65932.11
1102.325, 65998.33
1102.807, 66001.92
1103.289, 66018.12
1103.771, 66068.57
1104.253, 66147.47
1104.735, 66267.06
1105.218, 66396.32
1105.700, 66489.41
1106.182, 66553.08
1106.664, 66612.73
1107.146, 66671.82
1107.628, 66733.71
1108.110, 66805.42
1108.592, 66876.55
1109.074, 66942.44
1109.557, 67002.74
1110.039, 67052.77
1110.521, 67092.90
1111.003, 67116.10
1111.485, 67099.43
1111.967, 67127.84
1112.449, 67354.20
1112.931, 67626.96
1113.414, 67763.27
1113.896, 67702.73
1114.378, 67748.75
1114.860, 67934.03
1115.342, 68081.85
1115.824, 68063.25
1116.306, 67971.90
1116.788, 67925.63
1117.271, 67927.46
1117.753, 67984.19
1118.235, 68150.16
1118.717, 68300.10
1119.199, 68436.80
1119.681, 68537.52
1120.163, 68552.00
1120.645, 68516.49
1121.127, 68533.03
1121.609, 68605.41
1122.092, 68714.63
1122.574, 68912.05
1123.056, 69067.56
1123.538, 69123.29
1124.020, 69127.31
1124.502, 69168.78
1124.984, 69245.53
1125.466, 69347.16
1125.949, 69474.15
1126.431, 69590.30
1126.913, 69671.39
1127.395, 69730.13
1127.877, 69766.28
1128.359, 69785.46
1128.841, 69824.64
1129.323, 69884.01
1129.806, 69968.34
1130.288, 70089.64
1130.770, 70213.84
1131.252, 70323.01
1131.734, 70406.09
1132.216, 70432.24
1132.698, 70354.38
1133.180, 70412.51
1133.662, 70649.15
1134.145, 70840.19
1134.627, 70762.55
1135.109, 70606.16
1135.591, 70708.65
1136.073, 70974.91
1136.555, 71161.32
1137.037, 71103.22
1137.519, 71109.88
1138.001, 71217.40
1138.484, 71354.37
1138.966, 71456.21
1139.448, 71526.82
1139.930, 71558.17
1140.412, 71557.17
1140.894, 71578.97
1141.376, 71634.54
1141.858, 71740.60
1142.341, 71937.83
1142.823, 72146.47
1143.305, 72192.86
1143.787, 72117.78
1144.269, 72108.76
1144.751, 72200.85
1145.233, 72316.16
1145.715, 72464.99
1146.198, 72565.71
1146.680, 72543.52
1147.162, 72443.50
1147.644, 72504.95
1148.126, 72713.76
1148.608, 72869.02
1149.090, 72886.86
1149.572, 72894.29
1150.054, 72990.82
1150.536, 73120.34
1151.019, 73238.02
1151.501, 73344.83
1151.983, 73386.20
1152.465, 73358.34
1152.947, 73364.16
1153.429, 73501.93
1153.911, 73650.07
1154.393, 73649.10
1154.876, 73590.57
1155.358, 73646.78
1155.840, 73883.92
1156.322, 74054.22
1156.804, 74146.52
1157.286, 74208.67
1157.768, 74266.34
1158.250, 74325.04
1158.733, 74397.33
1159.215, 74477.24
1159.697, 74544.66
1160.179, 74604.47
1160.661, 74624.94
1161.143, 74580.73
1161.625, 74558.51
1162.107, 74697.09
1162.589, 74908.53
1163.072, 75044.99
1163.554, 75098.11
1164.036, 75132.27
1164.518, 75120.72
1165.000, 75167.87
1165.482, 75319.65
1165.964, 75509.32
1166.446, 75611.87
1166.928, 75657.45
1167.411, 75714.59
1167.893, 75798.48
1168.375, 75876.88
1168.857, 75945.53
1169.339, 75997.30
1169.821, 76015.38
1170.303, 76023.80
1170.785, 76096.56
1171.268, 76220.79
1171.750, 76364.83
1172.232, 76545.30
1172.714, 76671.20
1173.196, 76646.83
1173.678, 76611.18
1174.160, 76650.47
1174.642, 76751.56
1175.125, 76826.62
1175.607, 76880.13
1176.089, 76932.77
1176.571, 76989.95
1177.053, 77055.46
1177.535, 77137.98
1178.017, 77224.78
1178.499, 77305.04
1178.981, 77379.34
1179.464, 77444.55
1179.946, 77501.98
1180.428, 77563.55
1180.910, 77614.39
1181.392, 77695.59
1181.874, 77872.00
1182.356, 78073.20
1182.838, 78180.26
1183.320, 78189.39
1183.803, 78254.15
1184.285, 78388.75
1184.767, 78510.48
1185.249, 78521.98
1185.731, 78534.02
1186.213, 78656.91
1186.695, 78835.48
1187.177, 78890.23
1187.660, 78807.32
1188.142, 78828.27
1188.624, 79003.08
1189.106, 79194.61
1189.588, 79306.23
1190.070, 79363.89
1190.552, 79374.28
1191.034, 79345.66
1191.516, 79307.22
1191.999, 79249.02
1192.481, 79297.89
1192.963, 79515.04
1193.445, 79737.55
1193.927, 79771.29
1194.409, 79749.37
1194.891, 79815.79
1195.373, 79982.76
1195.855, 80107.45
1196.338, 80189.30
1196.820, 80234.91
1197.302, 80229.28
1197.784, 80223.86
1198.266, 80269.74
1198.748, 80351.95
1199.230, 80466.26
1199.712, 80625.87
1200.195, 80700.19
1200.677, 80676.31
1201.159, 80655.61
1201.641, 80672.93
1202.123, 80744.11
1202.605, 80949.48
1203.087, 81198.54
1203.569, 81340.56
1204.052, 81321.77
1204.534, 81314.95
1205.016, 81318.30
1205.498, 81343.98
1205.980, 81398.12
1206.462, 81481.34
1206.944, 81614.54
1207.426, 81774.51
1207.908, 81901.98
1208.391, 81975.70
1208.873, 82075.46
1209.355, 82213.85
1209.837, 82333.08
1210.319, 82348.03
1210.801, 82344.12
1211.283, 82447.34
1211.765, 82617.55
1212.247, 82693.97
1212.730, 82626.70
1213.212, 82592.09
1213.694, 82607.47
1214.176, 82661.21
1214.658, 82752.77
1215.140, 82869.59
1215.622, 83011.46
1216.104, 83169.88
1216.587, 83293.55
1217.069, 83369.03
1217.551, 83453.26
1218.033, 83560.85
1218.515, 83655.89
1218.997, 83690.11
1219.479, 83695.30
1219.961, 83686.17
1220.443, 83672.90
1220.926, 83745.84
1221.408, 83932.67
1221.890, 84103.27
1222.372, 84233.61
1222.854, 84315.77
1223.336, 84289.22
1223.818, 84241.54
1224.300, 84281.94
1224.782, 84427.78
1225.265, 84552.59
1225.747, 84654.26
1226.229, 84739.37
1226.711, 84801.41
1227.193, 84871.20
1227.675, 85006.14
1228.157, 85158.76
1228.639, 85266.87
1229.122, 85319.93
1229.604, 85389.38
1230.086, 85480.58
1230.568, 85554.81
1231.050, 85596.68
1231.532, 85616.33
1232.014, 85605.29
1232.496, 85590.08
1232.979, 85598.02
1233.461, 85627.05
1233.943, 85725.99
1234.425, 85901.10
1234.907, 86076.98
1235.389, 86226.73
1235.871, 86348.27
1236.353, 86416.69
1236.835, 86472.55
1237.318, 86580.79
1237.800, 86759.80
1238.282, 86851.63
1238.764, 86851.35
1239.246, 86850.33
1239.728, 86893.85
1240.210, 86962.81
1240.692, 87053.80
1241.175, 87153.84
1241.657, 87246.09
1242.139, 87332.93
1242.621, 87382.77
1243.103, 87395.66
1243.585, 87450.09
1244.067, 87652.49
1244.549, 87851.51
1245.031, 87914.70
1245.514, 87930.31
1245.996, 88031.32
1246.478, 88230.55
1246.960, 88368.14
1247.442, 88443.59
1247.924, 88499.73
1248.406, 88561.27
1248.888, 88612.91
1249.370, 88620.33
1249.853, 88629.66
1250.335, 88726.02
1250.817, 88902.55
1251.299, 88931.64
1251.781, 88817.38
1252.263, 88767.81
1252.745, 88996.66
1253.227, 89218.21
1253.710, 89295.92
1254.192, 89305.25
1254.674, 89315.73
1255.156, 89334.95
1255.638, 89443.95
1256.120, 89636.59
1256.602, 89787.68
1257.084, 89763.73
1257.567, 89771.38
1258.049, 89890.79
1258.531, 90052.72
1259.013, 90153.61
1259.495, 90215.30
1259.977, 90353.00
1260.459, 90559.09
1260.941, 90657.89
1261.423, 90399.09
1261.906, 90261.39
1262.388, 90380.51
1262.870, 90612.79
1263.352, 90765.61
1263.834, 90865.91
1264.316, 90976.91
1264.798, 91100.95
1265.280, 91199.98
1265.762, 91238.89
1266.245, 91287.38
1266.727, 91351.77
1267.209, 91445.17
1267.691, 91636.64
1268.173, 91844.74
1268.655, 91920.83
1269.137, 91860.16
1269.619, 91795.62
1270.102, 91690.19
1270.584, 91741.81
1271.066, 92025.19
1271.548, 92362.48
1272.030, 92576.33
1272.512, 92678.52
1272.994, 92619.14
1273.476, 92418.91
1273.958, 92390.51
1274.441, 92586.14
1274.923, 92718.96
1275.405, 92707.73
1275.887, 92700.66
1276.369, 92912.24
1276.851, 93155.70
1277.333, 93219.83
1277.815, 93135.70
1278.297, 93167.84
1278.780, 93323.75
1279.262, 93423.98
1279.744, 93419.27
1280.226, 93399.76
1280.708, 93416.64
1281.190, 93467.55
1281.672, 93557.59
1282.154, 93677.62
1282.637, 93813.34
1283.119, 93958.91
1283.601, 94043.12
1284.083, 94042.13
1284.565, 94055.22
1285.047, 94155.15
1285.529, 94273.23
1286.011, 94382.77
1286.494, 94478.99
1286.976, 94521.79
1287.458, 94536.45
1287.940, 94619.02
1288.422, 94799.08
1288.904, 94961.87
1289.386, 95072.96
1289.868, 95147.06
1290.350, 95189.12
1290.833, 95193.45
1291.315, 95082.13
1291.797, 94945.32
1292.279, 94983.37
1292.761, 95256.13
1293.243, 95492.75
1293.725, 95661.86
1294.207, 95788.52
1294.689, 95871.21
1295.172, 95941.47
1295.654, 96053.30
1296.136, 96176.62
1296.618, 96261.89
1297.100, 96297.98
1297.582, 96391.83
1298.064, 96556.47
1298.546, 96702.80
1299.029, 96806.02
1299.511, 96872.04
1299.993, 96864.86
1300.475, 96853.57
1300.957, 96930.21
1301.439, 97074.01
1301.921, 97126.09
1302.403, 97091.08
1302.885, 97107.19
1303.368, 97226.10
1303.850, 97344.40
1304.332, 97363.26
1304.814, 97383.77
1305.296, 97462.84
1305.778, 97593.58
1306.260, 97781.52
1306.742, 98003.80
1307.224, 98166.24
1307.707, 98231.07
1308.189, 98312.21
1308.671, 98480.04
1309.153, 98640.14
1309.635, 98771.91
1310.117, 98856.04
1310.599, 98811.51
1311.081, 98698.16
1311.564, 98619.34
1312.046, 98587.00
1312.528, 98695.27
1313.010, 99017.37
1313.492, 99254.22
1313.974, 99281.14
1314.456, 99233.77
1314.938, 99251.42
##END=



