##NAMES=Grossular
##RRUFFID=R060446
##IDEAL CHEMISTRY=Ca_3_Al_2_(SiO_4_)_3_
##LOCALITY=Africa
##OWNER=RRUFF
##SOURCE=Gemological Institute of America
##DESCRIPTION=Orange fragment. Variety hibschite.
##STATUS=The identification of this mineral has been confirmed by X-ray diffraction and chemical analysis
##URL=rruff.info/R060446
##MEASURED CHEMISTRY=(Ca_2.97_Mn_0.03_)_Σ=3_(Al_1.96_Fe^3+^_0.04_)_Σ=2_(Si_1.00_O_4_)_2.71_(OH)_1.16_ (x=0.29); OH estimated by charge balance
99.832, 77.897
100.314, 72.296
100.796, 68.198
101.279, 65.882
101.761, 64.428
102.243, 63.740
102.725, 63.543
103.207, 63.494
103.689, 63.318
104.171, 63.300
104.653, 64.607
105.135, 69.110
105.618, 72.275
106.100, 72.056
106.582, 69.947
107.064, 68.018
107.546, 67.363
108.028, 68.042
108.510, 71.188
108.992, 81.291
109.474, 89.822
109.957, 94.077
110.439, 94.902
110.921, 94.579
111.403, 94.885
111.885, 95.775
112.367, 97.744
112.849, 102.455
113.331, 106.653
113.813, 108.609
114.296, 108.503
114.778, 107.552
115.260, 106.483
115.742, 103.434
116.224, 108.021
116.706, 129.869
117.188, 151.540
117.670, 159.701
118.152, 152.750
118.635, 140.087
119.117, 134.128
119.599, 139.870
120.081, 141.504
120.563, 133.311
121.045, 123.698
121.527, 121.115
122.009, 127.940
122.492, 140.319
122.974, 152.383
123.456, 163.610
123.938, 175.838
124.420, 189.050
124.902, 203.480
125.384, 219.140
125.866, 235.794
126.349, 254.628
126.831, 279.665
127.313, 313.015
127.795, 344.325
128.277, 369.244
128.759, 389.379
129.241, 408.229
129.723, 426.048
130.206, 444.564
130.688, 467.611
131.170, 497.792
131.652, 526.008
132.134, 545.662
132.616, 558.076
133.098, 571.616
133.580, 592.648
134.062, 614.156
134.544, 625.507
135.027, 624.341
135.509, 617.009
135.991, 607.192
136.473, 594.859
136.955, 582.356
137.437, 569.612
137.919, 557.792
138.402, 547.551
138.884, 537.207
139.366, 531.591
139.848, 538.841
140.330, 561.450
140.812, 582.947
141.294, 594.366
141.776, 601.315
142.258, 607.373
142.740, 610.992
143.223, 618.120
143.705, 640.412
144.187, 683.149
144.669, 725.983
145.151, 760.600
145.633, 791.291
146.115, 822.732
146.598, 857.189
147.080, 892.976
147.562, 926.547
148.044, 958.573
148.526, 987.022
149.008, 1009.720
149.490, 1029.663
149.972, 1051.085
150.454, 1077.009
150.936, 1104.924
151.419, 1125.455
151.901, 1135.764
152.383, 1142.341
152.865, 1147.890
153.347, 1151.469
153.829, 1151.614
154.311, 1147.157
154.793, 1138.765
155.276, 1129.418
155.758, 1115.811
156.240, 1105.569
156.722, 1103.171
157.204, 1104.915
157.686, 1105.016
158.168, 1099.605
158.650, 1089.261
159.133, 1079.358
159.615, 1063.855
160.097, 1055.794
160.579, 1061.300
161.061, 1076.229
161.543, 1093.741
162.025, 1109.948
162.507, 1124.653
162.989, 1133.424
163.472, 1126.908
163.954, 1123.279
164.436, 1123.840
164.918, 1130.543
165.400, 1147.477
165.882, 1179.642
166.364, 1226.946
166.846, 1259.574
167.329, 1265.727
167.811, 1268.758
168.293, 1270.710
168.775, 1274.442
169.257, 1284.903
169.739, 1307.290
170.221, 1342.100
170.703, 1366.426
171.185, 1371.651
171.667, 1375.854
172.150, 1385.949
172.632, 1400.066
173.114, 1412.208
173.596, 1417.560
174.078, 1415.844
174.560, 1414.801
175.042, 1415.987
175.525, 1416.298
176.007, 1414.356
176.489, 1410.539
176.971, 1405.745
177.453, 1400.340
177.935, 1394.096
178.417, 1391.976
178.899, 1397.459
179.381, 1402.892
179.863, 1407.741
180.346, 1410.420
180.828, 1407.347
181.310, 1395.034
181.792, 1372.968
182.274, 1353.440
182.756, 1338.094
183.238, 1323.050
183.721, 1304.612
184.203, 1284.662
184.685, 1269.176
185.167, 1263.505
185.649, 1268.100
186.131, 1267.602
186.613, 1259.890
187.095, 1250.384
187.577, 1237.860
188.059, 1224.783
188.542, 1218.188
189.024, 1224.555
189.506, 1243.927
189.988, 1253.670
190.470, 1253.064
190.952, 1245.972
191.434, 1229.370
191.917, 1206.739
192.399, 1186.621
192.881, 1174.653
193.363, 1170.863
193.845, 1172.827
194.327, 1184.705
194.809, 1196.878
195.291, 1205.834
195.773, 1211.945
196.255, 1216.652
196.738, 1220.625
197.220, 1224.026
197.702, 1229.505
198.184, 1241.918
198.666, 1251.064
199.148, 1250.341
199.630, 1242.997
200.112, 1237.446
200.595, 1239.192
201.077, 1247.327
201.559, 1253.304
202.041, 1257.815
202.523, 1260.118
203.005, 1257.748
203.487, 1252.873
203.969, 1250.094
204.452, 1252.001
204.934, 1258.164
205.416, 1266.391
205.898, 1281.530
206.380, 1292.997
206.862, 1294.964
207.344, 1291.211
207.826, 1289.081
208.308, 1292.474
208.791, 1300.273
209.273, 1307.713
209.755, 1321.088
210.237, 1327.089
210.719, 1316.156
211.201, 1296.765
211.683, 1283.164
212.165, 1282.311
212.648, 1290.558
213.130, 1296.667
213.612, 1298.909
214.094, 1301.250
214.576, 1305.255
215.058, 1309.467
215.540, 1310.927
216.022, 1308.170
216.504, 1304.011
216.986, 1305.632
217.469, 1322.979
217.951, 1332.243
218.433, 1323.686
218.915, 1308.676
219.397, 1301.067
219.879, 1305.774
220.361, 1318.027
220.844, 1329.009
221.326, 1341.583
221.808, 1347.989
222.290, 1340.878
222.772, 1330.831
223.254, 1330.554
223.736, 1343.172
224.218, 1358.970
224.700, 1361.856
225.182, 1338.235
225.665, 1328.213
226.147, 1345.041
226.629, 1367.133
227.111, 1374.417
227.593, 1363.710
228.075, 1348.938
228.557, 1348.474
229.040, 1370.512
229.522, 1385.029
230.004, 1387.939
230.486, 1387.110
230.968, 1385.972
231.450, 1385.797
231.932, 1388.431
232.414, 1396.615
232.896, 1412.917
233.378, 1422.785
233.861, 1418.990
234.343, 1416.173
234.825, 1425.320
235.307, 1443.962
235.789, 1460.018
236.271, 1461.729
236.753, 1447.137
237.236, 1440.635
237.718, 1451.557
238.200, 1460.281
238.682, 1455.492
239.164, 1442.000
239.646, 1432.985
240.128, 1439.090
240.610, 1459.331
241.092, 1471.006
241.574, 1463.859
242.057, 1459.106
242.539, 1463.654
243.021, 1473.763
243.503, 1483.221
243.985, 1488.609
244.467, 1489.889
244.949, 1486.681
245.432, 1473.244
245.914, 1461.834
246.396, 1456.415
246.878, 1453.104
247.360, 1447.726
247.842, 1438.467
248.324, 1425.071
248.806, 1405.797
249.288, 1369.006
249.770, 1345.835
250.253, 1347.529
250.735, 1358.221
251.217, 1364.407
251.699, 1361.463
252.181, 1353.091
252.663, 1345.447
253.145, 1339.609
253.627, 1331.817
254.110, 1319.187
254.592, 1306.476
255.074, 1296.087
255.556, 1288.735
256.038, 1284.731
256.520, 1285.378
257.002, 1291.993
257.484, 1297.181
257.966, 1299.619
258.449, 1301.235
258.931, 1302.959
259.413, 1304.739
259.895, 1305.875
260.377, 1306.125
260.859, 1305.513
261.341, 1302.214
261.823, 1290.799
262.306, 1282.954
262.788, 1287.363
263.270, 1299.726
263.752, 1308.588
264.234, 1303.197
264.716, 1288.353
265.198, 1285.847
265.680, 1301.906
266.163, 1319.419
266.645, 1329.901
267.127, 1336.501
267.609, 1343.918
268.091, 1354.046
268.573, 1366.224
269.055, 1380.835
269.537, 1400.062
270.019, 1413.855
270.501, 1411.411
270.984, 1402.986
271.466, 1398.907
271.948, 1401.583
272.430, 1408.900
272.912, 1420.885
273.394, 1437.618
273.876, 1450.633
274.358, 1455.901
274.841, 1456.496
275.323, 1456.425
275.805, 1455.609
276.287, 1455.029
276.769, 1458.910
277.251, 1464.417
277.733, 1458.449
278.215, 1432.200
278.698, 1402.328
279.180, 1392.698
279.662, 1403.603
280.144, 1410.320
280.626, 1399.324
281.108, 1379.972
281.590, 1368.426
282.072, 1368.228
282.555, 1369.760
283.037, 1362.984
283.519, 1348.014
284.001, 1333.657
284.483, 1318.564
284.965, 1305.985
285.447, 1299.971
285.929, 1300.205
286.411, 1301.633
286.893, 1301.381
287.376, 1299.068
287.858, 1292.529
288.340, 1276.392
288.822, 1261.795
289.304, 1252.765
289.786, 1249.240
290.268, 1251.757
290.750, 1261.715
291.233, 1275.884
291.715, 1281.449
292.197, 1266.419
292.679, 1258.242
293.161, 1269.054
293.643, 1285.958
294.125, 1291.143
294.607, 1278.596
295.090, 1258.066
295.572, 1247.190
296.054, 1252.903
296.536, 1256.635
297.018, 1256.255
297.500, 1255.503
297.982, 1258.149
298.464, 1264.037
298.946, 1269.075
299.429, 1268.337
299.911, 1260.297
300.393, 1254.492
300.875, 1249.872
301.357, 1248.365
301.839, 1251.102
302.321, 1257.651
302.803, 1267.571
303.285, 1282.074
303.768, 1299.419
304.250, 1306.550
304.732, 1294.195
305.214, 1284.289
305.696, 1284.379
306.178, 1289.597
306.660, 1293.875
307.142, 1294.599
307.625, 1293.220
308.107, 1291.830
308.589, 1289.775
309.071, 1290.082
309.553, 1294.082
310.035, 1300.596
310.517, 1310.888
310.999, 1325.421
311.482, 1336.978
311.964, 1336.594
312.446, 1325.342
312.928, 1317.452
313.410, 1316.137
313.892, 1317.959
314.374, 1321.862
314.856, 1327.167
315.338, 1327.935
315.820, 1315.153
316.303, 1297.571
316.785, 1293.984
317.267, 1308.276
317.749, 1323.461
318.231, 1325.996
318.713, 1318.637
319.195, 1311.846
319.677, 1306.927
320.160, 1302.958
320.642, 1299.277
321.124, 1295.931
321.606, 1292.755
322.088, 1288.898
322.570, 1285.829
323.052, 1288.655
323.534, 1301.209
324.017, 1312.754
324.499, 1318.743
324.981, 1322.255
325.463, 1327.808
325.945, 1336.856
326.427, 1348.041
326.909, 1359.769
327.391, 1374.497
327.874, 1383.211
328.356, 1380.322
328.838, 1375.889
329.320, 1377.854
329.802, 1385.950
330.284, 1394.109
330.766, 1396.904
331.248, 1394.128
331.730, 1390.984
332.212, 1383.031
332.695, 1379.476
333.177, 1385.876
333.659, 1397.854
334.141, 1408.599
334.623, 1414.613
335.105, 1416.701
335.587, 1416.038
336.069, 1408.626
336.552, 1407.006
337.034, 1415.100
337.516, 1428.128
337.998, 1443.778
338.480, 1461.248
338.962, 1477.693
339.444, 1489.962
339.926, 1498.019
340.409, 1503.396
340.891, 1503.399
341.373, 1504.014
341.855, 1508.729
342.337, 1517.289
342.819, 1528.330
343.301, 1542.880
343.783, 1559.015
344.265, 1571.652
344.748, 1579.689
345.230, 1589.796
345.712, 1607.951
346.194, 1630.991
346.676, 1651.692
347.158, 1667.422
347.640, 1682.622
348.122, 1699.142
348.604, 1717.422
349.087, 1739.052
349.569, 1765.202
350.051, 1794.230
350.533, 1823.345
351.015, 1853.106
351.497, 1881.519
351.979, 1909.144
352.461, 1934.905
352.944, 1954.127
353.426, 1967.341
353.908, 1986.432
354.390, 2025.992
354.872, 2091.354
355.354, 2136.093
355.836, 2140.380
356.318, 2148.428
356.801, 2178.778
357.283, 2226.399
357.765, 2279.118
358.247, 2330.623
358.729, 2380.942
359.211, 2429.918
359.693, 2473.526
360.175, 2523.285
360.657, 2586.151
361.140, 2651.443
361.622, 2709.167
362.104, 2757.461
362.586, 2803.522
363.068, 2857.692
363.550, 2920.753
364.032, 2975.511
364.514, 3015.208
364.996, 3052.415
365.479, 3096.987
365.961, 3145.627
366.443, 3188.623
366.925, 3218.560
367.407, 3240.899
367.889, 3268.933
368.371, 3304.931
368.853, 3328.684
369.336, 3325.488
369.818, 3303.923
370.300, 3284.096
370.782, 3272.855
371.264, 3251.731
371.746, 3205.725
372.228, 3142.542
372.710, 3080.993
373.193, 3027.488
373.675, 2971.743
374.157, 2899.862
374.639, 2808.027
375.121, 2711.882
375.603, 2604.111
376.085, 2498.232
376.567, 2403.232
377.049, 2319.739
377.531, 2244.654
378.014, 2176.302
378.496, 2114.522
378.978, 2054.497
379.460, 1994.404
379.942, 1938.693
380.424, 1884.552
380.906, 1836.491
381.388, 1801.515
381.871, 1781.424
382.353, 1766.986
382.835, 1742.993
383.317, 1705.476
383.799, 1675.984
384.281, 1661.043
384.763, 1650.664
385.245, 1642.670
385.728, 1635.609
386.210, 1625.939
386.692, 1609.814
387.174, 1590.031
387.656, 1573.824
388.138, 1561.862
388.620, 1550.557
389.102, 1536.403
389.584, 1522.414
390.067, 1513.509
390.549, 1511.054
391.031, 1511.705
391.513, 1514.779
391.995, 1519.377
392.477, 1522.565
392.959, 1523.098
393.441, 1524.375
393.923, 1532.049
394.406, 1548.758
394.888, 1557.505
395.370, 1552.039
395.852, 1542.939
396.334, 1535.616
396.816, 1530.782
397.298, 1528.290
397.780, 1527.981
398.263, 1530.005
398.745, 1535.345
399.227, 1552.540
399.709, 1561.577
400.191, 1555.257
400.673, 1543.197
401.155, 1532.750
401.637, 1526.191
402.120, 1523.709
402.602, 1527.624
403.084, 1538.976
403.566, 1543.595
404.048, 1532.195
404.530, 1525.151
405.012, 1538.584
405.494, 1563.144
405.976, 1577.614
406.459, 1568.096
406.941, 1549.012
407.423, 1541.031
407.905, 1544.225
408.387, 1546.902
408.869, 1542.780
409.351, 1537.692
409.833, 1542.548
410.315, 1560.611
410.798, 1573.724
411.280, 1575.327
411.762, 1568.722
412.244, 1556.570
412.726, 1539.662
413.208, 1521.148
413.690, 1503.958
414.172, 1488.063
414.655, 1470.536
415.137, 1450.547
415.619, 1430.155
416.101, 1408.961
416.583, 1388.189
417.065, 1370.409
417.547, 1356.585
418.029, 1343.014
418.512, 1322.288
418.994, 1290.879
419.476, 1263.412
419.958, 1239.776
420.440, 1221.170
420.922, 1210.373
421.404, 1205.729
421.886, 1202.120
422.368, 1196.086
422.850, 1189.188
423.333, 1186.461
423.815, 1189.504
424.297, 1188.205
424.779, 1175.206
425.261, 1156.897
425.743, 1142.755
426.225, 1133.783
426.707, 1126.868
427.190, 1119.691
427.672, 1113.751
428.154, 1113.393
428.636, 1119.541
429.118, 1124.201
429.600, 1119.044
430.082, 1103.330
430.564, 1092.154
431.047, 1088.721
431.529, 1085.708
432.011, 1077.587
432.493, 1068.680
432.975, 1067.932
433.457, 1078.994
433.939, 1093.959
434.421, 1097.099
434.903, 1082.892
435.386, 1072.256
435.868, 1067.791
436.350, 1065.516
436.832, 1063.928
437.314, 1062.935
437.796, 1063.064
438.278, 1065.981
438.760, 1069.380
439.242, 1066.857
439.725, 1057.118
440.207, 1049.514
440.689, 1049.698
441.171, 1052.975
441.653, 1051.648
442.135, 1043.986
442.617, 1038.073
443.099, 1037.883
443.582, 1041.360
444.064, 1046.689
444.546, 1053.412
445.028, 1058.689
445.510, 1060.019
445.992, 1057.454
446.474, 1054.209
446.956, 1050.110
447.439, 1045.581
447.921, 1039.084
448.403, 1032.878
448.885, 1030.340
449.367, 1032.388
449.849, 1036.207
450.331, 1038.466
450.813, 1039.574
451.295, 1036.726
451.778, 1024.240
452.260, 1014.039
452.742, 1013.821
453.224, 1019.594
453.706, 1022.083
454.188, 1015.128
454.670, 1006.394
455.152, 1006.930
455.634, 1016.221
456.117, 1025.934
456.599, 1035.226
457.081, 1041.306
457.563, 1036.918
458.045, 1020.603
458.527, 1011.909
459.009, 1022.525
459.491, 1036.349
459.974, 1036.940
460.456, 1026.990
460.938, 1018.887
461.420, 1018.305
461.902, 1006.586
462.384, 1017.154
462.866, 1022.311
463.348, 1022.350
463.831, 1001.936
464.313, 1007.932
464.795, 1003.345
465.277, 998.323
465.759, 1008.036
466.241, 990.597
466.723, 1000.077
467.205, 996.843
467.687, 1013.527
468.169, 1027.964
468.652, 1026.476
469.134, 1018.280
469.616, 1015.042
470.098, 1019.071
470.580, 1024.862
471.062, 1029.898
471.544, 1034.396
472.026, 1039.862
472.509, 1046.584
472.991, 1049.717
473.473, 1043.645
473.955, 1028.306
474.437, 1019.718
474.919, 1022.031
475.401, 1024.949
475.883, 1024.746
476.366, 1023.899
476.848, 1026.656
477.330, 1034.012
477.812, 1041.714
478.294, 1043.052
478.776, 1036.710
479.258, 1035.535
479.740, 1046.973
480.222, 1053.781
480.705, 1044.256
481.187, 1025.782
481.669, 1011.951
482.151, 1008.021
482.633, 1008.320
483.115, 1007.525
483.597, 1006.249
484.079, 1002.783
484.561, 992.142
485.044, 997.105
485.526, 990.148
486.008, 1005.851
486.490, 1016.053
486.972, 1021.050
487.454, 1005.252
487.936, 1016.307
488.418, 1019.082
488.901, 1019.836
489.383, 1020.272
489.865, 1019.415
490.347, 1014.279
490.829, 1001.646
491.311, 995.584
491.793, 1005.107
492.275, 1013.598
492.758, 1012.432
493.240, 1004.237
493.722, 996.148
494.204, 991.374
494.686, 988.328
495.168, 982.885
495.650, 975.922
496.132, 977.667
496.614, 993.823
497.097, 1015.170
497.579, 1030.459
498.061, 1039.775
498.543, 1043.066
499.025, 1030.898
499.507, 1021.069
499.989, 1029.107
500.471, 1048.593
500.953, 1062.247
501.436, 1061.332
501.918, 1053.271
502.400, 1054.586
502.882, 1069.610
503.364, 1082.237
503.846, 1092.663
504.328, 1099.532
504.810, 1100.584
505.293, 1097.300
505.775, 1093.121
506.257, 1086.216
506.739, 1083.277
507.221, 1099.042
507.703, 1131.531
508.185, 1154.429
508.667, 1157.997
509.150, 1151.204
509.632, 1145.096
510.114, 1139.678
510.596, 1134.924
511.078, 1129.432
511.560, 1125.879
512.042, 1127.536
512.524, 1132.388
513.006, 1135.957
513.489, 1136.081
513.971, 1133.747
514.453, 1129.846
514.935, 1121.978
515.417, 1120.492
515.899, 1132.781
516.381, 1145.336
516.863, 1152.263
517.346, 1154.292
517.828, 1153.800
518.310, 1149.359
518.792, 1146.077
519.274, 1152.573
519.756, 1166.675
520.238, 1174.549
520.720, 1170.514
521.202, 1164.173
521.685, 1167.262
522.167, 1181.666
522.649, 1197.163
523.131, 1219.767
523.613, 1237.279
524.095, 1238.700
524.577, 1232.258
525.059, 1233.691
525.541, 1249.182
526.024, 1268.332
526.506, 1273.241
526.988, 1261.018
527.470, 1256.325
527.952, 1262.084
528.434, 1273.432
528.916, 1289.600
529.398, 1308.649
529.880, 1327.240
530.363, 1344.948
530.845, 1360.886
531.327, 1373.400
531.809, 1383.633
532.291, 1394.639
532.773, 1407.193
533.255, 1419.015
533.737, 1427.017
534.219, 1430.860
534.702, 1441.193
535.184, 1465.989
535.666, 1487.139
536.148, 1495.639
536.630, 1500.677
537.112, 1514.190
537.594, 1538.383
538.076, 1563.636
538.559, 1577.897
539.041, 1583.250
539.523, 1596.209
540.005, 1619.829
540.487, 1642.570
540.969, 1662.129
541.451, 1674.987
541.933, 1673.748
542.416, 1651.492
542.898, 1633.290
543.380, 1632.572
543.862, 1638.284
544.344, 1640.679
544.826, 1637.448
545.308, 1625.858
545.790, 1603.468
546.273, 1572.044
546.755, 1539.166
547.237, 1505.921
547.719, 1469.141
548.201, 1428.297
548.683, 1384.382
549.165, 1333.209
549.647, 1277.871
550.130, 1231.570
550.612, 1206.208
551.094, 1191.309
551.576, 1169.169
552.058, 1141.093
552.540, 1121.439
553.022, 1117.768
553.504, 1119.125
553.986, 1108.676
554.469, 1081.384
554.951, 1060.888
555.433, 1049.552
555.915, 1042.500
556.397, 1040.816
556.879, 1040.898
557.361, 1035.923
557.843, 1023.138
558.325, 1009.065
558.808, 1003.614
559.290, 1007.064
559.772, 1011.237
560.254, 1017.805
560.736, 1021.168
561.218, 1014.790
561.700, 1003.117
562.182, 994.316
562.664, 989.490
563.147, 987.617
563.629, 992.052
564.111, 997.488
564.593, 995.707
565.075, 985.868
565.557, 972.654
566.039, 959.242
566.521, 946.210
567.003, 937.743
567.486, 935.987
567.968, 935.305
568.450, 933.755
568.932, 933.618
569.414, 939.070
569.896, 948.855
570.378, 954.292
570.860, 944.741
571.343, 930.732
571.825, 928.894
572.307, 938.031
572.789, 948.354
573.271, 956.854
573.753, 963.259
574.235, 966.874
574.717, 966.490
575.200, 967.813
575.682, 974.822
576.164, 979.244
576.646, 975.601
577.128, 967.595
577.610, 959.779
578.092, 953.815
578.574, 952.884
579.057, 950.971
579.539, 960.577
580.021, 967.387
580.503, 971.551
580.985, 965.143
581.467, 972.385
581.949, 974.159
582.431, 978.639
582.913, 987.430
583.396, 995.129
583.878, 999.156
584.360, 1000.746
584.842, 1000.067
585.324, 997.884
585.806, 996.290
586.288, 996.714
586.770, 998.577
587.252, 1000.808
587.735, 1004.459
588.217, 1004.165
588.699, 994.284
589.181, 985.117
589.663, 976.987
590.145, 974.146
590.627, 966.647
591.109, 973.429
591.591, 976.745
592.074, 976.780
592.556, 963.711
593.038, 967.564
593.520, 964.635
594.002, 961.428
594.484, 967.662
594.966, 962.793
595.448, 956.232
595.930, 940.152
596.413, 928.451
596.895, 925.940
597.377, 927.499
597.859, 928.916
598.341, 929.610
598.823, 930.652
599.305, 933.152
599.787, 936.093
600.270, 938.357
600.752, 939.834
601.234, 939.714
601.716, 937.353
602.198, 934.719
602.680, 935.716
603.162, 943.502
603.644, 942.939
604.127, 923.664
604.609, 908.284
605.091, 908.588
605.573, 916.101
606.055, 918.091
606.537, 910.642
607.019, 901.947
607.501, 899.295
607.984, 901.370
608.466, 904.619
608.948, 908.819
609.430, 914.784
609.912, 924.349
610.394, 934.514
610.876, 937.313
611.358, 926.337
611.840, 920.236
612.323, 923.849
612.805, 928.328
613.287, 926.247
613.769, 921.116
614.251, 922.776
614.733, 936.747
615.215, 951.737
615.697, 949.123
616.179, 931.943
616.662, 923.362
617.144, 926.985
617.626, 936.962
618.108, 952.924
618.590, 971.635
619.072, 979.411
619.554, 967.047
620.036, 958.779
620.518, 961.073
621.001, 966.771
621.483, 969.470
621.965, 969.989
622.447, 974.099
622.929, 986.355
623.411, 1000.551
623.893, 1002.974
624.375, 993.506
624.857, 989.783
625.340, 996.650
625.822, 1005.650
626.304, 1009.613
626.786, 1009.456
627.268, 1011.747
627.750, 1023.513
628.232, 1028.944
628.714, 1015.472
629.197, 999.031
629.679, 999.538
630.161, 1015.189
630.643, 1025.993
631.125, 1015.805
631.607, 994.159
632.089, 986.066
632.571, 993.089
633.054, 996.468
633.536, 990.502
634.018, 982.560
634.500, 978.026
634.982, 977.107
635.464, 981.518
635.946, 998.058
636.428, 1011.956
636.911, 1017.854
637.393, 1018.351
637.875, 1015.300
638.357, 1009.744
638.839, 1003.478
639.321, 997.212
639.803, 992.029
640.285, 992.708
640.768, 1000.442
641.250, 1003.969
641.732, 998.532
642.214, 990.907
642.696, 989.324
643.178, 992.844
643.660, 991.055
644.142, 977.826
644.624, 965.388
645.107, 959.417
645.589, 956.355
646.071, 953.050
646.553, 948.258
647.035, 940.195
647.517, 926.241
647.999, 908.917
648.481, 895.527
648.963, 885.944
649.446, 882.264
649.928, 888.814
650.410, 895.656
650.892, 891.567
651.374, 876.970
651.856, 863.122
652.338, 848.381
652.820, 837.018
653.302, 832.806
653.785, 831.488
654.267, 828.133
654.749, 822.174
655.231, 816.159
655.713, 811.258
656.195, 808.540
656.677, 813.358
657.159, 826.354
657.641, 831.644
658.124, 823.133
658.606, 809.443
659.088, 797.830
659.570, 788.430
660.052, 784.681
660.534, 795.258
661.016, 800.611
661.498, 788.595
661.981, 773.200
662.463, 771.305
662.945, 782.261
663.427, 789.819
663.909, 780.541
664.391, 763.492
664.873, 756.831
665.355, 759.818
665.838, 761.594
666.320, 759.871
666.802, 754.983
667.284, 745.706
667.766, 732.433
668.248, 725.979
668.730, 730.911
669.212, 736.074
669.695, 740.388
670.177, 743.922
670.659, 748.894
671.141, 753.592
671.623, 750.611
672.105, 729.544
672.587, 708.961
673.069, 721.769
673.551, 758.155
674.034, 775.266
674.516, 763.585
674.998, 746.112
675.480, 742.135
675.962, 749.341
676.444, 752.755
676.926, 752.445
677.408, 747.993
677.890, 733.212
678.373, 720.102
678.855, 717.936
679.337, 723.896
679.819, 728.762
680.301, 728.731
680.783, 727.164
681.265, 726.938
681.747, 727.217
682.229, 724.388
682.712, 718.846
683.194, 719.180
683.676, 732.211
684.158, 752.934
684.640, 766.839
685.122, 773.399
685.604, 774.145
686.086, 765.138
686.568, 754.807
687.051, 745.063
687.533, 737.668
688.015, 737.210
688.497, 748.137
688.979, 755.896
689.461, 749.052
689.943, 738.719
690.425, 738.183
690.908, 745.856
691.390, 751.987
691.872, 751.536
692.354, 748.489
692.836, 750.123
693.318, 756.709
693.800, 761.003
694.282, 763.046
694.765, 761.784
695.247, 755.091
695.729, 745.521
696.211, 738.170
696.693, 733.481
697.175, 729.012
697.657, 724.167
698.139, 719.664
698.622, 713.627
699.104, 708.995
699.586, 712.638
700.068, 726.015
700.550, 738.230
701.032, 737.651
701.514, 727.368
701.996, 715.205
702.478, 701.201
702.961, 690.347
703.443, 684.112
703.925, 682.973
704.407, 689.008
704.889, 704.149
705.371, 711.386
705.853, 706.594
706.335, 699.244
706.817, 686.816
707.300, 675.707
707.782, 674.433
708.264, 682.032
708.746, 686.483
709.228, 678.180
709.710, 666.933
710.192, 662.722
710.674, 663.675
711.157, 665.787
711.639, 668.018
712.121, 670.182
712.603, 672.503
713.085, 674.201
713.567, 670.688
714.049, 659.084
714.531, 651.222
715.013, 649.657
715.496, 651.445
715.978, 656.290
716.460, 662.732
716.942, 666.700
717.424, 667.571
717.906, 665.978
718.388, 658.946
718.870, 651.955
719.352, 650.965
719.835, 654.764
720.317, 658.496
720.799, 659.818
721.281, 659.413
721.763, 656.815
722.245, 652.881
722.727, 654.152
723.209, 661.788
723.692, 668.307
724.174, 669.708
724.656, 667.892
725.138, 666.665
725.620, 666.870
726.102, 665.014
726.584, 659.102
727.066, 653.657
727.549, 650.000
728.031, 647.786
728.513, 646.142
728.995, 645.016
729.477, 646.176
729.959, 654.983
730.441, 663.214
730.923, 658.281
731.406, 645.665
731.888, 640.588
732.370, 646.901
732.852, 656.839
733.334, 663.554
733.816, 666.781
734.298, 663.237
734.780, 649.278
735.262, 643.353
735.745, 654.647
736.227, 667.666
736.709, 668.731
737.191, 660.034
737.673, 651.519
738.155, 641.345
738.637, 634.664
739.119, 632.834
739.601, 634.776
740.084, 644.094
740.566, 656.146
741.048, 658.937
741.530, 646.105
742.012, 629.833
742.494, 621.584
742.976, 620.983
743.458, 631.273
743.940, 651.348
744.423, 662.603
744.905, 654.674
745.387, 639.025
745.869, 636.890
746.351, 652.437
746.833, 655.197
747.315, 631.615
747.797, 616.003
748.279, 628.334
748.762, 648.049
749.244, 654.219
749.726, 646.156
750.208, 638.480
750.690, 634.671
751.172, 633.002
751.654, 634.843
752.136, 637.047
752.619, 633.118
753.101, 624.059
753.583, 619.856
754.065, 628.928
754.547, 644.063
755.029, 652.137
755.511, 653.739
755.993, 652.866
756.476, 649.797
756.958, 647.932
757.440, 650.447
757.922, 654.970
758.404, 653.690
758.886, 640.376
759.368, 634.643
759.850, 643.684
760.333, 652.681
760.815, 656.085
761.297, 656.084
761.779, 656.206
762.261, 657.211
762.743, 655.904
763.225, 645.916
763.707, 637.783
764.189, 646.130
764.672, 660.613
765.154, 658.466
765.636, 635.947
766.118, 613.868
766.600, 612.331
767.082, 623.885
767.564, 627.723
768.046, 624.239
768.528, 625.482
769.011, 635.066
769.493, 644.459
769.975, 645.138
770.457, 640.103
770.939, 645.524
771.421, 675.786
771.903, 690.365
772.385, 671.884
772.867, 653.914
773.350, 655.047
773.832, 667.008
774.314, 674.342
774.796, 673.625
775.278, 670.898
775.760, 666.689
776.242, 663.466
776.724, 665.934
777.206, 670.354
777.689, 667.580
778.171, 655.696
778.653, 644.131
779.135, 642.360
779.617, 647.583
780.099, 652.453
780.581, 657.011
781.063, 662.787
781.546, 670.594
782.028, 676.593
782.510, 676.814
782.992, 672.414
783.474, 670.118
783.956, 669.047
784.438, 671.989
784.920, 684.869
785.403, 695.763
785.885, 697.466
786.367, 693.306
786.849, 688.851
787.331, 683.590
787.813, 682.834
788.295, 691.548
788.777, 702.316
789.260, 711.599
789.742, 718.279
790.224, 720.491
790.706, 718.082
791.188, 714.280
791.670, 710.474
792.152, 708.037
792.634, 709.615
793.117, 714.937
793.599, 724.199
794.081, 737.522
794.563, 748.000
795.045, 749.496
795.527, 744.210
796.009, 739.612
796.491, 734.123
796.973, 735.785
797.456, 749.838
797.938, 763.676
798.420, 769.442
798.902, 770.329
799.384, 773.447
799.866, 780.101
800.348, 784.292
800.830, 781.316
801.312, 780.141
801.795, 786.359
802.277, 796.090
802.759, 802.894
803.241, 806.674
803.723, 815.124
804.205, 836.829
804.687, 861.076
805.169, 873.478
805.651, 881.312
806.134, 901.788
806.616, 935.411
807.098, 964.751
807.580, 977.618
808.062, 984.450
808.544, 1007.863
809.026, 1047.457
809.508, 1082.088
809.990, 1110.689
810.473, 1132.016
810.955, 1142.490
811.437, 1150.315
811.919, 1169.033
812.401, 1200.689
812.883, 1230.501
813.365, 1258.786
813.847, 1284.655
814.330, 1310.115
814.812, 1331.181
815.294, 1339.262
815.776, 1338.517
816.258, 1349.760
816.740, 1389.936
817.222, 1424.526
817.704, 1431.433
818.187, 1432.160
818.669, 1449.661
819.151, 1478.368
819.633, 1498.818
820.115, 1503.038
820.597, 1503.119
821.079, 1513.114
821.561, 1526.310
822.044, 1530.781
822.526, 1526.242
823.008, 1511.918
823.490, 1487.570
823.972, 1461.445
824.454, 1442.152
824.936, 1427.859
825.418, 1410.643
825.900, 1390.645
826.383, 1365.116
826.865, 1330.087
827.347, 1298.005
827.829, 1277.205
828.311, 1265.641
828.793, 1258.090
829.275, 1257.725
829.757, 1254.084
830.239, 1242.490
830.722, 1233.234
831.204, 1230.621
831.686, 1232.040
832.168, 1235.952
832.650, 1241.700
833.132, 1243.983
833.614, 1238.381
834.096, 1231.690
834.578, 1223.539
835.061, 1219.049
835.543, 1229.970
836.025, 1250.967
836.507, 1260.689
836.989, 1247.100
837.471, 1225.901
837.953, 1208.498
838.435, 1198.611
838.917, 1209.416
839.400, 1237.538
839.882, 1261.413
840.364, 1272.705
840.846, 1277.867
841.328, 1283.704
841.810, 1290.456
842.292, 1298.770
842.774, 1308.051
843.257, 1325.387
843.739, 1356.349
844.221, 1384.235
844.703, 1395.115
845.185, 1393.299
845.667, 1394.303
846.149, 1399.097
846.631, 1404.718
847.114, 1411.389
847.596, 1418.603
848.078, 1423.474
848.560, 1430.290
849.042, 1446.658
849.524, 1473.223
850.006, 1494.457
850.488, 1500.891
850.971, 1508.426
851.453, 1524.938
851.935, 1545.230
852.417, 1563.874
852.899, 1581.135
853.381, 1599.834
853.863, 1621.489
854.345, 1644.091
854.827, 1666.300
855.310, 1688.386
855.792, 1710.109
856.274, 1731.965
856.756, 1754.994
857.238, 1779.591
857.720, 1806.887
858.202, 1836.916
858.684, 1871.217
859.166, 1917.940
859.649, 1975.149
860.131, 2022.359
860.613, 2054.881
861.095, 2085.882
861.577, 2123.954
862.059, 2167.551
862.541, 2212.061
863.023, 2255.771
863.505, 2309.852
863.988, 2377.344
864.470, 2448.280
864.952, 2520.036
865.434, 2593.281
865.916, 2669.322
866.398, 2748.061
866.880, 2827.553
867.362, 2907.071
867.844, 2988.697
868.327, 3073.459
868.809, 3159.713
869.291, 3248.110
869.773, 3336.970
870.255, 3421.885
870.737, 3500.881
871.219, 3580.167
871.701, 3671.069
872.184, 3753.411
872.666, 3810.999
873.148, 3852.793
873.630, 3891.435
874.112, 3928.359
874.594, 3957.231
875.076, 3978.419
875.558, 3982.746
876.041, 3958.405
876.523, 3912.695
877.005, 3855.483
877.487, 3788.350
877.969, 3710.854
878.451, 3622.812
878.933, 3525.925
879.415, 3423.108
879.898, 3312.714
880.380, 3183.109
880.862, 3038.579
881.344, 2918.218
881.826, 2831.849
882.308, 2747.737
882.790, 2639.614
883.272, 2517.900
883.755, 2412.602
884.237, 2324.589
884.719, 2244.545
885.201, 2174.777
885.683, 2101.737
886.165, 2016.362
886.647, 1930.406
887.129, 1858.109
887.611, 1799.889
888.094, 1751.700
888.576, 1721.692
889.058, 1687.049
889.540, 1637.436
890.022, 1589.546
890.504, 1554.433
890.986, 1528.541
891.468, 1504.853
891.950, 1486.000
892.433, 1459.652
892.915, 1413.482
893.397, 1372.001
893.879, 1351.285
894.361, 1336.654
894.843, 1310.152
895.325, 1272.562
895.807, 1239.928
896.289, 1218.623
896.772, 1201.882
897.254, 1189.947
897.736, 1177.935
898.218, 1159.770
898.700, 1138.144
899.182, 1119.907
899.664, 1106.936
900.146, 1094.230
900.628, 1076.469
901.111, 1058.297
901.593, 1043.021
902.075, 1032.268
902.557, 1034.099
903.039, 1045.431
903.521, 1047.050
904.003, 1027.068
904.485, 1000.385
904.968, 988.471
905.450, 986.391
905.932, 979.387
906.414, 967.648
906.896, 956.799
907.378, 948.574
907.860, 941.803
908.342, 934.885
908.825, 929.459
909.307, 933.974
909.789, 948.541
910.271, 948.255
910.753, 928.408
911.235, 911.813
911.717, 910.969
912.199, 915.411
912.682, 908.733
913.164, 890.910
913.646, 880.755
914.128, 880.773
914.610, 880.674
915.092, 878.482
915.574, 875.827
916.056, 874.217
916.538, 872.810
917.021, 868.792
917.503, 859.533
917.985, 855.554
918.467, 862.268
918.949, 866.871
919.431, 865.057
919.913, 860.106
920.395, 853.157
920.877, 845.146
921.360, 841.493
921.842, 845.137
922.324, 849.188
922.806, 853.976
923.288, 857.592
923.770, 841.693
924.252, 832.819
924.734, 812.689
925.216, 835.451
925.699, 847.801
926.181, 850.300
926.663, 813.438
927.145, 827.401
927.627, 820.997
928.109, 813.757
928.591, 834.874
929.073, 822.641
929.555, 818.982
930.038, 824.535
930.520, 825.255
931.002, 825.606
931.484, 834.822
931.966, 843.119
932.448, 832.718
932.930, 805.786
933.412, 780.708
933.895, 766.035
934.377, 758.852
934.859, 760.461
935.341, 765.148
935.823, 763.366
936.305, 757.822
936.787, 757.910
937.269, 764.896
937.752, 769.435
938.234, 763.538
938.716, 753.555
939.198, 749.695
939.680, 749.337
940.162, 743.539
940.644, 733.717
941.126, 733.208
941.609, 746.789
942.091, 758.820
942.573, 750.056
943.055, 729.475
943.537, 722.980
944.019, 728.484
944.501, 734.310
944.983, 738.540
945.465, 738.545
945.948, 732.565
946.430, 724.530
946.912, 721.083
947.394, 721.328
947.876, 717.105
948.358, 708.261
948.840, 700.740
949.322, 695.658
949.804, 694.523
950.287, 699.776
950.769, 706.234
951.251, 699.476
951.733, 677.304
952.215, 669.876
952.697, 681.116
953.179, 686.855
953.661, 677.980
954.143, 667.416
954.626, 667.180
955.108, 674.483
955.590, 679.265
956.072, 683.554
956.554, 674.837
957.036, 642.475
957.518, 624.508
958.000, 642.160
958.483, 669.969
958.965, 679.660
959.447, 672.710
959.929, 663.901
960.411, 649.908
960.893, 641.894
961.375, 641.684
961.857, 645.975
962.339, 656.191
962.822, 667.624
963.304, 673.750
963.786, 674.447
964.268, 672.598
964.750, 664.164
965.232, 659.843
965.714, 666.723
966.196, 671.250
966.679, 660.147
967.161, 644.000
967.643, 643.501
968.125, 662.300
968.607, 672.972
969.089, 663.839
969.571, 661.692
970.053, 681.894
970.536, 700.512
971.018, 698.779
971.500, 684.246
971.982, 673.595
972.464, 667.242
972.946, 668.060
973.428, 687.039
973.910, 699.349
974.393, 690.033
974.875, 677.448
975.357, 676.984
975.839, 686.111
976.321, 696.314
976.803, 709.429
977.285, 713.731
977.767, 696.290
978.249, 682.543
978.732, 685.809
979.214, 695.966
979.696, 703.448
980.178, 708.334
980.660, 714.670
981.142, 723.946
981.624, 732.952
982.106, 745.448
982.588, 752.137
983.071, 742.949
983.553, 728.814
984.035, 723.295
984.517, 725.699
984.999, 725.023
985.481, 715.043
985.963, 708.693
986.445, 714.276
986.927, 720.761
987.410, 720.786
987.892, 717.749
988.374, 716.616
988.856, 717.656
989.338, 717.908
989.820, 716.361
990.302, 713.947
990.784, 707.591
991.266, 703.999
991.749, 712.640
992.231, 724.695
992.713, 725.550
993.195, 714.539
993.677, 706.362
994.159, 707.733
994.641, 711.034
995.123, 711.716
995.606, 714.155
996.088, 721.511
996.570, 733.144
997.052, 750.333
997.534, 771.942
998.016, 786.882
998.498, 788.540
998.980, 785.230
999.463, 775.102
999.945, 766.905
1000.427, 770.832
1000.909, 780.891
1001.391, 786.836
1001.873, 786.572
1002.355, 782.121
1002.837, 768.426
1003.319, 758.447
1003.802, 765.067
1004.284, 772.016
1004.766, 762.248
1005.248, 743.511
1005.730, 733.370
1006.212, 734.667
1006.694, 730.691
1007.176, 708.658
1007.659, 686.837
1008.141, 673.637
1008.623, 664.996
1009.105, 657.481
1009.587, 651.706
1010.069, 651.829
1010.551, 658.173
1011.033, 657.159
1011.515, 634.673
1011.998, 614.552
1012.480, 611.886
1012.962, 612.857
1013.444, 603.912
1013.926, 590.235
1014.408, 584.278
1014.890, 588.362
1015.372, 590.102
1015.854, 581.904
1016.337, 574.100
1016.819, 570.000
1017.301, 569.289
1017.783, 575.591
1018.265, 583.546
1018.747, 582.837
1019.229, 571.675
1019.711, 561.206
1020.194, 555.607
1020.676, 550.861
1021.158, 545.147
1021.640, 539.947
1022.122, 536.840
1022.604, 534.904
1023.086, 532.782
1023.568, 530.235
1024.051, 526.188
1024.533, 513.879
1025.015, 508.953
1025.497, 525.217
1025.979, 541.761
1026.461, 544.431
1026.943, 536.989
1027.425, 523.490
1027.907, 504.502
1028.390, 497.563
1028.872, 519.133
1029.354, 535.054
1029.836, 529.180
1030.318, 523.295
1030.800, 536.706
1031.282, 556.031
1031.764, 556.960
1032.246, 537.605
1032.729, 527.489
1033.211, 541.623
1033.693, 548.862
1034.175, 535.441
1034.657, 523.362
1035.139, 526.501
1035.621, 536.855
1036.103, 544.317
1036.586, 548.511
1037.068, 547.430
1037.550, 536.523
1038.032, 527.214
1038.514, 515.221
1038.996, 511.177
1039.478, 528.685
1039.960, 550.321
1040.443, 551.133
1040.925, 532.646
1041.407, 526.128
1041.889, 544.133
1042.371, 549.445
1042.853, 530.956
1043.335, 514.783
1043.817, 513.047
1044.299, 516.638
1044.781, 515.460
1045.264, 510.250
1045.746, 506.349
1046.228, 502.794
1046.710, 504.147
1047.192, 515.390
1047.674, 519.617
1048.156, 507.662
1048.638, 491.941
1049.121, 484.240
1049.603, 483.530
1050.085, 486.673
1050.567, 495.894
1051.049, 496.312
1051.531, 483.767
1052.013, 479.463
1052.495, 492.147
1052.978, 508.051
1053.460, 515.341
1053.942, 516.400
1054.424, 519.036
1054.906, 523.805
1055.388, 514.598
1055.870, 489.351
1056.352, 477.887
1056.834, 489.219
1057.317, 503.366
1057.799, 505.796
1058.281, 500.629
1058.763, 493.727
1059.245, 486.023
1059.727, 487.776
1060.209, 498.057
1060.691, 504.698
1061.173, 505.263
1061.656, 504.214
1062.138, 504.270
1062.620, 503.563
1063.102, 497.810
1063.584, 489.632
1064.066, 487.971
1064.548, 491.064
1065.030, 490.871
1065.513, 487.514
1065.995, 491.306
1066.477, 507.059
1066.959, 519.964
1067.441, 510.241
1067.923, 491.305
1068.405, 483.410
1068.887, 484.106
1069.370, 491.605
1069.852, 502.724
1070.334, 510.302
1070.816, 511.734
1071.298, 508.177
1071.780, 496.812
1072.262, 486.153
1072.744, 486.776
1073.226, 491.435
1073.708, 490.765
1074.191, 486.713
1074.673, 484.343
1075.155, 485.029
1075.637, 489.172
1076.119, 501.517
1076.601, 508.417
1077.083, 496.854
1077.565, 481.608
1078.048, 473.675
1078.530, 470.210
1079.012, 464.819
1079.494, 458.261
1079.976, 458.801
1080.458, 472.287
1080.940, 484.008
1081.422, 490.687
1081.905, 493.297
1082.387, 489.829
1082.869, 484.530
1083.351, 477.375
1083.833, 472.047
1084.315, 469.156
1084.797, 453.698
1085.279, 472.429
1085.761, 482.862
1086.244, 485.440
1086.726, 456.644
1087.208, 468.362
1087.690, 463.844
1088.172, 458.660
1088.654, 476.080
1089.136, 451.847
1089.618, 468.909
1090.101, 469.487
1090.583, 477.609
1091.065, 469.395
1091.547, 466.226
1092.029, 479.399
1092.511, 483.524
1092.993, 473.429
1093.475, 482.031
1093.958, 457.227
1094.440, 464.452
1094.922, 474.646
1095.404, 489.599
1095.886, 493.749
1096.368, 480.845
1096.850, 467.426
1097.332, 469.307
1097.814, 479.020
1098.297, 480.481
1098.779, 475.640
1099.261, 470.596
1099.743, 466.513
1100.225, 469.116
1100.707, 478.240
1101.189, 482.721
1101.671, 475.169
1102.153, 465.555
1102.636, 466.845
1103.118, 472.264
1103.600, 469.028
1104.082, 463.560
1104.564, 472.740
1105.046, 491.672
1105.528, 497.508
1106.010, 482.064
1106.493, 464.419
1106.975, 454.309
1107.457, 449.846
1107.939, 452.382
1108.421, 457.524
1108.903, 459.765
1109.385, 461.931
1109.867, 472.378
1110.349, 491.029
1110.832, 501.378
1111.314, 492.856
1111.796, 484.707
1112.278, 480.907
1112.760, 479.223
1113.242, 478.906
1113.724, 479.909
1114.206, 483.013
1114.688, 487.558
1115.171, 490.395
1115.653, 490.856
1116.135, 491.580
1116.617, 493.203
1117.099, 493.648
1117.581, 491.779
1118.063, 489.934
1118.545, 489.591
1119.028, 490.422
1119.510, 491.627
1119.992, 493.295
1120.474, 499.060
1120.956, 509.607
1121.438, 510.929
1121.920, 500.746
1122.402, 492.857
1122.885, 493.422
1123.367, 498.809
1123.849, 506.478
1124.331, 513.503
1124.813, 511.804
1125.295, 504.069
1125.777, 499.462
1126.259, 497.112
1126.741, 487.818
1127.224, 472.057
1127.706, 468.745
1128.188, 491.511
1128.670, 517.188
1129.152, 527.207
1129.634, 524.439
1130.116, 504.232
1130.598, 478.572
1131.080, 462.378
1131.563, 456.280
1132.045, 455.886
1132.527, 460.085
1133.009, 466.508
1133.491, 477.510
1133.973, 485.972
1134.455, 489.651
1134.937, 489.172
1135.420, 478.164
1135.902, 467.263
1136.384, 477.392
1136.866, 506.598
1137.348, 514.322
1137.830, 479.415
1138.312, 464.062
1138.794, 479.584
1139.276, 492.613
1139.759, 492.954
1140.241, 488.594
1140.723, 484.809
1141.205, 482.169
1141.687, 482.355
1142.169, 485.300
1142.651, 486.300
1143.133, 485.290
1143.615, 486.362
1144.098, 490.142
1144.580, 494.557
1145.062, 498.665
1145.544, 502.242
1146.026, 506.284
1146.508, 507.224
1146.990, 493.792
1147.472, 474.039
1147.955, 465.385
1148.437, 466.708
1148.919, 472.498
1149.401, 480.552
1149.883, 488.802
1150.365, 496.727
1150.847, 501.809
1151.329, 499.910
1151.812, 497.205
1152.294, 500.515
1152.776, 503.688
1153.258, 496.977
1153.740, 485.473
1154.222, 482.708
1154.704, 491.219
1155.186, 497.375
1155.668, 492.564
1156.151, 494.927
1156.633, 517.452
1157.115, 533.598
1157.597, 529.701
1158.079, 518.443
1158.561, 512.049
1159.043, 509.371
1159.525, 505.573
1160.007, 499.726
1160.490, 501.391
1160.972, 512.197
1161.454, 511.615
1161.936, 494.503
1162.418, 480.855
1162.900, 458.651
1163.382, 485.973
1163.865, 501.272
1164.347, 505.195
1164.829, 463.672
1165.311, 480.834
1165.793, 474.477
1166.275, 467.157
1166.757, 492.579
1167.239, 457.665
1167.721, 482.568
1168.203, 483.593
1168.686, 495.546
1169.168, 483.836
1169.650, 479.434
1170.132, 498.704
1170.614, 504.867
1171.096, 490.432
1171.578, 503.080
1172.060, 467.340
1172.543, 474.061
1173.025, 499.102
1173.507, 485.858
1173.989, 498.938
1174.471, 501.993
1174.953, 459.482
1175.435, 496.214
1175.917, 498.676
1176.400, 465.950
1176.882, 499.967
1177.364, 472.092
1177.846, 466.309
1178.328, 477.151
1178.810, 470.662
1179.292, 491.497
1179.774, 486.009
1180.256, 478.168
1180.739, 480.592
1181.221, 453.931
1181.703, 481.227
1182.185, 471.666
1182.667, 480.427
1183.149, 493.339
1183.631, 474.455
1184.113, 489.234
1184.595, 451.809
1185.078, 458.065
1185.560, 459.617
1186.042, 489.089
1186.524, 451.918
1187.006, 456.960
1187.488, 479.976
1187.970, 477.843
1188.452, 486.224
1188.935, 463.477
1189.417, 469.973
1189.899, 468.408
1190.381, 494.697
1190.863, 498.997
1191.345, 476.778
1191.827, 454.672
1192.309, 482.965
1192.792, 463.489
1193.274, 469.784
1193.756, 449.462
1194.238, 452.122
1194.720, 454.418
1195.202, 468.494
1195.684, 446.848
1196.166, 471.539
1196.648, 469.449
1197.130, 475.247
1197.613, 480.168
1198.095, 449.150
1198.577, 447.594
1199.059, 488.193
1199.541, 464.503
1200.023, 453.788
1200.505, 452.298
1200.987, 494.340
1201.470, 469.819
1201.952, 484.693
1202.434, 484.493
1202.916, 473.191
1203.398, 460.189
1203.880, 445.245
1204.362, 440.872
1204.844, 451.185
1205.327, 460.880
1205.809, 470.465
1206.291, 472.005
1206.773, 461.465
1207.255, 448.877
1207.737, 441.535
1208.219, 440.336
1208.701, 449.860
1209.183, 465.877
1209.666, 475.469
1210.148, 479.988
1210.630, 484.081
1211.112, 486.961
1211.594, 484.135
1212.076, 474.352
1212.558, 458.936
1213.040, 432.088
1213.522, 415.240
1214.005, 429.997
1214.487, 448.049
1214.969, 452.744
1215.451, 450.832
1215.933, 445.294
1216.415, 440.411
1216.897, 448.218
1217.379, 469.991
1217.862, 475.677
1218.344, 458.688
1218.826, 448.619
1219.308, 448.965
1219.790, 449.922
1220.272, 448.052
1220.754, 447.796
1221.236, 452.966
1221.719, 459.543
1222.201, 460.951
1222.683, 458.570
1223.165, 455.705
1223.647, 451.670
1224.129, 441.985
1224.611, 430.340
1225.093, 426.219
1225.575, 432.114
1226.057, 447.340
1226.540, 479.838
1227.022, 500.589
1227.504, 490.573
1227.986, 474.898
1228.468, 461.541
1228.950, 450.707
1229.432, 441.935
1229.914, 435.789
1230.397, 433.298
1230.879, 434.431
1231.361, 439.380
1231.843, 448.809
1232.325, 455.669
1232.807, 459.564
1233.289, 463.530
1233.771, 468.143
1234.254, 466.049
1234.736, 452.292
1235.218, 439.235
1235.700, 444.188
1236.182, 455.146
1236.664, 458.246
1237.146, 456.028
1237.628, 448.388
1238.110, 439.730
1238.593, 437.508
1239.075, 441.620
1239.557, 445.287
1240.039, 445.369
1240.521, 450.454
1241.003, 470.642
1241.485, 481.429
1241.967, 474.361
1242.449, 466.387
1242.932, 465.412
1243.414, 467.954
1243.896, 470.382
1244.378, 472.866
1244.860, 475.869
1245.342, 479.351
1245.824, 486.437
1246.307, 493.520
1246.789, 480.071
1247.271, 451.423
1247.753, 443.950
1248.235, 469.051
1248.717, 493.151
1249.199, 494.794
1249.681, 490.828
1250.163, 492.178
1250.646, 489.317
1251.128, 468.849
1251.610, 447.794
1252.092, 446.091
1252.574, 455.230
1253.056, 454.924
1253.538, 445.425
1254.020, 455.925
1254.502, 492.301
1254.985, 500.587
1255.467, 475.884
1255.949, 464.531
1256.431, 479.148
1256.913, 493.414
1257.395, 490.905
1257.877, 482.904
1258.359, 481.184
1258.842, 482.385
1259.324, 484.323
1259.806, 485.200
1260.288, 479.686
1260.770, 473.382
1261.252, 477.424
1261.734, 490.269
1262.216, 498.929
1262.698, 501.540
1263.181, 498.866
1263.663, 485.665
1264.145, 480.824
1264.627, 491.693
1265.109, 494.043
1265.591, 475.597
1266.073, 456.425
1266.555, 455.185
1267.037, 465.090
1267.520, 477.699
1268.002, 489.220
1268.484, 487.080
1268.966, 478.282
1269.448, 479.373
1269.930, 486.933
1270.412, 485.559
1270.894, 473.549
1271.377, 467.458
1271.859, 478.632
1272.341, 482.091
1272.823, 458.746
1273.305, 445.336
1273.787, 448.280
##END=



