##NAMES=Grossular
##RRUFFID=R060382
##IDEAL CHEMISTRY=Ca_3_Al_2_(SiO_4_)_3_
##LOCALITY=Lalatema, near Mount Kilimanjaro, Tanzania
##OWNER=RRUFF
##SOURCE=Herb Obodda
##DESCRIPTION=Pale tan colored fragment
##STATUS=The identification of this mineral has been confirmed by X-ray diffraction and chemical analysis
##URL=rruff.info/R060382
##MEASURED CHEMISTRY=(Ca_2.95_Mg_0.03_Mn_0.02_)_Σ=3_Al_2.00_((Si_0.99_Ti_0.01_)_Σ=1_O_4_)_3_; trace amounts of Fe
137.6089, 766.0314
138.0910, 787.6595
138.5731, 801.0016
139.0553, 804.0353
139.5374, 809.5184
140.0195, 819.7895
140.5016, 832.7712
140.9837, 839.5709
141.4658, 837.8553
141.9480, 833.7333
142.4301, 831.0549
142.9122, 829.7017
143.3943, 830.0750
143.8764, 832.5219
144.3585, 836.9861
144.8407, 841.7437
145.3228, 845.1892
145.8049, 850.1301
146.2870, 859.3260
146.7691, 875.5182
147.2512, 892.2144
147.7334, 908.3701
148.2155, 924.2560
148.6976, 939.0355
149.1797, 950.7180
149.6618, 961.9068
150.1439, 975.9084
150.6261, 994.4290
151.1082, 1014.071
151.5903, 1034.250
152.0724, 1056.007
152.5545, 1075.783
153.0366, 1091.739
153.5188, 1105.496
154.0009, 1120.178
154.4830, 1142.171
154.9651, 1160.912
155.4472, 1171.653
155.9293, 1169.233
156.4115, 1165.508
156.8936, 1162.450
157.3757, 1159.809
157.8578, 1156.671
158.3399, 1151.188
158.8221, 1146.044
159.3042, 1142.923
159.7863, 1142.232
160.2684, 1143.625
160.7505, 1148.294
161.2326, 1155.765
161.7148, 1162.028
162.1969, 1163.396
162.6790, 1163.532
163.1611, 1165.949
163.6432, 1173.604
164.1253, 1182.412
164.6075, 1190.320
165.0896, 1197.259
165.5717, 1204.165
166.0538, 1212.509
166.5359, 1220.983
167.0180, 1227.753
167.5002, 1228.866
167.9823, 1230.039
168.4644, 1236.759
168.9465, 1250.279
169.4286, 1263.410
169.9107, 1270.927
170.3929, 1274.141
170.8750, 1276.001
171.3571, 1275.083
171.8392, 1274.803
172.3213, 1279.627
172.8034, 1291.197
173.2856, 1304.126
173.7677, 1313.778
174.2498, 1320.712
174.7319, 1326.688
175.2140, 1330.157
175.6961, 1333.933
176.1783, 1343.374
176.6604, 1361.847
177.1425, 1381.734
177.6246, 1392.330
178.1067, 1394.812
178.5888, 1397.543
179.0710, 1405.553
179.5531, 1418.162
180.0352, 1434.834
180.5173, 1458.628
180.9994, 1482.963
181.4815, 1497.790
181.9637, 1503.263
182.4458, 1500.187
182.9279, 1483.603
183.4100, 1457.504
183.8921, 1436.908
184.3742, 1428.284
184.8564, 1426.911
185.3385, 1421.127
185.8206, 1410.403
186.3027, 1401.101
186.7848, 1400.764
187.2669, 1408.403
187.7491, 1416.493
188.2312, 1423.827
188.7133, 1429.622
189.1954, 1429.535
189.6775, 1422.406
190.1596, 1414.586
190.6418, 1413.473
191.1239, 1419.013
191.6060, 1427.817
192.0881, 1441.303
192.5702, 1458.340
193.0524, 1467.324
193.5345, 1466.027
194.0166, 1462.411
194.4987, 1471.399
194.9808, 1494.097
195.4629, 1512.714
195.9451, 1515.239
196.4272, 1502.150
196.9093, 1497.735
197.3914, 1504.567
197.8735, 1517.227
198.3556, 1525.596
198.8378, 1529.085
199.3199, 1531.889
199.8020, 1535.549
200.2841, 1539.914
200.7662, 1547.433
201.2483, 1559.606
201.7305, 1573.768
202.2126, 1583.152
202.6947, 1587.023
203.1768, 1588.865
203.6589, 1590.060
204.1410, 1590.247
204.6232, 1592.818
205.1053, 1599.759
205.5874, 1608.544
206.0695, 1609.130
206.5516, 1598.133
207.0337, 1587.823
207.5159, 1588.145
207.9980, 1602.095
208.4801, 1612.323
208.9622, 1616.241
209.4443, 1614.831
209.9264, 1612.110
210.4086, 1606.627
210.8907, 1602.745
211.3728, 1604.968
211.8549, 1615.988
212.3370, 1623.823
212.8191, 1625.889
213.3013, 1622.965
213.7834, 1621.567
214.2655, 1621.556
214.7476, 1623.309
215.2297, 1627.598
215.7118, 1635.705
216.1940, 1642.849
216.6761, 1647.763
217.1582, 1650.618
217.6403, 1654.965
218.1224, 1661.751
218.6045, 1668.699
219.0867, 1673.469
219.5688, 1675.131
220.0509, 1676.740
220.5330, 1679.028
221.0151, 1682.055
221.4972, 1683.764
221.9794, 1682.340
222.4615, 1681.633
222.9436, 1686.227
223.4257, 1698.803
223.9078, 1711.397
224.3899, 1722.651
224.8721, 1732.865
225.3542, 1739.463
225.8363, 1740.568
226.3184, 1739.894
226.8005, 1742.202
227.2827, 1749.731
227.7648, 1755.779
228.2469, 1757.103
228.7290, 1752.082
229.2111, 1755.323
229.6932, 1770.900
230.1754, 1791.389
230.6575, 1807.360
231.1396, 1817.045
231.6217, 1825.025
232.1038, 1831.607
232.5859, 1835.754
233.0681, 1844.422
233.5502, 1859.814
234.0323, 1878.085
234.5144, 1893.766
234.9965, 1905.025
235.4786, 1916.615
235.9608, 1930.319
236.4429, 1946.726
236.9250, 1961.292
237.4071, 1971.340
237.8892, 1981.123
238.3713, 1998.223
238.8535, 2028.192
239.3356, 2056.292
239.8177, 2078.905
240.2998, 2097.165
240.7819, 2104.564
241.2640, 2094.698
241.7462, 2077.818
242.2283, 2071.080
242.7104, 2075.561
243.1925, 2088.506
243.6746, 2110.369
244.1567, 2144.359
244.6389, 2176.697
245.1210, 2206.406
245.6031, 2234.970
246.0852, 2265.518
246.5673, 2301.817
247.0494, 2333.719
247.5316, 2358.120
248.0137, 2375.266
248.4958, 2383.266
248.9779, 2377.800
249.4600, 2365.557
249.9421, 2358.966
250.4243, 2359.616
250.9064, 2362.957
251.3885, 2367.331
251.8706, 2372.374
252.3527, 2380.031
252.8348, 2391.438
253.3170, 2404.722
253.7991, 2416.846
254.2812, 2429.130
254.7633, 2437.485
255.2454, 2439.876
255.7275, 2434.938
256.2097, 2428.712
256.6918, 2420.150
257.1739, 2411.090
257.6560, 2406.722
258.1381, 2413.286
258.6202, 2411.468
259.1024, 2390.575
259.5845, 2343.454
260.0666, 2308.574
260.5487, 2290.419
261.0308, 2281.190
261.5129, 2264.992
261.9951, 2238.207
262.4772, 2213.397
262.9593, 2195.317
263.4414, 2184.112
263.9235, 2178.753
264.4056, 2180.818
264.8878, 2187.221
265.3699, 2192.968
265.8520, 2198.310
266.3341, 2202.415
266.8162, 2204.883
267.2983, 2205.532
267.7805, 2205.582
268.2626, 2205.044
268.7447, 2203.885
269.2268, 2200.175
269.7089, 2191.258
270.1910, 2189.388
270.6732, 2202.551
271.1553, 2233.096
271.6374, 2254.392
272.1195, 2264.215
272.6016, 2268.073
273.0837, 2271.934
273.5659, 2274.033
274.0480, 2285.131
274.5301, 2314.290
275.0122, 2362.426
275.4943, 2396.564
275.9764, 2413.071
276.4586, 2422.411
276.9407, 2442.343
277.4228, 2474.506
277.9049, 2501.109
278.3870, 2515.963
278.8691, 2519.140
279.3513, 2511.042
279.8334, 2490.085
280.3155, 2461.920
280.7976, 2430.192
281.2798, 2394.654
281.7619, 2367.706
282.2440, 2357.281
282.7261, 2360.970
283.2082, 2360.172
283.6903, 2354.094
284.1725, 2346.442
284.6546, 2341.532
285.1367, 2339.342
285.6188, 2338.036
286.1009, 2335.495
286.5830, 2333.178
287.0652, 2338.955
287.5473, 2353.818
288.0294, 2370.527
288.5115, 2381.498
288.9936, 2387.154
289.4757, 2390.545
289.9579, 2391.319
290.4400, 2390.927
290.9221, 2393.854
291.4042, 2400.298
291.8863, 2407.617
292.3684, 2412.132
292.8506, 2414.892
293.3327, 2420.833
293.8148, 2434.711
294.2969, 2450.925
294.7790, 2456.251
295.2611, 2450.684
295.7433, 2446.237
296.2254, 2456.961
296.7075, 2477.598
297.1896, 2492.837
297.6717, 2496.853
298.1538, 2494.838
298.6360, 2493.395
299.1181, 2492.542
299.6002, 2492.648
300.0823, 2494.872
300.5644, 2498.158
301.0465, 2500.458
301.5287, 2500.796
302.0108, 2500.482
302.4929, 2501.891
302.9750, 2504.465
303.4571, 2504.939
303.9392, 2494.737
304.4214, 2483.007
304.9035, 2483.369
305.3856, 2505.161
305.8677, 2530.019
306.3498, 2541.781
306.8319, 2542.851
307.3141, 2541.876
307.7962, 2541.199
308.2783, 2542.191
308.7604, 2547.154
309.2425, 2559.015
309.7246, 2569.252
310.2068, 2567.731
310.6889, 2559.761
311.1710, 2559.058
311.6531, 2584.351
312.1352, 2612.070
312.6173, 2621.385
313.0995, 2600.679
313.5816, 2585.626
314.0637, 2602.032
314.5458, 2635.154
315.0279, 2657.338
315.5100, 2642.717
315.9922, 2625.881
316.4743, 2627.795
316.9564, 2656.300
317.4385, 2681.006
317.9206, 2687.333
318.4027, 2684.895
318.8849, 2687.130
319.3670, 2702.588
319.8491, 2718.980
320.3312, 2732.230
320.8133, 2741.962
321.2954, 2749.108
321.7776, 2751.696
322.2597, 2752.681
322.7418, 2755.218
323.2239, 2759.807
323.7060, 2765.940
324.1881, 2775.483
324.6703, 2789.188
325.1524, 2796.913
325.6345, 2788.720
326.1166, 2779.091
326.5987, 2779.671
327.0808, 2800.882
327.5630, 2820.104
328.0451, 2834.251
328.5272, 2843.561
329.0093, 2853.495
329.4914, 2868.268
329.9735, 2879.657
330.4557, 2880.826
330.9378, 2858.299
331.4199, 2849.708
331.9020, 2864.261
332.3841, 2896.009
332.8662, 2915.265
333.3484, 2915.839
333.8305, 2913.022
334.3126, 2916.012
334.7947, 2928.657
335.2768, 2934.615
335.7589, 2930.544
336.2411, 2920.732
336.7232, 2915.497
337.2053, 2915.159
337.6874, 2918.599
338.1695, 2927.580
338.6516, 2943.477
339.1338, 2951.053
339.6159, 2947.373
340.0980, 2939.467
340.5801, 2939.274
341.0622, 2947.401
341.5443, 2957.890
342.0265, 2970.344
342.5086, 2983.993
342.9907, 2991.428
343.4728, 2991.416
343.9549, 2989.778
344.4370, 2994.411
344.9192, 3004.599
345.4013, 3013.594
345.8834, 3016.783
346.3655, 3017.605
346.8476, 3024.756
347.3297, 3038.226
347.8119, 3056.532
348.2940, 3084.894
348.7761, 3117.846
349.2582, 3137.565
349.7403, 3133.207
350.2225, 3119.832
350.7046, 3118.965
351.1867, 3129.377
351.6688, 3141.666
352.1509, 3152.241
352.6331, 3159.569
353.1152, 3159.667
353.5973, 3146.564
354.0794, 3135.647
354.5615, 3143.946
355.0436, 3166.442
355.5258, 3187.859
356.0079, 3196.676
356.4900, 3202.475
356.9721, 3213.954
357.4542, 3233.688
357.9363, 3254.905
358.4185, 3274.938
358.9006, 3293.768
359.3827, 3311.356
359.8648, 3322.284
360.3469, 3336.250
360.8290, 3361.225
361.3112, 3400.225
361.7933, 3433.300
362.2754, 3444.942
362.7575, 3451.076
363.2396, 3469.088
363.7217, 3512.664
364.2039, 3558.487
364.6860, 3599.880
365.1681, 3636.785
365.6502, 3677.046
366.1323, 3722.172
366.6144, 3770.831
367.0966, 3822.361
367.5787, 3880.663
368.0608, 3936.366
368.5429, 3989.440
369.0250, 4039.823
369.5071, 4086.352
369.9893, 4132.222
370.4714, 4170.414
370.9535, 4194.917
371.4356, 4191.627
371.9177, 4207.516
372.3998, 4251.864
372.8820, 4311.439
373.3641, 4355.885
373.8462, 4380.732
374.3283, 4402.178
374.8104, 4432.640
375.2925, 4476.201
375.7747, 4479.646
376.2568, 4435.247
376.7389, 4366.169
377.2210, 4302.089
377.7031, 4243.491
378.1852, 4183.145
378.6674, 4117.552
379.1495, 4048.422
379.6316, 3977.306
380.1137, 3903.794
380.5958, 3837.409
381.0779, 3788.120
381.5601, 3754.142
382.0422, 3731.254
382.5243, 3721.815
383.0064, 3717.802
383.4885, 3705.032
383.9706, 3684.510
384.4528, 3664.535
384.9349, 3648.018
385.4170, 3636.289
385.8991, 3633.123
386.3812, 3641.861
386.8633, 3649.985
387.3455, 3643.079
387.8276, 3626.513
388.3097, 3612.434
388.7918, 3606.670
389.2739, 3606.201
389.7560, 3608.211
390.2382, 3612.265
390.7203, 3621.463
391.2024, 3646.093
391.6845, 3673.818
392.1666, 3690.689
392.6487, 3681.973
393.1309, 3670.791
393.6130, 3663.719
394.0951, 3661.127
394.5772, 3665.310
395.0593, 3685.090
395.5414, 3706.622
396.0236, 3721.043
396.5057, 3716.137
396.9878, 3717.178
397.4699, 3731.672
397.9520, 3754.471
398.4341, 3769.172
398.9163, 3768.665
399.3984, 3767.428
399.8805, 3771.359
400.3626, 3784.136
400.8447, 3790.416
401.3268, 3784.634
401.8090, 3776.467
402.2911, 3781.088
402.7732, 3804.500
403.2553, 3824.645
403.7374, 3833.821
404.2195, 3832.959
404.7017, 3839.884
405.1838, 3856.626
405.6659, 3875.829
406.1480, 3891.042
406.6301, 3902.296
407.1122, 3912.694
407.5944, 3923.185
408.0765, 3932.758
408.5586, 3936.784
409.0407, 3935.432
409.5228, 3937.139
410.0049, 3949.331
410.4871, 3968.872
410.9692, 3986.334
411.4513, 3999.852
411.9334, 4015.241
412.4155, 4044.473
412.8976, 4082.209
413.3798, 4112.015
413.8619, 4113.195
414.3440, 4110.896
414.8261, 4137.964
415.3082, 4194.952
415.7903, 4245.852
416.2725, 4266.645
416.7546, 4268.888
417.2367, 4265.840
417.7188, 4261.297
418.2009, 4252.608
418.6830, 4235.742
419.1652, 4212.910
419.6473, 4192.875
420.1294, 4177.000
420.6115, 4165.664
421.0937, 4159.506
421.5758, 4161.565
422.0579, 4162.744
422.5400, 4161.375
423.0221, 4158.532
423.5042, 4155.866
423.9864, 4149.427
424.4685, 4147.827
424.9506, 4156.569
425.4327, 4177.303
425.9148, 4184.017
426.3969, 4165.944
426.8791, 4146.124
427.3612, 4147.208
427.8433, 4178.783
428.3254, 4200.620
428.8075, 4204.619
429.2896, 4196.005
429.7718, 4191.766
430.2539, 4192.094
430.7360, 4195.524
431.2181, 4201.481
431.7002, 4209.925
432.1823, 4220.294
432.6645, 4232.589
433.1466, 4246.783
433.6287, 4264.005
434.1108, 4283.460
434.5929, 4301.393
435.0750, 4318.705
435.5572, 4332.273
436.0393, 4334.027
436.5214, 4324.466
437.0035, 4314.165
437.4856, 4309.492
437.9677, 4309.840
438.4499, 4315.314
438.9320, 4329.630
439.4141, 4342.780
439.8962, 4344.196
440.3783, 4338.537
440.8604, 4337.860
441.3426, 4353.971
441.8247, 4371.660
442.3068, 4380.693
442.7889, 4377.205
443.2710, 4378.398
443.7531, 4395.394
444.2353, 4416.836
444.7174, 4430.460
445.1995, 4426.532
445.6816, 4423.210
446.1637, 4420.197
446.6458, 4418.409
447.1280, 4429.307
447.6101, 4464.944
448.0922, 4500.066
448.5743, 4520.373
449.0564, 4521.712
449.5385, 4518.949
450.0207, 4510.333
450.5028, 4499.771
450.9849, 4494.141
451.4670, 4493.479
451.9491, 4497.956
452.4312, 4509.816
452.9134, 4527.689
453.3955, 4540.517
453.8776, 4547.666
454.3597, 4554.010
454.8418, 4562.660
455.3239, 4574.111
455.8061, 4591.991
456.2882, 4622.998
456.7703, 4651.908
457.2524, 4648.125
457.7345, 4620.131
458.2166, 4602.568
458.6988, 4627.634
459.1809, 4668.258
459.6630, 4696.013
460.1451, 4707.685
460.6272, 4710.642
461.1093, 4702.934
461.5915, 4691.270
462.0736, 4684.152
462.5557, 4684.760
463.0378, 4690.001
463.5199, 4699.654
464.0020, 4713.346
464.4842, 4729.029
464.9663, 4751.589
465.4484, 4771.969
465.9305, 4785.010
466.4126, 4784.001
466.8947, 4787.492
467.3769, 4797.562
467.8590, 4811.175
468.3411, 4823.953
468.8232, 4836.846
469.3053, 4846.459
469.7874, 4849.354
470.2696, 4846.426
470.7517, 4856.711
471.2338, 4884.288
471.7159, 4912.416
472.1980, 4924.660
472.6801, 4921.460
473.1623, 4920.370
473.6444, 4923.339
474.1265, 4930.492
474.6086, 4945.063
475.0907, 4965.604
475.5728, 4982.750
476.0550, 4984.941
476.5371, 4982.915
477.0192, 4998.951
477.5013, 5034.165
477.9834, 5063.344
478.4655, 5061.009
478.9477, 5042.818
479.4298, 5028.706
479.9119, 5019.482
480.3940, 5021.965
480.8761, 5050.594
481.3582, 5095.267
481.8404, 5126.549
482.3225, 5125.028
482.8046, 5116.008
483.2867, 5109.659
483.7688, 5106.034
484.2509, 5107.956
484.7331, 5115.889
485.2152, 5129.417
485.6973, 5149.770
486.1794, 5188.194
486.6615, 5213.448
487.1436, 5215.587
487.6258, 5201.072
488.1079, 5201.694
488.5900, 5221.808
489.0721, 5245.099
489.5542, 5261.347
490.0363, 5270.506
490.5185, 5287.918
491.0006, 5316.086
491.4827, 5344.967
491.9648, 5358.342
492.4470, 5359.233
492.9291, 5364.254
493.4112, 5382.042
493.8933, 5404.283
494.3754, 5417.348
494.8575, 5422.450
495.3397, 5426.447
495.8218, 5427.776
496.3039, 5433.451
496.7860, 5454.576
497.2681, 5498.539
497.7502, 5536.069
498.2324, 5541.145
498.7145, 5533.566
499.1966, 5540.369
499.6787, 5595.100
500.1608, 5639.515
500.6429, 5646.808
501.1251, 5619.917
501.6072, 5610.876
502.0893, 5638.267
502.5714, 5670.868
503.0535, 5693.322
503.5356, 5696.746
504.0178, 5712.824
504.4999, 5750.892
504.9820, 5792.934
505.4641, 5807.630
505.9462, 5787.979
506.4283, 5777.808
506.9105, 5793.400
507.3926, 5827.241
507.8747, 5847.806
508.3568, 5854.404
508.8389, 5861.723
509.3210, 5886.797
509.8032, 5921.203
510.2853, 5940.263
510.7674, 5938.651
511.2495, 5931.311
511.7316, 5936.197
512.2137, 5946.542
512.6959, 5948.567
513.1780, 5923.565
513.6601, 5899.154
514.1422, 5893.713
514.6243, 5905.647
515.1064, 5922.607
515.5886, 5948.006
516.0707, 5971.237
516.5528, 5985.092
517.0349, 5984.424
517.5170, 5983.547
517.9991, 5981.736
518.4813, 5981.229
518.9634, 5985.335
519.4455, 5997.807
519.9276, 6008.423
520.4097, 6014.772
520.8918, 6017.405
521.3740, 6018.639
521.8561, 6015.763
522.3382, 6020.470
522.8203, 6046.603
523.3024, 6091.995
523.7845, 6121.236
524.2667, 6130.235
524.7488, 6131.678
525.2309, 6142.165
525.7130, 6158.738
526.1951, 6170.477
526.6772, 6168.561
527.1594, 6164.949
527.6415, 6177.398
528.1236, 6201.885
528.6057, 6221.004
529.0878, 6216.677
529.5699, 6208.352
530.0521, 6212.610
530.5342, 6235.446
531.0163, 6253.324
531.4984, 6248.517
531.9805, 6239.457
532.4626, 6245.709
532.9448, 6297.125
533.4269, 6330.863
533.9090, 6330.972
534.3911, 6307.340
534.8732, 6298.573
535.3553, 6309.391
535.8375, 6326.362
536.3196, 6345.783
536.8017, 6368.378
537.2838, 6382.089
537.7659, 6385.162
538.2480, 6385.544
538.7302, 6390.936
539.2123, 6401.099
539.6944, 6413.899
540.1765, 6428.571
540.6586, 6446.239
541.1407, 6473.298
541.6229, 6506.206
542.1050, 6532.700
542.5871, 6539.501
543.0692, 6541.355
543.5513, 6549.880
544.0334, 6565.684
544.5156, 6587.914
544.9977, 6620.186
545.4798, 6656.425
545.9619, 6691.315
546.4440, 6719.487
546.9261, 6752.825
547.4083, 6805.998
547.8904, 6862.801
548.3725, 6892.455
548.8546, 6879.141
549.3367, 6865.461
549.8188, 6865.224
550.3010, 6875.845
550.7831, 6862.731
551.2652, 6818.516
551.7473, 6775.034
552.2294, 6756.579
552.7115, 6760.909
553.1937, 6768.610
553.6758, 6779.344
554.1579, 6788.451
554.6400, 6788.518
555.1221, 6782.087
555.6042, 6775.926
556.0864, 6766.257
556.5685, 6764.104
557.0506, 6789.118
557.5327, 6833.219
558.0148, 6865.921
558.4969, 6866.880
558.9791, 6855.986
559.4612, 6842.080
559.9433, 6823.861
560.4254, 6814.875
560.9075, 6818.146
561.3896, 6831.690
561.8718, 6853.928
562.3539, 6892.728
562.8360, 6927.473
563.3181, 6958.920
563.8002, 6984.022
564.2823, 6992.917
564.7645, 6981.680
565.2466, 6971.507
565.7287, 6970.819
566.2108, 6978.060
566.6929, 6984.038
567.1750, 6988.350
567.6572, 6999.482
568.1393, 7035.310
568.6214, 7081.146
569.1035, 7102.064
569.5856, 7086.749
570.0677, 7071.313
570.5499, 7091.097
571.0320, 7129.431
571.5141, 7160.014
571.9962, 7169.611
572.4783, 7173.240
572.9604, 7171.259
573.4426, 7166.325
573.9247, 7171.457
574.4068, 7203.407
574.8889, 7232.326
575.3710, 7245.676
575.8531, 7239.890
576.3353, 7235.726
576.8174, 7230.729
577.2995, 7231.057
577.7816, 7246.831
578.2637, 7280.443
578.7458, 7300.672
579.2280, 7298.198
579.7101, 7289.253
580.1922, 7306.564
580.6743, 7345.572
581.1564, 7380.534
581.6385, 7396.998
582.1207, 7404.089
582.6028, 7409.838
583.0849, 7415.059
583.5670, 7426.386
584.0491, 7459.624
584.5313, 7492.921
585.0134, 7505.219
585.4955, 7482.856
585.9776, 7474.030
586.4597, 7507.013
586.9418, 7553.126
587.4240, 7578.967
587.9061, 7565.707
588.3882, 7560.546
588.8703, 7571.190
589.3524, 7592.427
589.8345, 7607.765
590.3167, 7614.474
590.7988, 7626.383
591.2809, 7654.924
591.7630, 7694.307
592.2451, 7705.769
592.7272, 7687.878
593.2094, 7677.038
593.6915, 7720.572
594.1736, 7789.250
594.6557, 7824.636
595.1378, 7811.583
595.6199, 7786.733
596.1021, 7766.466
596.5842, 7754.486
597.0663, 7756.093
597.5485, 7784.627
598.0306, 7814.785
598.5127, 7836.451
598.9948, 7852.512
599.4769, 7876.692
599.9590, 7927.517
600.4412, 7965.441
600.9233, 7973.140
601.4054, 7948.026
601.8875, 7933.683
602.3696, 7930.186
602.8517, 7937.650
603.3339, 7961.760
603.8160, 8000.787
604.2981, 8028.723
604.7802, 8041.387
605.2623, 8046.172
605.7444, 8047.149
606.2266, 8047.396
606.7087, 8055.244
607.1908, 8079.393
607.6729, 8106.541
608.1550, 8126.565
608.6371, 8140.955
609.1193, 8155.237
609.6014, 8173.542
610.0835, 8190.484
610.5656, 8201.375
611.0477, 8204.399
611.5298, 8214.223
612.0120, 8235.486
612.4941, 8259.323
612.9762, 8279.246
613.4583, 8293.023
613.9404, 8312.195
614.4225, 8340.660
614.9047, 8368.327
615.3868, 8376.900
615.8689, 8368.261
616.3510, 8365.337
616.8331, 8371.643
617.3152, 8391.136
617.7974, 8447.076
618.2795, 8526.308
618.7616, 8580.862
619.2437, 8558.418
619.7258, 8520.344
620.2079, 8513.960
620.6901, 8541.712
621.1722, 8569.311
621.6543, 8583.653
622.1364, 8594.893
622.6185, 8609.239
623.1006, 8627.520
623.5828, 8648.529
624.0649, 8675.349
624.5470, 8702.071
625.0291, 8717.434
625.5112, 8715.885
625.9933, 8734.980
626.4755, 8786.913
626.9576, 8855.320
627.4397, 8909.966
627.9218, 8951.104
628.4039, 8980.696
628.8860, 8996.330
629.3682, 9002.773
629.8503, 9002.802
630.3324, 8997.647
630.8145, 8996.104
631.2966, 9001.948
631.7787, 9014.174
632.2609, 9037.614
632.7430, 9081.742
633.2251, 9101.562
633.7072, 9058.177
634.1893, 9005.297
634.6714, 8987.547
635.1536, 9019.079
635.6357, 9056.454
636.1178, 9101.271
636.5999, 9145.174
637.0820, 9173.856
637.5641, 9187.077
638.0463, 9183.917
638.5284, 9153.180
639.0105, 9115.399
639.4926, 9119.171
639.9747, 9157.398
640.4568, 9188.758
640.9390, 9174.907
641.4211, 9151.590
641.9032, 9153.013
642.3853, 9181.527
642.8674, 9214.663
643.3495, 9244.284
643.8317, 9274.809
644.3138, 9312.515
644.7959, 9382.682
645.2780, 9407.952
645.7601, 9358.231
646.2422, 9290.054
646.7244, 9272.804
647.2065, 9316.783
647.6886, 9360.367
648.1707, 9394.983
648.6528, 9420.384
649.1349, 9432.674
649.6171, 9433.563
650.0992, 9435.625
650.5813, 9447.902
651.0634, 9462.573
651.5455, 9467.925
652.0276, 9466.014
652.5098, 9467.617
652.9919, 9471.233
653.4740, 9485.778
653.9561, 9523.043
654.4382, 9590.575
654.9203, 9640.732
655.4025, 9660.202
655.8846, 9666.785
656.3667, 9670.395
656.8488, 9668.623
657.3309, 9671.812
657.8130, 9682.005
658.2952, 9694.167
658.7773, 9696.333
659.2594, 9690.478
659.7415, 9702.381
660.2236, 9746.490
660.7057, 9798.633
661.1879, 9825.046
661.6700, 9830.952
662.1521, 9830.440
662.6342, 9814.350
663.1163, 9807.850
663.5984, 9833.788
664.0806, 9887.997
664.5627, 9934.524
665.0448, 9965.340
665.5269, 9984.870
666.0090, 9991.493
666.4911, 9981.603
666.9733, 9986.869
667.4554, 10013.46
667.9375, 10042.98
668.4196, 10060.78
668.9017, 10067.13
669.3839, 10065.84
669.8660, 10053.88
670.3481, 10050.21
670.8302, 10090.88
671.3123, 10155.39
671.7944, 10198.36
672.2766, 10195.77
672.7587, 10183.64
673.2408, 10175.61
673.7229, 10176.09
674.2050, 10193.48
674.6871, 10260.44
675.1693, 10311.60
675.6514, 10316.15
676.1335, 10286.68
676.6156, 10291.62
677.0977, 10347.43
677.5798, 10399.87
678.0620, 10420.72
678.5441, 10414.57
679.0262, 10429.64
679.5083, 10467.81
679.9904, 10498.02
680.4725, 10471.72
680.9547, 10427.53
681.4368, 10446.42
681.9189, 10545.05
682.4010, 10634.10
682.8831, 10635.83
683.3652, 10605.54
683.8474, 10599.44
684.3295, 10650.97
684.8116, 10693.86
685.2937, 10719.76
685.7758, 10731.38
686.2579, 10725.97
686.7401, 10686.77
687.2222, 10679.92
687.7043, 10729.42
688.1864, 10806.55
688.6685, 10838.72
689.1506, 10828.52
689.6328, 10817.42
690.1149, 10823.92
690.5970, 10840.38
691.0791, 10857.93
691.5612, 10876.08
692.0433, 10891.86
692.5255, 10894.08
693.0076, 10901.50
693.4897, 10931.77
693.9718, 10989.04
694.4539, 11031.24
694.9360, 11039.83
695.4182, 11043.83
695.9003, 11059.63
696.3824, 11091.64
696.8645, 11116.72
697.3466, 11135.53
697.8287, 11145.71
698.3109, 11135.12
698.7930, 11110.47
699.2751, 11110.54
699.7572, 11146.57
700.2393, 11191.77
700.7214, 11216.08
701.2036, 11230.79
701.6857, 11255.05
702.1678, 11312.46
702.6499, 11360.96
703.1320, 11377.28
703.6141, 11373.31
704.0963, 11378.91
704.5784, 11395.85
705.0605, 11423.09
705.5426, 11467.12
706.0247, 11520.96
706.5068, 11548.75
706.9890, 11547.45
707.4711, 11547.08
707.9532, 11567.64
708.4353, 11599.50
708.9174, 11617.02
709.3995, 11621.20
709.8817, 11620.89
710.3638, 11608.10
710.8459, 11602.63
711.3280, 11630.89
711.8101, 11701.59
712.2922, 11751.29
712.7744, 11750.56
713.2565, 11731.20
713.7386, 11713.41
714.2207, 11691.52
714.7028, 11687.26
715.1849, 11705.14
715.6671, 11732.81
716.1492, 11756.92
716.6313, 11777.91
717.1134, 11805.97
717.5955, 11845.31
718.0776, 11883.21
718.5598, 11901.06
719.0419, 11906.09
719.5240, 11912.22
720.0061, 11924.70
720.4882, 11939.15
720.9703, 11948.61
721.4525, 11959.00
721.9346, 11984.15
722.4167, 12052.49
722.8988, 12100.79
723.3809, 12111.09
723.8630, 12093.24
724.3452, 12086.00
724.8273, 12090.17
725.3094, 12098.94
725.7915, 12108.87
726.2736, 12121.18
726.7557, 12140.36
727.2379, 12165.71
727.7200, 12191.82
728.2021, 12221.86
728.6842, 12246.34
729.1663, 12253.53
729.6484, 12241.85
730.1306, 12236.12
730.6127, 12245.57
731.0948, 12261.38
731.5769, 12278.91
732.0590, 12298.77
732.5411, 12318.56
733.0233, 12338.28
733.5054, 12357.98
733.9875, 12374.39
734.4696, 12389.41
734.9517, 12420.68
735.4338, 12473.59
735.9160, 12522.98
736.3981, 12537.95
736.8802, 12534.59
737.3623, 12535.65
737.8444, 12544.30
738.3266, 12563.86
738.8087, 12607.78
739.2908, 12659.51
739.7729, 12694.21
740.2551, 12705.01
740.7372, 12708.72
741.2193, 12699.11
741.7014, 12690.22
742.1835, 12722.26
742.6656, 12795.74
743.1478, 12845.62
743.6299, 12840.29
744.1120, 12814.10
744.5941, 12821.09
745.0762, 12853.04
745.5583, 12884.60
746.0405, 12900.64
746.5226, 12915.08
747.0047, 12937.69
747.4868, 12966.35
747.9689, 12986.91
748.4510, 12980.74
748.9332, 12988.62
749.4153, 13031.73
749.8974, 13104.74
750.3795, 13143.69
750.8616, 13145.33
751.3438, 13137.74
751.8259, 13134.25
752.3080, 13135.36
752.7901, 13140.45
753.2722, 13149.89
753.7543, 13169.48
754.2365, 13213.65
754.7186, 13262.27
755.2007, 13296.44
755.6828, 13310.74
756.1649, 13332.73
756.6470, 13386.28
757.1292, 13432.04
757.6113, 13441.51
758.0934, 13401.45
758.5755, 13385.33
759.0576, 13395.77
759.5397, 13421.23
760.0219, 13454.97
760.5040, 13494.19
760.9861, 13528.56
761.4682, 13555.48
761.9503, 13581.21
762.4324, 13609.22
762.9146, 13639.68
763.3967, 13673.32
763.8788, 13715.81
764.3609, 13752.47
764.8430, 13783.23
765.3251, 13805.28
765.8073, 13811.10
766.2894, 13791.71
766.7715, 13793.70
767.2536, 13829.32
767.7357, 13877.83
768.2178, 13903.24
768.7000, 13910.72
769.1821, 13921.81
769.6642, 13947.06
770.1463, 13972.84
770.6284, 13985.05
771.1105, 13989.64
771.5927, 13998.07
772.0748, 14016.16
772.5569, 14035.83
773.0390, 14052.42
773.5211, 14069.61
774.0032, 14096.23
774.4854, 14132.02
774.9675, 14180.10
775.4496, 14248.84
775.9317, 14323.92
776.4138, 14367.32
776.8959, 14382.67
777.3781, 14391.76
777.8602, 14401.81
778.3423, 14413.69
778.8244, 14433.86
779.3065, 14458.15
779.7886, 14469.19
780.2708, 14441.31
780.7529, 14420.81
781.2350, 14422.50
781.7171, 14444.85
782.1992, 14475.43
782.6813, 14516.18
783.1635, 14556.45
783.6456, 14593.47
784.1277, 14625.26
784.6098, 14643.67
785.0919, 14649.77
785.5740, 14654.95
786.0562, 14666.56
786.5383, 14680.55
787.0204, 14690.44
787.5025, 14696.16
787.9846, 14713.34
788.4667, 14765.48
788.9489, 14810.42
789.4310, 14826.95
789.9131, 14812.64
790.3952, 14812.49
790.8773, 14826.96
791.3594, 14853.56
791.8416, 14905.85
792.3237, 14966.77
792.8058, 14977.73
793.2879, 14937.13
793.7700, 14912.29
794.2521, 14964.17
794.7343, 15042.03
795.2164, 15106.04
795.6985, 15150.82
796.1806, 15186.00
796.6627, 15209.97
797.1448, 15228.95
797.6270, 15244.11
798.1091, 15253.58
798.5912, 15276.40
799.0733, 15314.91
799.5554, 15356.11
800.0375, 15386.85
800.5197, 15411.11
801.0018, 15439.48
801.4839, 15474.89
801.9660, 15499.56
802.4481, 15487.22
802.9302, 15469.03
803.4124, 15471.51
803.8945, 15506.03
804.3766, 15546.02
804.8587, 15594.43
805.3408, 15644.40
805.8229, 15686.86
806.3051, 15721.93
806.7872, 15773.88
807.2693, 15848.64
807.7514, 15917.39
808.2335, 15944.39
808.7156, 15948.88
809.1978, 15958.95
809.6799, 15980.33
810.1620, 16007.94
810.6441, 16031.42
811.1262, 16065.31
811.6083, 16127.18
812.0905, 16249.18
812.5726, 16322.17
813.0547, 16329.69
813.5368, 16314.46
814.0189, 16320.97
814.5010, 16347.83
814.9832, 16389.20
815.4653, 16445.92
815.9474, 16507.34
816.4295, 16572.77
816.9116, 16633.72
817.3937, 16678.83
817.8759, 16697.15
818.3580, 16714.61
818.8401, 16724.76
819.3222, 16743.89
819.8043, 16790.86
820.2864, 16872.40
820.7686, 16953.63
821.2507, 17033.77
821.7328, 17104.13
822.2149, 17142.67
822.6970, 17162.04
823.1791, 17198.50
823.6613, 17267.27
824.1434, 17329.00
824.6255, 17354.69
825.1076, 17359.88
825.5897, 17361.38
826.0718, 17349.15
826.5540, 17354.62
827.0361, 17392.18
827.5182, 17430.96
828.0003, 17426.19
828.4824, 17378.62
828.9645, 17353.03
829.4467, 17361.38
829.9288, 17383.83
830.4109, 17405.95
830.8930, 17424.61
831.3751, 17435.59
831.8572, 17438.88
832.3394, 17431.57
832.8215, 17399.11
833.3036, 17362.78
833.7857, 17344.86
834.2678, 17347.09
834.7499, 17366.14
835.2321, 17407.99
835.7142, 17452.13
836.1963, 17473.33
836.6784, 17475.12
837.1605, 17464.45
837.6426, 17437.13
838.1248, 17423.25
838.6069, 17454.98
839.0890, 17508.80
839.5711, 17559.50
840.0532, 17607.92
840.5353, 17641.31
841.0175, 17656.94
841.4996, 17660.33
841.9817, 17648.16
842.4638, 17618.39
842.9459, 17629.65
843.4280, 17694.24
843.9102, 17764.71
844.3923, 17785.69
844.8744, 17778.74
845.3565, 17775.94
845.8386, 17781.62
846.3207, 17799.66
846.8029, 17836.06
847.2850, 17883.02
847.7671, 17935.68
848.2492, 18004.42
848.7313, 18047.90
849.2134, 18059.72
849.6956, 18061.79
850.1777, 18074.33
850.6598, 18095.35
851.1419, 18120.37
851.6240, 18149.92
852.1061, 18173.24
852.5883, 18166.79
853.0704, 18159.96
853.5525, 18183.92
854.0346, 18258.87
854.5167, 18315.32
854.9988, 18348.25
855.4810, 18363.93
855.9631, 18357.87
856.4452, 18329.35
856.9273, 18336.70
857.4094, 18383.29
857.8915, 18436.96
858.3737, 18482.12
858.8558, 18510.79
859.3379, 18498.63
859.8200, 18438.42
860.3021, 18409.85
860.7842, 18468.14
861.2664, 18546.23
861.7485, 18607.45
862.2306, 18651.32
862.7127, 18686.98
863.1948, 18713.91
863.6769, 18736.16
864.1591, 18745.38
864.6412, 18754.90
865.1233, 18808.98
865.6054, 18904.84
866.0875, 18984.18
866.5696, 18980.57
867.0518, 18976.81
867.5339, 19043.96
868.0160, 19191.25
868.4981, 19257.84
868.9802, 19197.50
869.4623, 19154.54
869.9445, 19211.33
870.4266, 19340.13
870.9087, 19403.88
871.3908, 19409.75
871.8729, 19424.96
872.3550, 19485.90
872.8372, 19577.72
873.3193, 19712.90
873.8014, 19877.60
874.2835, 19992.96
874.7656, 19969.50
875.2477, 19982.73
875.7299, 20095.33
876.2120, 20273.52
876.6941, 20386.76
877.1762, 20434.89
877.6583, 20468.74
878.1404, 20501.47
878.6226, 20540.02
879.1047, 20608.91
879.5869, 20691.03
880.0690, 20744.04
880.5511, 20744.94
881.0332, 20721.85
881.5153, 20672.77
881.9974, 20608.56
882.4796, 20542.50
882.9617, 20468.35
883.4438, 20431.55
883.9259, 20452.71
884.4080, 20496.42
884.8901, 20514.36
885.3723, 20510.38
885.8544, 20493.65
886.3365, 20470.36
886.8186, 20430.01
887.3007, 20345.27
887.7828, 20250.62
888.2650, 20194.02
888.7471, 20185.54
889.2292, 20191.99
889.7113, 20213.82
890.1934, 20243.02
890.6755, 20284.92
891.1577, 20326.08
891.6398, 20314.43
892.1219, 20228.34
892.6040, 20152.04
893.0861, 20142.51
893.5682, 20172.08
894.0504, 20219.72
894.5325, 20299.82
895.0146, 20352.93
895.4967, 20375.35
895.9788, 20377.65
896.4609, 20357.26
896.9431, 20320.80
897.4252, 20310.32
897.9073, 20328.25
898.3894, 20363.31
898.8715, 20421.47
899.3536, 20483.00
899.8358, 20535.58
900.3179, 20578.21
900.8000, 20597.31
901.2821, 20568.50
901.7642, 20551.59
902.2463, 20581.65
902.7285, 20649.28
903.2106, 20681.04
903.6927, 20678.27
904.1748, 20680.02
904.6569, 20711.54
905.1390, 20758.40
905.6212, 20819.92
906.1033, 20886.97
906.5854, 20925.86
907.0675, 20902.53
907.5496, 20876.32
908.0317, 20850.81
908.5139, 20836.13
908.9960, 20873.41
909.4781, 20962.80
909.9602, 21045.91
910.4423, 21105.24
910.9244, 21142.61
911.4066, 21136.49
911.8887, 21113.96
912.3708, 21125.05
912.8529, 21226.70
913.3350, 21312.60
913.8171, 21361.47
914.2993, 21387.07
914.7814, 21402.89
915.2635, 21407.85
915.7456, 21416.85
916.2277, 21431.59
916.7098, 21452.60
917.1920, 21483.04
917.6741, 21518.92
918.1562, 21556.29
918.6383, 21597.23
919.1204, 21627.66
919.6025, 21622.81
920.0847, 21623.02
920.5668, 21662.43
921.0489, 21752.24
921.5310, 21793.43
922.0131, 21779.89
922.4952, 21767.33
922.9774, 21814.83
923.4595, 21885.02
923.9416, 21919.36
924.4237, 21916.45
924.9058, 21914.01
925.3879, 21924.44
925.8701, 21941.63
926.3522, 21962.87
926.8343, 21988.31
927.3164, 22016.27
927.7985, 22045.61
928.2806, 22090.11
928.7628, 22170.42
929.2449, 22255.25
929.7270, 22288.59
930.2091, 22285.95
930.6912, 22290.35
931.1733, 22322.86
931.6555, 22360.90
932.1376, 22410.72
932.6197, 22456.18
933.1018, 22463.43
933.5839, 22425.47
934.0660, 22400.90
934.5482, 22399.04
935.0303, 22417.15
935.5124, 22462.58
935.9945, 22522.68
936.4766, 22576.50
936.9587, 22623.47
937.4409, 22654.07
937.9230, 22635.45
938.4051, 22622.69
938.8872, 22667.63
939.3693, 22790.21
939.8514, 22842.18
940.3336, 22812.57
940.8157, 22788.48
941.2978, 22868.36
941.7799, 22986.47
942.2620, 23041.25
942.7441, 23029.81
943.2263, 23023.08
943.7084, 23057.51
944.1905, 23092.23
944.6726, 23109.99
945.1547, 23113.75
945.6368, 23119.41
946.1190, 23126.54
946.6011, 23144.12
947.0832, 23180.44
947.5653, 23224.66
948.0474, 23268.69
948.5295, 23309.21
949.0117, 23338.47
949.4938, 23351.65
949.9759, 23354.04
950.4580, 23327.04
950.9401, 23304.88
951.4222, 23355.66
951.9044, 23481.56
952.3865, 23556.77
952.8686, 23555.60
953.3507, 23527.46
953.8328, 23505.78
954.3149, 23497.56
954.7971, 23513.26
955.2792, 23558.44
955.7613, 23614.19
956.2434, 23689.28
956.7255, 23759.46
957.2076, 23807.37
957.6898, 23833.94
958.1719, 23874.32
958.6540, 23928.32
959.1361, 23964.03
959.6182, 23939.07
960.1003, 23902.23
960.5825, 23890.31
961.0646, 23905.15
961.5467, 23948.55
962.0288, 24045.42
962.5109, 24134.20
962.9930, 24204.30
963.4752, 24252.58
963.9573, 24251.52
964.4394, 24212.31
964.9215, 24207.26
965.4036, 24275.78
965.8857, 24354.57
966.3679, 24398.67
966.8500, 24419.87
967.3321, 24433.77
967.8142, 24447.19
968.2963, 24438.21
968.7784, 24386.80
969.2606, 24353.40
969.7427, 24423.04
970.2248, 24562.89
970.7069, 24650.50
971.1890, 24676.80
971.6711, 24693.65
972.1533, 24731.58
972.6354, 24773.84
973.1175, 24809.30
973.5996, 24837.57
974.0817, 24865.57
974.5638, 24894.95
975.0460, 24916.88
975.5281, 24920.14
976.0102, 24920.94
976.4923, 24965.72
976.9744, 25038.15
977.4565, 25090.26
977.9387, 25070.57
978.4208, 25062.76
978.9029, 25113.35
979.3850, 25184.14
979.8671, 25214.89
980.3492, 25189.47
980.8314, 25231.41
981.3135, 25369.20
981.7956, 25508.31
982.2777, 25532.21
982.7598, 25498.29
983.2419, 25486.34
983.7241, 25509.70
984.2062, 25542.01
984.6883, 25589.79
985.1704, 25629.81
985.6525, 25647.51
986.1346, 25646.26
986.6168, 25661.44
987.0989, 25692.86
987.5810, 25734.00
988.0631, 25786.48
988.5452, 25842.66
989.0273, 25898.43
989.5095, 25951.70
989.9916, 25996.48
990.4737, 26031.25
990.9558, 26057.21
991.4379, 26071.22
991.9200, 26080.67
992.4022, 26093.88
992.8843, 26111.89
993.3664, 26140.70
993.8485, 26181.91
994.3306, 26228.97
994.8127, 26288.88
995.2949, 26344.88
995.7770, 26375.17
996.2591, 26371.85
996.7412, 26402.75
997.2233, 26478.21
997.7054, 26549.15
998.1876, 26584.09
998.6697, 26594.06
999.1518, 26591.36
999.6339, 26583.43
1000.116, 26599.57
1000.598, 26695.38
1001.080, 26767.76
1001.562, 26749.29
1002.044, 26700.22
1002.527, 26740.82
1003.009, 26879.00
1003.491, 26989.24
1003.973, 27047.34
1004.455, 27071.46
1004.937, 27048.02
1005.419, 27017.56
1005.901, 27036.18
1006.384, 27126.64
1006.866, 27211.83
1007.348, 27292.45
1007.830, 27350.47
1008.312, 27368.69
1008.794, 27354.56
1009.276, 27349.60
1009.758, 27353.64
1010.240, 27364.79
1010.723, 27380.10
1011.205, 27403.96
1011.687, 27451.08
1012.169, 27507.64
1012.651, 27534.60
1013.133, 27514.79
1013.615, 27516.61
1014.097, 27554.60
1014.580, 27605.76
1015.062, 27641.12
1015.544, 27665.23
1016.026, 27687.64
1016.508, 27710.94
1016.990, 27726.31
1017.472, 27719.95
1017.954, 27713.85
1018.436, 27716.62
1018.919, 27728.89
1019.401, 27775.18
1019.883, 27855.60
1020.365, 27924.44
1020.847, 27932.88
1021.329, 27935.83
1021.811, 27996.64
1022.293, 28094.23
1022.776, 28178.16
1023.258, 28243.58
1023.740, 28283.47
1024.222, 28286.39
1024.704, 28281.54
1025.186, 28318.77
1025.668, 28382.28
1026.150, 28406.78
1026.632, 28379.06
1027.115, 28372.36
1027.597, 28463.45
1028.079, 28563.03
1028.561, 28600.08
1029.043, 28578.26
1029.525, 28613.07
1030.007, 28713.40
1030.489, 28790.00
1030.972, 28780.49
1031.454, 28748.48
1031.936, 28790.75
1032.418, 28878.47
1032.900, 28949.17
1033.382, 28973.42
1033.864, 28992.88
1034.346, 29008.82
1034.828, 29026.28
1035.311, 29048.86
1035.793, 29077.37
1036.275, 29121.97
1036.757, 29183.96
1037.239, 29233.63
1037.721, 29227.75
1038.203, 29221.21
1038.685, 29262.72
1039.167, 29345.99
1039.650, 29394.36
1040.132, 29399.21
1040.614, 29404.38
1041.096, 29422.66
1041.578, 29451.59
1042.060, 29489.72
1042.542, 29534.61
1043.024, 29582.73
1043.507, 29635.27
1043.989, 29686.09
1044.471, 29742.89
1044.953, 29788.62
1045.435, 29797.91
1045.917, 29776.38
1046.399, 29809.61
1046.881, 29896.54
1047.364, 29984.35
1047.846, 30053.43
1048.328, 30096.29
1048.810, 30083.57
1049.292, 30036.77
1049.774, 30050.12
1050.256, 30147.96
1050.738, 30218.82
1051.220, 30233.65
1051.703, 30231.71
1052.185, 30282.54
1052.667, 30350.73
1053.149, 30362.27
1053.631, 30279.44
1054.113, 30253.10
1054.595, 30376.18
1055.077, 30505.02
1055.559, 30566.60
1056.042, 30570.24
1056.524, 30576.39
1057.006, 30585.99
1057.488, 30606.60
1057.970, 30644.26
1058.452, 30692.33
1058.934, 30764.36
1059.416, 30838.84
1059.899, 30870.21
1060.381, 30835.54
1060.863, 30844.17
1061.345, 30913.39
1061.827, 30990.87
1062.309, 31029.32
1062.791, 31038.67
1063.273, 31011.00
1063.755, 30948.95
1064.238, 30952.79
1064.720, 31124.69
1065.202, 31269.55
1065.684, 31323.02
1066.166, 31315.45
1066.648, 31327.78
1067.130, 31354.71
1067.612, 31368.26
1068.094, 31343.01
1068.577, 31342.47
1069.059, 31433.99
1069.541, 31549.41
1070.023, 31623.64
1070.505, 31650.92
1070.987, 31658.90
1071.469, 31643.68
1071.951, 31647.47
1072.434, 31734.08
1072.916, 31830.63
1073.398, 31831.79
1073.880, 31766.78
1074.362, 31741.88
1074.844, 31805.40
1075.326, 31866.30
1075.808, 31911.70
1076.291, 31955.05
1076.773, 32026.08
1077.255, 32109.97
1077.737, 32156.25
1078.219, 32155.34
1078.701, 32158.92
1079.183, 32205.95
1079.665, 32250.30
1080.147, 32264.42
1080.630, 32255.83
1081.112, 32269.09
1081.594, 32303.83
1082.076, 32351.34
1082.558, 32419.21
1083.040, 32477.73
1083.522, 32495.29
1084.004, 32489.64
1084.486, 32481.41
1084.969, 32459.94
1085.451, 32474.93
1085.933, 32532.28
1086.415, 32603.33
1086.897, 32674.24
1087.379, 32740.14
1087.861, 32790.18
1088.343, 32826.88
1088.826, 32861.71
1089.308, 32894.52
1089.790, 32929.43
1090.272, 32959.03
1090.754, 33000.54
1091.236, 33111.45
1091.718, 33263.72
1092.200, 33305.36
1092.682, 33204.38
1093.165, 33127.02
1093.647, 33235.33
1094.129, 33346.62
1094.611, 33322.25
1095.093, 33189.79
1095.575, 33154.23
1096.057, 33218.55
1096.539, 33309.72
1097.022, 33410.63
1097.504, 33504.24
1097.986, 33578.81
1098.468, 33631.96
1098.950, 33655.07
1099.432, 33623.96
1099.914, 33632.20
1100.396, 33693.52
1100.879, 33749.22
1101.361, 33735.25
1101.843, 33696.25
1102.325, 33725.68
1102.807, 33809.32
1103.289, 33890.14
1103.771, 33938.65
1104.253, 33996.28
1104.735, 34079.66
1105.218, 34164.41
1105.700, 34213.46
1106.182, 34232.95
1106.664, 34247.14
1107.146, 34258.84
1107.628, 34273.85
1108.110, 34303.63
1108.592, 34329.69
1109.074, 34330.44
1109.557, 34319.19
1110.039, 34357.69
1110.521, 34447.02
1111.003, 34525.61
1111.485, 34572.72
1111.967, 34609.70
1112.449, 34656.55
1112.931, 34703.23
1113.414, 34738.04
1113.896, 34757.21
1114.378, 34778.07
1114.860, 34801.55
1115.342, 34821.64
1115.824, 34819.79
1116.306, 34825.31
1116.788, 34905.42
1117.271, 35026.84
1117.753, 35116.50
1118.235, 35135.76
1118.717, 35139.82
1119.199, 35123.76
1119.681, 35110.71
1120.163, 35115.75
1120.645, 35143.37
1121.127, 35221.52
1121.609, 35344.84
1122.092, 35451.46
1122.574, 35504.19
1123.056, 35539.60
1123.538, 35562.15
1124.020, 35582.62
1124.502, 35627.69
1124.984, 35693.37
1125.466, 35745.08
1125.949, 35774.77
1126.431, 35799.02
1126.913, 35826.63
1127.395, 35855.08
1127.877, 35883.54
1128.359, 35911.53
1128.841, 35933.03
1129.323, 35947.40
1129.806, 35966.54
1130.288, 35988.55
1130.770, 36030.07
1131.252, 36143.99
1131.734, 36270.70
1132.216, 36320.82
1132.698, 36249.73
1133.180, 36239.43
1133.662, 36301.40
1134.145, 36376.37
1134.627, 36433.70
1135.109, 36476.71
1135.591, 36509.30
1136.073, 36531.52
1136.555, 36542.66
1137.037, 36506.46
1137.519, 36520.87
1138.001, 36610.66
1138.484, 36711.01
1138.966, 36741.95
1139.448, 36733.93
1139.930, 36759.16
1140.412, 36819.82
1140.894, 36890.58
1141.376, 36972.34
1141.858, 37051.55
1142.341, 37135.70
1142.823, 37205.08
1143.305, 37202.83
1143.787, 37151.09
1144.269, 37157.64
1144.751, 37245.66
1145.233, 37332.66
1145.715, 37383.61
1146.198, 37406.92
1146.680, 37399.67
1147.162, 37372.16
1147.644, 37368.38
1148.126, 37388.59
1148.608, 37436.63
1149.090, 37521.55
1149.572, 37615.27
1150.054, 37719.22
1150.536, 37805.32
1151.019, 37841.68
1151.501, 37824.24
1151.983, 37815.46
1152.465, 37814.37
1152.947, 37844.28
1153.429, 37959.70
1153.911, 38064.48
1154.393, 38020.22
1154.876, 37915.27
1155.358, 37912.31
1155.840, 38059.75
1156.322, 38191.11
1156.804, 38307.78
1157.286, 38384.17
1157.768, 38364.96
1158.250, 38317.90
1158.733, 38332.21
1159.215, 38394.53
1159.697, 38445.96
1160.179, 38476.00
1160.661, 38496.16
1161.143, 38503.53
1161.625, 38513.42
1162.107, 38549.21
1162.589, 38597.34
1163.072, 38624.40
1163.554, 38631.66
1164.036, 38680.04
1164.518, 38838.32
1165.000, 38944.51
1165.482, 38947.99
1165.964, 38900.02
1166.446, 38875.77
1166.928, 38876.17
1167.411, 38908.36
1167.893, 38978.07
1168.375, 39047.31
1168.857, 39101.97
1169.339, 39157.40
1169.821, 39220.38
1170.303, 39286.70
1170.785, 39350.14
1171.268, 39407.10
1171.750, 39442.40
1172.232, 39430.88
1172.714, 39449.67
1173.196, 39582.62
1173.678, 39702.56
1174.160, 39718.50
1174.642, 39651.41
1175.125, 39630.56
1175.607, 39652.89
1176.089, 39703.28
1176.571, 39808.25
1177.053, 39895.55
1177.535, 39909.93
1178.017, 39909.44
1178.499, 39958.99
1178.981, 40057.65
1179.464, 40072.98
1179.946, 40009.98
1180.428, 39967.39
1180.910, 40026.85
1181.392, 40101.95
1181.874, 40144.91
1182.356, 40176.13
1182.838, 40229.03
1183.320, 40304.93
1183.803, 40377.98
1184.285, 40446.58
1184.767, 40506.51
1185.249, 40547.96
1185.731, 40587.02
1186.213, 40645.97
1186.695, 40708.85
1187.177, 40721.66
1187.660, 40679.06
1188.142, 40670.27
1188.624, 40711.46
1189.106, 40773.90
1189.588, 40840.68
1190.070, 40911.04
1190.552, 41000.71
1191.034, 41098.72
1191.516, 41120.25
1191.999, 41052.77
1192.481, 41031.83
1192.963, 41095.54
1193.445, 41200.19
1193.927, 41353.39
1194.409, 41490.73
1194.891, 41526.38
1195.373, 41453.85
1195.855, 41448.19
1196.338, 41521.40
1196.820, 41550.11
1197.302, 41455.98
1197.784, 41360.89
1198.266, 41420.31
1198.748, 41546.51
1199.230, 41627.57
1199.712, 41641.64
1200.195, 41672.19
1200.677, 41720.46
1201.159, 41776.60
1201.641, 41832.46
1202.123, 41896.23
1202.605, 41988.71
1203.087, 42090.86
1203.569, 42176.45
1204.052, 42257.02
1204.534, 42267.99
1205.016, 42195.49
1205.498, 42137.05
1205.980, 42168.41
1206.462, 42243.11
1206.944, 42331.23
1207.426, 42417.22
1207.908, 42459.25
1208.391, 42435.91
1208.873, 42428.30
1209.355, 42442.03
1209.837, 42459.05
1210.319, 42437.02
1210.801, 42430.40
1211.283, 42523.69
1211.765, 42688.29
1212.247, 42820.54
1212.730, 42924.16
1213.212, 42946.98
1213.694, 42865.21
1214.176, 42789.79
1214.658, 42853.14
1215.140, 42963.44
1215.622, 43006.69
1216.104, 42993.98
1216.587, 43028.50
1217.069, 43134.97
1217.551, 43222.99
1218.033, 43277.88
1218.515, 43311.37
1218.997, 43304.72
1219.479, 43305.44
1219.961, 43387.93
1220.443, 43547.67
1220.926, 43649.70
1221.408, 43682.27
1221.890, 43673.46
1222.372, 43615.61
1222.854, 43568.13
1223.336, 43619.41
1223.818, 43710.00
1224.300, 43769.44
1224.782, 43788.57
1225.265, 43833.11
1225.747, 43912.49
1226.229, 43973.11
1226.711, 43995.73
1227.193, 44000.75
1227.675, 43989.18
1228.157, 43988.13
1228.639, 44039.19
1229.122, 44153.38
1229.604, 44238.72
1230.086, 44293.21
1230.568, 44333.34
1231.050, 44359.14
1231.532, 44386.68
1232.014, 44438.89
1232.496, 44501.11
1232.979, 44550.69
1233.461, 44580.54
1233.943, 44666.80
1234.425, 44819.15
1234.907, 44920.57
1235.389, 44888.95
1235.871, 44826.39
1236.353, 44813.80
1236.835, 44842.68
1237.318, 44912.14
1237.800, 45029.67
1238.282, 45110.78
1238.764, 45154.41
1239.246, 45169.22
1239.728, 45121.58
1240.210, 45094.58
1240.692, 45199.38
1241.175, 45345.66
1241.657, 45402.30
1242.139, 45346.76
1242.621, 45344.22
1243.103, 45395.14
1243.585, 45450.27
1244.067, 45471.18
1244.549, 45495.53
1245.031, 45543.36
1245.514, 45615.34
1245.996, 45720.98
1246.478, 45869.77
1246.960, 45930.08
1247.442, 45904.51
1247.924, 45888.58
1248.406, 45975.66
1248.888, 46054.02
1249.370, 46032.15
1249.853, 45982.81
1250.335, 46007.98
1250.817, 46104.21
1251.299, 46180.88
1251.781, 46233.37
1252.263, 46260.36
1252.745, 46214.87
1253.227, 46198.91
1253.710, 46282.03
1254.192, 46399.73
1254.674, 46474.82
1255.156, 46512.11
1255.638, 46543.50
1256.120, 46571.29
1256.602, 46596.59
1257.084, 46607.50
1257.567, 46632.77
1258.049, 46680.89
1258.531, 46745.68
1259.013, 46824.00
1259.495, 46911.64
1259.977, 46997.52
1260.459, 47079.39
1260.941, 47145.17
1261.423, 47189.66
1261.906, 47210.45
1262.388, 47193.11
1262.870, 47176.34
1263.352, 47232.82
1263.834, 47327.71
1264.316, 47370.63
1264.798, 47358.98
1265.280, 47372.33
1265.762, 47460.04
1266.245, 47534.71
1266.727, 47583.27
1267.209, 47608.85
1267.691, 47588.92
1268.173, 47561.97
1268.655, 47605.87
1269.137, 47721.71
1269.619, 47800.37
1270.102, 47811.78
1270.584, 47838.82
1271.066, 47900.98
1271.548, 47974.99
1272.030, 48044.31
1272.512, 48098.49
1272.994, 48115.72
1273.476, 48097.47
1273.958, 48091.04
1274.441, 48090.25
1274.923, 48146.00
1275.405, 48281.31
1275.887, 48420.35
1276.369, 48477.90
1276.851, 48505.92
1277.333, 48556.80
1277.815, 48624.92
1278.297, 48654.11
1278.780, 48641.75
1279.262, 48640.95
1279.744, 48662.89
1280.226, 48702.29
1280.708, 48740.65
1281.190, 48810.82
1281.672, 48971.20
1282.154, 49176.13
1282.637, 49242.38
1283.119, 49184.79
1283.601, 49143.50
1284.083, 49150.17
1284.565, 49160.22
1285.047, 49125.97
1285.529, 49113.56
1286.011, 49158.91
1286.494, 49243.45
1286.976, 49328.37
1287.458, 49405.67
1287.940, 49441.02
1288.422, 49422.37
1288.904, 49404.52
1289.386, 49410.30
1289.868, 49414.37
1290.350, 49398.31
1290.833, 49390.73
1291.315, 49457.54
1291.797, 49573.20
1292.279, 49693.48
1292.761, 49813.05
1293.243, 49914.06
1293.725, 50006.26
1294.207, 50049.03
1294.689, 50011.04
1295.172, 49961.31
1295.654, 50006.24
1296.136, 50098.33
1296.618, 50177.70
1297.100, 50235.12
1297.582, 50293.45
1298.064, 50356.04
1298.546, 50396.37
1299.029, 50394.82
1299.511, 50405.15
1299.993, 50496.07
1300.475, 50616.84
1300.957, 50742.31
1301.439, 50857.59
1301.921, 50842.15
1302.403, 50702.29
1302.885, 50634.77
1303.368, 50709.78
1303.850, 50795.30
1304.332, 50761.20
1304.814, 50749.91
1305.296, 50865.93
1305.778, 51061.12
1306.260, 51162.77
1306.742, 51192.21
1307.224, 51246.12
1307.707, 51358.56
1308.189, 51431.23
1308.671, 51373.34
1309.153, 51336.87
1309.635, 51387.86
1310.117, 51477.03
1310.599, 51477.77
1311.081, 51443.75
1311.564, 51502.25
1312.046, 51697.14
1312.528, 51797.97
1313.010, 51746.36
1313.492, 51718.38
1313.974, 51780.89
1314.456, 51873.98
1314.938, 51916.54
1315.421, 51941.18
1315.903, 51984.02
##END=



