##NAMES=Grossular
##RRUFFID=R070551
##IDEAL CHEMISTRY=Ca_3_Al_2_(SiO_4_)_3_
##LOCALITY=Mali
##OWNER=RRUFF
##SOURCE=www.multicolour.com
##DESCRIPTION=Green gem fragments
##STATUS=The identification of this mineral has been confirmed by X-ray diffraction and chemical analysis
##URL=rruff.info/R070551
##MEASURED CHEMISTRY=(Ca_2.95_Mg_0.04_Mn_0.01_)_Σ=3_(Al_1.63_Fe^3+^_0.37_)_Σ=2_(Si_1.00_O_4_)_3_
156.8680, 1704.543
157.3501, 1715.743
157.8322, 1721.012
158.3143, 1728.421
158.7965, 1738.244
159.2786, 1751.286
159.7607, 1774.231
160.2428, 1814.457
160.7249, 1864.105
161.2070, 1915.018
161.6892, 1975.912
162.1713, 2028.960
162.6534, 2056.751
163.1355, 2055.980
163.6176, 2061.101
164.0997, 2102.594
164.5819, 2163.884
165.0640, 2216.166
165.5461, 2244.776
166.0282, 2259.051
166.5103, 2264.072
166.9924, 2254.977
167.4746, 2251.025
167.9567, 2268.872
168.4388, 2305.250
168.9209, 2349.505
169.4030, 2401.191
169.8851, 2455.056
170.3673, 2504.026
170.8494, 2542.422
171.3315, 2579.466
171.8136, 2622.115
172.2957, 2670.911
172.7778, 2729.889
173.2600, 2801.941
173.7421, 2886.358
174.2242, 2981.718
174.7063, 3076.070
175.1884, 3183.066
175.6706, 3315.571
176.1527, 3469.513
176.6348, 3674.690
177.1169, 3922.141
177.5990, 4233.459
178.0811, 4688.036
178.5633, 5516.892
179.0454, 6527.309
179.5275, 7233.265
180.0096, 7626.673
180.4917, 7661.338
180.9738, 7110.871
181.4560, 6024.686
181.9381, 4906.022
182.4202, 4064.369
182.9023, 3474.470
183.3844, 3024.805
183.8665, 2719.721
184.3487, 2526.732
184.8308, 2399.105
185.3129, 2340.407
185.7950, 2306.632
186.2771, 2259.821
186.7592, 2202.546
187.2414, 2160.520
187.7235, 2146.628
188.2056, 2153.595
188.6877, 2151.265
189.1698, 2138.352
189.6519, 2121.575
190.1341, 2109.245
190.6162, 2101.616
191.0983, 2091.896
191.5804, 2072.475
192.0625, 2044.565
192.5446, 2034.762
193.0268, 2047.268
193.5089, 2070.472
193.9910, 2085.202
194.4731, 2090.448
194.9552, 2094.639
195.4373, 2103.211
195.9195, 2116.664
196.4016, 2125.909
196.8837, 2130.226
197.3658, 2130.190
197.8479, 2126.523
198.3300, 2118.460
198.8122, 2109.793
199.2943, 2103.430
199.7764, 2099.864
200.2585, 2095.299
200.7406, 2088.716
201.2227, 2080.646
201.7049, 2073.693
202.1870, 2067.012
202.6691, 2063.134
203.1512, 2065.578
203.6333, 2076.210
204.1154, 2085.174
204.5976, 2089.139
205.0797, 2088.129
205.5618, 2092.563
206.0439, 2106.079
206.5260, 2119.631
207.0081, 2119.005
207.4903, 2097.073
207.9724, 2081.519
208.4545, 2082.977
208.9366, 2104.780
209.4187, 2121.808
209.9008, 2133.015
210.3830, 2140.171
210.8651, 2145.792
211.3472, 2148.337
211.8293, 2152.795
212.3114, 2162.060
212.7935, 2178.636
213.2757, 2192.132
213.7578, 2201.071
214.2399, 2207.365
214.7220, 2216.260
215.2041, 2228.483
215.6862, 2242.273
216.1684, 2256.793
216.6505, 2272.805
217.1326, 2288.182
217.6147, 2302.893
218.0968, 2316.998
218.5789, 2328.377
219.0611, 2331.147
219.5432, 2339.343
220.0253, 2365.190
220.5074, 2417.164
220.9895, 2467.219
221.4716, 2509.386
221.9538, 2543.941
222.4359, 2585.408
222.9180, 2638.622
223.4001, 2693.245
223.8822, 2736.624
224.3643, 2759.076
224.8465, 2789.533
225.3286, 2833.996
225.8107, 2893.036
226.2928, 2961.083
226.7749, 3040.454
227.2570, 3127.088
227.7392, 3212.877
228.2213, 3289.094
228.7034, 3379.844
229.1855, 3493.860
229.6676, 3637.620
230.1497, 3779.587
230.6319, 3917.006
231.1140, 4056.527
231.5961, 4210.755
232.0782, 4380.370
232.5603, 4562.825
233.0424, 4757.189
233.5246, 4955.774
234.0067, 5185.595
234.4888, 5460.795
234.9709, 5764.475
235.4530, 6058.109
235.9352, 6361.633
236.4173, 6624.967
236.8994, 6829.366
237.3815, 6978.302
237.8636, 7053.532
238.3457, 7031.583
238.8279, 6933.987
239.3100, 6844.301
239.7921, 6749.440
240.2742, 6679.893
240.7563, 6643.631
241.2384, 6597.734
241.7206, 6676.368
242.2027, 6905.649
242.6848, 7273.113
243.1669, 7716.329
243.6490, 8296.817
244.1311, 8877.470
244.6133, 9394.037
245.0954, 9981.415
245.5775, 10218.47
246.0596, 9985.691
246.5417, 9301.946
247.0238, 8530.727
247.5060, 7593.794
247.9881, 6657.510
248.4702, 5869.960
248.9523, 5258.386
249.4344, 4755.137
249.9165, 4358.731
250.3987, 4073.727
250.8808, 3837.447
251.3629, 3655.185
251.8450, 3512.915
252.3271, 3399.506
252.8092, 3321.531
253.2914, 3255.817
253.7735, 3197.548
254.2556, 3146.758
254.7377, 3104.707
255.2198, 3071.548
255.7020, 3047.515
256.1841, 3032.816
256.6662, 3026.737
257.1483, 3032.264
257.6304, 3052.572
258.1125, 3090.751
258.5946, 3126.021
259.0768, 3156.455
259.5589, 3186.506
260.0410, 3226.201
260.5231, 3280.696
261.0052, 3330.695
261.4873, 3365.656
261.9695, 3381.006
262.4516, 3407.180
262.9337, 3447.304
263.4158, 3495.429
263.8979, 3538.317
264.3800, 3573.744
264.8622, 3611.492
265.3443, 3656.314
265.8264, 3710.141
266.3085, 3762.682
266.7906, 3810.437
267.2727, 3860.144
267.7549, 3927.955
268.2370, 4018.209
268.7191, 4110.942
269.2012, 4190.662
269.6833, 4251.572
270.1655, 4338.732
270.6476, 4448.741
271.1297, 4590.075
271.6118, 4779.033
272.0939, 5016.150
272.5760, 5298.387
273.0582, 5619.513
273.5403, 5976.395
274.0224, 6419.185
274.5045, 6994.156
274.9866, 7612.023
275.4688, 8074.848
275.9509, 8393.966
276.4330, 8493.374
276.9151, 8259.156
277.3972, 7691.145
277.8793, 7101.180
278.3615, 6499.715
278.8436, 5923.690
279.3257, 5452.785
279.8078, 5090.358
280.2899, 4801.068
280.7720, 4567.621
281.2542, 4388.944
281.7363, 4254.628
282.2184, 4173.563
282.7005, 4126.248
283.1826, 4062.681
283.6647, 3981.751
284.1469, 3905.868
284.6290, 3856.922
285.1111, 3830.909
285.5932, 3805.729
286.0753, 3779.872
286.5574, 3749.952
287.0396, 3707.461
287.5217, 3652.723
288.0038, 3592.818
288.4859, 3531.851
288.9680, 3469.868
289.4501, 3407.881
289.9323, 3343.210
290.4144, 3280.396
290.8965, 3229.692
291.3786, 3190.906
291.8607, 3157.169
292.3428, 3128.131
292.8250, 3100.487
293.3071, 3062.983
293.7892, 3005.300
294.2713, 2944.218
294.7534, 2906.170
295.2355, 2890.078
295.7177, 2878.033
296.1998, 2852.996
296.6819, 2822.439
297.1640, 2801.047
297.6461, 2794.133
298.1282, 2797.415
298.6104, 2809.052
299.0925, 2828.358
299.5746, 2847.791
300.0567, 2859.264
300.5388, 2868.063
301.0209, 2882.680
301.5031, 2909.933
301.9852, 2939.988
302.4673, 2959.274
302.9494, 2970.158
303.4315, 2990.211
303.9136, 3040.212
304.3958, 3102.912
304.8779, 3158.434
305.3600, 3200.886
305.8421, 3233.027
306.3242, 3249.842
306.8063, 3254.012
307.2885, 3265.025
307.7706, 3300.451
308.2527, 3345.309
308.7348, 3384.408
309.2169, 3411.090
309.6990, 3432.817
310.1812, 3449.455
310.6633, 3462.447
311.1454, 3481.053
311.6275, 3515.690
312.1096, 3554.529
312.5917, 3588.026
313.0739, 3613.072
313.5560, 3633.177
314.0381, 3644.941
314.5202, 3650.438
315.0023, 3662.792
315.4844, 3686.096
315.9666, 3717.842
316.4487, 3756.298
316.9308, 3809.237
317.4129, 3860.326
317.8950, 3900.971
318.3771, 3934.253
318.8593, 3979.661
319.3414, 4046.145
319.8235, 4122.254
320.3056, 4201.255
320.7877, 4281.658
321.2698, 4365.609
321.7520, 4448.313
322.2341, 4532.517
322.7162, 4634.017
323.1983, 4753.241
323.6804, 4889.451
324.1625, 5043.003
324.6447, 5240.886
325.1268, 5420.392
325.6089, 5592.979
326.0910, 5748.139
326.5731, 5845.222
327.0552, 5887.756
327.5374, 5867.743
328.0195, 5773.822
328.5016, 5567.966
328.9837, 5366.279
329.4658, 5168.824
329.9479, 4980.524
330.4301, 4810.277
330.9122, 4656.772
331.3943, 4526.510
331.8764, 4421.702
332.3585, 4342.084
332.8406, 4290.825
333.3228, 4275.903
333.8049, 4284.625
334.2870, 4275.539
334.7691, 4235.540
335.2512, 4219.250
335.7333, 4273.587
336.2155, 4407.404
336.6976, 4489.551
337.1797, 4498.451
337.6618, 4470.192
338.1439, 4472.738
338.6260, 4507.397
339.1082, 4560.057
339.5903, 4626.606
340.0724, 4705.885
340.5545, 4796.227
341.0366, 4899.452
341.5187, 5006.750
342.0009, 5105.441
342.4830, 5195.073
342.9651, 5275.197
343.4472, 5354.406
343.9293, 5422.980
344.4114, 5445.313
344.8936, 5412.543
345.3757, 5365.902
345.8578, 5345.223
346.3399, 5349.318
346.8220, 5372.606
347.3041, 5414.265
347.7863, 5472.885
348.2684, 5545.101
348.7505, 5630.433
349.2326, 5732.301
349.7147, 5847.780
350.1968, 5983.093
350.6790, 6145.983
351.1611, 6355.513
351.6432, 6585.688
352.1253, 6811.796
352.6074, 7032.284
353.0895, 7264.879
353.5717, 7515.492
354.0538, 7787.980
354.5359, 8089.884
355.0180, 8410.252
355.5001, 8768.160
355.9822, 9177.233
356.4644, 9637.173
356.9465, 10125.74
357.4286, 10620.95
357.9107, 11146.63
358.3928, 11726.84
358.8749, 12368.31
359.3571, 13056.89
359.8392, 13780.00
360.3213, 14543.81
360.8034, 15375.22
361.2855, 16274.75
361.7676, 17252.68
362.2498, 18315.64
362.7319, 19467.21
363.2140, 20701.40
363.6961, 22088.46
364.1782, 23583.63
364.6603, 24995.96
365.1425, 26375.67
365.6246, 27627.39
366.1067, 28707.93
366.5888, 29595.39
367.0709, 30322.38
367.5530, 30813.08
368.0352, 31158.72
368.5173, 31609.44
368.9994, 32110.32
369.4815, 32818.88
369.9636, 33794.93
370.4457, 35043.37
370.9279, 36595.93
371.4100, 38499.25
371.8921, 40631.14
372.3742, 42796.95
372.8563, 45090.14
373.3384, 47039.74
373.8206, 48518.80
374.3027, 49537.66
374.7848, 49736.36
375.2669, 49084.87
375.7490, 47698.87
376.2311, 45537.73
376.7133, 42650.71
377.1954, 39572.64
377.6775, 36407.19
378.1596, 33221.52
378.6417, 30324.31
379.1238, 27718.96
379.6060, 25374.30
380.0881, 23256.41
380.5702, 21360.49
381.0523, 19650.93
381.5344, 18117.84
382.0165, 16743.89
382.4987, 15557.35
382.9808, 14545.89
383.4629, 13524.54
383.9450, 12151.50
384.4271, 10738.89
384.9092, 9751.843
385.3914, 9559.343
385.8735, 9554.300
386.3556, 9346.632
386.8377, 8971.876
387.3198, 8576.888
387.8019, 8206.959
388.2841, 7861.247
388.7662, 7542.226
389.2483, 7244.559
389.7304, 6983.104
390.2125, 6779.878
390.6946, 6617.218
391.1768, 6453.833
391.6589, 6257.435
392.1410, 6071.561
392.6231, 5915.532
393.1053, 5797.436
393.5874, 5693.725
394.0695, 5606.116
394.5516, 5530.222
395.0337, 5459.591
395.5158, 5388.326
395.9980, 5327.929
396.4801, 5283.946
396.9622, 5260.286
397.4443, 5231.480
397.9264, 5194.706
398.4085, 5155.361
398.8907, 5120.567
399.3728, 5094.619
399.8549, 5062.085
400.3370, 5014.785
400.8191, 4955.657
401.3012, 4915.865
401.7834, 4897.674
402.2655, 4892.523
402.7476, 4896.240
403.2297, 4908.983
403.7118, 4918.838
404.1939, 4920.129
404.6761, 4920.599
405.1582, 4936.730
405.6403, 4968.495
406.1224, 5017.478
406.6045, 5089.048
407.0866, 5178.533
407.5688, 5277.555
408.0509, 5387.483
408.5330, 5500.851
409.0151, 5617.304
409.4972, 5733.289
409.9793, 5833.542
410.4615, 5937.342
410.9436, 6009.207
411.4257, 6009.124
411.9078, 5932.234
412.3899, 5795.358
412.8720, 5581.398
413.3542, 5320.081
413.8363, 5052.462
414.3184, 4776.864
414.8005, 4516.894
415.2826, 4283.617
415.7647, 4075.484
416.2469, 3894.957
416.7290, 3747.703
417.2111, 3624.371
417.6932, 3514.925
418.1753, 3427.338
418.6574, 3343.733
419.1396, 3258.170
419.6217, 3172.877
420.1038, 3104.345
420.5859, 3069.813
421.0680, 3038.391
421.5501, 2994.241
422.0323, 2921.895
422.5144, 2865.397
422.9965, 2829.424
423.4786, 2807.576
423.9607, 2786.229
424.4428, 2765.440
424.9250, 2745.201
425.4071, 2725.149
425.8892, 2705.050
426.3713, 2689.590
426.8534, 2680.573
427.3355, 2672.374
427.8177, 2655.597
428.2998, 2630.212
428.7819, 2609.215
429.2640, 2597.047
429.7461, 2592.191
430.2282, 2588.742
430.7104, 2586.450
431.1925, 2591.729
431.6746, 2616.415
432.1567, 2652.924
432.6388, 2682.318
433.1209, 2697.711
433.6031, 2707.719
434.0852, 2724.902
434.5673, 2746.004
435.0494, 2758.974
435.5315, 2746.828
436.0136, 2728.576
436.4958, 2722.264
436.9779, 2733.050
437.4600, 2748.549
437.9421, 2767.840
438.4242, 2787.050
438.9063, 2799.544
439.3885, 2802.742
439.8706, 2799.554
440.3527, 2786.225
440.8348, 2759.844
441.3169, 2747.175
441.7990, 2755.853
442.2812, 2777.763
442.7633, 2805.863
443.2454, 2839.922
443.7275, 2879.926
444.2096, 2930.425
444.6917, 2988.730
445.1739, 3033.468
445.6560, 3056.824
446.1381, 3079.618
446.6202, 3115.260
447.1023, 3167.561
447.5844, 3214.378
448.0666, 3255.025
448.5487, 3288.771
449.0308, 3310.117
449.5129, 3317.758
449.9950, 3329.807
450.4771, 3359.404
450.9593, 3401.536
451.4414, 3432.046
451.9235, 3450.580
452.4056, 3462.392
452.8877, 3475.922
453.3698, 3487.428
453.8520, 3484.674
454.3341, 3448.431
454.8162, 3409.765
455.2983, 3412.821
455.7804, 3450.384
456.2625, 3478.861
456.7447, 3458.892
457.2268, 3423.310
457.7089, 3405.087
458.1910, 3420.296
458.6731, 3433.425
459.1552, 3423.317
459.6374, 3400.652
460.1195, 3386.708
460.6016, 3388.848
461.0837, 3399.568
461.5658, 3421.752
462.0479, 3462.694
462.5301, 3482.203
463.0122, 3462.224
463.4943, 3429.080
463.9764, 3406.346
464.4585, 3399.658
464.9406, 3393.311
465.4228, 3383.255
465.9049, 3371.104
466.3870, 3368.328
466.8691, 3376.834
467.3512, 3389.598
467.8333, 3403.995
468.3155, 3420.291
468.7976, 3430.771
469.2797, 3432.494
469.7618, 3433.097
470.2439, 3447.147
470.7260, 3473.506
471.2082, 3500.178
471.6903, 3518.112
472.1724, 3533.332
472.6545, 3564.226
473.1366, 3611.654
473.6187, 3651.028
474.1009, 3660.668
474.5830, 3648.534
475.0651, 3626.437
475.5472, 3589.916
476.0293, 3553.956
476.5114, 3532.619
476.9936, 3521.549
477.4757, 3503.892
477.9578, 3467.922
478.4399, 3426.343
478.9220, 3384.885
479.4041, 3341.153
479.8863, 3305.275
480.3684, 3274.942
480.8505, 3254.163
481.3326, 3249.850
481.8147, 3283.624
482.2968, 3306.389
482.7790, 3303.438
483.2611, 3274.973
483.7432, 3260.387
484.2253, 3262.331
484.7074, 3273.750
485.1895, 3290.395
485.6717, 3312.984
486.1538, 3336.054
486.6359, 3356.177
487.1180, 3379.598
487.6001, 3423.262
488.0822, 3487.028
488.5644, 3547.715
489.0465, 3586.957
489.5286, 3613.961
490.0107, 3653.810
490.4928, 3708.026
490.9749, 3765.301
491.4571, 3818.928
491.9392, 3868.015
492.4213, 3912.319
492.9034, 3953.837
493.3855, 3987.766
493.8676, 4007.042
494.3498, 4014.012
494.8319, 4019.960
495.3140, 4036.387
495.7961, 4048.627
496.2782, 4044.730
496.7603, 4011.636
497.2425, 3990.037
497.7246, 4002.885
498.2067, 4027.091
498.6888, 4028.237
499.1709, 3986.548
499.6530, 3946.937
500.1352, 3915.591
500.6173, 3892.458
501.0994, 3885.712
501.5815, 3900.427
502.0636, 3921.992
502.5457, 3943.835
503.0279, 3967.480
503.5100, 3971.424
503.9921, 3947.104
504.4742, 3912.516
504.9563, 3906.049
505.4384, 3924.999
505.9206, 3935.982
506.4027, 3919.137
506.8848, 3883.623
507.3669, 3845.447
507.8490, 3804.891
508.3311, 3762.687
508.8133, 3717.854
509.2954, 3672.267
509.7775, 3628.319
510.2596, 3587.540
510.7417, 3548.379
511.2238, 3509.708
511.7060, 3472.123
512.1881, 3437.254
512.6702, 3410.289
513.1523, 3382.433
513.6345, 3347.912
514.1166, 3302.186
514.5987, 3264.949
515.0808, 3238.736
515.5629, 3220.208
516.0450, 3206.998
516.5272, 3202.693
517.0093, 3195.454
517.4914, 3179.571
517.9735, 3159.700
518.4556, 3156.929
518.9377, 3174.243
519.4199, 3195.090
519.9020, 3207.656
520.3841, 3213.551
520.8662, 3228.769
521.3483, 3257.005
521.8304, 3282.509
522.3126, 3276.193
522.7947, 3250.399
523.2768, 3241.819
523.7589, 3281.048
524.2410, 3330.119
524.7231, 3345.417
525.2053, 3333.163
525.6874, 3330.184
526.1695, 3352.385
526.6516, 3393.768
527.1337, 3451.722
527.6158, 3530.786
528.0980, 3614.392
528.5801, 3691.819
529.0622, 3773.198
529.5443, 3875.941
530.0264, 4011.249
530.5085, 4153.366
530.9907, 4300.108
531.4728, 4450.205
531.9549, 4602.307
532.4370, 4750.076
532.9191, 4909.837
533.4012, 5092.909
533.8834, 5297.977
534.3655, 5510.646
534.8476, 5724.710
535.3297, 5954.638
535.8118, 6222.028
536.2939, 6526.336
536.7761, 6867.709
537.2582, 7255.869
537.7403, 7679.265
538.2224, 8118.260
538.7045, 8574.534
539.1866, 9088.303
539.6688, 9723.064
540.1509, 10405.63
540.6330, 11070.58
541.1151, 11722.67
541.5972, 12311.10
542.0793, 12878.83
542.5615, 13356.89
543.0436, 13632.36
543.5257, 13732.26
544.0078, 13572.39
544.4899, 13092.59
544.9720, 12298.11
545.4542, 11398.34
545.9363, 10321.55
546.4184, 9238.014
546.9005, 8225.463
547.3826, 7275.488
547.8647, 6472.493
548.3469, 5832.786
548.8290, 5319.018
549.3111, 4868.827
549.7932, 4485.069
550.2753, 4158.412
550.7574, 3896.704
551.2396, 3684.448
551.7217, 3493.412
552.2038, 3324.178
552.6859, 3183.617
553.1680, 3089.869
553.6501, 3022.477
554.1323, 2960.827
554.6144, 2899.779
555.0965, 2846.698
555.5786, 2806.768
556.0607, 2776.512
556.5428, 2751.187
557.0250, 2730.676
557.5071, 2713.669
557.9892, 2698.323
558.4713, 2685.208
558.9534, 2681.207
559.4355, 2691.539
559.9177, 2704.141
560.3998, 2713.156
560.8819, 2718.503
561.3640, 2720.681
561.8461, 2719.184
562.3282, 2715.892
562.8104, 2713.414
563.2925, 2711.657
563.7746, 2709.070
564.2567, 2702.993
564.7388, 2697.729
565.2209, 2704.015
565.7031, 2719.555
566.1852, 2731.420
566.6673, 2723.621
567.1494, 2712.190
567.6315, 2715.949
568.1136, 2741.183
568.5958, 2760.077
569.0779, 2750.802
569.5600, 2732.275
570.0421, 2724.901
570.5242, 2758.135
571.0063, 2773.381
571.4885, 2753.141
571.9706, 2707.175
572.4527, 2670.669
572.9348, 2643.584
573.4169, 2626.358
573.8990, 2623.239
574.3812, 2635.475
574.8633, 2633.938
575.3454, 2616.486
575.8275, 2593.107
576.3096, 2572.408
576.7917, 2554.169
577.2739, 2539.171
577.7560, 2531.848
578.2381, 2518.927
578.7202, 2468.047
579.2023, 2395.339
579.6844, 2347.835
580.1666, 2379.500
580.6487, 2421.910
581.1308, 2423.563
581.6129, 2382.461
582.0950, 2344.922
582.5771, 2329.803
583.0593, 2321.972
583.5414, 2311.176
584.0235, 2294.462
584.5056, 2277.539
584.9877, 2260.448
585.4698, 2243.316
585.9520, 2226.168
586.4341, 2208.451
586.9162, 2192.725
587.3983, 2180.614
587.8804, 2170.859
588.3625, 2157.358
588.8447, 2140.033
589.3268, 2123.474
589.8089, 2112.351
590.2910, 2104.209
590.7731, 2094.045
591.2552, 2081.472
591.7374, 2066.057
592.2195, 2039.110
592.7016, 2011.613
593.1837, 1998.464
593.6658, 2019.068
594.1479, 2040.113
594.6301, 2048.146
595.1122, 2046.618
595.5943, 2047.588
596.0764, 2046.897
596.5585, 2055.164
597.0406, 2078.827
597.5228, 2120.272
598.0049, 2151.216
598.4870, 2165.314
598.9691, 2180.439
599.4512, 2217.872
599.9333, 2279.087
600.4155, 2320.338
600.8976, 2332.224
601.3797, 2334.490
601.8618, 2360.620
602.3439, 2403.938
602.8260, 2440.453
603.3082, 2452.149
603.7903, 2456.529
604.2724, 2470.891
604.7545, 2493.954
605.2366, 2516.387
605.7188, 2532.594
606.2009, 2547.625
606.6830, 2565.319
607.1651, 2587.672
607.6472, 2607.561
608.1293, 2619.720
608.6115, 2631.220
609.0936, 2650.354
609.5757, 2684.656
610.0578, 2707.117
610.5399, 2709.511
611.0220, 2701.217
611.5042, 2706.576
611.9863, 2726.095
612.4684, 2753.880
612.9505, 2793.646
613.4326, 2838.540
613.9147, 2869.106
614.3969, 2885.584
614.8790, 2902.941
615.3611, 2936.980
615.8432, 2976.212
616.3253, 3006.377
616.8074, 3020.598
617.2896, 3038.136
617.7717, 3069.872
618.2538, 3109.084
618.7359, 3146.541
619.2180, 3176.646
619.7001, 3209.791
620.1823, 3250.725
620.6644, 3296.323
621.1465, 3330.926
621.6286, 3348.708
622.1107, 3370.904
622.5928, 3413.247
623.0750, 3473.025
623.5571, 3513.835
624.0392, 3535.566
624.5213, 3537.193
625.0034, 3509.275
625.4855, 3461.386
625.9677, 3415.371
626.4498, 3378.268
626.9319, 3336.168
627.4140, 3281.950
627.8961, 3214.449
628.3782, 3132.931
628.8604, 3026.156
629.3425, 2915.801
629.8246, 2803.392
630.3067, 2690.766
630.7888, 2594.523
631.2709, 2528.421
631.7531, 2459.988
632.2352, 2370.703
632.7173, 2257.257
633.1994, 2168.674
633.6815, 2108.912
634.1636, 2061.493
634.6458, 2009.217
635.1279, 1953.612
635.6100, 1908.548
636.0921, 1878.458
636.5742, 1850.967
637.0563, 1810.653
637.5385, 1762.031
638.0206, 1715.933
638.5027, 1676.045
638.9848, 1639.980
639.4669, 1607.349
639.9490, 1577.781
640.4312, 1551.861
640.9133, 1526.164
641.3954, 1507.549
641.8775, 1502.156
642.3596, 1514.986
642.8417, 1508.785
643.3239, 1475.521
643.8060, 1437.930
644.2881, 1418.311
644.7702, 1416.850
645.2523, 1405.883
645.7344, 1379.586
646.2166, 1349.912
646.6987, 1332.118
647.1808, 1324.472
647.6629, 1322.227
648.1450, 1330.099
648.6271, 1336.511
649.1093, 1331.285
649.5914, 1316.555
650.0735, 1300.043
650.5556, 1273.059
651.0377, 1255.238
651.5198, 1261.902
652.0020, 1300.210
652.4841, 1314.580
652.9662, 1289.703
653.4483, 1259.993
653.9304, 1252.926
654.4125, 1273.090
654.8947, 1280.266
655.3768, 1269.138
655.8589, 1252.216
656.3410, 1248.618
656.8231, 1254.666
657.3052, 1254.941
657.7874, 1240.946
658.2695, 1224.080
658.7516, 1214.027
659.2337, 1210.572
659.7158, 1213.337
660.1979, 1232.438
660.6801, 1248.479
661.1622, 1250.362
661.6443, 1237.065
662.1264, 1226.090
662.6085, 1219.090
663.0906, 1213.983
663.5728, 1209.732
664.0549, 1206.095
664.5370, 1204.325
665.0191, 1204.680
665.5012, 1206.084
665.9833, 1207.560
666.4655, 1209.075
666.9476, 1211.083
667.4297, 1215.014
667.9118, 1216.340
668.3939, 1205.501
668.8760, 1188.452
669.3582, 1177.755
669.8403, 1184.643
670.3224, 1193.570
670.8045, 1197.965
671.2866, 1198.204
671.7687, 1197.027
672.2509, 1187.815
672.7330, 1185.142
673.2151, 1197.448
673.6972, 1226.961
674.1793, 1241.890
674.6614, 1239.488
675.1436, 1231.160
675.6257, 1226.162
676.1078, 1223.616
676.5899, 1217.162
677.0720, 1204.561
677.5541, 1195.421
678.0363, 1204.446
678.5184, 1223.095
679.0005, 1237.560
679.4826, 1241.093
679.9647, 1242.024
680.4468, 1244.751
680.9290, 1247.532
681.4111, 1246.218
681.8932, 1237.126
682.3753, 1227.135
682.8574, 1215.134
683.3395, 1202.537
683.8217, 1204.055
684.3038, 1224.331
684.7859, 1240.715
685.2680, 1234.663
685.7501, 1212.167
686.2322, 1204.638
686.7144, 1212.724
687.1965, 1224.648
687.6786, 1236.113
688.1607, 1243.049
688.6428, 1237.068
689.1249, 1209.251
689.6071, 1190.817
690.0892, 1206.412
690.5713, 1234.369
691.0534, 1248.810
691.5355, 1234.509
692.0176, 1223.161
692.4998, 1217.008
692.9819, 1215.305
693.4640, 1218.428
693.9461, 1228.021
694.4282, 1231.171
694.9103, 1219.517
695.3925, 1200.827
695.8746, 1195.630
696.3567, 1202.618
696.8388, 1212.166
697.3209, 1223.142
697.8030, 1230.535
698.2852, 1226.212
698.7673, 1209.601
699.2494, 1198.162
699.7316, 1198.235
700.2137, 1206.021
700.6958, 1220.845
701.1779, 1249.295
701.6600, 1265.815
702.1422, 1265.778
702.6243, 1259.771
703.1064, 1259.850
703.5885, 1266.318
704.0706, 1269.389
704.5527, 1266.922
705.0349, 1261.766
705.5170, 1256.312
705.9991, 1251.553
706.4812, 1250.395
706.9633, 1258.989
707.4454, 1266.754
707.9276, 1264.211
708.4097, 1254.763
708.8918, 1249.589
709.3739, 1256.837
709.8560, 1263.348
710.3381, 1265.478
710.8203, 1263.296
711.3024, 1256.571
711.7845, 1242.068
712.2666, 1231.400
712.7487, 1231.624
713.2308, 1242.003
713.7130, 1261.042
714.1951, 1290.002
714.6772, 1309.526
715.1593, 1287.222
715.6414, 1250.517
716.1235, 1239.120
716.6057, 1263.822
717.0878, 1301.803
717.5699, 1363.499
718.0520, 1423.843
718.5341, 1455.159
719.0162, 1436.927
719.4984, 1412.738
719.9805, 1382.157
720.4626, 1348.381
720.9447, 1314.312
721.4268, 1277.832
721.9089, 1258.768
722.3911, 1269.410
722.8732, 1293.309
723.3553, 1299.463
723.8374, 1290.451
724.3195, 1278.270
724.8016, 1263.745
725.2838, 1252.915
725.7659, 1252.020
726.2480, 1260.335
726.7301, 1269.171
727.2122, 1278.176
727.6943, 1285.152
728.1765, 1287.527
728.6586, 1283.857
729.1407, 1290.385
729.6228, 1311.769
730.1049, 1331.635
730.5870, 1332.636
731.0692, 1318.650
731.5513, 1319.282
732.0334, 1338.979
732.5155, 1357.017
732.9976, 1345.223
733.4797, 1321.942
733.9619, 1315.091
734.4440, 1343.140
734.9261, 1364.595
735.4082, 1356.297
735.8903, 1334.135
736.3724, 1321.025
736.8546, 1318.504
737.3367, 1324.964
737.8188, 1344.880
738.3009, 1370.188
738.7830, 1380.867
739.2651, 1376.510
739.7473, 1373.071
740.2294, 1379.904
740.7115, 1387.620
741.1936, 1372.649
741.6757, 1342.631
742.1578, 1327.742
742.6400, 1360.292
743.1221, 1398.604
743.6042, 1415.313
744.0863, 1410.710
744.5684, 1410.312
745.0505, 1420.224
745.5327, 1431.527
746.0148, 1440.290
746.4969, 1446.177
746.9790, 1457.339
747.4611, 1475.355
747.9432, 1491.748
748.4254, 1498.023
748.9075, 1497.808
749.3896, 1502.807
749.8717, 1514.890
750.3538, 1522.170
750.8359, 1506.062
751.3181, 1485.182
751.8002, 1480.037
752.2823, 1506.629
752.7644, 1524.844
753.2465, 1522.396
753.7286, 1512.417
754.2108, 1506.460
754.6929, 1502.689
755.1750, 1511.867
755.6571, 1539.612
756.1392, 1572.982
756.6213, 1590.337
757.1035, 1594.351
757.5856, 1595.928
758.0677, 1598.751
758.5498, 1600.747
759.0319, 1594.805
759.5140, 1586.745
759.9962, 1589.598
760.4783, 1614.196
760.9604, 1643.428
761.4425, 1677.684
761.9246, 1713.115
762.4067, 1731.722
762.8889, 1724.656
763.3710, 1726.581
763.8531, 1755.986
764.3352, 1803.592
764.8173, 1834.900
765.2994, 1850.505
765.7816, 1858.269
766.2637, 1853.534
766.7458, 1849.854
767.2279, 1864.351
767.7100, 1897.326
768.1921, 1927.274
768.6743, 1941.401
769.1564, 1954.414
769.6385, 1977.191
770.1206, 2014.640
770.6027, 2034.521
771.0848, 2032.265
771.5670, 2024.292
772.0491, 2024.485
772.5312, 2031.207
773.0133, 2032.707
773.4954, 2027.622
773.9775, 2021.749
774.4597, 2022.159
774.9418, 2024.269
775.4239, 2021.283
775.9060, 2007.753
776.3881, 1999.282
776.8702, 2007.297
777.3524, 2019.392
777.8345, 2021.604
778.3166, 2008.174
778.7987, 1998.944
779.2808, 1995.912
779.7629, 1996.690
780.2451, 1996.471
780.7272, 1996.252
781.2093, 2002.682
781.6914, 2018.542
782.1735, 2039.461
782.6556, 2067.476
783.1378, 2096.577
783.6199, 2115.333
784.1020, 2111.857
784.5841, 2106.926
785.0662, 2101.256
785.5483, 2098.958
786.0305, 2110.234
786.5126, 2139.518
786.9947, 2170.334
787.4768, 2199.571
787.9589, 2227.046
788.4410, 2251.679
788.9232, 2274.180
789.4053, 2297.006
789.8874, 2319.595
790.3695, 2344.999
790.8516, 2375.030
791.3337, 2410.228
791.8159, 2452.910
792.2980, 2515.734
792.7801, 2574.344
793.2622, 2615.275
793.7443, 2641.481
794.2264, 2686.052
794.7086, 2752.689
795.1907, 2823.854
795.6728, 2887.366
796.1549, 2948.804
796.6370, 3032.827
797.1191, 3136.795
797.6013, 3243.701
798.0834, 3334.127
798.5655, 3426.548
799.0476, 3540.181
799.5297, 3677.100
800.0118, 3808.514
800.4940, 3910.856
800.9761, 4021.453
801.4582, 4155.000
801.9403, 4312.363
802.4224, 4492.474
802.9045, 4698.688
803.3867, 4911.235
803.8688, 5111.216
804.3509, 5306.287
804.8330, 5510.505
805.3151, 5725.946
805.7972, 5950.621
806.2794, 6173.367
806.7615, 6410.873
807.2436, 6679.938
807.7257, 6995.374
808.2078, 7309.312
808.6899, 7615.246
809.1721, 7920.451
809.6542, 8220.072
810.1363, 8513.869
810.6184, 8843.774
811.1005, 9216.750
811.5826, 9602.016
812.0648, 9965.866
812.5469, 10317.87
813.0290, 10684.23
813.5111, 11066.90
813.9932, 11476.06
814.4753, 11928.08
814.9575, 12398.78
815.4396, 12862.83
815.9217, 13323.67
816.4038, 13766.97
816.8859, 14183.04
817.3680, 14607.61
817.8502, 15102.38
818.3323, 15654.89
818.8144, 16160.26
819.2965, 16597.99
819.7786, 16972.66
820.2607, 17285.36
820.7429, 17530.55
821.2250, 17691.11
821.7071, 17741.01
822.1892, 17741.63
822.6713, 17733.53
823.1534, 17668.71
823.6356, 17473.21
824.1177, 17123.54
824.5998, 16755.13
825.0819, 16391.66
825.5640, 16012.77
826.0461, 15577.84
826.5283, 15103.27
827.0104, 14652.26
827.4925, 14246.45
827.9746, 13863.62
828.4567, 13494.32
828.9388, 13137.78
829.4210, 12787.72
829.9031, 12429.01
830.3852, 12102.34
830.8673, 11814.53
831.3494, 11553.24
831.8315, 11297.17
832.3137, 11046.21
832.7958, 10813.25
833.2779, 10605.79
833.7600, 10413.66
834.2421, 10225.35
834.7242, 10042.26
835.2064, 9867.061
835.6885, 9705.563
836.1706, 9547.419
836.6527, 9374.962
837.1348, 9208.164
837.6169, 9089.377
838.0991, 9043.203
838.5812, 8975.052
839.0633, 8858.920
839.5454, 8724.077
840.0275, 8623.792
840.5096, 8552.717
840.9918, 8487.899
841.4739, 8414.526
841.9560, 8352.996
842.4381, 8325.903
842.9202, 8320.864
843.4023, 8313.697
843.8845, 8320.397
844.3666, 8292.632
844.8487, 8201.917
845.3308, 8086.653
845.8129, 8035.345
846.2950, 8051.202
846.7772, 8065.574
847.2593, 8061.708
847.7414, 8042.764
848.2235, 7995.695
848.7056, 7937.896
849.1877, 7908.852
849.6699, 7955.427
850.1520, 7998.016
850.6341, 7998.571
851.1162, 7978.419
851.5983, 7981.218
852.0804, 8012.536
852.5626, 8051.491
853.0447, 8094.901
853.5268, 8143.205
854.0089, 8195.195
854.4910, 8252.008
854.9731, 8317.773
855.4553, 8393.454
855.9374, 8480.474
856.4195, 8575.493
856.9016, 8683.184
857.3837, 8809.877
857.8658, 8952.201
858.3480, 9123.624
858.8301, 9329.997
859.3122, 9564.690
859.7943, 9822.036
860.2764, 10099.81
860.7585, 10393.46
861.2407, 10693.21
861.7228, 11022.00
862.2049, 11413.33
862.6870, 11850.50
863.1691, 12310.68
863.6512, 12763.61
864.1334, 13258.34
864.6155, 13820.68
865.0976, 14430.93
865.5797, 15066.93
866.0618, 15727.64
866.5439, 16420.16
867.0261, 17143.72
867.5082, 17902.42
867.9903, 18726.18
868.4724, 19596.32
868.9545, 20474.14
869.4366, 21323.64
869.9188, 22205.54
870.4009, 23172.37
870.8830, 24172.39
871.3651, 25134.45
871.8472, 26039.81
872.3293, 26941.56
872.8115, 27857.74
873.2936, 28744.39
873.7757, 29552.25
874.2578, 30279.43
874.7399, 30926.77
875.2220, 31504.55
875.7042, 31959.90
876.1863, 32294.36
876.6684, 32459.49
877.1505, 32393.79
877.6326, 32050.35
878.1147, 31525.25
878.5969, 30825.07
879.0790, 29959.99
879.5611, 28918.47
880.0432, 27697.64
880.5253, 26471.05
881.0074, 25249.37
881.4896, 24037.43
881.9717, 22822.85
882.4538, 21612.08
882.9359, 20398.24
883.4180, 19173.05
883.9001, 18019.03
884.3823, 16969.54
884.8644, 15994.36
885.3465, 15074.92
885.8286, 14206.23
886.3107, 13388.44
886.7928, 12614.83
887.2750, 11911.46
887.7571, 11309.40
888.2392, 10781.02
888.7213, 10271.77
889.2034, 9772.974
889.6855, 9312.494
890.1677, 8924.686
890.6498, 8568.326
891.1319, 8218.054
891.6140, 7866.418
892.0961, 7560.929
892.5782, 7314.704
893.0604, 7088.668
893.5425, 6858.168
894.0246, 6629.429
894.5067, 6425.819
894.9888, 6246.288
895.4709, 6091.878
895.9531, 5984.511
896.4352, 5883.794
896.9173, 5760.184
897.3994, 5611.593
897.8815, 5484.927
898.3636, 5388.473
898.8458, 5294.758
899.3279, 5190.755
899.8100, 5080.354
900.2921, 4981.790
900.7742, 4895.130
901.2563, 4820.802
901.7385, 4779.996
902.2206, 4734.214
902.7027, 4645.272
903.1848, 4523.998
903.6669, 4424.192
904.1490, 4359.547
904.6312, 4303.500
905.1133, 4253.190
905.5954, 4204.677
906.0775, 4147.625
906.5596, 4082.060
907.0417, 4007.089
907.5239, 3913.993
908.0060, 3825.146
908.4881, 3763.166
908.9702, 3719.355
909.4523, 3676.356
909.9344, 3635.091
910.4166, 3586.572
910.8987, 3526.034
911.3808, 3461.541
911.8629, 3405.246
912.3450, 3356.890
912.8271, 3308.772
913.3093, 3258.479
913.7914, 3211.167
914.2735, 3173.186
914.7556, 3141.399
915.2377, 3110.931
915.7198, 3081.047
916.2020, 3052.574
916.6841, 3029.089
917.1662, 3003.536
917.6483, 2966.198
918.1304, 2915.907
918.6125, 2880.278
919.0947, 2862.640
919.5768, 2849.287
920.0589, 2832.348
920.5410, 2809.830
921.0231, 2774.399
921.5052, 2721.751
921.9874, 2685.388
922.4695, 2692.384
922.9516, 2702.181
923.4337, 2695.257
923.9158, 2671.427
924.3979, 2649.552
924.8801, 2629.537
925.3622, 2611.172
925.8443, 2593.674
926.3264, 2577.950
926.8085, 2566.602
927.2906, 2558.698
927.7728, 2548.639
928.2549, 2528.978
928.7370, 2512.915
929.2191, 2504.951
929.7012, 2503.800
930.1833, 2504.609
930.6655, 2507.467
931.1476, 2508.841
931.6297, 2504.908
932.1118, 2501.491
932.5939, 2510.667
933.0760, 2526.477
933.5582, 2534.818
934.0403, 2509.192
934.5224, 2503.502
935.0045, 2544.165
935.4866, 2601.103
935.9688, 2625.777
936.4509, 2615.480
936.9330, 2607.590
937.4151, 2607.498
937.8972, 2615.742
938.3793, 2637.327
938.8615, 2665.901
939.3436, 2693.722
939.8257, 2722.449
940.3078, 2740.691
940.7899, 2742.449
941.2720, 2735.232
941.7542, 2720.662
942.2363, 2696.806
942.7184, 2688.466
943.2005, 2697.398
943.6826, 2708.865
944.1647, 2710.805
944.6469, 2707.496
945.1290, 2708.910
945.6111, 2715.562
946.0932, 2702.804
946.5753, 2636.711
947.0575, 2578.436
947.5396, 2554.289
948.0217, 2559.306
948.5038, 2556.264
948.9860, 2545.192
949.4681, 2522.420
949.9502, 2478.979
950.4323, 2428.259
950.9144, 2383.443
951.3965, 2343.417
951.8787, 2304.903
952.3608, 2269.250
952.8429, 2232.518
953.3250, 2193.180
953.8071, 2152.824
954.2892, 2113.835
954.7714, 2076.202
955.2535, 2042.931
955.7356, 2015.522
956.2177, 1989.354
956.6998, 1953.456
957.1819, 1918.468
957.6641, 1898.680
958.1462, 1910.913
958.6283, 1910.864
959.1104, 1890.401
959.5925, 1865.503
960.0746, 1848.347
960.5568, 1838.937
961.0389, 1841.158
961.5210, 1855.258
962.0031, 1873.198
962.4852, 1891.312
962.9673, 1908.484
963.4495, 1921.314
963.9316, 1929.305
964.4137, 1946.990
964.8958, 1980.371
965.3779, 2012.393
965.8600, 2034.812
966.3422, 2051.526
966.8243, 2077.698
967.3064, 2111.195
967.7885, 2143.597
968.2706, 2160.004
968.7527, 2184.240
969.2349, 2236.871
969.7170, 2306.900
970.1991, 2368.411
970.6812, 2421.294
971.1633, 2463.468
971.6454, 2490.385
972.1276, 2514.987
972.6097, 2561.241
973.0918, 2619.357
973.5739, 2662.716
974.0560, 2682.511
974.5381, 2701.502
975.0203, 2733.138
975.5024, 2767.570
975.9845, 2795.334
976.4666, 2813.643
976.9487, 2842.884
977.4308, 2885.198
977.9130, 2927.199
978.3951, 2960.561
978.8772, 2985.959
979.3593, 2998.304
979.8414, 3001.049
980.3235, 3017.569
980.8057, 3078.943
981.2878, 3132.087
981.7699, 3154.263
982.2520, 3154.677
982.7341, 3167.461
983.2162, 3193.311
983.6984, 3212.069
984.1805, 3211.599
984.6626, 3211.961
985.1447, 3247.427
985.6268, 3297.263
986.1089, 3326.583
986.5911, 3303.339
987.0732, 3292.597
987.5553, 3300.032
988.0374, 3319.441
988.5195, 3346.786
989.0016, 3381.189
989.4838, 3413.990
989.9659, 3444.226
990.4480, 3474.323
990.9301, 3506.764
991.4122, 3539.689
991.8943, 3573.744
992.3765, 3608.921
992.8586, 3631.547
993.3407, 3630.278
993.8228, 3643.488
994.3049, 3695.109
994.7870, 3768.402
995.2692, 3816.562
995.7513, 3844.191
996.2334, 3867.253
996.7155, 3879.073
997.1976, 3903.819
997.6797, 3968.689
998.1619, 4047.322
998.6440, 4090.176
999.1261, 4085.003
999.6082, 4104.346
1000.090, 4162.152
1000.572, 4226.718
1001.055, 4268.418
1001.537, 4288.611
1002.019, 4285.946
1002.501, 4257.172
1002.983, 4226.679
1003.465, 4209.589
1003.947, 4185.264
1004.429, 4143.722
1004.911, 4085.249
1005.394, 4018.192
1005.876, 3941.585
1006.358, 3849.425
1006.840, 3731.217
1007.322, 3601.539
1007.804, 3467.611
1008.286, 3333.140
1008.768, 3213.310
1009.251, 3126.015
1009.733, 3016.430
1010.215, 2866.088
1010.697, 2707.905
1011.179, 2596.637
1011.661, 2521.751
1012.143, 2449.179
1012.625, 2371.767
1013.107, 2297.855
1013.590, 2229.826
1014.072, 2169.455
1014.554, 2118.257
1015.036, 2076.253
1015.518, 2041.566
1016.000, 2015.178
1016.482, 1989.616
1016.964, 1960.132
1017.447, 1928.083
1017.929, 1894.791
1018.411, 1860.641
1018.893, 1826.968
1019.375, 1790.399
1019.857, 1759.654
1020.339, 1737.686
1020.821, 1720.949
1021.303, 1700.282
1021.786, 1676.868
1022.268, 1667.808
1022.750, 1680.015
1023.232, 1690.730
1023.714, 1676.703
1024.196, 1653.403
1024.678, 1636.133
1025.160, 1627.970
1025.642, 1620.297
1026.125, 1613.014
1026.607, 1606.492
1027.089, 1601.775
1027.571, 1597.729
1028.053, 1591.603
1028.535, 1583.455
1029.017, 1573.285
1029.499, 1557.556
1029.982, 1543.925
1030.464, 1538.579
1030.946, 1535.398
1031.428, 1519.218
1031.910, 1488.649
1032.392, 1476.500
1032.874, 1493.208
1033.356, 1508.697
1033.839, 1481.942
1034.321, 1441.713
1034.803, 1422.871
1035.285, 1437.000
1035.767, 1446.303
1036.249, 1450.813
1036.731, 1445.510
1037.213, 1418.951
1037.695, 1382.301
1038.177, 1382.733
1038.660, 1412.432
1039.142, 1432.889
1039.624, 1413.333
1040.106, 1392.641
1040.588, 1389.872
1041.070, 1396.923
1041.552, 1400.840
1042.034, 1402.151
1042.517, 1395.714
1042.999, 1380.093
1043.481, 1360.083
1043.963, 1333.788
1044.445, 1309.906
1044.927, 1300.871
1045.409, 1310.042
1045.891, 1322.078
1046.374, 1341.461
1046.856, 1351.891
1047.338, 1343.368
1047.820, 1321.257
1048.302, 1302.304
1048.784, 1287.124
1049.266, 1278.492
1049.748, 1284.856
1050.230, 1290.125
1050.713, 1281.779
1051.195, 1270.212
1051.677, 1272.818
1052.159, 1294.458
1052.641, 1303.455
1053.123, 1296.470
1053.605, 1282.207
1054.087, 1262.532
1054.569, 1244.206
1055.052, 1237.523
1055.534, 1243.307
1056.016, 1246.275
1056.498, 1242.581
1056.980, 1237.597
1057.462, 1232.216
1057.944, 1227.409
1058.426, 1227.185
1058.909, 1230.138
1059.391, 1230.953
1059.873, 1227.179
1060.355, 1222.005
1060.837, 1214.882
1061.319, 1208.809
1061.801, 1206.760
1062.283, 1209.216
1062.766, 1214.011
1063.248, 1221.540
1063.730, 1227.352
1064.212, 1227.283
1064.694, 1224.169
1065.176, 1221.475
1065.658, 1218.747
1066.140, 1212.387
1066.622, 1199.397
1067.104, 1186.889
1067.587, 1174.561
1068.069, 1166.298
1068.551, 1174.500
1069.033, 1192.439
1069.515, 1199.265
1069.997, 1186.137
1070.479, 1180.372
1070.962, 1210.429
1071.444, 1237.823
1071.926, 1233.954
1072.408, 1199.855
1072.890, 1183.205
1073.372, 1183.765
1073.854, 1188.661
1074.336, 1191.334
1074.818, 1194.083
1075.301, 1200.423
1075.783, 1208.003
1076.265, 1211.194
1076.747, 1206.252
1077.229, 1206.247
1077.711, 1214.449
1078.193, 1221.225
1078.675, 1212.145
1079.157, 1194.943
1079.640, 1183.594
1080.122, 1179.545
1080.604, 1177.497
1081.086, 1173.258
1081.568, 1174.182
1082.050, 1186.082
1082.532, 1203.453
1083.014, 1206.623
1083.497, 1197.462
1083.979, 1187.378
1084.461, 1180.090
1084.943, 1173.056
1085.425, 1160.708
1085.907, 1150.255
1086.389, 1151.201
1086.871, 1168.072
1087.354, 1170.755
1087.836, 1157.510
1088.318, 1143.835
1088.800, 1140.015
1089.282, 1142.582
1089.764, 1147.823
1090.246, 1155.818
1090.728, 1168.087
1091.210, 1195.418
1091.693, 1206.948
1092.175, 1194.188
1092.657, 1172.468
1093.139, 1164.702
1093.621, 1165.404
1094.103, 1158.910
1094.585, 1142.158
1095.067, 1128.731
1095.549, 1127.767
1096.032, 1128.653
1096.514, 1123.856
1096.996, 1116.623
1097.478, 1130.366
1097.960, 1162.198
1098.442, 1182.625
1098.924, 1175.380
1099.406, 1160.703
1099.889, 1148.169
1100.371, 1139.771
1100.853, 1139.358
1101.335, 1151.404
1101.817, 1153.798
1102.299, 1145.292
1102.781, 1135.513
1103.263, 1131.615
1103.745, 1131.075
1104.228, 1130.144
1104.710, 1129.601
1105.192, 1133.535
1105.674, 1150.127
1106.156, 1156.971
1106.638, 1146.895
1107.120, 1133.149
1107.602, 1137.988
1108.084, 1154.008
1108.567, 1163.793
1109.049, 1164.309
1109.531, 1160.313
1110.013, 1143.499
1110.495, 1134.461
1110.977, 1147.141
1111.459, 1173.840
1111.941, 1174.152
1112.424, 1152.121
1112.906, 1140.019
1113.388, 1155.422
1113.870, 1172.059
1114.352, 1172.297
1114.834, 1164.717
1115.316, 1156.874
1115.798, 1145.882
1116.281, 1157.693
1116.763, 1194.642
1117.245, 1222.314
1117.727, 1202.997
1118.209, 1172.277
1118.691, 1169.365
1119.173, 1185.934
1119.655, 1192.250
1120.137, 1177.289
1120.620, 1171.672
1121.102, 1180.600
1121.584, 1194.461
1122.066, 1201.266
1122.548, 1205.127
1123.030, 1213.670
1123.512, 1227.589
1123.994, 1241.406
1124.476, 1261.548
1124.959, 1269.156
1125.441, 1253.186
1125.923, 1226.364
1126.405, 1221.568
1126.887, 1233.471
1127.369, 1244.702
1127.851, 1252.205
1128.333, 1253.317
1128.816, 1235.298
1129.298, 1221.231
1129.780, 1231.155
1130.262, 1262.899
1130.744, 1262.501
1131.226, 1233.269
1131.708, 1214.228
1132.190, 1239.414
1132.672, 1268.933
1133.155, 1277.953
1133.637, 1275.021
1134.119, 1275.007
1134.601, 1278.487
1135.083, 1283.211
1135.565, 1289.509
1136.047, 1293.190
1136.529, 1286.034
1137.011, 1278.316
1137.494, 1281.180
1137.976, 1293.420
1138.458, 1305.313
1138.940, 1318.702
1139.422, 1323.887
1139.904, 1317.856
1140.386, 1306.820
1140.868, 1292.163
1141.351, 1280.865
1141.833, 1288.304
1142.315, 1319.651
1142.797, 1334.880
1143.279, 1320.572
1143.761, 1306.754
1144.243, 1304.979
1144.725, 1311.213
1145.208, 1318.632
1145.690, 1326.196
1146.172, 1331.780
1146.654, 1335.962
1147.136, 1335.063
1147.618, 1326.942
1148.100, 1314.776
1148.582, 1296.043
1149.064, 1274.082
1149.547, 1275.269
1150.029, 1295.429
1150.511, 1311.834
1150.993, 1307.226
1151.475, 1302.720
1151.957, 1313.906
1152.439, 1325.027
1152.921, 1311.268
1153.403, 1274.033
1153.886, 1270.503
1154.368, 1303.999
1154.850, 1332.016
1155.332, 1319.160
1155.814, 1295.635
1156.296, 1272.767
1156.778, 1256.182
1157.260, 1264.668
1157.743, 1301.238
1158.225, 1319.144
1158.707, 1306.864
1159.189, 1290.218
1159.671, 1298.076
1160.153, 1309.888
1160.635, 1303.748
1161.117, 1278.610
1161.599, 1261.198
1162.082, 1252.108
1162.564, 1246.989
1163.046, 1245.934
1163.528, 1244.709
1164.010, 1234.223
1164.492, 1221.979
1164.974, 1219.892
1165.456, 1236.397
1165.938, 1238.177
1166.421, 1219.885
1166.903, 1206.246
1167.385, 1216.018
1167.867, 1235.330
1168.349, 1242.000
1168.831, 1240.614
1169.313, 1241.110
1169.795, 1252.040
1170.278, 1255.771
1170.760, 1251.605
1171.242, 1240.940
1171.724, 1218.297
1172.206, 1192.873
1172.688, 1186.467
1173.170, 1195.836
1173.652, 1202.737
1174.135, 1198.410
1174.617, 1194.567
1175.099, 1193.681
1175.581, 1192.649
1176.063, 1185.610
1176.545, 1175.509
1177.027, 1170.904
1177.509, 1172.374
1177.991, 1173.446
1178.474, 1175.453
1178.956, 1170.223
1179.438, 1150.730
1179.920, 1128.138
1180.402, 1131.410
1180.884, 1151.859
1181.366, 1159.216
1181.848, 1145.850
1182.330, 1132.021
1182.813, 1125.963
1183.295, 1123.024
1183.777, 1121.186
1184.259, 1120.671
1184.741, 1122.524
1185.223, 1126.491
1185.705, 1132.465
1186.187, 1143.688
1186.670, 1148.185
1187.152, 1132.004
1187.634, 1114.150
1188.116, 1106.628
1188.598, 1109.128
1189.080, 1123.752
1189.562, 1147.694
1190.044, 1161.496
1190.526, 1143.870
1191.009, 1129.255
1191.491, 1143.511
1191.973, 1162.238
1192.455, 1158.110
1192.937, 1130.391
1193.419, 1120.560
1193.901, 1128.059
1194.383, 1136.055
1194.865, 1128.933
1195.348, 1125.106
1195.830, 1142.045
1196.312, 1165.250
1196.794, 1171.725
1197.276, 1161.279
1197.758, 1150.213
1198.240, 1139.813
1198.722, 1130.956
1199.205, 1121.651
1199.687, 1116.738
1200.169, 1121.690
1200.651, 1132.903
1201.133, 1141.878
1201.615, 1148.556
1202.097, 1159.948
1202.579, 1178.293
1203.062, 1190.126
1203.544, 1176.928
1204.026, 1158.938
1204.508, 1150.370
1204.990, 1150.641
1205.472, 1160.543
1205.954, 1180.519
1206.436, 1192.829
1206.918, 1192.644
1207.401, 1186.079
1207.883, 1171.648
1208.365, 1158.688
1208.847, 1156.227
1209.329, 1163.365
1209.811, 1176.402
1210.293, 1195.519
1210.775, 1201.441
1211.257, 1180.818
1211.740, 1159.902
1212.222, 1164.452
1212.704, 1177.400
1213.186, 1180.404
1213.668, 1172.709
1214.150, 1166.721
1214.632, 1162.451
1215.114, 1161.697
1215.597, 1166.708
1216.079, 1173.469
1216.561, 1181.435
1217.043, 1187.712
1217.525, 1188.068
1218.007, 1181.347
1218.489, 1178.470
1218.971, 1179.515
1219.453, 1178.731
1219.936, 1170.041
1220.418, 1160.780
1220.900, 1156.047
1221.382, 1154.356
1221.864, 1152.644
1222.346, 1150.426
1222.828, 1151.631
1223.310, 1156.372
1223.792, 1163.880
1224.275, 1178.558
1224.757, 1190.847
1225.239, 1192.214
1225.721, 1186.871
1226.203, 1184.068
1226.685, 1184.144
1227.167, 1179.988
1227.649, 1170.785
1228.132, 1167.108
1228.614, 1187.551
1229.096, 1206.093
1229.578, 1199.145
1230.060, 1178.734
1230.542, 1171.026
1231.024, 1176.100
1231.506, 1192.833
1231.989, 1222.254
1232.471, 1243.802
1232.953, 1233.895
1233.435, 1217.805
1233.917, 1208.302
1234.399, 1206.350
1234.881, 1219.117
1235.363, 1245.259
1235.845, 1261.567
1236.328, 1263.210
1236.810, 1257.770
1237.292, 1242.143
1237.774, 1229.818
1238.256, 1231.461
1238.738, 1241.858
1239.220, 1243.257
1239.702, 1236.463
1240.184, 1227.569
1240.667, 1217.056
1241.149, 1209.874
1241.631, 1213.445
1242.113, 1216.479
1242.595, 1210.324
1243.077, 1199.049
1243.559, 1202.049
1244.041, 1216.331
1244.524, 1225.660
1245.006, 1224.641
1245.488, 1221.110
1245.970, 1216.912
1246.452, 1213.183
1246.934, 1210.064
1247.416, 1208.012
1247.898, 1212.119
1248.380, 1219.475
1248.863, 1217.621
1249.345, 1194.434
1249.827, 1182.407
1250.309, 1197.654
1250.791, 1221.132
1251.273, 1249.032
1251.755, 1274.423
1252.237, 1267.685
1252.719, 1238.153
1253.202, 1213.861
1253.684, 1207.771
1254.166, 1201.182
1254.648, 1190.090
1255.130, 1179.087
1255.612, 1170.880
1256.094, 1165.283
1256.576, 1164.079
1257.059, 1165.048
1257.541, 1162.158
1258.023, 1143.891
1258.505, 1138.988
1258.987, 1153.249
1259.469, 1170.119
1259.951, 1180.648
1260.433, 1183.233
1260.916, 1169.807
1261.398, 1146.499
1261.880, 1128.930
1262.362, 1123.565
1262.844, 1121.001
1263.326, 1122.339
1263.808, 1121.630
1264.290, 1109.237
1264.772, 1095.449
1265.255, 1096.035
1265.737, 1106.322
1266.219, 1112.401
1266.701, 1110.767
1267.183, 1112.515
1267.665, 1118.763
1268.147, 1123.727
1268.629, 1119.394
1269.111, 1114.226
1269.594, 1122.094
1270.076, 1134.220
1270.558, 1127.297
1271.040, 1096.312
1271.522, 1075.834
1272.004, 1068.549
1272.486, 1069.908
1272.968, 1084.569
1273.451, 1098.614
1273.933, 1103.286
1274.415, 1099.515
1274.897, 1086.496
1275.379, 1064.223
1275.861, 1055.123
1276.343, 1061.019
1276.825, 1068.089
1277.307, 1069.026
1277.790, 1066.597
1278.272, 1060.943
1278.754, 1053.747
1279.236, 1047.535
1279.718, 1042.124
1280.200, 1033.020
1280.682, 1020.771
1281.164, 1020.146
1281.646, 1057.532
1282.129, 1082.732
1282.611, 1078.095
1283.093, 1059.821
1283.575, 1050.877
1284.057, 1048.694
1284.539, 1046.007
1285.021, 1042.326
1285.503, 1040.840
1285.986, 1046.534
1286.468, 1048.128
1286.950, 1042.557
1287.432, 1034.463
1287.914, 1027.440
1288.396, 1023.630
1288.878, 1029.325
1289.360, 1043.817
1289.843, 1052.004
1290.325, 1051.741
1290.807, 1046.998
1291.289, 1036.852
1291.771, 1029.136
1292.253, 1038.172
1292.735, 1050.179
1293.217, 1047.229
1293.699, 1031.118
1294.182, 1028.310
1294.664, 1041.466
1295.146, 1047.119
1295.628, 1040.278
1296.110, 1031.525
1296.592, 1026.370
1297.074, 1026.648
1297.556, 1040.928
1298.038, 1060.482
1298.521, 1055.390
1299.003, 1028.558
1299.485, 1023.290
1299.967, 1048.509
1300.449, 1070.182
1300.931, 1068.240
1301.413, 1054.104
1301.895, 1028.306
1302.378, 1000.298
##END=



