##NAMES=Grossular
##RRUFFID=R100146
##IDEAL CHEMISTRY=Ca_3_Al_2_(SiO_4_)_3_
##LOCALITY=Sri Lanka
##OWNER=RRUFF
##SOURCE=William W. Pinch
##DESCRIPTION=Red cut gemstone
##STATUS=The identification of this mineral has been confirmed only by single crystal X-ray diffraction.
##URL=rruff.info/R100146
90.60547, 105.6610
91.08759, 110.6960
91.56970, 114.2543
92.05182, 113.3015
92.53394, 109.7969
93.01605, 105.8612
93.49817, 102.3969
93.98029, 99.51931
94.46240, 97.26138
94.94452, 96.36815
95.42664, 95.28368
95.90874, 92.95953
96.39086, 89.50564
96.87298, 85.97431
97.35509, 83.53063
97.83721, 82.42004
98.31933, 81.16576
98.80145, 79.62280
99.28356, 77.94280
99.76568, 76.11628
100.2478, 74.15346
100.7299, 72.23567
101.2120, 70.84267
101.6941, 70.53576
102.1763, 70.13769
102.6584, 69.58482
103.1405, 68.90234
103.6226, 68.16371
104.1047, 67.42374
104.5868, 66.63238
105.0690, 65.47835
105.5511, 63.31251
106.0332, 61.45398
106.5153, 60.69448
106.9974, 60.93575
107.4795, 61.29729
107.9617, 61.20565
108.4438, 60.70721
108.9259, 60.04470
109.4080, 58.98238
109.8901, 57.85822
110.3722, 57.19875
110.8544, 57.16664
111.3365, 57.23381
111.8186, 57.12763
112.3007, 56.86444
112.7828, 56.44733
113.2649, 55.71687
113.7471, 54.71879
114.2292, 54.11868
114.7113, 54.24557
115.1934, 54.50008
115.6755, 54.75478
116.1576, 54.95137
116.6397, 55.00243
117.1219, 54.77602
117.6040, 54.13173
118.0861, 53.63494
118.5682, 53.26496
119.0503, 53.02056
119.5324, 52.88605
120.0146, 52.86456
120.4967, 52.99797
120.9788, 53.37786
121.4609, 54.57458
121.9430, 55.10804
122.4251, 54.35038
122.9073, 53.13345
123.3894, 52.51131
123.8715, 52.94721
124.3536, 53.95996
124.8357, 54.27589
125.3178, 53.66349
125.8000, 53.06732
126.2821, 52.83901
126.7642, 52.91738
127.2463, 53.08203
127.7284, 53.24836
128.2105, 53.44540
128.6927, 53.74201
129.1748, 54.24168
129.6569, 54.67330
130.1390, 54.72926
130.6211, 54.35264
131.1032, 53.94155
131.5854, 53.76234
132.0675, 53.60707
132.5496, 53.19350
133.0317, 52.27369
133.5138, 51.23211
133.9959, 51.07937
134.4781, 52.57874
134.9602, 53.76664
135.4423, 53.96267
135.9244, 53.59105
136.4065, 53.21574
136.8886, 53.19588
137.3708, 53.49413
137.8529, 53.59201
138.3350, 53.30843
138.8171, 52.99095
139.2992, 52.63664
139.7813, 52.30397
140.2635, 52.09072
140.7456, 52.08693
141.2277, 52.31612
141.7098, 52.58577
142.1919, 53.14594
142.6740, 53.53943
143.1561, 53.41793
143.6383, 52.80047
144.1204, 52.05724
144.6025, 51.51377
145.0846, 51.19311
145.5667, 51.18370
146.0488, 51.60398
146.5310, 52.28801
147.0131, 53.18320
147.4952, 54.34888
147.9773, 55.38111
148.4594, 55.73481
148.9415, 55.52663
149.4237, 55.12196
149.9058, 54.41886
150.3879, 53.59807
150.8700, 53.22258
151.3521, 53.60872
151.8342, 54.16423
152.3164, 54.35687
152.7985, 54.22688
153.2806, 54.08765
153.7627, 54.20270
154.2448, 54.57830
154.7269, 54.88433
155.2091, 54.97731
155.6912, 55.06275
156.1733, 55.16163
156.6554, 55.30878
157.1375, 55.63931
157.6196, 56.44885
158.1018, 58.09674
158.5839, 59.14317
159.0660, 59.09898
159.5481, 58.79748
160.0302, 58.73774
160.5123, 59.04628
160.9945, 59.52303
161.4766, 59.80462
161.9587, 59.63899
162.4408, 59.65831
162.9229, 59.98290
163.4050, 60.42272
163.8871, 60.80971
164.3693, 61.08174
164.8514, 61.27681
165.3335, 61.47929
165.8156, 61.50885
166.2977, 61.79730
166.7798, 62.62487
167.2620, 63.70127
167.7441, 64.50864
168.2262, 64.75246
168.7083, 64.75777
169.1904, 65.44273
169.6725, 66.84293
170.1547, 68.62151
170.6368, 70.58379
171.1189, 72.79787
171.6010, 75.43900
172.0831, 78.40220
172.5652, 82.10072
173.0474, 86.97281
173.5295, 92.94649
174.0116, 100.1680
174.4937, 108.6506
174.9758, 118.4060
175.4579, 129.6398
175.9401, 143.5517
176.4222, 158.5708
176.9043, 173.5063
177.3864, 188.9621
177.8685, 202.4851
178.3506, 211.4454
178.8328, 215.9697
179.3149, 215.1193
179.7970, 205.9325
180.2791, 192.7423
180.7612, 178.5674
181.2433, 164.2139
181.7255, 150.1713
182.2076, 137.4104
182.6897, 126.0935
183.1718, 115.9776
183.6539, 106.6344
184.1360, 98.31884
184.6181, 91.45781
185.1003, 86.28063
185.5824, 82.48161
186.0645, 79.02593
186.5466, 75.80001
187.0287, 73.12952
187.5108, 71.27284
187.9930, 69.93459
188.4751, 68.77280
188.9572, 67.60543
189.4393, 66.45385
189.9214, 65.45647
190.4035, 64.80803
190.8857, 64.10075
191.3678, 63.15665
191.8499, 62.11404
192.3320, 61.25389
192.8141, 60.78265
193.2962, 60.60894
193.7784, 59.98850
194.2605, 58.34276
194.7426, 56.96973
195.2247, 56.54167
195.7068, 56.78698
196.1889, 56.88043
196.6711, 56.26255
197.1532, 55.10700
197.6353, 54.35728
198.1174, 54.17360
198.5995, 54.19385
199.0816, 54.42000
199.5638, 54.78157
200.0459, 54.75678
200.5280, 53.72681
201.0101, 52.18452
201.4922, 51.56150
201.9743, 52.48321
202.4565, 53.75274
202.9386, 54.43747
203.4207, 54.53247
203.9028, 54.30816
204.3849, 53.64487
204.8670, 52.83115
205.3492, 52.30696
205.8313, 52.26921
206.3134, 52.39534
206.7955, 52.17852
207.2776, 51.47209
207.7597, 51.11106
208.2419, 51.93282
208.7240, 53.12844
209.2061, 53.90305
209.6882, 53.93504
210.1703, 53.58098
210.6524, 53.44498
211.1346, 53.60138
211.6167, 53.79210
212.0988, 53.98639
212.5809, 54.14953
213.0630, 54.19615
213.5451, 54.06201
214.0273, 53.91529
214.5094, 54.17822
214.9915, 55.14883
215.4736, 56.00323
215.9557, 56.75434
216.4378, 57.26262
216.9200, 57.29557
217.4021, 56.73233
217.8842, 55.84760
218.3663, 55.41671
218.8484, 55.70551
219.3305, 56.11970
219.8127, 56.64600
220.2948, 57.22556
220.7769, 57.77362
221.2590, 58.25133
221.7411, 58.73421
222.2232, 59.45439
222.7054, 60.94798
223.1875, 62.02336
223.6696, 62.34227
224.1517, 62.30700
224.6338, 62.31703
225.1159, 62.54813
225.5980, 63.01230
226.0802, 63.75629
226.5623, 64.81174
227.0444, 66.12737
227.5265, 67.91052
228.0086, 69.89528
228.4907, 71.67184
228.9729, 73.05398
229.4550, 74.26365
229.9371, 75.87743
230.4192, 78.18849
230.9013, 80.41734
231.3834, 82.21970
231.8656, 83.91376
232.3477, 85.93510
232.8298, 88.43723
233.3119, 91.38323
233.7940, 94.85788
234.2761, 99.10454
234.7583, 103.1445
235.2404, 106.6522
235.7225, 109.8008
236.2046, 112.9361
236.6867, 116.2151
237.1688, 119.4495
237.6510, 122.4104
238.1331, 125.1833
238.6152, 127.4732
239.0973, 129.1161
239.5794, 130.2101
240.0615, 130.7552
240.5437, 130.4402
241.0258, 130.2476
241.5079, 131.3953
241.9900, 133.7681
242.4721, 137.0654
242.9542, 141.3394
243.4364, 146.4437
243.9185, 152.2468
244.4006, 159.2418
244.8827, 165.9323
245.3648, 171.7389
245.8469, 176.5700
246.3290, 178.2564
246.8112, 175.2894
247.2933, 168.3405
247.7754, 158.9353
248.2575, 146.1207
248.7396, 132.7218
249.2217, 120.4369
249.7039, 109.2680
250.1860, 99.51575
250.6681, 91.41090
251.1502, 84.88258
251.6323, 79.63741
252.1144, 76.07609
252.5966, 73.27927
253.0787, 70.53624
253.5608, 68.01771
254.0429, 66.11154
254.5250, 65.27950
255.0071, 65.25343
255.4893, 64.96626
255.9714, 64.21746
256.4535, 63.52927
256.9356, 63.10760
257.4177, 62.89403
257.8998, 62.78499
258.3820, 62.69984
258.8641, 62.69143
259.3462, 63.00512
259.8283, 63.98249
260.3104, 64.70731
260.7925, 64.69052
261.2747, 64.34377
261.7568, 64.23028
262.2389, 64.66800
262.7210, 65.43978
263.2031, 65.86515
263.6852, 65.53075
264.1674, 65.57738
264.6495, 66.41761
265.1316, 67.64749
265.6137, 68.80533
266.0958, 69.67969
266.5779, 70.48260
267.0601, 71.72341
267.5422, 73.55845
268.0243, 75.59109
268.5064, 77.77110
268.9885, 80.07655
269.4706, 82.42103
269.9528, 84.78436
270.4349, 87.31764
270.9170, 90.30390
271.3991, 93.73389
271.8812, 97.67041
272.3633, 102.0788
272.8455, 106.9027
273.3276, 112.1438
273.8097, 117.7877
274.2918, 123.6933
274.7739, 129.7459
275.2560, 136.4051
275.7382, 142.1724
276.2202, 147.9871
276.7024, 152.4639
277.1845, 154.8081
277.6666, 154.8881
278.1487, 153.0092
278.6308, 149.4724
279.1129, 144.1027
279.5951, 137.5467
280.0772, 128.7731
280.5593, 119.9057
281.0414, 111.7822
281.5235, 104.5745
282.0056, 98.22124
282.4878, 92.71071
282.9699, 88.07463
283.4520, 83.90872
283.9341, 79.91348
284.4162, 76.56303
284.8983, 74.30417
285.3805, 72.89572
285.8626, 71.71604
286.3447, 70.27943
286.8268, 68.60040
287.3089, 67.23750
287.7910, 66.50954
288.2732, 65.73170
288.7553, 64.67243
289.2374, 63.42701
289.7195, 62.18149
290.2016, 61.03452
290.6837, 60.00531
291.1659, 59.18911
291.6480, 58.87911
292.1301, 58.44280
292.6122, 57.59702
293.0943, 56.60802
293.5764, 55.87353
294.0586, 55.57775
294.5407, 55.57177
295.0228, 55.45152
295.5049, 55.25159
295.9870, 54.87877
296.4691, 54.13734
296.9513, 53.30400
297.4334, 52.65369
297.9155, 52.28045
298.3976, 52.12452
298.8797, 52.08683
299.3618, 52.14150
299.8440, 52.41018
300.3261, 53.02915
300.8082, 53.76874
301.2903, 54.48616
301.7724, 55.13778
302.2545, 55.71246
302.7367, 56.19317
303.2188, 56.54918
303.7009, 56.91000
304.1830, 57.14673
304.6651, 57.48997
305.1472, 58.17247
305.6294, 59.14353
306.1115, 60.08928
306.5936, 60.70319
307.0757, 60.95437
307.5578, 61.59678
308.0399, 62.83768
308.5221, 64.18613
309.0042, 65.38068
309.4863, 66.50105
309.9684, 67.82221
310.4505, 69.56564
310.9326, 71.62062
311.4148, 73.13631
311.8969, 73.51156
312.3790, 74.13615
312.8611, 75.64874
313.3432, 77.57033
313.8253, 79.12886
314.3075, 79.96122
314.7896, 80.27763
315.2717, 80.61171
315.7538, 81.24308
316.2359, 81.48335
316.7180, 81.14417
317.2001, 80.44565
317.6823, 79.58633
318.1644, 78.62626
318.6465, 77.58395
319.1286, 76.44572
319.6107, 74.99984
320.0928, 74.05554
320.5750, 73.74911
321.0571, 73.82587
321.5392, 74.15574
322.0213, 74.69226
322.5034, 75.37957
322.9855, 76.16824
323.4677, 77.07972
323.9498, 77.99240
324.4319, 78.60986
324.9140, 79.49672
325.3961, 81.04912
325.8782, 83.13818
326.3604, 85.39880
326.8425, 87.62702
327.3246, 89.78819
327.8067, 91.50789
328.2888, 92.87711
328.7709, 93.78444
329.2531, 94.11496
329.7352, 93.97332
330.2173, 93.46244
330.6994, 92.61636
331.1815, 91.55650
331.6636, 90.60181
332.1458, 89.75230
332.6279, 89.02373
333.1100, 88.60862
333.5921, 88.22430
334.0742, 87.38230
334.5563, 86.01347
335.0385, 84.77543
335.5206, 84.69506
336.0027, 86.44250
336.4848, 87.67082
336.9669, 87.98083
337.4490, 88.15472
337.9312, 88.72622
338.4133, 89.69884
338.8954, 90.71695
339.3775, 91.43242
339.8596, 91.80461
340.3417, 92.40581
340.8239, 92.90793
341.3060, 93.92783
341.7881, 96.08715
342.2702, 98.92293
342.7523, 101.4439
343.2344, 102.9893
343.7166, 103.8378
344.1987, 105.3340
344.6808, 107.6609
345.1629, 110.5272
345.6450, 114.3110
346.1271, 118.4465
346.6093, 122.3207
347.0914, 125.6851
347.5735, 128.7748
348.0556, 131.9929
348.5377, 135.6894
349.0198, 138.8735
349.5020, 140.9172
349.9841, 142.9869
350.4662, 145.6898
350.9483, 149.1760
351.4304, 153.4461
351.9125, 158.5754
352.3947, 164.6969
352.8768, 170.7362
353.3589, 176.0385
353.8410, 181.8891
354.3231, 188.7085
354.8052, 196.4273
355.2874, 204.8808
355.7695, 213.9639
356.2516, 223.6211
356.7337, 233.7293
357.2158, 243.9355
357.6979, 255.1987
358.1800, 267.3575
358.6621, 280.7203
359.1443, 295.4244
359.6264, 311.6014
360.1085, 329.3916
360.5906, 349.1768
361.0727, 370.9806
361.5548, 394.9183
362.0370, 420.1559
362.5191, 447.9031
363.0012, 478.8181
363.4833, 513.2337
363.9654, 550.7493
364.4475, 591.6020
364.9297, 635.9590
365.4118, 680.9487
365.8939, 727.7581
366.3760, 773.8453
366.8581, 818.7180
367.3402, 861.9539
367.8224, 903.0635
368.3045, 941.8603
368.7866, 977.9200
369.2687, 1009.452
369.7508, 1034.350
370.2329, 1059.154
370.7151, 1087.622
371.1972, 1116.431
371.6793, 1143.676
372.1614, 1168.986
372.6435, 1189.576
373.1256, 1204.303
373.6078, 1213.859
374.0899, 1207.924
374.5720, 1181.780
375.0541, 1139.773
375.5362, 1083.319
376.0183, 1013.359
376.5005, 937.7824
376.9826, 857.3360
377.4647, 774.5773
377.9468, 698.0118
378.4289, 627.7991
378.9110, 564.8199
379.3932, 510.5210
379.8753, 463.3695
380.3574, 421.5944
380.8395, 385.3095
381.3216, 353.4966
381.8037, 325.5140
382.2859, 301.3236
382.7680, 279.8749
383.2501, 261.1638
383.7322, 244.9460
384.2143, 230.1482
384.6964, 216.8038
385.1786, 204.9888
385.6607, 195.4613
386.1428, 187.6290
386.6249, 179.7695
387.1070, 171.3856
387.5891, 163.2819
388.0713, 156.4315
388.5534, 150.7221
389.0355, 145.6124
389.5176, 141.1598
389.9997, 137.1555
390.4818, 133.3883
390.9640, 129.8378
391.4461, 126.6707
391.9282, 124.0774
392.4103, 121.9675
392.8924, 119.7586
393.3745, 116.9742
393.8567, 114.6103
394.3388, 113.4110
394.8209, 112.8707
395.3030, 111.9287
395.7851, 110.1279
396.2672, 108.0800
396.7494, 106.8512
397.2315, 106.7040
397.7136, 106.8341
398.1957, 107.4940
398.6778, 108.2286
399.1599, 108.6415
399.6420, 108.7132
400.1241, 108.6875
400.6063, 108.7804
401.0884, 108.9981
401.5705, 109.1427
402.0526, 109.0723
402.5347, 109.0967
403.0168, 109.0432
403.4990, 109.2028
403.9811, 110.1143
404.4632, 112.0409
404.9453, 114.5993
405.4274, 116.8564
405.9095, 118.5480
406.3917, 120.3550
406.8738, 121.8377
407.3559, 123.7463
407.8380, 126.5975
408.3201, 130.4585
408.8022, 135.0903
409.2844, 140.2731
409.7665, 145.9626
410.2486, 152.6422
410.7307, 160.3324
411.2128, 169.1104
411.6949, 179.5444
412.1771, 190.9500
412.6592, 202.5030
413.1413, 213.9481
413.6234, 224.8057
414.1055, 234.5167
414.5876, 244.0412
415.0698, 249.5312
415.5519, 249.2838
416.0340, 245.1293
416.5161, 237.4626
416.9982, 226.4632
417.4803, 213.5508
417.9625, 198.8253
418.4446, 182.7773
418.9267, 168.3739
419.4088, 156.0995
419.8909, 145.1670
420.3730, 135.2098
420.8552, 126.1612
421.3373, 118.0865
421.8194, 110.9396
422.3015, 104.8420
422.7836, 100.3337
423.2657, 97.40328
423.7479, 94.35282
424.2300, 90.23689
424.7121, 85.91964
425.1942, 82.77434
425.6763, 81.01456
426.1584, 79.30840
426.6406, 76.96191
427.1227, 74.33078
427.6048, 72.04395
428.0869, 70.20045
428.5690, 68.56009
429.0511, 66.96738
429.5333, 65.41068
430.0154, 63.73598
430.4975, 61.58197
430.9796, 59.64641
431.4617, 58.38611
431.9438, 57.66749
432.4260, 57.17332
432.9081, 56.79272
433.3902, 56.41616
433.8723, 55.77307
434.3544, 54.59179
434.8365, 53.59197
435.3187, 52.85238
435.8008, 52.26481
436.2829, 51.80956
436.7650, 51.44501
437.2471, 51.02710
437.7292, 50.38285
438.2114, 49.49474
438.6935, 48.99160
439.1756, 49.44840
439.6577, 49.65270
440.1398, 49.10233
440.6219, 48.20929
441.1040, 47.56234
441.5862, 47.41070
442.0683, 47.49475
442.5504, 47.33324
443.0325, 46.82495
443.5146, 46.38105
443.9967, 46.01726
444.4789, 45.74422
444.9610, 45.60108
445.4431, 45.56642
445.9252, 45.57247
446.4073, 45.62086
446.8894, 45.66524
447.3716, 45.46162
447.8537, 44.83098
448.3358, 44.40183
448.8179, 44.65684
449.3000, 45.16850
449.7821, 45.42229
450.2643, 45.23281
450.7464, 45.16492
451.2285, 45.93035
451.7106, 47.31859
452.1927, 48.20586
452.6748, 48.24104
453.1570, 47.98861
453.6391, 47.98738
454.1212, 48.18402
454.6033, 48.35639
455.0854, 48.40606
455.5675, 48.44453
456.0497, 48.63019
456.5318, 48.92524
457.0139, 49.08146
457.4960, 48.93505
457.9781, 48.61493
458.4602, 48.48970
458.9424, 48.70870
459.4245, 48.77984
459.9066, 48.49332
460.3887, 48.08754
460.8708, 47.78424
461.3529, 47.62453
461.8351, 47.56501
462.3172, 47.57769
462.7993, 47.66627
463.2814, 47.70712
463.7635, 47.56334
464.2456, 47.53121
464.7278, 47.79790
465.2099, 48.18407
465.6920, 48.43131
466.1741, 48.44269
466.6562, 48.33901
467.1383, 48.31774
467.6205, 48.39582
468.1026, 48.50429
468.5847, 48.50276
469.0668, 48.65939
469.5489, 49.34039
470.0310, 50.30539
470.5132, 50.85958
470.9953, 50.33923
471.4774, 49.35222
471.9595, 49.56925
472.4416, 51.29054
472.9237, 53.09617
473.4059, 54.50795
473.8880, 55.76392
474.3701, 57.18330
474.8522, 58.81149
475.3343, 60.07745
475.8164, 60.43024
476.2986, 60.15475
476.7807, 59.91315
477.2628, 59.76247
477.7449, 59.75337
478.2270, 60.15765
478.7091, 60.74469
479.1913, 60.61489
479.6734, 59.49356
480.1555, 57.90409
480.6376, 55.67680
481.1197, 53.22063
481.6018, 51.45377
482.0839, 50.69632
482.5660, 50.43212
483.0482, 49.93003
483.5303, 49.03518
484.0124, 48.51190
484.4945, 48.70965
484.9766, 48.92765
485.4587, 48.75422
485.9409, 48.29193
486.4230, 47.84510
486.9051, 47.58055
487.3872, 47.45913
487.8693, 47.37372
488.3514, 47.33715
488.8336, 47.31357
489.3157, 47.26620
489.7978, 47.25526
490.2799, 47.25056
490.7620, 47.29970
491.2441, 47.57137
491.7263, 48.28887
492.2084, 49.33540
492.6905, 50.12603
493.1726, 50.56033
493.6547, 50.97668
494.1368, 51.57771
494.6190, 52.19580
495.1011, 52.65612
495.5832, 52.92121
496.0653, 53.08369
496.5474, 53.03366
497.0295, 52.92725
497.5117, 53.33815
497.9938, 54.46332
498.4759, 55.62463
498.9580, 56.15512
499.4401, 56.21885
499.9222, 56.70425
500.4044, 58.04474
500.8865, 59.42584
501.3686, 60.25020
501.8507, 60.83867
502.3328, 61.85499
502.8149, 63.52226
503.2971, 65.67271
503.7792, 68.09286
504.2613, 70.88637
504.7434, 73.67248
505.2255, 76.49156
505.7076, 79.26357
506.1898, 82.17310
506.6719, 84.98701
507.1540, 87.33440
507.6361, 89.04298
508.1182, 89.98298
508.6003, 89.80569
509.0825, 88.32127
509.5646, 86.21769
510.0467, 83.19851
510.5288, 79.89146
511.0109, 76.39556
511.4930, 72.85816
511.9752, 69.62296
512.4573, 66.87861
512.9394, 64.59361
513.4215, 62.74577
513.9036, 61.37374
514.3857, 60.14048
514.8679, 58.81240
515.3500, 57.65056
515.8321, 57.01237
516.3142, 56.95331
516.7963, 56.96960
517.2784, 56.61205
517.7606, 56.31000
518.2427, 56.85440
518.7248, 58.26167
519.2069, 59.55391
519.6890, 60.00083
520.1711, 59.83680
520.6533, 60.22439
521.1354, 61.07021
521.6175, 62.48584
522.0996, 65.03824
522.5817, 67.85109
523.0638, 69.99313
523.5460, 71.34023
524.0281, 72.43948
524.5102, 73.85401
524.9923, 75.55485
525.4744, 76.61755
525.9565, 76.94737
526.4387, 76.67551
526.9208, 75.67979
527.4029, 74.21229
527.8850, 72.44579
528.3671, 70.44495
528.8492, 68.39706
529.3314, 66.23013
529.8135, 64.04789
530.2956, 62.97900
530.7777, 63.50530
531.2598, 64.28656
531.7419, 64.33080
532.2241, 64.11147
532.7062, 64.43625
533.1883, 65.59805
533.6704, 67.02444
534.1525, 68.38703
534.6346, 69.71824
535.1168, 71.04710
535.5989, 72.35925
536.0810, 73.87853
536.5631, 75.77512
537.0452, 78.07525
537.5273, 80.94217
538.0095, 83.97092
538.4916, 87.96363
538.9737, 93.62698
539.4558, 100.3214
539.9379, 106.8293
540.4200, 112.8276
540.9022, 119.5426
541.3843, 128.5657
541.8664, 139.9732
542.3485, 153.2921
542.8306, 168.9302
543.3127, 186.1288
543.7948, 204.7663
544.2769, 224.7436
544.7590, 246.3240
545.2411, 269.9072
545.7233, 293.2756
546.2054, 314.7516
546.6875, 334.1383
547.1696, 347.5614
547.6517, 354.9999
548.1339, 355.3168
548.6160, 345.6483
549.0981, 327.9507
549.5802, 306.0034
550.0623, 277.5260
550.5444, 248.2549
551.0266, 220.5385
551.5087, 194.8372
551.9908, 172.1215
552.4729, 152.6964
552.9550, 136.1145
553.4371, 121.9661
553.9193, 110.3897
554.4014, 100.3956
554.8835, 91.94009
555.3656, 84.85799
555.8477, 79.45216
556.3298, 75.21022
556.8120, 71.56299
557.2941, 68.26431
557.7762, 65.34872
558.2583, 62.88873
558.7404, 60.93749
559.2225, 59.09414
559.7047, 57.29366
560.1868, 55.71154
560.6689, 54.38934
561.1510, 53.31787
561.6331, 52.48647
562.1152, 51.92991
562.5974, 51.51657
563.0795, 51.20093
563.5616, 50.93791
564.0437, 50.53884
564.5258, 49.93890
565.0079, 49.31036
565.4901, 48.74974
565.9722, 48.28459
566.4543, 48.11458
566.9364, 48.35845
567.4185, 48.75744
567.9006, 49.46950
568.3828, 50.17944
568.8649, 50.40316
569.3470, 50.03830
569.8291, 49.39846
570.3112, 48.78256
570.7933, 48.16430
571.2755, 48.01883
571.7576, 48.70133
572.2397, 49.43345
572.7218, 50.24863
573.2039, 50.90663
573.6860, 51.03978
574.1682, 50.57394
574.6503, 50.05542
575.1324, 50.09980
575.6145, 50.55014
576.0966, 50.70436
576.5787, 50.49171
577.0609, 50.08366
577.5430, 49.47248
578.0251, 48.77072
578.5072, 48.23098
578.9893, 47.83686
579.4714, 47.65330
579.9536, 47.79174
580.4357, 48.10942
580.9178, 48.51992
581.3999, 48.96679
581.8820, 49.23689
582.3641, 49.13145
582.8463, 48.74146
583.3284, 48.58655
583.8105, 48.55344
584.2926, 48.95766
584.7747, 50.12673
585.2568, 51.48768
585.7390, 52.56569
586.2211, 53.38291
586.7032, 54.32056
587.1853, 55.74104
587.6674, 57.41134
588.1495, 58.62546
588.6317, 59.30188
589.1138, 60.07281
589.5959, 61.41763
590.0780, 62.67369
590.5601, 63.09720
591.0422, 62.70436
591.5244, 61.92334
592.0065, 60.81395
592.4886, 59.42639
592.9707, 57.64170
593.4528, 55.60631
593.9349, 53.76537
594.4171, 52.32423
594.8992, 51.14905
595.3813, 49.98186
595.8634, 48.69093
596.3455, 47.81614
596.8276, 47.72107
597.3098, 47.59957
597.7919, 46.99296
598.2740, 46.15721
598.7561, 45.57260
599.2382, 45.44082
599.7203, 45.48455
600.2025, 45.24840
600.6846, 44.74868
601.1667, 44.65166
601.6488, 45.12850
602.1309, 45.80462
602.6130, 46.65665
603.0952, 47.49577
603.5773, 47.86070
604.0594, 47.49174
604.5415, 47.03048
605.0236, 46.73254
605.5057, 46.57759
605.9879, 46.57653
606.4700, 46.71475
606.9521, 46.88128
607.4342, 47.00283
607.9163, 47.06470
608.3984, 46.95246
608.8806, 46.58362
609.3627, 46.13982
609.8448, 45.34193
610.3269, 44.69558
610.8090, 44.71331
611.2911, 45.31421
611.7733, 45.95646
612.2554, 46.32379
612.7375, 46.42600
613.2196, 46.16629
613.7017, 45.48336
614.1838, 45.09930
614.6660, 45.34963
615.1481, 45.84351
615.6302, 46.17663
616.1123, 46.35879
616.5944, 46.40398
617.0765, 46.03643
617.5587, 45.79594
618.0408, 46.08812
618.5229, 46.78234
619.0050, 47.62421
619.4871, 48.51872
619.9692, 49.37429
620.4514, 50.03166
620.9335, 50.43249
621.4156, 51.10117
621.8977, 52.22349
622.3798, 53.40951
622.8619, 54.55229
623.3441, 55.70483
623.8262, 56.92971
624.3083, 58.23637
624.7904, 59.58348
625.2725, 60.91300
625.7546, 62.25220
626.2367, 63.85035
626.7188, 65.79468
627.2009, 67.08866
627.6830, 67.01371
628.1652, 66.12875
628.6473, 65.81200
629.1294, 66.48471
629.6115, 66.31486
630.0936, 64.60389
630.5757, 62.33241
631.0579, 60.03469
631.5400, 57.78643
632.0221, 55.55627
632.5042, 53.33821
632.9863, 51.14138
633.4684, 48.96484
633.9506, 46.75931
634.4327, 44.76661
634.9148, 42.96424
635.3969, 41.45250
635.8790, 40.28891
636.3611, 39.41548
636.8433, 38.77411
637.3254, 38.42835
637.8075, 38.06850
638.2896, 37.43004
638.7717, 36.63711
639.2538, 35.90498
639.7360, 35.26837
640.2181, 34.71611
640.7002, 34.27370
641.1823, 33.88190
641.6644, 33.28990
642.1465, 32.05600
642.6287, 31.24606
643.1108, 31.13632
643.5929, 31.22577
644.0750, 31.28354
644.5571, 31.24490
645.0392, 31.03035
645.5214, 30.55245
646.0035, 30.02611
646.4856, 29.87034
646.9677, 30.08327
647.4498, 30.15321
647.9319, 29.86086
648.4141, 29.68698
648.8962, 30.28312
649.3783, 31.35838
649.8604, 31.77741
650.3425, 30.96570
650.8246, 30.14868
651.3068, 29.79165
651.7889, 29.70189
652.2710, 29.64656
652.7531, 29.59861
653.2352, 29.70524
653.7173, 30.12789
654.1995, 30.71941
654.6816, 30.80895
655.1637, 30.09839
655.6458, 29.59926
656.1279, 29.85187
656.6100, 30.03581
657.0922, 29.49539
657.5743, 28.45220
658.0564, 27.72820
658.5385, 27.79310
659.0206, 28.07875
659.5027, 28.08999
659.9849, 27.88596
660.4670, 27.60337
660.9491, 27.27038
661.4312, 26.95453
661.9133, 26.68866
662.3954, 26.48636
662.8776, 26.54239
663.3597, 27.37865
663.8418, 27.78425
664.3239, 27.35414
664.8060, 26.66813
665.2881, 26.16706
665.7703, 25.87221
666.2524, 25.57564
666.7345, 25.10053
667.2166, 24.61410
667.6987, 24.42938
668.1808, 24.54119
668.6630, 24.80226
669.1451, 25.27028
669.6272, 25.65705
670.1093, 25.63967
670.5914, 25.24435
671.0735, 24.90972
671.5557, 24.74175
672.0378, 24.51358
672.5199, 24.00557
673.0020, 23.48853
673.4841, 23.26831
673.9662, 23.36995
674.4484, 23.64130
674.9305, 24.00798
675.4126, 24.38986
675.8947, 24.46389
676.3768, 24.11926
676.8589, 23.96775
677.3411, 24.26285
677.8232, 24.64155
678.3053, 24.80556
678.7874, 24.80649
679.2695, 24.82876
679.7516, 24.92065
680.2338, 25.03596
680.7159, 25.29046
681.1980, 25.49615
681.6801, 25.20023
682.1622, 24.41053
682.6443, 23.79836
683.1265, 23.96131
683.6086, 24.69753
684.0907, 24.98913
684.5728, 24.52139
685.0549, 24.29672
685.5370, 24.78301
686.0192, 25.25078
686.5013, 25.22711
686.9834, 24.83425
687.4655, 24.47330
687.9476, 24.27492
688.4297, 24.18942
688.9119, 24.26675
689.3940, 24.40891
689.8761, 24.36573
690.3582, 24.09603
690.8403, 23.76580
691.3224, 23.49043
691.8046, 23.26913
692.2867, 23.08567
692.7688, 22.79733
693.2509, 22.79091
693.7330, 23.54269
694.2151, 24.13649
694.6973, 23.81059
695.1794, 22.89685
695.6615, 22.27851
696.1436, 22.37740
696.6257, 22.74367
697.1078, 22.94377
697.5900, 23.00172
698.0721, 22.97970
698.5542, 22.87962
699.0363, 22.78035
699.5184, 22.69450
700.0005, 22.67892
700.4827, 22.94872
700.9648, 23.95799
701.4469, 24.49949
701.9290, 24.12864
702.4111, 23.69018
702.8932, 23.77264
703.3754, 24.16259
703.8575, 24.31680
704.3396, 23.99706
704.8217, 23.57828
705.3038, 23.53161
705.7859, 23.78464
706.2681, 24.01990
706.7502, 24.22615
707.2323, 24.29114
707.7144, 24.06740
708.1965, 23.73366
708.6786, 23.74049
709.1607, 24.27498
709.6428, 24.58233
710.1249, 24.51124
710.6071, 24.30316
711.0892, 24.01905
711.5713, 23.71730
712.0534, 23.45696
712.5355, 23.25996
713.0176, 23.14999
713.4998, 23.20300
713.9819, 23.37717
714.4640, 23.42888
714.9461, 23.33389
715.4282, 23.25999
715.9103, 23.30366
716.3925, 23.37574
716.8746, 23.29511
717.3567, 23.02295
717.8388, 22.94679
718.3209, 23.16901
718.8030, 23.51789
719.2852, 24.06176
719.7673, 24.61448
720.2494, 24.88130
720.7315, 24.82946
721.2136, 24.76715
721.6957, 25.05520
722.1779, 25.52012
722.6600, 25.42592
723.1421, 24.67531
723.6242, 24.23927
724.1063, 24.52395
724.5884, 25.01606
725.0706, 25.19003
725.5527, 25.06566
726.0348, 24.90140
726.5169, 24.66289
726.9990, 24.44489
727.4811, 24.18164
727.9633, 24.01545
728.4454, 24.15778
728.9275, 24.57487
729.4096, 25.04890
729.8917, 25.46972
730.3738, 25.75574
730.8560, 25.61110
731.3381, 25.01505
731.8202, 24.78272
732.3023, 25.15477
732.7844, 25.64674
733.2665, 25.98411
733.7487, 26.14770
734.2308, 26.08220
734.7129, 25.53422
735.1950, 25.23789
735.6771, 25.47928
736.1592, 25.90954
736.6414, 26.48093
737.1235, 26.98642
737.6056, 26.91456
738.0877, 26.01657
738.5698, 25.00284
739.0519, 24.91607
739.5341, 25.65700
740.0162, 26.40723
740.4983, 27.19397
740.9804, 27.64360
741.4625, 27.45585
741.9446, 26.92125
742.4268, 26.54551
742.9089, 26.33160
743.3910, 26.22894
743.8731, 26.27558
744.3552, 26.38726
744.8373, 26.55682
745.3195, 26.75127
745.8016, 26.95525
746.2837, 27.15133
746.7658, 27.27225
747.2479, 27.21298
747.7300, 27.05686
748.2122, 26.99295
748.6943, 27.02010
749.1764, 27.31157
749.6585, 28.02280
750.1406, 28.73059
750.6227, 28.97891
751.1049, 28.77927
751.5870, 28.66750
752.0691, 28.59169
752.5512, 28.66466
753.0333, 29.17582
753.5154, 29.63288
753.9976, 29.43275
754.4797, 28.79033
754.9618, 28.51423
755.4439, 29.09486
755.9260, 29.93135
756.4081, 30.25761
756.8903, 30.16106
757.3724, 29.92329
757.8545, 29.56171
758.3366, 29.37955
758.8187, 29.62136
759.3008, 30.08923
759.7830, 30.27162
760.2651, 29.92680
760.7472, 29.87301
761.2293, 30.35811
761.7114, 30.83662
762.1935, 31.14866
762.6757, 31.29343
763.1578, 31.22772
763.6399, 30.95545
764.1220, 30.73480
764.6041, 30.63634
765.0862, 30.76723
765.5684, 31.53157
766.0505, 32.74375
766.5326, 33.42170
767.0147, 33.23341
767.4968, 32.78937
767.9789, 32.76452
768.4611, 33.13784
768.9432, 33.40512
769.4253, 33.42879
769.9074, 33.58520
770.3895, 34.03091
770.8716, 34.53429
771.3538, 34.89388
771.8359, 35.17519
772.3180, 35.64009
772.8001, 36.53644
773.2822, 37.29482
773.7643, 37.43962
774.2465, 37.24683
774.7286, 36.93479
775.2107, 36.64649
775.6928, 36.89634
776.1749, 38.01833
776.6570, 39.41607
777.1392, 39.83522
777.6213, 39.09053
778.1034, 38.73727
778.5855, 38.95330
779.0676, 39.24409
779.5497, 39.49485
780.0319, 39.64193
780.5140, 39.50339
780.9961, 39.03881
781.4782, 38.89142
781.9603, 39.39073
782.4424, 40.06162
782.9246, 40.87950
783.4067, 41.58335
783.8888, 41.71149
784.3709, 41.25546
784.8530, 40.69367
785.3351, 40.34362
785.8173, 40.25142
786.2994, 40.69100
786.7815, 41.66241
787.2636, 42.21452
787.7457, 42.05087
788.2278, 41.86327
788.7100, 42.23521
789.1921, 42.98560
789.6742, 43.38711
790.1563, 43.29512
790.6384, 43.14161
791.1205, 42.71066
791.6026, 42.46427
792.0847, 42.75108
792.5668, 43.36886
793.0490, 44.00508
793.5311, 44.56292
794.0132, 45.02755
794.4953, 45.34040
794.9774, 45.57484
795.4595, 45.73816
795.9417, 45.90306
796.4238, 46.55935
796.9059, 47.90033
797.3880, 49.26064
797.8701, 49.82070
798.3522, 49.67283
798.8344, 50.32227
799.3165, 52.35829
799.7986, 54.05927
800.2807, 54.79343
800.7628, 55.43486
801.2449, 56.50963
801.7271, 57.89600
802.2092, 59.19545
802.6913, 60.23613
803.1734, 61.37451
803.6555, 62.68394
804.1376, 64.24932
804.6198, 66.26893
805.1019, 68.61873
805.5840, 70.97149
806.0661, 73.17298
806.5482, 75.38619
807.0303, 77.77773
807.5125, 80.35792
807.9946, 83.22803
808.4767, 86.45449
808.9588, 89.66259
809.4409, 92.67712
809.9230, 95.68555
810.4052, 98.92046
810.8873, 102.3813
811.3694, 105.7450
811.8515, 108.6930
812.3336, 111.9573
812.8157, 115.8816
813.2979, 119.9979
813.7800, 123.8576
814.2621, 127.5514
814.7442, 131.3520
815.2263, 135.2875
815.7084, 139.7425
816.1906, 145.3165
816.6727, 151.5547
817.1548, 157.4412
817.6369, 162.9918
818.1190, 168.8115
818.6011, 175.1448
819.0833, 182.1265
819.5654, 190.0706
820.0475, 199.0389
820.5296, 207.5875
821.0117, 215.8244
821.4938, 223.5517
821.9760, 230.6045
822.4581, 237.1833
822.9402, 243.6241
823.4223, 249.7687
823.9044, 254.8425
824.3865, 258.8861
824.8687, 261.5237
825.3508, 262.5188
825.8329, 262.1296
826.3150, 260.6549
826.7971, 258.0195
827.2792, 253.8090
827.7614, 247.8119
828.2435, 240.8205
828.7256, 233.5556
829.2077, 226.0979
829.6898, 218.6271
830.1719, 211.1898
830.6541, 204.2090
831.1362, 197.8333
831.6183, 192.1102
832.1004, 187.1413
832.5825, 182.9399
833.0646, 178.5960
833.5468, 173.6547
834.0289, 169.3411
834.5110, 165.9997
834.9931, 163.1310
835.4752, 160.4805
835.9573, 158.0253
836.4395, 155.6961
836.9216, 153.3846
837.4037, 151.5091
837.8858, 150.5133
838.3679, 149.8825
838.8500, 149.1252
839.3322, 148.2615
839.8143, 147.4354
840.2964, 146.7050
840.7785, 146.0770
841.2606, 145.4974
841.7427, 145.0567
842.2249, 145.1186
842.7070, 145.6846
843.1891, 146.7559
843.6712, 148.4909
844.1533, 150.1719
844.6354, 151.0462
845.1176, 151.3687
845.5997, 152.4035
846.0818, 155.1000
846.5639, 156.9870
847.0460, 157.1414
847.5281, 157.5150
848.0103, 159.2213
848.4924, 161.6514
848.9745, 164.0319
849.4566, 166.2096
849.9387, 167.7448
850.4208, 168.0114
850.9030, 167.9084
851.3851, 168.3675
851.8672, 169.0376
852.3493, 169.0437
852.8314, 168.3432
853.3135, 167.8235
853.7957, 168.1606
854.2778, 169.1093
854.7599, 170.1213
855.2420, 171.2022
855.7241, 172.6110
856.2062, 174.4157
856.6884, 176.3195
857.1705, 178.1512
857.6526, 179.9702
858.1347, 181.7689
858.6168, 183.2371
859.0989, 186.0974
859.5811, 191.4321
860.0632, 196.7141
860.5453, 201.0342
861.0274, 205.3412
861.5095, 210.3849
861.9916, 216.2255
862.4738, 222.6674
862.9559, 229.7594
863.4380, 237.3308
863.9201, 244.9742
864.4022, 253.2172
864.8843, 262.5261
865.3665, 273.0269
865.8486, 284.7880
866.3307, 297.8070
866.8128, 311.5398
867.2949, 324.9913
867.7770, 338.4992
868.2592, 353.6610
868.7413, 370.4578
869.2234, 388.7119
869.7055, 408.4231
870.1876, 429.5719
870.6697, 451.6810
871.1519, 475.1487
871.6340, 502.0587
872.1161, 533.1331
872.5981, 566.2628
873.0803, 601.7342
873.5624, 638.6262
874.0445, 675.8582
874.5266, 714.4881
875.0087, 757.1681
875.4908, 804.1676
875.9730, 851.2744
876.4551, 897.0721
876.9372, 942.1840
877.4193, 989.2855
877.9014, 1034.634
878.3835, 1074.356
878.8657, 1107.352
879.3478, 1133.642
879.8299, 1153.513
880.3120, 1165.475
880.7941, 1168.061
881.2762, 1161.050
881.7584, 1142.571
882.2405, 1113.005
882.7226, 1077.396
883.2047, 1037.876
883.6868, 994.5153
884.1689, 947.1995
884.6511, 895.9874
885.1332, 845.4400
885.6153, 795.2768
886.0974, 746.2960
886.5795, 697.7485
887.0616, 651.3738
887.5438, 607.8442
888.0259, 567.2618
888.5080, 529.6004
888.9901, 495.3814
889.4722, 462.8870
889.9543, 430.9778
890.4365, 401.5187
890.9186, 376.1559
891.4007, 353.5734
891.8828, 332.2339
892.3649, 311.7464
892.8470, 292.7799
893.3292, 275.9221
893.8113, 260.4193
894.2934, 245.6125
894.7755, 231.6957
895.2576, 219.3194
895.7397, 208.4344
896.2219, 198.1991
896.7040, 188.2232
897.1861, 178.9275
897.6682, 171.2078
898.1503, 164.8833
898.6324, 158.1515
899.1146, 150.9575
899.5967, 144.2450
900.0788, 138.1725
900.5609, 133.0938
901.0430, 129.6004
901.5251, 127.3473
902.0073, 124.0980
902.4894, 118.7073
902.9715, 114.6540
903.4536, 113.1301
903.9357, 111.7800
904.4178, 109.6460
904.9000, 107.0349
905.3821, 104.2451
905.8642, 101.2836
906.3463, 98.74564
906.8284, 96.84330
907.3105, 95.32613
907.7927, 94.54952
908.2748, 93.78641
908.7569, 92.15236
909.2390, 89.81841
909.7211, 87.55740
910.2032, 85.70405
910.6854, 84.09989
911.1675, 82.73067
911.6496, 81.43179
912.1317, 79.83102
912.6138, 78.05832
913.0959, 76.61211
913.5781, 75.62957
914.0602, 74.80880
914.5423, 73.89742
915.0244, 72.87284
915.5065, 71.59362
915.9886, 70.05482
916.4708, 68.67937
916.9529, 67.55504
917.4350, 66.29912
917.9171, 64.58407
918.3992, 62.81767
918.8813, 61.77164
919.3635, 61.57498
919.8456, 61.05233
920.3277, 60.09402
920.8098, 58.98993
921.2919, 57.49751
921.7740, 56.15253
922.2562, 55.49353
922.7383, 55.28625
923.2204, 54.82288
923.7025, 53.96404
924.1846, 52.99831
924.6667, 51.89603
925.1489, 50.81359
925.6310, 49.66427
926.1131, 48.69434
926.5952, 48.43183
927.0773, 48.80138
927.5594, 48.86480
928.0416, 48.02488
928.5237, 46.81299
929.0058, 45.38274
929.4879, 44.06281
929.9700, 43.54008
930.4521, 43.64635
930.9343, 43.58474
931.4164, 43.02144
931.8985, 42.29470
932.3806, 41.82496
932.8627, 41.49968
933.3448, 40.91843
933.8270, 40.10796
934.3091, 39.30011
934.7912, 38.53686
935.2733, 38.01223
935.7554, 37.88970
936.2375, 38.03855
936.7197, 38.20695
937.2018, 38.47817
937.6839, 38.22160
938.1660, 37.13423
938.6481, 36.28791
939.1302, 36.10978
939.6124, 36.20708
940.0945, 36.12263
940.5766, 35.91346
941.0587, 36.13099
941.5408, 37.39849
942.0229, 38.12295
942.5051, 37.88012
942.9872, 37.46383
943.4693, 37.23174
943.9514, 37.07542
944.4335, 36.71644
944.9156, 36.14820
945.3978, 35.98326
945.8799, 37.00745
946.3620, 37.77998
946.8441, 37.24318
947.3262, 36.33441
947.8083, 35.97215
948.2905, 36.10620
948.7726, 36.36434
949.2547, 36.61347
949.7368, 36.70217
950.2189, 36.44192
950.7010, 35.99573
951.1832, 35.49559
951.6653, 35.00641
952.1474, 34.72665
952.6295, 34.64836
953.1116, 34.49277
953.5938, 34.07431
954.0759, 33.52000
954.5580, 32.95871
955.0400, 32.43579
955.5222, 32.25695
956.0043, 32.42223
956.4864, 32.59631
956.9685, 32.69538
957.4506, 32.51225
957.9327, 31.79284
958.4149, 30.69006
958.8970, 29.87790
959.3791, 29.39793
959.8612, 28.99752
960.3433, 28.69364
960.8254, 28.35710
961.3076, 27.79405
961.7897, 27.35223
962.2718, 27.65401
962.7539, 28.72661
963.2360, 29.07635
963.7181, 27.91131
964.2003, 27.24655
964.6824, 27.85342
965.1645, 28.36852
965.6466, 27.66446
966.1287, 26.54878
966.6108, 26.59320
967.0930, 28.09315
967.5751, 29.04155
968.0572, 28.33214
968.5393, 27.86037
969.0214, 28.79241
969.5035, 29.94957
969.9857, 30.12770
970.4678, 29.59681
970.9499, 29.31049
971.4320, 29.58108
971.9141, 29.99001
972.3962, 30.43040
972.8784, 30.77119
973.3605, 30.72939
973.8426, 30.58928
974.3247, 30.83334
974.8068, 31.46716
975.2889, 32.14944
975.7711, 32.69740
976.2532, 33.19442
976.7353, 33.74919
977.2174, 34.30848
977.6995, 34.80015
978.1816, 35.21237
978.6638, 35.48639
979.1459, 35.62170
979.6280, 35.73273
980.1101, 35.89680
980.5922, 36.14354
981.0743, 36.56218
981.5565, 37.12415
982.0386, 37.69510
982.5207, 38.25893
983.0028, 38.67384
983.4849, 38.87380
983.9670, 38.99889
984.4492, 39.19588
984.9313, 39.45446
985.4134, 39.71947
985.8955, 39.97994
986.3776, 40.35959
986.8597, 40.92952
987.3419, 41.38940
987.8240, 41.55895
988.3061, 41.60519
988.7882, 41.74825
989.2703, 41.98745
989.7524, 42.35268
990.2346, 43.00864
990.7167, 43.41319
991.1988, 43.32380
991.6809, 43.21903
992.1630, 43.27692
992.6451, 43.53632
993.1273, 44.11417
993.6094, 45.05827
994.0915, 45.96199
994.5736, 46.96959
995.0557, 47.73496
995.5378, 47.96232
996.0200, 48.14867
996.5021, 48.62805
996.9842, 49.30663
997.4663, 49.87732
997.9484, 50.20986
998.4305, 51.10490
998.9127, 53.30208
999.3948, 55.42080
999.8769, 56.80633
1000.359, 57.88381
1000.841, 58.87141
1001.323, 59.92923
1001.805, 61.36876
1002.287, 63.32450
1002.770, 65.28597
1003.252, 66.86612
1003.734, 68.48579
1004.216, 70.62050
1004.698, 72.89645
1005.180, 75.10082
1005.662, 76.97652
1006.144, 77.80910
1006.627, 77.15756
1007.109, 76.45210
1007.591, 77.54079
1008.073, 78.66204
1008.555, 77.51154
1009.037, 74.88023
1009.519, 72.42062
1010.001, 70.37180
1010.483, 67.96336
1010.966, 64.72312
1011.448, 61.29335
1011.930, 58.45896
1012.412, 55.96782
1012.894, 53.28522
1013.376, 50.48923
1013.858, 47.84446
1014.340, 45.43357
1014.823, 43.40707
1015.305, 41.89529
1015.787, 40.66419
1016.269, 39.38507
1016.751, 38.05165
1017.233, 36.59153
1017.715, 35.04552
1018.197, 33.68808
1018.679, 32.59774
1019.162, 31.71243
1019.644, 31.00265
1020.126, 30.38478
1020.608, 29.59065
1021.090, 28.65858
1021.572, 28.13837
1022.054, 28.06261
1022.536, 27.99507
1023.018, 27.81077
1023.501, 27.44737
1023.983, 26.79075
1024.465, 26.01981
1024.947, 25.75675
1025.429, 26.05859
1025.911, 26.18848
1026.393, 26.09249
1026.875, 25.98523
1027.358, 25.95358
1027.840, 25.88673
1028.322, 25.66671
1028.804, 25.33202
1029.286, 25.04053
1029.768, 24.78244
1030.250, 24.61555
1030.732, 24.58214
1031.214, 24.52165
1031.697, 24.35653
1032.179, 24.18168
1032.661, 24.10463
1033.143, 24.09819
1033.625, 24.00537
1034.107, 23.69147
1034.589, 23.65243
1035.071, 24.11154
1035.553, 24.44300
1036.036, 24.35868
1036.518, 24.13247
1037.000, 24.03811
1037.482, 24.04600
1037.964, 23.97620
1038.446, 23.71189
1038.928, 23.60436
1039.410, 23.85811
1039.893, 23.99133
1040.375, 23.76660
1040.857, 23.41108
1041.339, 23.06205
1041.821, 22.75546
1042.303, 22.70521
1042.785, 23.08106
1043.267, 23.38795
1043.750, 23.78828
1044.232, 23.88987
1044.714, 23.21968
1045.196, 22.44610
1045.678, 22.28368
1046.160, 22.61418
1046.642, 22.75748
1047.124, 22.38045
1047.606, 22.42748
1048.089, 23.66838
1048.571, 24.56116
1049.053, 24.24729
1049.535, 23.48677
1050.017, 22.89535
1050.499, 22.53513
1050.981, 22.43672
1051.463, 22.73569
1051.945, 22.94421
1052.428, 22.80265
1052.910, 22.74058
1053.392, 23.24771
1053.874, 23.69686
1054.356, 23.18934
1054.838, 22.06054
1055.320, 21.65018
1055.802, 22.50150
1056.285, 23.11743
1056.767, 22.91233
1057.249, 22.56961
1057.731, 22.37797
1058.213, 22.24300
1058.695, 21.99320
1059.177, 21.70636
1059.659, 21.67616
1060.141, 22.05332
1060.624, 22.28750
1061.106, 21.99473
1061.588, 21.74634
1062.070, 21.81640
1062.552, 22.08587
1063.034, 22.61630
1063.516, 23.20264
1063.998, 23.33991
1064.480, 22.85844
1064.963, 22.32664
1065.445, 21.78342
1065.927, 21.47380
1066.409, 21.62314
1066.891, 21.98625
1067.373, 22.44858
1067.855, 22.89362
1068.337, 23.12494
1068.820, 23.08956
1069.302, 22.96055
1069.784, 22.68688
1070.266, 22.49285
1070.748, 22.61377
1071.230, 22.76464
1071.712, 22.54032
1072.194, 22.17962
1072.677, 22.31964
1073.159, 23.08147
1073.641, 23.57319
1074.123, 23.14785
1074.605, 22.68839
1075.087, 22.67829
1075.569, 22.79726
1076.051, 22.84827
1076.533, 22.77995
1077.016, 22.51303
1077.498, 22.05267
1077.980, 21.61966
1078.462, 21.29969
1078.944, 21.03481
1079.426, 20.69900
1079.908, 20.49965
1080.390, 20.77933
1080.872, 21.22184
1081.354, 21.32727
1081.837, 21.04168
1082.319, 20.64054
1082.801, 20.05346
1083.283, 19.70963
1083.765, 20.02061
1084.247, 20.42961
1084.729, 20.55745
1085.211, 20.51161
1085.694, 20.41320
1086.176, 20.31552
1086.658, 20.35624
1087.140, 20.69727
1087.622, 20.84772
1088.104, 20.33348
1088.586, 19.86336
1089.068, 19.95750
1089.551, 20.29688
1090.033, 20.59381
1090.515, 20.76692
1090.997, 20.69109
1091.479, 20.27447
1091.961, 19.87806
1092.443, 19.59962
1092.925, 19.42205
1093.407, 19.37602
1093.890, 19.39777
1094.372, 19.45271
1094.854, 19.51861
1095.336, 19.54821
1095.818, 19.52306
1096.300, 19.55194
1096.782, 19.68201
1097.264, 19.85559
1097.746, 20.21840
1098.229, 20.45764
1098.711, 20.26334
1099.193, 19.79107
1099.675, 19.28114
1100.157, 18.76984
1100.639, 18.47981
1101.121, 18.49741
1101.603, 18.70030
1102.086, 19.34864
1102.568, 19.85913
1103.050, 19.71849
1103.532, 19.30339
1104.014, 19.14791
1104.496, 19.27168
1104.978, 19.37977
1105.460, 19.27758
1105.943, 19.40415
1106.425, 20.27500
1106.907, 20.84968
1107.389, 20.40819
1107.871, 19.63277
1108.353, 19.16574
1108.835, 19.01434
1109.317, 19.09278
1109.799, 19.61968
1110.281, 19.81736
1110.764, 19.30487
1111.246, 18.88908
1111.728, 18.79782
1112.210, 18.88850
1112.692, 19.20886
1113.174, 19.59417
1113.656, 19.57143
1114.138, 18.98475
1114.621, 18.69768
1115.103, 18.80674
1115.585, 19.07443
1116.067, 19.77191
1116.549, 20.19815
1117.031, 19.70412
1117.513, 18.87967
1117.995, 18.70261
1118.478, 19.18113
1118.960, 19.57374
1119.442, 19.91632
1119.924, 20.08034
1120.406, 20.01783
1120.888, 19.83511
1121.370, 19.47728
1121.852, 19.18512
1122.334, 19.28712
1122.817, 19.68513
1123.299, 19.82032
1123.781, 19.59858
1124.263, 19.51316
1124.745, 19.60899
1125.227, 19.73742
1125.709, 19.89024
1126.191, 19.91467
1126.673, 19.60769
1127.156, 19.22208
1127.638, 19.42560
1128.120, 20.24141
1128.602, 20.92504
1129.084, 21.48489
1129.566, 21.74917
1130.048, 21.65907
1130.530, 21.46760
1131.013, 21.30503
1131.495, 21.20768
1131.977, 21.25196
1132.459, 21.39627
1132.941, 21.39124
1133.423, 21.25968
1133.905, 21.32412
1134.387, 21.61658
1134.870, 22.03189
1135.352, 22.52861
1135.834, 23.03112
1136.316, 23.49206
1136.798, 23.84138
1137.280, 23.76206
1137.762, 24.28287
1138.244, 23.86553
1138.726, 24.80994
1139.208, 25.33770
1139.691, 25.26034
1140.173, 25.11251
1140.655, 25.22534
1141.137, 25.45212
1141.619, 25.69997
1142.101, 25.87348
1142.583, 25.68382
1143.065, 25.32553
1143.548, 25.16657
1144.030, 25.28549
1144.512, 25.81420
1144.994, 26.77411
1145.476, 27.53697
1145.958, 27.47226
1146.440, 27.14507
1146.922, 26.98943
1147.405, 27.01198
1147.887, 27.39526
1148.369, 27.89895
1148.851, 28.01903
1149.333, 27.70690
1149.815, 27.33622
1150.297, 26.96108
1150.779, 26.89245
1151.261, 27.58755
1151.744, 28.35315
1152.226, 28.82586
1152.708, 28.97259
1153.190, 28.51537
1153.672, 27.76054
1154.154, 27.68548
1154.636, 28.66169
1155.118, 29.21183
1155.600, 28.34082
1156.083, 27.74335
1156.565, 28.33118
1157.047, 29.05839
1157.529, 29.15594
1158.011, 28.91788
1158.493, 28.83937
1158.975, 28.94622
1159.457, 29.08734
1159.940, 29.38987
1160.422, 29.49946
1160.904, 29.20004
1161.386, 29.00523
1161.868, 29.09348
1162.350, 29.35069
1162.832, 29.67877
1163.314, 30.09429
1163.796, 30.68901
1164.279, 31.55873
1164.761, 32.05926
1165.243, 32.14705
1165.725, 31.93760
1166.207, 31.28022
1166.689, 30.95412
1167.171, 31.47625
1167.653, 32.37068
1168.135, 32.99428
1168.618, 33.36592
1169.100, 33.54853
1169.582, 33.54485
1170.064, 33.57228
1170.546, 33.65129
1171.028, 33.92719
1171.510, 34.44897
1171.992, 35.04345
1172.474, 35.59071
1172.957, 36.03254
1173.439, 36.15382
1173.921, 36.12576
1174.403, 36.39233
1174.885, 36.96941
1175.367, 38.05524
1175.849, 39.51596
1176.331, 40.61452
1176.814, 41.03889
1177.296, 41.13868
1177.778, 40.93549
1178.260, 40.95509
1178.742, 42.17458
1179.224, 43.72282
1179.706, 44.29070
1180.188, 44.27875
1180.671, 44.57176
1181.153, 45.36718
1181.635, 46.53317
1182.117, 48.04914
1182.599, 49.78355
1183.081, 51.78452
1183.563, 53.83257
1184.045, 55.77671
1184.527, 57.71020
1185.010, 59.68690
1185.492, 61.75703
1185.974, 64.02668
1186.456, 66.52550
1186.938, 69.01382
1187.420, 71.39198
1187.902, 73.85490
1188.384, 75.98180
1188.866, 78.76441
1189.349, 83.10944
1189.831, 87.80370
1190.313, 91.33980
1190.795, 94.17228
1191.277, 98.22961
1191.759, 103.8792
1192.241, 109.0102
1192.723, 113.3636
1193.206, 118.0438
1193.688, 123.2302
1194.170, 129.0359
1194.652, 135.6831
1195.134, 142.2940
1195.616, 147.4270
1196.098, 151.6057
1196.580, 157.2945
1197.063, 164.2727
1197.545, 170.9592
1198.027, 177.0585
1198.509, 181.1029
1198.991, 182.8059
1199.473, 184.0720
1199.955, 186.2021
1200.437, 188.5334
1200.919, 190.9028
1201.401, 192.4134
1201.884, 191.1777
1202.366, 188.0730
1202.848, 184.8523
1203.330, 181.4368
1203.812, 176.7398
1204.294, 170.5282
1204.776, 163.9702
1205.258, 157.7206
1205.741, 151.4248
1206.223, 144.8608
1206.705, 138.2080
1207.187, 131.5060
1207.669, 124.8275
1208.151, 118.0328
1208.633, 111.3606
1209.115, 105.4423
1209.598, 100.4803
1210.080, 95.81145
1210.562, 91.35999
1211.044, 87.08940
1211.526, 82.76026
1212.008, 78.91802
1212.490, 76.03228
1212.972, 73.53271
1213.454, 70.73046
1213.937, 68.30103
1214.419, 65.88959
1214.901, 63.47105
1215.383, 61.40627
1215.865, 58.97206
1216.347, 57.07766
1216.829, 55.96161
1217.311, 55.22562
1217.793, 54.69115
1218.276, 54.02721
1218.758, 52.76636
1219.240, 51.07957
1219.722, 49.14072
1220.204, 47.22685
1220.686, 46.74618
1221.168, 47.28161
1221.650, 46.68272
1222.133, 44.65318
1222.615, 43.00040
1223.097, 42.78899
1223.579, 42.73947
1224.061, 41.43484
1224.543, 40.01034
1225.025, 39.61359
1225.507, 39.71079
1225.990, 39.88172
1226.472, 39.92468
1226.954, 39.48189
1227.436, 38.57971
1227.918, 37.96056
1228.400, 37.99256
1228.882, 37.99889
1229.364, 37.87746
1229.846, 37.63227
1230.328, 37.27900
1230.811, 36.77926
1231.293, 35.93523
1231.775, 35.03996
1232.257, 34.68813
1232.739, 34.87513
1233.221, 34.92875
1233.703, 34.85746
1234.185, 34.56799
1234.668, 33.98940
1235.150, 33.55543
1235.632, 33.40613
1236.114, 33.49490
1236.596, 33.84111
1237.078, 34.11342
1237.560, 33.62767
1238.042, 32.63956
1238.525, 31.87107
1239.007, 31.34704
1239.489, 31.20507
1239.971, 31.37606
1240.453, 31.69024
1240.935, 32.02837
1241.417, 31.95053
1241.899, 30.99805
1242.381, 30.20912
1242.864, 30.68519
1243.346, 31.36128
1243.828, 31.40182
1244.310, 31.10649
1244.792, 30.78829
1245.274, 30.46807
1245.756, 30.02801
1246.238, 29.45751
1246.720, 29.22033
1247.203, 29.74910
1247.685, 30.01774
1248.167, 29.60108
1248.649, 29.49139
1249.131, 30.32045
1249.613, 30.97515
1250.095, 30.43657
1250.577, 30.83994
1251.059, 30.73209
1251.542, 30.38846
1252.024, 30.54004
1252.506, 29.91977
1252.988, 29.80786
1253.470, 30.28850
1253.952, 30.61173
1254.434, 30.54599
1254.916, 30.34524
1255.399, 30.17526
1255.881, 30.04449
1256.363, 30.04155
1256.845, 30.01803
1257.327, 29.61413
1257.809, 29.14328
1258.291, 29.13468
1258.773, 29.45112
1259.255, 29.67924
1259.738, 29.75552
1260.220, 29.94918
1260.702, 30.53771
1261.184, 30.74230
1261.666, 29.95825
1262.148, 29.22115
1262.630, 28.87782
1263.112, 28.79376
1263.594, 28.98967
1264.077, 29.28454
1264.559, 29.44243
1265.041, 29.46042
1265.523, 29.29589
1266.005, 28.92407
1266.487, 28.46886
1266.969, 27.89835
1267.451, 27.65361
1267.934, 27.85037
1268.416, 27.95567
1268.898, 27.66534
1269.380, 27.21966
1269.862, 26.81656
1270.344, 26.58703
1270.826, 26.95576
1271.308, 27.55955
1271.791, 27.75596
1272.273, 27.60488
1272.755, 27.32157
1273.237, 26.93595
1273.719, 26.28962
1274.201, 25.29099
1274.683, 24.64924
1275.165, 24.85323
1275.647, 25.21949
1276.130, 25.67353
1276.612, 26.00457
1277.094, 26.01378
1277.576, 25.89918
1278.058, 25.73920
1278.540, 25.68797
1279.022, 26.33162
1279.504, 27.81087
1279.986, 27.83230
1280.469, 26.12615
1280.951, 24.75583
1281.433, 23.94748
1281.915, 23.92546
1282.397, 24.77759
1282.879, 25.42046
1283.361, 24.95814
1283.843, 24.13793
1284.326, 23.84570
1284.808, 24.08123
##END=



