##NAMES=Grossular
##RRUFFID=R060446
##IDEAL CHEMISTRY=Ca_3_Al_2_(SiO_4_)_3_
##LOCALITY=Africa
##OWNER=RRUFF
##SOURCE=Gemological Institute of America
##DESCRIPTION=Orange fragment. Variety hibschite.
##STATUS=The identification of this mineral has been confirmed by X-ray diffraction and chemical analysis
##URL=rruff.info/R060446
##MEASURED CHEMISTRY=(Ca_2.97_Mn_0.03_)_Σ=3_(Al_1.96_Fe^3+^_0.04_)_Σ=2_(Si_1.00_O_4_)_2.71_(OH)_1.16_ (x=0.29); OH estimated by charge balance
90.92609, 0.0000000E+00
91.40820, 9.637594
91.89032, 9.857360
92.37244, 9.731387
92.85455, 9.318811
93.33667, 8.973055
93.81879, 9.039598
94.30090, 9.387725
94.78302, 9.616776
95.26514, 9.604472
95.74725, 9.450685
96.22937, 9.372239
96.71149, 9.375093
97.19360, 9.393563
97.67572, 9.366441
98.15784, 9.294824
98.63995, 9.211969
99.12207, 9.105122
99.60419, 8.986273
100.0863, 8.963065
100.5684, 9.054005
101.0505, 9.204130
101.5327, 9.352218
102.0148, 9.499782
102.4969, 9.636639
102.9790, 9.760054
103.4611, 9.867573
103.9432, 9.952575
104.4253, 9.941789
104.9075, 9.948330
105.3896, 10.22162
105.8717, 10.97708
106.3538, 11.71040
106.8359, 12.22030
107.3180, 12.23009
107.8002, 12.48986
108.2823, 13.07681
108.7644, 13.92629
109.2465, 14.82828
109.7286, 15.75033
110.2107, 16.73619
110.6929, 17.82200
111.1750, 18.90302
111.6571, 20.18736
112.1392, 21.75871
112.6213, 23.58571
113.1034, 25.46282
113.5856, 27.26819
114.0677, 29.18653
114.5498, 31.33166
115.0319, 33.93147
115.5140, 36.58688
115.9961, 39.19830
116.4783, 41.76156
116.9604, 44.23010
117.4425, 46.68258
117.9246, 49.03200
118.4067, 51.16421
118.8888, 52.93091
119.3710, 54.57395
119.8531, 56.17159
120.3352, 57.70626
120.8173, 59.36972
121.2994, 61.19662
121.7815, 63.22491
122.2637, 65.53081
122.7458, 68.31441
123.2279, 71.28953
123.7100, 74.14884
124.1921, 76.82867
124.6742, 79.52401
125.1564, 82.40005
125.6385, 85.43717
126.1206, 88.58681
126.6027, 91.73449
127.0848, 94.96459
127.5669, 98.45370
128.0491, 102.3179
128.5312, 106.2625
129.0133, 110.0390
129.4954, 113.5896
129.9775, 116.6943
130.4596, 118.9087
130.9418, 120.4482
131.4239, 122.3305
131.9060, 125.0010
132.3881, 127.8899
132.8702, 129.3246
133.3523, 129.2034
133.8345, 129.0772
134.3166, 130.5145
134.7987, 133.5141
135.2808, 136.0889
135.7629, 137.6851
136.2450, 138.5562
136.7272, 139.8826
137.2093, 141.6943
137.6914, 143.8837
138.1735, 146.4578
138.6556, 149.4954
139.1377, 152.4474
139.6199, 155.3180
140.1020, 158.0811
140.5841, 160.0840
141.0662, 160.9916
141.5483, 161.5583
142.0304, 162.7200
142.5126, 164.5919
142.9947, 166.7100
143.4768, 168.4492
143.9589, 169.4504
144.4410, 170.4794
144.9231, 171.5446
145.4053, 172.6404
145.8874, 173.8137
146.3695, 175.3055
146.8516, 176.5448
147.3337, 177.3634
147.8158, 177.7992
148.2980, 177.7883
148.7801, 176.9369
149.2622, 175.7171
149.7443, 175.0997
150.2264, 175.6408
150.7085, 176.2637
151.1907, 176.6055
151.6728, 176.5098
152.1549, 176.4207
152.6370, 176.1768
153.1191, 175.9266
153.6012, 176.0535
154.0834, 177.0461
154.5655, 178.0538
155.0476, 178.7428
155.5297, 179.1748
156.0118, 179.1355
156.4939, 178.1172
156.9761, 176.4903
157.4582, 175.5326
157.9403, 176.0567
158.4224, 176.9771
158.9045, 177.6597
159.3866, 177.6366
159.8688, 177.7525
160.3509, 178.3642
160.8330, 179.3592
161.3151, 180.2094
161.7972, 180.5177
162.2793, 180.7209
162.7615, 181.1575
163.2436, 182.4588
163.7257, 183.5024
164.2078, 183.7227
164.6899, 183.2074
165.1720, 182.5646
165.6541, 181.7398
166.1363, 181.0623
166.6184, 180.8574
167.1005, 181.4280
167.5826, 182.3423
168.0647, 183.5576
168.5468, 185.0305
169.0290, 186.2060
169.5111, 186.5151
169.9932, 186.3768
170.4753, 186.3443
170.9574, 186.8987
171.4395, 187.4762
171.9217, 187.4130
172.4038, 186.7127
172.8859, 186.2533
173.3680, 187.0631
173.8501, 188.5469
174.3322, 189.6690
174.8144, 189.7274
175.2965, 189.3257
175.7786, 189.1172
176.2607, 189.1073
176.7428, 189.2983
177.2249, 189.8085
177.7071, 190.5294
178.1892, 191.2098
178.6713, 191.8558
179.1534, 192.3547
179.6355, 192.4292
180.1176, 192.0294
180.5998, 191.5727
181.0819, 191.6266
181.5640, 192.0310
182.0461, 192.2175
182.5282, 191.7979
183.0103, 190.9790
183.4925, 190.2081
183.9746, 189.5033
184.4567, 188.8517
184.9388, 188.1088
185.4209, 187.3326
185.9030, 186.9168
186.3852, 187.4339
186.8673, 188.5167
187.3494, 188.7585
187.8315, 187.9483
188.3136, 186.8383
188.7957, 186.5038
189.2779, 186.8945
189.7600, 187.2631
190.2421, 187.1845
190.7242, 186.7384
191.2063, 186.3472
191.6884, 186.0121
192.1706, 185.7770
192.6527, 185.7245
193.1348, 185.8546
193.6169, 186.0508
194.0990, 186.2473
194.5811, 186.4460
195.0633, 186.7451
195.5454, 187.1808
196.0275, 187.6510
196.5096, 187.9494
196.9917, 188.0683
197.4738, 188.1285
197.9560, 188.1325
198.4381, 188.0805
198.9202, 188.2496
199.4023, 188.7191
199.8844, 189.3277
200.3665, 189.7251
200.8487, 189.8807
201.3308, 190.0440
201.8129, 190.3925
202.2950, 190.9549
202.7771, 191.3144
203.2592, 191.3811
203.7414, 191.3240
204.2235, 191.5222
204.7056, 192.0156
205.1877, 192.5893
205.6698, 193.1972
206.1519, 193.8817
206.6341, 194.2663
207.1162, 194.2280
207.5983, 193.9727
208.0804, 193.9520
208.5625, 194.1876
209.0446, 194.5833
209.5268, 195.1469
210.0089, 195.9461
210.4910, 196.6062
210.9731, 197.1363
211.4552, 197.5151
211.9373, 197.6092
212.4195, 197.2571
212.9016, 197.0347
213.3837, 197.2743
213.8658, 198.1428
214.3479, 198.8687
214.8300, 199.4084
215.3121, 199.8191
215.7943, 200.2678
216.2764, 200.8349
216.7585, 201.2566
217.2406, 201.3090
217.7227, 200.7037
218.2048, 200.7089
218.6870, 201.6617
219.1691, 203.0583
219.6512, 203.6562
220.1333, 202.9949
220.6154, 202.3820
221.0975, 202.4379
221.5797, 203.4941
222.0618, 204.2521
222.5439, 204.6639
223.0260, 204.8046
223.5081, 204.7826
223.9902, 204.3643
224.4724, 204.2056
224.9545, 204.6607
225.4366, 206.0724
225.9187, 207.1343
226.4008, 207.7743
226.8829, 208.1118
227.3651, 208.3808
227.8472, 208.5094
228.3293, 208.6933
228.8114, 209.0305
229.2935, 209.6011
229.7757, 210.0508
230.2578, 210.2697
230.7399, 210.4109
231.2220, 210.8167
231.7041, 211.7021
232.1862, 212.4914
232.6684, 212.9166
233.1505, 212.7588
233.6326, 212.9720
234.1147, 213.8173
234.5968, 214.8920
235.0789, 215.3960
235.5611, 214.9043
236.0432, 214.5353
236.5253, 214.7068
237.0074, 215.6143
237.4895, 216.3501
237.9716, 216.8886
238.4538, 217.2738
238.9359, 217.5584
239.4180, 217.6662
239.9001, 217.8061
240.3822, 218.0627
240.8643, 218.4774
241.3465, 218.7858
241.8286, 218.8474
242.3107, 218.9006
242.7928, 219.3481
243.2749, 220.5935
243.7570, 221.5236
244.2392, 221.7105
244.7213, 220.9600
245.2034, 220.6943
245.6855, 221.2674
246.1676, 222.0304
246.6497, 222.1221
247.1319, 221.1326
247.6140, 220.2262
248.0961, 219.7090
248.5782, 219.6282
249.0603, 219.5246
249.5424, 219.4689
250.0246, 219.3276
250.5067, 218.8786
250.9888, 217.7686
251.4709, 217.0623
251.9530, 217.1270
252.4351, 218.0165
252.9173, 218.5124
253.3994, 218.4075
253.8815, 218.1478
254.3636, 218.1871
254.8457, 218.6946
255.3278, 219.1057
255.8100, 219.2610
256.2921, 219.1702
256.7742, 219.2710
257.2563, 219.6126
257.7384, 220.0773
258.2205, 220.5854
258.7026, 221.1986
259.1848, 221.7122
259.6669, 222.0622
260.1490, 222.2764
260.6311, 222.5515
261.1132, 222.9020
261.5953, 223.2972
262.0775, 223.7185
262.5596, 224.1898
263.0417, 224.6331
263.5238, 225.0450
264.0059, 225.4209
264.4880, 225.7429
264.9702, 225.9520
265.4523, 226.2087
265.9344, 226.6222
266.4165, 227.2310
266.8986, 227.8678
267.3807, 228.5534
267.8629, 229.2496
268.3450, 229.8541
268.8271, 230.3918
269.3092, 230.7984
269.7913, 230.9600
270.2734, 230.7588
270.7556, 230.9508
271.2377, 231.7098
271.7198, 232.7817
272.2019, 233.5688
272.6840, 234.0152
273.1661, 234.3899
273.6483, 234.7998
274.1304, 235.2399
274.6125, 235.7532
275.0946, 236.3587
275.5767, 237.0005
276.0588, 237.6173
276.5410, 238.2274
277.0231, 238.6754
277.5052, 238.8399
277.9873, 238.7118
278.4694, 238.5662
278.9515, 238.3585
279.4337, 238.2114
279.9158, 238.4483
280.3979, 239.1381
280.8800, 239.4473
281.3621, 238.8330
281.8442, 237.4496
282.3264, 236.8856
282.8085, 237.3073
283.2906, 237.9933
283.7727, 238.0593
284.2548, 237.5019
284.7369, 237.0511
285.2191, 236.9741
285.7012, 237.1653
286.1833, 237.1009
286.6654, 236.7262
287.1475, 236.4665
287.6296, 236.9555
288.1118, 238.0891
288.5939, 238.7314
289.0760, 238.4294
289.5581, 237.6109
290.0402, 237.3406
290.5223, 237.6283
291.0045, 238.1175
291.4866, 238.6910
291.9687, 239.2810
292.4508, 239.5185
292.9329, 239.2293
293.4150, 238.7333
293.8972, 238.5928
294.3793, 238.7852
294.8614, 239.0277
295.3435, 239.1425
295.8256, 239.1640
296.3077, 239.1950
296.7899, 239.2662
297.2720, 239.3008
297.7541, 239.0531
298.2362, 238.6196
298.7183, 238.4301
299.2004, 238.8274
299.6826, 239.6062
300.1647, 240.4209
300.6468, 241.2459
301.1289, 242.0671
301.6110, 243.0340
302.0931, 244.0046
302.5753, 244.6367
303.0574, 244.4941
303.5395, 244.0349
304.0216, 243.8076
304.5037, 243.8238
304.9858, 244.0547
305.4680, 244.5555
305.9501, 245.2464
306.4322, 245.9919
306.9143, 246.8814
307.3964, 247.7123
307.8785, 248.2590
308.3607, 248.5463
308.8428, 248.8189
309.3249, 249.2114
309.8070, 249.6897
310.2891, 250.2276
310.7712, 250.9450
311.2534, 251.5602
311.7355, 251.7544
312.2176, 251.6410
312.6997, 251.6424
313.1818, 252.0276
313.6639, 252.5898
314.1461, 253.2170
314.6282, 254.0119
315.1103, 254.5785
315.5924, 254.4049
316.0745, 253.8599
316.5566, 253.7127
317.0388, 254.5412
317.5209, 255.6663
318.0030, 256.8367
318.4851, 258.1457
318.9672, 258.9844
319.4493, 258.7886
319.9315, 258.0992
320.4136, 257.6290
320.8957, 257.5468
321.3778, 257.7507
321.8599, 258.3112
322.3420, 259.2675
322.8242, 260.0960
323.3063, 260.5544
323.7884, 260.9008
324.2705, 261.3601
324.7526, 262.0641
325.2347, 262.7857
325.7169, 263.4377
326.1990, 264.0368
326.6811, 264.7393
327.1632, 265.6754
327.6453, 266.6361
328.1274, 267.5058
328.6096, 268.3025
329.0917, 268.9844
329.5738, 269.4396
330.0559, 269.7630
330.5380, 270.2796
331.0201, 271.2006
331.5023, 272.0870
331.9844, 272.7679
332.4665, 273.1873
332.9486, 273.4962
333.4307, 273.4951
333.9128, 273.4857
334.3950, 274.0248
334.8771, 275.4173
335.3592, 276.7924
335.8413, 277.8433
336.3234, 278.5294
336.8055, 279.4030
337.2877, 280.6388
337.7698, 281.8054
338.2519, 282.2383
338.7340, 281.5676
339.2161, 281.6461
339.6982, 283.1375
340.1803, 285.7483
340.6624, 287.5131
341.1446, 288.2880
341.6267, 288.7591
342.1088, 289.3814
342.5909, 290.1455
343.0730, 291.2335
343.5551, 292.7860
344.0373, 294.5250
344.5194, 295.6248
345.0015, 296.0557
345.4836, 296.6664
345.9657, 298.2078
346.4478, 300.4559
346.9300, 302.1103
347.4121, 303.0136
347.8942, 303.6703
348.3763, 304.6564
348.8584, 305.9735
349.3405, 307.6342
349.8227, 310.0763
350.3048, 312.7841
350.7869, 314.4841
351.2690, 315.1519
351.7511, 315.7448
352.2332, 317.2010
352.7154, 319.2281
353.1975, 321.1754
353.6796, 322.6543
354.1617, 324.1504
354.6438, 326.3782
355.1259, 329.1963
355.6081, 331.8555
356.0902, 333.7192
356.5723, 335.2358
357.0544, 336.9134
357.5365, 338.8102
358.0186, 340.9200
358.5008, 343.5554
358.9829, 346.3974
359.4650, 348.7655
359.9471, 349.6695
360.4292, 350.4919
360.9113, 352.2519
361.3935, 355.1724
361.8756, 358.0034
362.3577, 360.3911
362.8398, 362.3715
363.3219, 363.9847
363.8040, 364.9762
364.2862, 365.8759
364.7683, 366.8096
365.2504, 367.7930
365.7325, 368.8675
366.2146, 370.1992
366.6967, 371.5354
367.1789, 372.7195
367.6610, 373.7605
368.1431, 374.6207
368.6252, 375.4228
369.1073, 376.0622
369.5894, 376.2248
370.0716, 375.9599
370.5537, 375.1647
371.0358, 373.7020
371.5179, 371.2711
372.0000, 369.0904
372.4821, 367.4052
372.9643, 365.8172
373.4464, 363.7984
373.9285, 361.2812
374.4106, 358.4734
374.8927, 355.2486
375.3748, 351.6234
375.8570, 348.6263
376.3391, 346.4783
376.8212, 344.4325
377.3033, 341.6859
377.7854, 338.0934
378.2675, 335.0010
378.7497, 332.6205
379.2318, 330.7899
379.7139, 329.0885
380.1960, 327.5392
380.6781, 326.0455
381.1602, 324.5177
381.6424, 322.9937
382.1245, 321.6923
382.6066, 320.6114
383.0887, 319.7733
383.5708, 319.2305
384.0529, 318.9613
384.5351, 318.8335
385.0172, 318.8531
385.4993, 318.9564
385.9814, 319.1659
386.4635, 319.4604
386.9456, 319.4424
387.4278, 318.3135
387.9099, 316.7599
388.3920, 315.9302
388.8741, 316.3722
389.3562, 317.1773
389.8383, 317.3877
390.3205, 317.2879
390.8026, 317.6786
391.2847, 319.8714
391.7668, 322.1395
392.2489, 323.0794
392.7310, 322.3335
393.2132, 321.2174
393.6953, 319.9475
394.1774, 318.8148
394.6595, 318.1678
395.1416, 318.5508
395.6237, 319.0307
396.1059, 319.3431
396.5880, 319.4808
397.0701, 319.4761
397.5522, 319.0247
398.0343, 318.6454
398.5164, 318.6522
398.9986, 319.6651
399.4807, 320.2950
399.9628, 320.1985
400.4449, 319.7177
400.9270, 319.6444
401.4091, 320.1844
401.8913, 320.8730
402.3734, 321.6294
402.8555, 322.5184
403.3376, 323.0902
403.8197, 323.2344
404.3018, 323.1869
404.7840, 323.2198
405.2661, 323.4014
405.7482, 323.3935
406.2303, 323.0486
406.7124, 322.4783
407.1945, 322.1141
407.6767, 321.9424
408.1588, 322.0233
408.6409, 322.6332
409.1230, 323.6978
409.6051, 324.1101
410.0872, 323.6924
410.5694, 322.8765
411.0515, 322.1202
411.5336, 321.4659
412.0157, 321.2083
412.4978, 321.9270
412.9799, 323.0065
413.4621, 323.1161
413.9442, 322.2771
414.4263, 321.2263
414.9084, 320.5244
415.3905, 320.0199
415.8727, 319.4471
416.3548, 318.6978
416.8369, 317.9299
417.3190, 317.2818
417.8011, 316.7226
418.2832, 316.1573
418.7654, 315.4295
419.2475, 314.7555
419.7296, 314.2611
420.2117, 313.9403
420.6938, 313.8725
421.1759, 314.4117
421.6581, 315.0833
422.1402, 315.3902
422.6223, 314.7329
423.1044, 314.1980
423.5865, 314.1197
424.0686, 314.4403
424.5508, 314.6859
425.0329, 314.9682
425.5150, 315.0397
425.9971, 314.7383
426.4792, 313.6672
426.9613, 313.0696
427.4435, 313.1708
427.9256, 313.6314
428.4077, 313.8985
428.8898, 313.8471
429.3719, 313.8906
429.8540, 314.1332
430.3362, 314.5674
430.8183, 315.2018
431.3004, 316.1502
431.7825, 316.9601
432.2646, 317.1436
432.7467, 316.6978
433.2289, 316.4089
433.7110, 316.3808
434.1931, 316.5614
434.6752, 317.0072
435.1573, 317.6747
435.6394, 318.1076
436.1216, 317.6935
436.6036, 316.9392
437.0858, 317.1328
437.5679, 318.3184
438.0500, 319.5910
438.5321, 320.1920
439.0142, 320.3330
439.4963, 320.3640
439.9785, 320.3640
440.4606, 320.3260
440.9427, 320.1331
441.4248, 319.8824
441.9069, 319.8603
442.3890, 320.5398
442.8712, 321.2622
443.3533, 321.5106
443.8354, 321.0953
444.3175, 320.8949
444.7996, 321.2833
445.2817, 321.9975
445.7639, 322.7654
446.2460, 323.7099
446.7281, 324.5140
447.2102, 325.0443
447.6923, 325.3386
448.1744, 325.6834
448.6566, 326.2522
449.1387, 326.6750
449.6208, 326.7200
450.1029, 326.1236
450.5850, 325.9311
451.0671, 326.1918
451.5493, 326.8048
452.0314, 327.7986
452.5135, 329.3770
452.9956, 330.4002
453.4777, 330.4279
453.9598, 329.6893
454.4420, 329.0609
454.9241, 328.5283
455.4062, 328.2989
455.8883, 328.7406
456.3704, 329.6786
456.8525, 330.2599
457.3347, 330.3216
457.8168, 330.2618
458.2989, 330.6137
458.7810, 331.2556
459.2631, 331.8152
459.7452, 332.0614
460.2274, 332.1932
460.7095, 332.4138
461.1916, 332.7198
461.6737, 333.0589
462.1558, 333.4807
462.6379, 333.8809
463.1201, 334.1174
463.6022, 334.0122
464.0843, 334.1035
464.5664, 334.7534
465.0485, 335.7072
465.5306, 336.5595
466.0128, 337.2254
466.4949, 337.7630
466.9770, 338.2103
467.4591, 338.5700
467.9412, 338.6924
468.4233, 338.3760
468.9055, 338.0024
469.3876, 337.7797
469.8697, 337.7250
470.3518, 337.7694
470.8339, 337.7936
471.3160, 338.0135
471.7982, 338.9916
472.2803, 340.9992
472.7624, 342.6756
473.2445, 343.4376
473.7266, 343.4599
474.2087, 343.7694
474.6909, 344.3889
475.1730, 345.0567
475.6551, 345.5622
476.1372, 345.9205
476.6193, 346.1605
477.1014, 346.2227
477.5836, 346.3441
478.0657, 346.9813
478.5478, 347.9414
479.0299, 348.6635
479.5120, 348.6709
479.9941, 348.4725
480.4763, 348.5193
480.9584, 348.8059
481.4405, 349.1917
481.9226, 349.6963
482.4047, 350.2166
482.8868, 350.6753
483.3690, 351.0581
483.8511, 351.3712
484.3332, 351.4682
484.8153, 351.5267
485.2974, 351.8370
485.7795, 352.6490
486.2617, 353.4991
486.7438, 354.4818
487.2259, 355.5833
487.7080, 355.8472
488.1901, 354.5622
488.6722, 353.3688
489.1544, 353.3383
489.6365, 354.8262
490.1186, 356.1596
490.6007, 357.4070
491.0828, 358.3141
491.5649, 358.1874
492.0471, 356.9561
492.5292, 356.3231
493.0113, 357.0654
493.4934, 358.6751
493.9755, 359.9117
494.4576, 360.7655
494.9398, 361.3314
495.4219, 361.3174
495.9040, 361.1347
496.3861, 361.6411
496.8682, 363.0514
497.3503, 364.5228
497.8325, 365.3561
498.3146, 365.8011
498.7967, 366.2621
499.2788, 366.9668
499.7609, 367.6623
500.2430, 368.2569
500.7252, 368.7520
501.2073, 369.1529
501.6894, 369.2891
502.1715, 369.4769
502.6536, 369.8790
503.1357, 370.5704
503.6179, 371.3169
504.1000, 372.1827
504.5821, 373.0519
505.0642, 373.8000
505.5463, 374.3608
506.0284, 374.9292
506.5106, 375.5213
506.9927, 376.1297
507.4748, 376.6768
507.9569, 377.0937
508.4390, 377.7545
508.9211, 379.0335
509.4033, 380.8121
509.8854, 382.0714
510.3675, 382.7721
510.8496, 383.2715
511.3317, 383.9470
511.8138, 384.7056
512.2960, 385.2589
512.7781, 385.4834
513.2602, 385.6372
513.7423, 385.9773
514.2244, 386.4621
514.7065, 386.9874
515.1887, 387.5844
515.6708, 388.1469
516.1529, 388.4774
516.6350, 388.5928
517.1171, 389.0306
517.5992, 390.4580
518.0814, 391.9475
518.5635, 392.8544
519.0456, 392.4651
519.5277, 392.5501
520.0098, 393.4013
520.4919, 394.6729
520.9741, 395.8962
521.4562, 397.1533
521.9383, 398.1503
522.4204, 398.7093
522.9025, 398.9300
523.3846, 399.4617
523.8668, 400.3279
524.3489, 401.3780
524.8310, 402.6277
525.3131, 404.0375
525.7952, 405.2690
526.2773, 406.3312
526.7595, 407.1170
527.2416, 407.1919
527.7237, 406.8791
528.2058, 407.0457
528.6879, 408.1680
529.1700, 409.5618
529.6522, 410.6725
530.1343, 411.5219
530.6164, 412.2004
531.0985, 412.3810
531.5806, 412.6940
532.0627, 413.7035
532.5449, 415.5000
533.0270, 416.9389
533.5091, 417.3981
533.9912, 417.5670
534.4733, 417.9205
534.9554, 418.5338
535.4376, 419.2808
535.9197, 420.1465
536.4018, 421.1389
536.8839, 422.3363
537.3660, 423.9930
537.8481, 425.1338
538.3303, 425.2565
538.8124, 424.6551
539.2945, 424.8622
539.7766, 425.8905
540.2587, 427.6172
540.7408, 430.9913
541.2230, 435.1448
541.7051, 436.3305
542.1872, 434.0495
542.6693, 430.8541
543.1514, 428.7856
543.6335, 427.6809
544.1157, 427.2520
544.5978, 427.9800
545.0799, 428.5533
545.5620, 427.7952
546.0441, 426.1635
546.5262, 424.7880
547.0084, 424.5022
547.4905, 424.1906
547.9726, 423.1931
548.4547, 421.3927
548.9368, 420.1281
549.4189, 419.9884
549.9011, 420.0185
550.3832, 419.6517
550.8653, 418.5928
551.3474, 417.8176
551.8295, 417.4096
552.3116, 417.2033
552.7938, 416.9789
553.2759, 416.7330
553.7580, 416.5010
554.2401, 416.3403
554.7222, 416.1602
555.2043, 415.5597
555.6865, 414.6049
556.1686, 413.9554
556.6507, 414.2798
557.1328, 415.0684
557.6149, 415.4321
558.0970, 415.3218
558.5792, 415.5171
559.0613, 417.1093
559.5434, 419.0285
560.0255, 420.1746
560.5076, 420.0311
560.9897, 419.5467
561.4719, 418.6704
561.9540, 417.7134
562.4361, 417.2037
562.9182, 417.4329
563.4003, 417.8637
563.8824, 418.5187
564.3646, 419.3304
564.8467, 419.8156
565.3288, 419.7365
565.8109, 419.8069
566.2930, 420.4712
566.7751, 421.7499
567.2573, 422.9217
567.7394, 424.0241
568.2215, 424.8741
568.7036, 425.1050
569.1857, 424.8960
569.6678, 424.9703
570.1500, 425.5729
570.6321, 426.2719
571.1142, 426.7310
571.5963, 426.9057
572.0784, 426.6935
572.5605, 425.2018
573.0427, 424.0568
573.5248, 424.6227
574.0069, 426.6191
574.4890, 428.1353
574.9711, 427.9626
575.4532, 427.6497
575.9354, 428.0377
576.4175, 429.4902
576.8996, 430.4785
577.3817, 430.6620
577.8638, 430.7043
578.3459, 431.3181
578.8281, 432.7755
579.3102, 433.5978
579.7923, 433.4879
580.2744, 432.8667
580.7565, 432.4371
581.2386, 432.1971
581.7208, 432.1548
582.2029, 432.2796
582.6850, 432.6251
583.1671, 433.4806
583.6492, 434.7439
584.1313, 435.8003
584.6134, 436.0274
585.0955, 436.0255
585.5776, 436.4319
586.0598, 437.3659
586.5419, 438.1623
587.0240, 438.4981
587.5061, 438.6130
587.9882, 438.7001
588.4703, 438.6382
588.9525, 438.7557
589.4346, 438.9735
589.9167, 439.4048
590.3988, 440.3385
590.8809, 442.1134
591.3630, 443.4376
591.8452, 443.8567
592.3273, 443.6483
592.8094, 443.9249
593.2915, 444.7113
593.7736, 445.5181
594.2557, 446.1996
594.7379, 446.6697
595.2200, 446.5133
595.7021, 445.7291
596.1842, 445.1424
596.6663, 445.6705
597.1484, 446.6696
597.6306, 447.3393
598.1127, 447.4080
598.5948, 447.4494
599.0769, 447.6548
599.5590, 448.0174
600.0411, 448.5298
600.5233, 449.4257
601.0054, 450.1982
601.4875, 450.8621
601.9696, 451.3503
602.4517, 451.3773
602.9338, 450.5932
603.4160, 450.1084
603.8981, 450.3632
604.3802, 451.2919
604.8623, 452.2431
605.3444, 453.2364
605.8265, 454.1532
606.3087, 454.8294
606.7908, 455.3569
607.2729, 456.0399
607.7550, 456.9233
608.2371, 457.7837
608.7192, 458.4489
609.2014, 458.9625
609.6835, 459.4005
610.1656, 459.7836
610.6477, 460.0747
611.1298, 460.1471
611.6119, 460.1348
612.0941, 460.2804
612.5762, 460.5518
613.0583, 461.0822
613.5404, 461.9688
614.0225, 463.1415
614.5046, 464.3501
614.9868, 465.6747
615.4689, 466.8274
615.9510, 467.6373
616.4331, 468.1184
616.9152, 468.6921
617.3973, 469.3756
617.8795, 469.9799
618.3616, 470.1702
618.8437, 470.1594
619.3258, 470.5147
619.8079, 471.3818
620.2900, 472.2939
620.7722, 472.8535
621.2543, 473.2120
621.7364, 473.5674
622.2185, 473.8247
622.7006, 474.2897
623.1827, 475.3448
623.6649, 476.6759
624.1470, 477.5309
624.6291, 477.2076
625.1112, 477.1784
625.5933, 477.8867
626.0754, 479.2003
626.5576, 480.1415
627.0397, 480.6472
627.5218, 480.9688
628.0039, 481.1205
628.4860, 481.1497
628.9681, 481.5753
629.4503, 482.4292
629.9324, 483.2769
630.4145, 483.7057
630.8966, 483.8844
631.3787, 484.1595
631.8608, 484.6689
632.3430, 484.9607
632.8251, 484.3066
633.3072, 483.4209
633.7893, 483.1710
634.2714, 484.5889
634.7535, 485.7453
635.2357, 485.9068
635.7178, 485.5851
636.1999, 486.0177
636.6820, 487.9084
637.1641, 489.1891
637.6462, 489.0307
638.1284, 487.8226
638.6105, 487.7715
639.0926, 488.9875
639.5747, 490.2499
640.0568, 490.7495
640.5389, 490.7403
641.0211, 490.8947
641.5032, 491.2230
641.9853, 491.7489
642.4674, 492.9375
642.9495, 494.1119
643.4316, 494.3537
643.9138, 493.2365
644.3959, 492.3552
644.8780, 492.4252
645.3601, 493.0630
645.8422, 493.8916
646.3243, 495.6661
646.8065, 496.5298
647.2886, 495.9410
647.7707, 494.6906
648.2528, 494.1468
648.7349, 494.3984
649.2170, 495.0293
649.6992, 496.0078
650.1813, 497.2377
650.6634, 498.7210
651.1455, 500.3823
651.6276, 501.5450
652.1097, 501.4962
652.5919, 500.9292
653.0740, 500.7350
653.5561, 500.8891
654.0382, 501.0727
654.5203, 500.6180
655.0024, 500.4892
655.4846, 501.6244
655.9667, 504.5581
656.4488, 506.5536
656.9309, 506.6701
657.4130, 506.1411
657.8951, 505.6696
658.3773, 505.0989
658.8594, 505.1002
659.3415, 505.8231
659.8236, 506.8850
660.3057, 507.8570
660.7878, 508.7270
661.2700, 509.4724
661.7521, 510.1425
662.2342, 510.5718
662.7163, 510.2556
663.1984, 509.5188
663.6805, 509.1680
664.1627, 509.9291
664.6448, 510.8621
665.1269, 511.3461
665.6090, 511.5320
666.0911, 511.9865
666.5732, 513.5487
667.0554, 514.6728
667.5375, 514.5281
668.0196, 513.1443
668.5017, 513.0192
668.9838, 514.5080
669.4659, 516.3940
669.9481, 518.2612
670.4302, 520.0358
670.9123, 520.5210
671.3944, 519.5900
671.8765, 518.5548
672.3586, 518.7269
672.8408, 519.6201
673.3229, 520.4571
673.8050, 521.1433
674.2871, 521.6059
674.7692, 521.5152
675.2513, 521.2995
675.7335, 521.4360
676.2156, 522.2794
676.6977, 523.1968
677.1798, 524.4381
677.6619, 525.5973
678.1440, 525.9731
678.6262, 525.1812
679.1083, 524.6041
679.5904, 524.4034
680.0725, 524.6784
680.5546, 526.0072
681.0367, 528.3210
681.5189, 530.1832
682.0010, 530.5839
682.4831, 530.3731
682.9652, 530.8582
683.4473, 531.9113
683.9294, 532.9888
684.4116, 533.8775
684.8937, 534.6044
685.3758, 535.1493
685.8579, 535.5022
686.3400, 535.8851
686.8221, 536.2894
687.3043, 536.7815
687.7864, 537.4167
688.2685, 538.2349
688.7506, 539.0135
689.2327, 539.7819
689.7148, 540.4606
690.1970, 540.9486
690.6791, 541.2736
691.1612, 541.5207
691.6433, 541.6538
692.1254, 541.9617
692.6075, 543.2338
693.0897, 544.7439
693.5718, 545.2252
694.0539, 543.5318
694.5360, 542.2576
695.0181, 542.9634
695.5002, 544.7064
695.9824, 546.0189
696.4645, 546.3269
696.9466, 546.7112
697.4287, 547.3041
697.9108, 548.0458
698.3929, 548.8016
698.8751, 549.5925
699.3572, 550.3119
699.8393, 550.8220
700.3214, 551.3281
700.8035, 552.4440
701.2856, 554.0701
701.7678, 555.6371
702.2499, 557.1785
702.7320, 558.2454
703.2141, 557.9861
703.6962, 556.6254
704.1783, 555.9095
704.6605, 557.0563
705.1426, 558.5021
705.6247, 559.4613
706.1068, 559.8489
706.5889, 560.3196
707.0710, 560.8016
707.5532, 561.4738
708.0353, 562.7051
708.5174, 564.4975
708.9995, 565.1686
709.4816, 564.5654
709.9637, 563.7591
710.4459, 563.7541
710.9280, 564.2963
711.4101, 564.9786
711.8922, 565.7965
712.3743, 566.4999
712.8564, 566.6562
713.3386, 566.7555
713.8207, 567.3354
714.3028, 569.2217
714.7849, 570.5032
715.2670, 570.3203
715.7491, 569.9374
716.2313, 571.3388
716.7134, 575.2908
717.1955, 577.5528
717.6776, 576.9697
718.1597, 575.0988
718.6418, 574.8731
719.1240, 575.9774
719.6061, 576.9520
720.0882, 577.2048
720.5703, 577.1276
721.0524, 576.7634
721.5345, 576.3772
722.0167, 576.6068
722.4988, 578.4890
722.9809, 580.2193
723.4630, 581.0611
723.9451, 581.1647
724.4272, 581.3511
724.9094, 581.6811
725.3915, 582.0142
725.8736, 582.3349
726.3557, 582.6288
726.8378, 582.5990
727.3199, 582.2374
727.8021, 582.3873
728.2842, 584.0721
728.7663, 586.3965
729.2484, 587.8255
729.7305, 588.3698
730.2126, 588.8177
730.6948, 589.3640
731.1769, 590.1347
731.6590, 591.3502
732.1411, 593.1569
732.6232, 594.4503
733.1053, 595.0253
733.5875, 595.2348
734.0696, 595.1866
734.5517, 594.8073
735.0338, 594.7599
735.5159, 595.0790
735.9980, 595.6148
736.4802, 596.2123
736.9623, 596.9277
737.4444, 597.9730
737.9265, 599.4353
738.4086, 600.8253
738.8907, 601.7104
739.3729, 602.3613
739.8550, 603.0809
740.3371, 604.1264
740.8192, 604.8546
741.3013, 604.7452
741.7834, 604.5053
742.2656, 604.8265
742.7477, 605.8509
743.2298, 606.9553
743.7119, 608.1272
744.1940, 609.2127
744.6761, 609.9469
745.1583, 610.3749
745.6404, 610.6666
746.1225, 610.7462
746.6046, 610.9912
747.0867, 612.0306
747.5688, 613.4478
748.0510, 614.5139
748.5331, 614.8825
749.0152, 615.0156
749.4973, 614.7661
749.9794, 614.4281
750.4615, 614.5753
750.9437, 615.2842
751.4258, 616.3640
751.9079, 618.0300
752.3900, 619.8091
752.8721, 620.3432
753.3542, 619.7576
753.8364, 619.3065
754.3185, 619.4399
754.8006, 620.0505
755.2827, 621.2175
755.7648, 622.7787
756.2469, 624.2430
756.7291, 625.5054
757.2112, 626.5172
757.6933, 627.0348
758.1754, 627.2051
758.6575, 627.9258
759.1396, 629.5477
759.6218, 631.0081
760.1039, 632.0024
760.5860, 632.5403
761.0681, 632.5446
761.5502, 632.0391
762.0323, 631.7687
762.5145, 632.1878
762.9966, 633.0930
763.4787, 634.4797
763.9608, 636.2194
764.4429, 637.5578
764.9250, 637.6296
765.4072, 637.6635
765.8893, 638.3958
766.3714, 639.8973
766.8535, 641.0496
767.3356, 641.7277
767.8177, 642.2591
768.2999, 642.6837
768.7820, 643.0370
769.2641, 643.8699
769.7462, 645.1825
770.2283, 646.5223
770.7104, 647.6914
771.1926, 648.6086
771.6747, 648.8624
772.1568, 648.4800
772.6389, 648.7473
773.1210, 651.2070
773.6031, 653.7859
774.0853, 655.1173
774.5674, 654.8954
775.0495, 654.8517
775.5316, 654.9758
776.0137, 655.3270
776.4958, 655.9357
776.9780, 656.8105
777.4601, 658.2460
777.9422, 660.3188
778.4243, 661.8987
778.9064, 661.3835
779.3885, 660.1218
779.8707, 660.0949
780.3528, 661.6317
780.8349, 662.9310
781.3170, 662.5434
781.7991, 662.0591
782.2812, 662.7840
782.7633, 665.3105
783.2454, 666.9109
783.7275, 667.2322
784.2097, 667.2405
784.6918, 667.6886
785.1739, 668.5400
785.6560, 669.5698
786.1381, 670.7982
786.6202, 671.8751
787.1024, 672.1512
787.5845, 672.2502
788.0666, 673.0660
788.5487, 674.9232
789.0308, 676.5778
789.5129, 677.3456
789.9951, 677.9138
790.4772, 678.8510
790.9593, 680.4376
791.4414, 681.4850
791.9235, 681.6967
792.4056, 682.0619
792.8878, 683.9432
793.3699, 686.9453
793.8520, 688.9099
794.3341, 689.5549
794.8162, 689.9029
795.2983, 690.4203
795.7805, 691.3676
796.2626, 693.3342
796.7447, 697.1083
797.2268, 699.6652
797.7089, 698.9357
798.1910, 697.6973
798.6732, 698.1074
799.1553, 700.7161
799.6374, 702.9608
800.1195, 704.7449
800.6016, 706.3236
801.0837, 707.9616
801.5659, 709.6305
802.0480, 711.3203
802.5301, 713.0485
803.0122, 714.5173
803.4943, 714.9604
803.9764, 715.3408
804.4586, 716.6884
804.9407, 719.6658
805.4228, 722.4061
805.9049, 724.7729
806.3870, 726.8094
806.8691, 728.3777
807.3513, 729.3077
807.8334, 731.3958
808.3155, 734.9270
808.7976, 738.5878
809.2797, 741.0251
809.7618, 742.5910
810.2440, 743.7336
810.7261, 744.3969
811.2082, 745.5949
811.6903, 748.4455
812.1724, 751.7532
812.6545, 754.4492
813.1367, 756.2374
813.6188, 757.9205
814.1009, 759.3528
814.5830, 760.8929
815.0651, 763.0248
815.5472, 765.6844
816.0294, 767.7768
816.5115, 769.1806
816.9936, 770.4756
817.4757, 772.5767
817.9578, 774.6901
818.4399, 775.5255
818.9221, 774.5282
819.4042, 774.3452
819.8863, 776.7543
820.3684, 779.6332
820.8505, 781.5162
821.3326, 782.1439
821.8148, 782.8604
822.2969, 783.7159
822.7790, 784.4484
823.2611, 784.6069
823.7432, 784.4308
824.2253, 784.8733
824.7075, 786.0035
825.1896, 786.8898
825.6717, 786.5768
826.1538, 785.9021
826.6359, 785.5756
827.1180, 785.7677
827.6002, 785.8572
828.0823, 785.9808
828.5644, 785.7640
829.0465, 784.7706
829.5286, 782.9841
830.0107, 782.2220
830.4929, 782.5592
830.9750, 783.2621
831.4571, 783.9999
831.9392, 784.6375
832.4213, 784.8913
832.9034, 784.7629
833.3856, 784.6031
833.8677, 784.0350
834.3498, 783.9444
834.8319, 785.0734
835.3140, 787.4568
835.7961, 789.5700
836.2783, 791.4969
836.7604, 792.8995
837.2425, 793.2607
837.7246, 792.9352
838.2067, 793.4138
838.6888, 794.6455
839.1710, 796.1517
839.6531, 797.7173
840.1352, 799.3450
840.6173, 800.9365
841.0994, 802.5228
841.5815, 804.4164
842.0637, 807.3288
842.5458, 809.7795
843.0279, 811.2404
843.5100, 811.8450
843.9921, 812.3589
844.4742, 812.7760
844.9564, 813.2483
845.4385, 813.6197
845.9206, 814.2809
846.4027, 816.1313
846.8848, 818.8538
847.3669, 821.3253
847.8491, 823.1534
848.3312, 824.5509
848.8133, 825.2987
849.2954, 825.7028
849.7775, 826.6591
850.2596, 828.1957
850.7418, 830.2415
851.2239, 832.8848
851.7060, 835.8837
852.1881, 838.6893
852.6702, 841.3458
853.1523, 843.9614
853.6345, 846.4846
854.1166, 849.0854
854.5987, 851.9476
855.0808, 854.9199
855.5629, 857.7955
856.0450, 860.4656
856.5272, 863.0725
857.0093, 865.5660
857.4914, 868.0460
857.9735, 870.7294
858.4556, 873.5958
858.9377, 876.3885
859.4199, 879.0216
859.9020, 881.5775
860.3841, 883.6774
860.8662, 885.9125
861.3483, 889.2895
861.8304, 894.9375
862.3126, 900.1153
862.7947, 903.8734
863.2768, 907.0216
863.7589, 910.0173
864.2410, 912.6390
864.7231, 916.4756
865.2053, 921.8193
865.6874, 927.5720
866.1695, 932.7159
866.6516, 937.4011
867.1337, 941.9888
867.6158, 946.5281
868.0980, 950.8908
868.5801, 954.7579
869.0622, 958.6572
869.5443, 963.2296
870.0264, 968.9622
870.5085, 973.2938
870.9907, 975.9273
871.4728, 977.9071
871.9549, 979.7210
872.4370, 981.4792
872.9191, 983.7623
873.4012, 986.5568
873.8834, 989.0559
874.3655, 990.6473
874.8476, 991.7737
875.3297, 993.1035
875.8118, 994.6122
876.2939, 994.3744
876.7761, 991.6140
877.2582, 988.1962
877.7403, 984.6709
878.2224, 981.0219
878.7045, 977.3096
879.1866, 973.5157
879.6688, 969.6371
880.1509, 965.9610
880.6330, 961.9686
881.1151, 956.7337
881.5972, 950.7137
882.0793, 945.3141
882.5615, 941.4364
883.0436, 937.5717
883.5257, 933.3214
884.0078, 928.9453
884.4899, 924.9792
884.9720, 921.4300
885.4542, 918.3434
885.9363, 915.8556
886.4184, 913.5293
886.9005, 910.5836
887.3826, 907.4198
887.8647, 904.7662
888.3469, 903.0034
888.8290, 901.4850
889.3111, 900.4807
889.7932, 899.3532
890.2753, 897.1608
890.7574, 893.2600
891.2396, 891.4968
891.7217, 892.5032
892.2038, 893.8912
892.6859, 892.7878
893.1680, 890.2313
893.6501, 888.1902
894.1323, 886.9110
894.6144, 886.2275
895.0965, 886.9730
895.5786, 887.5656
896.0607, 886.5844
896.5428, 883.7207
897.0250, 882.1231
897.5071, 881.9503
897.9892, 882.5497
898.4713, 883.9817
898.9534, 885.7972
899.4355, 886.6260
899.9177, 886.5653
900.3998, 886.3594
900.8819, 886.2453
901.3640, 886.2776
901.8461, 886.7143
902.3282, 887.3802
902.8104, 887.2818
903.2925, 885.9349
903.7746, 884.9471
904.2567, 884.8558
904.7388, 885.3266
905.2209, 885.7454
905.7031, 886.0756
906.1852, 886.1453
906.6673, 885.7699
907.1494, 885.3286
907.6315, 884.8429
908.1136, 884.5494
908.5958, 884.8623
909.0779, 886.3410
909.5600, 887.4980
910.0421, 888.2507
910.5242, 888.6876
911.0063, 888.7524
911.4885, 888.5587
911.9706, 888.6798
912.4527, 889.2003
912.9348, 889.9600
913.4169, 891.0956
913.8990, 892.2292
914.3812, 892.8976
914.8633, 892.7969
915.3454, 893.3925
915.8275, 895.1779
916.3096, 896.8324
916.7917, 897.4191
917.2739, 897.1412
917.7560, 897.5481
918.2381, 898.5635
918.7202, 899.3643
919.2023, 898.9441
919.6844, 898.4858
920.1666, 899.0310
920.6487, 900.4192
921.1308, 901.6710
921.6129, 902.7471
922.0950, 903.5423
922.5771, 903.9498
923.0593, 904.1456
923.5414, 904.6221
924.0235, 905.3250
924.5056, 905.8102
924.9877, 905.8531
925.4698, 905.8269
925.9520, 906.1019
926.4341, 906.5011
926.9162, 906.7659
927.3983, 906.1464
927.8804, 906.5508
928.3625, 908.4615
928.8447, 910.6951
929.3268, 911.9835
929.8089, 912.4280
930.2910, 912.9320
930.7731, 913.5680
931.2552, 914.1972
931.7374, 914.6277
932.2195, 915.0624
932.7016, 915.6907
933.1837, 916.5324
933.6658, 917.4332
934.1479, 918.4622
934.6301, 919.4159
935.1122, 920.2463
935.5943, 920.9322
936.0764, 921.0970
936.5585, 920.8807
937.0406, 921.2838
937.5228, 923.6304
938.0049, 926.0820
938.4870, 926.9728
938.9691, 926.9509
939.4512, 927.6017
939.9333, 929.9536
940.4155, 931.4717
940.8976, 931.5169
941.3797, 931.1036
941.8618, 931.9955
942.3439, 933.8853
942.8260, 935.2004
943.3082, 935.5568
943.7903, 935.8760
944.2724, 937.0377
944.7545, 938.3809
945.2366, 939.2495
945.7188, 939.3106
946.2009, 939.7939
946.6830, 940.8500
947.1651, 942.0060
947.6472, 943.1747
948.1293, 944.2092
948.6115, 944.2805
949.0936, 943.5124
949.5757, 942.8165
950.0578, 942.7958
950.5399, 942.9994
951.0220, 942.9082
951.5042, 942.8030
951.9863, 943.8445
952.4684, 946.5865
952.9505, 949.0805
953.4326, 951.0093
953.9147, 952.2939
954.3969, 952.3925
954.8790, 951.7665
955.3611, 951.6722
955.8432, 952.4980
956.3253, 953.8021
956.8074, 955.9741
957.2896, 958.0991
957.7717, 959.2038
958.2538, 958.7629
958.7359, 959.1723
959.2180, 960.5430
959.7001, 962.1893
960.1823, 963.8391
960.6644, 965.2502
961.1465, 965.3663
961.6286, 964.4254
962.1107, 964.5905
962.5928, 968.3519
963.0750, 971.9083
963.5571, 973.4086
964.0392, 973.4405
964.5213, 974.3572
965.0034, 976.3877
965.4855, 977.2598
965.9677, 975.8350
966.4498, 973.9575
966.9319, 974.2040
967.4140, 975.8734
967.8961, 977.7839
968.3782, 980.0950
968.8604, 981.7318
969.3425, 982.1050
969.8246, 982.1451
970.3067, 982.5167
970.7888, 983.2053
971.2709, 984.3669
971.7531, 986.0020
972.2352, 987.7863
972.7173, 989.4599
973.1994, 991.1221
973.6815, 992.9780
974.1636, 994.9642
974.6458, 996.4728
975.1279, 996.6716
975.6100, 997.4475
976.0921, 999.5370
976.5742, 1002.382
977.0563, 1004.417
977.5385, 1005.769
978.0206, 1007.109
978.5027, 1008.707
978.9848, 1010.316
979.4669, 1011.954
979.9490, 1013.417
980.4311, 1014.386
980.9132, 1014.413
981.3953, 1014.941
981.8774, 1016.061
982.3596, 1017.475
982.8417, 1019.155
983.3238, 1020.884
983.8059, 1021.876
984.2880, 1022.153
984.7701, 1022.403
985.2523, 1022.950
985.7344, 1023.625
986.2165, 1024.091
986.6986, 1024.565
987.1807, 1026.415
987.6628, 1030.068
988.1450, 1032.315
988.6271, 1031.764
989.1092, 1030.276
989.5913, 1030.605
990.0734, 1032.016
990.5555, 1033.119
991.0377, 1033.154
991.5198, 1033.653
992.0019, 1035.483
992.4840, 1037.437
992.9661, 1038.592
993.4482, 1038.927
993.9304, 1039.106
994.4125, 1039.126
994.8946, 1039.683
995.3767, 1041.873
995.8588, 1044.375
996.3409, 1045.872
996.8231, 1046.469
997.3052, 1047.277
997.7873, 1048.857
998.2694, 1049.808
998.7515, 1049.415
999.2336, 1048.744
999.7158, 1050.409
1000.198, 1053.727
1000.680, 1056.195
1001.162, 1057.106
1001.644, 1057.157
1002.126, 1055.588
1002.608, 1054.159
1003.091, 1054.767
1003.573, 1057.984
1004.055, 1059.888
1004.537, 1060.324
1005.019, 1060.285
1005.501, 1060.215
1005.983, 1060.241
1006.465, 1060.935
1006.948, 1061.995
1007.430, 1062.281
1007.912, 1059.802
1008.394, 1058.460
1008.876, 1059.874
1009.358, 1062.496
1009.840, 1063.492
1010.322, 1062.918
1010.804, 1062.609
1011.287, 1062.868
1011.769, 1063.443
1012.251, 1064.468
1012.733, 1065.446
1013.215, 1065.730
1013.697, 1065.038
1014.179, 1065.017
1014.661, 1066.018
1015.143, 1066.995
1015.626, 1067.261
1016.108, 1067.212
1016.590, 1068.056
1017.072, 1069.646
1017.554, 1071.457
1018.036, 1073.636
1018.518, 1075.529
1019.000, 1076.806
1019.483, 1077.627
1019.965, 1078.126
1020.447, 1078.157
1020.929, 1078.752
1021.411, 1080.062
1021.893, 1081.363
1022.375, 1081.580
1022.857, 1081.597
1023.339, 1082.976
1023.822, 1085.731
1024.304, 1087.163
1024.786, 1085.435
1025.268, 1083.903
1025.750, 1083.304
1026.232, 1083.742
1026.714, 1086.159
1027.196, 1090.094
1027.679, 1093.098
1028.161, 1094.115
1028.643, 1094.581
1029.125, 1095.167
1029.607, 1095.853
1030.089, 1096.618
1030.571, 1097.443
1031.053, 1098.381
1031.536, 1099.474
1032.018, 1100.428
1032.500, 1100.488
1032.982, 1100.538
1033.464, 1102.671
1033.946, 1106.259
1034.428, 1108.695
1034.910, 1107.769
1035.392, 1107.180
1035.875, 1107.863
1036.357, 1109.208
1036.839, 1110.202
1037.321, 1110.890
1037.803, 1111.453
1038.285, 1111.883
1038.767, 1112.595
1039.249, 1114.367
1039.731, 1116.228
1040.214, 1117.290
1040.696, 1117.432
1041.178, 1117.700
1041.660, 1118.029
1042.142, 1118.711
1042.624, 1119.991
1043.106, 1121.562
1043.588, 1123.141
1044.071, 1124.581
1044.553, 1125.547
1045.035, 1125.235
1045.517, 1125.555
1045.999, 1127.502
1046.481, 1129.550
1046.963, 1129.878
1047.445, 1128.678
1047.927, 1129.259
1048.410, 1131.689
1048.892, 1134.194
1049.374, 1135.477
1049.856, 1136.411
1050.338, 1137.948
1050.820, 1139.705
1051.302, 1139.723
1051.784, 1137.038
1052.266, 1136.110
1052.749, 1138.242
1053.231, 1141.278
1053.713, 1142.279
1054.195, 1142.103
1054.677, 1142.119
1055.159, 1142.570
1055.641, 1143.263
1056.123, 1143.771
1056.606, 1145.011
1057.088, 1147.776
1057.570, 1151.630
1058.052, 1154.135
1058.534, 1155.400
1059.016, 1156.154
1059.498, 1156.245
1059.980, 1156.579
1060.463, 1158.187
1060.945, 1160.171
1061.427, 1161.113
1061.909, 1160.338
1062.391, 1161.078
1062.873, 1163.636
1063.355, 1166.427
1063.837, 1167.906
1064.319, 1168.875
1064.802, 1170.825
1065.284, 1173.466
1065.766, 1174.798
1066.248, 1172.691
1066.730, 1171.440
1067.212, 1172.037
1067.694, 1173.585
1068.176, 1174.383
1068.658, 1174.703
1069.141, 1175.547
1069.623, 1177.143
1070.105, 1178.986
1070.587, 1181.570
1071.069, 1183.585
1071.551, 1183.885
1072.033, 1182.665
1072.515, 1182.635
1072.998, 1183.826
1073.480, 1185.179
1073.962, 1186.153
1074.444, 1187.163
1074.926, 1189.082
1075.408, 1191.172
1075.890, 1192.176
1076.372, 1190.395
1076.854, 1190.648
1077.337, 1193.635
1077.819, 1196.775
1078.301, 1197.681
1078.783, 1197.227
1079.265, 1197.228
1079.747, 1197.731
1080.229, 1198.677
1080.711, 1200.492
1081.193, 1202.195
1081.676, 1203.635
1082.158, 1204.738
1082.640, 1205.038
1083.122, 1204.687
1083.604, 1205.416
1084.086, 1207.532
1084.568, 1209.752
1085.050, 1211.034
1085.532, 1212.108
1086.015, 1213.700
1086.497, 1215.705
1086.979, 1216.753
1087.461, 1216.673
1087.943, 1216.915
1088.425, 1218.081
1088.907, 1219.549
1089.389, 1220.692
1089.872, 1221.546
1090.354, 1222.152
1090.836, 1222.488
1091.318, 1222.537
1091.800, 1221.803
1092.282, 1221.840
1092.764, 1224.085
1093.246, 1227.645
1093.729, 1229.953
1094.211, 1231.205
1094.693, 1232.093
1095.175, 1233.031
1095.657, 1233.472
1096.139, 1232.469
1096.621, 1231.582
1097.103, 1232.894
1097.585, 1236.282
1098.068, 1238.596
1098.550, 1239.672
1099.032, 1240.200
1099.514, 1239.819
1099.996, 1239.879
1100.478, 1241.699
1100.960, 1244.785
1101.442, 1247.212
1101.924, 1249.000
1102.407, 1250.052
1102.889, 1250.224
1103.371, 1250.227
1103.853, 1250.459
1104.335, 1251.210
1104.817, 1253.027
1105.299, 1256.097
1105.781, 1258.848
1106.264, 1261.469
1106.746, 1262.896
1107.228, 1262.197
1107.710, 1260.752
1108.192, 1261.749
1108.674, 1264.177
1109.156, 1265.582
1109.638, 1264.187
1110.120, 1264.401
1110.603, 1269.121
1111.085, 1273.606
1111.567, 1274.507
1112.049, 1272.470
1112.531, 1272.261
1113.013, 1273.610
1113.495, 1274.737
1113.977, 1274.318
1114.459, 1273.923
1114.942, 1274.271
1115.424, 1275.118
1115.906, 1276.211
1116.388, 1277.604
1116.870, 1278.590
1117.352, 1279.107
1117.834, 1280.017
1118.316, 1283.049
1118.799, 1285.852
1119.281, 1285.556
1119.763, 1283.178
1120.245, 1283.377
1120.727, 1287.131
1121.209, 1290.228
1121.691, 1291.936
1122.173, 1292.927
1122.656, 1293.879
1123.138, 1294.652
1123.620, 1294.998
1124.102, 1294.870
1124.584, 1294.687
1125.066, 1293.905
1125.548, 1294.345
1126.030, 1296.902
1126.512, 1300.540
1126.995, 1303.751
1127.477, 1306.325
1127.959, 1307.508
1128.441, 1306.666
1128.923, 1306.269
1129.405, 1307.010
1129.887, 1308.562
1130.369, 1311.391
1130.851, 1314.814
1131.334, 1314.994
1131.816, 1312.664
1132.298, 1311.337
1132.780, 1312.894
1133.262, 1315.127
1133.744, 1317.393
1134.226, 1319.565
1134.708, 1321.566
1135.191, 1323.386
1135.673, 1324.803
1136.155, 1325.832
1136.637, 1326.632
1137.119, 1327.021
1137.601, 1327.547
1138.083, 1328.790
1138.565, 1330.432
1139.047, 1331.871
1139.530, 1333.309
1140.012, 1333.291
1140.494, 1331.504
1140.976, 1330.168
1141.458, 1331.544
1141.940, 1334.169
1142.422, 1337.207
1142.904, 1340.256
1143.386, 1341.562
1143.869, 1340.271
1144.351, 1339.680
1144.833, 1340.398
1145.315, 1341.848
1145.797, 1343.782
1146.279, 1345.725
1146.761, 1346.782
1147.243, 1346.819
1147.726, 1347.518
1148.208, 1349.136
1148.690, 1351.409
1149.172, 1354.633
1149.654, 1357.935
1150.136, 1359.402
1150.618, 1359.718
1151.100, 1360.286
1151.583, 1361.484
1152.065, 1362.546
1152.547, 1363.040
1153.029, 1363.663
1153.511, 1364.698
1153.993, 1366.099
1154.475, 1368.144
1154.957, 1370.494
1155.439, 1371.967
1155.922, 1371.756
1156.404, 1371.462
1156.886, 1371.149
1157.368, 1371.527
1157.850, 1373.581
1158.332, 1376.982
1158.814, 1378.077
1159.296, 1377.233
1159.778, 1376.802
1160.261, 1378.597
1160.743, 1380.419
1161.225, 1380.999
1161.707, 1381.181
1162.189, 1381.609
1162.671, 1382.248
1163.153, 1384.465
1163.635, 1388.212
1164.118, 1391.534
1164.600, 1392.541
1165.082, 1393.248
1165.564, 1395.434
1166.046, 1397.972
1166.528, 1398.412
1167.010, 1396.403
1167.492, 1396.208
1167.974, 1398.334
1168.457, 1400.248
1168.939, 1398.783
1169.421, 1397.222
1169.903, 1398.509
1170.385, 1402.113
1170.867, 1405.090
1171.349, 1407.536
1171.831, 1408.689
1172.313, 1408.236
1172.796, 1407.412
1173.278, 1406.748
1173.760, 1406.864
1174.242, 1409.030
1174.724, 1413.111
1175.206, 1415.052
1175.688, 1414.025
1176.170, 1414.537
1176.653, 1418.265
1177.135, 1422.305
1177.617, 1422.355
1178.099, 1420.902
1178.581, 1421.203
1179.063, 1423.958
1179.545, 1425.285
1180.027, 1424.396
1180.510, 1424.553
1180.992, 1427.471
1181.474, 1430.984
1181.956, 1431.461
1182.438, 1430.519
1182.920, 1430.756
1183.402, 1433.078
1183.884, 1434.918
1184.366, 1435.893
1184.849, 1437.264
1185.331, 1440.176
1185.813, 1443.318
1186.295, 1443.789
1186.777, 1442.806
1187.259, 1442.657
1187.741, 1444.495
1188.223, 1445.961
1188.705, 1446.973
1189.188, 1447.481
1189.670, 1446.820
1190.152, 1446.020
1190.634, 1447.654
1191.116, 1450.905
1191.598, 1453.817
1192.080, 1455.802
1192.562, 1457.210
1193.045, 1457.860
1193.527, 1458.395
1194.009, 1459.313
1194.491, 1460.499
1194.973, 1461.600
1195.455, 1462.718
1195.937, 1464.213
1196.419, 1466.697
1196.901, 1468.887
1197.384, 1470.792
1197.866, 1472.103
1198.348, 1472.270
1198.830, 1471.741
1199.312, 1471.344
1199.794, 1471.228
1200.276, 1471.893
1200.758, 1474.703
1201.240, 1476.650
1201.723, 1477.204
1202.205, 1476.988
1202.687, 1475.990
1203.169, 1475.024
1203.651, 1476.564
1204.133, 1480.470
1204.615, 1484.066
1205.097, 1486.912
1205.580, 1488.393
1206.062, 1487.932
1206.544, 1486.882
1207.026, 1487.197
1207.508, 1488.458
1207.990, 1489.571
1208.472, 1490.444
1208.954, 1491.804
1209.437, 1494.812
1209.919, 1497.073
1210.401, 1497.865
1210.883, 1497.942
1211.365, 1498.242
1211.847, 1498.935
1212.329, 1500.622
1212.811, 1503.410
1213.293, 1506.135
1213.776, 1508.579
1214.258, 1510.776
1214.740, 1512.939
1215.222, 1514.606
1215.704, 1514.126
1216.186, 1512.639
1216.668, 1512.994
1217.150, 1515.847
1217.632, 1518.469
1218.115, 1520.122
1218.597, 1521.370
1219.079, 1522.237
1219.561, 1522.985
1220.043, 1524.188
1220.525, 1525.708
1221.007, 1527.407
1221.489, 1529.414
1221.972, 1530.515
1222.454, 1529.625
1222.936, 1529.375
1223.418, 1531.143
1223.900, 1533.686
1224.382, 1533.758
1224.864, 1532.705
1225.346, 1533.673
1225.828, 1538.201
1226.311, 1541.202
1226.793, 1541.444
1227.275, 1541.223
1227.757, 1541.461
1228.239, 1542.020
1228.721, 1542.840
1229.203, 1543.707
1229.685, 1544.007
1230.167, 1543.039
1230.650, 1543.547
1231.132, 1546.200
1231.614, 1549.118
1232.096, 1551.533
1232.578, 1553.399
1233.060, 1554.241
1233.542, 1554.542
1234.024, 1555.232
1234.507, 1556.798
1234.989, 1557.988
1235.471, 1558.602
1235.953, 1559.229
1236.435, 1560.064
1236.917, 1561.254
1237.399, 1563.616
1237.881, 1566.364
1238.364, 1567.883
1238.846, 1566.510
1239.328, 1567.689
1239.810, 1572.206
1240.292, 1576.140
1240.774, 1576.648
1241.256, 1575.654
1241.738, 1575.233
1242.220, 1575.435
1242.703, 1576.390
1243.185, 1578.201
1243.667, 1580.464
1244.149, 1583.222
1244.631, 1585.975
1245.113, 1588.986
1245.595, 1591.140
1246.077, 1589.609
1246.559, 1586.832
1247.042, 1587.496
1247.524, 1593.217
1248.006, 1596.991
1248.488, 1598.782
1248.970, 1599.123
1249.452, 1597.333
1249.934, 1595.326
1250.416, 1594.441
1250.899, 1594.688
1251.381, 1596.172
1251.863, 1599.290
1252.345, 1601.297
1252.827, 1602.198
1253.309, 1602.903
1253.791, 1604.184
1254.273, 1605.266
1254.755, 1605.121
1255.238, 1604.710
1255.720, 1605.399
1256.202, 1607.199
1256.684, 1608.621
1257.166, 1609.692
1257.648, 1611.770
1258.130, 1617.288
1258.612, 1622.171
1259.094, 1624.211
1259.577, 1624.511
1260.059, 1623.514
1260.541, 1621.459
1261.023, 1621.541
1261.505, 1623.633
1261.987, 1625.958
1262.469, 1627.708
1262.951, 1629.340
1263.434, 1631.012
1263.916, 1632.637
1264.398, 1634.158
1264.880, 1635.545
1265.362, 1636.807
1265.844, 1637.882
1266.326, 1638.529
1266.808, 1637.584
1267.291, 1637.750
1267.773, 1639.675
1268.255, 1642.328
1268.737, 1645.153
1269.219, 1647.777
1269.701, 1648.983
1270.183, 1649.137
1270.665, 1649.736
1271.147, 1651.756
1271.630, 1653.731
1272.112, 1655.845
1272.594, 1657.109
1273.076, 1655.570
1273.558, 1653.220
1274.040, 1653.279
1274.522, 1655.208
1275.004, 1657.066
1275.486, 1658.463
1275.969, 1659.917
1276.451, 1661.448
1276.933, 1663.025
1277.415, 1664.296
1277.897, 1665.833
1278.379, 1669.007
1278.861, 1672.735
1279.343, 1674.094
1279.825, 1672.208
1280.308, 1672.172
1280.790, 1674.296
1281.272, 1676.832
1281.754, 1678.659
1282.236, 1680.202
1282.718, 1681.745
1283.200, 1683.191
1283.682, 1684.407
1284.165, 1685.395
1284.647, 1685.981
1285.129, 1686.214
1285.611, 1686.915
1286.093, 1689.150
1286.575, 1691.318
1287.057, 1692.629
1287.539, 1693.570
1288.021, 1694.783
1288.504, 1696.102
1288.986, 1696.215
1289.468, 1695.375
1289.950, 1695.274
1290.432, 1697.410
1290.914, 1699.495
1291.396, 1701.350
1291.878, 1702.585
1292.360, 1702.215
1292.843, 1701.187
1293.325, 1701.932
1293.807, 1704.137
1294.289, 1706.515
1294.771, 1708.920
1295.253, 1711.081
1295.735, 1713.021
1296.217, 1714.588
1296.700, 1715.257
1297.182, 1715.741
1297.664, 1716.793
1298.146, 1718.357
1298.628, 1720.779
1299.110, 1725.013
1299.592, 1727.514
1300.074, 1728.057
1300.557, 1727.837
1301.039, 1727.222
1301.521, 1726.671
1302.003, 1726.789
1302.485, 1727.221
1302.967, 1727.902
1303.449, 1729.833
##END=



