##NAMES=Grossular
##RRUFFID=R060278
##IDEAL CHEMISTRY=Ca_3_Al_2_(SiO_4_)_3_
##LOCALITY=Diakon, Kayes Region, Mali
##OWNER=RRUFF
##SOURCE=Herb Obodda
##DESCRIPTION=Dark brown dodecahedral single crystal
##STATUS=The identification of this mineral has been confirmed by X-ray diffraction and chemical analysis
##URL=rruff.info/R060278
##MEASURED CHEMISTRY=(Ca_2.93_Mg_0.05_Mn_0.02_)_Σ=3_(Al_1.19_Fe^3+^_0.78_Ti_0.03_)_Σ=2_((Si_0.99_Al_0.01_)_Σ=1_O_4_)_3_
92.37695, 128.2507
92.85907, 127.8544
93.34119, 128.1234
93.82330, 128.0362
94.30542, 127.1131
94.78754, 125.2861
95.26965, 122.8887
95.75177, 120.5241
96.23389, 118.3151
96.71600, 116.3920
97.19812, 115.0187
97.68024, 114.3333
98.16235, 113.8738
98.64447, 113.0216
99.12659, 111.6652
99.60870, 109.9955
100.0908, 108.5241
100.5729, 107.0614
101.0551, 105.2974
101.5372, 102.9984
102.0193, 100.3375
102.5014, 98.34510
102.9835, 97.15292
103.4656, 96.51879
103.9478, 96.80309
104.4299, 97.61829
104.9120, 98.31356
105.3941, 98.37930
105.8762, 97.75990
106.3583, 96.90443
106.8405, 95.55579
107.3226, 94.19646
107.8047, 93.18720
108.2868, 92.53562
108.7689, 91.85295
109.2510, 90.59970
109.7332, 88.71008
110.2153, 87.21873
110.6974, 86.72946
111.1795, 86.60046
111.6616, 85.68460
112.1437, 83.40325
112.6259, 81.05586
113.1080, 80.11474
113.5901, 80.46498
114.0722, 81.06755
114.5543, 81.38132
115.0364, 81.41433
115.5185, 81.29710
116.0007, 80.88424
116.4828, 80.44714
116.9649, 80.06751
117.4470, 79.77171
117.9291, 79.68946
118.4112, 80.03606
118.8934, 80.97934
119.3755, 81.96713
119.8576, 83.09075
120.3397, 84.14375
120.8218, 84.99453
121.3039, 85.58708
121.7861, 85.91138
122.2682, 85.93918
122.7503, 85.41628
123.2324, 84.82471
123.7145, 84.03914
124.1966, 83.22710
124.6788, 82.65977
125.1609, 82.51721
125.6430, 82.72842
126.1251, 82.66824
126.6072, 82.15561
127.0893, 81.62360
127.5715, 81.29538
128.0536, 81.13046
128.5357, 80.87234
129.0178, 80.19138
129.4999, 79.24654
129.9821, 78.88042
130.4642, 79.61623
130.9463, 80.68359
131.4284, 81.27937
131.9105, 81.31251
132.3926, 81.17177
132.8748, 81.17812
133.3569, 81.23138
133.8390, 81.12310
134.3211, 80.63560
134.8032, 79.89896
135.2853, 79.34586
135.7674, 78.98544
136.2496, 78.83826
136.7317, 78.95127
137.2138, 79.26350
137.6959, 79.63054
138.1780, 79.99174
138.6601, 80.36689
139.1423, 80.52628
139.6244, 80.18060
140.1065, 79.85228
140.5886, 79.72794
141.0707, 79.81958
141.5528, 80.04142
142.0350, 80.31505
142.5171, 80.72121
142.9992, 80.95174
143.4813, 81.00231
143.9634, 80.92001
144.4455, 80.65482
144.9277, 80.22093
145.4098, 79.78416
145.8919, 79.62835
146.3740, 79.99184
146.8561, 80.20737
147.3382, 80.11799
147.8204, 79.90921
148.3025, 79.77253
148.7846, 79.75772
149.2667, 79.90689
149.7488, 80.44937
150.2309, 81.61161
150.7131, 82.40372
151.1952, 82.13216
151.6773, 81.12971
152.1594, 80.46548
152.6415, 80.61435
153.1236, 81.25856
153.6058, 81.85534
154.0879, 82.43286
154.5700, 82.87003
155.0521, 82.92161
155.5342, 82.55798
156.0163, 82.45815
156.4985, 83.22855
156.9806, 84.20541
157.4627, 84.82301
157.9448, 84.90554
158.4269, 84.78911
158.9090, 84.97884
159.3912, 85.57861
159.8733, 86.23782
160.3554, 86.92529
160.8375, 87.59668
161.3196, 88.18165
161.8017, 88.63623
162.2839, 89.05196
162.7660, 89.71463
163.2481, 90.94848
163.7302, 92.00178
164.2123, 92.53210
164.6944, 92.89390
165.1766, 93.55589
165.6587, 94.80746
166.1408, 96.52719
166.6229, 97.94321
167.1050, 98.61099
167.5871, 99.46119
168.0693, 100.5586
168.5514, 101.9822
169.0335, 103.9171
169.5156, 106.5456
169.9977, 109.8202
170.4798, 112.6333
170.9620, 114.3811
171.4441, 116.3348
171.9262, 118.8632
172.4083, 122.0258
172.8904, 126.0527
173.3725, 131.3859
173.8547, 137.8419
174.3368, 143.5556
174.8189, 148.7572
175.3010, 153.1100
175.7831, 156.8080
176.2652, 159.9141
176.7474, 160.8472
177.2295, 157.2865
177.7116, 150.5427
178.1937, 143.8133
178.6758, 137.4159
179.1579, 131.5065
179.6401, 126.2883
180.1222, 121.8491
180.6043, 117.9414
181.0864, 114.4796
181.5685, 111.3978
182.0506, 108.6953
182.5328, 106.4275
183.0149, 104.5335
183.4970, 102.8269
183.9791, 101.3983
184.4612, 100.0454
184.9433, 98.61929
185.4255, 97.19883
185.9076, 95.88940
186.3897, 94.69175
186.8718, 93.64066
187.3539, 93.15678
187.8360, 93.92662
188.3182, 94.57552
188.8003, 94.75453
189.2824, 94.50700
189.7645, 93.94314
190.2466, 93.06892
190.7287, 91.84695
191.2109, 91.16393
191.6930, 91.57438
192.1751, 91.98085
192.6572, 92.02440
193.1393, 91.75516
193.6214, 91.39290
194.1036, 91.11166
194.5857, 90.89705
195.0678, 90.90071
195.5499, 91.32448
196.0320, 91.73186
196.5141, 91.92961
196.9963, 91.91516
197.4784, 91.75924
197.9605, 91.47673
198.4426, 91.02321
198.9247, 90.97276
199.4068, 91.78098
199.8890, 92.60709
200.3711, 92.82060
200.8532, 92.40160
201.3353, 91.85947
201.8174, 91.65069
202.2995, 91.80580
202.7817, 91.95134
203.2638, 91.99100
203.7459, 92.06459
204.2280, 92.41376
204.7101, 93.08557
205.1922, 93.61513
205.6744, 93.33922
206.1565, 92.47002
206.6386, 92.05748
207.1207, 92.63245
207.6028, 93.65424
208.0849, 94.40904
208.5671, 94.82800
209.0492, 95.07105
209.5313, 95.14566
210.0134, 95.13424
210.4955, 95.22371
210.9776, 95.61300
211.4598, 96.13515
211.9419, 96.34226
212.4240, 95.99918
212.9061, 95.83695
213.3882, 96.40553
213.8703, 97.43287
214.3525, 98.43883
214.8346, 99.13136
215.3167, 99.61317
215.7988, 100.2419
216.2809, 101.0420
216.7630, 101.9756
217.2451, 103.0782
217.7273, 104.2738
218.2094, 105.4199
218.6915, 106.3712
219.1736, 107.1996
219.6557, 108.3466
220.1378, 110.0575
220.6200, 111.8083
221.1021, 113.3849
221.5842, 114.8893
222.0663, 116.5091
222.5484, 118.3683
223.0305, 120.4466
223.5127, 122.5546
223.9948, 124.8172
224.4769, 126.9540
224.9590, 128.7698
225.4411, 130.4394
225.9232, 132.2201
226.4054, 134.2811
226.8875, 136.6115
227.3696, 139.2711
227.8517, 142.3229
228.3338, 145.6384
228.8159, 149.5033
229.2981, 153.5959
229.7802, 157.2959
230.2623, 160.1766
230.7444, 162.3468
231.2265, 164.9771
231.7086, 168.4454
232.1908, 171.9162
232.6729, 175.4615
233.1550, 178.8588
233.6371, 181.6387
234.1192, 183.4283
234.6013, 184.4314
235.0835, 186.1993
235.5656, 188.6855
236.0477, 191.8092
236.5298, 195.7254
237.0119, 200.2638
237.4940, 205.0958
237.9762, 210.0195
238.4583, 215.1134
238.9404, 220.7881
239.4225, 228.6422
239.9046, 235.2217
240.3867, 240.1710
240.8689, 243.0300
241.3510, 242.5189
241.8331, 237.8027
242.3152, 229.3316
242.7973, 218.5509
243.2794, 204.1415
243.7616, 189.9772
244.2437, 177.4686
244.7258, 166.5388
245.2079, 156.9865
245.6900, 148.7895
246.1721, 141.9863
246.6543, 136.4523
247.1364, 132.3875
247.6185, 128.8648
248.1006, 125.2921
248.5827, 121.8569
249.0648, 119.2600
249.5470, 117.9830
250.0291, 117.3874
250.5112, 116.4055
250.9933, 114.9330
251.4754, 113.6933
251.9576, 113.1396
252.4397, 113.1721
252.9218, 113.3881
253.4039, 113.8736
253.8860, 114.2616
254.3681, 114.0603
254.8503, 113.2711
255.3324, 112.6159
255.8145, 112.6079
256.2966, 113.1406
256.7787, 113.6851
257.2608, 114.1769
257.7430, 114.6262
258.2251, 115.0297
258.7072, 115.3957
259.1893, 115.7766
259.6714, 116.0890
260.1535, 116.3980
260.6357, 117.1186
261.1178, 118.5393
261.5999, 120.0599
262.0820, 121.3263
262.5641, 122.3791
263.0462, 123.3486
263.5284, 124.1152
264.0105, 124.7873
264.4926, 126.0153
264.9747, 127.7499
265.4568, 130.2032
265.9389, 133.6224
266.4211, 137.7193
266.9032, 141.8832
267.3853, 145.6667
267.8674, 149.2285
268.3495, 153.4314
268.8316, 159.1172
269.3138, 164.1323
269.7959, 168.1359
270.2780, 170.9968
270.7601, 172.4981
271.2422, 172.4572
271.7243, 171.0530
272.2065, 168.7528
272.6886, 164.9947
273.1707, 161.2715
273.6528, 158.0683
274.1349, 155.0879
274.6170, 151.9593
275.0992, 148.4604
275.5813, 144.8872
276.0634, 142.0182
276.5455, 140.0924
277.0276, 138.4704
277.5097, 136.8931
277.9919, 135.5615
278.4740, 134.7682
278.9561, 134.6084
279.4382, 134.7230
279.9203, 134.4077
280.4024, 133.3983
280.8846, 132.5133
281.3667, 131.9035
281.8488, 131.3859
282.3309, 130.9576
282.8130, 130.5699
283.2951, 129.9688
283.7773, 128.6407
284.2594, 126.0037
284.7415, 124.1120
285.2236, 123.5686
285.7057, 123.2487
286.1878, 122.3921
286.6700, 120.9759
287.1521, 119.5732
287.6342, 118.8950
288.1163, 119.1966
288.5984, 119.2439
289.0805, 118.8736
289.5627, 118.4188
290.0448, 117.8746
290.5269, 117.3461
291.0090, 117.0922
291.4911, 117.4146
291.9732, 118.3867
292.4554, 118.9842
292.9375, 118.6623
293.4196, 118.5149
293.9017, 119.0645
294.3838, 120.0779
294.8659, 120.9726
295.3481, 121.2913
295.8302, 121.1098
296.3123, 121.4399
296.7944, 122.8255
297.2765, 124.1698
297.7586, 125.2997
298.2408, 126.2482
298.7229, 127.0725
299.2050, 127.7987
299.6871, 128.4380
300.1692, 129.0243
300.6513, 129.4123
301.1335, 129.9263
301.6156, 130.6082
302.0977, 131.4174
302.5798, 132.3866
303.0619, 133.5166
303.5440, 134.6397
304.0262, 135.3941
304.5083, 135.3452
304.9904, 135.5653
305.4725, 136.0325
305.9546, 136.7668
306.4367, 137.9280
306.9189, 139.4909
307.4010, 141.0989
307.8831, 142.1891
308.3652, 142.3007
308.8473, 143.1306
309.3294, 144.9015
309.8116, 147.0784
310.2937, 149.4001
310.7758, 151.8148
311.2579, 154.3633
311.7400, 157.0947
312.2221, 160.0867
312.7043, 162.8485
313.1864, 165.2921
313.6685, 167.6426
314.1506, 169.6475
314.6327, 171.6131
315.1148, 174.2182
315.5970, 177.9851
316.0791, 182.8401
316.5612, 187.7744
317.0433, 193.1976
317.5254, 198.2811
318.0075, 203.0562
318.4897, 207.3227
318.9718, 210.8500
319.4539, 213.5246
319.9360, 215.3318
320.4181, 216.2345
320.9002, 216.0854
321.3824, 215.0399
321.8645, 213.0530
322.3466, 210.2315
322.8287, 206.4791
323.3108, 201.8374
323.7929, 196.6795
324.2751, 191.6051
324.7572, 186.0545
325.2393, 181.7675
325.7214, 179.2156
326.2035, 177.3540
326.6856, 175.4932
327.1678, 173.5375
327.6499, 171.7536
328.1320, 170.3916
328.6141, 169.4097
329.0962, 169.1165
329.5783, 169.7065
330.0605, 170.6905
330.5426, 172.0469
331.0247, 173.6452
331.5068, 175.2434
331.9889, 176.6611
332.4710, 177.9089
332.9532, 179.1565
333.4353, 180.2423
333.9174, 181.5218
334.3995, 183.4411
334.8816, 185.5023
335.3637, 187.0435
335.8459, 187.7254
336.3280, 187.6617
336.8101, 187.1136
337.2922, 185.3650
337.7743, 184.2151
338.2564, 183.8019
338.7386, 183.9804
339.2206, 184.7042
339.7028, 185.9314
340.1849, 187.4991
340.6670, 189.1493
341.1491, 190.7630
341.6312, 192.7720
342.1133, 194.9003
342.5955, 197.5717
343.0776, 201.2984
343.5597, 205.9030
344.0418, 210.6158
344.5239, 214.6146
345.0060, 217.8137
345.4882, 221.8109
345.9703, 227.0908
346.4524, 232.7820
346.9345, 238.6262
347.4166, 244.7313
347.8987, 251.2702
348.3809, 258.2603
348.8630, 265.8517
349.3451, 274.5207
349.8272, 284.6624
350.3093, 295.5453
350.7914, 306.5768
351.2736, 318.3786
351.7557, 331.6974
352.2378, 346.8156
352.7199, 362.9165
353.2020, 378.4347
353.6841, 392.8333
354.1663, 408.3057
354.6484, 424.7416
355.1305, 442.5596
355.6126, 462.5795
356.0947, 484.5463
356.5768, 506.8729
357.0590, 527.9363
357.5411, 547.5429
358.0232, 567.8900
358.5053, 590.4297
358.9874, 611.9941
359.4695, 631.1918
359.9517, 648.4288
360.4338, 664.5736
360.9159, 680.2285
361.3980, 695.0751
361.8801, 707.8892
362.3622, 717.0258
362.8444, 727.6733
363.3265, 740.8830
363.8086, 756.7259
364.2907, 775.3121
364.7728, 796.6882
365.2549, 821.2176
365.7371, 849.3715
366.2192, 881.3018
366.7013, 916.6392
367.1834, 957.8207
367.6655, 1000.570
368.1476, 1042.544
368.6298, 1083.571
369.1119, 1122.348
369.5940, 1159.992
370.0761, 1195.186
370.5582, 1221.658
371.0403, 1240.092
371.5225, 1246.822
372.0046, 1239.894
372.4867, 1220.673
372.9688, 1190.418
373.4509, 1147.034
373.9330, 1094.593
374.4152, 1037.515
374.8973, 975.4942
375.3794, 913.0977
375.8615, 851.3882
376.3436, 791.7335
376.8257, 735.5237
377.3079, 682.4813
377.7900, 633.7429
378.2721, 590.5126
378.7542, 552.3568
379.2363, 517.6041
379.7184, 485.9672
380.2006, 457.1113
380.6827, 430.3432
381.1648, 405.5666
381.6469, 383.4139
382.1290, 364.7617
382.6111, 348.4777
383.0933, 333.0330
383.5754, 318.1701
384.0575, 304.6042
384.5396, 292.9997
385.0217, 283.3287
385.5038, 273.8867
385.9860, 264.1993
386.4681, 255.1732
386.9502, 247.4871
387.4323, 240.9832
387.9144, 235.0318
388.3965, 229.4349
388.8787, 224.1080
389.3608, 218.8432
389.8429, 213.4789
390.3250, 208.4162
390.8071, 203.6337
391.2892, 199.2381
391.7714, 195.4350
392.2535, 192.2622
392.7356, 189.4249
393.2177, 186.6104
393.6998, 183.7957
394.1819, 181.1457
394.6641, 178.4100
395.1462, 176.0301
395.6283, 174.4284
396.1104, 173.4346
396.5925, 172.5906
397.0746, 171.6199
397.5568, 170.5138
398.0389, 169.1695
398.5210, 166.9877
399.0031, 165.3100
399.4852, 164.9823
399.9673, 164.9140
400.4495, 163.8595
400.9316, 161.4494
401.4137, 158.2896
401.8958, 155.2818
402.3779, 152.5157
402.8600, 149.6639
403.3422, 147.0156
403.8243, 144.0247
404.3064, 140.1521
404.7885, 135.6399
405.2706, 131.1811
405.7527, 127.2881
406.2349, 123.9275
406.7170, 121.0772
407.1991, 119.3092
407.6812, 117.2564
408.1633, 114.1432
408.6454, 110.8011
409.1276, 108.1696
409.6097, 106.5997
410.0918, 105.6638
410.5739, 104.8396
411.0560, 104.1968
411.5381, 103.3075
412.0203, 101.9285
412.5024, 100.4248
412.9845, 98.89124
413.4666, 97.39262
413.9487, 96.11040
414.4308, 95.26540
414.9130, 94.75400
415.3951, 94.18387
415.8772, 93.52761
416.3593, 92.87975
416.8414, 92.31895
417.3235, 91.79007
417.8057, 91.20650
418.2878, 90.50961
418.7699, 89.82803
419.2520, 89.27272
419.7341, 88.83974
420.2162, 88.50729
420.6984, 88.32205
421.1805, 88.16875
421.6626, 87.84631
422.1447, 87.34560
422.6268, 87.01151
423.1089, 87.11622
423.5911, 87.39343
424.0732, 87.48678
424.5553, 87.35741
425.0374, 87.11156
425.5195, 86.76477
426.0016, 86.36260
426.4838, 86.17017
426.9659, 86.18237
427.4480, 86.39906
427.9301, 87.06262
428.4122, 87.91371
428.8943, 88.30077
429.3765, 87.93352
429.8586, 87.33458
430.3407, 87.44669
430.8228, 88.79070
431.3049, 89.73170
431.7870, 90.09378
432.2692, 90.17059
432.7513, 89.98666
433.2334, 89.66786
433.7155, 89.58401
434.1976, 90.07153
434.6797, 91.07786
435.1619, 91.84917
435.6440, 92.23697
436.1261, 92.55099
436.6082, 92.53901
437.0903, 92.60265
437.5724, 93.42159
438.0546, 95.17725
438.5367, 97.05738
439.0188, 97.57785
439.5009, 96.01656
439.9830, 95.43261
440.4651, 96.92239
440.9473, 98.49467
441.4294, 99.26563
441.9115, 99.34058
442.3936, 99.21870
442.8757, 99.15896
443.3578, 99.19117
443.8400, 99.53385
444.3221, 100.5152
444.8042, 100.9804
445.2863, 99.75449
445.7684, 98.22849
446.2505, 97.86438
446.7327, 99.02425
447.2148, 100.3117
447.6969, 100.4503
448.1790, 99.62190
448.6611, 98.77387
449.1432, 97.92429
449.6254, 97.32706
450.1075, 97.39053
450.5896, 97.91204
451.0717, 98.28310
451.5538, 98.18959
452.0359, 97.98653
452.5181, 97.99448
453.0002, 98.19987
453.4823, 98.53433
453.9644, 99.04677
454.4465, 99.57394
454.9286, 99.69215
455.4108, 99.27058
455.8929, 98.92918
456.3750, 98.87975
456.8571, 98.94154
457.3392, 98.94318
457.8214, 98.85154
458.3035, 98.67238
458.7856, 98.39959
459.2677, 98.03133
459.7498, 97.68069
460.2319, 97.40714
460.7141, 97.08048
461.1962, 96.50999
461.6783, 95.91225
462.1604, 95.70890
462.6425, 96.03977
463.1246, 96.46099
463.6068, 96.15199
464.0889, 94.71495
464.5710, 93.60598
465.0531, 92.78695
465.5352, 92.30733
466.0173, 92.52091
466.4995, 93.11427
466.9816, 93.29927
467.4637, 92.44299
467.9458, 90.95370
468.4279, 90.14893
468.9100, 90.21640
469.3922, 90.48174
469.8743, 91.01198
470.3564, 91.49794
470.8385, 91.60612
471.3206, 91.29539
471.8027, 90.98812
472.2849, 90.99682
472.7670, 91.27544
473.2491, 91.69980
473.7312, 92.33543
474.2133, 92.89005
474.6954, 92.96697
475.1776, 92.81313
475.6597, 93.01977
476.1418, 93.82674
476.6239, 94.83446
477.1060, 95.90319
477.5881, 96.95821
478.0703, 97.68934
478.5524, 97.89060
479.0345, 98.10264
479.5166, 99.16363
479.9987, 101.2962
480.4808, 103.2973
480.9630, 105.0333
481.4451, 106.6760
481.9272, 108.2412
482.4093, 109.7972
482.8914, 111.4422
483.3735, 113.2080
483.8557, 115.2167
484.3378, 117.9612
484.8199, 122.8668
485.3020, 126.4204
485.7841, 127.2294
486.2662, 127.5986
486.7484, 129.5479
487.2305, 133.1155
487.7126, 136.7291
488.1947, 138.8842
488.6768, 139.7027
489.1589, 141.1987
489.6411, 143.8875
490.1232, 146.4553
490.6053, 148.4341
491.0874, 150.1193
491.5695, 151.9004
492.0516, 153.9065
492.5338, 155.7286
493.0159, 157.1646
493.4980, 158.1484
493.9801, 157.9892
494.4622, 156.4581
494.9443, 154.0098
495.4265, 150.5063
495.9086, 146.3392
496.3907, 142.6656
496.8728, 140.2910
497.3549, 138.0358
497.8370, 134.6064
498.3192, 130.3979
498.8013, 127.0077
499.2834, 125.2026
499.7655, 124.0492
500.2476, 121.9372
500.7297, 118.4289
501.2119, 115.5397
501.6940, 113.6870
502.1761, 112.2483
502.6582, 110.8344
503.1403, 109.4373
503.6224, 108.1751
504.1045, 107.1261
504.5866, 106.2522
505.0688, 105.4165
505.5509, 104.6848
506.0330, 103.8802
506.5151, 102.6508
506.9972, 101.5999
507.4793, 101.2965
507.9615, 101.6811
508.4436, 102.1613
508.9257, 102.1654
509.4078, 101.8357
509.8899, 102.0957
510.3720, 103.2276
510.8542, 104.3378
511.3363, 105.0904
511.8184, 105.6583
512.3005, 106.1344
512.7827, 106.5146
513.2648, 107.0485
513.7469, 107.8182
514.2290, 108.8875
514.7111, 110.5418
515.1932, 112.9053
515.6754, 115.4460
516.1575, 117.7295
516.6396, 119.8576
517.1217, 122.2591
517.6038, 124.8277
518.0859, 127.8027
518.5681, 131.7280
519.0502, 136.0219
519.5323, 139.5033
520.0144, 141.8719
520.4965, 144.0968
520.9786, 147.3487
521.4608, 151.7489
521.9429, 156.5262
522.4250, 161.8034
522.9071, 167.3171
523.3892, 172.6741
523.8713, 178.2770
524.3535, 184.7521
524.8356, 192.3091
525.3177, 200.6964
525.7998, 209.4250
526.2819, 218.4818
526.7640, 227.8581
527.2462, 237.2460
527.7283, 247.2729
528.2104, 258.3415
528.6925, 270.2383
529.1746, 282.5997
529.6567, 295.5457
530.1389, 308.4312
530.6210, 320.4923
531.1031, 331.7155
531.5852, 342.0568
532.0673, 352.0988
532.5494, 360.3081
533.0316, 365.0598
533.5137, 366.6119
533.9958, 364.2266
534.4779, 357.6057
534.9600, 347.1347
535.4421, 331.8601
535.9243, 312.7935
536.4064, 292.3771
536.8885, 271.6973
537.3706, 251.2205
537.8527, 232.1837
538.3348, 214.6810
538.8170, 198.2806
539.2991, 182.3779
539.7812, 168.0817
540.2633, 155.9373
540.7454, 145.8799
541.2275, 137.5609
541.7097, 130.8724
542.1918, 125.4481
542.6739, 120.2837
543.1560, 115.1273
543.6381, 110.9729
544.1202, 108.8955
544.6024, 107.2204
545.0845, 104.7783
545.5666, 101.6978
546.0487, 99.02822
546.5308, 97.34560
547.0129, 96.37663
547.4951, 95.95146
547.9772, 96.04710
548.4593, 95.69760
548.9414, 94.22691
549.4235, 92.42766
549.9056, 91.92669
550.3878, 92.95579
550.8699, 93.57809
551.3520, 93.08163
551.8341, 92.31143
552.3162, 91.89670
552.7983, 91.84709
553.2805, 91.98458
553.7626, 92.22604
554.2447, 92.50166
554.7268, 92.59138
555.2089, 92.25151
555.6910, 92.16525
556.1732, 92.55114
556.6553, 92.98884
557.1374, 93.28551
557.6195, 93.40736
558.1016, 93.37651
558.5837, 93.24268
559.0659, 92.61302
559.5480, 92.10696
560.0301, 90.74023
560.5122, 89.33931
560.9943, 87.74377
561.4764, 86.49174
561.9586, 86.32349
562.4407, 87.14764
562.9228, 87.56828
563.4049, 86.82746
563.8870, 85.60222
564.3691, 84.53175
564.8513, 83.62186
565.3334, 82.79581
565.8155, 82.05091
566.2976, 81.27715
566.7797, 80.23641
567.2618, 78.72049
567.7440, 77.42909
568.2261, 76.61533
568.7082, 75.80129
569.1903, 74.60136
569.6724, 73.17945
570.1545, 71.94730
570.6367, 71.13781
571.1188, 70.57588
571.6009, 69.92481
572.0830, 69.18224
572.5651, 68.32744
573.0472, 67.12989
573.5294, 66.05108
574.0115, 65.42747
574.4936, 65.12134
574.9757, 64.74251
575.4578, 64.09561
575.9399, 63.35535
576.4221, 62.71043
576.9042, 62.15023
577.3863, 61.58484
577.8684, 60.96215
578.3505, 60.41913
578.8326, 60.19124
579.3148, 60.31309
579.7969, 60.13683
580.2790, 59.34201
580.7611, 58.56401
581.2432, 58.06143
581.7253, 57.79585
582.2075, 57.70146
582.6896, 57.75014
583.1717, 57.88167
583.6538, 58.01496
584.1359, 58.14546
584.6180, 58.31047
585.1002, 58.54557
585.5823, 58.77570
586.0643, 58.97833
586.5464, 59.16184
587.0286, 59.27269
587.5107, 59.27604
587.9928, 59.47179
588.4749, 60.25285
588.9570, 61.48051
589.4391, 62.65261
589.9213, 63.75006
590.4034, 64.65573
590.8855, 65.25953
591.3676, 65.60690
591.8497, 65.90401
592.3318, 66.07310
592.8140, 66.32760
593.2961, 66.69605
593.7782, 67.20560
594.2603, 67.99593
594.7424, 69.00803
595.2245, 69.89800
595.7067, 70.35542
596.1888, 70.47654
596.6709, 70.83049
597.1530, 71.68835
597.6351, 72.30814
598.1172, 72.28613
598.5994, 72.26048
599.0815, 72.81548
599.5636, 73.86792
600.0457, 74.79966
600.5278, 75.18419
601.0099, 75.21118
601.4921, 75.16709
601.9742, 75.04849
602.4563, 75.09819
602.9384, 75.42277
603.4205, 75.92221
603.9026, 76.54215
604.3848, 77.30424
604.8669, 77.81661
605.3490, 77.85005
605.8311, 77.78733
606.3132, 77.83576
606.7953, 77.98586
607.2775, 78.21261
607.7596, 78.50241
608.2417, 78.77422
608.7238, 78.86178
609.2059, 78.67673
609.6880, 78.75334
610.1702, 79.37741
610.6523, 79.94296
611.1344, 80.24536
611.6165, 80.37634
612.0986, 80.47424
612.5807, 80.58212
613.0629, 80.62113
613.5450, 80.37122
614.0271, 79.98966
614.5092, 80.05518
614.9913, 80.67910
615.4734, 81.37171
615.9556, 81.92418
616.4377, 82.27400
616.9198, 82.18782
617.4019, 81.27383
617.8840, 80.71040
618.3661, 81.16443
618.8483, 81.75756
619.3304, 81.67750
619.8125, 80.94804
620.2946, 80.07603
620.7767, 79.40959
621.2589, 78.77791
621.7410, 77.64240
622.2231, 75.81243
622.7052, 74.03854
623.1873, 72.21223
623.6694, 70.66642
624.1516, 69.89558
624.6337, 69.59338
625.1158, 68.85422
625.5979, 67.14015
626.0800, 65.13017
626.5621, 63.39711
627.0443, 61.93890
627.5264, 60.86596
628.0085, 60.24322
628.4906, 59.64778
628.9727, 58.62309
629.4548, 57.17110
629.9370, 55.91687
630.4191, 54.80754
630.9012, 53.93261
631.3833, 53.41660
631.8654, 53.07473
632.3475, 52.73162
632.8297, 52.35233
633.3118, 51.98754
633.7939, 51.69968
634.2760, 51.45514
634.7581, 51.13972
635.2402, 50.77463
635.7224, 50.22701
636.2045, 49.12635
636.6866, 48.12978
637.1687, 48.03947
637.6508, 48.80700
638.1329, 49.42260
638.6151, 49.54585
639.0972, 49.42011
639.5793, 49.09430
640.0614, 48.68885
640.5435, 48.47937
641.0256, 48.56387
641.5078, 48.88916
641.9899, 49.43339
642.4720, 50.25985
642.9541, 50.78303
643.4362, 50.70131
643.9183, 50.65605
644.4005, 50.88707
644.8826, 51.17231
645.3647, 51.24853
645.8468, 51.06970
646.3289, 50.81467
646.8110, 50.56789
647.2932, 50.36621
647.7753, 50.32771
648.2574, 50.46043
648.7395, 50.61864
649.2216, 50.74205
649.7037, 50.85202
650.1859, 51.02343
650.6680, 51.32999
651.1501, 51.37000
651.6322, 50.91410
652.1143, 50.37759
652.5964, 49.97092
653.0786, 49.66765
653.5607, 49.38166
654.0428, 49.08181
654.5249, 48.80901
655.0070, 48.61831
655.4891, 48.51044
655.9713, 48.49894
656.4534, 48.73063
656.9355, 48.77385
657.4176, 48.20092
657.8997, 47.42567
658.3818, 46.95618
658.8640, 46.88490
659.3461, 46.79385
659.8282, 46.33805
660.3103, 45.87002
660.7924, 45.94014
661.2745, 46.41538
661.7567, 46.54632
662.2388, 45.92315
662.7209, 45.08046
663.2030, 45.09364
663.6851, 46.37320
664.1672, 47.16366
664.6494, 47.02694
665.1315, 46.87171
665.6136, 46.90701
666.0957, 47.14290
666.5778, 47.69306
667.0599, 48.61250
667.5421, 49.30933
668.0242, 49.01928
668.5063, 48.17314
668.9884, 47.87390
669.4705, 48.20008
669.9526, 48.58207
670.4348, 48.71131
670.9169, 48.71973
671.3990, 48.92885
671.8811, 49.61079
672.3632, 49.79926
672.8453, 48.93850
673.3275, 48.11322
673.8096, 48.04573
674.2917, 48.39980
674.7738, 48.49309
675.2559, 48.06536
675.7380, 47.51574
676.2202, 47.42193
676.7023, 47.71643
677.1844, 47.66795
677.6665, 47.14724
678.1486, 46.63890
678.6307, 46.45658
679.1129, 46.39783
679.5950, 46.07823
680.0771, 45.45020
680.5592, 44.77890
681.0413, 44.05687
681.5234, 43.37959
682.0056, 42.86908
682.4877, 42.46044
682.9698, 41.96458
683.4519, 41.30491
683.9340, 40.64495
684.4161, 40.25515
684.8983, 40.16784
685.3804, 39.97417
685.8625, 39.59127
686.3446, 39.24894
686.8267, 39.16279
687.3088, 39.11179
687.7910, 38.79044
688.2731, 38.13860
688.7552, 37.58227
689.2373, 37.34648
689.7194, 37.26960
690.2015, 37.23486
690.6837, 37.21361
691.1658, 37.15597
691.6479, 37.04148
692.1300, 36.86274
692.6121, 36.56049
693.0942, 36.06718
693.5764, 35.96628
694.0585, 36.71682
694.5406, 37.24329
695.0227, 37.12188
695.5048, 36.71415
695.9869, 36.38472
696.4691, 36.19053
696.9512, 36.00997
697.4333, 35.72705
697.9154, 35.44358
698.3975, 35.29456
698.8796, 35.27105
699.3618, 35.33772
699.8439, 35.49398
700.3260, 35.62878
700.8081, 35.57276
701.2902, 35.29018
701.7723, 35.15683
702.2545, 35.34557
702.7366, 35.47573
703.2187, 35.39136
703.7008, 35.26967
704.1829, 35.30277
704.6650, 35.49676
705.1472, 35.69562
705.6293, 35.81421
706.1114, 35.86267
706.5935, 35.80152
707.0756, 35.66056
707.5577, 35.65171
708.0399, 35.85195
708.5220, 36.13295
709.0041, 36.38712
709.4862, 36.61484
709.9683, 36.66430
710.4504, 36.35951
710.9326, 36.11765
711.4147, 35.89319
711.8968, 35.84088
712.3789, 36.27793
712.8610, 37.05864
713.3431, 37.55323
713.8253, 37.26442
714.3074, 36.68283
714.7895, 36.65804
715.2716, 37.09188
715.7537, 37.19456
716.2358, 36.72406
716.7180, 36.32121
717.2001, 36.61602
717.6822, 37.45510
718.1643, 37.81018
718.6464, 37.22507
719.1285, 36.83442
719.6107, 36.79399
720.0928, 36.94277
720.5749, 37.19369
721.0570, 37.53053
721.5391, 38.01247
722.0212, 38.71659
722.5034, 39.32067
722.9855, 39.23302
723.4676, 38.60089
723.9497, 38.34090
724.4318, 38.59282
724.9139, 38.95681
725.3961, 39.17244
725.8782, 39.33844
726.3603, 39.77379
726.8424, 40.86063
727.3245, 41.33352
727.8066, 40.43395
728.2888, 39.59290
728.7709, 39.67625
729.2530, 40.37902
729.7351, 41.14256
730.2172, 41.76402
730.6993, 42.23837
731.1815, 42.46399
731.6636, 42.53126
732.1457, 42.75595
732.6278, 43.14391
733.1099, 43.81488
733.5920, 45.04128
734.0742, 46.21066
734.5563, 46.20366
735.0384, 44.59216
735.5205, 44.03313
736.0026, 45.44787
736.4847, 46.81940
736.9669, 47.39948
737.4490, 47.56482
737.9311, 47.71001
738.4132, 47.94861
738.8953, 48.32265
739.3774, 48.94292
739.8596, 49.65548
740.3417, 50.11504
740.8238, 50.33781
741.3059, 50.54515
741.7880, 50.76154
742.2701, 51.10304
742.7523, 51.74186
743.2344, 52.64650
743.7165, 53.29572
744.1986, 53.42912
744.6807, 53.68467
745.1628, 54.17792
745.6450, 54.78946
746.1271, 55.52987
746.6092, 56.30251
747.0913, 56.87443
747.5734, 57.08789
748.0555, 57.22487
748.5377, 57.62460
749.0198, 58.23865
749.5019, 58.87971
749.9840, 59.52760
750.4661, 60.24993
750.9482, 61.14664
751.4304, 62.06618
751.9125, 62.61353
752.3946, 62.46686
752.8767, 62.71003
753.3588, 63.49025
753.8409, 64.46593
754.3231, 65.74405
754.8052, 67.02158
755.2873, 67.79712
755.7694, 67.97415
756.2515, 68.21230
756.7336, 69.10832
757.2158, 70.33347
757.6979, 71.26191
758.1800, 71.96482
758.6621, 72.95667
759.1442, 74.43624
759.6263, 76.07607
760.1085, 77.48758
760.5906, 78.66464
761.0727, 80.05333
761.5548, 82.06204
762.0369, 83.66819
762.5190, 84.57008
763.0012, 85.16448
763.4833, 85.69853
763.9654, 86.18924
764.4475, 86.60517
764.9296, 86.97250
765.4117, 87.19274
765.8939, 87.24987
766.3760, 87.08118
766.8581, 86.40202
767.3402, 85.26804
767.8223, 84.36040
768.3044, 84.14043
768.7866, 84.30245
769.2687, 84.13365
769.7508, 83.66090
770.2329, 82.70741
770.7150, 80.72874
771.1971, 79.01606
771.6793, 78.35509
772.1614, 78.19964
772.6435, 77.84147
773.1256, 77.18448
773.6077, 76.52464
774.0898, 76.02957
774.5720, 75.52965
775.0541, 74.79680
775.5362, 73.97410
776.0183, 73.34000
776.5004, 72.98012
776.9825, 72.83443
777.4647, 72.92629
777.9468, 73.14172
778.4289, 72.77837
778.9110, 71.63604
779.3931, 70.99662
779.8752, 71.32810
780.3574, 72.00093
780.8395, 72.50500
781.3216, 72.87756
781.8037, 73.29156
782.2858, 73.93245
782.7679, 74.35946
783.2501, 74.25597
783.7322, 74.06982
784.2143, 74.05254
784.6964, 74.28896
785.1785, 74.92162
785.6606, 76.03596
786.1428, 77.27653
786.6249, 78.18070
787.1070, 78.83242
787.5891, 79.64204
788.0712, 80.64127
788.5533, 81.34129
789.0355, 81.34465
789.5176, 81.34630
789.9997, 82.57072
790.4818, 85.38721
790.9639, 87.11073
791.4460, 86.47105
791.9282, 86.40693
792.4103, 87.92422
792.8924, 90.04772
793.3745, 91.90159
793.8566, 93.45365
794.3387, 95.20467
794.8209, 97.53462
795.3030, 99.95059
795.7851, 101.8838
796.2672, 103.5747
796.7493, 105.5228
797.2314, 107.8049
797.7136, 110.2562
798.1957, 112.7710
798.6778, 115.4047
799.1599, 118.2788
799.6420, 121.4376
800.1241, 124.6911
800.6063, 128.2117
801.0884, 131.5637
801.5705, 134.1198
802.0526, 136.5880
802.5347, 139.8344
803.0168, 143.9485
803.4990, 148.3815
803.9811, 153.3233
804.4632, 158.1620
804.9453, 162.3185
805.4274, 166.1808
805.9095, 170.3405
806.3917, 174.8943
806.8738, 179.6783
807.3559, 184.6293
807.8380, 189.5678
808.3201, 193.7749
808.8022, 197.3383
809.2844, 201.9199
809.7665, 207.9681
810.2486, 214.3218
810.7307, 220.2575
811.2128, 225.8188
811.6949, 231.0076
812.1771, 235.4443
812.6592, 240.2456
813.1413, 245.5618
813.6234, 251.0437
814.1055, 256.7660
814.5876, 262.4140
815.0698, 267.5948
815.5519, 272.2169
816.0340, 276.3553
816.5161, 279.9572
816.9982, 283.1487
817.4803, 286.3344
817.9625, 289.1822
818.4446, 290.6563
818.9267, 290.5832
819.4088, 289.9849
819.8909, 289.8297
820.3730, 287.8300
820.8552, 287.5605
821.3373, 283.0452
821.8194, 278.8712
822.3015, 275.4361
822.7836, 272.1754
823.2657, 269.0158
823.7479, 265.7132
824.2300, 261.8596
824.7121, 257.4092
825.1942, 252.5776
825.6763, 246.8320
826.1584, 241.3553
826.6406, 237.2427
827.1227, 233.6475
827.6048, 229.2259
828.0869, 223.7864
828.5690, 218.1926
829.0511, 212.9743
829.5333, 208.1868
830.0154, 204.0556
830.4975, 200.4729
830.9796, 196.8991
831.4617, 193.2254
831.9438, 189.6618
832.4260, 186.3620
832.9081, 183.2777
833.3902, 180.1728
833.8723, 176.7615
834.3544, 174.0898
834.8365, 172.7884
835.3187, 171.4482
835.8008, 169.5132
836.2829, 167.2450
836.7650, 164.7928
837.2471, 162.1693
837.7292, 160.0547
838.2114, 158.7047
838.6935, 157.8810
839.1756, 157.9438
839.6577, 158.1766
840.1398, 157.3533
840.6219, 155.5401
841.1041, 153.9715
841.5862, 153.4359
842.0683, 153.7028
842.5504, 154.7552
843.0325, 156.3794
843.5146, 156.9442
843.9968, 156.1867
844.4789, 155.4726
844.9610, 155.5981
845.4431, 156.0305
845.9252, 155.6983
846.4073, 154.2551
846.8895, 153.8214
847.3716, 155.2859
847.8537, 156.5842
848.3358, 157.0506
848.8179, 157.3401
849.3000, 158.1926
849.7822, 159.4667
850.2643, 160.2454
850.7464, 159.9678
851.2285, 159.5749
851.7106, 159.3591
852.1927, 159.4848
852.6749, 160.1957
853.1570, 161.4311
853.6391, 163.0694
854.1212, 165.0463
854.6033, 166.9043
855.0854, 167.5671
855.5676, 167.5266
856.0497, 169.4502
856.5318, 173.4302
857.0139, 177.0922
857.4960, 179.5669
857.9781, 181.8283
858.4603, 184.8684
858.9424, 188.6443
859.4245, 192.6963
859.9066, 196.7874
860.3887, 201.5625
860.8708, 207.7890
861.3530, 213.9863
861.8351, 219.1727
862.3172, 223.8628
862.7993, 228.9728
863.2814, 234.6890
863.7635, 240.8532
864.2457, 247.4414
864.7278, 254.4582
865.2099, 262.0485
865.6920, 270.0060
866.1741, 277.9073
866.6563, 285.6776
867.1384, 293.3110
867.6205, 300.6849
868.1026, 308.1527
868.5847, 316.4978
869.0668, 325.5804
869.5490, 334.6119
870.0311, 343.4828
870.5132, 352.3420
870.9953, 361.4635
871.4774, 370.4185
871.9595, 378.3598
872.4417, 385.2441
872.9238, 391.4623
873.4059, 397.3340
873.8880, 402.0782
874.3701, 405.8766
874.8522, 408.1006
875.3344, 408.0107
875.8165, 405.7548
876.2986, 402.2538
876.7807, 397.4736
877.2628, 391.7940
877.7449, 386.0272
878.2271, 378.8654
878.7092, 368.6476
879.1913, 356.2460
879.6734, 343.6184
880.1555, 331.5091
880.6376, 319.4016
881.1198, 306.5279
881.6019, 293.6385
882.0840, 282.4335
882.5661, 272.5383
883.0482, 262.1127
883.5303, 250.7124
884.0125, 239.6582
884.4946, 230.1248
884.9767, 221.6708
885.4588, 212.7456
885.9409, 203.1048
886.4230, 194.2755
886.9052, 186.3549
887.3873, 179.2251
887.8694, 172.9358
888.3515, 167.2493
888.8336, 161.7392
889.3157, 156.4113
889.7979, 151.2778
890.2800, 146.1983
890.7621, 141.4639
891.2442, 137.1931
891.7263, 133.2616
892.2084, 129.6991
892.6906, 126.3854
893.1727, 123.0778
893.6548, 119.6438
894.1369, 116.3276
894.6190, 113.1766
895.1011, 110.3125
895.5833, 108.1300
896.0654, 106.3553
896.5475, 104.3024
897.0296, 101.7788
897.5117, 99.07506
897.9938, 96.37389
898.4760, 93.79994
898.9581, 91.78166
899.4402, 90.27776
899.9223, 88.73960
900.4044, 87.06670
900.8865, 85.42879
901.3687, 83.92136
901.8508, 82.53879
902.3329, 81.29149
902.8150, 80.22392
903.2971, 79.04092
903.7792, 77.66915
904.2614, 76.30628
904.7435, 74.89757
905.2256, 73.61543
905.7077, 72.66994
906.1898, 72.01259
906.6719, 71.38554
907.1541, 70.86529
907.6362, 70.20607
908.1183, 69.00137
908.6004, 67.97418
909.0825, 67.86861
909.5646, 68.23049
910.0468, 68.22128
910.5289, 67.63482
911.0110, 66.94187
911.4931, 66.47366
911.9752, 66.04951
912.4573, 65.41003
912.9395, 64.67899
913.4216, 64.01146
913.9037, 63.49637
914.3858, 63.48046
914.8679, 64.23447
915.3500, 65.05082
915.8321, 64.41528
916.3142, 62.61412
916.7963, 62.05346
917.2784, 62.87312
917.7606, 63.53122
918.2427, 63.48406
918.7248, 63.11068
919.2069, 62.77666
919.6890, 62.48600
920.1711, 62.25254
920.6533, 62.03896
921.1354, 61.98950
921.6175, 62.37141
922.0996, 62.58128
922.5817, 62.02166
923.0638, 61.22298
923.5460, 61.09717
924.0281, 61.79277
924.5102, 61.99578
924.9923, 60.79911
925.4744, 60.00238
925.9565, 60.68251
926.4387, 61.69794
926.9208, 62.02768
927.4029, 61.72962
927.8850, 61.21083
928.3671, 60.49210
928.8492, 60.21546
929.3314, 61.36355
929.8135, 62.75350
930.2956, 62.86824
930.7777, 62.20337
931.2598, 61.97120
931.7419, 62.45176
932.2241, 63.19646
932.7062, 63.92195
933.1883, 64.53902
933.6704, 64.81657
934.1525, 64.83271
934.6346, 65.02414
935.1168, 65.41428
935.5989, 65.37168
936.0810, 64.53100
936.5631, 63.70591
937.0452, 64.15030
937.5273, 65.74022
938.0095, 66.39648
938.4916, 65.96953
938.9737, 65.16476
939.4558, 63.84361
939.9379, 62.71859
940.4200, 62.41477
940.9022, 62.58271
941.3843, 62.31740
941.8664, 61.43417
942.3485, 60.68092
942.8306, 59.98814
943.3127, 59.51147
943.7949, 59.55441
944.2770, 59.62308
944.7591, 59.29100
945.2412, 58.58872
945.7233, 57.74403
946.2054, 56.74242
946.6876, 55.74538
947.1697, 54.64681
947.6518, 53.73307
948.1339, 53.43769
948.6160, 53.37838
949.0981, 52.93679
949.5803, 52.01316
950.0624, 50.97240
950.5445, 49.94440
951.0266, 49.02710
951.5087, 48.26120
951.9908, 47.68964
952.4730, 47.48783
952.9551, 47.55707
953.4372, 47.51011
953.9193, 47.18811
954.4014, 46.78767
954.8835, 46.51096
955.3657, 46.33996
955.8478, 46.20130
956.3299, 46.11013
956.8120, 46.20515
957.2941, 46.51467
957.7762, 46.84191
958.2584, 47.02795
958.7405, 47.28902
959.2226, 48.15703
959.7047, 49.69784
960.1868, 50.74400
960.6689, 51.18553
961.1511, 51.58547
961.6332, 52.10375
962.1153, 52.62440
962.5974, 52.99703
963.0795, 53.29525
963.5616, 53.85981
964.0438, 54.97544
964.5259, 55.75121
965.0080, 56.00414
965.4901, 56.15078
965.9722, 56.06837
966.4543, 56.13710
966.9365, 56.87801
967.4186, 58.21709
967.9007, 59.36394
968.3828, 60.41739
968.8649, 60.97437
969.3470, 60.36856
969.8292, 59.81745
970.3113, 60.19940
970.7934, 61.11735
971.2755, 61.95006
971.7576, 62.56997
972.2397, 63.07045
972.7219, 63.46461
973.2040, 63.78413
973.6861, 63.94094
974.1682, 64.11366
974.6503, 64.74426
975.1324, 65.54603
975.6146, 65.51812
976.0967, 64.34502
976.5788, 63.52830
977.0609, 64.85331
977.5430, 66.93431
978.0251, 67.86588
978.5073, 68.00288
978.9894, 68.23354
979.4715, 68.63841
979.9536, 68.68197
980.4357, 68.05610
980.9178, 67.25175
981.4000, 67.04149
981.8821, 66.56030
982.3642, 66.95629
982.8463, 66.29972
983.3284, 66.12325
983.8105, 66.64245
984.2927, 67.43599
984.7748, 68.25552
985.2569, 68.90980
985.7390, 68.81982
986.2211, 67.92493
986.7032, 67.62611
987.1854, 68.08603
987.6675, 68.27538
988.1496, 67.77924
988.6317, 67.18790
989.1138, 67.05363
989.5959, 67.28490
990.0781, 67.49397
990.5602, 67.66360
991.0423, 67.84814
991.5244, 67.95667
992.0065, 68.27403
992.4886, 69.23325
992.9708, 70.11863
993.4529, 69.93893
993.9350, 68.82171
994.4171, 68.29477
994.8992, 68.56915
995.3813, 69.10279
995.8635, 70.17095
996.3456, 71.16439
996.8277, 71.84000
997.3098, 72.27271
997.7919, 72.40947
998.2740, 72.30163
998.7562, 72.61143
999.2383, 73.54554
999.7204, 74.79907
1000.203, 76.33031
1000.685, 78.12276
1001.167, 79.97818
1001.649, 82.16932
1002.131, 84.97450
1002.613, 88.49745
1003.095, 93.04196
1003.577, 97.69163
1004.059, 104.7001
1004.542, 115.5782
1005.024, 129.1786
1005.506, 145.3847
1005.988, 163.0753
1006.470, 181.9409
1006.952, 201.3955
1007.434, 215.6496
1007.916, 222.1565
1008.398, 220.0961
1008.881, 205.7560
1009.363, 184.0933
1009.845, 159.8331
1010.327, 135.3659
1010.809, 113.8429
1011.291, 96.62613
1011.773, 82.98887
1012.255, 72.96377
1012.738, 65.58684
1013.220, 59.63361
1013.702, 54.95784
1014.184, 51.32319
1014.666, 48.59752
1015.148, 46.48549
1015.630, 44.85247
1016.112, 43.47253
1016.594, 41.98097
1017.077, 41.17099
1017.559, 39.92839
1018.041, 39.88742
1018.523, 39.73475
1019.005, 39.36553
1019.487, 39.16865
1019.969, 39.37892
1020.451, 39.68923
1020.934, 39.63679
1021.416, 39.27327
1021.898, 38.83608
1022.380, 38.33192
1022.862, 38.08179
1023.344, 38.16765
1023.826, 38.15991
1024.308, 37.79334
1024.791, 37.15409
1025.273, 36.35807
1025.755, 35.40949
1026.237, 34.52674
1026.719, 33.68349
1027.201, 33.18894
1027.683, 33.22163
1028.165, 33.08678
1028.647, 32.25136
1029.130, 31.08481
1029.612, 30.42374
1030.094, 29.52699
1030.576, 28.56011
1031.058, 28.13229
1031.540, 27.43987
1032.022, 26.65048
1032.504, 26.53129
1032.986, 26.27384
1033.469, 25.95533
1033.951, 25.77562
1034.433, 25.39989
1034.915, 24.99199
1035.397, 24.76870
1035.879, 24.16489
1036.361, 23.98376
1036.843, 23.80598
1037.326, 23.21445
1037.808, 22.48191
1038.290, 22.29526
1038.772, 22.83539
1039.254, 23.11239
1039.736, 23.16242
1040.218, 22.87918
1040.700, 21.71020
1041.182, 20.76740
1041.665, 21.09128
1042.147, 22.13729
1042.629, 22.64292
1043.111, 22.50953
1043.593, 22.28137
1044.075, 21.78159
1044.557, 21.44806
1045.039, 21.44418
1045.521, 21.56042
1046.004, 21.73435
1046.486, 21.90236
1046.968, 21.95158
1047.450, 21.88051
1047.932, 21.65580
1048.414, 20.96940
1048.896, 20.54345
1049.378, 20.68851
1049.861, 21.04073
1050.343, 21.52027
1050.825, 21.95560
1051.307, 21.96403
1051.789, 21.43186
1052.271, 21.12640
1052.753, 21.41333
1053.235, 21.65377
1053.718, 21.62710
1054.200, 21.50105
1054.682, 21.41554
1055.164, 21.32092
1055.646, 21.06363
1056.128, 20.60831
1056.610, 20.29315
1057.092, 20.34657
1057.574, 20.36727
1058.057, 20.15516
1058.539, 19.91383
1059.021, 19.66377
1059.503, 19.55431
1059.985, 20.00427
1060.467, 21.06682
1060.949, 21.57448
1061.431, 20.53271
1061.913, 19.69857
1062.396, 19.98348
1062.878, 20.50973
1063.360, 20.61822
1063.842, 20.46784
1064.324, 20.42263
1064.806, 20.53298
1065.288, 20.56381
1065.770, 20.31328
1066.253, 20.12381
1066.735, 20.22670
1067.217, 20.35490
1067.699, 20.36647
1068.181, 20.23140
1068.663, 19.81448
1069.145, 19.16677
1069.627, 18.80173
1070.109, 19.00289
1070.592, 19.36459
1071.074, 19.96675
1071.556, 20.39473
1072.038, 20.17689
1072.520, 19.67222
1073.002, 19.43479
1073.484, 19.49973
1073.966, 19.48689
1074.448, 19.15428
1074.931, 18.95527
1075.413, 19.22660
1075.895, 19.58207
1076.377, 19.82792
1076.859, 19.93192
1077.341, 19.81337
1077.823, 19.52430
1078.305, 19.29517
1078.788, 19.21378
1079.270, 19.16775
1079.752, 19.10238
1080.234, 19.05746
1080.716, 19.03864
1081.198, 19.07011
1081.680, 19.23090
1082.162, 19.46711
1082.644, 19.57191
1083.127, 19.43551
1083.609, 19.40153
1084.091, 19.77656
1084.573, 20.12351
1085.055, 20.12468
1085.537, 19.99986
1086.019, 20.03127
1086.501, 20.14428
1086.984, 20.02606
1087.466, 19.56109
1087.948, 19.26862
1088.430, 19.66823
1088.912, 19.92032
1089.394, 19.26907
1089.876, 18.54871
1090.358, 18.67987
1090.840, 19.31202
1091.323, 19.60245
1091.805, 19.37805
1092.287, 19.11899
1092.769, 18.81550
1093.251, 18.76526
1093.733, 19.30929
1094.215, 19.94356
1094.697, 20.37786
1095.179, 20.57599
1095.662, 20.43076
1096.144, 19.97609
1096.626, 19.71221
1097.108, 20.02813
1097.590, 20.19072
1098.072, 19.67787
1098.554, 19.24541
1099.036, 19.42304
1099.519, 19.93159
1100.001, 20.50615
1100.483, 21.05082
1100.965, 21.29300
1101.447, 21.00479
1101.929, 20.77326
1102.411, 20.82267
1102.893, 20.87321
1103.375, 20.55740
1103.858, 20.36018
1104.340, 20.97723
1104.822, 22.15158
1105.304, 22.90248
1105.786, 23.00282
1106.268, 23.01283
1106.750, 23.03287
1107.232, 22.97522
1107.714, 22.73362
1108.197, 22.47512
1108.679, 22.29853
1109.161, 22.21341
1109.643, 22.18662
1110.125, 22.17325
1110.607, 22.51333
1111.089, 23.84830
1111.571, 24.65645
1112.054, 24.26341
1112.536, 23.69071
1113.018, 23.50590
1113.500, 23.50987
1113.982, 23.31696
1114.464, 22.91645
1114.946, 22.88393
1115.428, 23.48042
1115.911, 24.01398
1116.393, 24.48398
1116.875, 24.84237
1117.357, 25.11592
1117.839, 25.21989
1118.321, 24.94581
1118.803, 24.40571
1119.285, 24.29238
1119.767, 24.98304
1120.250, 25.13366
1120.732, 24.47701
1121.214, 23.81401
1121.696, 23.31672
1122.178, 22.97767
1122.660, 22.78582
1123.142, 22.75843
1123.624, 22.99599
1124.106, 22.89149
1124.589, 22.87789
1125.071, 23.12781
1125.553, 22.90034
1126.035, 23.33673
1126.517, 23.79812
1126.999, 23.90471
1127.481, 23.83244
1127.963, 23.86839
1128.446, 23.99202
1128.928, 23.93454
1129.410, 23.66255
1129.892, 23.52841
1130.374, 23.59012
1130.856, 23.61878
1131.338, 23.49966
1131.820, 23.43274
1132.302, 23.63675
1132.785, 24.04608
1133.267, 24.55119
1133.749, 25.12189
1134.231, 25.19222
1134.713, 24.75388
1135.195, 24.32658
1135.677, 24.05712
1136.159, 24.03282
1136.641, 24.33945
1137.124, 24.78444
1137.606, 25.07087
1138.088, 25.21662
1138.570, 25.27173
1139.052, 25.24682
1139.534, 25.16357
1140.016, 25.04123
1140.498, 25.01819
1140.981, 25.15388
1141.463, 25.13915
1141.945, 24.51710
1142.427, 24.48144
1142.909, 23.51859
1143.391, 23.63751
1143.873, 23.11532
1144.355, 22.20979
1144.838, 22.13809
1145.320, 23.09043
1145.802, 23.80080
1146.284, 23.37459
1146.766, 22.54976
1147.248, 21.85837
1147.730, 21.37300
1148.212, 21.24625
1148.694, 21.35608
1149.177, 21.53480
1149.659, 21.72900
1150.141, 21.93323
1150.623, 22.16775
1151.105, 22.19555
1151.587, 21.68012
1152.069, 21.13279
1152.551, 21.06428
1153.033, 21.00506
1153.516, 20.25209
1153.998, 19.20627
1154.480, 18.77250
1154.962, 19.08973
1155.444, 19.45209
1155.926, 19.53541
1156.408, 19.76386
1156.890, 20.72564
1157.373, 21.34130
1157.855, 20.58837
1158.337, 19.45015
1158.819, 19.04903
1159.301, 19.33403
1159.783, 19.74462
1160.265, 20.37432
1160.747, 20.74734
1161.229, 20.82917
1161.712, 20.65373
1162.194, 19.95790
1162.676, 19.32330
1163.158, 19.13592
1163.640, 19.25642
1164.122, 19.50348
1164.604, 19.89253
1165.086, 19.84462
1165.568, 19.07303
1166.051, 18.78141
1166.533, 19.26520
1167.015, 19.68185
1167.497, 19.66042
1167.979, 19.50596
1168.461, 19.54941
1168.943, 19.68320
1169.425, 19.48268
1169.908, 19.56927
1170.390, 19.57096
1170.872, 19.35905
1171.354, 19.46419
1171.836, 18.97446
1172.318, 18.55461
1172.800, 18.62098
1173.282, 18.79915
1173.765, 18.49313
1174.247, 18.63496
1174.729, 17.98677
1175.211, 18.40127
1175.693, 18.25800
1176.175, 17.64902
1176.657, 17.50151
1177.139, 18.07759
1177.621, 18.75322
1178.104, 19.10505
1178.586, 19.23818
1179.068, 19.15084
1179.550, 19.01674
1180.032, 19.06849
1180.514, 19.25894
1180.996, 19.56670
1181.478, 19.90448
1181.960, 20.02394
1182.443, 19.82870
1182.925, 19.59401
1183.407, 19.32216
1183.889, 19.26148
1184.371, 19.86831
1184.853, 20.45832
1185.335, 20.31475
1185.817, 19.80237
1186.300, 19.53231
1186.782, 19.56428
1187.264, 19.67000
1187.746, 19.92171
1188.228, 19.99157
1188.710, 19.61118
1189.192, 19.31634
1189.674, 19.20615
1190.156, 19.35290
1190.639, 20.07417
1191.121, 20.96440
1191.603, 21.06715
1192.085, 20.29623
1192.567, 19.89058
1193.049, 19.93660
1193.531, 20.12387
1194.013, 20.48840
1194.495, 20.78492
1194.978, 20.92193
1195.460, 20.90092
1195.942, 20.69003
1196.424, 20.38029
1196.906, 20.28735
1197.388, 20.39230
1197.870, 20.19392
1198.352, 19.71850
1198.835, 19.59625
1199.317, 19.93398
1199.799, 20.34368
1200.281, 20.62347
1200.763, 20.74007
1201.245, 20.60591
1201.727, 20.34994
1202.209, 20.21163
1202.692, 20.12414
1203.174, 19.88177
1203.656, 19.57828
1204.138, 19.56866
1204.620, 19.84894
1205.102, 19.92938
1205.584, 19.50046
1206.066, 19.14883
1206.548, 19.40258
1207.031, 19.78199
1207.513, 20.04432
1207.995, 20.13235
1208.477, 19.90660
1208.959, 19.50690
1209.441, 19.15025
1209.923, 18.88513
1210.405, 18.91300
1210.887, 19.68136
1211.370, 20.11808
1211.852, 19.72589
1212.334, 19.38569
1212.816, 19.58650
1213.298, 19.85414
1213.780, 19.69403
1214.262, 19.36040
1214.744, 19.55336
1215.227, 20.35937
1215.709, 20.71674
1216.191, 20.49462
1216.673, 20.40812
1217.155, 20.61667
1217.637, 20.57233
1218.119, 19.98870
1218.601, 19.37368
1219.083, 19.25028
1219.566, 19.45774
1220.048, 19.72128
1220.530, 19.96957
1221.012, 19.74428
1221.494, 19.17400
1221.976, 18.95815
1222.458, 19.14143
1222.940, 19.16776
1223.422, 18.79657
1223.905, 18.46447
1224.387, 18.59478
1224.869, 18.88250
1225.351, 19.06756
1225.833, 19.16434
1226.315, 19.07485
1226.797, 18.97276
1227.279, 19.31934
1227.762, 19.95038
1228.244, 19.92046
1228.726, 18.73617
1229.208, 18.08627
1229.690, 19.11154
1230.172, 19.96923
1230.654, 19.76748
1231.136, 19.45902
1231.619, 19.82104
1232.101, 20.34198
1232.583, 20.28437
1233.065, 19.73885
1233.547, 19.29129
1234.029, 18.95149
1234.511, 18.66260
1234.993, 18.38076
1235.475, 18.33995
1235.958, 18.63806
1236.440, 18.98127
1236.922, 19.21282
1237.404, 19.32708
1237.886, 19.29439
1238.368, 19.35782
1238.850, 19.15320
1239.332, 19.19374
1239.814, 19.05875
1240.297, 18.77322
1240.779, 18.50528
1241.261, 18.28932
1241.743, 18.02587
1242.225, 17.65209
1242.707, 17.42838
1243.189, 17.76718
1243.671, 18.15313
1244.154, 18.02468
1244.636, 17.78151
1245.118, 17.91796
1245.600, 18.22931
1246.082, 18.29466
1246.564, 18.10742
1247.046, 17.99185
1247.528, 18.08665
1248.010, 18.05938
1248.493, 17.84241
1248.975, 17.50692
1249.457, 16.78637
1249.939, 16.34112
1250.421, 16.68755
1250.903, 17.32972
1251.385, 17.62794
1251.867, 17.62434
1252.349, 17.55791
1252.832, 17.43245
1253.314, 17.13132
1253.796, 16.64056
1254.278, 16.52637
1254.760, 16.90330
1255.242, 17.11756
1255.724, 16.80639
1256.206, 16.53948
1256.689, 17.10308
1257.171, 16.84346
1257.653, 16.87689
1258.135, 16.96342
1258.617, 16.69892
1259.099, 16.71660
1259.581, 16.51644
1260.063, 16.15569
1260.546, 16.27314
1261.028, 17.15698
1261.510, 17.77142
1261.992, 17.48965
1262.474, 17.07635
1262.956, 16.85277
1263.438, 16.56838
1263.920, 15.80855
1264.402, 15.09667
1264.885, 15.12496
1265.367, 15.71437
1265.849, 16.25742
1266.331, 16.79216
1266.813, 17.04177
1267.295, 16.99356
1267.777, 16.64195
1268.259, 15.91690
1268.741, 15.47355
1269.224, 15.61333
1269.706, 15.82207
1270.188, 15.59178
1270.670, 15.22905
1271.152, 15.23086
1271.634, 15.57138
1272.116, 16.53015
1272.598, 17.64724
1273.081, 17.56519
1273.563, 16.64812
1274.045, 16.62326
1274.527, 17.86787
1275.009, 18.72896
1275.491, 18.28723
1275.973, 17.50236
1276.455, 16.50133
1276.938, 15.69872
1277.420, 15.30378
1277.902, 15.22181
1278.384, 15.58808
1278.866, 16.09606
1279.348, 16.11641
1279.830, 15.67352
1280.312, 15.41317
1280.794, 15.41588
1281.276, 15.24031
1281.759, 14.79101
1282.241, 14.63097
1282.723, 14.92109
1283.205, 15.41147
1283.687, 15.97835
1284.169, 16.38030
1284.651, 16.23508
1285.133, 15.82930
1285.616, 15.65146
1286.098, 15.70044
##END=



