##NAMES=Grossular
##RRUFFID=R050036
##IDEAL CHEMISTRY=Ca_3_Al_2_(SiO_4_)_3_
##LOCALITY=Wah Wah Mountains, Utah, USA
##OWNER=RRUFF
##SOURCE=Eugene Schlepp
##DESCRIPTION=Colorless single crystal in rhyolite matrix
##STATUS=The identification of this mineral has been confirmed by X-ray diffraction and chemical analysis
##URL=rruff.info/R050036
##MEASURED CHEMISTRY=(Ca_2.95_Mg_0.05_)_Σ=3_(Al_1.70_Fe^3+^_0.30_)_Σ=2_(Si_1.00_O_4_)_3_; trace amounts of P
140.5016, 540.5565
140.9837, 540.1591
141.4658, 538.1331
141.9480, 537.4351
142.4301, 540.5673
142.9122, 550.0935
143.3943, 557.8553
143.8764, 561.8303
144.3585, 562.1229
144.8407, 566.1158
145.3228, 576.9015
145.8049, 589.0121
146.2870, 596.9887
146.7691, 595.2822
147.2512, 596.6306
147.7334, 605.0149
148.2155, 623.4452
148.6976, 635.6246
149.1797, 634.3367
149.6618, 628.8856
150.1439, 631.5322
150.6261, 650.2156
151.1082, 669.8416
151.5903, 686.9834
152.0724, 701.9174
152.5545, 713.3946
153.0366, 718.3892
153.5188, 719.8897
154.0009, 723.7540
154.4830, 733.2682
154.9651, 743.5294
155.4472, 752.5657
155.9293, 760.4372
156.4115, 766.5600
156.8936, 769.8088
157.3757, 770.9717
157.8578, 772.8389
158.3399, 773.2634
158.8221, 776.3457
159.3042, 784.7756
159.7863, 804.6000
160.2684, 824.5761
160.7505, 842.0526
161.2326, 857.0784
161.7148, 868.7210
162.1969, 869.5209
162.6790, 869.5154
163.1611, 878.3349
163.6432, 909.2847
164.1253, 941.8491
164.6075, 964.1210
165.0896, 975.6376
165.5717, 987.0837
166.0538, 1005.279
166.5359, 1027.023
167.0180, 1047.754
167.5002, 1064.048
167.9823, 1079.753
168.4644, 1095.996
168.9465, 1112.011
169.4286, 1134.468
169.9107, 1173.040
170.3929, 1221.724
170.8750, 1268.905
171.3571, 1304.102
171.8392, 1336.210
172.3213, 1374.607
172.8034, 1420.460
173.2856, 1471.297
173.7677, 1521.247
174.2498, 1573.330
174.7319, 1636.785
175.2140, 1722.796
175.6961, 1822.385
176.1783, 1919.351
176.6604, 2003.737
177.1425, 2095.266
177.6246, 2213.125
178.1067, 2356.643
178.5888, 2529.984
179.0710, 2797.216
179.5531, 3094.197
180.0352, 3274.965
180.5173, 3303.162
180.9994, 3197.886
181.4815, 2942.101
181.9637, 2538.024
182.4458, 2126.388
182.9279, 1803.708
183.4100, 1565.506
183.8921, 1390.739
184.3742, 1290.635
184.8564, 1242.113
185.3385, 1196.311
185.8206, 1152.272
186.3027, 1117.819
186.7848, 1105.774
187.2669, 1113.339
187.7491, 1118.565
188.2312, 1111.437
188.7133, 1095.950
189.1954, 1087.890
189.6775, 1088.606
190.1596, 1090.950
190.6418, 1084.033
191.1239, 1068.205
191.6060, 1056.301
192.0881, 1055.632
192.5702, 1064.731
193.0524, 1070.959
193.5345, 1074.166
194.0166, 1074.883
194.4987, 1071.547
194.9808, 1063.587
195.4629, 1060.233
195.9451, 1069.747
196.4272, 1091.839
196.9093, 1103.604
197.3914, 1102.620
197.8735, 1093.989
198.3556, 1085.870
198.8378, 1077.943
199.3199, 1072.647
199.8020, 1072.150
200.2841, 1076.790
200.7662, 1081.842
201.2483, 1088.401
201.7305, 1093.979
202.2126, 1089.493
202.6947, 1071.133
203.1768, 1056.932
203.6589, 1061.692
204.1410, 1089.411
204.6232, 1106.601
205.1053, 1107.395
205.5874, 1097.047
206.0695, 1093.417
206.5516, 1098.521
207.0337, 1105.049
207.5159, 1107.836
207.9980, 1105.944
208.4801, 1104.343
208.9622, 1102.948
209.4443, 1102.318
209.9264, 1105.782
210.4086, 1114.847
210.8907, 1125.019
211.3728, 1132.701
211.8549, 1137.323
212.3370, 1141.227
212.8191, 1142.938
213.3013, 1143.549
213.7834, 1154.788
214.2655, 1183.645
214.7476, 1211.956
215.2297, 1221.818
215.7118, 1205.337
216.1940, 1192.294
216.6761, 1186.948
217.1582, 1189.235
217.6403, 1200.605
218.1224, 1225.682
218.6045, 1253.475
219.0867, 1273.321
219.5688, 1282.620
220.0509, 1289.429
220.5330, 1293.358
221.0151, 1294.241
221.4972, 1302.537
221.9794, 1319.570
222.4615, 1342.589
222.9436, 1369.844
223.4257, 1404.552
223.9078, 1437.063
224.3899, 1463.246
224.8721, 1482.468
225.3542, 1508.013
225.8363, 1540.479
226.3184, 1578.875
226.8005, 1623.135
227.2827, 1674.720
227.7648, 1728.681
228.2469, 1781.916
228.7290, 1832.349
229.2111, 1897.005
229.6932, 1980.799
230.1754, 2074.036
230.6575, 2164.662
231.1396, 2246.818
231.6217, 2335.769
232.1038, 2436.497
232.5859, 2550.845
233.0681, 2667.259
233.5502, 2786.079
234.0323, 2906.207
234.5144, 3027.748
234.9965, 3149.591
235.4786, 3273.635
235.9608, 3404.448
236.4429, 3546.086
236.9250, 3669.450
237.4071, 3778.408
237.8892, 3865.635
238.3713, 3917.340
238.8535, 3920.278
239.3356, 3909.400
239.8177, 3890.569
240.2998, 3855.559
240.7819, 3843.652
241.2640, 3853.439
241.7462, 3886.918
242.2283, 3946.505
242.7104, 4028.350
243.1925, 4143.309
243.6746, 4305.371
244.1567, 4541.511
244.6389, 4741.581
245.1210, 4935.650
245.6031, 5076.198
246.0852, 5074.536
246.5673, 4903.170
247.0494, 4634.964
247.5316, 4272.463
248.0137, 3765.297
248.4958, 3332.543
248.9779, 2987.749
249.4600, 2712.252
249.9421, 2481.777
250.4243, 2302.142
250.9064, 2154.007
251.3885, 2031.456
251.8706, 1935.278
252.3527, 1862.843
252.8348, 1821.974
253.3170, 1800.019
253.7991, 1772.770
254.2812, 1734.889
254.7633, 1702.471
255.2454, 1681.946
255.7275, 1675.713
256.2097, 1673.689
256.6918, 1677.850
257.1739, 1684.884
257.6560, 1687.606
258.1381, 1681.764
258.6202, 1680.421
259.1024, 1688.865
259.5845, 1708.536
260.0666, 1731.924
260.5487, 1760.185
261.0308, 1791.247
261.5129, 1823.360
261.9951, 1857.833
262.4772, 1889.549
262.9593, 1915.394
263.4414, 1934.072
263.9235, 1953.356
264.4056, 1971.453
264.8878, 1992.103
265.3699, 2022.941
265.8520, 2066.482
266.3341, 2113.762
266.8162, 2161.133
267.2983, 2207.031
267.7805, 2260.013
268.2626, 2319.065
268.7447, 2385.948
269.2268, 2464.084
269.7089, 2554.342
270.1910, 2652.329
270.6732, 2757.883
271.1553, 2870.778
271.6374, 2986.955
272.1195, 3101.615
272.6016, 3226.910
273.0837, 3377.563
273.5659, 3554.882
274.0480, 3753.933
274.5301, 3992.190
275.0122, 4271.822
275.4943, 4503.916
275.9764, 4702.152
276.4586, 4827.061
276.9407, 4811.183
277.4228, 4648.227
277.9049, 4405.809
278.3870, 4080.262
278.8691, 3677.273
279.3513, 3323.710
279.8334, 3018.227
280.3155, 2765.674
280.7976, 2583.015
281.2798, 2473.854
281.7619, 2386.353
282.2440, 2302.621
282.7261, 2224.187
283.2082, 2165.089
283.6903, 2127.802
284.1725, 2100.741
284.6546, 2068.055
285.1367, 2030.526
285.6188, 2001.900
286.1009, 1993.014
286.5830, 1997.581
287.0652, 1986.660
287.5473, 1958.571
288.0294, 1925.635
288.5115, 1903.225
288.9936, 1889.573
289.4757, 1870.941
289.9579, 1839.722
290.4400, 1800.889
290.9221, 1765.576
291.4042, 1733.567
291.8863, 1707.790
292.3684, 1695.386
292.8506, 1693.201
293.3327, 1687.287
293.8148, 1671.790
294.2969, 1650.677
294.7790, 1628.664
295.2611, 1605.676
295.7433, 1588.461
296.2254, 1588.098
296.7075, 1598.589
297.1896, 1602.639
297.6717, 1591.290
298.1538, 1574.484
298.6360, 1566.791
299.1181, 1567.747
299.6002, 1572.699
300.0823, 1575.571
300.5644, 1580.206
301.0465, 1595.042
301.5287, 1628.225
302.0108, 1665.003
302.4929, 1688.188
302.9750, 1699.476
303.4571, 1707.260
303.9392, 1716.042
304.4214, 1725.207
304.9035, 1733.636
305.3856, 1739.003
305.8677, 1746.609
306.3498, 1762.101
306.8319, 1783.923
307.3141, 1807.013
307.7962, 1829.554
308.2783, 1851.054
308.7604, 1870.927
309.2425, 1887.513
309.7246, 1904.933
310.2068, 1927.692
310.6889, 1953.644
311.1710, 1977.466
311.6531, 1994.665
312.1352, 2009.967
312.6173, 2027.401
313.0995, 2049.134
313.5816, 2067.975
314.0637, 2078.392
314.5458, 2083.775
315.0279, 2090.611
315.5100, 2101.084
315.9922, 2113.890
316.4743, 2126.476
316.9564, 2136.056
317.4385, 2155.807
317.9206, 2196.114
318.4027, 2247.824
318.8849, 2298.146
319.3670, 2340.078
319.8491, 2383.182
320.3312, 2431.624
320.8133, 2486.841
321.2954, 2541.564
321.7776, 2594.047
322.2597, 2645.864
322.7418, 2698.694
323.2239, 2761.179
323.7060, 2816.313
324.1881, 2853.361
324.6703, 2869.303
325.1524, 2903.433
325.6345, 2977.929
326.1166, 3060.934
326.5987, 3127.740
327.0808, 3187.563
327.5630, 3220.276
328.0451, 3225.555
328.5272, 3203.113
329.0093, 3144.311
329.4914, 3025.847
329.9735, 2893.763
330.4557, 2776.700
330.9378, 2671.285
331.4199, 2587.336
331.9020, 2531.227
332.3841, 2497.731
332.8662, 2459.659
333.3484, 2407.719
333.8305, 2365.864
334.3126, 2349.035
334.7947, 2365.622
335.2768, 2381.962
335.7589, 2396.323
336.2411, 2409.551
336.7232, 2423.759
337.2053, 2438.331
337.6874, 2455.409
338.1695, 2475.884
338.6516, 2499.463
339.1338, 2527.999
339.6159, 2562.293
340.0980, 2599.959
340.5801, 2636.157
341.0622, 2671.123
341.5443, 2706.586
342.0265, 2744.648
342.5086, 2784.583
342.9907, 2823.268
343.4728, 2860.593
343.9549, 2895.813
344.4370, 2933.116
344.9192, 2970.490
345.4013, 2988.494
345.8834, 2968.896
346.3655, 2927.883
346.8476, 2906.859
347.3297, 2905.996
347.8119, 2919.893
348.2940, 2944.167
348.7761, 2979.456
349.2582, 3027.021
349.7403, 3090.138
350.2225, 3163.824
350.7046, 3237.501
351.1867, 3313.472
351.6688, 3404.477
352.1509, 3523.306
352.6331, 3662.279
353.1152, 3810.588
353.5973, 3967.293
354.0794, 4130.028
354.5615, 4291.549
355.0436, 4456.262
355.5258, 4637.566
356.0079, 4836.332
356.4900, 5058.518
356.9721, 5310.811
357.4542, 5596.976
357.9363, 5903.979
358.4185, 6215.600
358.9006, 6544.051
359.3827, 6910.459
359.8648, 7343.365
360.3469, 7800.265
360.8290, 8254.248
361.3112, 8700.274
361.7933, 9176.876
362.2754, 9700.382
362.7575, 10262.79
363.2396, 10857.92
363.7217, 11477.61
364.2039, 12128.66
364.6860, 12840.97
365.1681, 13618.06
365.6502, 14327.02
366.1323, 14969.03
366.6144, 15534.53
367.0966, 16018.29
367.5787, 16435.90
368.0608, 16745.18
368.5429, 16896.56
369.0250, 16922.82
369.5071, 16984.30
369.9893, 17061.35
370.4714, 17195.28
370.9535, 17408.91
371.4356, 17715.58
371.9177, 18073.96
372.3998, 18521.94
372.8820, 19003.49
373.3641, 19418.54
373.8462, 19820.74
374.3283, 20017.14
374.8104, 19925.85
375.2925, 19537.74
375.7747, 18940.14
376.2568, 18106.56
376.7389, 17106.50
377.2210, 15997.41
377.7031, 14768.56
378.1852, 13588.13
378.6674, 12486.92
379.1495, 11474.21
379.6316, 10544.69
380.1137, 9707.011
380.5958, 8944.817
381.0779, 8261.022
381.5601, 7645.237
382.0422, 7097.805
382.5243, 6612.123
383.0064, 6185.123
383.4885, 5821.179
383.9706, 5512.947
384.4528, 5231.625
384.9349, 4947.304
385.4170, 4677.146
385.8991, 4444.900
386.3812, 4255.476
386.8633, 4092.509
387.3455, 3949.302
387.8276, 3821.218
388.3097, 3695.194
388.7918, 3553.427
389.2739, 3419.825
389.7560, 3317.969
390.2382, 3251.840
390.7203, 3190.959
391.2024, 3116.192
391.6845, 3038.819
392.1666, 2970.908
392.6487, 2921.566
393.1309, 2878.243
393.6130, 2836.547
394.0951, 2796.469
394.5772, 2761.452
395.0593, 2732.796
395.5414, 2709.143
396.0236, 2689.950
396.5057, 2677.541
396.9878, 2666.672
397.4699, 2655.790
397.9520, 2646.042
398.4341, 2641.046
398.9163, 2642.096
399.3984, 2646.576
399.8805, 2653.737
400.3626, 2663.908
400.8447, 2675.984
401.3268, 2691.254
401.8090, 2707.462
402.2911, 2720.108
402.7732, 2724.344
403.2553, 2737.601
403.7374, 2766.594
404.2195, 2810.379
404.7017, 2852.357
405.1838, 2892.975
405.6659, 2930.984
406.1480, 2962.344
406.6301, 2986.958
407.1122, 3019.424
407.5944, 3062.597
408.0765, 3115.106
408.5586, 3175.356
409.0407, 3243.441
409.5228, 3311.682
410.0049, 3373.440
410.4871, 3430.724
410.9692, 3497.820
411.4513, 3583.541
411.9334, 3649.516
412.4155, 3658.819
412.8976, 3614.063
413.3798, 3524.787
413.8619, 3369.705
414.3440, 3186.483
414.8261, 3007.338
415.3082, 2832.563
415.7903, 2666.111
416.2725, 2503.154
416.7546, 2351.240
417.2367, 2215.271
417.7188, 2094.390
418.2009, 1996.394
418.6830, 1938.292
419.1652, 1910.105
419.6473, 1877.518
420.1294, 1819.122
420.6115, 1760.233
421.0937, 1714.478
421.5758, 1690.629
422.0579, 1666.867
422.5400, 1636.715
423.0221, 1605.663
423.5042, 1582.183
423.9864, 1572.444
424.4685, 1563.862
424.9506, 1553.179
425.4327, 1540.158
425.9148, 1530.176
426.3969, 1524.980
426.8791, 1520.834
427.3612, 1514.236
427.8433, 1503.861
428.3254, 1495.250
428.8075, 1489.288
429.2896, 1485.605
429.7718, 1483.244
430.2539, 1482.315
430.7360, 1482.043
431.2181, 1481.400
431.7002, 1480.584
432.1823, 1482.938
432.6645, 1489.135
433.1466, 1496.844
433.6287, 1502.355
434.1108, 1506.260
434.5929, 1511.671
435.0750, 1521.649
435.5572, 1533.111
436.0393, 1541.343
436.5214, 1546.326
437.0035, 1547.724
437.4856, 1542.136
437.9677, 1533.710
438.4499, 1528.373
438.9320, 1528.661
439.4141, 1530.630
439.8962, 1534.336
440.3783, 1537.800
440.8604, 1536.030
441.3426, 1515.144
441.8247, 1497.260
442.3068, 1497.564
442.7889, 1522.033
443.2710, 1543.728
443.7531, 1551.474
444.2353, 1554.317
444.7174, 1562.395
445.1995, 1583.398
445.6816, 1602.726
446.1637, 1616.413
446.6458, 1625.143
447.1280, 1637.928
447.6101, 1657.764
448.0922, 1678.425
448.5743, 1696.380
449.0564, 1711.175
449.5385, 1724.918
450.0207, 1737.669
450.5028, 1749.352
450.9849, 1759.477
451.4670, 1767.664
451.9491, 1775.979
452.4312, 1787.793
452.9134, 1801.344
453.3955, 1801.142
453.8776, 1785.744
454.3597, 1767.052
454.8418, 1756.396
455.3239, 1752.348
455.8061, 1749.681
456.2882, 1747.790
456.7703, 1745.777
457.2524, 1741.728
457.7345, 1736.219
458.2166, 1731.513
458.6988, 1731.678
459.1809, 1732.023
459.6630, 1726.222
460.1451, 1712.618
460.6272, 1700.036
461.1093, 1693.627
461.5915, 1691.651
462.0736, 1692.123
462.5557, 1695.771
463.0378, 1700.376
463.5199, 1705.567
464.0020, 1711.177
464.4842, 1716.332
464.9663, 1721.186
465.4484, 1725.231
465.9305, 1727.668
466.4126, 1722.589
466.8947, 1726.570
467.3769, 1744.666
467.8590, 1769.540
468.3411, 1789.517
468.8232, 1802.651
469.3053, 1814.463
469.7874, 1826.101
470.2696, 1837.613
470.7517, 1849.225
471.2338, 1859.989
471.7159, 1873.622
472.1980, 1897.447
472.6801, 1931.036
473.1623, 1951.158
473.6444, 1951.784
474.1265, 1943.359
474.6086, 1944.749
475.0907, 1954.169
475.5728, 1960.081
476.0550, 1957.232
476.5371, 1946.643
477.0192, 1927.217
477.5013, 1898.715
477.9834, 1871.662
478.4655, 1857.502
478.9477, 1848.565
479.4298, 1834.568
479.9119, 1805.430
480.3940, 1779.163
480.8761, 1767.272
481.3582, 1766.037
481.8404, 1764.991
482.3225, 1758.246
482.8046, 1752.972
483.2867, 1753.582
483.7688, 1763.379
484.2509, 1768.850
484.7331, 1761.960
485.2152, 1753.818
485.6973, 1755.015
486.1794, 1770.964
486.6615, 1787.199
487.1436, 1802.422
487.6258, 1816.497
488.1079, 1827.333
488.5900, 1831.981
489.0721, 1841.459
489.5542, 1864.929
490.0363, 1902.660
490.5185, 1931.862
491.0006, 1950.253
491.4827, 1964.985
491.9648, 1985.907
492.4470, 2011.630
492.9291, 2034.179
493.4112, 2049.798
493.8933, 2061.187
494.3754, 2070.383
494.8575, 2077.985
495.3397, 2087.208
495.8218, 2105.287
496.3039, 2123.789
496.7860, 2132.118
497.2681, 2126.466
497.7502, 2120.231
498.2324, 2123.770
498.7145, 2130.120
499.1966, 2129.879
499.6787, 2103.231
500.1608, 2086.763
500.6429, 2097.708
501.1251, 2134.116
501.6072, 2161.718
502.0893, 2172.083
502.5714, 2178.855
503.0535, 2188.214
503.5356, 2201.073
504.0178, 2214.227
504.4999, 2227.377
504.9820, 2240.998
505.4641, 2258.123
505.9462, 2281.014
506.4283, 2295.401
506.9105, 2296.318
507.3926, 2285.672
507.8747, 2271.514
508.3568, 2253.944
508.8389, 2229.282
509.3210, 2187.976
509.8032, 2137.120
510.2853, 2097.352
510.7674, 2073.184
511.2495, 2051.816
511.7316, 2018.310
512.2137, 1977.862
512.6959, 1941.596
513.1780, 1909.905
513.6601, 1887.039
514.1422, 1879.955
514.6243, 1886.417
515.1064, 1891.297
515.5886, 1889.558
516.0707, 1883.773
516.5528, 1875.387
517.0349, 1864.067
517.5170, 1851.088
517.9991, 1831.080
518.4813, 1811.699
518.9634, 1803.253
519.4455, 1811.345
519.9276, 1821.064
520.4097, 1831.272
520.8918, 1840.970
521.3740, 1843.518
521.8561, 1837.032
522.3382, 1829.626
522.8203, 1826.102
523.3024, 1826.375
523.7845, 1829.485
524.2667, 1836.340
524.7488, 1842.411
525.2309, 1838.976
525.7130, 1829.512
526.1951, 1826.396
526.6772, 1837.491
527.1594, 1853.585
527.6415, 1860.102
528.1236, 1860.564
528.6057, 1870.814
529.0878, 1901.817
529.5699, 1944.775
530.0521, 1992.046
530.5342, 2041.713
531.0163, 2101.770
531.4984, 2180.269
531.9805, 2268.689
532.4626, 2358.260
532.9448, 2438.262
533.4269, 2531.106
533.9090, 2641.656
534.3911, 2767.099
534.8732, 2891.871
535.3553, 3015.326
535.8375, 3142.177
536.3196, 3270.353
536.8017, 3400.739
537.2838, 3549.597
537.7659, 3721.456
538.2480, 3901.585
538.7302, 4069.500
539.2123, 4230.292
539.6944, 4409.402
540.1765, 4615.357
540.6586, 4836.653
541.1407, 5071.415
541.6229, 5314.500
542.1050, 5550.941
542.5871, 5801.695
543.0692, 6023.629
543.5513, 6192.450
544.0334, 6304.554
544.5156, 6314.465
544.9977, 6187.159
545.4798, 5956.474
545.9619, 5645.909
546.4440, 5206.789
546.9261, 4766.957
547.4083, 4321.357
547.8904, 3888.693
548.3725, 3508.835
548.8546, 3185.331
549.3367, 2904.467
549.8188, 2664.682
550.3010, 2465.430
550.7831, 2304.906
551.2652, 2189.411
551.7473, 2091.226
552.2294, 1988.884
552.7115, 1884.453
553.1937, 1805.247
553.6758, 1755.363
554.1579, 1722.682
554.6400, 1696.619
555.1221, 1675.960
555.6042, 1657.619
556.0864, 1639.359
556.5685, 1623.759
557.0506, 1614.329
557.5327, 1610.015
558.0148, 1607.104
558.4969, 1602.374
558.9791, 1599.553
559.4612, 1601.354
559.9433, 1608.727
560.4254, 1617.083
560.9075, 1623.421
561.3896, 1631.682
561.8718, 1646.346
562.3539, 1681.423
562.8360, 1698.260
563.3181, 1687.990
563.8002, 1660.554
564.2823, 1637.413
564.7645, 1617.742
565.2466, 1607.025
565.7287, 1608.565
566.2108, 1620.972
566.6929, 1642.118
567.1750, 1672.496
567.6572, 1696.573
568.1393, 1695.018
568.6214, 1678.488
569.1035, 1668.422
569.5856, 1669.000
570.0677, 1672.499
570.5499, 1674.505
571.0320, 1674.776
571.5141, 1672.962
571.9962, 1666.531
572.4783, 1660.385
572.9604, 1657.612
573.4426, 1657.291
573.9247, 1654.478
574.4068, 1643.319
574.8889, 1634.280
575.3710, 1632.818
575.8531, 1641.706
576.3353, 1643.195
576.8174, 1634.304
577.2995, 1622.410
577.7816, 1615.535
578.2637, 1614.641
578.7458, 1608.133
579.2280, 1593.104
579.7101, 1574.012
580.1922, 1556.388
580.6743, 1540.877
581.1564, 1531.114
581.6385, 1535.833
582.1207, 1543.472
582.6028, 1535.860
583.0849, 1515.117
583.5670, 1497.316
584.0491, 1495.205
584.5313, 1497.763
585.0134, 1496.708
585.4955, 1490.328
585.9776, 1481.850
586.4597, 1473.134
586.9418, 1462.253
587.4240, 1446.828
587.9061, 1421.100
588.3882, 1399.760
588.8703, 1385.451
589.3524, 1376.240
589.8345, 1366.309
590.3167, 1355.072
590.7988, 1345.449
591.2809, 1340.756
591.7630, 1339.098
592.2451, 1327.933
592.7272, 1306.732
593.2094, 1288.971
593.6915, 1288.909
594.1736, 1299.647
594.6557, 1309.623
595.1378, 1318.045
595.6199, 1320.189
596.1021, 1303.166
596.5842, 1280.029
597.0663, 1269.357
597.5485, 1284.565
598.0306, 1305.760
598.5127, 1330.821
598.9948, 1357.792
599.4769, 1378.944
599.9590, 1392.354
600.4412, 1402.056
600.9233, 1407.568
601.4054, 1408.256
601.8875, 1416.068
602.3696, 1433.246
602.8517, 1451.942
603.3339, 1463.365
603.8160, 1468.517
604.2981, 1480.928
604.7802, 1503.620
605.2623, 1528.051
605.7444, 1542.748
606.2266, 1550.187
606.7087, 1556.265
607.1908, 1562.091
607.6729, 1568.744
608.1550, 1577.854
608.6371, 1588.648
609.1193, 1598.926
609.6014, 1602.566
610.0835, 1609.954
610.5656, 1629.323
611.0477, 1664.029
611.5298, 1687.213
612.0120, 1691.316
612.4941, 1690.295
612.9762, 1691.382
613.4583, 1691.724
613.9404, 1705.852
614.4225, 1738.153
614.9047, 1777.643
615.3868, 1810.103
615.8689, 1836.037
616.3510, 1857.749
616.8331, 1873.195
617.3152, 1888.301
617.7974, 1916.790
618.2795, 1954.224
618.7616, 1984.866
619.2437, 1987.976
619.7258, 1989.828
620.2079, 2014.036
620.6901, 2061.471
621.1722, 2104.065
621.6543, 2129.093
622.1364, 2148.316
622.6185, 2168.863
623.1006, 2192.178
623.5828, 2215.999
624.0649, 2247.191
624.5470, 2272.587
625.0291, 2273.010
625.5112, 2243.026
625.9933, 2219.072
626.4755, 2213.176
626.9576, 2209.758
627.4397, 2173.945
627.9218, 2108.742
628.4039, 2037.075
628.8860, 1966.453
629.3682, 1897.567
629.8503, 1833.094
630.3324, 1772.333
630.8145, 1711.842
631.2966, 1651.619
631.7787, 1590.298
632.2609, 1524.055
632.7430, 1447.403
633.2251, 1385.651
633.7072, 1352.366
634.1893, 1331.547
634.6714, 1310.135
635.1536, 1287.530
635.6357, 1266.220
636.1178, 1248.916
636.5999, 1230.623
637.0820, 1198.435
637.5641, 1151.617
638.0463, 1112.961
638.5284, 1090.940
639.0105, 1080.306
639.4926, 1073.241
639.9747, 1068.831
640.4568, 1062.063
640.9390, 1049.882
641.4211, 1033.831
641.9032, 1011.283
642.3853, 982.1967
642.8674, 963.3806
643.3495, 974.1056
643.8317, 989.1071
644.3138, 990.4886
644.7959, 967.3021
645.2780, 947.2974
645.7601, 930.5262
646.2422, 916.9397
646.7244, 905.4225
647.2065, 894.9324
647.6886, 893.9107
648.1707, 907.7058
648.6528, 926.2690
649.1349, 927.3441
649.6171, 913.2288
650.0992, 900.3322
650.5813, 897.8373
651.0634, 899.7870
651.5455, 899.4496
652.0276, 897.1248
652.5098, 894.4317
652.9919, 893.5472
653.4740, 891.5454
653.9561, 885.5288
654.4382, 874.0290
654.9203, 865.9283
655.4025, 863.1808
655.8846, 863.4252
656.3667, 865.6940
656.8488, 871.3975
657.3309, 875.1102
657.8130, 877.0219
658.2952, 876.2846
658.7773, 868.7399
659.2594, 855.3867
659.7415, 849.8046
660.2236, 858.4379
660.7057, 871.6093
661.1879, 875.7148
661.6700, 872.9722
662.1521, 869.4738
662.6342, 865.7852
663.1163, 864.3500
663.5984, 869.1660
664.0806, 879.0200
664.5627, 884.1757
665.0448, 879.2122
665.5269, 871.6204
666.0090, 863.7239
666.4911, 855.0381
666.9733, 850.5817
667.4554, 851.8958
667.9375, 854.3843
668.4196, 853.6183
668.9017, 849.7810
669.3839, 848.9402
669.8660, 851.9716
670.3481, 856.4151
670.8302, 860.0020
671.3123, 862.7927
671.7944, 864.9123
672.2766, 866.3149
672.7587, 867.1532
673.2408, 868.6222
673.7229, 869.4808
674.2050, 867.3418
674.6871, 856.8590
675.1693, 848.3694
675.6514, 845.3038
676.1335, 846.6852
676.6156, 847.3998
677.0977, 846.3040
677.5798, 847.2787
678.0620, 853.9703
678.5441, 865.1766
679.0262, 866.8215
679.5083, 858.3273
679.9904, 849.9612
680.4725, 851.1633
680.9547, 857.7136
681.4368, 862.5423
681.9189, 864.7836
682.4010, 865.4559
682.8831, 864.1004
683.3652, 862.0493
683.8474, 860.6544
684.3295, 860.4746
684.8116, 860.5439
685.2937, 859.7062
685.7758, 859.5048
686.2579, 862.4971
686.7401, 870.6321
687.2222, 876.3826
687.7043, 877.5930
688.1864, 876.3729
688.6685, 878.9816
689.1506, 885.0073
689.6328, 887.7064
690.1149, 880.8163
690.5970, 870.9686
691.0791, 868.0325
691.5612, 871.1859
692.0433, 876.2114
692.5255, 884.2848
693.0076, 890.8156
693.4897, 892.3731
693.9718, 888.3324
694.4539, 883.9783
694.9360, 878.0046
695.4182, 873.7886
695.9003, 872.8900
696.3824, 875.1519
696.8645, 883.0436
697.3466, 899.2102
697.8287, 914.0629
698.3109, 915.6620
698.7930, 906.2322
699.2751, 897.0485
699.7572, 889.7211
700.2393, 884.5610
700.7214, 883.0697
701.2036, 883.7635
701.6857, 884.1281
702.1678, 880.9842
702.6499, 880.0272
703.1320, 887.8516
703.6141, 899.3295
704.0963, 900.8492
704.5784, 879.5048
705.0605, 867.5378
705.5426, 875.9686
706.0247, 898.7459
706.5068, 907.3714
706.9890, 900.3031
707.4711, 892.5257
707.9532, 894.0677
708.4353, 900.0815
708.9174, 895.4076
709.3995, 881.3340
709.8817, 870.6995
710.3638, 874.8344
710.8459, 884.7711
711.3280, 893.5461
711.8101, 900.5969
712.2922, 905.1258
712.7744, 907.6821
713.2565, 906.9905
713.7386, 901.2695
714.2207, 884.4075
714.7028, 879.7727
715.1849, 892.2872
715.6671, 908.4069
716.1492, 911.3795
716.6313, 902.5395
717.1134, 898.8940
717.5955, 904.4990
718.0776, 912.3590
718.5598, 914.5912
719.0419, 912.7206
719.5240, 909.5407
720.0061, 902.2564
720.4882, 898.4867
720.9703, 905.7681
721.4525, 918.8311
721.9346, 925.6202
722.4167, 915.5389
722.8988, 911.2781
723.3809, 920.3814
723.8630, 938.1113
724.3452, 943.3994
724.8273, 934.1028
725.3094, 927.7256
725.7915, 934.7018
726.2736, 949.7018
726.7557, 960.9387
727.2379, 968.1934
727.7200, 969.7493
728.2021, 957.9218
728.6842, 944.6107
729.1663, 941.0901
729.6484, 948.6379
730.1306, 953.5502
730.6127, 947.6750
731.0948, 941.6580
731.5769, 941.7595
732.0590, 950.0591
732.5411, 955.7203
733.0233, 958.1926
733.5054, 959.2618
733.9875, 959.8304
734.4696, 960.1783
734.9517, 963.1365
735.4338, 969.6235
735.9160, 975.1432
736.3981, 972.0627
736.8802, 966.0287
737.3623, 966.3007
737.8444, 981.0334
738.3266, 991.2777
738.8087, 983.7416
739.2908, 969.4956
739.7729, 964.9579
740.2551, 975.7000
740.7372, 987.3352
741.2193, 1000.066
741.7014, 1011.301
742.1835, 1014.349
742.6656, 1009.101
743.1478, 1003.516
743.6299, 999.0966
744.1120, 996.9989
744.5941, 1000.144
745.0762, 1007.311
745.5583, 1014.822
746.0405, 1021.018
746.5226, 1026.840
747.0047, 1033.238
747.4868, 1039.878
747.9689, 1044.634
748.4510, 1047.050
748.9332, 1047.687
749.4153, 1045.547
749.8974, 1041.194
750.3795, 1042.268
750.8616, 1049.601
751.3438, 1055.881
751.8259, 1052.129
752.3080, 1044.812
752.7901, 1052.023
753.2722, 1073.367
753.7543, 1093.765
754.2365, 1106.596
754.7186, 1111.975
755.2007, 1106.456
755.6828, 1086.392
756.1649, 1075.720
756.6470, 1084.586
757.1292, 1098.439
757.6113, 1109.619
758.0934, 1118.472
758.5755, 1122.057
759.0576, 1118.983
759.5397, 1115.394
760.0219, 1118.210
760.5040, 1125.806
760.9861, 1133.559
761.4682, 1141.065
761.9503, 1146.541
762.4324, 1144.337
762.9146, 1141.150
763.3967, 1145.052
763.8788, 1161.953
764.3609, 1179.627
764.8430, 1201.301
765.3251, 1219.662
765.8073, 1223.984
766.2894, 1208.349
766.7715, 1202.920
767.2536, 1214.438
767.7357, 1232.994
768.2178, 1235.850
768.7000, 1229.666
769.1821, 1245.185
769.6642, 1311.081
770.1463, 1371.843
770.6284, 1367.783
771.1105, 1325.651
771.5927, 1297.159
772.0748, 1312.353
772.5569, 1326.556
773.0390, 1329.118
773.5211, 1323.461
774.0032, 1316.639
774.4854, 1306.832
774.9675, 1303.224
775.4496, 1310.811
775.9317, 1324.384
776.4138, 1330.059
776.8959, 1329.264
777.3781, 1330.004
777.8602, 1337.869
778.3423, 1347.912
778.8244, 1355.127
779.3065, 1360.685
779.7886, 1369.715
780.2708, 1388.264
780.7529, 1405.824
781.2350, 1418.794
781.7171, 1427.695
782.1992, 1436.874
782.6813, 1445.638
783.1635, 1457.170
783.6456, 1475.619
784.1277, 1497.645
784.6098, 1510.849
785.0919, 1516.208
785.5740, 1523.893
786.0562, 1544.321
786.5383, 1567.226
787.0204, 1583.351
787.5025, 1592.289
787.9846, 1601.670
788.4667, 1607.975
788.9489, 1620.615
789.4310, 1646.990
789.9131, 1688.319
790.3952, 1713.160
790.8773, 1717.182
791.3594, 1723.992
791.8416, 1753.785
792.3237, 1799.461
792.8058, 1843.839
793.2879, 1886.357
793.7700, 1925.335
794.2521, 1950.729
794.7343, 1978.243
795.2164, 2022.677
795.6985, 2091.217
796.1806, 2153.846
796.6627, 2202.252
797.1448, 2250.224
797.6270, 2304.704
798.1091, 2365.266
798.5912, 2437.418
799.0733, 2523.374
799.5554, 2612.912
800.0375, 2693.431
800.5197, 2770.264
801.0018, 2851.590
801.4839, 2936.902
801.9660, 3037.484
802.4481, 3173.773
802.9302, 3319.919
803.4124, 3452.341
803.8945, 3552.130
804.3766, 3674.284
804.8587, 3823.515
805.3408, 3988.783
805.8229, 4158.184
806.3051, 4331.823
806.7872, 4530.336
807.2693, 4759.430
807.7514, 4993.505
808.2335, 5203.082
808.7156, 5404.400
809.1978, 5622.727
809.6799, 5866.190
810.1620, 6117.083
810.6441, 6361.383
811.1262, 6614.648
811.6083, 6890.384
812.0905, 7201.121
812.5726, 7509.014
813.0547, 7808.956
813.5368, 8108.447
814.0189, 8410.698
814.5010, 8717.667
814.9832, 9043.737
815.4653, 9391.475
815.9474, 9747.475
816.4295, 10104.76
816.9116, 10464.00
817.3937, 10828.27
817.8759, 11200.55
818.3580, 11567.14
818.8401, 11951.67
819.3222, 12307.28
819.8043, 12585.13
820.2864, 12769.74
820.7686, 12956.32
821.2507, 13163.82
821.7328, 13337.88
822.2149, 13404.86
822.6970, 13380.67
823.1791, 13305.31
823.6613, 13189.80
824.1434, 13018.72
824.6255, 12763.36
825.1076, 12456.05
825.5897, 12137.00
826.0718, 11794.70
826.5540, 11463.11
827.0361, 11142.66
827.5182, 10826.97
828.0003, 10499.14
828.4824, 10162.07
828.9645, 9836.478
829.4467, 9525.921
829.9288, 9233.857
830.4109, 8961.855
830.8930, 8712.683
831.3751, 8489.910
831.8572, 8307.339
832.3394, 8126.748
832.8215, 7919.582
833.3036, 7714.862
833.7857, 7544.355
834.2678, 7426.838
834.7499, 7291.699
835.2321, 7127.943
835.7142, 6963.824
836.1963, 6833.439
836.6784, 6732.026
837.1605, 6651.950
837.6426, 6598.550
838.1248, 6538.269
838.6069, 6427.912
839.0890, 6304.649
839.5711, 6211.254
840.0532, 6168.873
840.5353, 6135.853
841.0175, 6117.771
841.4996, 6098.604
841.9817, 6060.573
842.4638, 6002.740
842.9459, 5945.112
843.4280, 5888.576
843.9102, 5837.576
844.3923, 5796.825
844.8744, 5764.813
845.3565, 5741.723
845.8386, 5730.962
846.3207, 5715.472
846.8029, 5693.022
847.2850, 5659.474
847.7671, 5608.371
848.2492, 5521.862
848.7313, 5470.458
849.2134, 5464.631
849.6956, 5468.167
850.1777, 5441.091
850.6598, 5392.836
851.1419, 5356.244
851.6240, 5335.504
852.1061, 5322.432
852.5883, 5310.509
853.0704, 5303.230
853.5525, 5304.943
854.0346, 5320.483
854.5167, 5331.253
854.9988, 5329.107
855.4810, 5331.085
855.9631, 5348.667
856.4452, 5382.076
856.9273, 5428.254
857.4094, 5487.460
857.8915, 5552.069
858.3737, 5612.109
858.8558, 5674.330
859.3379, 5741.247
859.8200, 5810.955
860.3021, 5913.029
860.7842, 6081.014
861.2664, 6263.533
861.7485, 6421.913
862.2306, 6550.199
862.7127, 6734.057
863.1948, 6983.857
863.6769, 7250.054
864.1591, 7488.790
864.6412, 7721.726
865.1233, 8012.743
865.6054, 8363.058
866.0875, 8728.307
866.5696, 9079.627
867.0518, 9444.891
867.5339, 9837.169
868.0160, 10263.93
868.4981, 10728.30
868.9802, 11242.03
869.4623, 11771.32
869.9445, 12300.02
870.4266, 12827.59
870.9087, 13342.00
871.3908, 13852.08
871.8729, 14379.13
872.3550, 14979.87
872.8372, 15576.05
873.3193, 16098.58
873.8014, 16557.87
874.2835, 16997.05
874.7656, 17463.59
875.2477, 17864.84
875.7299, 18178.45
876.2120, 18407.43
876.6941, 18588.04
877.1762, 18720.00
877.6583, 18730.81
878.1404, 18569.36
878.6226, 18289.00
879.1047, 17952.56
879.5869, 17555.30
880.0690, 17077.24
880.5511, 16471.45
881.0332, 15828.82
881.5153, 15163.16
881.9974, 14483.42
882.4796, 13784.19
882.9617, 13057.06
883.4438, 12353.43
883.9259, 11688.03
884.4080, 11061.53
884.8901, 10490.14
885.3723, 9961.318
885.8544, 9442.056
886.3365, 8909.619
886.8186, 8411.607
887.3007, 7981.497
887.7828, 7599.972
888.2650, 7238.317
888.7471, 6896.990
889.2292, 6581.627
889.7113, 6293.768
890.1934, 6028.510
890.6755, 5772.798
891.1577, 5531.802
891.6398, 5315.968
892.1219, 5131.991
892.6040, 4959.328
893.0861, 4781.670
893.5682, 4612.451
894.0504, 4465.581
894.5325, 4350.563
895.0146, 4242.773
895.4967, 4145.913
895.9788, 4049.787
896.4609, 3939.869
896.9431, 3821.559
897.4252, 3736.544
897.9073, 3687.448
898.3894, 3642.891
898.8715, 3572.949
899.3536, 3500.228
899.8358, 3446.941
900.3179, 3417.941
900.8000, 3375.311
901.2821, 3302.759
901.7642, 3235.546
902.2463, 3192.456
902.7285, 3169.701
903.2106, 3130.245
903.6927, 3074.937
904.1748, 3022.490
904.6569, 2988.290
905.1390, 2958.988
905.6212, 2919.299
906.1033, 2872.254
906.5854, 2829.674
907.0675, 2802.638
907.5496, 2771.664
908.0317, 2732.557
908.5139, 2686.467
908.9960, 2632.500
909.4781, 2570.822
909.9602, 2517.246
910.4423, 2479.958
910.9244, 2450.061
911.4066, 2419.219
911.8887, 2387.848
912.3708, 2356.243
912.8529, 2320.072
913.3350, 2289.951
913.8171, 2271.167
914.2993, 2256.897
914.7814, 2239.464
915.2635, 2219.067
915.7456, 2190.739
916.2277, 2151.584
916.7098, 2113.838
917.1920, 2096.423
917.6741, 2088.128
918.1562, 2071.158
918.6383, 2038.184
919.1204, 2010.665
919.6025, 2001.007
920.0847, 1994.240
920.5668, 1979.865
921.0489, 1956.147
921.5310, 1937.698
922.0131, 1925.297
922.4952, 1912.265
922.9774, 1888.800
923.4595, 1863.475
923.9416, 1851.062
924.4237, 1851.567
924.9058, 1850.834
925.3879, 1846.488
925.8701, 1835.772
926.3522, 1813.522
926.8343, 1782.646
927.3164, 1770.792
927.7985, 1780.589
928.2806, 1784.163
928.7628, 1762.792
929.2449, 1733.505
929.7270, 1723.098
930.2091, 1726.798
930.6912, 1731.385
931.1733, 1736.390
931.6555, 1735.695
932.1376, 1723.759
932.6197, 1706.561
933.1018, 1692.843
933.5839, 1682.186
934.0660, 1678.159
934.5482, 1682.573
935.0303, 1690.000
935.5124, 1692.108
935.9945, 1692.729
936.4766, 1699.883
936.9587, 1720.324
937.4409, 1733.954
937.9230, 1722.999
938.4051, 1711.561
938.8872, 1720.484
939.3693, 1755.664
939.8514, 1775.901
940.3336, 1779.592
940.8157, 1778.256
941.2978, 1782.117
941.7799, 1786.631
942.2620, 1782.888
942.7441, 1771.142
943.2263, 1764.031
943.7084, 1772.974
944.1905, 1780.829
944.6726, 1780.402
945.1547, 1772.961
945.6368, 1766.021
946.1190, 1759.509
946.6011, 1754.175
947.0832, 1753.735
947.5653, 1750.912
948.0474, 1730.311
948.5295, 1699.952
949.0117, 1678.493
949.4938, 1689.215
949.9759, 1687.170
950.4580, 1654.937
950.9401, 1612.805
951.4222, 1594.113
951.9044, 1599.259
952.3865, 1597.531
952.8686, 1583.174
953.3507, 1565.261
953.8328, 1550.736
954.3149, 1539.708
954.7971, 1534.312
955.2792, 1539.186
955.7613, 1533.290
956.2434, 1507.455
956.7255, 1477.521
957.2076, 1449.602
957.6898, 1424.012
958.1719, 1420.329
958.6540, 1438.087
959.1361, 1448.040
959.6182, 1418.926
960.1003, 1381.581
960.5825, 1364.828
961.0646, 1366.309
961.5467, 1365.760
962.0288, 1352.227
962.5109, 1348.126
962.9930, 1361.925
963.4752, 1385.648
963.9573, 1399.948
964.4394, 1405.780
964.9215, 1409.455
965.4036, 1411.958
965.8857, 1415.192
966.3679, 1419.121
966.8500, 1425.334
967.3321, 1436.164
967.8142, 1453.332
968.2963, 1472.737
968.7784, 1495.091
969.2606, 1517.906
969.7427, 1538.753
970.2248, 1557.741
970.7069, 1573.860
971.1890, 1587.048
971.6711, 1603.457
972.1533, 1631.885
972.6354, 1660.728
973.1175, 1681.303
973.5996, 1693.487
974.0817, 1706.065
974.5638, 1719.078
975.0460, 1731.951
975.5281, 1742.599
976.0102, 1754.861
976.4923, 1780.582
976.9744, 1815.157
977.4565, 1845.065
977.9387, 1861.886
978.4208, 1875.988
978.9029, 1892.140
979.3850, 1906.904
979.8671, 1912.969
980.3492, 1906.442
980.8314, 1916.734
981.3135, 1950.212
981.7956, 1986.730
982.2777, 2004.571
982.7598, 2011.517
983.2419, 2018.656
983.7241, 2028.015
984.2062, 2034.258
984.6883, 2024.575
985.1704, 2023.697
985.6525, 2048.667
986.1346, 2095.165
986.6168, 2112.018
987.0989, 2100.274
987.5810, 2092.822
988.0631, 2113.552
988.5452, 2143.096
989.0273, 2164.833
989.5095, 2180.677
989.9916, 2195.241
990.4737, 2204.653
990.9558, 2221.465
991.4379, 2250.715
991.9200, 2282.575
992.4022, 2297.852
992.8843, 2301.385
993.3664, 2315.080
993.8485, 2343.440
994.3306, 2378.216
994.8127, 2419.750
995.2949, 2461.181
995.7770, 2494.442
996.2591, 2517.108
996.7412, 2548.609
997.2233, 2591.451
997.7054, 2632.925
998.1876, 2661.201
998.6697, 2684.189
999.1518, 2721.100
999.6339, 2769.381
1000.116, 2819.081
1000.598, 2878.923
1001.080, 2924.407
1001.562, 2938.844
1002.044, 2937.990
1002.527, 2952.862
1003.009, 2985.468
1003.491, 3003.725
1003.973, 3001.865
1004.455, 2983.094
1004.937, 2944.518
1005.419, 2894.135
1005.901, 2843.181
1006.384, 2795.972
1006.866, 2737.803
1007.348, 2662.238
1007.830, 2584.281
1008.312, 2515.558
1008.794, 2452.442
1009.276, 2363.722
1009.758, 2253.678
1010.240, 2154.943
1010.723, 2094.320
1011.205, 2043.364
1011.687, 1984.695
1012.169, 1922.041
1012.651, 1865.995
1013.133, 1816.882
1013.615, 1773.214
1014.097, 1736.000
1014.580, 1700.648
1015.062, 1658.857
1015.544, 1615.419
1016.026, 1579.259
1016.508, 1552.606
1016.990, 1531.299
1017.472, 1520.036
1017.954, 1507.581
1018.436, 1485.316
1018.919, 1454.305
1019.401, 1436.736
1019.883, 1432.650
1020.365, 1427.031
1020.847, 1406.452
1021.329, 1384.177
1021.811, 1375.881
1022.293, 1376.158
1022.776, 1371.359
1023.258, 1354.711
1023.740, 1339.825
1024.222, 1328.577
1024.704, 1318.523
1025.186, 1306.128
1025.668, 1292.140
1026.150, 1278.302
1026.632, 1264.388
1027.115, 1256.146
1027.597, 1262.802
1028.079, 1271.464
1028.561, 1271.811
1029.043, 1264.340
1029.525, 1266.145
1030.007, 1278.836
1030.489, 1287.161
1030.972, 1282.407
1031.454, 1271.307
1031.936, 1260.438
1032.418, 1250.771
1032.900, 1244.519
1033.382, 1245.766
1033.864, 1245.760
1034.346, 1244.066
1034.828, 1240.276
1035.311, 1233.583
1035.793, 1224.237
1036.275, 1213.179
1036.757, 1200.376
1037.239, 1190.540
1037.721, 1187.838
1038.203, 1188.530
1038.685, 1192.184
1039.167, 1197.800
1039.650, 1196.844
1040.132, 1187.270
1040.614, 1180.592
1041.096, 1182.719
1041.578, 1186.438
1042.060, 1177.094
1042.542, 1161.654
1043.024, 1153.298
1043.507, 1159.223
1043.989, 1166.283
1044.471, 1173.784
1044.953, 1179.726
1045.435, 1183.645
1045.917, 1185.220
1046.399, 1176.689
1046.881, 1158.647
1047.364, 1145.312
1047.846, 1149.249
1048.328, 1158.454
1048.810, 1168.710
1049.292, 1177.464
1049.774, 1176.159
1050.256, 1161.483
1050.738, 1147.939
1051.220, 1137.833
1051.703, 1131.539
1052.185, 1132.232
1052.667, 1136.441
1053.149, 1137.547
1053.631, 1132.814
1054.113, 1132.071
1054.595, 1145.224
1055.077, 1154.318
1055.559, 1146.759
1056.042, 1126.536
1056.524, 1123.365
1057.006, 1135.151
1057.488, 1144.734
1057.970, 1142.658
1058.452, 1135.547
1058.934, 1121.617
1059.416, 1107.344
1059.899, 1106.131
1060.381, 1124.442
1060.863, 1131.702
1061.345, 1123.302
1061.827, 1112.844
1062.309, 1117.444
1062.791, 1127.469
1063.273, 1125.941
1063.755, 1111.882
1064.238, 1105.144
1064.720, 1119.434
1065.202, 1130.953
1065.684, 1131.653
1066.166, 1125.661
1066.648, 1126.309
1067.130, 1131.218
1067.612, 1127.719
1068.094, 1105.393
1068.577, 1089.223
1069.059, 1103.200
1069.541, 1124.472
1070.023, 1129.723
1070.505, 1114.753
1070.987, 1107.045
1071.469, 1107.008
1071.951, 1109.194
1072.434, 1110.729
1072.916, 1111.738
1073.398, 1110.935
1073.880, 1109.601
1074.362, 1112.255
1074.844, 1126.013
1075.326, 1133.093
1075.808, 1129.550
1076.291, 1121.796
1076.773, 1118.419
1077.255, 1118.207
1077.737, 1118.702
1078.219, 1119.739
1078.701, 1117.687
1079.183, 1104.182
1079.665, 1093.960
1080.147, 1095.381
1080.630, 1106.234
1081.112, 1114.070
1081.594, 1118.904
1082.076, 1121.120
1082.558, 1120.176
1083.040, 1117.985
1083.522, 1113.742
1084.004, 1110.412
1084.486, 1112.970
1084.969, 1127.041
1085.451, 1131.113
1085.933, 1122.649
1086.415, 1113.636
1086.897, 1115.188
1087.379, 1121.330
1087.861, 1120.825
1088.343, 1115.137
1088.826, 1111.409
1089.308, 1116.734
1089.790, 1117.734
1090.272, 1109.804
1090.754, 1099.309
1091.236, 1096.382
1091.718, 1099.749
1092.200, 1104.298
1092.682, 1109.438
1093.165, 1112.957
1093.647, 1109.011
1094.129, 1107.203
1094.611, 1116.099
1095.093, 1133.279
1095.575, 1140.338
1096.057, 1136.814
1096.539, 1135.124
1097.022, 1142.054
1097.504, 1148.295
1097.986, 1141.377
1098.468, 1128.986
1098.950, 1121.924
1099.432, 1123.900
1099.914, 1125.735
1100.396, 1127.479
1100.879, 1128.824
1101.361, 1128.657
1101.843, 1128.329
1102.325, 1130.772
1102.807, 1135.486
1103.289, 1140.435
1103.771, 1147.841
1104.253, 1150.849
1104.735, 1145.880
1105.218, 1139.490
1105.700, 1145.073
1106.182, 1158.122
1106.664, 1152.651
1107.146, 1125.411
1107.628, 1104.164
1108.110, 1111.185
1108.592, 1123.680
1109.074, 1130.330
1109.557, 1131.688
1110.039, 1128.262
1110.521, 1119.905
1111.003, 1117.338
1111.485, 1125.029
1111.967, 1135.369
1112.449, 1143.994
1112.931, 1149.559
1113.414, 1149.421
1113.896, 1141.489
1114.378, 1138.621
1114.860, 1141.870
1115.342, 1145.570
1115.824, 1146.024
1116.306, 1145.425
1116.788, 1149.212
1117.271, 1154.455
1117.753, 1154.630
1118.235, 1138.415
1118.717, 1131.128
1119.199, 1135.500
1119.681, 1146.529
1120.163, 1163.354
1120.645, 1182.258
1121.127, 1191.034
1121.609, 1190.086
1122.092, 1187.922
1122.574, 1189.459
1123.056, 1189.530
1123.538, 1186.068
1124.020, 1180.564
1124.502, 1175.155
1124.984, 1170.099
1125.466, 1167.002
1125.949, 1165.892
1126.431, 1169.446
1126.913, 1187.995
1127.395, 1204.641
1127.877, 1203.930
1128.359, 1188.727
1128.841, 1181.435
1129.323, 1182.252
1129.806, 1188.196
1130.288, 1200.213
1130.770, 1212.463
1131.252, 1219.708
1131.734, 1223.254
1132.216, 1224.552
1132.698, 1223.798
1133.180, 1221.213
1133.662, 1217.022
1134.145, 1209.994
1134.627, 1190.827
1135.109, 1173.920
1135.591, 1192.220
1136.073, 1230.901
1136.555, 1251.928
1137.037, 1223.606
1137.519, 1208.798
1138.001, 1214.061
1138.484, 1227.390
1138.966, 1238.739
1139.448, 1247.881
1139.930, 1253.556
1140.412, 1255.991
1140.894, 1257.110
1141.376, 1256.028
1141.858, 1256.108
1142.341, 1259.122
1142.823, 1262.778
1143.305, 1262.287
1143.787, 1258.620
1144.269, 1256.467
1144.751, 1256.815
1145.233, 1256.372
1145.715, 1250.346
1146.198, 1246.078
1146.680, 1247.998
1147.162, 1254.771
1147.644, 1260.840
1148.126, 1266.121
1148.608, 1269.386
1149.090, 1270.616
1149.572, 1268.912
1150.054, 1257.199
1150.536, 1246.885
1151.019, 1251.729
1151.501, 1273.828
1151.983, 1278.285
1152.465, 1264.236
1152.947, 1254.680
1153.429, 1266.636
1153.911, 1283.432
1154.393, 1291.857
1154.876, 1293.192
1155.358, 1288.397
1155.840, 1274.161
1156.322, 1266.348
1156.804, 1266.208
1157.286, 1267.214
1157.768, 1261.808
1158.250, 1256.140
1158.733, 1259.508
1159.215, 1269.644
1159.697, 1277.453
1160.179, 1282.270
1160.661, 1282.427
1161.143, 1275.955
1161.625, 1269.826
1162.107, 1275.727
1162.589, 1285.749
1163.072, 1283.676
1163.554, 1269.468
1164.036, 1263.335
1164.518, 1277.902
1165.000, 1287.911
1165.482, 1286.575
1165.964, 1279.108
1166.446, 1274.136
1166.928, 1270.599
1167.411, 1265.579
1167.893, 1258.046
1168.375, 1252.646
1168.857, 1249.567
1169.339, 1250.872
1169.821, 1258.590
1170.303, 1270.455
1170.785, 1283.161
1171.268, 1294.536
1171.750, 1296.617
1172.232, 1282.163
1172.714, 1270.465
1173.196, 1273.733
1173.678, 1277.730
1174.160, 1272.580
1174.642, 1260.511
1175.125, 1256.072
1175.607, 1258.743
1176.089, 1266.043
1176.571, 1284.137
1177.053, 1296.913
1177.535, 1294.341
1178.017, 1285.105
1178.499, 1276.712
1178.981, 1269.066
1179.464, 1255.860
1179.946, 1238.023
1180.428, 1231.223
1180.910, 1260.597
1181.392, 1286.893
1181.874, 1285.082
1182.356, 1268.917
1182.838, 1258.190
1183.320, 1252.858
1183.803, 1253.613
1184.285, 1260.714
1184.767, 1266.526
1185.249, 1265.190
1185.731, 1260.767
1186.213, 1254.359
1186.695, 1247.300
1187.177, 1242.153
1187.660, 1238.698
1188.142, 1243.241
1188.624, 1258.459
1189.106, 1268.050
1189.588, 1245.210
1190.070, 1220.986
1190.552, 1225.361
1191.034, 1254.361
1191.516, 1272.211
1191.999, 1278.288
1192.481, 1278.427
1192.963, 1272.515
1193.445, 1267.556
1193.927, 1274.913
1194.409, 1283.802
1194.891, 1280.788
1195.373, 1264.776
1195.855, 1260.152
1196.338, 1268.724
1196.820, 1271.957
1197.302, 1258.950
1197.784, 1245.358
1198.266, 1249.771
1198.748, 1263.029
1199.230, 1274.033
1199.712, 1281.085
1200.195, 1289.272
1200.677, 1299.523
1201.159, 1304.036
1201.641, 1294.623
1202.123, 1282.363
1202.605, 1278.429
1203.087, 1280.959
1203.569, 1287.411
1204.052, 1299.412
1204.534, 1309.748
1205.016, 1319.067
1205.498, 1323.288
1205.980, 1314.210
1206.462, 1302.948
1206.944, 1305.237
1207.426, 1314.826
1207.908, 1316.467
1208.391, 1304.460
1208.873, 1297.395
1209.355, 1296.280
1209.837, 1298.492
1210.319, 1301.586
1210.801, 1306.900
1211.283, 1321.556
1211.765, 1340.039
1212.247, 1340.318
1212.730, 1310.598
1213.212, 1299.444
1213.694, 1315.301
1214.176, 1333.657
1214.658, 1327.015
1215.140, 1312.614
1215.622, 1309.170
1216.104, 1316.628
1216.587, 1328.564
1217.069, 1348.895
1217.551, 1356.437
1218.033, 1345.510
1218.515, 1330.814
1218.997, 1328.327
1219.479, 1331.374
1219.961, 1332.668
1220.443, 1331.799
1220.926, 1332.816
1221.408, 1337.019
1221.890, 1337.981
1222.372, 1333.361
1222.854, 1328.005
1223.336, 1327.975
1223.818, 1330.293
1224.300, 1330.430
1224.782, 1327.949
1225.265, 1333.855
1225.747, 1351.340
1226.229, 1361.288
1226.711, 1356.023
1227.193, 1345.915
1227.675, 1339.894
1228.157, 1338.356
1228.639, 1343.713
1229.122, 1357.166
1229.604, 1363.656
1230.086, 1362.312
1230.568, 1359.959
1231.050, 1359.022
1231.532, 1358.620
1232.014, 1355.580
1232.496, 1353.701
1232.979, 1360.004
1233.461, 1376.823
1233.943, 1381.126
1234.425, 1371.751
1234.907, 1360.668
1235.389, 1350.190
1235.871, 1345.812
1236.353, 1355.717
1236.835, 1373.400
1237.318, 1392.737
1237.800, 1415.854
1238.282, 1418.269
1238.764, 1398.877
1239.246, 1381.148
1239.728, 1379.429
1240.210, 1383.270
1240.692, 1387.682
1241.175, 1390.380
1241.657, 1387.307
1242.139, 1376.498
1242.621, 1374.108
1243.103, 1380.191
1243.585, 1386.266
1244.067, 1386.262
1244.549, 1385.470
1245.031, 1389.537
1245.514, 1393.722
1245.996, 1390.250
1246.478, 1377.772
1246.960, 1375.503
1247.442, 1383.255
1247.924, 1390.941
1248.406, 1388.875
1248.888, 1388.388
1249.370, 1401.445
1249.853, 1416.332
1250.335, 1414.815
1250.817, 1397.781
1251.299, 1394.670
1251.781, 1405.827
1252.263, 1416.672
1252.745, 1421.226
1253.227, 1419.578
1253.710, 1402.521
1254.192, 1386.783
1254.674, 1402.216
1255.156, 1441.425
1255.638, 1445.641
1256.120, 1414.443
1256.602, 1386.188
1257.084, 1383.573
1257.567, 1385.778
1258.049, 1386.441
1258.531, 1387.300
1259.013, 1391.241
1259.495, 1397.465
1259.977, 1403.570
1260.459, 1409.226
1260.941, 1413.320
1261.423, 1416.356
1261.906, 1415.827
1262.388, 1410.288
1262.870, 1402.680
1263.352, 1395.802
1263.834, 1390.616
1264.316, 1391.297
1264.798, 1397.441
1265.280, 1399.592
1265.762, 1388.852
1266.245, 1384.594
1266.727, 1392.384
1267.209, 1402.883
1267.691, 1399.851
1268.173, 1392.474
1268.655, 1400.906
1269.137, 1425.037
1269.619, 1429.570
1270.102, 1400.251
1270.584, 1383.041
1271.066, 1390.295
1271.548, 1403.118
1272.030, 1395.568
1272.512, 1381.456
1272.994, 1378.727
1273.476, 1387.759
1273.958, 1387.884
1274.441, 1375.035
1274.923, 1372.565
1275.405, 1388.225
1275.887, 1403.433
1276.369, 1393.912
1276.851, 1378.428
1277.333, 1376.901
1277.815, 1387.003
1278.297, 1387.298
1278.780, 1377.203
1279.262, 1369.489
1279.744, 1367.013
1280.226, 1368.016
1280.708, 1373.283
1281.190, 1379.543
1281.672, 1385.026
1282.154, 1389.447
1282.637, 1391.521
1283.119, 1391.354
1283.601, 1390.059
1284.083, 1387.930
1284.565, 1384.189
1285.047, 1376.315
1285.529, 1368.896
1286.011, 1363.503
1286.494, 1360.566
1286.976, 1363.004
1287.458, 1369.060
1287.940, 1371.628
1288.422, 1368.272
1288.904, 1369.928
1289.386, 1384.563
1289.868, 1400.289
1290.350, 1414.680
1290.833, 1425.856
1291.315, 1430.860
1291.797, 1429.422
1292.279, 1417.894
1292.761, 1393.268
1293.243, 1381.317
1293.725, 1389.479
1294.207, 1396.318
1294.689, 1393.843
1295.172, 1389.127
1295.654, 1392.501
1296.136, 1399.983
1296.618, 1407.640
1297.100, 1415.058
1297.582, 1414.516
1298.064, 1404.088
1298.546, 1398.730
1299.029, 1404.527
1299.511, 1412.380
1299.993, 1411.781
1300.475, 1409.230
1300.957, 1412.531
1301.439, 1420.365
1301.921, 1423.255
##END=



