##NAMES=Grossular
##RRUFFID=R060453
##IDEAL CHEMISTRY=Ca_3_Al_2_(SiO_4_)_3_
##LOCALITY=unknown
##OWNER=RRUFF
##SOURCE=Gemological Institute of America
##DESCRIPTION=Green colored fragment
##STATUS=The identification of this mineral has been confirmed by X-ray diffraction and chemical analysis
##URL=rruff.info/R060453
##MEASURED CHEMISTRY=(Ca_2.91_Mg_0.05_Mn_0.04_)_Σ=3_(Al_1.96_Ti_0.02_[box]_0.02_)_Σ=2_(Si_1.00_O_4_)_3_; trace amounts of Fe and Cr
83.89642, 17.11395
84.37854, 39.36590
84.86066, 31.72994
85.34277, 9.469810
85.82489, -6.358177
86.30701, -15.96454
86.78912, -18.03959
87.27124, -7.931149
87.75336, 8.340855
88.23547, 24.10508
88.71759, 37.79568
89.19971, 48.06272
89.68182, 48.32220
90.16394, 27.56507
90.64606, 11.00728
91.12817, 9.394878
91.61029, 17.61744
92.09241, 26.19121
92.57452, 27.34422
93.05664, 20.93527
93.53876, 20.70568
94.02087, 36.29063
94.50299, 49.68890
94.98511, 56.11937
95.46722, 55.51212
95.94934, 49.51208
96.43146, 38.35842
96.91357, 18.86728
97.39569, 9.525917
97.87781, 16.13991
98.35992, 25.92350
98.84204, 33.56113
99.32416, 37.77559
99.80627, 39.07997
100.2884, 37.76661
100.7705, 31.87836
101.2526, 28.31916
101.7347, 29.78252
102.2169, 31.88690
102.6990, 29.31668
103.1811, 21.02085
103.6632, 12.89909
104.1453, 16.12741
104.6274, 39.71172
105.1096, 51.48396
105.5917, 39.55663
106.0738, 16.32624
106.5559, -2.765175
107.0380, -13.34416
107.5201, -16.10482
108.0023, -8.607141
108.4844, 13.27004
108.9665, 28.58850
109.4486, 23.91748
109.9307, 6.537341
110.4128, -3.884883
110.8950, 1.019778
111.3771, 14.73068
111.8592, 26.47075
112.3413, 37.32971
112.8234, 43.42311
113.3055, 38.38660
113.7877, 23.76628
114.2698, 14.28097
114.7519, 18.87566
115.2340, 29.40004
115.7161, 35.59474
116.1982, 35.55402
116.6804, 33.86153
117.1625, 33.57919
117.6446, 34.28211
118.1267, 39.89563
118.6088, 60.70805
119.0909, 83.28472
119.5731, 95.27132
120.0552, 91.48322
120.5373, 81.32063
121.0194, 80.65877
121.5015, 95.20583
121.9836, 102.7731
122.4658, 91.56641
122.9479, 72.90357
123.4300, 55.80338
123.9121, 42.94967
124.3942, 35.91043
124.8763, 40.28179
125.3585, 66.83192
125.8406, 86.32411
126.3227, 84.53197
126.8048, 75.64122
127.2869, 77.49358
127.7690, 100.6262
128.2512, 137.8627
128.7333, 158.6376
129.2154, 144.3244
129.6975, 135.6055
130.1796, 143.1342
130.6617, 159.9786
131.1439, 175.8359
131.6260, 184.1115
132.1081, 186.3714
132.5902, 194.9367
133.0723, 220.1237
133.5544, 241.2955
134.0366, 255.3234
134.5187, 262.4751
135.0008, 263.5201
135.4829, 258.6320
135.9650, 248.0654
136.4471, 236.6498
136.9293, 214.4099
137.4114, 201.4039
137.8935, 207.4516
138.3756, 228.0859
138.8577, 252.6864
139.3398, 273.8521
139.8220, 291.5611
140.3041, 309.2859
140.7862, 329.3985
141.2683, 347.3613
141.7504, 360.7588
142.2325, 369.9972
142.7147, 376.8036
143.1968, 382.2036
143.6789, 386.1243
144.1610, 390.5362
144.6431, 386.4740
145.1252, 390.1327
145.6074, 416.8327
146.0895, 463.6407
146.5716, 509.3869
147.0537, 536.1654
147.5358, 543.4072
148.0179, 558.6315
148.5001, 593.1996
148.9822, 627.2534
149.4643, 642.9813
149.9464, 640.4189
150.4285, 638.2034
150.9106, 653.2029
151.3928, 683.8090
151.8749, 707.7191
152.3570, 720.3351
152.8391, 727.7600
153.3212, 734.9379
153.8033, 742.1675
154.2855, 749.2488
154.7676, 755.6169
155.2497, 761.6548
155.7318, 768.9192
156.2139, 776.0338
156.6960, 785.3019
157.1782, 801.9802
157.6603, 827.7996
158.1424, 850.7159
158.6245, 855.2875
159.1066, 849.1138
159.5887, 850.9608
160.0709, 869.2791
160.5530, 896.8497
161.0351, 925.0222
161.5172, 954.6127
161.9993, 980.4918
162.4814, 993.7358
162.9636, 1000.579
163.4457, 1013.040
163.9278, 1041.111
164.4099, 1075.640
164.8920, 1100.036
165.3741, 1112.989
165.8563, 1119.047
166.3384, 1117.670
166.8205, 1111.943
167.3026, 1106.646
167.7847, 1101.391
168.2668, 1098.500
168.7490, 1105.913
169.2311, 1131.179
169.7132, 1149.278
170.1953, 1144.033
170.6774, 1124.182
171.1595, 1102.375
171.6417, 1084.084
172.1238, 1067.656
172.6059, 1047.199
173.0880, 1016.748
173.5701, 994.8978
174.0522, 998.2123
174.5344, 1012.641
175.0165, 1016.785
175.4986, 995.2081
175.9807, 959.7198
176.4628, 943.8069
176.9449, 956.5880
177.4271, 973.2094
177.9092, 981.3171
178.3913, 987.3179
178.8734, 1000.864
179.3555, 1029.207
179.8376, 1065.996
180.3197, 1094.343
180.8019, 1118.518
181.2840, 1124.465
181.7661, 1100.998
182.2482, 1062.342
182.7303, 1024.648
183.2124, 994.3248
183.6946, 972.1099
184.1767, 961.3185
184.6588, 968.5703
185.1409, 976.3953
185.6230, 982.2431
186.1051, 985.2385
186.5873, 984.4661
187.0694, 979.4672
187.5515, 970.5119
188.0336, 955.7969
188.5157, 922.5955
188.9978, 907.4018
189.4800, 929.3931
189.9621, 965.4786
190.4442, 991.0250
190.9263, 994.3704
191.4084, 985.5551
191.8905, 990.7204
192.3727, 1025.694
192.8548, 1045.872
193.3369, 1035.186
193.8190, 1012.844
194.3011, 996.6557
194.7832, 993.6801
195.2654, 999.4578
195.7475, 1004.549
196.2296, 1007.817
196.7117, 1012.719
197.1938, 1021.424
197.6759, 1030.748
198.1581, 1038.536
198.6402, 1044.004
199.1223, 1046.585
199.6044, 1044.221
200.0865, 1031.559
200.5686, 1024.906
201.0508, 1026.297
201.5329, 1032.557
202.0150, 1044.686
202.4971, 1061.971
202.9792, 1077.027
203.4613, 1074.809
203.9435, 1038.909
204.4256, 1023.478
204.9077, 1049.769
205.3898, 1081.031
205.8719, 1088.926
206.3540, 1069.501
206.8362, 1042.914
207.3183, 1038.131
207.8004, 1066.656
208.2825, 1088.148
208.7646, 1099.659
209.2467, 1107.177
209.7289, 1114.020
210.2110, 1120.510
210.6931, 1124.864
211.1752, 1125.034
211.6573, 1120.760
212.1395, 1112.959
212.6216, 1089.878
213.1037, 1073.388
213.5858, 1078.791
214.0679, 1103.151
214.5500, 1130.476
215.0322, 1143.787
215.5143, 1139.572
215.9964, 1144.640
216.4785, 1171.461
216.9606, 1195.917
217.4427, 1207.858
217.9249, 1209.152
218.4070, 1207.510
218.8891, 1208.884
219.3712, 1213.306
219.8533, 1219.666
220.3354, 1228.648
220.8176, 1239.078
221.2997, 1248.446
221.7818, 1259.088
222.2639, 1277.377
222.7460, 1310.244
223.2281, 1354.804
223.7103, 1376.663
224.1924, 1337.734
224.6745, 1317.358
225.1566, 1347.808
225.6387, 1403.998
226.1208, 1445.924
226.6030, 1448.466
227.0851, 1424.021
227.5672, 1425.853
228.0493, 1482.355
228.5314, 1527.870
229.0135, 1548.857
229.4957, 1554.486
229.9778, 1553.109
230.4599, 1548.092
230.9420, 1543.073
231.4241, 1547.271
231.9062, 1564.327
232.3884, 1585.329
232.8705, 1614.661
233.3526, 1643.748
233.8347, 1664.190
234.3168, 1673.359
234.7989, 1677.383
235.2811, 1685.925
235.7632, 1698.388
236.2453, 1717.461
236.7274, 1759.896
237.2095, 1797.087
237.6916, 1804.791
238.1738, 1780.683
238.6559, 1747.234
239.1380, 1732.324
239.6201, 1740.788
240.1022, 1750.167
240.5843, 1760.508
241.0665, 1770.936
241.5486, 1780.338
242.0307, 1789.152
242.5128, 1799.333
242.9949, 1813.895
243.4770, 1833.560
243.9592, 1849.143
244.4413, 1858.979
244.9234, 1865.969
245.4055, 1868.191
245.8876, 1868.110
246.3697, 1871.424
246.8519, 1883.318
247.3340, 1902.709
247.8161, 1919.084
248.2982, 1930.823
248.7803, 1941.529
249.2624, 1953.871
249.7446, 1965.994
250.2267, 1974.120
250.7088, 1974.753
251.1909, 1971.777
251.6730, 1977.534
252.1551, 1997.872
252.6373, 2015.097
253.1194, 2017.208
253.6015, 2016.102
254.0836, 2024.223
254.5657, 2046.042
255.0478, 2078.629
255.5300, 2121.875
256.0121, 2181.444
256.4942, 2229.533
256.9763, 2245.120
257.4584, 2253.458
257.9406, 2272.831
258.4227, 2307.185
258.9048, 2347.812
259.3869, 2390.479
259.8690, 2435.909
260.3511, 2466.896
260.8333, 2470.451
261.3154, 2466.571
261.7975, 2470.572
262.2796, 2482.518
262.7617, 2492.639
263.2438, 2494.922
263.7260, 2489.698
264.2081, 2478.461
264.6902, 2459.422
265.1723, 2437.006
265.6544, 2418.403
266.1365, 2400.490
266.6187, 2372.186
267.1008, 2321.639
267.5829, 2258.342
268.0650, 2201.612
268.5471, 2152.309
269.0292, 2108.469
269.5114, 2074.265
269.9935, 2044.490
270.4756, 2009.254
270.9577, 1958.964
271.4398, 1907.977
271.9219, 1875.496
272.4041, 1862.057
272.8862, 1846.362
273.3683, 1813.485
273.8504, 1773.953
274.3325, 1748.251
274.8146, 1742.511
275.2968, 1741.156
275.7789, 1732.601
276.2610, 1719.269
276.7431, 1712.371
277.2252, 1719.026
277.7073, 1729.529
278.1895, 1727.001
278.6716, 1709.707
279.1537, 1691.388
279.6358, 1675.910
280.1179, 1662.851
280.6000, 1653.410
281.0822, 1648.755
281.5643, 1641.749
282.0464, 1619.912
282.5285, 1581.171
283.0106, 1555.693
283.4927, 1555.026
283.9749, 1563.918
284.4570, 1569.295
284.9391, 1570.024
285.4212, 1570.954
285.9033, 1576.574
286.3854, 1586.685
286.8676, 1592.661
287.3497, 1582.758
287.8318, 1580.378
288.3139, 1607.704
288.7960, 1652.926
289.2781, 1683.630
289.7603, 1680.822
290.2424, 1651.779
290.7245, 1626.598
291.2066, 1593.869
291.6887, 1578.456
292.1708, 1594.577
292.6530, 1626.401
293.1351, 1657.274
293.6172, 1681.063
294.0993, 1696.093
294.5814, 1697.630
295.0635, 1666.597
295.5457, 1659.450
296.0278, 1698.967
296.5099, 1744.104
296.9920, 1760.444
297.4741, 1747.915
297.9562, 1734.686
298.4384, 1751.521
298.9205, 1804.193
299.4026, 1847.347
299.8847, 1879.657
300.3668, 1904.146
300.8489, 1917.816
301.3310, 1924.489
301.8131, 1930.671
302.2953, 1940.115
302.7774, 1953.116
303.2595, 1972.061
303.7416, 2005.823
304.2237, 2032.093
304.7058, 2041.968
305.1880, 2044.762
305.6701, 2050.330
306.1522, 2062.346
306.6343, 2077.610
307.1164, 2089.061
307.5985, 2092.890
308.0807, 2107.040
308.5628, 2143.960
309.0449, 2185.964
309.5270, 2224.471
310.0091, 2258.174
310.4912, 2287.166
310.9734, 2307.147
311.4555, 2319.771
311.9376, 2344.299
312.4197, 2389.290
312.9018, 2435.996
313.3839, 2473.486
313.8661, 2503.617
314.3482, 2530.368
314.8303, 2550.067
315.3124, 2569.897
315.7945, 2606.030
316.2766, 2661.763
316.7588, 2714.007
317.2409, 2745.400
317.7230, 2766.585
318.2051, 2794.974
318.6872, 2833.693
319.1693, 2877.614
319.6515, 2924.326
320.1336, 2973.201
320.6157, 3024.190
321.0978, 3080.800
321.5799, 3133.301
322.0620, 3160.544
322.5442, 3156.596
323.0263, 3167.453
323.5084, 3216.331
323.9905, 3282.977
324.4726, 3337.756
324.9547, 3376.033
325.4369, 3420.846
325.9190, 3498.855
326.4011, 3614.414
326.8832, 3705.746
327.3653, 3753.519
327.8474, 3796.254
328.3296, 3855.831
328.8117, 3928.932
329.2938, 3999.982
329.7759, 4058.802
330.2580, 4111.084
330.7401, 4180.838
331.2223, 4289.542
331.7044, 4389.627
332.1865, 4468.496
332.6686, 4540.181
333.1507, 4621.346
333.6328, 4716.397
334.1150, 4815.549
334.5971, 4901.750
335.0792, 4958.768
335.5613, 5047.366
336.0434, 5185.884
336.5255, 5335.424
337.0077, 5481.628
337.4898, 5621.066
337.9719, 5753.214
338.4540, 5874.950
338.9361, 5988.073
339.4182, 6109.349
339.9004, 6243.022
340.3825, 6377.842
340.8646, 6510.188
341.3467, 6642.247
341.8288, 6777.795
342.3109, 6919.811
342.7931, 7060.771
343.2752, 7188.322
343.7573, 7301.027
344.2394, 7411.495
344.7215, 7517.296
345.2036, 7627.019
345.6858, 7752.050
346.1679, 7892.431
346.6500, 8027.652
347.1321, 8153.002
347.6142, 8263.224
348.0963, 8342.399
348.5785, 8385.532
349.0606, 8408.454
349.5427, 8426.363
350.0248, 8434.235
350.5069, 8412.662
350.9890, 8356.443
351.4712, 8270.708
351.9533, 8147.700
352.4354, 7993.821
352.9175, 7847.450
353.3996, 7737.264
353.8817, 7633.527
354.3639, 7448.187
354.8460, 7150.628
355.3281, 6858.321
355.8102, 6603.912
356.2923, 6365.633
356.7744, 6120.702
357.2566, 5863.361
357.7387, 5605.793
358.2208, 5360.094
358.7029, 5124.870
359.1850, 4909.591
359.6671, 4712.780
360.1493, 4534.607
360.6314, 4382.701
361.1135, 4249.234
361.5956, 4117.846
362.0777, 3977.468
362.5598, 3834.399
363.0420, 3710.267
363.5241, 3606.433
364.0062, 3521.996
364.4883, 3459.908
364.9704, 3412.545
365.4525, 3377.696
365.9347, 3353.398
366.4168, 3330.523
366.8989, 3296.536
367.3810, 3249.916
367.8631, 3214.104
368.3452, 3199.175
368.8274, 3184.244
369.3095, 3156.234
369.7916, 3119.892
370.2737, 3086.742
370.7558, 3060.651
371.2379, 3042.016
371.7201, 3037.191
372.2022, 3048.815
372.6843, 3048.466
373.1664, 3017.711
373.6485, 2971.469
374.1306, 2934.933
374.6128, 2913.189
375.0949, 2885.504
375.5770, 2843.855
376.0591, 2788.470
376.5412, 2713.207
377.0233, 2613.831
377.5055, 2518.684
377.9876, 2464.145
378.4697, 2456.204
378.9518, 2411.313
379.4339, 2286.031
379.9160, 2161.916
380.3982, 2089.893
380.8803, 2060.229
381.3624, 2042.531
381.8445, 2021.737
382.3266, 1996.619
382.8087, 1962.612
383.2909, 1903.706
383.7730, 1857.457
384.2551, 1824.934
384.7372, 1805.008
385.2193, 1800.214
385.7014, 1808.905
386.1836, 1822.460
386.6657, 1832.807
387.1478, 1839.946
387.6299, 1842.909
388.1120, 1836.208
388.5941, 1831.665
389.0763, 1830.163
389.5584, 1833.911
390.0405, 1847.694
390.5226, 1875.874
391.0047, 1908.382
391.4868, 1929.400
391.9690, 1937.943
392.4511, 1943.297
392.9332, 1944.855
393.4153, 1946.749
393.8974, 1951.135
394.3795, 1958.186
394.8617, 1971.853
395.3438, 2001.193
395.8259, 2035.932
396.3080, 2056.988
396.7901, 2061.977
397.2722, 2065.846
397.7544, 2078.148
398.2365, 2098.234
398.7186, 2120.358
399.2007, 2150.375
399.6828, 2175.661
400.1649, 2184.535
400.6471, 2186.988
401.1292, 2201.792
401.6113, 2235.298
402.0934, 2275.257
402.5755, 2303.930
403.0576, 2317.413
403.5398, 2330.375
404.0219, 2338.091
404.5040, 2349.809
404.9861, 2376.847
405.4682, 2412.119
405.9503, 2436.915
406.4325, 2437.824
406.9146, 2423.177
407.3967, 2423.027
407.8788, 2444.384
408.3609, 2466.137
408.8430, 2487.373
409.3252, 2505.426
409.8073, 2516.809
410.2894, 2521.423
410.7715, 2524.810
411.2536, 2531.766
411.7357, 2541.619
412.2179, 2548.942
412.7000, 2549.294
413.1821, 2556.938
413.6642, 2591.463
414.1463, 2639.796
414.6284, 2675.052
415.1106, 2688.707
415.5927, 2692.590
416.0748, 2691.910
416.5569, 2688.140
417.0390, 2688.473
417.5211, 2697.649
418.0033, 2702.928
418.4854, 2681.850
418.9675, 2621.150
419.4496, 2580.001
419.9317, 2581.256
420.4138, 2585.760
420.8960, 2556.312
421.3781, 2504.451
421.8602, 2474.597
422.3423, 2498.159
422.8244, 2559.916
423.3065, 2593.472
423.7887, 2578.955
424.2708, 2566.068
424.7529, 2559.066
425.2350, 2556.230
425.7171, 2554.854
426.1992, 2555.204
426.6814, 2561.621
427.1635, 2582.960
427.6456, 2617.296
428.1277, 2638.613
428.6098, 2641.853
429.0919, 2641.591
429.5741, 2640.275
430.0562, 2641.679
430.5383, 2652.272
431.0204, 2674.733
431.5025, 2704.151
431.9846, 2745.030
432.4668, 2790.968
432.9489, 2814.344
433.4310, 2802.696
433.9131, 2785.558
434.3952, 2802.525
434.8773, 2858.628
435.3595, 2892.595
435.8416, 2882.166
436.3237, 2865.746
436.8058, 2865.129
437.2879, 2877.986
437.7701, 2897.604
438.2522, 2921.663
438.7343, 2942.894
439.2164, 2941.651
439.6985, 2901.686
440.1806, 2867.577
440.6628, 2835.057
441.1449, 2811.812
441.6270, 2811.152
442.1091, 2826.477
442.5912, 2833.141
443.0733, 2807.981
443.5555, 2761.520
444.0376, 2736.922
444.5197, 2742.920
445.0018, 2746.336
445.4839, 2736.089
445.9660, 2715.873
446.4482, 2685.465
446.9303, 2643.243
447.4124, 2604.465
447.8945, 2581.368
448.3766, 2567.759
448.8587, 2550.919
449.3409, 2528.933
449.8230, 2506.143
450.3051, 2485.780
450.7872, 2467.585
451.2693, 2448.821
451.7514, 2428.042
452.2336, 2408.426
452.7157, 2393.589
453.1978, 2379.666
453.6799, 2361.118
454.1620, 2336.445
454.6441, 2308.466
455.1263, 2280.136
455.6084, 2250.666
456.0905, 2225.519
456.5726, 2202.866
457.0547, 2187.094
457.5368, 2189.221
458.0190, 2196.915
458.5011, 2188.560
458.9832, 2152.755
459.4653, 2108.873
459.9474, 2082.573
460.4295, 2074.055
460.9117, 2077.962
461.3938, 2102.880
461.8759, 2126.906
462.3580, 2129.564
462.8401, 2114.034
463.3222, 2095.335
463.8044, 2074.590
464.2865, 2054.595
464.7686, 2037.833
465.2507, 2024.058
465.7328, 2012.214
466.2149, 2001.955
466.6971, 1992.993
467.1792, 1984.714
467.6613, 1975.307
468.1434, 1970.938
468.6255, 1977.245
469.1076, 1983.602
469.5898, 1984.634
470.0719, 1979.906
470.5540, 1967.755
471.0361, 1944.516
471.5182, 1920.108
472.0003, 1928.975
472.4825, 1990.345
472.9646, 2032.300
473.4467, 2026.522
473.9288, 2005.087
474.4109, 1981.308
474.8930, 1958.354
475.3752, 1945.554
475.8573, 1953.243
476.3394, 1972.490
476.8215, 1989.944
477.3036, 2005.254
477.7857, 2016.153
478.2679, 2020.265
478.7500, 2020.234
479.2321, 2022.193
479.7142, 2025.551
480.1963, 2031.724
480.6784, 2041.391
481.1606, 2053.715
481.6427, 2068.198
482.1248, 2084.676
482.6069, 2103.787
483.0890, 2127.273
483.5711, 2152.569
484.0533, 2164.240
484.5354, 2143.555
485.0175, 2140.656
485.4996, 2176.029
485.9817, 2220.261
486.4638, 2247.406
486.9460, 2256.352
487.4281, 2267.491
487.9102, 2304.089
488.3923, 2354.828
488.8744, 2379.428
489.3565, 2371.297
489.8387, 2374.232
490.3208, 2417.751
490.8029, 2482.660
491.2850, 2527.064
491.7671, 2543.842
492.2492, 2561.401
492.7314, 2587.819
493.2135, 2620.583
493.6956, 2662.996
494.1777, 2711.843
494.6598, 2749.063
495.1419, 2758.772
495.6241, 2746.355
496.1062, 2747.038
496.5883, 2767.452
497.0704, 2792.644
497.5525, 2825.193
498.0346, 2858.964
498.5168, 2886.428
498.9989, 2908.306
499.4810, 2934.794
499.9631, 2983.022
500.4452, 3042.337
500.9273, 3063.315
501.4095, 3033.002
501.8916, 3020.462
502.3737, 3071.020
502.8558, 3148.167
503.3379, 3191.003
503.8200, 3189.265
504.3022, 3191.699
504.7843, 3221.687
505.2664, 3262.395
505.7485, 3291.481
506.2306, 3309.443
506.7127, 3333.765
507.1949, 3376.899
507.6770, 3434.969
508.1591, 3490.695
508.6412, 3546.415
509.1233, 3596.266
509.6054, 3629.232
510.0876, 3664.707
510.5697, 3722.979
511.0518, 3799.688
511.5339, 3869.442
512.0161, 3911.397
512.4982, 3934.906
512.9803, 3965.690
513.4624, 4004.666
513.9445, 4044.043
514.4266, 4079.271
514.9088, 4115.332
515.3909, 4157.999
515.8730, 4207.380
516.3551, 4261.648
516.8372, 4328.989
517.3193, 4394.645
517.8015, 4446.794
518.2836, 4485.102
518.7657, 4512.772
519.2478, 4530.809
519.7299, 4541.564
520.2120, 4548.603
520.6942, 4534.575
521.1763, 4551.337
521.6584, 4628.115
522.1405, 4704.496
522.6226, 4751.434
523.1047, 4771.047
523.5869, 4774.677
524.0690, 4766.164
524.5511, 4749.787
525.0332, 4734.901
525.5153, 4721.412
525.9974, 4691.482
526.4796, 4631.774
526.9617, 4569.148
527.4438, 4541.264
527.9259, 4542.536
528.4080, 4521.021
528.8901, 4451.642
529.3723, 4375.093
529.8544, 4319.624
530.3365, 4273.464
530.8186, 4211.226
531.3007, 4124.261
531.7828, 4028.451
532.2650, 3947.212
532.7471, 3884.915
533.2292, 3807.871
533.7113, 3702.517
534.1934, 3596.902
534.6755, 3497.383
535.1577, 3403.607
535.6398, 3312.833
536.1219, 3223.369
536.6040, 3142.154
537.0861, 3078.333
537.5682, 3028.144
538.0504, 2983.674
538.5325, 2946.335
539.0146, 2898.134
539.4967, 2821.748
539.9788, 2724.478
540.4609, 2644.375
540.9431, 2576.080
541.4252, 2528.861
541.9073, 2522.666
542.3894, 2526.714
542.8715, 2510.157
543.3536, 2471.610
543.8358, 2429.504
544.3179, 2397.589
544.8000, 2374.806
545.2821, 2356.682
545.7642, 2343.317
546.2463, 2334.458
546.7285, 2335.190
547.2106, 2336.699
547.6926, 2333.686
548.1747, 2325.651
548.6569, 2311.192
549.1390, 2292.682
549.6211, 2265.386
550.1032, 2219.806
550.5853, 2159.590
551.0674, 2098.323
551.5496, 2039.084
552.0317, 1990.897
552.5138, 1971.016
552.9959, 1994.463
553.4780, 1994.860
553.9601, 1953.235
554.4423, 1912.311
554.9244, 1892.443
555.4065, 1883.583
555.8886, 1865.850
556.3707, 1831.449
556.8528, 1798.969
557.3350, 1793.856
557.8171, 1812.760
558.2992, 1829.699
558.7813, 1843.969
559.2634, 1850.690
559.7455, 1842.073
560.2277, 1823.798
560.7098, 1814.643
561.1919, 1819.599
561.6740, 1825.114
562.1561, 1824.117
562.6382, 1823.323
563.1204, 1836.011
563.6025, 1858.772
564.0846, 1868.450
564.5667, 1845.175
565.0488, 1801.035
565.5309, 1785.862
566.0131, 1814.047
566.4952, 1834.778
566.9773, 1827.512
567.4594, 1819.864
567.9415, 1835.073
568.4236, 1867.479
568.9058, 1887.993
569.3879, 1872.660
569.8700, 1850.699
570.3521, 1853.095
570.8342, 1874.040
571.3163, 1895.774
571.7985, 1913.425
572.2806, 1924.306
572.7627, 1922.417
573.2448, 1904.430
573.7269, 1905.612
574.2090, 1951.226
574.6912, 1984.899
575.1733, 1979.716
575.6554, 1962.023
576.1375, 1964.091
576.6196, 1991.870
577.1017, 2022.208
577.5839, 2031.488
578.0660, 2026.569
578.5481, 2031.832
579.0302, 2048.902
579.5123, 2065.091
579.9944, 2076.357
580.4766, 2081.823
580.9587, 2079.557
581.4408, 2070.474
581.9229, 2052.859
582.4050, 2003.538
582.8871, 1966.448
583.3693, 1986.062
583.8514, 2039.354
584.3335, 2073.945
584.8156, 2065.627
585.2977, 2033.942
585.7798, 2004.479
586.2620, 1976.038
586.7441, 1966.516
587.2262, 1985.432
587.7083, 2009.049
588.1904, 2029.893
588.6725, 2044.974
589.1547, 2047.942
589.6368, 2035.687
590.1189, 2017.394
590.6010, 1987.749
591.0831, 1959.786
591.5652, 1953.277
592.0474, 1967.175
592.5295, 1987.062
593.0116, 2005.534
593.4937, 2016.903
593.9758, 1998.954
594.4579, 1927.042
594.9401, 1884.696
595.4222, 1905.422
595.9043, 1933.563
596.3864, 1941.593
596.8685, 1935.046
597.3506, 1931.605
597.8328, 1939.307
598.3149, 1949.128
598.7970, 1954.104
599.2791, 1954.752
599.7612, 1951.143
600.2433, 1943.260
600.7255, 1936.050
601.2076, 1933.665
601.6897, 1935.688
602.1718, 1938.811
602.6539, 1950.149
603.1360, 1952.471
603.6182, 1939.785
604.1003, 1921.514
604.5824, 1905.956
605.0645, 1891.838
605.5466, 1870.119
606.0287, 1829.041
606.5109, 1786.311
606.9930, 1775.488
607.4751, 1791.403
607.9572, 1792.032
608.4393, 1765.275
608.9214, 1727.050
609.4036, 1691.385
609.8857, 1658.265
610.3678, 1629.105
610.8499, 1600.157
611.3320, 1579.543
611.8141, 1578.248
612.2963, 1580.439
612.7784, 1570.058
613.2605, 1545.857
613.7426, 1517.183
614.2247, 1489.840
614.7068, 1464.053
615.1890, 1441.134
615.6711, 1421.264
616.1532, 1398.638
616.6353, 1367.344
617.1174, 1340.560
617.5995, 1335.907
618.0817, 1353.939
618.5638, 1368.074
619.0459, 1390.040
619.5280, 1393.280
620.0101, 1350.113
620.4922, 1291.023
620.9744, 1251.787
621.4565, 1240.053
621.9386, 1245.005
622.4207, 1262.215
622.9028, 1286.092
623.3849, 1294.126
623.8671, 1284.919
624.3492, 1267.064
624.8313, 1238.285
625.3134, 1207.390
625.7955, 1183.835
626.2776, 1167.154
626.7598, 1158.097
627.2419, 1159.558
627.7240, 1165.720
628.2061, 1177.958
628.6882, 1191.338
629.1703, 1200.193
629.6525, 1202.605
630.1346, 1197.335
630.6167, 1181.453
631.0988, 1157.076
631.5809, 1134.112
632.0630, 1109.966
632.5452, 1098.227
633.0273, 1113.500
633.5094, 1132.807
633.9915, 1126.481
634.4736, 1096.244
634.9557, 1076.137
635.4379, 1086.854
635.9200, 1094.782
636.4021, 1071.205
636.8842, 1036.120
637.3663, 1023.531
637.8484, 1040.053
638.3306, 1064.539
638.8127, 1077.386
639.2948, 1079.603
639.7769, 1074.260
640.2590, 1056.024
640.7411, 1050.340
641.2233, 1078.098
641.7054, 1108.182
642.1875, 1100.777
642.6696, 1060.017
643.1517, 1038.857
643.6339, 1067.078
644.1160, 1097.395
644.5981, 1105.344
645.0802, 1098.019
645.5623, 1083.509
646.0444, 1065.390
646.5266, 1049.630
647.0087, 1042.035
647.4908, 1041.348
647.9729, 1041.865
648.4550, 1043.464
648.9371, 1047.181
649.4193, 1056.883
649.9014, 1064.832
650.3835, 1062.454
650.8656, 1051.116
651.3477, 1040.018
651.8298, 1024.946
652.3120, 1016.913
652.7941, 1025.825
653.2762, 1042.505
653.7583, 1055.139
654.2404, 1061.760
654.7225, 1067.700
655.2047, 1078.936
655.6868, 1090.521
656.1689, 1081.348
656.6510, 1045.763
657.1331, 1026.220
657.6152, 1042.483
658.0974, 1061.459
658.5795, 1044.559
659.0616, 1002.293
659.5437, 982.9589
660.0258, 1014.920
660.5079, 1040.423
660.9901, 1035.714
661.4722, 1017.538
661.9543, 1002.818
662.4364, 992.9365
662.9185, 979.0361
663.4006, 953.0231
663.8828, 925.8422
664.3649, 922.9550
664.8470, 945.0440
665.3291, 971.5148
665.8112, 1005.204
666.2933, 1028.188
666.7755, 1018.746
667.2576, 987.2087
667.7397, 979.4034
668.2218, 1013.801
668.7039, 1041.652
669.1860, 1062.430
669.6682, 1066.013
670.1503, 1028.130
670.6324, 966.4152
671.1145, 928.1495
671.5966, 937.9355
672.0787, 970.2017
672.5609, 995.1562
673.0430, 1012.106
673.5251, 1012.211
674.0072, 991.2595
674.4893, 973.4310
674.9714, 973.1671
675.4536, 985.6401
675.9357, 998.8823
676.4178, 1014.806
676.8999, 1027.370
677.3820, 1034.602
677.8641, 1040.306
678.3463, 1048.807
678.8284, 1056.329
679.3105, 1054.968
679.7926, 1042.233
680.2747, 1028.538
680.7568, 1026.621
681.2390, 1030.348
681.7211, 1021.272
682.2032, 999.8519
682.6853, 989.3758
683.1674, 1002.522
683.6495, 1022.405
684.1317, 1020.578
684.6138, 989.3016
685.0959, 977.4530
685.5780, 1007.186
686.0601, 1029.777
686.5422, 1028.370
687.0244, 1017.290
687.5065, 1009.316
687.9886, 1006.904
688.4707, 1010.929
688.9528, 1028.518
689.4349, 1047.725
689.9171, 1051.028
690.3992, 1044.608
690.8813, 1047.307
691.3634, 1064.181
691.8455, 1087.551
692.3276, 1111.342
692.8098, 1134.305
693.2919, 1144.887
693.7740, 1142.044
694.2561, 1128.715
694.7382, 1088.081
695.2203, 1052.789
695.7025, 1046.943
696.1846, 1065.589
696.6667, 1089.443
697.1488, 1124.283
697.6309, 1147.518
698.1130, 1134.280
698.5952, 1109.812
699.0773, 1111.848
699.5594, 1137.234
700.0415, 1148.925
700.5236, 1121.724
701.0057, 1080.558
701.4879, 1084.069
701.9700, 1135.589
702.4521, 1158.433
702.9342, 1135.262
703.4163, 1110.258
703.8984, 1108.555
704.3806, 1123.209
704.8627, 1138.731
705.3448, 1158.778
705.8269, 1169.359
706.3090, 1161.976
706.7911, 1151.252
707.2733, 1141.022
707.7554, 1135.171
708.2375, 1141.985
708.7196, 1163.111
709.2017, 1183.081
709.6838, 1188.557
710.1660, 1181.457
710.6481, 1159.872
711.1302, 1125.478
711.6123, 1109.595
712.0944, 1127.078
712.5765, 1150.708
713.0587, 1144.060
713.5408, 1104.763
714.0229, 1085.923
714.5050, 1100.760
714.9871, 1118.708
715.4692, 1141.283
715.9514, 1160.211
716.4335, 1168.008
716.9156, 1165.632
717.3977, 1159.491
717.8798, 1148.418
718.3619, 1139.825
718.8441, 1145.762
719.3262, 1155.795
719.8083, 1148.128
720.2904, 1122.963
720.7725, 1100.589
721.2546, 1094.354
721.7368, 1101.189
722.2189, 1118.349
722.7010, 1150.149
723.1831, 1160.072
723.6652, 1133.922
724.1473, 1108.370
724.6295, 1106.874
725.1116, 1118.652
725.5937, 1122.393
726.0758, 1118.301
726.5579, 1104.953
727.0400, 1061.125
727.5222, 1029.187
728.0043, 1049.538
728.4864, 1093.157
728.9685, 1107.221
729.4506, 1080.180
729.9327, 1054.091
730.4149, 1073.426
730.8970, 1118.119
731.3791, 1146.820
731.8612, 1159.496
732.3433, 1151.819
732.8254, 1119.760
733.3076, 1084.955
733.7897, 1069.978
734.2718, 1073.263
734.7539, 1073.414
735.2360, 1067.605
735.7181, 1063.379
736.2003, 1067.944
736.6824, 1068.423
737.1645, 1049.175
737.6466, 1019.672
738.1287, 1007.146
738.6108, 1025.429
739.0930, 1045.320
739.5751, 1052.918
740.0572, 1051.689
740.5393, 1040.009
741.0214, 1022.940
741.5035, 1013.287
741.9857, 1017.116
742.4678, 1031.984
742.9499, 1064.936
743.4320, 1112.194
743.9141, 1113.846
744.3962, 1058.798
744.8784, 1015.808
745.3605, 1013.872
745.8426, 1032.356
746.3247, 1043.092
746.8068, 1044.070
747.2889, 1057.523
747.7711, 1105.420
748.2532, 1136.827
748.7353, 1134.948
749.2174, 1115.305
749.6995, 1080.992
750.1816, 1040.816
750.6638, 1021.391
751.1459, 1044.894
751.6280, 1075.291
752.1101, 1075.151
752.5922, 1059.767
753.0743, 1061.572
753.5565, 1081.057
754.0386, 1091.354
754.5207, 1075.548
755.0028, 1049.970
755.4849, 1051.175
755.9670, 1084.420
756.4492, 1090.211
756.9313, 1050.760
757.4134, 1026.772
757.8955, 1053.190
758.3776, 1102.989
758.8597, 1137.816
759.3419, 1157.649
759.8240, 1166.954
760.3061, 1160.970
760.7882, 1150.586
761.2703, 1136.467
761.7524, 1122.255
762.2346, 1108.243
762.7167, 1096.955
763.1988, 1098.010
763.6809, 1124.349
764.1630, 1151.953
764.6451, 1144.064
765.1273, 1117.450
765.6094, 1120.782
766.0915, 1156.860
766.5736, 1181.568
767.0557, 1166.259
767.5378, 1129.544
768.0200, 1110.673
768.5021, 1111.261
768.9842, 1121.895
769.4663, 1148.805
769.9484, 1172.166
770.4305, 1182.907
770.9127, 1185.687
771.3948, 1184.580
771.8769, 1178.486
772.3590, 1182.217
772.8411, 1216.999
773.3232, 1238.437
773.8054, 1208.765
774.2875, 1170.818
774.7696, 1180.656
775.2517, 1231.867
775.7338, 1265.177
776.2159, 1241.390
776.6981, 1200.819
777.1802, 1183.207
777.6623, 1184.626
778.1444, 1202.849
778.6265, 1234.103
779.1086, 1256.625
779.5908, 1257.900
780.0729, 1245.289
780.5550, 1229.604
781.0371, 1209.536
781.5192, 1200.781
782.0013, 1206.481
782.4835, 1215.352
782.9656, 1225.194
783.4477, 1234.216
783.9298, 1240.142
784.4119, 1242.972
784.8940, 1243.759
785.3762, 1239.996
785.8583, 1237.478
786.3404, 1240.450
786.8225, 1243.177
787.3046, 1235.125
787.7867, 1222.078
788.2689, 1226.393
788.7510, 1265.550
789.2331, 1297.628
789.7152, 1272.948
790.1973, 1225.749
790.6794, 1211.125
791.1616, 1227.717
791.6437, 1252.366
792.1258, 1275.243
792.6079, 1284.895
793.0900, 1257.894
793.5721, 1200.538
794.0543, 1178.517
794.5364, 1196.589
795.0185, 1222.305
795.5006, 1253.545
795.9827, 1274.152
796.4648, 1265.462
796.9470, 1230.213
797.4291, 1198.359
797.9112, 1162.548
798.3933, 1141.251
798.8754, 1144.534
799.3575, 1153.370
799.8397, 1161.870
800.3218, 1166.619
800.8039, 1159.607
801.2860, 1136.108
801.7681, 1121.791
802.2502, 1141.901
802.7324, 1165.913
803.2145, 1156.978
803.6966, 1133.836
804.1787, 1141.681
804.6608, 1186.687
805.1429, 1223.568
805.6251, 1208.709
806.1072, 1168.023
806.5893, 1157.825
807.0714, 1174.449
807.5535, 1193.556
808.0356, 1211.788
808.5178, 1217.975
808.9999, 1201.213
809.4820, 1174.862
809.9641, 1176.107
810.4462, 1219.448
810.9283, 1235.464
811.4105, 1201.806
811.8926, 1177.426
812.3747, 1196.189
812.8568, 1228.300
813.3389, 1239.460
813.8210, 1229.360
814.3032, 1218.619
814.7853, 1203.447
815.2674, 1196.696
815.7495, 1210.220
816.2316, 1228.219
816.7137, 1235.789
817.1959, 1234.620
817.6780, 1235.507
818.1601, 1243.978
818.6422, 1250.617
819.1243, 1242.623
819.6064, 1230.400
820.0886, 1228.063
820.5707, 1236.408
821.0528, 1260.738
821.5349, 1301.573
822.0170, 1329.587
822.4991, 1305.628
822.9813, 1245.793
823.4634, 1221.913
823.9455, 1235.718
824.4276, 1247.390
824.9097, 1249.774
825.3918, 1243.578
825.8740, 1225.386
826.3561, 1201.986
826.8382, 1197.954
827.3203, 1229.302
827.8024, 1242.861
828.2845, 1223.121
828.7667, 1204.479
829.2488, 1201.113
829.7309, 1204.364
830.2130, 1206.058
830.6951, 1205.496
831.1772, 1197.654
831.6594, 1175.485
832.1415, 1152.938
832.6236, 1132.726
833.1057, 1117.421
833.5878, 1110.318
834.0699, 1110.325
834.5521, 1116.053
835.0342, 1129.420
835.5163, 1133.929
835.9984, 1098.544
836.4805, 1052.816
836.9626, 1054.128
837.4448, 1091.194
837.9269, 1110.746
838.4090, 1095.509
838.8911, 1073.457
839.3732, 1075.291
839.8553, 1092.784
840.3375, 1092.208
840.8196, 1072.985
841.3017, 1068.919
841.7838, 1089.860
842.2659, 1106.221
842.7480, 1095.236
843.2302, 1069.472
843.7123, 1061.493
844.1944, 1078.676
844.6765, 1088.578
845.1586, 1082.296
845.6407, 1082.020
846.1229, 1111.769
846.6050, 1139.369
847.0871, 1118.626
847.5692, 1056.003
848.0513, 1035.089
848.5334, 1117.193
849.0156, 1174.522
849.4977, 1152.079
849.9798, 1110.308
850.4619, 1090.385
850.9440, 1090.151
851.4261, 1096.579
851.9083, 1106.014
852.3904, 1116.644
852.8725, 1127.111
853.3546, 1138.431
853.8367, 1153.748
854.3188, 1170.228
854.8010, 1183.751
855.2831, 1192.599
855.7652, 1192.957
856.2473, 1180.148
856.7294, 1162.739
857.2115, 1158.875
857.6937, 1164.109
858.1758, 1151.661
858.6579, 1120.444
859.1400, 1112.043
859.6221, 1148.022
860.1042, 1199.992
860.5864, 1229.805
861.0685, 1237.508
861.5506, 1223.293
862.0327, 1174.061
862.5148, 1157.583
862.9969, 1204.245
863.4791, 1256.792
863.9612, 1269.281
864.4433, 1252.322
864.9254, 1243.024
865.4075, 1233.740
865.8896, 1248.424
866.3718, 1313.992
866.8539, 1370.507
867.3360, 1388.622
867.8181, 1392.312
868.3002, 1408.282
868.7823, 1437.720
869.2645, 1466.583
869.7466, 1485.770
870.2287, 1510.749
870.7108, 1556.759
871.1929, 1603.216
871.6750, 1626.212
872.1572, 1635.262
872.6393, 1652.719
873.1214, 1685.771
873.6035, 1735.062
874.0856, 1819.915
874.5677, 1905.883
875.0499, 1945.718
875.5320, 1959.483
876.0141, 1990.410
876.4962, 2045.447
876.9783, 2106.498
877.4604, 2163.303
877.9426, 2211.413
878.4247, 2244.286
878.9068, 2261.966
879.3889, 2256.991
879.8710, 2231.996
880.3531, 2225.459
880.8353, 2254.547
881.3174, 2281.598
881.7995, 2259.201
882.2816, 2196.021
882.7637, 2146.801
883.2458, 2113.469
883.7280, 2083.000
884.2101, 2057.415
884.6922, 2021.687
885.1743, 1966.400
885.6564, 1894.657
886.1385, 1809.078
886.6207, 1700.430
887.1028, 1621.452
887.5849, 1583.363
888.0670, 1557.542
888.5491, 1547.814
889.0313, 1537.653
889.5134, 1507.811
889.9955, 1464.230
890.4776, 1433.936
890.9597, 1422.194
891.4418, 1417.711
891.9240, 1433.665
892.4061, 1440.481
892.8882, 1418.345
893.3703, 1379.818
893.8524, 1336.836
894.3345, 1293.091
894.8167, 1265.016
895.2988, 1272.996
895.7809, 1281.661
896.2630, 1272.143
896.7451, 1253.828
897.2272, 1230.474
897.7094, 1208.000
898.1915, 1199.560
898.6736, 1209.981
899.1557, 1220.565
899.6378, 1213.820
900.1199, 1201.027
900.6021, 1194.987
901.0842, 1194.121
901.5663, 1198.522
902.0484, 1205.155
902.5305, 1197.273
903.0126, 1161.119
903.4948, 1126.546
903.9769, 1148.586
904.4590, 1206.365
904.9411, 1235.140
905.4232, 1234.092
905.9053, 1216.889
906.3875, 1188.329
906.8696, 1167.729
907.3517, 1176.254
907.8338, 1202.774
908.3159, 1210.097
908.7980, 1198.074
909.2802, 1188.521
909.7623, 1183.963
910.2444, 1179.969
910.7265, 1174.921
911.2086, 1167.286
911.6907, 1151.972
912.1729, 1129.418
912.6550, 1134.532
913.1371, 1182.737
913.6192, 1208.414
914.1013, 1191.560
914.5834, 1166.556
915.0656, 1153.804
915.5477, 1149.760
916.0298, 1145.493
916.5119, 1137.975
916.9940, 1141.943
917.4761, 1170.794
917.9583, 1192.124
918.4404, 1198.348
918.9225, 1194.508
919.4046, 1174.906
919.8867, 1147.811
920.3688, 1145.129
920.8510, 1188.493
921.3331, 1213.263
921.8152, 1193.515
922.2973, 1172.589
922.7794, 1171.333
923.2615, 1179.162
923.7437, 1182.714
924.2258, 1181.685
924.7079, 1184.774
925.1900, 1200.339
925.6721, 1210.952
926.1542, 1209.394
926.6364, 1200.203
927.1185, 1177.107
927.6006, 1153.024
928.0827, 1153.690
928.5648, 1182.121
929.0469, 1204.115
929.5291, 1184.090
930.0112, 1169.806
930.4933, 1216.101
930.9754, 1275.785
931.4575, 1280.087
931.9396, 1244.352
932.4218, 1233.620
932.9039, 1270.829
933.3860, 1304.104
933.8681, 1272.155
934.3502, 1224.580
934.8323, 1233.719
935.3145, 1273.588
935.7966, 1288.279
936.2787, 1274.462
936.7608, 1265.768
937.2429, 1280.748
937.7250, 1294.733
938.2072, 1268.680
938.6893, 1222.808
939.1714, 1199.190
939.6535, 1198.072
940.1356, 1225.369
940.6177, 1278.093
941.0999, 1318.048
941.5820, 1317.483
942.0641, 1293.475
942.5462, 1272.998
943.0283, 1256.055
943.5104, 1239.197
943.9926, 1223.597
944.4747, 1229.448
944.9568, 1263.490
945.4389, 1300.472
945.9210, 1317.746
946.4031, 1320.823
946.8853, 1324.956
947.3674, 1330.118
947.8495, 1327.687
948.3316, 1315.421
948.8137, 1319.497
949.2958, 1354.223
949.7780, 1386.805
950.2601, 1377.117
950.7422, 1335.773
951.2243, 1323.280
951.7064, 1346.946
952.1885, 1347.931
952.6707, 1311.417
953.1528, 1288.427
953.6349, 1306.111
954.1170, 1342.145
954.5991, 1368.452
955.0812, 1384.988
955.5634, 1391.980
956.0455, 1381.906
956.5276, 1386.957
957.0097, 1419.989
957.4918, 1450.204
957.9739, 1461.292
958.4561, 1459.147
958.9382, 1449.184
959.4203, 1429.004
959.9024, 1437.327
960.3845, 1499.787
960.8666, 1538.532
961.3488, 1526.476
961.8309, 1509.827
962.3130, 1516.990
962.7951, 1538.250
963.2772, 1556.130
963.7593, 1571.740
964.2415, 1577.838
964.7236, 1559.694
965.2057, 1553.468
965.6878, 1573.467
966.1699, 1599.177
966.6520, 1622.895
967.1342, 1641.592
967.6163, 1646.785
968.0984, 1634.036
968.5805, 1624.968
969.0626, 1617.758
969.5447, 1618.138
970.0269, 1633.715
970.5090, 1651.798
970.9911, 1655.161
971.4732, 1654.394
971.9553, 1682.096
972.4374, 1755.610
972.9196, 1806.000
973.4017, 1811.451
973.8838, 1808.701
974.3659, 1804.383
974.8480, 1802.480
975.3301, 1806.635
975.8123, 1815.798
976.2944, 1826.228
976.7765, 1837.136
977.2586, 1849.937
977.7407, 1871.882
978.2228, 1887.278
978.7050, 1883.140
979.1871, 1873.840
979.6692, 1873.189
980.1513, 1880.349
980.6334, 1887.762
981.1155, 1892.889
981.5977, 1901.122
982.0798, 1927.784
982.5619, 1941.871
983.0440, 1911.138
983.5261, 1871.499
984.0082, 1865.314
984.4904, 1887.822
984.9725, 1906.516
985.4546, 1914.685
985.9367, 1913.095
986.4188, 1891.759
986.9009, 1872.328
987.3831, 1872.412
987.8652, 1878.032
988.3473, 1872.081
988.8294, 1855.183
989.3115, 1838.313
989.7936, 1823.886
990.2758, 1812.398
990.7579, 1805.006
991.2400, 1799.668
991.7221, 1786.049
992.2042, 1779.689
992.6863, 1814.281
993.1685, 1876.987
993.6506, 1900.064
994.1327, 1839.443
994.6148, 1800.885
995.0969, 1862.018
995.5790, 1928.232
996.0612, 1933.298
996.5433, 1906.329
997.0254, 1880.184
997.5075, 1862.020
997.9896, 1856.965
998.4717, 1874.084
998.9539, 1882.139
999.4360, 1848.727
999.9181, 1820.455
1000.400, 1840.414
1000.882, 1878.181
1001.364, 1888.419
1001.847, 1875.396
1002.329, 1883.485
1002.811, 1939.448
1003.293, 1981.759
1003.775, 1975.692
1004.257, 1952.653
1004.739, 1929.336
1005.221, 1904.917
1005.703, 1872.373
1006.186, 1835.845
1006.668, 1813.250
1007.150, 1816.310
1007.632, 1814.761
1008.114, 1789.987
1008.596, 1761.438
1009.078, 1737.001
1009.560, 1719.288
1010.043, 1708.869
1010.525, 1707.138
1011.007, 1722.361
1011.489, 1767.736
1011.971, 1790.376
1012.453, 1746.443
1012.935, 1697.173
1013.417, 1683.913
1013.899, 1682.761
1014.382, 1660.245
1014.864, 1623.438
1015.346, 1608.870
1015.828, 1634.087
1016.310, 1649.054
1016.792, 1620.881
1017.274, 1593.667
1017.756, 1587.295
1018.239, 1597.107
1018.721, 1632.687
1019.203, 1677.852
1019.685, 1686.053
1020.167, 1637.938
1020.649, 1597.234
1021.131, 1581.848
1021.613, 1581.799
1022.095, 1609.172
1022.578, 1635.447
1023.060, 1623.368
1023.542, 1590.879
1024.024, 1591.208
1024.506, 1641.286
1024.988, 1676.186
1025.470, 1659.707
1025.952, 1650.540
1026.435, 1689.274
1026.917, 1726.435
1027.399, 1716.578
1027.881, 1675.828
1028.363, 1639.646
1028.845, 1611.486
1029.327, 1598.228
1029.809, 1614.290
1030.292, 1627.129
1030.774, 1613.894
1031.256, 1608.877
1031.738, 1650.222
1032.220, 1709.909
1032.702, 1733.338
1033.184, 1713.326
1033.666, 1705.496
1034.148, 1729.199
1034.630, 1745.216
1035.113, 1745.177
1035.595, 1738.139
1036.077, 1716.214
1036.559, 1697.100
1037.041, 1715.205
1037.523, 1772.636
1038.005, 1801.779
1038.487, 1786.711
1038.970, 1767.997
1039.452, 1733.458
1039.934, 1714.575
1040.416, 1732.743
1040.898, 1767.217
1041.380, 1793.747
1041.862, 1813.328
1042.344, 1839.034
1042.826, 1886.803
1043.309, 1903.114
1043.791, 1864.160
1044.273, 1835.075
1044.755, 1843.981
1045.237, 1865.655
1045.719, 1870.366
1046.201, 1867.008
1046.683, 1902.649
1047.166, 2005.043
1047.648, 2048.750
1048.130, 2014.116
1048.612, 1974.326
1049.094, 1945.698
1049.576, 1932.382
1050.058, 1938.670
1050.540, 1962.221
1051.022, 2001.452
1051.505, 2060.651
1051.987, 2088.910
1052.469, 2080.511
1052.951, 2075.283
1053.433, 2082.107
1053.915, 2096.298
1054.397, 2115.768
1054.879, 2137.616
1055.361, 2155.721
1055.844, 2170.953
1056.326, 2196.377
1056.808, 2232.088
1057.290, 2257.198
1057.772, 2268.000
1058.254, 2285.248
1058.736, 2320.690
1059.218, 2357.154
1059.701, 2371.690
1060.183, 2368.990
1060.665, 2357.363
1061.147, 2341.733
1061.629, 2354.962
1062.111, 2396.607
1062.593, 2430.041
1063.075, 2441.594
1063.557, 2455.456
1064.040, 2496.361
1064.522, 2550.463
1065.004, 2595.049
1065.486, 2631.633
1065.968, 2664.877
1066.450, 2693.397
1066.932, 2709.727
1067.414, 2713.358
1067.896, 2713.152
1068.379, 2712.239
1068.861, 2720.963
1069.343, 2755.701
1069.825, 2803.700
1070.307, 2854.445
1070.789, 2901.644
1071.271, 2931.949
1071.753, 2947.532
1072.236, 2965.391
1072.718, 2992.792
1073.200, 3027.293
1073.682, 3068.745
1074.164, 3115.026
1074.646, 3176.815
1075.128, 3233.593
1075.610, 3246.757
1076.093, 3235.446
1076.575, 3258.999
1077.057, 3334.302
1077.539, 3404.263
1078.021, 3436.868
1078.503, 3468.107
1078.985, 3521.661
1079.467, 3572.740
1079.949, 3590.094
1080.432, 3597.578
1080.914, 3644.176
1081.396, 3731.858
1081.878, 3792.624
1082.360, 3779.114
1082.842, 3792.402
1083.324, 3876.671
1083.806, 3955.874
1084.288, 3988.603
1084.771, 4004.341
1085.253, 4028.522
1085.735, 4062.815
1086.217, 4116.177
1086.699, 4196.810
1087.181, 4274.302
1087.663, 4347.500
1088.145, 4419.161
1088.628, 4488.049
1089.110, 4558.742
1089.592, 4633.646
1090.074, 4714.807
1090.556, 4811.106
1091.038, 4924.070
1091.520, 4995.394
1092.002, 5011.242
1092.484, 5076.296
1092.967, 5213.024
1093.449, 5362.961
1093.931, 5498.198
1094.413, 5631.169
1094.895, 5778.969
1095.377, 5937.143
1095.859, 6079.596
1096.341, 6212.342
1096.823, 6388.944
1097.306, 6608.085
1097.788, 6811.655
1098.270, 6982.737
1098.752, 7171.387
1099.234, 7419.653
1099.716, 7692.886
1100.198, 7924.208
1100.680, 8149.198
1101.163, 8446.427
1101.645, 8798.199
1102.127, 9159.408
1102.609, 9517.664
1103.091, 9872.740
1103.573, 10220.14
1104.055, 10591.41
1104.537, 11000.98
1105.020, 11455.07
1105.502, 11975.80
1105.984, 12531.91
1106.466, 13081.04
1106.948, 13636.75
1107.430, 14230.80
1107.912, 14872.00
1108.394, 15539.72
1108.876, 16194.11
1109.359, 16923.17
1109.841, 17794.73
1110.323, 18706.56
1110.805, 19559.44
1111.287, 20439.05
1111.769, 21454.55
1112.251, 22593.90
1112.733, 23767.04
1113.215, 24949.17
1113.698, 26192.68
1114.180, 27503.41
1114.662, 28855.31
1115.144, 30256.48
1115.626, 31697.38
1116.108, 33178.32
1116.590, 34690.88
1117.072, 36228.16
1117.555, 37792.86
1118.037, 39382.17
1118.519, 41013.75
1119.001, 42579.95
1119.483, 44076.64
1119.965, 45446.46
1120.447, 46659.70
1120.929, 47786.95
1121.411, 48913.64
1121.894, 49958.46
1122.376, 50699.54
1122.858, 51150.76
1123.340, 51373.02
1123.822, 51384.38
1124.304, 51268.77
1124.786, 51039.57
1125.268, 50636.89
1125.750, 50027.07
1126.233, 49259.04
1126.715, 48395.04
1127.197, 47408.74
1127.679, 46265.48
1128.161, 44975.65
1128.643, 43508.30
1129.125, 41910.81
1129.607, 40289.13
1130.090, 38669.90
1130.572, 37043.43
1131.054, 35379.05
1131.536, 33735.20
1132.018, 32121.28
1132.500, 30549.12
1132.982, 29015.18
1133.464, 27526.60
1133.947, 26077.31
1134.429, 24680.44
1134.911, 23375.46
1135.393, 22185.11
1135.875, 21034.42
1136.357, 19906.11
1136.839, 18847.55
1137.321, 17865.63
1137.803, 16958.56
1138.286, 16130.51
1138.768, 15364.33
1139.250, 14630.94
1139.732, 13934.80
1140.214, 13296.45
1140.696, 12714.88
1141.178, 12177.23
1141.660, 11682.22
1142.142, 11228.46
1142.625, 10819.67
1143.107, 10407.21
1143.589, 9947.103
1144.071, 9493.438
1144.553, 9146.767
1145.035, 8879.488
1145.517, 8619.341
1145.999, 8365.522
1146.482, 8119.564
1146.964, 7879.729
1147.446, 7633.355
1147.928, 7377.818
1148.410, 7134.794
1148.892, 6916.895
1149.374, 6723.738
1149.856, 6570.730
1150.339, 6430.460
1150.821, 6272.144
1151.303, 6110.777
1151.785, 5967.908
1152.267, 5845.370
1152.749, 5733.870
1153.231, 5635.080
1153.713, 5533.330
1154.195, 5422.548
1154.677, 5310.364
1155.160, 5201.016
1155.642, 5088.228
1156.124, 4957.901
1156.606, 4829.785
1157.088, 4733.764
1157.570, 4668.118
1158.052, 4617.468
1158.534, 4593.333
1159.017, 4525.285
1159.499, 4400.342
1159.981, 4288.304
1160.463, 4208.495
1160.945, 4162.477
1161.427, 4156.109
1161.909, 4155.788
1162.391, 4098.319
1162.874, 4002.443
1163.356, 3928.061
1163.838, 3870.101
1164.320, 3814.876
1164.802, 3761.313
1165.284, 3715.021
1165.766, 3676.705
1166.248, 3637.321
1166.730, 3589.187
1167.213, 3542.177
1167.695, 3509.869
1168.177, 3476.668
1168.659, 3429.043
1169.141, 3372.146
1169.623, 3303.379
1170.105, 3233.237
1170.587, 3189.395
1171.069, 3179.450
1171.552, 3172.038
1172.034, 3181.422
1172.516, 3162.049
1172.998, 3079.393
1173.480, 3007.291
1173.962, 2984.228
1174.444, 2974.588
1174.926, 2937.070
1175.409, 2886.200
1175.891, 2879.405
1176.373, 2922.263
1176.855, 2924.974
1177.337, 2886.484
1177.819, 2854.995
1178.301, 2839.448
1178.783, 2831.389
1179.266, 2826.727
1179.748, 2813.819
1180.230, 2775.409
1180.712, 2731.031
1181.194, 2721.995
1181.676, 2723.037
1182.158, 2681.112
1182.640, 2618.468
1183.122, 2588.650
1183.604, 2593.107
1184.087, 2596.637
1184.569, 2586.458
1185.051, 2574.697
1185.533, 2569.079
1186.015, 2560.075
1186.497, 2534.959
1186.979, 2514.289
1187.461, 2524.471
1187.944, 2539.739
1188.426, 2514.368
1188.908, 2458.789
1189.390, 2440.910
1189.872, 2476.827
1190.354, 2493.711
1190.836, 2490.166
1191.318, 2468.249
1191.801, 2422.845
1192.283, 2403.331
1192.765, 2441.994
1193.247, 2485.558
1193.729, 2461.768
1194.211, 2402.276
1194.693, 2384.222
1195.175, 2393.323
1195.657, 2393.259
1196.140, 2385.103
1196.622, 2380.662
1197.104, 2381.438
1197.586, 2379.990
1198.068, 2372.239
1198.550, 2370.499
1199.032, 2393.748
1199.514, 2410.582
1199.996, 2409.137
1200.479, 2388.094
1200.961, 2317.530
1201.443, 2244.615
1201.925, 2256.491
1202.407, 2338.712
1202.889, 2352.396
1203.371, 2265.135
1203.853, 2211.257
1204.336, 2194.270
1204.818, 2205.197
1205.300, 2252.151
1205.782, 2278.383
1206.264, 2250.063
1206.746, 2209.896
1207.228, 2210.077
1207.710, 2232.831
1208.193, 2232.393
1208.675, 2218.263
1209.157, 2219.197
1209.639, 2230.912
1210.121, 2238.573
1210.603, 2238.829
1211.085, 2229.800
1211.567, 2210.391
1212.049, 2198.690
1212.531, 2211.851
1213.014, 2227.424
1213.496, 2243.552
1213.978, 2246.878
1214.460, 2214.880
1214.942, 2174.383
1215.424, 2159.141
1215.906, 2164.461
1216.388, 2168.756
1216.871, 2172.085
1217.353, 2173.797
1217.835, 2173.424
1218.317, 2170.557
1218.799, 2162.197
1219.281, 2178.599
1219.763, 2235.295
1220.245, 2280.221
1220.728, 2262.726
1221.210, 2218.832
1221.692, 2207.001
1222.174, 2218.213
1222.656, 2241.894
1223.138, 2269.973
1223.620, 2284.559
1224.102, 2289.688
1224.584, 2301.133
1225.067, 2323.332
1225.549, 2355.571
##END=



