##NAMES=Grossular
##RRUFFID=R100161
##IDEAL CHEMISTRY=Ca_3_Al_2_(SiO_4_)_3_
##LOCALITY=Kenya
##OWNER=RRUFF
##SOURCE=William W. Pinch
##DESCRIPTION=Green gemmy fragments
##STATUS=The identification of this mineral has been confirmed only by single crystal X-ray diffraction.
##URL=rruff.info/R100161
136.4065, 791.9188
136.8886, 793.0948
137.3708, 795.3814
137.8529, 797.9080
138.3350, 801.2119
138.8171, 804.2432
139.2992, 806.6229
139.7813, 808.5144
140.2635, 810.3278
140.7456, 812.4065
141.2277, 814.8085
141.7098, 817.0127
142.1919, 817.9991
142.6740, 819.6358
143.1561, 823.5847
143.6383, 829.6814
144.1204, 835.7902
144.6025, 839.6671
145.0846, 840.8714
145.5667, 842.1363
146.0488, 843.2715
146.5310, 844.6371
147.0131, 846.5424
147.4952, 849.0178
147.9773, 852.1764
148.4594, 856.5061
148.9415, 861.7930
149.4237, 867.3184
149.9058, 873.0807
150.3879, 878.9078
150.8700, 884.2040
151.3521, 888.7919
151.8342, 892.9535
152.3164, 897.1774
152.7985, 901.3868
153.2806, 905.1403
153.7627, 907.9562
154.2448, 909.8235
154.7269, 911.6033
155.2091, 913.9637
155.6912, 915.7639
156.1733, 916.2227
156.6554, 915.3517
157.1375, 913.8934
157.6196, 912.8248
158.1018, 912.5417
158.5839, 911.4319
159.0660, 909.2032
159.5481, 906.3873
160.0302, 903.0886
160.5123, 899.4124
160.9945, 895.6578
161.4766, 892.4838
161.9587, 891.3191
162.4408, 888.4076
162.9229, 882.6217
163.4050, 875.7715
163.8871, 869.5111
164.3693, 864.4421
164.8514, 860.1210
165.3335, 855.4833
165.8156, 850.2637
166.2977, 845.1312
166.7798, 840.1705
167.2620, 835.3163
167.7441, 830.4685
168.2262, 825.5670
168.7083, 820.6930
169.1904, 816.1301
169.6725, 811.8649
170.1547, 807.8308
170.6368, 803.9662
171.1189, 800.3118
171.6010, 796.9182
172.0831, 793.5067
172.5652, 790.7411
173.0474, 789.4271
173.5295, 789.5666
174.0116, 791.1137
174.4937, 794.2538
174.9758, 798.9880
175.4579, 804.3885
175.9401, 808.6693
176.4222, 814.3265
176.9043, 824.1512
177.3864, 839.1213
177.8685, 857.3777
178.3506, 877.6125
178.8328, 900.9182
179.3149, 922.3449
179.7970, 944.0250
180.2791, 961.5809
180.7612, 970.2853
181.2433, 968.2243
181.7255, 957.5706
182.2076, 942.1555
182.6897, 918.8458
183.1718, 896.3089
183.6539, 875.3972
184.1360, 856.3586
184.6181, 839.6748
185.1003, 825.5894
185.5824, 813.7681
186.0645, 803.1623
186.5466, 793.8250
187.0287, 785.8423
187.5108, 779.4033
187.9930, 774.2722
188.4751, 770.4330
188.9572, 767.9714
189.4393, 766.5184
189.9214, 764.0109
190.4035, 758.6783
190.8857, 754.2724
191.3678, 751.7133
191.8499, 750.5594
192.3320, 750.1675
192.8141, 750.2965
193.2962, 750.7566
193.7784, 749.9669
194.2605, 746.6158
194.7426, 743.7161
195.2247, 742.5175
195.7068, 742.6391
196.1889, 742.9290
196.6711, 742.7091
197.1532, 742.0839
197.6353, 741.6613
198.1174, 741.5696
198.5995, 741.5299
199.0816, 741.4698
199.5638, 741.3649
200.0459, 741.0521
200.5280, 740.3383
201.0101, 739.3599
201.4922, 738.5745
201.9743, 738.1581
202.4565, 737.7765
202.9386, 737.1953
203.4207, 736.4167
203.9028, 735.4019
204.3849, 733.7305
204.8670, 731.9619
205.3492, 730.9960
205.8313, 731.3790
206.3134, 732.1263
206.7955, 731.7913
207.2776, 730.0267
207.7597, 728.8057
208.2419, 730.0546
208.7240, 731.9279
209.2061, 732.5553
209.6882, 731.1492
210.1703, 728.6370
210.6524, 726.4067
211.1346, 724.2339
211.6167, 723.0203
212.0988, 723.6702
212.5809, 725.0335
213.0630, 726.0153
213.5451, 726.1447
214.0273, 725.8016
214.5094, 725.9101
214.9915, 727.0045
215.4736, 727.5527
215.9557, 726.9414
216.4378, 725.8813
216.9200, 725.1663
217.4021, 725.1716
217.8842, 725.4782
218.3663, 724.7722
218.8484, 721.1495
219.3305, 719.3804
219.8127, 721.3243
220.2948, 724.7030
220.7769, 727.0131
221.2590, 727.1140
221.7411, 725.8765
222.2232, 725.8836
222.7054, 728.6898
223.1875, 730.9639
223.6696, 732.3045
224.1517, 733.0941
224.6338, 733.6172
225.1159, 733.9958
225.5980, 734.4622
226.0802, 735.7131
226.5623, 738.1412
227.0444, 740.9260
227.5265, 743.7994
228.0086, 747.0631
228.4907, 751.3158
228.9729, 756.8654
229.4550, 763.0186
229.9371, 767.8430
230.4192, 770.2654
230.9013, 773.1310
231.3834, 776.4305
231.8656, 780.5197
232.3477, 786.1764
232.8298, 793.8445
233.3119, 802.6042
233.7940, 810.5236
234.2761, 817.3476
234.7583, 824.1579
235.2404, 830.9570
235.7225, 837.9399
236.2046, 845.7742
236.6867, 855.0273
237.1688, 864.4259
237.6510, 871.9179
238.1331, 877.6703
238.6152, 881.9495
239.0973, 884.4335
239.5794, 885.5244
240.0615, 885.9346
240.5437, 885.6674
241.0258, 885.1518
241.5079, 884.7218
241.9900, 884.3093
242.4721, 884.6939
242.9542, 886.3032
243.4364, 888.9601
243.9185, 892.4001
244.4006, 896.9792
244.8827, 901.5803
245.3648, 906.3995
245.8469, 911.1583
246.3290, 912.1033
246.8112, 906.8895
247.2933, 896.4364
247.7754, 882.7543
248.2575, 864.3699
248.7396, 845.6389
249.2217, 829.6877
249.7039, 816.1037
250.1860, 803.8445
250.6681, 792.2209
251.1502, 781.4772
251.6323, 772.3648
252.1144, 765.1732
252.5966, 759.4548
253.0787, 755.3433
253.5608, 752.3083
254.0429, 749.0732
254.5250, 744.3895
255.0071, 738.9357
255.4893, 735.4345
255.9714, 734.7708
256.4535, 734.8112
256.9356, 734.8076
257.4177, 734.7033
257.8998, 734.3465
258.3820, 733.4738
258.8641, 732.3730
259.3462, 732.1611
259.8283, 733.5214
260.3104, 734.6607
260.7925, 734.9092
261.2747, 734.6517
261.7568, 734.3415
262.2389, 734.1531
262.7210, 734.1396
263.2031, 734.4662
263.6852, 735.2252
264.1674, 736.2094
264.6495, 737.6549
265.1316, 739.1454
265.6137, 740.0572
266.0958, 740.0725
266.5779, 739.8179
267.0601, 740.8206
267.5422, 743.6498
268.0243, 746.8261
268.5064, 750.1824
268.9885, 753.6891
269.4706, 757.2398
269.9528, 760.8090
270.4349, 764.5739
270.9170, 768.7419
271.3991, 772.6160
271.8812, 778.4101
272.3633, 786.5878
272.8455, 796.1396
273.3276, 806.6552
273.8097, 817.8993
274.2918, 829.2726
274.7739, 839.9550
275.2560, 850.1630
275.7382, 859.0726
276.2202, 868.6135
276.7024, 875.8035
277.1845, 878.9233
277.6666, 877.6826
278.1487, 872.6823
278.6308, 864.2771
279.1129, 851.3160
279.5951, 838.8839
280.0772, 826.1462
280.5593, 814.4708
281.0414, 804.7246
281.5235, 796.8008
282.0056, 789.9413
282.4878, 783.4191
282.9699, 777.0960
283.4520, 771.9749
283.9341, 767.5804
284.4162, 764.5927
284.8983, 764.3079
285.3805, 765.8220
285.8626, 766.8178
286.3447, 765.3538
286.8268, 761.5034
287.3089, 759.3582
287.7910, 759.8510
288.2732, 760.8867
288.7553, 762.3201
289.2374, 763.8509
289.7195, 764.9724
290.2016, 765.3387
290.6837, 765.1310
291.1659, 765.3877
291.6480, 766.2248
292.1301, 767.3734
292.6122, 768.6777
293.0943, 770.2956
293.5764, 772.7253
294.0586, 776.2507
294.5407, 780.1407
295.0228, 782.4242
295.5049, 780.8713
295.9870, 780.3900
296.4691, 781.2546
296.9513, 783.2324
297.4334, 786.3270
297.9155, 790.4879
298.3976, 795.1808
298.8797, 799.4973
299.3618, 803.0984
299.8440, 806.9572
300.3261, 811.5372
300.8082, 816.0524
301.2903, 819.8545
301.7724, 822.8251
302.2545, 825.3522
302.7367, 827.8111
303.2188, 829.9957
303.7009, 833.0556
304.1830, 837.7762
304.6651, 842.6532
305.1472, 846.7232
305.6294, 849.9954
306.1115, 853.1081
306.5936, 856.6682
307.0757, 860.7453
307.5578, 863.8666
308.0399, 865.4664
308.5221, 866.8658
309.0042, 868.3198
309.4863, 870.0134
309.9684, 872.4479
310.4505, 876.1199
310.9326, 880.6683
311.4148, 883.3600
311.8969, 881.8419
312.3790, 881.4932
312.8611, 884.9687
313.3432, 890.2072
313.8253, 893.6775
314.3075, 893.6748
314.7896, 891.6000
315.2717, 891.0295
315.7538, 893.0485
316.2359, 895.0307
316.7180, 896.7086
317.2001, 898.2855
317.6823, 900.0254
318.1644, 902.0046
318.6465, 904.0047
319.1286, 905.6813
319.6107, 906.7578
320.0928, 908.1508
320.5750, 909.4648
321.0571, 911.3436
321.5392, 914.5580
322.0213, 919.0363
322.5034, 923.8252
322.9855, 927.8950
323.4677, 931.0970
323.9498, 934.9006
324.4319, 939.0570
324.9140, 943.9274
325.3961, 950.3079
325.8782, 957.6715
326.3604, 964.5483
326.8425, 969.8292
327.3246, 973.6931
327.8067, 978.2664
328.2888, 984.2853
328.7709, 990.0959
329.2531, 995.1592
329.7352, 999.7542
330.2173, 1004.414
330.6994, 1009.408
331.1815, 1014.481
331.6636, 1018.960
332.1458, 1022.008
332.6279, 1025.487
333.1100, 1029.716
333.5921, 1034.250
334.0742, 1038.967
334.5563, 1043.713
335.0385, 1047.927
335.5206, 1050.766
336.0027, 1051.991
336.4848, 1052.175
336.9669, 1050.960
337.4490, 1049.108
337.9312, 1047.336
338.4133, 1045.521
338.8954, 1042.832
339.3775, 1038.425
339.8596, 1032.152
340.3417, 1025.823
340.8239, 1019.313
341.3060, 1012.894
341.7881, 1006.760
342.2702, 1000.774
342.7523, 994.4346
343.2344, 987.3112
343.7166, 979.9709
344.1987, 975.2747
344.6808, 977.1581
345.1629, 977.2907
345.6450, 973.3113
346.1271, 967.8754
346.6093, 964.1586
347.0914, 963.3036
347.5735, 963.7772
348.0556, 962.5989
348.5377, 958.0110
349.0198, 954.9772
349.5020, 953.5402
349.9841, 953.3751
350.4662, 954.5066
350.9483, 956.7980
351.4304, 959.8429
351.9125, 963.1507
352.3947, 966.6018
352.8768, 971.1074
353.3589, 976.3282
353.8410, 982.9000
354.3231, 991.1214
354.8052, 1000.877
355.2874, 1012.041
355.7695, 1024.597
356.2516, 1038.343
356.7337, 1052.378
357.2158, 1065.822
357.6979, 1080.916
358.1800, 1097.981
358.6621, 1116.813
359.1443, 1136.858
359.6264, 1158.015
360.1085, 1180.893
360.5906, 1206.749
361.0727, 1235.709
361.5548, 1267.595
362.0370, 1301.771
362.5191, 1338.984
363.0012, 1380.094
363.4833, 1425.255
363.9654, 1472.920
364.4475, 1522.326
364.9297, 1573.626
365.4118, 1624.098
365.8939, 1673.372
366.3760, 1722.099
366.8581, 1771.764
367.3402, 1820.873
367.8224, 1866.211
368.3045, 1904.559
368.7866, 1938.566
369.2687, 1976.400
369.7508, 2019.595
370.2329, 2063.169
370.7151, 2103.936
371.1972, 2144.987
371.6793, 2192.465
372.1614, 2248.939
372.6435, 2303.045
373.1256, 2343.188
373.6078, 2369.636
374.0899, 2378.347
374.5720, 2368.753
375.0541, 2338.254
375.5362, 2283.441
376.0183, 2205.443
376.5005, 2115.681
376.9826, 2015.245
377.4647, 1907.892
377.9468, 1805.861
378.4289, 1708.371
378.9110, 1619.849
379.3932, 1544.375
379.8753, 1479.324
380.3574, 1421.247
380.8395, 1369.495
381.3216, 1323.779
381.8037, 1284.479
382.2859, 1251.541
382.7680, 1223.328
383.2501, 1200.182
383.7322, 1181.152
384.2143, 1163.868
384.6964, 1148.458
385.1786, 1134.555
385.6607, 1121.759
386.1428, 1110.444
386.6249, 1101.661
387.1070, 1095.902
387.5891, 1092.159
388.0713, 1090.098
388.5534, 1089.542
389.0355, 1088.170
389.5176, 1083.686
389.9997, 1079.314
390.4818, 1078.716
390.9640, 1081.912
391.4461, 1085.785
391.9282, 1087.992
392.4103, 1089.192
392.8924, 1092.749
393.3745, 1100.391
393.8567, 1108.267
394.3388, 1114.823
394.8209, 1120.543
395.3030, 1125.999
395.7851, 1131.342
396.2672, 1137.240
396.7494, 1145.158
397.2315, 1156.379
397.7136, 1166.475
398.1957, 1174.399
398.6778, 1181.780
399.1599, 1189.740
399.6420, 1198.505
400.1241, 1208.079
400.6063, 1218.518
401.0884, 1229.889
401.5705, 1241.281
402.0526, 1251.688
402.5347, 1263.229
403.0168, 1277.097
403.4990, 1292.457
403.9811, 1307.669
404.4632, 1321.871
404.9453, 1336.012
405.4274, 1352.454
405.9095, 1372.792
406.3917, 1392.712
406.8738, 1410.458
407.3559, 1428.856
407.8380, 1449.858
408.3201, 1473.738
408.8022, 1499.788
409.2844, 1527.761
409.7665, 1557.603
410.2486, 1588.410
410.7307, 1620.182
411.2128, 1652.954
411.6949, 1686.835
412.1771, 1721.648
412.6592, 1757.822
413.1413, 1796.065
413.6234, 1834.078
414.1055, 1867.144
414.5876, 1895.333
415.0698, 1918.693
415.5519, 1935.800
416.0340, 1948.882
416.5161, 1958.077
416.9982, 1963.786
417.4803, 1968.738
417.9625, 1974.454
418.4446, 1981.135
418.9267, 1990.799
419.4088, 2005.245
419.8909, 2019.604
420.3730, 2030.739
420.8552, 2039.489
421.3373, 2047.277
421.8194, 2054.813
422.3015, 2061.352
422.7836, 2066.485
423.2657, 2070.176
423.7479, 2071.067
424.2300, 2069.525
424.7121, 2063.713
425.1942, 2051.917
425.6763, 2034.239
426.1584, 2011.010
426.6406, 1981.336
427.1227, 1946.443
427.6048, 1908.118
428.0869, 1866.284
428.5690, 1822.529
429.0511, 1778.484
429.5333, 1733.880
430.0154, 1687.572
430.4975, 1636.890
430.9796, 1586.916
431.4617, 1540.724
431.9438, 1497.737
432.4260, 1455.696
432.9081, 1413.669
433.3902, 1372.505
433.8723, 1334.392
434.3544, 1300.064
434.8365, 1268.008
435.3187, 1238.264
435.8008, 1210.692
436.2829, 1185.736
436.7650, 1163.187
437.2471, 1141.984
437.7292, 1121.104
438.2114, 1100.425
438.6935, 1081.828
439.1756, 1066.039
439.6577, 1051.546
440.1398, 1038.111
440.6219, 1025.805
441.1040, 1015.294
441.5862, 1006.887
442.0683, 999.1886
442.5504, 989.3646
443.0325, 976.0292
443.5146, 964.7731
443.9967, 957.5907
444.4789, 951.3705
444.9610, 944.6487
445.4431, 937.4996
445.9252, 930.6133
446.4073, 924.1917
446.8894, 918.5264
447.3716, 915.1584
447.8537, 915.2066
448.3358, 914.7490
448.8179, 911.8069
449.3000, 907.5399
449.7821, 902.8445
450.2643, 897.7157
450.7464, 893.0363
451.2285, 889.6693
451.7106, 887.4426
452.1927, 885.7727
452.6748, 884.8698
453.1570, 883.8406
453.6391, 881.1888
454.1212, 877.3723
454.6033, 874.7354
455.0854, 875.1962
455.5675, 876.0585
456.0497, 874.4146
456.5318, 870.6768
457.0139, 867.6752
457.4960, 867.0228
457.9781, 867.8184
458.4602, 867.5530
458.9424, 865.5411
459.4245, 864.0926
459.9066, 863.7365
460.3887, 864.0712
460.8708, 864.9103
461.3529, 866.1213
461.8351, 867.1885
462.3172, 867.4902
462.7993, 866.9584
463.2814, 867.7891
463.7635, 870.6328
464.2456, 873.9797
464.7278, 878.3686
465.2099, 882.7561
465.6920, 885.3000
466.1741, 885.3765
466.6562, 884.8967
467.1383, 887.3142
467.6205, 893.8378
468.1026, 899.5687
468.5847, 903.6129
469.0668, 907.4993
469.5489, 911.4874
470.0310, 915.8624
470.5132, 921.1988
470.9953, 928.2076
471.4774, 936.0828
471.9595, 942.5261
472.4416, 947.0062
472.9237, 952.0291
473.4059, 959.3121
473.8880, 967.0143
474.3701, 973.2170
474.8522, 977.6175
475.3343, 982.2650
475.8164, 989.5038
476.2986, 997.8382
476.7807, 1003.295
477.2628, 1005.030
477.7449, 1005.928
478.2270, 1007.935
478.7091, 1010.881
479.1913, 1013.884
479.6734, 1017.160
480.1555, 1020.183
480.6376, 1022.917
481.1197, 1025.170
481.6018, 1026.136
482.0839, 1025.440
482.5660, 1024.753
483.0482, 1026.567
483.5303, 1031.874
484.0124, 1036.167
484.4945, 1039.032
484.9766, 1041.331
485.4587, 1043.135
485.9409, 1044.766
486.4230, 1046.963
486.9051, 1050.214
487.3872, 1053.911
487.8693, 1056.092
488.3514, 1055.117
488.8336, 1055.782
489.3157, 1059.870
489.7978, 1064.311
490.2799, 1067.061
490.7620, 1068.098
491.2441, 1068.558
491.7263, 1069.124
492.2084, 1069.877
492.6905, 1071.310
493.1726, 1073.764
493.6547, 1076.079
494.1368, 1077.831
494.6190, 1079.167
495.1011, 1080.121
495.5832, 1080.657
496.0653, 1081.141
496.5474, 1081.707
497.0295, 1082.427
497.5117, 1083.460
497.9938, 1084.761
498.4759, 1086.660
498.9580, 1089.726
499.4401, 1093.733
499.9222, 1097.372
500.4044, 1099.972
500.8865, 1102.798
501.3686, 1105.970
501.8507, 1109.920
502.3328, 1116.013
502.8149, 1124.772
503.2971, 1134.331
503.7792, 1141.897
504.2613, 1146.567
504.7434, 1152.768
505.2255, 1161.676
505.7076, 1170.785
506.1898, 1179.310
506.6719, 1187.092
507.1540, 1194.099
507.6361, 1200.350
508.1182, 1205.575
508.6003, 1209.126
509.0825, 1210.974
509.5646, 1211.216
510.0467, 1209.411
510.5288, 1206.383
511.0109, 1202.624
511.4930, 1198.023
511.9752, 1191.993
512.4573, 1183.495
512.9394, 1173.736
513.4215, 1165.290
513.9036, 1158.124
514.3857, 1152.400
514.8679, 1149.301
515.3500, 1146.839
515.8321, 1142.486
516.3142, 1136.049
516.7963, 1129.043
517.2784, 1121.173
517.7606, 1113.525
518.2427, 1107.785
518.7248, 1104.041
519.2069, 1100.983
519.6890, 1097.811
520.1711, 1094.589
520.6533, 1091.778
521.1354, 1090.080
521.6175, 1087.777
522.0996, 1083.882
522.5817, 1079.665
523.0638, 1076.333
523.5460, 1074.128
524.0281, 1072.830
524.5102, 1072.577
524.9923, 1073.284
525.4744, 1071.348
525.9565, 1064.571
526.4387, 1057.919
526.9208, 1052.386
527.4029, 1047.452
527.8850, 1042.659
528.3671, 1037.867
528.8492, 1033.011
529.3314, 1027.768
529.8135, 1022.263
530.2956, 1017.637
530.7777, 1014.067
531.2598, 1011.184
531.7419, 1008.599
532.2241, 1006.591
532.7062, 1005.802
533.1883, 1006.768
533.6704, 1008.125
534.1525, 1008.855
534.6346, 1009.286
535.1168, 1010.033
535.5989, 1011.182
536.0810, 1013.216
536.5631, 1016.654
537.0452, 1021.582
537.5273, 1027.171
538.0095, 1033.857
538.4916, 1040.662
538.9737, 1046.007
539.4558, 1051.676
539.9379, 1060.294
540.4200, 1072.678
540.9022, 1087.796
541.3843, 1104.006
541.8664, 1120.935
542.3485, 1141.154
542.8306, 1166.690
543.3127, 1193.412
543.7948, 1219.910
544.2769, 1246.744
544.7590, 1275.689
545.2411, 1308.003
545.7233, 1338.728
546.2054, 1362.643
546.6875, 1379.721
547.1696, 1388.292
547.6517, 1388.069
548.1339, 1379.396
548.6160, 1359.461
549.0981, 1331.027
549.5802, 1300.314
550.0623, 1266.421
550.5444, 1232.889
551.0266, 1200.479
551.5087, 1170.172
551.9908, 1144.415
552.4729, 1124.017
552.9550, 1106.928
553.4371, 1090.473
553.9193, 1074.032
554.4014, 1062.154
554.8835, 1057.107
555.3656, 1053.410
555.8477, 1049.035
556.3298, 1044.722
556.8120, 1041.937
557.2941, 1041.167
557.7762, 1041.474
558.2583, 1041.507
558.7404, 1041.161
559.2225, 1041.403
559.7047, 1042.415
560.1868, 1043.838
560.6689, 1045.343
561.1510, 1047.118
561.6331, 1049.576
562.1152, 1052.996
562.5974, 1056.654
563.0795, 1059.955
563.5616, 1062.944
564.0437, 1065.636
564.5258, 1067.913
565.0079, 1070.496
565.4901, 1073.930
565.9722, 1078.301
566.4543, 1083.651
566.9364, 1091.552
567.4185, 1098.641
567.9006, 1103.096
568.3828, 1106.169
568.8649, 1109.709
569.3470, 1114.158
569.8291, 1118.732
570.3112, 1122.360
570.7933, 1124.953
571.2755, 1128.488
571.7576, 1133.757
572.2397, 1139.028
572.7218, 1144.181
573.2039, 1148.985
573.6860, 1152.919
574.1682, 1155.910
574.6503, 1159.134
575.1324, 1164.415
575.6145, 1171.017
576.0966, 1175.277
576.5787, 1176.339
577.0609, 1177.525
577.5430, 1180.875
578.0251, 1185.750
578.5072, 1190.339
578.9893, 1194.002
579.4714, 1198.744
579.9536, 1206.399
580.4357, 1214.995
580.9178, 1222.232
581.3999, 1227.819
581.8820, 1232.466
582.3641, 1236.442
582.8463, 1240.167
583.3284, 1246.154
583.8105, 1256.310
584.2926, 1266.106
584.7747, 1274.730
585.2568, 1283.289
585.7390, 1292.659
586.2211, 1302.847
586.7032, 1313.375
587.1853, 1324.087
587.6674, 1334.771
588.1495, 1344.731
588.6317, 1353.955
589.1138, 1362.611
589.5959, 1370.699
590.0780, 1378.317
590.5601, 1385.519
591.0422, 1392.320
591.5244, 1398.861
592.0065, 1405.469
592.4886, 1411.580
592.9707, 1416.613
593.4528, 1420.623
593.9349, 1423.793
594.4171, 1426.127
594.8992, 1428.089
595.3813, 1430.605
595.8634, 1434.314
596.3455, 1436.622
596.8276, 1437.767
597.3098, 1437.483
597.7919, 1435.038
598.2740, 1431.241
598.7561, 1427.487
599.2382, 1424.364
599.7203, 1420.963
600.2025, 1415.950
600.6846, 1409.345
601.1667, 1402.586
601.6488, 1396.383
602.1309, 1388.967
602.6130, 1378.398
603.0952, 1365.837
603.5773, 1353.802
604.0594, 1343.051
604.5415, 1331.948
605.0236, 1319.785
605.5057, 1306.621
605.9879, 1292.016
606.4700, 1276.156
606.9521, 1260.944
607.4342, 1248.137
607.9163, 1237.413
608.3984, 1226.132
608.8806, 1213.848
609.3627, 1201.620
609.8448, 1189.249
610.3269, 1177.172
610.8090, 1165.844
611.2911, 1155.181
611.7733, 1144.573
612.2554, 1133.190
612.7375, 1121.943
613.2196, 1113.247
613.7017, 1107.322
614.1838, 1101.163
614.6660, 1093.790
615.1481, 1085.879
615.6302, 1077.713
616.1123, 1069.336
616.5944, 1062.386
617.0765, 1058.017
617.5587, 1054.413
618.0408, 1050.433
618.5229, 1046.276
619.0050, 1042.548
619.4871, 1039.453
619.9692, 1036.435
620.4514, 1032.505
620.9335, 1027.225
621.4156, 1024.271
621.8977, 1025.593
622.3798, 1027.028
622.8619, 1027.942
623.3441, 1028.200
623.8262, 1027.105
624.3083, 1024.587
624.7904, 1023.025
625.2725, 1025.308
625.7546, 1030.010
626.2367, 1033.186
626.7188, 1034.573
627.2009, 1035.343
627.6830, 1036.146
628.1652, 1036.691
628.6473, 1036.314
629.1294, 1035.155
629.6115, 1032.938
630.0936, 1028.770
630.5757, 1024.252
631.0579, 1020.415
631.5400, 1017.212
632.0221, 1014.205
632.5042, 1011.187
632.9863, 1008.263
633.4684, 1005.845
633.9506, 1004.238
634.4327, 1001.494
634.9148, 996.6151
635.3969, 991.7317
635.8790, 987.4695
636.3611, 984.0153
636.8433, 981.8904
637.3254, 981.6347
637.8075, 981.4144
638.2896, 979.8549
638.7717, 977.4304
639.2538, 974.6619
639.7360, 971.6942
640.2181, 969.7748
640.7002, 970.0928
641.1823, 971.8854
641.6644, 972.0236
642.1465, 967.7131
642.6287, 965.6380
643.1108, 968.2578
643.5929, 971.0908
644.0750, 970.9006
644.5571, 968.2715
645.0392, 965.5844
645.5214, 964.0984
646.0035, 963.4547
646.4856, 963.1367
646.9677, 963.1447
647.4498, 963.3805
647.9319, 963.8525
648.4141, 964.5029
648.8962, 965.6100
649.3783, 966.8879
649.8604, 967.1877
650.3425, 965.3661
650.8246, 963.9753
651.3068, 964.3682
651.7889, 965.5518
652.2710, 966.2359
652.7531, 966.3173
653.2352, 966.6230
653.7173, 967.8553
654.1995, 969.7281
654.6816, 971.2255
655.1637, 972.8815
655.6458, 972.8600
656.1279, 968.9573
656.6100, 964.8724
657.0922, 962.5999
657.5743, 961.9595
658.0564, 962.0422
658.5385, 963.1506
659.0206, 963.9259
659.5027, 962.4401
659.9849, 959.5877
660.4670, 958.0683
660.9491, 958.5350
661.4312, 959.5738
661.9133, 960.2582
662.3954, 960.4395
662.8776, 958.0192
663.3597, 949.6379
663.8418, 943.0566
664.3239, 939.4599
664.8060, 937.5834
665.2881, 936.6925
665.7703, 936.5411
666.2524, 936.9661
666.7345, 938.1027
667.2166, 939.3991
667.6987, 939.7443
668.1808, 939.1651
668.6630, 938.6619
669.1451, 938.5498
669.6272, 938.3598
670.1093, 937.4098
670.5914, 935.8253
671.0735, 935.1358
671.5557, 935.4676
672.0378, 936.5544
672.5199, 939.3057
673.0020, 942.1777
673.4841, 943.1484
673.9662, 942.2532
674.4484, 941.3888
674.9305, 942.1358
675.4126, 943.8306
675.8947, 944.2582
676.3768, 943.2545
676.8589, 941.6772
677.3411, 939.1946
677.8232, 936.7429
678.3053, 935.4503
678.7874, 934.8810
679.2695, 933.4065
679.7516, 930.3541
680.2338, 926.6981
680.7159, 922.6245
681.1980, 918.4697
681.6801, 915.1227
682.1622, 912.5394
682.6443, 909.0547
683.1265, 903.0912
683.6086, 895.3561
684.0907, 889.3312
684.5728, 885.8572
685.0549, 882.2627
685.5370, 878.3987
686.0192, 874.1526
686.5013, 869.4354
686.9834, 864.2756
687.4655, 858.5880
687.9476, 851.7289
688.4297, 845.4777
688.9119, 842.5526
689.3940, 841.2745
689.8761, 837.0607
690.3582, 829.1827
690.8403, 822.0678
691.3224, 819.4158
691.8046, 820.0605
692.2867, 818.3350
692.7688, 812.1604
693.2509, 806.9305
693.7330, 803.5350
694.2151, 800.5013
694.6973, 796.6555
695.1794, 792.4590
695.6615, 789.2980
696.1436, 787.9900
696.6257, 787.1201
697.1078, 785.1018
697.5900, 782.2150
698.0721, 779.3316
698.5542, 776.5733
699.0363, 773.9706
699.5184, 771.4584
700.0005, 769.1744
700.4827, 767.6706
700.9648, 767.8427
701.4469, 767.3291
701.9290, 765.8493
702.4111, 763.9097
702.8932, 761.2126
703.3754, 758.4067
703.8575, 756.7723
704.3396, 756.9009
704.8217, 757.5963
705.3038, 757.7484
705.7859, 757.2899
706.2681, 755.5480
706.7502, 752.2336
707.2323, 749.3304
707.7144, 747.8593
708.1965, 747.5592
708.6786, 748.0310
709.1607, 749.8669
709.6428, 750.6976
710.1249, 749.8556
710.6071, 748.4795
711.0892, 746.5050
711.5713, 744.6689
712.0534, 744.4344
712.5355, 746.2023
713.0176, 748.0960
713.4998, 747.7575
713.9819, 745.6453
714.4640, 744.2255
714.9461, 743.6041
715.4282, 743.2468
715.9103, 743.0284
716.3925, 742.8649
716.8746, 742.7165
717.3567, 742.6514
717.8388, 742.0672
718.3209, 739.7552
718.8030, 738.1784
719.2852, 739.5425
719.7673, 741.8712
720.2494, 742.2739
720.7315, 740.2206
721.2136, 737.4883
721.6957, 735.3465
722.1779, 733.9766
722.6600, 734.5453
723.1421, 737.4082
723.6242, 739.0432
724.1063, 738.1163
724.5884, 736.1279
725.0706, 734.4102
725.5527, 732.9690
726.0348, 732.0372
726.5169, 731.8837
726.9990, 731.9245
727.4811, 732.1693
727.9633, 732.3852
728.4454, 732.2870
728.9275, 731.8926
729.4096, 731.4037
729.8917, 730.8917
730.3738, 730.5475
730.8560, 730.9865
731.3381, 732.2465
731.8202, 732.9230
732.3023, 732.7211
732.7844, 732.0723
733.2665, 731.1895
733.7487, 730.1064
734.2308, 728.9094
734.7129, 727.0168
735.1950, 726.1166
735.6771, 727.2820
736.1592, 728.9464
736.6414, 729.9849
737.1235, 730.4662
737.6056, 730.9345
738.0877, 731.6458
738.5698, 732.2288
739.0519, 732.0097
739.5341, 731.1053
740.0162, 730.6242
740.4983, 730.7008
740.9804, 730.7516
741.4625, 730.1619
741.9446, 729.6639
742.4268, 730.9442
742.9089, 734.5358
743.3910, 736.9760
743.8731, 737.3992
744.3552, 737.2432
744.8373, 736.5184
745.3195, 735.9509
745.8016, 736.7574
746.2837, 739.0424
746.7658, 741.3654
747.2479, 742.4510
747.7300, 742.6198
748.2122, 742.5226
748.6943, 742.1518
749.1764, 742.3775
749.6585, 743.6240
750.1406, 745.0724
750.6227, 745.8580
751.1049, 746.0028
751.5870, 746.4444
752.0691, 747.9323
752.5512, 748.6825
753.0333, 747.0082
753.5154, 745.5442
753.9976, 747.1555
754.4797, 751.0388
754.9618, 754.0225
755.4439, 754.3619
755.9260, 753.6113
756.4081, 753.4492
756.8903, 753.9111
757.3724, 755.4288
757.8545, 758.1297
758.3366, 760.5042
758.8187, 761.4753
759.3008, 761.7067
759.7830, 762.9227
760.2651, 765.9746
760.7472, 768.0035
761.2293, 768.4803
761.7114, 768.6042
762.1935, 768.3907
762.6757, 768.3376
763.1578, 769.1752
763.6399, 771.0397
764.1220, 773.0853
764.6041, 774.8805
765.0862, 776.3928
765.5684, 777.2031
766.0505, 777.5886
766.5326, 779.0524
767.0147, 782.1358
767.4968, 785.3973
767.9789, 787.1693
768.4611, 787.5361
768.9432, 788.2198
769.4253, 788.6956
769.9074, 790.4135
770.3895, 795.0383
770.8716, 799.6503
771.3538, 801.9730
771.8359, 802.5769
772.3180, 803.5697
772.8001, 805.6553
773.2822, 808.2022
773.7643, 811.4205
774.2465, 814.5061
774.7286, 816.0715
775.2107, 816.2138
775.6928, 816.0289
776.1749, 816.0920
776.6570, 816.5247
777.1392, 817.7048
777.6213, 819.8126
778.1034, 821.3181
778.5855, 821.6674
779.0676, 822.5067
779.5497, 825.5161
780.0319, 828.8216
780.5140, 829.4368
780.9961, 827.0399
781.4782, 826.2878
781.9603, 829.8925
782.4424, 833.7386
782.9246, 835.3675
783.4067, 835.7585
783.8888, 836.4786
784.3709, 837.7834
784.8530, 838.8256
785.3351, 838.7934
785.8173, 838.2418
786.2994, 838.7116
786.7815, 840.2025
787.2636, 841.2012
787.7457, 841.3199
788.2278, 841.2778
788.7100, 841.5379
789.1921, 842.0877
789.6742, 842.8751
790.1563, 844.0022
790.6384, 845.1877
791.1205, 846.9066
791.6026, 848.1995
792.0847, 847.8975
792.5668, 847.0318
793.0490, 847.3992
793.5311, 849.5157
794.0132, 852.1399
794.4953, 854.9225
794.9774, 857.2226
795.4595, 857.1006
795.9417, 855.1154
796.4238, 854.6789
796.9059, 856.9401
797.3880, 860.5105
797.8701, 864.0319
798.3522, 867.4728
798.8344, 870.1524
799.3165, 871.8701
799.7986, 873.1981
800.2807, 873.6614
800.7628, 874.2424
801.2449, 875.1530
801.7271, 876.6576
802.2092, 879.5025
802.6913, 884.3301
803.1734, 889.3114
803.6555, 893.6463
804.1376, 897.5364
804.6198, 901.0284
805.1019, 904.2772
805.5840, 907.7169
806.0661, 911.5129
806.5482, 915.3475
807.0303, 918.5369
807.5125, 921.2601
807.9946, 925.4382
808.4767, 931.5086
808.9588, 936.5494
809.4409, 938.9435
809.9230, 940.9617
810.4052, 945.5279
810.8873, 952.6307
811.3694, 957.9738
811.8515, 959.0472
812.3336, 961.7564
812.8157, 968.0100
813.2979, 975.6856
813.7800, 983.6129
814.2621, 991.3824
814.7442, 998.3142
815.2263, 1003.828
815.7084, 1009.867
816.1906, 1018.789
816.6727, 1029.368
817.1548, 1039.215
817.6369, 1048.192
818.1190, 1056.674
818.6011, 1064.768
819.0833, 1072.998
819.5654, 1082.144
820.0475, 1092.246
820.5296, 1102.543
821.0117, 1113.554
821.4938, 1123.882
821.9760, 1134.239
822.4581, 1142.740
822.9402, 1147.407
823.4223, 1148.769
823.9044, 1149.297
824.3865, 1150.072
824.8687, 1149.137
825.3508, 1145.319
825.8329, 1139.759
826.3150, 1133.280
826.7971, 1126.100
827.2792, 1118.415
827.7614, 1110.282
828.2435, 1101.512
828.7256, 1091.486
829.2077, 1080.608
829.6898, 1070.237
830.1719, 1060.465
830.6541, 1051.577
831.1362, 1043.665
831.6183, 1036.896
832.1004, 1031.655
832.5825, 1027.933
833.0646, 1023.320
833.5468, 1016.680
834.0289, 1010.973
834.5110, 1006.961
834.9931, 1003.581
835.4752, 999.8975
835.9573, 996.3199
836.4395, 993.9793
836.9216, 993.4155
837.4037, 993.2650
837.8858, 993.3892
838.3679, 993.1242
838.8500, 991.1984
839.3322, 988.3591
839.8143, 986.5772
840.2964, 986.5011
840.7785, 987.0784
841.2606, 987.0670
841.7427, 988.0573
842.2249, 987.8123
842.7070, 990.1566
843.1891, 992.1779
843.6712, 993.3387
844.1533, 994.5207
844.6354, 996.6658
845.1176, 999.4189
845.5997, 1001.004
846.0818, 999.6650
846.5639, 999.9534
847.0460, 1003.572
847.5281, 1006.927
848.0103, 1008.430
848.4924, 1008.564
848.9745, 1007.918
849.4566, 1006.612
849.9387, 1005.596
850.4208, 1005.661
850.9030, 1005.968
851.3851, 1005.624
851.8672, 1005.002
852.3493, 1004.766
852.8314, 1005.082
853.3135, 1005.950
853.7957, 1007.454
854.2778, 1009.236
854.7599, 1010.475
855.2420, 1011.180
855.7241, 1011.349
856.2062, 1010.516
856.6884, 1011.544
857.1705, 1016.502
857.6526, 1023.552
858.1347, 1029.375
858.6168, 1033.648
859.0989, 1038.060
859.5811, 1042.235
860.0632, 1047.010
860.5453, 1052.199
861.0274, 1058.374
861.5095, 1066.016
861.9916, 1075.138
862.4738, 1085.535
862.9559, 1097.698
863.4380, 1110.226
863.9201, 1121.652
864.4022, 1133.296
864.8843, 1146.420
865.3665, 1161.252
865.8486, 1177.543
866.3307, 1195.178
866.8128, 1214.437
867.2949, 1235.637
867.7770, 1258.040
868.2592, 1282.744
868.7413, 1307.976
869.2234, 1335.093
869.7055, 1364.203
870.1876, 1396.108
870.6697, 1431.202
871.1519, 1469.543
871.6340, 1511.183
872.1161, 1556.457
872.5981, 1604.370
873.0803, 1653.417
873.5624, 1706.371
874.0445, 1766.475
874.5266, 1830.077
875.0087, 1892.693
875.4908, 1953.248
875.9730, 2015.290
876.4551, 2083.407
876.9372, 2149.216
877.4193, 2209.449
877.9014, 2263.126
878.3835, 2310.466
878.8657, 2350.538
879.3478, 2380.953
879.8299, 2400.607
880.3120, 2408.551
880.7941, 2403.262
881.2762, 2385.252
881.7584, 2355.149
882.2405, 2313.474
882.7226, 2264.096
883.2047, 2208.649
883.6868, 2147.552
884.1689, 2080.882
884.6511, 2008.772
885.1332, 1939.659
885.6153, 1874.110
886.0974, 1809.690
886.5795, 1745.061
887.0616, 1682.228
887.5438, 1621.056
888.0259, 1562.536
888.5080, 1509.308
888.9901, 1462.932
889.4722, 1418.306
889.9543, 1372.826
890.4365, 1330.698
890.9186, 1295.291
891.4007, 1264.090
891.8828, 1234.116
892.3649, 1204.643
892.8470, 1176.634
893.3292, 1150.357
893.8113, 1126.040
894.2934, 1103.973
894.7755, 1084.092
895.2576, 1067.468
895.7397, 1053.479
896.2219, 1038.617
896.7040, 1021.076
897.1861, 1003.345
897.6682, 988.8322
898.1503, 977.4803
898.6324, 969.1838
899.1146, 964.2416
899.5967, 957.6777
900.0788, 947.4235
900.5609, 936.9801
901.0430, 929.8697
901.5251, 925.5314
902.0073, 920.4404
902.4894, 913.7665
902.9715, 907.9921
903.4536, 903.7286
903.9357, 899.8058
904.4178, 895.5219
904.9000, 891.3668
905.3821, 888.3787
905.8642, 886.7424
906.3463, 884.1248
906.8284, 878.5948
907.3105, 873.6340
907.7927, 871.3953
908.2748, 870.1703
908.7569, 868.1982
909.2390, 865.5017
909.7211, 862.9922
910.2032, 861.1329
910.6854, 859.2428
911.1675, 856.4557
911.6496, 853.3498
912.1317, 851.1185
912.6138, 849.4595
913.0959, 846.9498
913.5781, 843.2337
914.0602, 839.6472
914.5423, 837.5532
915.0244, 834.2800
915.5065, 831.5795
915.9886, 829.5139
916.4708, 826.5259
916.9529, 825.2041
917.4350, 823.6041
917.9171, 820.4098
918.3992, 816.7771
918.8813, 814.8915
919.3635, 815.1260
919.8456, 814.1199
920.3277, 810.7110
920.8098, 807.9862
921.2919, 807.1974
921.7740, 806.7736
922.2562, 805.8268
922.7383, 804.3658
923.2204, 802.4103
923.7025, 799.6749
924.1846, 797.1889
924.6667, 795.4848
925.1489, 793.8028
925.6310, 791.3987
926.1131, 788.8851
926.5952, 787.2823
927.0773, 786.6025
927.5594, 785.7313
928.0416, 783.6960
928.5237, 781.8260
929.0058, 781.7728
929.4879, 782.4330
929.9700, 782.2068
930.4521, 780.9807
930.9343, 778.9193
931.4164, 776.1379
931.8985, 773.5110
932.3806, 772.1689
932.8627, 771.7740
933.3448, 771.4854
933.8270, 771.2347
934.3091, 769.6877
934.7912, 766.4327
935.2733, 764.6028
935.7554, 766.8484
936.2375, 770.9432
936.7197, 771.1631
937.2018, 766.5099
937.6839, 763.7811
938.1660, 763.5990
938.6481, 763.7535
939.1302, 763.5179
939.6124, 763.3411
940.0945, 763.9819
940.5766, 765.2403
941.0587, 765.2455
941.5408, 762.5052
942.0229, 760.8251
942.5051, 761.2236
942.9872, 761.7797
943.4693, 760.7686
943.9514, 759.7565
944.4335, 761.5899
944.9156, 766.4339
945.3978, 769.7733
945.8799, 770.1830
946.3620, 768.5987
946.8441, 763.3982
947.3262, 758.0455
947.8083, 756.5685
948.2905, 758.0322
948.7726, 759.1827
949.2547, 758.8292
949.7368, 757.9317
950.2189, 757.1992
950.7010, 756.4561
951.1832, 755.2687
951.6653, 753.9120
952.1474, 753.1400
952.6295, 753.0078
953.1116, 752.8876
953.5938, 752.3693
954.0759, 751.6702
954.5580, 751.2532
955.0400, 750.9954
955.5222, 749.8682
956.0043, 747.8877
956.4864, 747.5186
956.9685, 749.7502
957.4506, 751.9672
957.9327, 751.4697
958.4149, 749.0347
958.8970, 748.1144
959.3791, 749.1667
959.8612, 749.3096
960.3433, 747.9094
960.8254, 746.7790
961.3076, 746.8401
961.7897, 747.5046
962.2718, 748.1071
962.7539, 748.6565
963.2360, 748.6511
963.7181, 747.9955
964.2003, 746.9161
964.6824, 744.3911
965.1645, 742.5566
965.6466, 742.9854
966.1287, 744.6754
966.6108, 745.8799
967.0930, 746.3766
967.5751, 747.1335
968.0572, 748.9555
968.5393, 750.3165
969.0214, 749.9026
969.5035, 749.3408
969.9857, 750.3986
970.4678, 752.5666
970.9499, 754.1805
971.4320, 754.6713
971.9141, 754.9708
972.3962, 755.4788
972.8784, 756.1712
973.3605, 757.2747
973.8426, 758.4227
974.3247, 758.9234
974.8068, 758.8321
975.2889, 758.8839
975.7711, 759.5131
976.2532, 760.2386
976.7353, 760.1534
977.2174, 759.9830
977.6995, 761.2545
978.1816, 763.6786
978.6638, 766.1756
979.1459, 768.3851
979.6280, 769.9985
980.1101, 770.6908
980.5922, 770.8944
981.0743, 771.6602
981.5565, 772.7892
982.0386, 772.6547
982.5207, 771.2097
983.0028, 770.9288
983.4849, 772.8479
983.9670, 775.5715
984.4492, 777.7536
984.9313, 779.2593
985.4134, 779.1863
985.8955, 777.2291
986.3776, 775.8783
986.8597, 775.2805
987.3419, 775.7606
987.8240, 777.8592
988.3061, 780.4011
988.7882, 781.6882
989.2703, 781.7210
989.7524, 781.8911
990.2346, 782.2746
990.7167, 782.5963
991.1988, 782.4554
991.6809, 782.7693
992.1630, 783.9744
992.6451, 786.0071
993.1273, 789.3073
993.6094, 794.4081
994.0915, 796.8632
994.5736, 794.0492
995.0557, 792.1838
995.5378, 793.1890
996.0200, 794.7651
996.5021, 795.1202
996.9842, 794.9943
997.4663, 796.1522
997.9484, 799.0433
998.4305, 801.5031
998.9127, 802.2012
999.3948, 803.3334
999.8769, 806.3041
1000.359, 809.7346
1000.841, 812.3279
1001.323, 814.2373
1001.805, 816.1498
1002.287, 818.2325
1002.770, 820.5252
1003.252, 823.0465
1003.734, 825.7802
1004.216, 829.0809
1004.698, 832.3876
1005.180, 834.7990
1005.662, 836.5110
1006.144, 838.6143
1006.627, 841.6563
1007.109, 844.6517
1007.591, 847.6481
1008.073, 849.4349
1008.555, 847.9528
1009.037, 844.3821
1009.519, 840.8870
1010.001, 837.9137
1010.483, 834.9645
1010.966, 831.7457
1011.448, 828.6506
1011.930, 826.2209
1012.412, 824.2196
1012.894, 822.2225
1013.376, 820.2239
1013.858, 818.4106
1014.340, 816.7394
1014.823, 814.5491
1015.305, 811.2795
1015.787, 807.7786
1016.269, 805.5004
1016.751, 804.1794
1017.233, 802.7759
1017.715, 801.3293
1018.197, 800.4680
1018.679, 800.3653
1019.162, 800.6793
1019.644, 801.1808
1020.126, 801.7358
1020.608, 801.9627
1021.090, 801.9053
1021.572, 802.1818
1022.054, 802.8221
1022.536, 803.6979
1023.018, 804.7882
1023.501, 805.9697
1023.983, 807.2000
1024.465, 808.3132
1024.947, 808.5373
1025.429, 807.6925
1025.911, 808.2468
1026.393, 810.6055
1026.875, 812.5018
1027.358, 812.9056
1027.840, 813.4310
1028.322, 815.7528
1028.804, 819.3857
1029.286, 822.3245
1029.768, 824.5531
1030.250, 826.1491
1030.732, 827.0074
1031.214, 827.4625
1031.697, 827.2548
1032.179, 827.4001
1032.661, 829.2014
1033.143, 832.1924
1033.625, 833.8988
1034.107, 833.3704
1034.589, 834.0403
1035.071, 836.6882
1035.553, 839.1881
1036.036, 840.8064
1036.518, 841.9328
1037.000, 842.8060
1037.482, 843.5028
1037.964, 844.4775
1038.446, 845.5720
1038.928, 847.2719
1039.410, 850.9583
1039.893, 853.3502
1040.375, 851.6450
1040.857, 849.5140
1041.339, 850.9479
1041.821, 855.2396
1042.303, 858.5178
1042.785, 860.1551
1043.267, 861.8912
1043.750, 863.6103
1044.232, 865.6637
1044.714, 868.8018
1045.196, 871.8317
1045.678, 873.2415
1046.160, 873.4250
1046.642, 874.4255
1047.124, 876.9241
1047.606, 879.1075
1048.089, 880.0674
1048.571, 881.4855
1049.053, 885.0731
1049.535, 888.6321
1050.017, 889.6943
1050.499, 888.7666
1050.981, 888.3445
1051.463, 888.8486
1051.945, 889.8091
1052.428, 891.9973
1052.910, 893.5892
1053.392, 892.8765
1053.874, 891.8790
1054.356, 893.2007
1054.838, 896.0629
1055.320, 897.2828
1055.802, 895.8837
1056.285, 894.0070
1056.767, 892.2230
1057.249, 890.1394
1057.731, 886.8640
1058.213, 883.7532
1058.695, 882.5853
1059.177, 882.7246
1059.659, 881.9232
1060.141, 879.4277
1060.624, 877.0997
1061.106, 875.1591
1061.588, 874.0466
1062.070, 874.0549
1062.552, 874.9357
1063.034, 877.1583
1063.516, 879.9192
1063.998, 881.1555
1064.480, 880.1770
1064.963, 879.2979
1065.445, 879.1913
1065.927, 879.7103
1066.409, 881.6486
1066.891, 883.4509
1067.373, 883.0460
1067.855, 881.3815
1068.337, 881.0450
1068.820, 882.7233
1069.302, 884.2641
1069.784, 884.9450
1070.266, 885.0184
1070.748, 883.7117
1071.230, 882.6513
1071.712, 884.0974
1072.194, 886.7307
1072.677, 887.4282
1073.159, 885.5475
1073.641, 883.8681
1074.123, 883.6127
1074.605, 883.8350
1075.087, 885.3898
1075.569, 885.9942
1076.051, 882.2499
1076.533, 876.6295
1077.016, 874.2158
1077.498, 875.6658
1077.980, 876.3674
1078.462, 873.9647
1078.944, 870.9949
1079.426, 868.1854
1079.908, 865.7849
1080.390, 864.1286
1080.872, 862.9415
1081.354, 861.9920
1081.837, 861.1243
1082.319, 859.6722
1082.801, 856.7225
1083.283, 854.4379
1083.765, 854.5531
1084.247, 854.9528
1084.729, 853.7254
1085.211, 852.0355
1085.694, 852.1611
1086.176, 853.6786
1086.658, 853.1525
1087.140, 848.2638
1087.622, 844.6038
1088.104, 845.5460
1088.586, 847.2809
1089.068, 847.6012
1089.551, 847.2087
1090.033, 847.1877
1090.515, 847.3523
1090.997, 846.4924
1091.479, 843.8433
1091.961, 842.1772
1092.443, 844.1293
1092.925, 845.3948
1093.407, 842.7597
1093.890, 839.1782
1094.372, 836.8649
1094.854, 836.2307
1095.336, 838.0997
1095.818, 843.0614
1096.300, 846.2706
1096.782, 844.4086
1097.264, 842.8820
1097.746, 844.9020
1098.229, 847.0662
1098.711, 846.1575
1099.193, 843.5873
1099.675, 842.0958
1100.157, 842.0740
1100.639, 842.7510
1101.121, 844.8400
1101.603, 846.3016
1102.086, 845.9239
1102.568, 845.4594
1103.050, 846.2073
1103.532, 847.4132
1104.014, 847.7762
1104.496, 847.3430
1104.978, 847.6443
1105.460, 849.6150
1105.943, 851.1852
1106.425, 851.7117
1106.907, 852.1700
1107.389, 852.9520
1107.871, 853.9221
1108.353, 854.7916
1108.835, 855.6844
1109.317, 857.2800
1109.799, 860.3640
1110.281, 862.3318
1110.764, 862.5383
1111.246, 862.2104
1111.728, 860.9495
1112.210, 859.9654
1112.692, 860.2748
1113.174, 861.5706
1113.656, 863.1319
1114.138, 865.0568
1114.621, 866.7635
1115.103, 868.1769
1115.585, 869.4818
1116.067, 870.6634
1116.549, 871.8028
1117.031, 872.9799
1117.513, 874.1073
1117.995, 874.8771
1118.478, 876.7658
1118.960, 876.8234
1119.442, 880.3170
1119.924, 883.1127
1120.406, 884.7075
1120.888, 886.2133
1121.370, 888.1991
1121.852, 890.1617
1122.334, 891.3392
1122.817, 892.0238
1123.299, 894.0182
1123.781, 898.0164
1124.263, 900.3516
1124.745, 900.5352
1125.227, 900.3571
1125.709, 900.0717
1126.191, 900.4770
1126.673, 902.2639
1127.156, 905.1404
1127.638, 908.4113
1128.120, 912.0430
1128.602, 916.7377
1129.084, 922.7103
1129.566, 927.1693
1130.048, 929.4749
1130.530, 930.6046
1131.013, 930.8907
1131.495, 931.5781
1131.977, 934.6749
1132.459, 939.6778
1132.941, 944.4072
1133.423, 948.8291
1133.905, 951.4281
1134.387, 952.1832
1134.870, 954.2013
1135.352, 958.7076
1135.834, 963.8339
1136.316, 967.7720
1136.798, 972.3981
1137.280, 975.6168
1137.762, 980.6879
1138.244, 984.7921
1138.726, 988.1243
1139.208, 992.0954
1139.691, 996.9572
1140.173, 1001.630
1140.655, 1005.479
1141.137, 1008.861
1141.619, 1011.898
1142.101, 1015.014
1142.583, 1019.195
1143.065, 1023.971
1143.548, 1027.989
1144.030, 1031.502
1144.512, 1036.249
1144.994, 1042.868
1145.476, 1049.658
1145.958, 1055.145
1146.440, 1061.423
1146.922, 1066.424
1147.405, 1072.698
1147.887, 1078.133
1148.369, 1083.094
1148.851, 1088.613
1149.333, 1094.726
1149.815, 1100.093
1150.297, 1103.585
1150.779, 1107.609
1151.261, 1114.258
1151.744, 1121.203
1152.226, 1126.682
1152.708, 1131.516
1153.190, 1136.484
1153.672, 1141.841
1154.154, 1147.928
1154.636, 1154.905
1155.118, 1162.188
1155.600, 1170.043
1156.083, 1177.576
1156.565, 1184.150
1157.047, 1190.677
1157.529, 1197.783
1158.011, 1205.336
1158.493, 1213.196
1158.975, 1221.385
1159.457, 1229.047
1159.940, 1235.490
1160.422, 1242.485
1160.904, 1249.469
1161.386, 1257.996
1161.868, 1269.343
1162.350, 1281.561
1162.832, 1293.236
1163.314, 1304.220
1163.796, 1313.788
1164.279, 1321.393
1164.761, 1330.253
1165.243, 1339.597
1165.725, 1353.191
1166.207, 1372.929
1166.689, 1393.255
1167.171, 1411.195
1167.653, 1427.441
1168.135, 1442.830
1168.618, 1457.676
1169.100, 1473.406
1169.582, 1489.991
1170.064, 1509.743
1170.546, 1532.736
1171.028, 1556.067
1171.510, 1578.805
1171.992, 1603.516
1172.474, 1632.417
1172.957, 1663.833
1173.439, 1694.802
1173.921, 1727.893
1174.403, 1760.429
1174.885, 1797.310
1175.367, 1834.598
1175.849, 1872.723
1176.331, 1914.226
1176.814, 1960.351
1177.296, 2009.982
1177.778, 2061.824
1178.260, 2118.607
1178.742, 2177.344
1179.224, 2241.781
1179.706, 2308.304
1180.188, 2378.656
1180.671, 2456.002
1181.153, 2540.078
1181.635, 2626.773
1182.117, 2713.007
1182.599, 2804.911
1183.081, 2904.202
1183.563, 3011.528
1184.045, 3127.378
1184.527, 3251.199
1185.010, 3383.781
1185.492, 3524.290
1185.974, 3669.758
1186.456, 3819.818
1186.938, 3980.291
1187.420, 4150.539
1187.902, 4334.019
1188.384, 4534.131
1188.866, 4743.604
1189.349, 4957.192
1189.831, 5178.978
1190.313, 5410.977
1190.795, 5652.241
1191.277, 5902.243
1191.759, 6162.419
1192.241, 6421.023
1192.723, 6677.042
1193.206, 6933.804
1193.688, 7193.470
1194.170, 7448.094
1194.652, 7694.321
1195.134, 7925.072
1195.616, 8130.289
1196.098, 8309.408
1196.580, 8460.354
1197.063, 8582.429
1197.545, 8678.508
1198.027, 8747.563
1198.509, 8779.850
1198.991, 8773.210
1199.473, 8737.407
1199.955, 8679.212
1200.437, 8595.442
1200.919, 8478.259
1201.401, 8333.954
1201.884, 8171.476
1202.366, 7990.615
1202.848, 7788.934
1203.330, 7567.978
1203.812, 7332.867
1204.294, 7085.776
1204.776, 6830.456
1205.258, 6565.265
1205.741, 6302.890
1206.223, 6052.979
1206.705, 5809.373
1207.187, 5564.892
1207.669, 5324.088
1208.151, 5091.333
1208.633, 4868.070
1209.115, 4652.938
1209.598, 4445.558
1210.080, 4251.324
1210.562, 4071.191
1211.044, 3901.319
1211.526, 3742.996
1212.008, 3592.461
1212.490, 3447.122
1212.972, 3309.853
1213.454, 3185.284
1213.937, 3072.329
1214.419, 2965.777
1214.901, 2865.474
1215.383, 2772.515
1215.865, 2687.142
1216.347, 2607.764
1216.829, 2534.455
1217.311, 2466.198
1217.793, 2402.566
1218.276, 2343.128
1218.758, 2288.173
1219.240, 2236.432
1219.722, 2182.470
1220.204, 2128.410
1220.686, 2082.630
1221.168, 2044.569
1221.650, 2010.876
1222.133, 1979.600
1222.615, 1946.197
1223.097, 1907.584
1223.579, 1870.806
1224.061, 1843.166
1224.543, 1819.372
1225.025, 1796.414
1225.507, 1772.995
1225.990, 1746.598
1226.472, 1719.214
1226.954, 1694.352
1227.436, 1672.674
1227.918, 1652.394
1228.400, 1633.969
1228.882, 1615.066
1229.364, 1593.293
1229.846, 1573.353
1230.328, 1558.653
1230.811, 1544.880
1231.293, 1528.707
1231.775, 1511.221
1232.257, 1494.317
1232.739, 1478.003
1233.221, 1463.557
1233.703, 1451.358
1234.185, 1439.313
1234.668, 1427.498
1235.150, 1413.903
1235.632, 1397.514
1236.114, 1381.985
1236.596, 1370.317
1237.078, 1356.192
1237.560, 1347.425
1238.042, 1333.166
1238.525, 1322.505
1239.007, 1314.200
1239.489, 1303.869
1239.971, 1291.771
1240.453, 1280.785
1240.935, 1271.720
1241.417, 1263.333
1241.899, 1254.832
1242.381, 1246.821
1242.864, 1240.268
1243.346, 1233.754
1243.828, 1225.373
1244.310, 1216.933
1244.792, 1210.815
1245.274, 1206.243
1245.756, 1201.223
1246.238, 1195.472
1246.720, 1190.014
1247.203, 1184.861
1247.685, 1180.252
1248.167, 1177.447
1248.649, 1173.174
1249.131, 1165.703
1249.613, 1157.567
1250.095, 1150.215
1250.577, 1144.135
1251.059, 1140.653
1251.542, 1139.409
1252.024, 1135.543
1252.506, 1129.074
1252.988, 1124.493
1253.470, 1122.144
1253.952, 1120.510
1254.434, 1119.027
1254.916, 1116.722
1255.399, 1112.855
1255.881, 1108.541
1256.363, 1104.657
1256.845, 1101.660
1257.327, 1101.332
1257.809, 1101.657
1258.291, 1099.254
1258.773, 1094.987
1259.255, 1091.247
1259.738, 1088.555
1260.220, 1086.387
1260.702, 1084.864
1261.184, 1083.030
1261.666, 1080.174
1262.148, 1077.494
1262.630, 1074.888
1263.112, 1073.270
1263.594, 1074.637
1264.077, 1076.291
1264.559, 1073.719
1265.041, 1067.654
1265.523, 1064.462
1266.005, 1064.588
1266.487, 1065.234
1266.969, 1066.450
1267.451, 1066.729
1267.934, 1065.691
1268.416, 1064.233
1268.898, 1062.806
1269.380, 1062.043
1269.862, 1063.034
1270.344, 1064.590
1270.826, 1064.355
1271.308, 1063.226
1271.791, 1063.039
1272.273, 1063.306
1272.755, 1062.694
1273.237, 1061.186
1273.719, 1059.505
1274.201, 1057.823
1274.683, 1057.076
1275.165, 1059.238
1275.647, 1060.171
1276.130, 1056.904
1276.612, 1053.638
1277.094, 1053.732
1277.576, 1054.275
1278.058, 1051.529
1278.540, 1047.024
1279.022, 1045.180
1279.504, 1046.274
1279.986, 1046.233
1280.469, 1044.661
1280.951, 1044.930
1281.433, 1047.622
1281.915, 1049.042
1282.397, 1047.853
1282.879, 1046.312
1283.361, 1046.201
1283.843, 1046.836
1284.326, 1047.433
1284.808, 1047.910
##END=



