##NAMES=Grossular
##RRUFFID=R050081
##IDEAL CHEMISTRY=Ca_3_Al_2_(SiO_4_)_3_
##LOCALITY=Kayes Region, Mali
##OWNER=RRUFF
##SOURCE=Rock Currier
##DESCRIPTION=Dark brown dodecahedron
##STATUS=The identification of this mineral has been confirmed by X-ray diffraction and chemical analysis
##URL=rruff.info/R050081
##MEASURED CHEMISTRY=(Ca_2.92_Mg_0.07_Mn_0.01_)_Σ=3_(Al_1.04_Fe^3+^_0.89_Ti_0.07_)_Σ=2_((Si_0.98_Al_0.02_)_Σ=1_O_4_)_3_; trace amounts of Y
140.5016, 263.1452
140.9837, 263.8708
141.4658, 265.1737
141.9480, 267.1790
142.4301, 270.3760
142.9122, 276.4937
143.3943, 279.9507
143.8764, 278.6526
144.3585, 272.7779
144.8407, 270.9949
145.3228, 275.6443
145.8049, 282.6278
146.2870, 288.1443
146.7691, 291.2364
147.2512, 294.0295
147.7334, 296.8106
148.2155, 299.6032
148.6976, 302.3954
149.1797, 304.9831
149.6618, 307.6377
150.1439, 310.6889
150.6261, 312.0019
151.1082, 315.5934
151.5903, 323.1238
152.0724, 337.3292
152.5545, 349.3201
153.0366, 357.9146
153.5188, 363.8322
154.0009, 368.4684
154.4830, 371.4862
154.9651, 373.7044
155.4472, 375.4431
155.9293, 376.1286
156.4115, 377.2437
156.8936, 379.2419
157.3757, 381.9434
157.8578, 384.7451
158.3399, 386.7396
158.8221, 389.1973
159.3042, 392.9684
159.7863, 399.4783
160.2684, 406.1322
160.7505, 411.0278
161.2326, 414.6886
161.7148, 420.8448
162.1969, 434.5287
162.6790, 450.1931
163.1611, 462.3201
163.6432, 465.7620
164.1253, 467.9980
164.6075, 472.4551
165.0896, 479.2373
165.5717, 487.8745
166.0538, 500.4022
166.5359, 514.2308
167.0180, 525.6967
167.5002, 528.7545
167.9823, 531.8022
168.4644, 542.3214
168.9465, 561.7900
169.4286, 582.2495
169.9107, 596.2114
170.3929, 606.7311
170.8750, 620.6215
171.3571, 644.0629
171.8392, 671.3022
172.3213, 696.1280
172.8034, 717.1125
173.2856, 736.9906
173.7677, 758.3657
174.2498, 780.8306
174.7319, 802.5876
175.2140, 827.6311
175.6961, 850.2076
176.1783, 861.1505
176.6604, 857.8651
177.1425, 843.9468
177.6246, 820.6154
178.1067, 788.9855
178.5888, 754.6498
179.0710, 720.1872
179.5531, 686.4698
180.0352, 656.0130
180.5173, 629.7967
180.9994, 607.0668
181.4815, 587.0832
181.9637, 569.6939
182.4458, 555.6275
182.9279, 546.2177
183.4100, 540.7558
183.8921, 536.4422
184.3742, 532.8453
184.8564, 529.7106
185.3385, 526.5398
185.8206, 523.2921
186.3027, 520.1710
186.7848, 517.2556
187.2669, 514.5767
187.7491, 512.2203
188.2312, 509.6863
188.7133, 507.4770
189.1954, 508.2120
189.6775, 512.4899
190.1596, 517.0097
190.6418, 516.3977
191.1239, 510.8401
191.6060, 507.6831
192.0881, 512.0631
192.5702, 522.7101
193.0524, 527.9549
193.5345, 526.8744
194.0166, 522.7900
194.4987, 520.5825
194.9808, 520.3652
195.4629, 520.3159
195.9451, 519.6761
196.4272, 518.4451
196.9093, 516.7991
197.3914, 514.4964
197.8735, 512.1671
198.3556, 510.4268
198.8378, 508.9784
199.3199, 509.9572
199.8020, 516.6777
200.2841, 529.8654
200.7662, 536.2991
201.2483, 533.1301
201.7305, 524.7064
202.2126, 522.1343
202.6947, 526.6924
203.1768, 532.3302
203.6589, 535.0188
204.1410, 534.0795
204.6232, 535.3347
205.1053, 540.8427
205.5874, 548.2009
206.0695, 547.6588
206.5516, 535.6774
207.0337, 525.0901
207.5159, 526.6768
207.9980, 543.9957
208.4801, 556.2089
208.9622, 559.7213
209.4443, 556.2062
209.9264, 553.4470
210.4086, 551.0856
210.8907, 550.2034
211.3728, 551.7889
211.8549, 556.2933
212.3370, 561.8817
212.8191, 568.8304
213.3013, 576.8089
213.7834, 583.4894
214.2655, 588.5540
214.7476, 592.8495
215.2297, 597.0730
215.7118, 601.4450
216.1940, 605.0914
216.6761, 606.9951
217.1582, 607.3868
217.6403, 611.4488
218.1224, 619.4687
218.6045, 630.6895
219.0867, 645.1015
219.5688, 664.4718
220.0509, 682.5094
220.5330, 696.7159
221.0151, 707.1269
221.4972, 721.3822
221.9794, 742.5617
222.4615, 764.2847
222.9436, 778.6061
223.4257, 778.9562
223.9078, 785.8069
224.3899, 805.1281
224.8721, 838.3007
225.3542, 869.1402
225.8363, 897.4965
226.3184, 923.9205
226.8005, 948.9532
227.2827, 970.0456
227.7648, 994.4384
228.2469, 1025.052
228.7290, 1062.960
229.2111, 1097.644
229.6932, 1127.202
230.1754, 1154.666
230.6575, 1185.072
231.1396, 1222.202
231.6217, 1255.026
232.1038, 1278.608
232.5859, 1289.832
233.0681, 1309.437
233.5502, 1343.278
234.0323, 1381.188
234.5144, 1408.007
234.9965, 1416.488
235.4786, 1425.783
235.9608, 1442.057
236.4429, 1466.774
236.9250, 1490.325
237.4071, 1510.604
237.8892, 1530.872
238.3713, 1557.367
238.8535, 1596.487
239.3356, 1631.313
239.8177, 1658.585
240.2998, 1681.413
240.7819, 1685.043
241.2640, 1670.594
241.7462, 1636.387
242.2283, 1577.154
242.7104, 1480.133
243.1925, 1378.886
243.6746, 1282.126
244.1567, 1186.567
244.6389, 1106.049
245.1210, 1043.448
245.6031, 994.2315
246.0852, 951.7539
246.5673, 918.2979
247.0494, 887.6631
247.5316, 856.9960
248.0137, 824.0909
248.4958, 799.0295
248.9779, 785.0420
249.4600, 777.2264
249.9421, 766.1003
250.4243, 747.2361
250.9064, 732.8813
251.3885, 728.9984
251.8706, 740.3995
252.3527, 745.7448
252.8348, 741.9562
253.3170, 734.0300
253.7991, 731.9067
254.2812, 738.6375
254.7633, 745.3435
255.2454, 748.1824
255.7275, 745.2679
256.2097, 745.3604
256.6918, 748.7084
257.1739, 754.8833
257.6560, 763.6345
258.1381, 776.3651
258.6202, 788.8614
259.1024, 800.4908
259.5845, 812.3487
260.0666, 817.3376
260.5487, 811.1606
261.0308, 801.3754
261.5129, 802.5377
261.9951, 818.4230
262.4772, 836.2403
262.9593, 851.0204
263.4414, 862.2821
263.9235, 873.0342
264.4056, 882.3848
264.8878, 892.1990
265.3699, 905.8394
265.8520, 923.6549
266.3341, 944.6707
266.8162, 969.8489
267.2983, 1000.040
267.7805, 1027.381
268.2626, 1050.969
268.7447, 1072.452
269.2268, 1095.574
269.7089, 1121.903
270.1910, 1144.233
270.6732, 1161.417
271.1553, 1173.977
271.6374, 1173.755
272.1195, 1158.167
272.6016, 1133.553
273.0837, 1109.785
273.5659, 1086.707
274.0480, 1064.695
274.5301, 1043.235
275.0122, 1022.351
275.4943, 1004.145
275.9764, 988.1390
276.4586, 975.7133
276.9407, 971.0016
277.4228, 975.2263
277.9049, 977.0942
278.3870, 971.5643
278.8691, 958.9573
279.3513, 946.0762
279.8334, 932.4020
280.3155, 919.7898
280.7976, 910.5745
281.2798, 904.8630
281.7619, 902.0407
282.2440, 905.3939
282.7261, 912.9327
283.2082, 906.9464
283.6903, 884.7040
284.1725, 858.9860
284.6546, 846.3399
285.1367, 846.4133
285.6188, 847.0974
286.1009, 843.3192
286.5830, 836.6236
287.0652, 834.0416
287.5473, 835.9950
288.0294, 839.6740
288.5115, 842.3450
288.9936, 844.0938
289.4757, 845.5851
289.9579, 847.5078
290.4400, 849.2319
290.9221, 848.2383
291.4042, 844.2748
291.8863, 840.7411
292.3684, 841.7344
292.8506, 846.3373
293.3327, 850.4448
293.8148, 851.7313
294.2969, 852.3412
294.7790, 856.9770
295.2611, 865.6741
295.7433, 875.3801
296.2254, 884.2327
296.7075, 892.2076
297.1896, 899.0444
297.6717, 905.4567
298.1538, 910.2169
298.6360, 908.5406
299.1181, 901.2237
299.6002, 897.8360
300.0823, 910.1223
300.5644, 931.0435
301.0465, 947.2375
301.5287, 953.8339
302.0108, 956.0148
302.4929, 956.6135
302.9750, 956.5287
303.4571, 960.8644
303.9392, 977.9481
304.4214, 1000.073
304.9035, 1016.674
305.3856, 1022.170
305.8677, 1025.859
306.3498, 1035.794
306.8319, 1050.633
307.3141, 1065.910
307.7962, 1077.189
308.2783, 1088.262
308.7604, 1103.547
309.2425, 1125.250
309.7246, 1147.682
310.2068, 1165.844
310.6889, 1181.794
311.1710, 1201.056
311.6531, 1227.773
312.1352, 1257.951
312.6173, 1288.972
313.0995, 1320.702
313.5816, 1351.383
314.0637, 1378.736
314.5458, 1404.695
315.0279, 1433.108
315.5100, 1467.801
315.9922, 1503.564
316.4743, 1539.192
316.9564, 1576.258
317.4385, 1606.032
317.9206, 1620.995
318.4027, 1627.991
318.8849, 1636.589
319.3670, 1656.396
319.8491, 1672.046
320.3312, 1677.838
320.8133, 1672.692
321.2954, 1661.563
321.7776, 1647.470
322.2597, 1627.090
322.7418, 1596.882
323.2239, 1541.586
323.7060, 1491.135
324.1881, 1454.445
324.6703, 1432.996
325.1524, 1409.501
325.6345, 1377.198
326.1166, 1345.655
326.5987, 1322.287
327.0808, 1311.320
327.5630, 1303.605
328.0451, 1297.934
328.5272, 1294.394
329.0093, 1295.471
329.4914, 1308.698
329.9735, 1319.706
330.4557, 1317.468
330.9378, 1285.212
331.4199, 1269.531
331.9020, 1280.035
332.3841, 1310.825
332.8662, 1333.760
333.3484, 1348.539
333.8305, 1355.578
334.3126, 1352.989
334.7947, 1335.288
335.2768, 1325.622
335.7589, 1328.292
336.2411, 1337.892
336.7232, 1340.890
337.2053, 1336.095
337.6874, 1328.073
338.1695, 1316.498
338.6516, 1300.049
339.1338, 1293.266
339.6159, 1298.445
340.0980, 1310.200
340.5801, 1319.819
341.0622, 1327.216
341.5443, 1334.208
342.0265, 1338.842
342.5086, 1342.324
342.9907, 1358.294
343.4728, 1388.426
343.9549, 1423.978
344.4370, 1453.339
344.9192, 1477.200
345.4013, 1503.711
345.8834, 1535.073
346.3655, 1570.951
346.8476, 1607.468
347.3297, 1644.193
347.8119, 1688.538
348.2940, 1752.471
348.7761, 1830.226
349.2582, 1901.986
349.7403, 1957.550
350.2225, 2011.119
350.7046, 2084.848
351.1867, 2177.478
351.6688, 2274.187
352.1509, 2360.505
352.6331, 2445.260
353.1152, 2542.465
353.5973, 2658.254
354.0794, 2781.516
354.5615, 2904.501
355.0436, 3027.266
355.5258, 3149.984
356.0079, 3265.859
356.4900, 3385.549
356.9721, 3522.090
357.4542, 3684.039
357.9363, 3840.602
358.4185, 3975.217
358.9006, 4092.688
359.3827, 4201.326
359.8648, 4311.083
360.3469, 4407.515
360.8290, 4478.501
361.3112, 4519.773
361.7933, 4561.593
362.2754, 4612.539
362.7575, 4669.768
363.2396, 4730.447
363.7217, 4783.723
364.2039, 4849.790
364.6860, 4935.117
365.1681, 5040.337
365.6502, 5154.336
366.1323, 5278.440
366.6144, 5410.099
367.0966, 5548.137
367.5787, 5692.902
368.0608, 5842.131
368.5429, 6006.731
369.0250, 6179.788
369.5071, 6323.813
369.9893, 6447.165
370.4714, 6531.689
370.9535, 6569.905
371.4356, 6566.585
371.9177, 6504.018
372.3998, 6372.666
372.8820, 6185.824
373.3641, 5971.955
373.8462, 5727.694
374.3283, 5466.673
374.8104, 5194.375
375.2925, 4907.392
375.7747, 4618.950
376.2568, 4322.395
376.7389, 4032.703
377.2210, 3771.816
377.7031, 3540.193
378.1852, 3332.354
378.6674, 3149.247
379.1495, 2988.005
379.6316, 2825.337
380.1137, 2661.010
380.5958, 2509.723
381.0779, 2392.447
381.5601, 2302.750
382.0422, 2217.266
382.5243, 2127.780
383.0064, 2040.919
383.4885, 1968.066
383.9706, 1907.706
384.4528, 1853.714
384.9349, 1801.692
385.4170, 1752.881
385.8991, 1708.350
386.3812, 1668.169
386.8633, 1631.184
387.3455, 1596.891
387.8276, 1565.008
388.3097, 1534.304
388.7918, 1503.807
389.2739, 1474.842
389.7560, 1449.191
390.2382, 1427.274
390.7203, 1405.198
391.2024, 1378.432
391.6845, 1351.267
392.1666, 1328.319
392.6487, 1314.821
393.1309, 1302.569
393.6130, 1286.950
394.0951, 1268.531
394.5772, 1255.213
395.0593, 1256.371
395.5414, 1258.585
396.0236, 1253.435
396.5057, 1229.973
396.9878, 1210.673
397.4699, 1201.756
397.9520, 1199.102
398.4341, 1189.717
398.9163, 1165.254
399.3984, 1142.749
399.8805, 1129.406
400.3626, 1130.389
400.8447, 1125.269
401.3268, 1113.292
401.8090, 1095.764
402.2911, 1073.174
402.7732, 1043.128
403.2553, 1014.947
403.7374, 991.8580
404.2195, 973.4825
404.7017, 952.3901
405.1838, 927.3942
405.6659, 902.6506
406.1480, 881.5405
406.6301, 863.9658
407.1122, 850.0389
407.5944, 841.2930
408.0765, 834.5953
408.5586, 822.1306
409.0407, 803.9496
409.5228, 784.8164
410.0049, 766.1936
410.4871, 749.1879
410.9692, 737.7428
411.4513, 733.2915
411.9334, 730.1279
412.4155, 718.6527
412.8976, 702.5311
413.3798, 692.6509
413.8619, 701.5217
414.3440, 714.5350
414.8261, 714.4063
415.3082, 700.8311
415.7903, 688.3679
416.2725, 689.7346
416.7546, 696.2217
417.2367, 697.8156
417.7188, 684.7676
418.2009, 673.4629
418.6830, 672.9500
419.1652, 680.8094
419.6473, 688.1937
420.1294, 693.6257
420.6115, 696.7568
421.0937, 697.3643
421.5758, 694.9364
422.0579, 690.9508
422.5400, 682.2418
423.0221, 672.7672
423.5042, 668.9409
423.9864, 676.8370
424.4685, 683.7974
424.9506, 686.6096
425.4327, 684.8084
425.9148, 684.3362
426.3969, 685.3468
426.8791, 687.5064
427.3612, 690.6135
427.8433, 694.8373
428.3254, 699.7144
428.8075, 706.1685
429.2896, 712.8289
429.7718, 714.0660
430.2539, 708.9012
430.7360, 703.5699
431.2181, 701.6802
431.7002, 703.0693
432.1823, 705.5909
432.6645, 709.3451
433.1466, 713.5620
433.6287, 716.9071
434.1108, 719.6270
434.5929, 722.9982
435.0750, 727.4995
435.5572, 732.9731
436.0393, 739.9111
436.5214, 748.1977
437.0035, 755.4011
437.4856, 758.6885
437.9677, 759.9233
438.4499, 761.9380
438.9320, 766.8056
439.4141, 770.3078
439.8962, 766.0457
440.3783, 757.7557
440.8604, 754.9483
441.3426, 770.7192
441.8247, 786.4623
442.3068, 789.8574
442.7889, 776.4232
443.2710, 765.8527
443.7531, 765.4642
444.2353, 769.8156
444.7174, 772.8836
445.1995, 773.2184
445.6816, 772.8598
446.1637, 772.5359
446.6458, 772.0897
447.1280, 769.2534
447.6101, 760.2515
448.0922, 753.0164
448.5743, 752.7706
449.0564, 763.7504
449.5385, 770.1856
450.0207, 770.2733
450.5028, 766.9141
450.9849, 765.4737
451.4670, 766.2842
451.9491, 767.4130
452.4312, 768.3710
452.9134, 769.0856
453.3955, 768.9662
453.8776, 767.9658
454.3597, 766.4911
454.8418, 764.7413
455.3239, 762.8016
455.8061, 761.2472
456.2882, 760.6238
456.7703, 759.7560
457.2524, 755.4632
457.7345, 748.9341
458.2166, 744.9639
458.6988, 748.7078
459.1809, 755.3978
459.6630, 760.5876
460.1451, 764.0906
460.6272, 764.3986
461.1093, 758.2388
461.5915, 749.0533
462.0736, 741.2324
462.5557, 736.0143
463.0378, 732.6026
463.5199, 732.2227
464.0020, 734.2192
464.4842, 733.8427
464.9663, 724.3214
465.4484, 716.4714
465.9305, 716.5804
466.4126, 733.4778
466.8947, 743.0071
467.3769, 740.9631
467.8590, 733.3939
468.3411, 730.6855
468.8232, 736.9612
469.3053, 739.6641
469.7874, 733.7472
470.2696, 719.9586
470.7517, 712.6533
471.2338, 713.0758
471.7159, 716.1625
472.1980, 718.1464
472.6801, 719.0366
473.1623, 718.5673
473.6444, 715.6791
474.1265, 713.4132
474.6086, 717.7938
475.0907, 728.0498
475.5728, 739.1932
476.0550, 749.2941
476.5371, 758.3943
477.0192, 765.5963
477.5013, 770.8618
477.9834, 777.3683
478.4655, 787.4495
478.9477, 800.3334
479.4298, 815.0490
479.9119, 833.7878
480.3940, 851.3896
480.8761, 864.3519
481.3582, 873.8747
481.8404, 883.2239
482.3225, 893.3170
482.8046, 903.5894
483.2867, 915.0186
483.7688, 929.9360
484.2509, 938.1393
484.7331, 929.1487
485.2152, 918.0260
485.6973, 919.3883
486.1794, 942.8970
486.6615, 962.3938
487.1436, 973.5777
487.6258, 978.0205
488.1079, 983.2159
488.5900, 989.6946
489.0721, 995.3647
489.5542, 999.0953
490.0363, 1000.903
490.5185, 1001.117
491.0006, 999.3184
491.4827, 997.3365
491.9648, 997.8621
492.4470, 1000.475
492.9291, 1002.899
493.4112, 1004.229
493.8933, 1005.017
494.3754, 1006.821
494.8575, 1009.245
495.3397, 1009.694
495.8218, 1005.565
496.3039, 998.9825
496.7860, 991.7673
497.2681, 983.4747
497.7502, 977.0033
498.2324, 975.9476
498.7145, 977.0157
499.1966, 975.7094
499.6787, 971.2755
500.1608, 963.6962
500.6429, 951.1950
501.1251, 934.2401
501.6072, 919.9607
502.0893, 910.0282
502.5714, 901.6413
503.0535, 893.7775
503.5356, 887.5858
504.0178, 878.8082
504.4999, 865.3136
504.9820, 851.2618
505.4641, 843.3832
505.9462, 842.8471
506.4283, 842.8129
506.9105, 842.8428
507.3926, 841.5519
507.8747, 829.9376
508.3568, 807.1669
508.8389, 788.9304
509.3210, 791.4568
509.8032, 807.2968
510.2853, 814.8555
510.7674, 809.9561
511.2495, 803.1117
511.7316, 806.5735
512.2137, 815.9969
512.6959, 822.4882
513.1780, 819.1658
513.6601, 814.3754
514.1422, 811.2012
514.6243, 810.3526
515.1064, 816.0156
515.5886, 835.6931
516.0707, 858.3470
516.5528, 877.0069
517.0349, 889.0071
517.5170, 901.0748
517.9991, 908.5978
518.4813, 918.4848
518.9634, 940.3633
519.4455, 982.1871
519.9276, 1022.127
520.4097, 1054.191
520.8918, 1079.989
521.3740, 1114.863
521.8561, 1160.825
522.3382, 1209.196
522.8203, 1253.019
523.3024, 1292.576
523.7845, 1341.202
524.2667, 1402.151
524.7488, 1463.664
525.2309, 1508.331
525.7130, 1542.073
526.1951, 1584.656
526.6772, 1647.266
527.1594, 1718.661
527.6415, 1786.406
528.1236, 1850.938
528.6057, 1915.943
529.0878, 1985.661
529.5699, 2054.562
530.0521, 2119.005
530.5342, 2180.547
531.0163, 2231.150
531.4984, 2271.016
531.9805, 2297.997
532.4626, 2310.097
532.9448, 2307.156
533.4269, 2288.979
533.9090, 2260.444
534.3911, 2217.210
534.8732, 2140.967
535.3553, 2015.941
535.8375, 1885.300
536.3196, 1769.867
536.8017, 1669.150
537.2838, 1559.668
537.7659, 1435.971
538.2480, 1318.120
538.7302, 1229.569
539.2123, 1166.719
539.6944, 1110.403
540.1765, 1056.581
540.6586, 1007.161
541.1407, 963.5496
541.6229, 925.5278
542.1050, 891.5550
542.5871, 858.4185
543.0692, 830.4623
543.5513, 813.8891
544.0334, 809.0513
544.5156, 805.5724
544.9977, 801.1454
545.4798, 794.6209
545.9619, 784.7336
546.4440, 765.0348
546.9261, 751.2170
547.4083, 746.7366
547.8904, 749.2953
548.3725, 755.1058
548.8546, 767.2212
549.3367, 777.6545
549.8188, 784.4417
550.3010, 787.7665
550.7831, 789.4921
551.2652, 789.2958
551.7473, 788.5732
552.2294, 787.5048
552.7115, 786.3530
553.1937, 788.2626
553.6758, 793.8728
554.1579, 800.9245
554.6400, 807.5079
555.1221, 813.3759
555.6042, 817.6226
556.0864, 818.6806
556.5685, 819.3185
557.0506, 824.0483
557.5327, 831.1444
558.0148, 834.0641
558.4969, 822.9551
558.9791, 811.6971
559.4612, 810.6384
559.9433, 823.7377
560.4254, 831.8215
560.9075, 830.6855
561.3896, 823.3161
561.8718, 812.0095
562.3539, 790.0745
562.8360, 776.1456
563.3181, 775.6653
563.8002, 782.1915
564.2823, 779.3419
564.7645, 765.1061
565.2466, 750.6337
565.7287, 740.6749
566.2108, 734.1711
566.6929, 727.0242
567.1750, 719.3956
567.6572, 708.7430
568.1393, 689.5972
568.6214, 666.5980
569.1035, 650.3250
569.5856, 643.3942
570.0677, 638.6544
570.5499, 631.0135
571.0320, 621.3693
571.5141, 611.1075
571.9962, 598.6652
572.4783, 587.7585
572.9604, 580.7071
573.4426, 576.8749
573.9247, 572.7197
574.4068, 569.2332
574.8889, 563.8417
575.3710, 554.1777
575.8531, 538.1433
576.3353, 530.1907
576.8174, 534.2469
577.2995, 540.6744
577.7816, 539.8635
578.2637, 531.0868
578.7458, 522.6511
579.2280, 515.6223
579.7101, 509.6871
580.1922, 503.8712
580.6743, 498.4509
581.1564, 494.9858
581.6385, 494.1977
582.1207, 495.7655
582.6028, 500.9010
583.0849, 508.9293
583.5670, 514.9387
584.0491, 515.3452
584.5313, 512.9963
585.0134, 509.1767
585.4955, 502.4554
585.9776, 499.6730
586.4597, 505.3553
586.9418, 514.7607
587.4240, 522.5073
587.9061, 527.9596
588.3882, 532.3492
588.8703, 534.5040
589.3524, 536.0326
589.8345, 542.5123
590.3167, 555.5008
590.7988, 567.4830
591.2809, 574.3286
591.7630, 577.2632
592.2451, 583.0982
592.7272, 592.0162
593.2094, 599.3685
593.6915, 598.4141
594.1736, 593.7241
594.6557, 594.3015
595.1378, 602.1823
595.6199, 612.8040
596.1021, 625.4783
596.5842, 638.0118
597.0663, 647.3118
597.5485, 649.2692
598.0306, 650.9463
598.5127, 654.4947
598.9948, 659.5847
599.4769, 664.7532
599.9590, 671.0432
600.4412, 676.0909
600.9233, 678.7007
601.4054, 678.6683
601.8875, 679.4512
602.3696, 680.7952
602.8517, 683.5858
603.3339, 690.0750
603.8160, 699.7646
604.2981, 704.2947
604.7802, 701.5934
605.2623, 697.4911
605.7444, 701.9880
606.2266, 711.3167
606.7087, 714.9394
607.1908, 702.8054
607.6729, 690.0131
608.1550, 690.6035
608.6371, 700.8191
609.1193, 708.4651
609.6014, 706.7920
610.0835, 702.9556
610.5656, 699.2103
611.0477, 695.2244
611.5298, 695.6939
612.0120, 704.3837
612.4941, 713.8735
612.9762, 719.4238
613.4583, 720.6458
613.9404, 718.6817
614.4225, 712.1257
614.9047, 704.9420
615.3868, 705.0842
615.8689, 711.6245
616.3510, 711.4542
616.8331, 697.1259
617.3152, 678.9092
617.7974, 675.1816
618.2795, 682.1450
618.7616, 684.8380
619.2437, 670.7308
619.7258, 652.4534
620.2079, 638.7960
620.6901, 630.3315
621.1722, 623.5465
621.6543, 620.0760
622.1364, 615.8627
622.6185, 608.0762
623.1006, 594.5650
623.5828, 581.7621
624.0649, 569.1744
624.5470, 557.7480
625.0291, 548.8079
625.5112, 542.6826
625.9933, 537.4373
626.4755, 533.1768
626.9576, 529.0886
627.4397, 524.3489
627.9218, 518.6949
628.4039, 510.1225
628.8860, 494.5909
629.3682, 477.1205
629.8503, 463.6597
630.3324, 454.2280
630.8145, 449.2101
631.2966, 454.0843
631.7787, 459.8571
632.2609, 459.2780
632.7430, 449.2242
633.2251, 441.5363
633.7072, 439.8166
634.1893, 440.6618
634.6714, 441.2620
635.1536, 441.1049
635.6357, 442.1612
636.1178, 445.7418
636.5999, 449.3615
637.0820, 447.2984
637.5641, 439.2607
638.0463, 432.9564
638.5284, 431.1888
639.0105, 432.3674
639.4926, 433.9130
639.9747, 435.7212
640.4568, 437.1470
640.9390, 436.8764
641.4211, 436.6659
641.9032, 438.4487
642.3853, 442.3462
642.8674, 446.1522
643.3495, 449.5990
643.8317, 452.2265
644.3138, 453.5728
644.7959, 451.9064
645.2780, 452.3248
645.7601, 456.2525
646.2422, 461.0078
646.7244, 463.2798
647.2065, 462.5200
647.6886, 462.0665
648.1707, 462.6566
648.6528, 463.6166
649.1349, 463.2079
649.6171, 461.7024
650.0992, 461.0095
650.5813, 463.9234
651.0634, 466.9542
651.5455, 464.8839
652.0276, 458.6010
652.5098, 452.9722
652.9919, 449.6709
653.4740, 448.5388
653.9561, 450.6247
654.4382, 457.0961
654.9203, 460.0341
655.4025, 454.3461
655.8846, 448.2000
656.3667, 448.1611
656.8488, 459.0688
657.3309, 460.0787
657.8130, 446.8449
658.2952, 430.1998
658.7773, 427.6149
659.2594, 437.6300
659.7415, 442.5523
660.2236, 435.9990
660.7057, 425.1726
661.1879, 419.7701
661.6700, 418.5296
662.1521, 418.0240
662.6342, 416.7614
663.1163, 415.5562
663.5984, 414.6754
664.0806, 414.1987
664.5627, 414.6179
665.0448, 416.9956
665.5269, 419.4450
666.0090, 421.3140
666.4911, 422.6412
666.9733, 422.9471
667.4554, 422.0610
667.9375, 420.4917
668.4196, 417.8833
668.9017, 414.3459
669.3839, 413.9142
669.8660, 417.4039
670.3481, 421.8248
670.8302, 424.0926
671.3123, 424.6303
671.7944, 424.0939
672.2766, 421.2625
672.7587, 419.7389
673.2408, 425.5905
673.7229, 434.0055
674.2050, 435.6949
674.6871, 419.2766
675.1693, 405.3603
675.6514, 401.2548
676.1335, 404.7324
676.6156, 403.9138
677.0977, 396.3862
677.5798, 390.1443
678.0620, 389.9845
678.5441, 394.8869
679.0262, 393.8707
679.5083, 386.5507
679.9904, 379.4899
680.4725, 379.2777
680.9547, 382.5003
681.4368, 382.7761
681.9189, 379.0700
682.4010, 375.3453
682.8831, 375.4999
683.3652, 376.4021
683.8474, 374.7842
684.3295, 367.6819
684.8116, 361.5836
685.2937, 357.6086
685.7758, 355.0484
686.2579, 353.3590
686.7401, 353.2777
687.2222, 351.9712
687.7043, 348.6118
688.1864, 344.0568
688.6685, 340.0012
689.1506, 336.4810
689.6328, 334.1162
690.1149, 334.0536
690.5970, 334.7165
691.0791, 333.4966
691.5612, 330.7345
692.0433, 328.2124
692.5255, 325.8762
693.0076, 324.8419
693.4897, 326.5184
693.9718, 331.3171
694.4539, 334.6630
694.9360, 335.0995
695.4182, 334.7013
695.9003, 334.3303
696.3824, 333.7264
696.8645, 334.6791
697.3466, 337.8959
697.8287, 340.8120
698.3109, 339.8021
698.7930, 335.7499
699.2751, 333.4259
699.7572, 333.8592
700.2393, 335.4907
700.7214, 337.0015
701.2036, 338.5388
701.6857, 340.3668
702.1678, 343.4800
702.6499, 345.8477
703.1320, 346.0392
703.6141, 344.9400
704.0963, 344.8360
704.5784, 346.9618
705.0605, 348.4256
705.5426, 348.7494
706.0247, 347.9262
706.5068, 345.5445
706.9890, 341.3577
707.4711, 337.5636
707.9532, 334.5455
708.4353, 332.9350
708.9174, 335.1517
709.3995, 340.8937
709.8817, 347.1994
710.3638, 355.0273
710.8459, 360.5242
711.3280, 359.0016
711.8101, 349.1327
712.2922, 340.1706
712.7744, 332.6374
713.2565, 328.4708
713.7386, 329.2211
714.2207, 338.1297
714.7028, 343.2425
715.1849, 343.1791
715.6671, 341.8014
716.1492, 343.2889
716.6313, 347.4851
717.1134, 353.6352
717.5955, 362.7946
718.0776, 369.8663
718.5598, 364.8605
719.0419, 353.6214
719.5240, 347.6677
720.0061, 356.8969
720.4882, 365.1831
720.9703, 362.4192
721.4525, 353.5212
721.9346, 349.6956
722.4167, 357.0481
722.8988, 363.5216
723.3809, 366.6518
723.8630, 367.2715
724.3452, 368.4719
724.8273, 370.1858
725.3094, 372.9174
725.7915, 377.2757
726.2736, 382.6706
726.7557, 388.0212
727.2379, 393.2096
727.7200, 397.3086
728.2021, 398.9492
728.6842, 399.7841
729.1663, 400.9452
729.6484, 402.5177
730.1306, 404.8544
730.6127, 407.8390
731.0948, 411.8492
731.5769, 417.2407
732.0590, 424.5613
732.5411, 431.1505
733.0233, 436.8550
733.5054, 442.1723
733.9875, 447.7565
734.4696, 453.4844
734.9517, 458.1037
735.4338, 461.3836
735.9160, 464.2832
736.3981, 465.8868
736.8802, 468.3337
737.3623, 475.4188
737.8444, 491.8560
738.3266, 505.8589
738.8087, 511.0993
739.2908, 511.9554
739.7729, 514.8298
740.2551, 522.1903
740.7372, 527.3510
741.2193, 527.9339
741.7014, 527.2715
742.1835, 533.7130
742.6656, 547.3300
743.1478, 558.6768
743.6299, 563.6412
744.1120, 566.1701
744.5941, 572.2357
745.0762, 581.0653
745.5583, 590.4641
746.0405, 600.4113
746.5226, 609.5399
747.0047, 615.6563
747.4868, 619.6771
747.9689, 626.9456
748.4510, 642.8707
748.9332, 655.5892
749.4153, 658.7638
749.8974, 654.0067
750.3795, 662.4294
750.8616, 685.6374
751.3438, 709.1591
751.8259, 723.5952
752.3080, 731.6073
752.7901, 738.4344
753.2722, 744.3795
753.7543, 752.7446
754.2365, 766.8178
754.7186, 783.4810
755.2007, 799.8279
755.6828, 815.2371
756.1649, 832.9875
756.6470, 856.9831
757.1292, 880.7606
757.6113, 900.6572
758.0934, 916.3212
758.5755, 929.2169
759.0576, 938.9411
759.5397, 947.6411
760.0219, 956.7800
760.5040, 966.7785
760.9861, 980.0714
761.4682, 998.0776
761.9503, 1012.895
762.4324, 1015.495
762.9146, 1012.618
763.3967, 1012.149
763.8788, 1016.204
764.3609, 1022.434
764.8430, 1033.916
765.3251, 1045.384
765.8073, 1050.947
766.2894, 1049.874
766.7715, 1045.669
767.2536, 1038.589
767.7357, 1028.991
768.2178, 1015.040
768.7000, 998.4419
769.1821, 987.4479
769.6642, 989.5343
770.1463, 990.1454
770.6284, 971.3265
771.1105, 942.6965
771.5927, 922.8513
772.0748, 924.1259
772.5569, 927.3102
773.0390, 930.2966
773.5211, 931.6016
774.0032, 926.8705
774.4854, 914.9140
774.9675, 901.0945
775.4496, 885.9471
775.9317, 870.8931
776.4138, 857.8493
776.8959, 847.5814
777.3781, 843.6146
777.8602, 855.5530
778.3423, 868.3676
778.8244, 865.9429
779.3065, 852.4260
779.7886, 845.8317
780.2708, 859.1318
780.7529, 872.4296
781.2350, 879.1046
781.7171, 879.8449
782.1992, 880.7682
782.6813, 881.6401
783.1635, 883.5860
783.6456, 887.2745
784.1277, 892.4533
784.6098, 898.0590
785.0919, 904.2315
785.5740, 912.4391
786.0562, 925.2406
786.5383, 939.4280
787.0204, 951.2769
787.5025, 960.7297
787.9846, 973.5980
788.4667, 998.0936
788.9489, 1019.533
789.4310, 1030.492
789.9131, 1030.053
790.3952, 1034.422
790.8773, 1043.606
791.3594, 1057.410
791.8416, 1079.459
792.3237, 1105.449
792.8058, 1120.735
793.2879, 1125.010
793.7700, 1134.482
794.2521, 1164.947
794.7343, 1202.363
795.2164, 1234.383
795.6985, 1257.990
796.1806, 1285.262
796.6627, 1321.321
797.1448, 1357.389
797.6270, 1384.799
798.1091, 1400.562
798.5912, 1434.411
799.0733, 1489.478
799.5554, 1548.588
800.0375, 1592.490
800.5197, 1628.687
801.0018, 1672.999
801.4839, 1728.298
801.9660, 1783.264
802.4481, 1830.066
802.9302, 1874.133
803.4124, 1919.541
803.8945, 1964.846
804.3766, 2016.753
804.8587, 2077.770
805.3408, 2142.027
805.8229, 2202.845
806.3051, 2260.292
806.7872, 2326.041
807.2693, 2402.211
807.7514, 2481.238
808.2335, 2558.633
808.7156, 2633.619
809.1978, 2703.924
809.6799, 2766.830
810.1620, 2832.676
810.6441, 2906.322
811.1262, 2984.963
811.6083, 3065.415
812.0905, 3150.270
812.5726, 3232.079
813.0547, 3310.413
813.5368, 3384.673
814.0189, 3452.221
814.5010, 3514.157
814.9832, 3579.546
815.4653, 3651.860
815.9474, 3715.696
816.4295, 3759.308
816.9116, 3785.634
817.3937, 3796.848
817.8759, 3783.979
818.3580, 3774.469
818.8401, 3782.008
819.3222, 3789.944
819.8043, 3782.176
820.2864, 3756.176
820.7686, 3726.177
821.2507, 3694.169
821.7328, 3656.870
822.2149, 3609.939
822.6970, 3555.019
823.1791, 3494.157
823.6613, 3426.537
824.1434, 3359.293
824.6255, 3298.883
825.1076, 3241.233
825.5897, 3182.855
826.0718, 3127.859
826.5540, 3062.984
827.0361, 2980.429
827.5182, 2895.894
828.0003, 2827.959
828.4824, 2776.974
828.9645, 2727.127
829.4467, 2677.073
829.9288, 2625.116
830.4109, 2565.410
830.8930, 2503.992
831.3751, 2449.403
831.8572, 2405.010
832.3394, 2366.198
832.8215, 2332.848
833.3036, 2303.317
833.7857, 2275.757
834.2678, 2252.638
834.7499, 2224.245
835.2321, 2187.838
835.7142, 2151.499
836.1963, 2125.836
836.6784, 2108.790
837.1605, 2094.189
837.6426, 2081.454
838.1248, 2068.895
838.6069, 2054.621
839.0890, 2040.100
839.5711, 2026.739
840.0532, 2010.872
840.5353, 2004.100
841.0175, 2010.577
841.4996, 2022.308
841.9817, 2032.982
842.4638, 2042.913
842.9459, 2044.250
843.4280, 2035.142
843.9102, 2023.214
844.3923, 2015.808
844.8744, 2011.513
845.3565, 2009.211
845.8386, 2010.358
846.3207, 2006.993
846.8029, 1990.267
847.2850, 1971.234
847.7671, 1959.854
848.2492, 1959.898
848.7313, 1957.758
849.2134, 1953.263
849.6956, 1947.055
850.1777, 1939.885
850.6598, 1931.512
851.1419, 1918.915
851.6240, 1900.751
852.1061, 1888.409
852.5883, 1897.049
853.0704, 1911.405
853.5525, 1916.666
854.0346, 1906.026
854.5167, 1900.179
854.9988, 1898.946
855.4810, 1904.306
855.9631, 1920.898
856.4452, 1949.084
856.9273, 1966.982
857.4094, 1973.522
857.8915, 1976.854
858.3737, 1977.354
858.8558, 1982.153
859.3379, 2003.949
859.8200, 2045.346
860.3021, 2083.074
860.7842, 2100.285
861.2664, 2117.743
861.7485, 2146.770
862.2306, 2188.651
862.7127, 2232.823
863.1948, 2280.886
863.6769, 2325.746
864.1591, 2357.155
864.6412, 2383.182
865.1233, 2426.272
865.6054, 2486.295
866.0875, 2547.114
866.5696, 2601.335
867.0518, 2652.251
867.5339, 2699.546
868.0160, 2743.643
868.4981, 2796.841
868.9802, 2865.408
869.4623, 2930.170
869.9445, 2980.063
870.4266, 3018.448
870.9087, 3061.141
871.3908, 3108.068
871.8729, 3152.620
872.3550, 3195.166
872.8372, 3230.813
873.3193, 3257.302
873.8014, 3273.981
874.2835, 3276.638
874.7656, 3251.398
875.2477, 3227.252
875.7299, 3212.642
876.2120, 3204.327
876.6941, 3190.752
877.1762, 3172.009
877.6583, 3144.583
878.1404, 3107.134
878.6226, 3060.243
879.1047, 3001.260
879.5869, 2933.626
880.0690, 2864.786
880.5511, 2800.681
881.0332, 2732.132
881.5153, 2650.551
881.9974, 2564.823
882.4796, 2493.356
882.9617, 2439.598
883.4438, 2380.136
883.9259, 2309.316
884.4080, 2232.065
884.8901, 2149.238
885.3723, 2066.913
885.8544, 2000.297
886.3365, 1967.133
886.8186, 1931.187
887.3007, 1871.410
887.7828, 1802.108
888.2650, 1743.103
888.7471, 1697.257
889.2292, 1657.701
889.7113, 1626.689
890.1934, 1595.319
890.6755, 1546.617
891.1577, 1487.605
891.6398, 1439.557
892.1219, 1408.197
892.6040, 1381.199
893.0861, 1351.721
893.5682, 1322.036
894.0504, 1294.213
894.5325, 1268.570
895.0146, 1245.792
895.4967, 1228.042
895.9788, 1209.238
896.4609, 1183.334
896.9431, 1151.611
897.4252, 1122.264
897.9073, 1095.738
898.3894, 1071.359
898.8715, 1047.075
899.3536, 1025.200
899.8358, 1008.991
900.3179, 999.5811
900.8000, 985.4379
901.2821, 960.7118
901.7642, 938.3928
902.2463, 925.4695
902.7285, 920.4767
903.2106, 909.5640
903.6927, 893.0451
904.1748, 878.1182
904.6569, 870.8875
905.1390, 865.9622
905.6212, 857.7474
906.1033, 846.9895
906.5854, 836.9116
907.0675, 827.1550
907.5496, 820.1532
908.0317, 818.3053
908.5139, 818.8812
908.9960, 811.7243
909.4781, 796.8176
909.9602, 786.1251
910.4423, 786.3942
910.9244, 788.8737
911.4066, 782.0662
911.8887, 770.0067
912.3708, 760.0162
912.8529, 754.1876
913.3350, 751.3787
913.8171, 752.5067
914.2993, 755.6114
914.7814, 759.0862
915.2635, 763.2652
915.7456, 762.2729
916.2277, 754.0950
916.7098, 745.7510
917.1920, 745.8286
917.6741, 750.8807
918.1562, 756.5679
918.6383, 762.9028
919.1204, 766.3240
919.6025, 765.2572
920.0847, 761.1450
920.5668, 753.8807
921.0489, 742.3372
921.5310, 736.1248
922.0131, 735.6975
922.4952, 736.8998
922.9774, 734.9827
923.4595, 733.2524
923.9416, 738.7565
924.4237, 751.1217
924.9058, 759.5697
925.3879, 757.3129
925.8701, 752.6193
926.3522, 747.8434
926.8343, 743.4520
927.3164, 744.0491
927.7985, 750.2109
928.2806, 755.9574
928.7628, 757.4294
929.2449, 757.9014
929.7270, 763.2656
930.2091, 771.9141
930.6912, 779.6481
931.1733, 786.5912
931.6555, 790.0270
932.1376, 784.3224
932.6197, 776.6434
933.1018, 780.7434
933.5839, 798.8942
934.0660, 812.0135
934.5482, 816.5248
935.0303, 815.7203
935.5124, 812.4661
935.9945, 807.3270
936.4766, 800.8715
936.9587, 791.7067
937.4409, 785.2663
937.9230, 784.7186
938.4051, 786.5115
938.8872, 788.6231
939.3693, 791.7877
939.8514, 790.6348
940.3336, 784.8563
940.8157, 777.0923
941.2978, 768.9936
941.7799, 760.4916
942.2620, 750.8287
942.7441, 740.1732
943.2263, 731.0145
943.7084, 727.5964
944.1905, 722.6080
944.6726, 713.0541
945.1547, 699.4849
945.6368, 684.7237
946.1190, 668.5043
946.6011, 653.4934
947.0832, 640.0411
947.5653, 629.3182
948.0474, 624.5725
948.5295, 623.5156
949.0117, 620.8241
949.4938, 616.4498
949.9759, 607.5483
950.4580, 590.2975
950.9401, 570.9445
951.4222, 559.2640
951.9044, 555.2905
952.3865, 553.2504
952.8686, 552.3989
953.3507, 552.4769
953.8328, 553.6515
954.3149, 555.3808
954.7971, 556.6515
955.2792, 556.5085
955.7613, 559.0579
956.2434, 569.0203
956.7255, 576.7787
957.2076, 574.1251
957.6898, 561.6046
958.1719, 559.9391
958.6540, 569.0040
959.1361, 581.0153
959.6182, 589.8362
960.1003, 599.8366
960.5825, 617.9796
961.0646, 642.2292
961.5467, 659.9263
962.0288, 666.2554
962.5109, 669.3752
962.9930, 670.1834
963.4752, 669.6431
963.9573, 669.1093
964.4394, 669.0131
964.9215, 672.2991
965.4036, 681.2755
965.8857, 691.2751
966.3679, 698.6177
966.8500, 704.6826
967.3321, 711.3131
967.8142, 717.8019
968.2963, 726.9453
968.7784, 739.8991
969.2606, 753.0546
969.7427, 762.4048
970.2248, 768.7731
970.7069, 775.1791
971.1890, 781.8217
971.6711, 787.6569
972.1533, 791.8018
972.6354, 794.9932
973.1175, 797.7147
973.5996, 799.9706
974.0817, 800.8278
974.5638, 799.7068
975.0460, 799.1144
975.5281, 799.4474
976.0102, 801.5746
976.4923, 808.6599
976.9744, 819.1858
977.4565, 828.6965
977.9387, 837.9456
978.4208, 842.6902
978.9029, 837.0922
979.3850, 828.1811
979.8671, 825.8130
980.3492, 831.3461
980.8314, 836.0921
981.3135, 839.5201
981.7956, 840.2070
982.2777, 834.2550
982.7598, 825.6585
983.2419, 820.0334
983.7241, 818.3611
984.2062, 818.3849
984.6883, 821.2972
985.1704, 823.8967
985.6525, 824.6577
986.1346, 823.7635
986.6168, 822.4651
987.0989, 820.8416
987.5810, 821.3680
988.0631, 829.1242
988.5452, 836.6229
989.0273, 836.0494
989.5095, 829.6032
989.9916, 822.8202
990.4737, 815.1139
990.9558, 809.8690
991.4379, 808.0613
991.9200, 808.1235
992.4022, 807.3494
992.8843, 806.2736
993.3664, 808.1494
993.8485, 814.3802
994.3306, 818.3152
994.8127, 814.5798
995.2949, 807.0273
995.7770, 797.8162
996.2591, 786.3065
996.7412, 780.3184
997.2233, 781.0640
997.7054, 783.1398
998.1876, 787.2847
998.6697, 788.8491
999.1518, 771.5041
999.6339, 740.8918
1000.116, 719.3339
1000.598, 730.3140
1001.080, 736.1903
1001.562, 720.3133
1002.044, 692.9097
1002.527, 670.7229
1003.009, 654.1105
1003.491, 641.3610
1003.973, 633.9932
1004.455, 623.7739
1004.937, 598.2243
1005.419, 566.2248
1005.901, 539.2568
1006.384, 520.3819
1006.866, 502.2732
1007.348, 482.3842
1007.830, 465.5837
1008.312, 456.0006
1008.794, 452.0937
1009.276, 444.1176
1009.758, 432.5569
1010.240, 421.2237
1010.723, 412.9126
1011.205, 404.9687
1011.687, 395.7251
1012.169, 385.5556
1012.651, 375.1212
1013.133, 362.6236
1013.615, 355.3434
1014.097, 355.2073
1014.580, 358.3477
1015.062, 360.0914
1015.544, 361.0136
1016.026, 362.4317
1016.508, 364.8245
1016.990, 366.2101
1017.472, 363.1940
1017.954, 361.4827
1018.436, 365.1037
1018.919, 373.6618
1019.401, 379.1286
1019.883, 381.5002
1020.365, 382.0370
1020.847, 379.7776
1021.329, 377.4320
1021.811, 378.8834
1022.293, 382.2942
1022.776, 383.1128
1023.258, 379.0276
1023.740, 374.6827
1024.222, 370.6237
1024.704, 366.2578
1025.186, 359.9948
1025.668, 352.7333
1026.150, 349.0225
1026.632, 349.9584
1027.115, 347.5789
1027.597, 332.5355
1028.079, 316.3658
1028.561, 307.1270
1029.043, 304.5572
1029.525, 302.2329
1030.007, 300.4987
1030.489, 296.3904
1030.972, 287.2312
1031.454, 276.4356
1031.936, 267.5732
1032.418, 260.7664
1032.900, 256.3842
1033.382, 255.9647
1033.864, 256.1133
1034.346, 257.0470
1034.828, 257.5995
1035.311, 256.2221
1035.793, 253.1783
1036.275, 250.2312
1036.757, 247.4995
1037.239, 244.8397
1037.721, 242.9486
1038.203, 240.3977
1038.685, 235.1215
1039.167, 227.7049
1039.650, 223.9519
1040.132, 224.6355
1040.614, 225.7728
1041.096, 226.0577
1041.578, 226.0426
1042.060, 227.1203
1042.542, 228.4138
1043.024, 228.1600
1043.507, 224.6835
1043.989, 221.9203
1044.471, 220.4768
1044.953, 220.0211
1045.435, 220.5775
1045.917, 222.0426
1046.399, 223.5749
1046.881, 225.0623
1047.364, 224.8245
1047.846, 219.4636
1048.328, 214.0774
1048.810, 212.5332
1049.292, 214.1130
1049.774, 214.6941
1050.256, 213.5900
1050.738, 214.0382
1051.220, 217.1516
1051.703, 220.7854
1052.185, 222.6251
1052.667, 222.5100
1053.149, 218.9932
1053.631, 210.1436
1054.113, 205.9736
1054.595, 214.1371
1055.077, 221.8463
1055.559, 221.8778
1056.042, 215.6600
1056.524, 212.6028
1057.006, 212.5718
1057.488, 214.4662
1057.970, 221.4656
1058.452, 226.2951
1058.934, 221.8027
1059.416, 212.7763
1059.899, 208.7533
1060.381, 211.9514
1060.863, 212.6697
1061.345, 209.7730
1061.827, 205.8309
1062.309, 201.9118
1062.791, 199.4059
1063.273, 201.8175
1063.755, 209.2256
1064.238, 213.8080
1064.720, 211.2610
1065.202, 208.2909
1065.684, 206.4803
1066.166, 205.8171
1066.648, 207.4432
1067.130, 210.4955
1067.612, 210.6824
1068.094, 205.0080
1068.577, 200.0937
1069.059, 201.0239
1069.541, 203.8855
1070.023, 204.4389
1070.505, 201.6732
1070.987, 203.1830
1071.469, 209.5836
1071.951, 214.4417
1072.434, 211.6696
1072.916, 206.1458
1073.398, 202.8372
1073.880, 201.6685
1074.362, 202.0895
1074.844, 207.0792
1075.326, 207.8624
1075.808, 201.3363
1076.291, 193.8271
1076.773, 195.8282
1077.255, 203.9198
1077.737, 208.2153
1078.219, 207.1550
1078.701, 204.9672
1079.183, 203.0815
1079.665, 201.3121
1080.147, 199.7173
1080.630, 198.1564
1081.112, 195.1361
1081.594, 190.7610
1082.076, 188.3443
1082.558, 189.6835
1083.040, 192.3886
1083.522, 195.7705
1084.004, 198.5740
1084.486, 198.7849
1084.969, 194.6881
1085.451, 192.4816
1085.933, 192.4088
1086.415, 193.3722
1086.897, 194.8604
1087.379, 196.6674
1087.861, 198.6990
1088.343, 200.7816
1088.826, 202.2387
1089.308, 202.5261
1089.790, 202.3183
1090.272, 200.7887
1090.754, 199.9871
1091.236, 205.1915
1091.718, 214.3452
1092.200, 217.0150
1092.682, 211.2113
1093.165, 205.1955
1093.647, 203.8834
1094.129, 204.2968
1094.611, 204.9505
1095.093, 205.6714
1095.575, 205.2792
1096.057, 203.7023
1096.539, 202.8780
1097.022, 203.8831
1097.504, 205.2351
1097.986, 203.9661
1098.468, 202.7213
1098.950, 205.6363
1099.432, 216.3759
1099.914, 223.3034
1100.396, 226.4039
1100.879, 225.4146
1101.361, 215.9401
1101.843, 204.1266
1102.325, 202.8956
1102.807, 210.1258
1103.289, 217.4476
1103.771, 225.1477
1104.253, 227.5810
1104.735, 222.0716
1105.218, 213.6355
1105.700, 208.8542
1106.182, 207.2782
1106.664, 207.1478
1107.146, 208.2759
1107.628, 210.3200
1108.110, 214.8004
1108.592, 218.3807
1109.074, 218.0771
1109.557, 215.3715
1110.039, 216.9369
1110.521, 222.8632
1111.003, 226.8108
1111.485, 226.5781
1111.967, 224.7845
1112.449, 222.2667
1112.931, 220.4869
1113.414, 221.7297
1113.896, 227.3495
1114.378, 229.5715
1114.860, 228.0332
1115.342, 224.6055
1115.824, 219.1163
1116.306, 213.4114
1116.788, 210.1224
1117.271, 208.9686
1117.753, 209.2971
1118.235, 211.6956
1118.717, 214.7529
1119.199, 219.0941
1119.681, 222.7186
1120.163, 223.8135
1120.645, 222.5753
1121.127, 218.2046
1121.609, 211.2547
1122.092, 206.8727
1122.574, 209.8885
1123.056, 213.2847
1123.538, 214.6402
1124.020, 214.9733
1124.502, 216.7187
1124.984, 219.5508
1125.466, 220.3536
1125.949, 218.3184
1126.431, 216.3329
1126.913, 217.8710
1127.395, 218.9265
1127.877, 215.0107
1128.359, 207.2688
1128.841, 206.5881
1129.323, 213.5016
1129.806, 217.5777
1130.288, 213.6921
1130.770, 208.3369
1131.252, 208.3993
1131.734, 210.8205
1132.216, 211.2561
1132.698, 207.7262
1133.180, 208.3225
1133.662, 214.1236
1134.145, 219.4906
1134.627, 220.6286
1135.109, 219.2926
1135.591, 218.0753
1136.073, 216.6382
1136.555, 214.1601
1137.037, 207.8701
1137.519, 204.5658
1138.001, 205.3853
1138.484, 207.6736
1138.966, 208.7310
1139.448, 209.1124
1139.930, 209.9583
1140.412, 211.3829
1140.894, 213.5460
1141.376, 221.1508
1141.858, 222.8739
1142.341, 212.6005
1142.823, 198.5959
1143.305, 197.1617
1143.787, 205.6109
1144.269, 212.0113
1144.751, 214.3203
1145.233, 215.0953
1145.715, 216.3322
1146.198, 215.6558
1146.680, 210.2610
1147.162, 202.1537
1147.644, 203.1299
1148.126, 212.2183
1148.608, 215.4992
1149.090, 205.8803
1149.572, 196.5932
1150.054, 199.3892
1150.536, 206.0535
1151.019, 208.9944
1151.501, 207.8899
1151.983, 203.9021
1152.465, 196.7888
1152.947, 192.3642
1153.429, 196.3763
1153.911, 201.5355
1154.393, 199.3416
1154.876, 193.9445
1155.358, 193.1290
1155.840, 200.1823
1156.322, 202.7630
1156.804, 200.0595
1157.286, 196.1141
1157.768, 192.8980
1158.250, 191.2126
1158.733, 193.5224
1159.215, 198.4354
1159.697, 200.5229
1160.179, 196.8604
1160.661, 195.5090
1161.143, 198.3476
1161.625, 200.9614
1162.107, 196.4122
1162.589, 189.0059
1163.072, 186.8558
1163.554, 190.1578
1164.036, 191.3382
1164.518, 185.2620
1165.000, 182.7543
1165.482, 187.6117
1165.964, 195.3355
1166.446, 198.6005
1166.928, 198.1738
1167.411, 194.9051
1167.893, 188.2843
1168.375, 183.8458
1168.857, 184.3088
1169.339, 186.2887
1169.821, 189.1788
1170.303, 192.2528
1170.785, 193.7816
1171.268, 193.7013
1171.750, 191.4766
1172.232, 185.6182
1172.714, 181.1024
1173.196, 180.6853
1173.678, 181.5883
1174.160, 181.8628
1174.642, 182.0009
1175.125, 186.9469
1175.607, 195.4564
1176.089, 200.3733
1176.571, 194.3178
1177.053, 189.3200
1177.535, 192.6078
1178.017, 197.9676
1178.499, 199.9167
1178.981, 198.4945
1179.464, 195.1840
1179.946, 190.2384
1180.428, 187.1237
1180.910, 189.8803
1181.392, 193.0079
1181.874, 193.1438
1182.356, 192.0177
1182.838, 192.3808
1183.320, 194.2973
1183.803, 196.1155
1184.285, 197.7333
1184.767, 198.3295
1185.249, 196.0254
1185.731, 193.7082
1186.213, 194.1633
1186.695, 196.0839
1187.177, 195.3226
1187.660, 191.6031
1188.142, 189.5186
1188.624, 189.9074
1189.106, 191.3470
1189.588, 193.5534
1190.070, 195.4932
1190.552, 196.4303
1191.034, 196.3104
1191.516, 194.6294
1191.999, 191.0153
1192.481, 189.8764
1192.963, 193.1285
1193.445, 196.0515
1193.927, 193.0305
1194.409, 187.9056
1194.891, 183.5308
1195.373, 180.1232
1195.855, 183.5842
1196.338, 195.1810
1196.820, 202.4978
1197.302, 199.1245
1197.784, 192.6903
1198.266, 190.3802
1198.748, 190.5611
1199.230, 191.4212
1199.712, 192.8282
1200.195, 194.6214
1200.677, 197.1185
1201.159, 197.6557
1201.641, 193.4880
1202.123, 188.3036
1202.605, 185.8690
1203.087, 185.5111
1203.569, 186.1348
1204.052, 187.5989
1204.534, 190.1611
1205.016, 194.1060
1205.498, 197.5601
1205.980, 199.5102
1206.462, 200.0899
1206.944, 198.8134
1207.426, 196.4066
1207.908, 194.3976
1208.391, 192.0836
1208.873, 193.2164
1209.355, 198.8192
1209.837, 203.2479
1210.319, 199.5722
1210.801, 193.7454
1211.283, 192.5717
1211.765, 195.1717
1212.247, 198.0394
1212.730, 201.7111
1213.212, 202.4881
1213.694, 199.4748
1214.176, 195.9706
1214.658, 195.1269
1215.140, 195.5394
1215.622, 196.2974
1216.104, 196.9669
1216.587, 195.3874
1217.069, 190.2407
1217.551, 187.3124
1218.033, 187.7724
1218.515, 189.6419
1218.997, 191.0571
1219.479, 192.4353
1219.961, 194.7258
1220.443, 197.7534
1220.926, 198.5741
1221.408, 196.2101
1221.890, 195.4634
1222.372, 197.9548
1222.854, 200.6381
1223.336, 199.0247
1223.818, 196.0943
1224.300, 195.7567
1224.782, 198.5433
1225.265, 198.5505
1225.747, 194.9320
1226.229, 192.7034
1226.711, 193.9003
1227.193, 195.7202
1227.675, 194.9351
1228.157, 192.7285
1228.639, 190.1821
1229.122, 187.3103
1229.604, 185.9060
1230.086, 186.1749
1230.568, 186.5035
1231.050, 186.2906
1231.532, 185.8301
1232.014, 185.5331
1232.496, 185.1457
1232.979, 183.9163
1233.461, 181.4516
1233.943, 182.2240
1234.425, 186.6577
1234.907, 189.9471
1235.389, 189.2104
1235.871, 187.3637
1236.353, 187.8063
1236.835, 188.6117
1237.318, 186.4626
1237.800, 180.2771
1238.282, 180.1310
1238.764, 186.3965
1239.246, 190.9879
1239.728, 187.5962
1240.210, 182.9460
1240.692, 182.5514
1241.175, 184.4435
1241.657, 186.1671
1242.139, 187.9229
1242.621, 187.3796
1243.103, 184.5089
1243.585, 181.4077
1244.067, 178.6210
1244.549, 176.7845
1245.031, 176.4518
1245.514, 177.3197
1245.996, 179.2716
1246.478, 182.6211
1246.960, 182.7856
1247.442, 179.8512
1247.924, 177.0088
1248.406, 175.7301
1248.888, 175.7961
1249.370, 179.1217
1249.853, 182.4600
1250.335, 180.7206
1250.817, 174.1791
1251.299, 170.8078
1251.781, 170.8718
1252.263, 172.6563
1252.745, 177.5015
1253.227, 180.9843
1253.710, 180.4459
1254.192, 178.0398
1254.674, 176.1010
1255.156, 174.5977
1255.638, 173.3166
1256.120, 172.2435
1256.602, 171.3796
1257.084, 170.7258
1257.567, 170.3255
1258.049, 170.4063
1258.531, 170.4614
1259.013, 169.8877
1259.495, 168.6850
1259.977, 166.2238
1260.459, 162.7147
1260.941, 160.7799
1261.423, 164.4660
1261.906, 165.5669
1262.388, 160.5395
1262.870, 155.0671
1263.352, 159.1164
1263.834, 168.5223
1264.316, 173.9487
1264.798, 174.6600
1265.280, 173.7129
1265.762, 171.5168
1266.245, 168.0043
1266.727, 162.0333
1267.209, 157.3139
1267.691, 161.1988
1268.173, 168.7156
1268.655, 171.5617
1269.137, 169.2242
1269.619, 166.2375
1270.102, 162.2897
1270.584, 160.6405
1271.066, 162.6451
1271.548, 164.8835
1272.030, 161.6780
1272.512, 157.1559
1272.994, 156.4489
1273.476, 159.8291
1273.958, 163.1013
1274.441, 166.4656
1274.923, 167.9896
1275.405, 167.1825
1275.887, 164.6554
1276.369, 159.1349
1276.851, 153.6866
1277.333, 150.9845
1277.815, 151.1691
1278.297, 155.1547
1278.780, 163.2781
1279.262, 166.6308
1279.744, 162.3858
1280.226, 157.7883
1280.708, 159.6179
1281.190, 162.4395
1281.672, 162.2685
1282.154, 159.8320
1282.637, 157.2944
1283.119, 154.8048
1283.601, 154.1281
1284.083, 155.8763
1284.565, 157.5363
1285.047, 156.2603
1285.529, 156.2012
1286.011, 160.2923
1286.494, 166.2337
1286.976, 166.6898
1287.458, 163.3163
1287.940, 161.9829
1288.422, 164.2521
1288.904, 165.4381
1289.386, 161.8616
1289.868, 159.6639
1290.350, 161.3333
1290.833, 164.8264
1291.315, 167.0359
1291.797, 167.6920
1292.279, 165.3862
1292.761, 159.1877
1293.243, 156.5611
1293.725, 159.6194
1294.207, 162.4422
1294.689, 163.1034
1295.172, 162.6329
1295.654, 162.0022
1296.136, 161.4604
1296.618, 161.6057
1297.100, 162.6138
1297.582, 162.1009
1298.064, 159.7973
1298.546, 157.5346
1299.029, 155.6096
1299.511, 154.8078
1299.993, 157.0186
1300.475, 159.9761
1300.957, 161.5267
1301.439, 161.7320
1301.921, 161.1788
1302.403, 159.8841
1302.885, 158.3847
1303.368, 156.6949
1303.850, 155.3798
1304.332, 155.5583
1304.814, 155.4348
1305.296, 153.2522
1305.778, 150.2413
1306.260, 151.7848
##END=



