##NAMES=Grossular
##RRUFFID=R070551
##IDEAL CHEMISTRY=Ca_3_Al_2_(SiO_4_)_3_
##LOCALITY=Mali
##OWNER=RRUFF
##SOURCE=www.multicolour.com
##DESCRIPTION=Green gem fragments
##STATUS=The identification of this mineral has been confirmed by X-ray diffraction and chemical analysis
##URL=rruff.info/R070551
##MEASURED CHEMISTRY=(Ca_2.95_Mg_0.04_Mn_0.01_)_Σ=3_(Al_1.63_Fe^3+^_0.37_)_Σ=2_(Si_1.00_O_4_)_3_
123.7152, 556.9567
124.1973, 468.2400
124.6794, 457.5185
125.1615, 541.6506
125.6437, 615.0661
126.1258, 685.4109
126.6079, 738.4626
127.0900, 746.8068
127.5721, 703.4246
128.0542, 658.0996
128.5363, 677.4096
129.0185, 762.6899
129.5006, 831.4222
129.9827, 882.5588
130.4648, 903.8134
130.9469, 859.8680
131.4290, 726.4929
131.9112, 584.5833
132.3933, 541.8516
132.8754, 588.9312
133.3575, 643.3993
133.8396, 675.6238
134.3217, 693.7718
134.8039, 720.6649
135.2860, 769.9393
135.7681, 812.6760
136.2502, 805.1858
136.7323, 748.5763
137.2144, 713.3306
137.6966, 758.2227
138.1787, 864.2325
138.6608, 939.0068
139.1429, 951.5245
139.6250, 938.9193
140.1071, 940.9006
140.5893, 958.0467
141.0714, 969.3704
141.5535, 958.5694
142.0356, 926.3846
142.5177, 885.1415
142.9998, 805.7722
143.4819, 747.5273
143.9641, 766.9931
144.4462, 868.6877
144.9283, 982.1467
145.4104, 1037.878
145.8925, 1030.637
146.3746, 1030.375
146.8568, 1059.757
147.3389, 1094.928
147.8210, 1127.201
148.3031, 1154.668
148.7852, 1166.964
149.2673, 1133.769
149.7495, 1032.580
150.2316, 994.3175
150.7137, 1107.064
151.1958, 1249.817
151.6779, 1357.649
152.1600, 1408.884
152.6422, 1413.950
153.1243, 1375.929
153.6064, 1263.001
154.0885, 1211.613
154.5706, 1296.561
155.0527, 1405.063
155.5349, 1459.989
156.0170, 1441.469
156.4991, 1388.412
156.9812, 1359.082
157.4633, 1357.860
157.9454, 1370.954
158.4276, 1419.743
158.9097, 1465.748
159.3918, 1475.569
159.8739, 1439.939
160.3560, 1381.822
160.8382, 1342.218
161.3203, 1328.497
161.8024, 1320.300
162.2845, 1311.428
162.7666, 1308.296
163.2487, 1318.335
163.7309, 1343.556
164.2130, 1376.543
164.6951, 1404.366
165.1772, 1435.425
165.6593, 1445.727
166.1414, 1405.004
166.6235, 1361.310
167.1057, 1364.615
167.5878, 1430.763
168.0699, 1526.207
168.5520, 1579.575
169.0341, 1579.742
169.5162, 1550.386
169.9984, 1441.456
170.4805, 1331.238
170.9626, 1304.450
171.4447, 1390.504
171.9268, 1537.463
172.4089, 1631.481
172.8911, 1640.028
173.3732, 1634.938
173.8553, 1589.427
174.3374, 1545.208
174.8195, 1547.002
175.3016, 1611.026
175.7838, 1714.199
176.2659, 1805.383
176.7480, 1879.862
177.2301, 1946.734
177.7122, 1971.576
178.1943, 2003.529
178.6765, 2099.637
179.1586, 2280.730
179.6407, 2514.213
180.1228, 2729.816
180.6049, 3019.162
181.0870, 3166.242
181.5692, 3125.798
182.0513, 2964.198
182.5334, 2726.870
183.0155, 2431.837
183.4976, 2114.601
183.9797, 1849.413
184.4619, 1631.164
184.9440, 1481.148
185.4261, 1453.924
185.9082, 1472.108
186.3903, 1445.171
186.8724, 1342.641
187.3545, 1212.073
187.8367, 1150.690
188.3188, 1228.461
188.8009, 1279.262
189.2830, 1283.123
189.7651, 1266.130
190.2472, 1253.415
190.7294, 1253.276
191.2115, 1261.138
191.6936, 1269.979
192.1757, 1297.143
192.6578, 1295.203
193.1399, 1223.849
193.6221, 1141.095
194.1042, 1116.456
194.5863, 1168.980
195.0684, 1248.847
195.5505, 1271.478
196.0326, 1185.245
196.5148, 1133.012
196.9969, 1144.728
197.4790, 1176.956
197.9611, 1183.517
198.4432, 1153.048
198.9253, 1114.456
199.4075, 1111.444
199.8896, 1174.281
200.3717, 1211.735
200.8538, 1199.034
201.3359, 1174.207
201.8180, 1174.240
202.3002, 1206.567
202.7823, 1248.650
203.2644, 1270.885
203.7465, 1262.332
204.2286, 1258.911
204.7107, 1268.532
205.1928, 1278.325
205.6750, 1278.972
206.1571, 1268.484
206.6392, 1248.073
207.1213, 1217.166
207.6034, 1169.272
208.0855, 1134.505
208.5677, 1107.246
209.0498, 1095.837
209.5319, 1113.974
210.0140, 1159.910
210.4961, 1212.031
210.9782, 1248.415
211.4604, 1266.531
211.9425, 1276.453
212.4246, 1280.864
212.9067, 1276.002
213.3888, 1251.646
213.8709, 1211.507
214.3531, 1175.259
214.8352, 1160.111
215.3173, 1167.644
215.7994, 1193.505
216.2815, 1261.882
216.7636, 1325.069
217.2458, 1356.646
217.7279, 1358.142
218.2100, 1344.151
218.6921, 1323.745
219.1742, 1296.359
219.6563, 1282.824
220.1385, 1289.339
220.6206, 1300.787
221.1027, 1306.938
221.5848, 1311.826
222.0669, 1328.197
222.5490, 1366.265
223.0312, 1424.708
223.5133, 1480.700
223.9954, 1545.041
224.4775, 1596.482
224.9596, 1621.465
225.4417, 1628.662
225.9238, 1635.193
226.4060, 1650.910
226.8881, 1674.966
227.3702, 1701.804
227.8523, 1704.979
228.3344, 1740.616
228.8165, 1856.521
229.2987, 2005.865
229.7808, 2111.189
230.2629, 2131.496
230.7450, 2094.657
231.2271, 2099.675
231.7092, 2180.505
232.1914, 2265.684
232.6735, 2353.494
233.1556, 2441.437
233.6377, 2523.211
234.1198, 2596.356
234.6019, 2672.147
235.0841, 2778.329
235.5662, 2956.354
236.0483, 3110.307
236.5304, 3232.750
237.0125, 3334.100
237.4946, 3428.310
237.9768, 3517.803
238.4589, 3587.485
238.9410, 3605.994
239.4231, 3525.246
239.9052, 3481.148
240.3873, 3470.510
240.8695, 3492.348
241.3516, 3553.893
241.8337, 3652.377
242.3158, 3769.009
242.7979, 3875.600
243.2800, 3950.849
243.7622, 4085.278
244.2443, 4334.488
244.7264, 4586.954
245.2085, 4817.141
245.6906, 5002.777
246.1727, 5106.913
246.6548, 5091.369
247.1370, 4950.360
247.6191, 4730.612
248.1012, 4357.727
248.5833, 3976.756
249.0654, 3615.583
249.5475, 3285.985
250.0297, 3001.435
250.5118, 2773.412
250.9939, 2599.881
251.4760, 2460.700
251.9581, 2379.858
252.4402, 2309.422
252.9224, 2232.903
253.4045, 2158.471
253.8866, 2102.157
254.3687, 2075.866
254.8508, 2071.136
255.3329, 2055.106
255.8151, 2017.766
256.2972, 1985.003
256.7793, 1952.502
257.2614, 1931.218
257.7435, 1937.990
258.2256, 1982.747
258.7078, 2045.841
259.1899, 2091.495
259.6720, 2119.462
260.1541, 2129.144
260.6362, 2086.350
261.1183, 2045.201
261.6005, 2056.614
262.0826, 2134.648
262.5647, 2236.005
263.0468, 2311.902
263.5289, 2360.744
264.0110, 2394.407
264.4932, 2408.659
264.9753, 2412.045
265.4574, 2412.744
265.9395, 2410.836
266.4216, 2394.705
266.9037, 2335.679
267.3859, 2241.139
267.8680, 2196.025
268.3501, 2236.386
268.8322, 2299.279
269.3143, 2331.373
269.7964, 2339.340
270.2786, 2361.022
270.7607, 2422.794
271.2428, 2513.598
271.7249, 2600.996
272.2070, 2675.514
272.6891, 2764.231
273.1713, 2883.009
273.6534, 3029.360
274.1355, 3207.065
274.6176, 3455.809
275.0997, 3717.387
275.5818, 3926.088
276.0640, 4084.221
276.5461, 4175.397
277.0282, 4189.434
277.5103, 4122.825
277.9924, 3976.419
278.4745, 3693.216
278.9566, 3390.015
279.4388, 3153.494
279.9209, 2974.397
280.4030, 2799.035
280.8851, 2595.406
281.3672, 2387.378
281.8493, 2233.644
282.3315, 2143.420
282.8136, 2078.477
283.2957, 2037.922
283.7778, 2010.981
284.2599, 1972.595
284.7420, 1911.347
285.2242, 1849.465
285.7063, 1827.360
286.1884, 1858.924
286.6705, 1883.382
287.1526, 1900.174
287.6347, 1902.639
288.1169, 1873.207
288.5990, 1811.395
289.0811, 1751.468
289.5632, 1732.689
290.0453, 1767.304
290.5274, 1787.975
291.0096, 1799.259
291.4917, 1794.230
291.9738, 1755.277
292.4559, 1692.444
292.9380, 1641.466
293.4201, 1633.473
293.9023, 1666.189
294.3844, 1664.830
294.8665, 1584.361
295.3486, 1521.167
295.8307, 1511.420
296.3128, 1533.170
296.7950, 1546.511
297.2771, 1529.497
297.7592, 1497.971
298.2413, 1504.196
298.7234, 1588.902
299.2055, 1651.824
299.6877, 1680.207
300.1698, 1686.786
300.6519, 1675.788
301.1340, 1650.446
301.6161, 1625.072
302.0982, 1618.828
302.5804, 1630.986
303.0625, 1665.374
303.5446, 1759.346
304.0267, 1845.455
304.5088, 1878.272
304.9909, 1863.075
305.4731, 1845.201
305.9552, 1873.957
306.4373, 1946.609
306.9194, 1982.156
307.4015, 1947.995
307.8836, 1920.230
308.3658, 1944.378
308.8479, 2001.052
309.3300, 2049.435
309.8121, 2070.842
310.2942, 2070.444
310.7763, 2049.363
311.2585, 1996.516
311.7406, 1965.587
312.2227, 1999.132
312.7048, 2065.073
313.1869, 2126.214
313.6690, 2175.092
314.1512, 2219.051
314.6333, 2260.893
315.1154, 2301.688
315.5975, 2352.839
316.0796, 2428.875
316.5617, 2504.645
317.0439, 2537.885
317.5260, 2519.775
318.0081, 2512.486
318.4902, 2556.263
318.9723, 2622.003
319.4544, 2647.456
319.9365, 2614.843
320.4186, 2594.014
320.9008, 2671.119
321.3829, 2861.674
321.8650, 3015.727
322.3471, 3101.979
322.8292, 3168.937
323.3113, 3251.880
323.7935, 3348.891
324.2756, 3436.688
324.7577, 3495.407
325.2398, 3529.377
325.7219, 3587.644
326.2040, 3696.796
326.6862, 3796.167
327.1683, 3877.193
327.6504, 3936.987
328.1325, 3971.768
328.6146, 3979.721
329.0967, 3964.567
329.5789, 3932.419
330.0610, 3868.450
330.5431, 3812.292
331.0252, 3769.187
331.5073, 3730.497
331.9894, 3681.406
332.4716, 3624.370
332.9537, 3583.887
333.4358, 3589.592
333.9179, 3646.555
334.4000, 3708.429
334.8821, 3780.568
335.3643, 3852.944
335.8464, 3914.990
336.3285, 3974.086
336.8106, 4048.504
337.2927, 4158.694
337.7748, 4285.662
338.2570, 4364.454
338.7391, 4364.028
339.2212, 4399.469
339.7033, 4553.860
340.1854, 4754.552
340.6675, 4928.549
341.1497, 5058.105
341.6318, 5163.067
342.1139, 5252.478
342.5960, 5328.797
343.0781, 5419.532
343.5602, 5534.412
344.0424, 5662.869
344.5245, 5796.831
345.0066, 5937.992
345.4887, 6062.308
345.9708, 6163.357
346.4529, 6241.226
346.9351, 6293.223
347.4172, 6318.629
347.8993, 6327.644
348.3814, 6320.725
348.8635, 6299.349
349.3456, 6310.392
349.8278, 6399.593
350.3099, 6476.014
350.7920, 6485.666
351.2741, 6444.986
351.7562, 6397.240
352.2383, 6364.147
352.7205, 6340.172
353.2026, 6308.503
353.6847, 6278.264
354.1668, 6226.922
354.6489, 6135.243
355.1310, 6033.093
355.6132, 5934.848
356.0953, 5849.600
356.5774, 5797.759
357.0595, 5813.189
357.5416, 5913.590
358.0237, 5994.393
358.5059, 6012.991
358.9880, 6052.037
359.4701, 6139.586
359.9522, 6272.746
360.4343, 6437.047
360.9164, 6619.998
361.3985, 6830.553
361.8806, 7096.603
362.3628, 7427.469
362.8449, 7790.970
363.3270, 8182.507
363.8091, 8597.303
364.2912, 9040.438
364.7733, 9520.329
365.2555, 9995.928
365.7376, 10445.70
366.2197, 10866.29
366.7018, 11233.68
367.1839, 11534.80
367.6660, 11793.54
368.1482, 12020.34
368.6303, 12218.42
369.1124, 12439.83
369.5945, 12659.76
370.0766, 12932.11
370.5587, 13308.34
371.0409, 13792.56
371.5230, 14386.99
372.0051, 15125.85
372.4872, 15982.18
372.9693, 16740.75
373.4514, 17480.81
373.9336, 18051.04
374.4157, 18436.12
374.8978, 18617.02
375.3799, 18571.38
375.8620, 18290.87
376.3441, 17786.01
376.8263, 17067.12
377.3084, 16035.31
377.7905, 14976.18
378.2726, 13817.89
378.7547, 12694.70
379.2368, 11668.19
379.7190, 10743.62
380.2011, 9902.384
380.6832, 9142.371
381.1653, 8456.128
381.6474, 7781.890
382.1295, 7065.678
382.6117, 6454.550
383.0938, 6035.243
383.5759, 5720.854
384.0580, 5405.413
384.5401, 5048.694
385.0222, 4594.642
385.5044, 4579.494
385.9865, 4504.705
386.4686, 4373.463
386.9507, 4016.637
387.4328, 3951.103
387.9149, 3768.835
388.3971, 3581.742
388.8792, 3557.193
389.3613, 3233.184
389.8434, 3206.057
390.3255, 3060.425
390.8076, 2969.034
391.2898, 2824.009
391.7719, 2777.940
392.2540, 2751.250
392.7361, 2725.896
393.2182, 2711.521
393.7003, 2687.245
394.1825, 2635.394
394.6646, 2573.968
395.1467, 2526.977
395.6288, 2502.874
396.1109, 2495.496
396.5930, 2498.782
397.0752, 2527.507
397.5573, 2526.369
398.0394, 2439.619
398.5215, 2377.027
399.0036, 2425.625
399.4857, 2549.505
399.9679, 2637.839
400.4500, 2601.238
400.9321, 2480.422
401.4142, 2435.875
401.8963, 2506.050
402.3784, 2560.285
402.8605, 2525.967
403.3427, 2467.767
403.8248, 2449.776
404.3069, 2487.777
404.7890, 2540.718
405.2711, 2582.455
405.7532, 2612.823
406.2354, 2624.419
406.7175, 2605.517
407.1996, 2596.839
407.6817, 2651.046
408.1638, 2761.525
408.6459, 2851.612
409.1281, 2892.387
409.6102, 2925.679
410.0923, 2995.671
410.5744, 3086.708
411.0565, 3144.370
411.5386, 3139.133
412.0208, 3085.586
412.5029, 3025.420
412.9850, 2963.235
413.4671, 2886.953
413.9492, 2785.829
414.4313, 2677.493
414.9135, 2567.111
415.3956, 2460.709
415.8777, 2377.621
416.3598, 2345.972
416.8419, 2364.724
417.3240, 2339.502
417.8062, 2219.207
418.2883, 2125.565
418.7704, 2117.977
419.2525, 2153.127
419.7346, 2172.200
420.2167, 2153.956
420.6989, 2116.596
421.1810, 2072.790
421.6631, 2023.753
422.1452, 1995.116
422.6273, 2002.380
423.1094, 2018.721
423.5916, 2012.463
424.0737, 1985.164
424.5558, 1960.274
425.0379, 1937.873
425.5200, 1924.782
426.0021, 1933.633
426.4843, 1960.930
426.9664, 1987.358
427.4485, 2002.482
427.9306, 2006.003
428.4127, 1996.104
428.8948, 1949.363
429.3770, 1919.590
429.8591, 1938.346
430.3412, 1960.766
430.8233, 1932.024
431.3054, 1849.161
431.7875, 1766.267
432.2697, 1743.588
432.7518, 1784.331
433.2339, 1822.529
433.7160, 1863.114
434.1981, 1893.942
434.6802, 1898.094
435.1624, 1893.859
435.6445, 1914.832
436.1266, 1983.794
436.6087, 2051.634
437.0908, 2052.255
437.5729, 1990.602
438.0551, 1931.779
438.5372, 1887.875
439.0193, 1858.952
439.5014, 1852.587
439.9835, 1867.675
440.4656, 1872.513
440.9478, 1848.756
441.4299, 1820.453
441.9120, 1812.939
442.3941, 1821.844
442.8762, 1820.867
443.3583, 1792.031
443.8404, 1747.344
444.3225, 1728.725
444.8047, 1748.162
445.2868, 1780.496
445.7689, 1862.259
446.2510, 1931.261
446.7331, 1917.706
447.2152, 1826.649
447.6974, 1738.590
448.1795, 1734.413
448.6616, 1806.011
449.1437, 1848.974
449.6258, 1856.831
450.1079, 1846.791
450.5901, 1809.121
451.0722, 1765.025
451.5543, 1744.839
452.0364, 1761.930
452.5185, 1781.466
453.0006, 1768.690
453.4828, 1734.357
453.9649, 1721.413
454.4470, 1745.579
454.9291, 1762.097
455.4112, 1711.857
455.8933, 1588.794
456.3755, 1528.845
456.8576, 1583.682
457.3397, 1652.964
457.8218, 1691.762
458.3039, 1705.610
458.7860, 1709.103
459.2682, 1708.666
459.7503, 1704.304
460.2324, 1692.714
460.7145, 1658.558
461.1966, 1654.260
461.6787, 1720.420
462.1609, 1779.624
462.6430, 1784.214
463.1251, 1746.736
463.6072, 1712.305
464.0893, 1710.023
464.5714, 1725.969
465.0536, 1734.118
465.5357, 1734.990
466.0178, 1722.793
466.4999, 1688.632
466.9820, 1645.423
467.4641, 1604.198
467.9463, 1559.226
468.4284, 1549.137
468.9105, 1623.806
469.3926, 1719.332
469.8747, 1757.958
470.3568, 1738.367
470.8390, 1713.178
471.3211, 1720.831
471.8032, 1753.583
472.2853, 1764.269
472.7674, 1704.273
473.2495, 1682.718
473.7317, 1749.997
474.2138, 1833.450
474.6959, 1858.689
475.1780, 1818.465
475.6601, 1770.595
476.1422, 1781.881
476.6244, 1843.818
477.1065, 1856.106
477.5886, 1795.837
478.0707, 1733.818
478.5528, 1703.487
479.0349, 1693.392
479.5171, 1692.818
479.9992, 1705.387
480.4813, 1712.965
480.9634, 1696.082
481.4455, 1667.244
481.9276, 1652.684
482.4098, 1657.963
482.8918, 1673.001
483.3740, 1689.495
483.8561, 1707.544
484.3382, 1723.037
484.8203, 1733.341
485.3024, 1744.521
485.7845, 1762.466
486.2667, 1780.870
486.7488, 1785.676
487.2309, 1773.439
487.7130, 1765.984
488.1951, 1803.774
488.6772, 1894.717
489.1594, 1944.313
489.6415, 1915.524
490.1236, 1890.328
490.6057, 1920.455
491.0878, 1984.276
491.5699, 2037.425
492.0521, 2064.220
492.5342, 2080.900
493.0163, 2101.665
493.4984, 2124.282
493.9805, 2139.204
494.4626, 2142.021
494.9448, 2145.793
495.4269, 2168.009
495.9090, 2213.620
496.3911, 2249.563
496.8732, 2263.626
497.3553, 2281.606
497.8375, 2333.377
498.3196, 2393.065
498.8017, 2405.775
499.2838, 2347.628
499.7659, 2270.897
500.2480, 2271.188
500.7302, 2364.656
501.2123, 2438.840
501.6944, 2474.549
502.1765, 2499.665
502.6586, 2537.561
503.1407, 2579.021
503.6229, 2595.965
504.1050, 2545.260
504.5871, 2503.048
505.0692, 2566.493
505.5513, 2705.752
506.0334, 2805.464
506.5156, 2826.528
506.9977, 2808.181
507.4798, 2801.933
507.9619, 2812.237
508.4440, 2817.212
508.9261, 2798.572
509.4083, 2793.393
509.8904, 2829.375
510.3725, 2889.106
510.8546, 2943.792
511.3367, 2980.980
511.8188, 2998.779
512.3010, 2985.795
512.7831, 2935.494
513.2652, 2905.932
513.7473, 2908.762
514.2294, 2927.893
514.7115, 2957.536
515.1937, 2993.978
515.6758, 3025.193
516.1579, 3043.789
516.6400, 3059.555
517.1221, 3078.034
517.6042, 3099.794
518.0864, 3128.818
518.5685, 3166.941
519.0506, 3205.791
519.5327, 3233.829
520.0148, 3248.530
520.4969, 3263.685
520.9791, 3300.514
521.4612, 3315.125
521.9433, 3261.246
522.4254, 3182.729
522.9075, 3157.241
523.3896, 3218.788
523.8718, 3297.687
524.3539, 3289.382
524.8360, 3196.485
525.3181, 3129.493
525.8002, 3107.737
526.2823, 3101.721
526.7645, 3101.693
527.2466, 3100.743
527.7287, 3075.011
528.2108, 2981.739
528.6929, 2906.147
529.1750, 2912.452
529.6572, 2960.681
530.1393, 2978.154
530.6214, 2947.314
531.1035, 2907.837
531.5856, 2905.352
532.0677, 2942.628
532.5499, 2981.661
533.0320, 3032.294
533.5141, 3072.662
533.9962, 3094.545
534.4783, 3104.873
534.9604, 3100.978
535.4426, 3080.847
535.9247, 3089.064
536.4068, 3179.475
536.8889, 3330.535
537.3710, 3475.272
537.8531, 3605.495
538.3353, 3735.781
538.8174, 3868.301
539.2995, 4008.883
539.7816, 4181.191
540.2637, 4409.839
540.7458, 4634.225
541.2280, 4835.570
541.7101, 5030.809
542.1922, 5256.174
542.6743, 5501.296
543.1564, 5703.500
543.6385, 5816.989
544.1207, 5841.076
544.6027, 5773.816
545.0848, 5612.651
545.5670, 5366.074
546.0491, 4969.885
546.5312, 4527.902
547.0133, 4128.572
547.4954, 3777.118
547.9775, 3450.317
548.4597, 3131.663
548.9418, 2835.943
549.4239, 2583.098
549.9060, 2370.724
550.3881, 2185.277
550.8702, 2017.704
551.3524, 1877.234
551.8345, 1788.702
552.3166, 1784.581
552.7987, 1768.308
553.2808, 1730.967
553.7629, 1691.750
554.2451, 1657.631
554.7272, 1629.841
555.2093, 1610.131
555.6914, 1602.412
556.1735, 1595.568
556.6556, 1572.071
557.1378, 1533.479
557.6199, 1491.729
558.1020, 1442.394
558.5841, 1409.845
559.0662, 1427.473
559.5483, 1496.032
560.0305, 1537.953
560.5126, 1552.744
560.9947, 1540.315
561.4768, 1469.568
561.9589, 1384.154
562.4410, 1347.996
562.9232, 1375.576
563.4053, 1423.468
563.8874, 1442.842
564.3695, 1434.842
564.8516, 1439.995
565.3337, 1468.514
565.8159, 1488.811
566.2980, 1478.115
566.7801, 1455.329
567.2622, 1441.923
567.7443, 1440.264
568.2264, 1446.653
568.7086, 1461.326
569.1907, 1482.072
569.6728, 1512.262
570.1549, 1548.228
570.6370, 1568.822
571.1191, 1557.807
571.6013, 1530.642
572.0834, 1541.683
572.5655, 1641.005
573.0476, 1676.016
573.5297, 1568.786
574.0118, 1459.780
574.4940, 1432.178
574.9761, 1471.093
575.4582, 1516.958
575.9403, 1550.730
576.4224, 1567.192
576.9045, 1543.010
577.3867, 1491.360
577.8688, 1477.928
578.3509, 1524.800
578.8330, 1586.908
579.3151, 1617.689
579.7972, 1615.348
580.2794, 1600.746
580.7615, 1548.645
581.2436, 1516.082
581.7257, 1534.732
582.2078, 1572.715
582.6899, 1595.935
583.1721, 1595.484
583.6542, 1579.406
584.1363, 1551.913
584.6184, 1514.653
585.1005, 1470.992
585.5826, 1417.585
586.0648, 1379.218
586.5469, 1368.073
587.0290, 1378.452
587.5111, 1402.793
587.9932, 1448.980
588.4753, 1481.518
588.9575, 1493.580
589.4396, 1491.335
589.9217, 1468.431
590.4038, 1435.280
590.8859, 1418.226
591.3680, 1432.199
591.8502, 1454.717
592.3323, 1442.072
592.8144, 1390.439
593.2965, 1342.678
593.7786, 1297.651
594.2607, 1265.759
594.7429, 1265.254
595.2250, 1282.886
595.7071, 1284.875
596.1892, 1245.459
596.6713, 1221.309
597.1534, 1256.176
597.6356, 1313.091
598.1177, 1340.469
598.5998, 1332.756
599.0819, 1319.213
599.5640, 1324.740
600.0461, 1343.857
600.5283, 1344.934
601.0104, 1314.272
601.4925, 1298.942
601.9746, 1315.533
602.4567, 1346.239
602.9388, 1387.732
603.4210, 1435.892
603.9031, 1464.787
604.3852, 1454.872
604.8673, 1430.621
605.3494, 1402.486
605.8315, 1377.427
606.3137, 1380.633
606.7958, 1419.700
607.2779, 1455.782
607.7600, 1435.852
608.2421, 1354.121
608.7242, 1292.416
609.2064, 1238.778
609.6885, 1223.733
610.1706, 1294.026
610.6527, 1382.803
611.1348, 1412.727
611.6169, 1370.469
612.0991, 1319.334
612.5812, 1291.143
613.0633, 1280.111
613.5454, 1282.448
614.0275, 1295.943
614.5096, 1312.019
614.9918, 1327.769
615.4739, 1339.357
615.9560, 1338.396
616.4381, 1318.742
616.9202, 1304.348
617.4023, 1295.031
617.8845, 1291.031
618.3666, 1288.419
618.8487, 1292.463
619.3308, 1314.985
619.8129, 1362.907
620.2950, 1410.024
620.7772, 1433.856
621.2593, 1441.530
621.7414, 1443.893
622.2235, 1442.885
622.7056, 1450.563
623.1877, 1476.335
623.6699, 1513.809
624.1520, 1543.627
624.6341, 1579.405
625.1162, 1582.623
625.5983, 1518.461
626.0804, 1457.137
626.5626, 1448.279
627.0446, 1473.055
627.5267, 1481.432
628.0089, 1449.298
628.4910, 1402.306
628.9731, 1367.347
629.4552, 1339.044
629.9373, 1298.972
630.4194, 1243.639
630.9016, 1186.023
631.3837, 1133.899
631.8658, 1089.283
632.3479, 1065.695
632.8300, 1096.591
633.3121, 1099.614
633.7943, 1053.511
634.2764, 992.0650
634.7585, 929.1923
635.2406, 871.5118
635.7227, 831.9847
636.2048, 825.2460
636.6870, 827.8972
637.1691, 798.4351
637.6512, 752.3141
638.1333, 759.3679
638.6154, 839.8297
639.0975, 920.4716
639.5797, 930.7367
640.0618, 874.7565
640.5439, 828.7106
641.0260, 796.4515
641.5081, 769.5313
641.9902, 743.6749
642.4724, 725.1559
642.9545, 722.0239
643.4366, 732.2867
643.9187, 743.7259
644.4008, 754.7752
644.8829, 758.7867
645.3651, 746.5361
645.8472, 719.8141
646.3293, 675.8757
646.8114, 611.6638
647.2935, 569.3372
647.7756, 603.1068
648.2578, 713.2244
648.7399, 766.7621
649.2220, 705.6900
649.7041, 667.5243
650.1862, 701.8876
650.6683, 748.5181
651.1505, 751.6948
651.6326, 710.4310
652.1147, 667.2858
652.5968, 643.8596
653.0789, 630.2621
653.5610, 613.4281
654.0432, 596.5110
654.5253, 591.3836
655.0074, 601.7009
655.4895, 618.7450
655.9716, 634.5247
656.4537, 649.2070
656.9359, 646.5832
657.4180, 600.7127
657.9001, 578.8652
658.3822, 623.1569
658.8643, 677.3770
659.3464, 690.5673
659.8286, 660.8397
660.3107, 625.1277
660.7928, 588.8781
661.2749, 563.1562
661.7570, 559.6104
662.2391, 574.7456
662.7213, 608.0547
663.2034, 657.9854
663.6855, 694.3754
664.1676, 676.0634
664.6497, 606.1625
665.1318, 584.5640
665.6140, 640.9561
666.0961, 684.9343
666.5782, 690.0069
667.0603, 671.2882
667.5424, 629.3619
668.0245, 566.6047
668.5067, 530.2720
668.9888, 552.7675
669.4709, 589.3382
669.9530, 619.1628
670.4351, 638.1088
670.9172, 635.3271
671.3994, 610.3857
671.8815, 583.9701
672.3636, 577.2264
672.8457, 588.0206
673.3278, 605.2013
673.8099, 633.3644
674.2921, 649.3146
674.7742, 639.1892
675.2563, 621.1135
675.7384, 617.5948
676.2205, 627.9865
676.7026, 632.0623
677.1848, 628.8738
677.6669, 617.0238
678.1490, 574.3899
678.6311, 533.2000
679.1132, 553.0240
679.5953, 633.4227
680.0775, 693.3188
680.5596, 644.8989
681.0417, 535.7972
681.5238, 511.3417
682.0059, 573.9966
682.4880, 624.2112
682.9702, 633.5626
683.4523, 621.4944
683.9344, 603.1375
684.4165, 577.4048
684.8986, 575.2557
685.3807, 630.7485
685.8629, 664.3228
686.3450, 640.3091
686.8271, 598.4469
687.3092, 572.6653
687.7913, 567.2727
688.2734, 573.8411
688.7556, 600.5336
689.2377, 621.8382
689.7198, 579.7732
690.2019, 497.3978
690.6840, 475.2563
691.1661, 540.0776
691.6483, 626.1943
692.1304, 678.2808
692.6125, 696.2059
693.0946, 674.6644
693.5767, 570.1326
694.0588, 501.8513
694.5410, 500.3537
695.0231, 525.9801
695.5052, 562.6734
695.9873, 605.0885
696.4694, 641.0411
696.9515, 665.0502
697.4337, 683.3326
697.9158, 702.1747
698.3979, 717.3129
698.8800, 720.6290
699.3621, 712.0931
699.8442, 698.6530
700.3264, 684.6122
700.8085, 671.1085
701.2906, 659.9463
701.7727, 649.3212
702.2548, 654.3391
702.7369, 690.5091
703.2191, 719.9465
703.7012, 702.2897
704.1833, 656.1534
704.6654, 643.5291
705.1475, 696.7794
705.6296, 732.3729
706.1118, 711.8372
706.5939, 680.8612
707.0760, 675.9313
707.5581, 693.3101
708.0402, 717.3249
708.5223, 743.0346
709.0044, 754.0049
709.4865, 707.3427
709.9686, 624.0732
710.4507, 610.4072
710.9329, 680.9388
711.4150, 737.3383
711.8971, 722.7171
712.3792, 658.2854
712.8613, 588.2097
713.3434, 475.0147
713.8256, 447.4381
714.3077, 608.7512
714.7898, 737.9433
715.2719, 723.3951
715.7540, 636.4285
716.2361, 583.8281
716.7183, 589.9007
717.2004, 609.1910
717.6825, 635.2166
718.1646, 646.6294
718.6467, 594.5551
719.1288, 505.1337
719.6110, 465.8059
720.0931, 508.8865
720.5752, 581.2132
721.0573, 612.0361
721.5394, 603.0916
722.0215, 611.5508
722.5037, 644.4980
722.9858, 673.1505
723.4679, 691.3536
723.9500, 697.4558
724.4321, 680.5016
724.9142, 639.6130
725.3964, 622.6115
725.8785, 657.4061
726.3606, 689.1365
726.8427, 695.9481
727.3248, 688.6937
727.8069, 676.2898
728.2891, 662.5676
728.7712, 654.6290
729.2533, 664.9009
729.7354, 674.9380
730.2175, 640.5164
730.6996, 576.5361
731.1818, 559.2056
731.6639, 606.7136
732.1460, 663.2587
732.6281, 681.9036
733.1102, 668.7742
733.5923, 659.6831
734.0745, 669.2715
734.5566, 650.3750
735.0387, 534.6291
735.5208, 452.3527
736.0029, 524.2827
736.4850, 683.2006
736.9672, 751.3171
737.4493, 647.1564
737.9314, 553.1933
738.4135, 555.4335
738.8956, 602.6949
739.3777, 658.1453
739.8599, 711.6562
740.3420, 753.4459
740.8241, 778.6231
741.3062, 791.5846
741.7883, 799.4354
742.2704, 800.8920
742.7526, 784.0627
743.2347, 746.1139
743.7168, 710.9411
744.1989, 686.0579
744.6810, 677.3658
745.1631, 701.7252
745.6453, 781.2189
746.1274, 803.5789
746.6095, 704.8480
747.0916, 627.0145
747.5737, 615.9287
748.0558, 639.8228
748.5380, 672.3911
749.0201, 707.9156
749.5022, 731.1746
749.9843, 725.0912
750.4664, 713.1968
750.9485, 724.2304
751.4307, 740.8255
751.9128, 719.2682
752.3949, 657.5344
752.8770, 609.5693
753.3591, 625.8591
753.8412, 682.5993
754.3234, 712.3257
754.8055, 714.3214
755.2876, 696.4533
755.7697, 644.4802
756.2518, 622.4047
756.7339, 699.6760
757.2161, 846.4757
757.6982, 919.6139
758.1803, 861.7728
758.6624, 811.5204
759.1445, 765.5176
759.6266, 732.3526
760.1088, 716.2682
760.5909, 716.7462
761.0730, 736.1547
761.5551, 779.1580
762.0372, 817.3392
762.5193, 828.8174
763.0015, 828.6158
763.4836, 836.8783
763.9657, 849.8466
764.4478, 850.4708
764.9299, 832.4630
765.4120, 809.2970
765.8942, 796.4393
766.3763, 793.4805
766.8584, 798.4001
767.3405, 812.2776
767.8226, 825.0900
768.3047, 829.6731
768.7869, 840.5408
769.2690, 883.0868
769.7511, 959.3340
770.2332, 987.9123
770.7153, 915.4526
771.1974, 868.3669
771.6796, 883.4731
772.1617, 915.4857
772.6438, 930.6921
773.1259, 930.9649
773.6080, 934.4587
774.0901, 947.7856
774.5723, 965.9092
775.0544, 992.6525
775.5365, 1018.188
776.0186, 1031.418
776.5007, 1030.608
776.9828, 1011.422
777.4650, 970.0211
777.9471, 928.7111
778.4292, 929.3538
778.9113, 966.0613
779.3934, 979.3721
779.8755, 962.4376
780.3577, 961.9048
780.8398, 1007.953
781.3219, 1062.519
781.8040, 1062.640
782.2861, 996.6171
782.7682, 949.3436
783.2504, 930.6760
783.7325, 918.6906
784.2146, 903.5029
784.6967, 896.5899
785.1788, 915.3470
785.6609, 956.2665
786.1431, 986.2689
786.6252, 997.6295
787.1073, 992.1516
787.5894, 938.9467
788.0715, 888.6210
788.5536, 924.3974
789.0358, 1029.555
789.5179, 1103.922
790.0000, 1083.124
790.4821, 1030.694
790.9642, 1048.339
791.4463, 1113.700
791.9284, 1127.002
792.4105, 1080.170
792.8926, 1051.494
793.3748, 1084.408
793.8569, 1146.848
794.3390, 1181.433
794.8211, 1184.430
795.3032, 1182.580
795.7853, 1165.144
796.2675, 1163.314
796.7496, 1202.290
797.2317, 1251.354
797.7138, 1266.539
798.1959, 1248.304
798.6780, 1264.466
799.1602, 1366.988
799.6423, 1451.220
800.1244, 1467.392
800.6065, 1458.269
801.0886, 1457.083
801.5707, 1471.021
802.0529, 1502.418
802.5350, 1554.062
803.0171, 1619.153
803.4992, 1699.161
803.9813, 1784.839
804.4634, 1860.709
804.9456, 1925.219
805.4277, 1975.952
805.9098, 2011.243
806.3919, 2044.415
806.8740, 2095.908
807.3561, 2165.666
807.8383, 2240.451
808.3204, 2317.623
808.8025, 2420.509
809.2846, 2568.951
809.7667, 2723.065
810.2488, 2826.271
810.7310, 2875.677
811.2131, 2948.773
811.6952, 3062.087
812.1773, 3175.628
812.6594, 3258.537
813.1415, 3360.541
813.6237, 3538.046
814.1058, 3766.788
814.5879, 3959.269
815.0700, 4066.637
815.5521, 4188.949
816.0342, 4379.281
816.5164, 4594.008
816.9985, 4801.582
817.4806, 4999.495
817.9627, 5193.484
818.4448, 5384.914
818.9269, 5571.944
819.4091, 5764.228
819.8912, 5946.296
820.3733, 6092.733
820.8554, 6202.860
821.3375, 6272.166
821.8196, 6299.870
822.3018, 6318.011
822.7839, 6366.095
823.2660, 6428.647
823.7481, 6423.649
824.2302, 6347.322
824.7123, 6216.973
825.1945, 6010.495
825.6766, 5810.793
826.1587, 5691.456
826.6408, 5622.325
827.1229, 5495.054
827.6050, 5259.582
828.0872, 5058.280
828.5693, 4917.063
829.0514, 4778.701
829.5335, 4607.937
830.0156, 4432.526
830.4977, 4297.896
830.9799, 4212.566
831.4620, 4118.517
831.9441, 3969.766
832.4262, 3834.197
832.9083, 3772.249
833.3904, 3738.865
833.8726, 3677.019
834.3547, 3577.781
834.8368, 3452.950
835.3189, 3292.681
835.8010, 3148.959
836.2831, 3097.978
836.7653, 3111.169
837.2474, 3132.996
837.7295, 3151.035
838.2116, 3133.002
838.6937, 3059.220
839.1758, 2969.013
839.6580, 2934.689
840.1401, 2954.672
840.6222, 2936.593
841.1043, 2872.489
841.5864, 2818.671
842.0685, 2792.974
842.5507, 2790.086
843.0328, 2813.274
843.5149, 2860.462
843.9970, 2855.133
844.4791, 2742.269
844.9612, 2671.190
845.4434, 2687.121
845.9255, 2724.786
846.4076, 2759.502
846.8897, 2785.266
847.3718, 2784.967
847.8539, 2738.085
848.3361, 2715.700
848.8182, 2770.665
849.3003, 2818.492
849.7824, 2786.751
850.2645, 2722.584
850.7466, 2707.600
851.2288, 2754.129
851.7109, 2790.080
852.1930, 2757.868
852.6751, 2707.074
853.1572, 2681.430
853.6393, 2672.761
854.1215, 2663.546
854.6036, 2653.936
855.0857, 2660.538
855.5678, 2694.817
856.0499, 2745.551
856.5320, 2796.416
857.0142, 2848.500
857.4963, 2915.115
857.9784, 2995.235
858.4605, 3038.140
858.9426, 3013.917
859.4247, 2994.108
859.9069, 3085.339
860.3890, 3282.754
860.8711, 3451.381
861.3532, 3592.993
861.8353, 3692.970
862.3174, 3721.612
862.7996, 3756.708
863.2817, 3862.344
863.7638, 4030.893
864.2459, 4224.803
864.7280, 4469.977
865.2101, 4696.664
865.6923, 4870.204
866.1744, 5064.225
866.6565, 5335.048
867.1386, 5635.394
867.6207, 5882.195
868.1028, 6059.523
868.5850, 6289.101
869.0671, 6618.476
869.5492, 6988.455
870.0313, 7388.401
870.5134, 7804.862
870.9955, 8223.026
871.4777, 8641.892
871.9598, 9061.409
872.4419, 9486.142
872.9240, 9904.490
873.4061, 10305.42
873.8882, 10696.04
874.3703, 11096.84
874.8524, 11496.36
875.3345, 11865.72
875.8167, 12191.69
876.2988, 12462.59
876.7809, 12673.39
877.2630, 12816.92
877.7451, 12877.20
878.2272, 12855.18
878.7094, 12754.33
879.1915, 12575.51
879.6736, 12312.59
880.1557, 11953.22
880.6378, 11527.61
881.1199, 11120.84
881.6021, 10734.95
882.0842, 10288.12
882.5663, 9764.936
883.0484, 9223.246
883.5305, 8679.128
884.0126, 8150.677
884.4948, 7663.070
884.9769, 7215.482
885.4590, 6809.036
885.9411, 6470.489
886.4232, 6118.563
886.9053, 5715.482
887.3875, 5318.593
887.8696, 4957.821
888.3517, 4638.966
888.8338, 4382.402
889.3159, 4230.126
889.7980, 4060.990
890.2802, 3828.900
890.7623, 3619.874
891.2444, 3494.273
891.7265, 3403.098
892.2086, 3271.375
892.6907, 3091.439
893.1729, 2947.185
893.6550, 2901.826
894.1371, 2853.423
894.6192, 2737.234
895.1013, 2605.295
895.5834, 2508.834
896.0656, 2447.427
896.5477, 2399.622
897.0298, 2357.848
897.5119, 2322.355
897.9940, 2307.392
898.4761, 2287.829
898.9583, 2231.546
899.4404, 2147.698
899.9225, 2048.759
900.4046, 1944.170
900.8867, 1868.456
901.3688, 1860.273
901.8510, 1881.331
902.3331, 1875.148
902.8152, 1846.803
903.2973, 1802.763
903.7794, 1748.295
904.2615, 1712.803
904.7437, 1712.687
905.2258, 1721.702
905.7079, 1694.906
906.1900, 1639.797
906.6721, 1609.059
907.1542, 1602.553
907.6364, 1588.023
908.1185, 1556.042
908.6006, 1514.542
909.0827, 1466.527
909.5648, 1420.161
910.0469, 1413.930
910.5291, 1457.502
911.0112, 1479.351
911.4933, 1470.514
911.9754, 1450.392
912.4575, 1427.007
912.9396, 1399.160
913.4218, 1364.080
913.9039, 1320.774
914.3860, 1281.335
914.8681, 1240.320
915.3502, 1214.106
915.8323, 1208.844
916.3145, 1216.112
916.7966, 1234.723
917.2787, 1260.837
917.7608, 1284.043
918.2429, 1323.469
918.7250, 1317.922
919.2072, 1204.095
919.6893, 1117.213
920.1714, 1129.512
920.6535, 1181.756
921.1356, 1213.527
921.6177, 1220.254
922.0999, 1210.378
922.5820, 1155.219
923.0641, 1125.195
923.5462, 1177.673
924.0283, 1229.210
924.5104, 1204.201
924.9926, 1132.839
925.4747, 1084.072
925.9568, 1075.438
926.4389, 1074.732
926.9210, 1067.025
927.4031, 1061.622
927.8853, 1075.575
928.3674, 1089.236
928.8495, 1066.159
929.3316, 1014.998
929.8137, 986.0778
930.2958, 1006.604
930.7780, 1043.573
931.2601, 1086.222
931.7422, 1118.005
932.2243, 1116.473
932.7064, 1087.778
933.1885, 1035.636
933.6707, 967.7972
934.1528, 930.3138
934.6349, 967.5224
935.1170, 1043.209
935.5991, 1133.646
936.0812, 1215.803
936.5634, 1224.314
937.0455, 1166.927
937.5276, 1112.248
938.0097, 1092.891
938.4918, 1093.940
938.9739, 1099.371
939.4561, 1110.233
939.9382, 1138.975
940.4203, 1177.848
940.9024, 1182.820
941.3845, 1145.998
941.8666, 1108.487
942.3488, 1099.970
942.8309, 1109.536
943.3130, 1111.742
943.7951, 1109.981
944.2772, 1143.488
944.7593, 1213.313
945.2415, 1248.784
945.7236, 1222.836
946.2057, 1168.763
946.6878, 1115.898
947.1699, 1071.536
947.6520, 1079.787
948.1342, 1145.731
948.6163, 1173.714
949.0984, 1148.443
949.5805, 1104.801
950.0626, 1055.897
950.5447, 1013.582
951.0269, 997.8007
951.5090, 1008.731
951.9911, 1038.753
952.4732, 1099.385
952.9553, 1127.653
953.4374, 1100.922
953.9196, 1060.784
954.4017, 1032.012
954.8838, 1018.181
955.3659, 1034.092
955.8480, 1095.593
956.3301, 1124.566
956.8122, 1110.705
957.2943, 1084.722
957.7764, 1039.495
958.2585, 1011.063
958.7407, 1052.793
959.2228, 1147.893
959.7049, 1166.927
960.1870, 1046.920
960.6691, 983.4846
961.1512, 1030.526
961.6334, 1067.312
962.1155, 1016.170
962.5976, 942.2971
963.0797, 942.3883
963.5618, 1021.984
964.0439, 1083.423
964.5261, 1127.764
965.0082, 1152.270
965.4903, 1133.664
965.9724, 1118.686
966.4545, 1140.087
966.9366, 1181.741
967.4188, 1210.012
967.9009, 1218.672
968.3830, 1237.521
968.8651, 1293.880
969.3472, 1326.744
969.8293, 1295.149
970.3115, 1255.943
970.7936, 1262.081
971.2757, 1298.903
971.7578, 1313.512
972.2399, 1289.823
972.7220, 1270.214
973.2042, 1249.275
973.6863, 1247.460
974.1684, 1290.993
974.6505, 1345.368
975.1326, 1370.814
975.6147, 1369.958
976.0969, 1378.825
976.5790, 1415.011
977.0611, 1443.548
977.5432, 1456.840
978.0253, 1459.716
978.5074, 1449.668
978.9896, 1433.819
979.4717, 1416.465
979.9538, 1399.566
980.4359, 1402.500
980.9180, 1478.960
981.4001, 1510.494
981.8823, 1384.685
982.3644, 1268.487
982.8465, 1318.540
983.3286, 1459.309
983.8107, 1533.461
984.2928, 1508.008
984.7750, 1487.783
985.2571, 1515.913
985.7392, 1547.855
986.2213, 1572.703
986.7034, 1584.644
987.1855, 1570.124
987.6677, 1540.162
988.1498, 1520.921
988.6319, 1518.316
989.1140, 1529.594
989.5961, 1563.603
990.0782, 1599.679
990.5604, 1637.192
991.0425, 1662.629
991.5246, 1645.860
992.0067, 1602.649
992.4888, 1595.119
992.9709, 1655.092
993.4531, 1710.894
993.9352, 1741.027
994.4173, 1745.772
994.8994, 1705.332
995.3815, 1652.077
995.8636, 1624.386
996.3458, 1625.778
996.8279, 1641.113
997.3100, 1672.402
997.7921, 1700.460
998.2742, 1714.711
998.7563, 1723.931
999.2385, 1726.656
999.7206, 1733.014
1000.203, 1764.587
1000.685, 1819.630
1001.167, 1858.692
1001.649, 1861.462
1002.131, 1850.981
1002.613, 1834.245
1003.095, 1812.583
1003.578, 1781.522
1004.060, 1748.672
1004.542, 1729.573
1005.024, 1726.072
1005.506, 1715.258
1005.988, 1678.040
1006.470, 1642.822
1006.952, 1621.910
1007.434, 1610.602
1007.917, 1620.536
1008.399, 1631.975
1008.881, 1601.128
1009.363, 1517.578
1009.845, 1442.209
1010.327, 1407.034
1010.809, 1378.871
1011.291, 1336.291
1011.773, 1296.909
1012.256, 1288.553
1012.738, 1294.676
1013.220, 1266.599
1013.702, 1186.248
1014.184, 1134.404
1014.666, 1179.330
1015.148, 1215.060
1015.630, 1168.796
1016.113, 1102.555
1016.595, 1081.971
1017.077, 1094.640
1017.559, 1086.882
1018.041, 1037.053
1018.523, 1012.762
1019.005, 1068.774
1019.487, 1118.017
1019.969, 1113.496
1020.452, 1084.031
1020.934, 1038.427
1021.416, 995.9730
1021.898, 1014.044
1022.380, 1137.461
1022.862, 1211.771
1023.344, 1140.237
1023.826, 1074.172
1024.308, 1105.203
1024.791, 1161.542
1025.273, 1169.604
1025.755, 1133.091
1026.237, 1091.004
1026.719, 1045.638
1027.201, 1006.938
1027.683, 967.6500
1028.165, 946.7015
1028.648, 962.8210
1029.130, 993.6013
1029.612, 1023.660
1030.094, 1048.186
1030.576, 1051.245
1031.058, 1019.671
1031.540, 989.7871
1032.022, 941.5848
1032.505, 925.8123
1032.987, 1003.720
1033.469, 1094.120
1033.951, 1100.390
1034.433, 1034.858
1034.915, 999.8960
1035.397, 1017.040
1035.879, 1037.390
1036.361, 1090.266
1036.844, 1107.602
1037.326, 1018.158
1037.808, 916.5079
1038.290, 911.2650
1038.772, 988.8129
1039.254, 1037.537
1039.736, 1050.953
1040.218, 1046.176
1040.700, 999.4670
1041.183, 972.0999
1041.665, 999.3135
1042.147, 1042.976
1042.629, 1062.884
1043.111, 1061.579
1043.593, 1056.891
1044.075, 1039.555
1044.557, 1044.929
1045.040, 1088.940
1045.522, 1123.248
1046.004, 1124.908
1046.486, 1115.648
1046.968, 1118.750
1047.450, 1132.522
1047.932, 1149.312
1048.414, 1175.522
1048.896, 1174.478
1049.379, 1136.010
1049.861, 1097.630
1050.343, 1069.847
1050.825, 1060.420
1051.307, 1083.175
1051.789, 1127.349
1052.271, 1133.625
1052.753, 1095.049
1053.235, 1110.165
1053.718, 1194.601
1054.200, 1250.734
1054.682, 1239.973
1055.164, 1200.132
1055.646, 1164.870
1056.128, 1139.883
1056.610, 1147.344
1057.092, 1185.148
1057.575, 1231.023
1058.057, 1282.253
1058.539, 1302.597
1059.021, 1278.827
1059.503, 1251.912
1059.985, 1262.013
1060.467, 1291.901
1060.949, 1309.094
1061.432, 1311.617
1061.914, 1274.792
1062.396, 1210.120
1062.878, 1194.391
1063.360, 1248.698
1063.842, 1315.113
1064.324, 1345.672
1064.806, 1362.704
1065.288, 1408.623
1065.771, 1464.252
1066.253, 1495.189
1066.735, 1497.986
1067.217, 1452.688
1067.699, 1367.368
1068.181, 1330.991
1068.663, 1423.318
1069.145, 1535.938
1069.627, 1551.896
1070.110, 1517.746
1070.592, 1467.063
1071.074, 1426.464
1071.556, 1453.190
1072.038, 1544.847
1072.520, 1624.812
1073.002, 1654.808
1073.484, 1657.844
1073.967, 1621.825
1074.449, 1592.726
1074.931, 1632.603
1075.413, 1694.281
1075.895, 1696.206
1076.377, 1642.947
1076.859, 1619.118
1077.341, 1663.177
1077.823, 1715.039
1078.306, 1761.169
1078.788, 1797.645
1079.270, 1812.872
1079.752, 1824.077
1080.234, 1853.142
1080.716, 1896.733
1081.198, 1932.637
1081.680, 1957.611
1082.162, 1974.739
1082.645, 1978.356
1083.127, 1981.916
1083.609, 1990.628
1084.091, 2000.598
1084.573, 2007.192
1085.055, 2012.199
1085.537, 2019.903
1086.019, 2023.413
1086.501, 2053.700
1086.984, 2127.062
1087.466, 2192.805
1087.948, 2233.406
1088.430, 2275.357
1088.912, 2344.523
1089.394, 2421.332
1089.876, 2458.488
1090.358, 2452.771
1090.841, 2442.129
1091.323, 2419.642
1091.805, 2441.733
1092.287, 2527.502
1092.769, 2608.506
1093.251, 2639.071
1093.733, 2655.799
1094.215, 2726.884
1094.698, 2838.651
1095.180, 2895.208
1095.662, 2904.834
1096.144, 2948.168
1096.626, 3037.454
1097.108, 3162.809
1097.590, 3320.817
1098.072, 3473.093
1098.554, 3560.706
1099.036, 3625.262
1099.519, 3775.957
1100.001, 3965.661
1100.483, 4054.692
1100.965, 4065.104
1101.447, 4130.267
1101.929, 4295.544
1102.411, 4497.106
1102.893, 4693.760
1103.376, 4890.538
1103.858, 5089.536
1104.340, 5293.638
1104.822, 5504.283
1105.304, 5722.693
1105.786, 5947.906
1106.268, 6182.443
1106.750, 6433.149
1107.233, 6707.880
1107.715, 6991.734
1108.197, 7283.315
1108.679, 7575.879
1109.161, 7832.657
1109.643, 8106.477
1110.125, 8491.482
1110.607, 8971.297
1111.089, 9397.221
1111.572, 9649.809
1112.054, 10032.33
1112.536, 10686.58
1113.018, 11327.16
1113.500, 11844.41
1113.982, 12327.83
1114.464, 12838.53
1114.946, 13379.96
1115.428, 13967.75
1115.911, 14627.27
1116.393, 15235.88
1116.875, 15769.60
1117.357, 16339.67
1117.839, 16983.85
1118.321, 17625.32
1118.803, 18216.11
1119.285, 18752.83
1119.768, 19234.49
1120.250, 19660.05
1120.732, 20024.63
1121.214, 20327.71
1121.696, 20604.51
1122.178, 20854.89
1122.660, 21015.25
1123.142, 21054.67
1123.625, 20974.87
1124.107, 20748.46
1124.589, 20437.00
1125.071, 20173.58
1125.553, 19906.29
1126.035, 19516.02
1126.517, 19015.84
1126.999, 18489.75
1127.481, 17958.36
1127.964, 17366.93
1128.446, 16635.33
1128.928, 15908.16
1129.410, 15338.16
1129.892, 14793.59
1130.374, 14144.86
1130.856, 13443.01
1131.338, 12775.81
1131.820, 12149.03
1132.303, 11500.87
1132.785, 10753.88
1133.267, 10126.93
1133.749, 9777.803
1134.231, 9434.049
1134.713, 8966.097
1135.195, 8464.370
1135.677, 7992.231
1136.160, 7561.361
1136.642, 7208.541
1137.124, 6957.079
1137.606, 6681.513
1138.088, 6364.167
1138.570, 6072.736
1139.052, 5826.637
1139.534, 5588.018
1140.016, 5329.073
1140.499, 5077.925
1140.981, 4887.329
1141.463, 4745.172
1141.945, 4576.523
1142.427, 4382.739
1142.909, 4175.529
1143.391, 3963.203
1143.873, 3820.825
1144.355, 3777.820
1144.838, 3751.646
1145.320, 3669.607
1145.802, 3551.588
1146.284, 3394.232
1146.766, 3243.995
1147.248, 3204.811
1147.730, 3235.612
1148.212, 3237.654
1148.695, 3189.640
1149.177, 3116.912
1149.659, 3027.662
1150.141, 2928.823
1150.623, 2793.882
1151.105, 2685.507
1151.587, 2671.488
1152.069, 2686.475
1152.552, 2660.652
1153.034, 2601.295
1153.516, 2548.151
1153.998, 2508.249
1154.480, 2465.888
1154.962, 2415.946
1155.444, 2369.711
1155.926, 2332.285
1156.408, 2294.020
1156.891, 2250.773
1157.373, 2200.948
1157.855, 2133.843
1158.337, 2057.090
1158.819, 2056.979
1159.301, 2143.061
1159.783, 2162.323
1160.265, 2099.701
1160.747, 2048.084
1161.230, 2040.326
1161.712, 2036.628
1162.194, 2001.600
1162.676, 1955.222
1163.158, 1940.558
1163.640, 1937.677
1164.122, 1895.024
1164.604, 1827.747
1165.086, 1779.439
1165.569, 1753.528
1166.051, 1719.736
1166.533, 1660.950
1167.015, 1631.883
1167.497, 1712.128
1167.979, 1783.388
1168.461, 1751.965
1168.943, 1686.116
1169.426, 1646.487
1169.908, 1626.060
1170.390, 1596.366
1170.872, 1553.555
1171.354, 1529.558
1171.836, 1547.614
1172.318, 1552.077
1172.800, 1515.662
1173.282, 1509.125
1173.765, 1586.081
1174.247, 1656.658
1174.729, 1623.315
1175.211, 1522.647
1175.693, 1478.307
1176.175, 1492.117
1176.657, 1476.099
1177.139, 1430.072
1177.621, 1404.113
1178.104, 1408.753
1178.586, 1432.644
1179.068, 1470.414
1179.550, 1507.714
1180.032, 1540.761
1180.514, 1551.248
1180.996, 1481.899
1181.478, 1385.305
1181.961, 1350.990
1182.443, 1368.589
1182.925, 1394.506
1183.407, 1415.544
1183.889, 1426.745
1184.371, 1421.128
1184.853, 1413.858
1185.335, 1410.401
1185.818, 1407.641
1186.300, 1405.227
1186.782, 1401.477
1187.264, 1397.980
1187.746, 1391.329
1188.228, 1367.481
1188.710, 1318.176
1189.192, 1291.285
1189.674, 1288.298
1190.156, 1306.884
1190.639, 1353.074
1191.121, 1390.159
1191.603, 1398.015
1192.085, 1387.324
1192.567, 1365.806
1193.049, 1344.243
1193.531, 1367.721
1194.013, 1415.971
1194.496, 1412.175
1194.978, 1367.724
1195.460, 1347.198
1195.942, 1363.215
1196.424, 1376.196
1196.906, 1363.126
1197.388, 1344.199
1197.870, 1336.370
1198.353, 1326.741
1198.835, 1285.956
1199.317, 1254.221
1199.799, 1300.049
1200.281, 1384.878
1200.763, 1399.327
1201.245, 1318.909
1201.727, 1272.496
1202.209, 1280.099
1202.692, 1296.004
1203.174, 1323.997
1203.656, 1341.245
1204.138, 1334.395
1204.620, 1323.903
1205.102, 1332.351
1205.584, 1350.041
1206.066, 1347.780
1206.548, 1328.674
1207.031, 1306.635
1207.513, 1287.869
1207.995, 1312.360
1208.477, 1377.475
1208.959, 1422.711
1209.441, 1418.673
1209.923, 1397.949
1210.405, 1369.794
1210.888, 1359.207
1211.370, 1412.174
1211.852, 1471.671
1212.334, 1482.448
1212.816, 1456.293
1213.298, 1404.397
1213.780, 1336.587
1214.262, 1314.634
1214.745, 1388.910
1215.227, 1425.456
1215.709, 1405.102
1216.191, 1373.860
1216.673, 1330.514
1217.155, 1310.760
1217.637, 1348.209
1218.119, 1399.939
1218.601, 1384.299
1219.083, 1320.407
1219.566, 1317.150
1220.048, 1363.247
1220.530, 1400.672
1221.012, 1422.122
1221.494, 1425.324
1221.976, 1411.561
1222.458, 1394.278
1222.940, 1378.750
1223.423, 1374.119
1223.905, 1409.194
1224.387, 1435.250
1224.869, 1375.411
1225.351, 1312.822
1225.833, 1364.034
1226.315, 1488.663
1226.797, 1564.378
1227.280, 1572.756
1227.762, 1571.261
1228.244, 1545.113
1228.726, 1550.921
1229.208, 1614.777
1229.690, 1646.850
1230.172, 1603.623
1230.654, 1553.442
1231.136, 1561.024
1231.619, 1599.952
1232.101, 1616.193
1232.583, 1612.714
1233.065, 1584.376
1233.547, 1549.050
1234.029, 1566.919
1234.511, 1634.026
1234.993, 1704.811
1235.475, 1761.941
1235.958, 1797.681
1236.440, 1790.718
1236.922, 1784.395
1237.404, 1802.190
1237.886, 1826.493
1238.368, 1846.904
1238.850, 1866.296
1239.332, 1888.111
1239.815, 1912.647
1240.297, 1943.305
1240.779, 1984.463
1241.261, 1996.158
1241.743, 1968.069
1242.225, 1986.160
1242.707, 2068.120
1243.189, 2121.059
1243.672, 2101.674
1244.154, 2079.143
1244.636, 2127.759
1245.118, 2198.230
1245.600, 2212.171
1246.082, 2196.385
1246.564, 2174.549
1247.046, 2163.584
1247.528, 2201.650
1248.010, 2274.364
1248.493, 2321.453
1248.975, 2325.283
1249.457, 2316.195
1249.939, 2265.542
1250.421, 2260.193
1250.903, 2368.089
1251.385, 2442.997
1251.867, 2412.835
1252.349, 2339.873
1252.832, 2281.351
1253.314, 2240.075
1253.796, 2227.730
1254.278, 2241.566
1254.760, 2256.223
1255.242, 2274.652
1255.724, 2329.190
1256.206, 2410.145
1256.689, 2442.038
1257.171, 2397.312
1257.653, 2349.565
1258.135, 2352.985
1258.617, 2365.391
1259.099, 2355.393
1259.581, 2348.627
1260.063, 2372.184
1260.546, 2402.670
1261.028, 2409.223
1261.510, 2399.181
1261.992, 2398.302
1262.474, 2405.502
1262.956, 2436.216
1263.438, 2497.547
1263.920, 2542.099
1264.402, 2564.409
1264.885, 2552.594
1265.367, 2502.079
1265.849, 2489.554
1266.331, 2591.676
1266.813, 2714.630
1267.295, 2709.169
1267.777, 2671.296
1268.259, 2749.926
1268.741, 2864.614
1269.224, 2881.150
1269.706, 2831.251
1270.188, 2827.507
1270.670, 2890.846
1271.152, 2958.207
1271.634, 3029.308
1272.116, 3084.045
1272.598, 3103.325
1273.081, 3152.167
1273.563, 3260.223
1274.045, 3367.587
1274.527, 3430.409
1275.009, 3465.598
1275.491, 3494.146
1275.973, 3522.014
1276.455, 3564.501
1276.938, 3623.633
##END=



