##NAMES=Grossular
##RRUFFID=R060278
##IDEAL CHEMISTRY=Ca_3_Al_2_(SiO_4_)_3_
##LOCALITY=Diakon, Kayes Region, Mali
##OWNER=RRUFF
##SOURCE=Herb Obodda
##DESCRIPTION=Dark brown dodecahedral single crystal
##STATUS=The identification of this mineral has been confirmed by X-ray diffraction and chemical analysis
##URL=rruff.info/R060278
##MEASURED CHEMISTRY=(Ca_2.93_Mg_0.05_Mn_0.02_)_Σ=3_(Al_1.19_Fe^3+^_0.78_Ti_0.03_)_Σ=2_((Si_0.99_Al_0.01_)_Σ=1_O_4_)_3_
90.92609, 0.0000000E+00
91.40820, 3.381535
91.89032, 3.211531
92.37244, 3.304598
92.85455, 3.617157
93.33667, 3.888711
93.81879, 3.900526
94.30090, 3.718564
94.78302, 3.538400
95.26514, 3.396999
95.74725, 3.287885
96.22937, 3.210632
96.71149, 3.169038
97.19360, 3.124172
97.67572, 3.021170
98.15784, 2.863224
98.63995, 2.741930
99.12207, 2.689247
99.60419, 2.698908
100.0863, 2.698381
100.5684, 2.665416
101.0505, 2.667313
101.5327, 2.835564
102.0148, 3.248218
102.4969, 3.557162
102.9790, 3.600807
103.4611, 3.298387
103.9432, 3.178757
104.4253, 3.287125
104.9075, 3.555290
105.3896, 3.846699
105.8717, 4.161085
106.3538, 4.503554
106.8359, 4.905244
107.3180, 5.554336
107.8002, 5.924235
108.2823, 5.872833
108.7644, 5.515985
109.2465, 5.276442
109.7286, 5.032928
110.2107, 4.999476
110.6929, 5.265474
111.1750, 6.074030
111.6571, 6.912696
112.1392, 7.788567
112.6213, 8.684916
113.1034, 9.505322
113.5856, 10.19484
114.0677, 10.83507
114.5498, 11.47869
115.0319, 12.01229
115.5140, 12.67426
115.9961, 13.64728
116.4783, 14.92499
116.9604, 16.01828
117.4425, 16.64834
117.9246, 17.04118
118.4067, 17.44411
118.8888, 17.92909
119.3710, 18.46495
119.8531, 19.02568
120.3352, 19.60309
120.8173, 20.24794
121.2994, 20.89404
121.7815, 21.62945
122.2637, 22.61189
122.7458, 24.16000
123.2279, 25.86280
123.7100, 27.33039
124.1921, 28.51495
124.6742, 29.49246
125.1564, 30.19838
125.6385, 30.71858
126.1206, 31.32785
126.6027, 32.16227
127.0848, 33.19276
127.5669, 34.39003
128.0491, 35.79009
128.5312, 37.27200
129.0133, 38.74397
129.4954, 40.17964
129.9775, 41.45881
130.4596, 42.40768
130.9418, 43.09646
131.4239, 43.86000
131.9060, 44.82977
132.3881, 45.84735
132.8702, 46.45335
133.3523, 46.62294
133.8345, 46.75383
134.3166, 47.19670
134.7987, 47.95458
135.2808, 48.73333
135.7629, 49.46173
136.2450, 50.17246
136.7272, 50.99773
137.2093, 51.94216
137.6914, 52.99901
138.1735, 54.21937
138.6556, 55.64718
139.1377, 56.97441
139.6199, 58.15224
140.1020, 59.17087
140.5841, 59.97925
141.0662, 60.46152
141.5483, 60.87645
142.0304, 61.57566
142.5126, 62.68108
142.9947, 63.75391
143.4768, 64.46564
143.9589, 64.65377
144.4410, 64.78065
144.9231, 64.73454
145.4053, 64.69945
145.8874, 64.98787
146.3695, 65.86023
146.8516, 66.68241
147.3337, 67.24857
147.8158, 67.49627
148.2980, 67.69667
148.7801, 67.90224
149.2622, 68.05717
149.7443, 68.03903
150.2264, 67.49635
150.7085, 67.09570
151.1907, 67.07665
151.6728, 67.70942
152.1549, 68.24917
152.6370, 68.65260
153.1191, 68.95499
153.6012, 69.23158
154.0834, 69.23016
154.5655, 69.39413
155.0476, 69.93997
155.5297, 71.39828
156.0118, 72.53091
156.4939, 72.79977
156.9761, 72.53037
157.4582, 72.80389
157.9403, 74.41615
158.4224, 76.27449
158.9045, 77.73886
159.3866, 78.16042
159.8688, 78.76127
160.3509, 80.04343
160.8330, 81.84903
161.3151, 83.44147
161.7972, 84.52676
162.2793, 85.32071
162.7615, 85.98466
163.2436, 86.24796
163.7257, 86.69053
164.2078, 87.69875
164.6899, 89.18996
165.1720, 90.58348
165.6541, 91.54527
166.1363, 92.29153
166.6184, 93.03539
167.1005, 93.64220
167.5826, 94.42571
168.0647, 95.64168
168.5468, 97.26628
169.0290, 99.00304
169.5111, 100.6768
169.9932, 102.3502
170.4753, 104.1142
170.9574, 105.9222
171.4395, 107.8634
171.9217, 109.9648
172.4038, 112.2274
172.8859, 114.8248
173.3680, 118.0666
173.8501, 121.7093
174.3322, 125.3851
174.8144, 129.0439
175.2965, 132.6362
175.7786, 136.3923
176.2607, 140.4063
176.7428, 143.3621
177.2249, 144.1382
177.7071, 142.9444
178.1892, 140.3103
178.6713, 135.9534
179.1534, 130.4387
179.6355, 124.3880
180.1176, 117.6694
180.5998, 111.2381
181.0819, 105.8793
181.5640, 101.5694
182.0461, 98.03293
182.5282, 95.42581
183.0103, 93.50249
183.4925, 91.72488
183.9746, 90.06403
184.4567, 88.65300
184.9388, 87.73349
185.4209, 87.24696
185.9030, 86.89438
186.3852, 86.63483
186.8673, 86.40783
187.3494, 85.92294
187.8315, 85.10550
188.3136, 84.26070
188.7957, 83.80338
189.2779, 83.71764
189.7600, 83.72877
190.2421, 83.71052
190.7242, 83.67435
191.2063, 83.69091
191.6884, 83.77055
192.1706, 83.88282
192.6527, 84.01709
193.1348, 84.17333
193.6169, 84.24504
194.0990, 84.14204
194.5811, 83.87613
195.0633, 83.62861
195.5454, 83.39530
196.0275, 83.20164
196.5096, 83.15892
196.9917, 83.28931
197.4738, 83.32365
197.9560, 82.95442
198.4381, 82.18031
198.9202, 82.03822
199.4023, 82.78272
199.8844, 83.88534
200.3665, 84.23454
200.8487, 83.73092
201.3308, 83.10867
201.8129, 82.69256
202.2950, 82.48417
202.7771, 82.47780
203.2592, 82.71416
203.7414, 83.10694
204.2235, 83.46226
204.7056, 83.74900
205.1877, 84.10026
205.6698, 84.66444
206.1519, 85.52192
206.6341, 86.01820
207.1162, 86.00545
207.5983, 85.72564
208.0804, 85.75904
208.5625, 86.21413
209.0446, 86.64542
209.5268, 86.75114
210.0089, 86.38332
210.4910, 86.43642
210.9731, 87.08728
211.4552, 88.06847
211.9373, 88.67066
212.4195, 88.69427
212.9016, 88.84117
213.3837, 89.52551
213.8658, 90.97204
214.3479, 92.11063
214.8300, 92.77599
215.3121, 93.21268
215.7943, 94.02562
216.2764, 95.28848
216.7585, 96.75510
217.2406, 98.40511
217.7227, 100.3814
218.2048, 101.9891
218.6870, 103.0527
219.1691, 103.8251
219.6512, 104.9217
220.1333, 106.4216
220.6154, 108.1084
221.0975, 109.8725
221.5797, 111.5370
222.0618, 113.7920
222.5439, 116.9453
223.0260, 120.5395
223.5081, 123.5608
223.9902, 125.5639
224.4724, 127.7470
224.9545, 130.6353
225.4366, 134.6669
225.9187, 138.2668
226.4008, 141.3983
226.8829, 144.1493
227.3651, 146.6409
227.8472, 148.5420
228.3293, 150.7852
228.8114, 153.8382
229.2935, 158.0723
229.7757, 161.9192
230.2578, 165.1677
230.7399, 168.0892
231.2220, 171.3373
231.7041, 175.3167
232.1862, 178.9254
232.6684, 181.6849
233.1505, 183.2682
233.6326, 185.0537
234.1147, 187.1205
234.5968, 189.3484
235.0789, 191.4804
235.5611, 193.4755
236.0432, 195.4329
236.5253, 197.3985
237.0074, 199.3235
237.4895, 201.3102
237.9716, 203.2293
238.4538, 205.2903
238.9359, 207.8928
239.4180, 211.5425
239.9001, 214.9801
240.3822, 218.0350
240.8643, 220.9310
241.3465, 222.3727
241.8286, 222.7105
242.3107, 221.3519
242.7928, 217.3572
243.2749, 210.0493
243.7570, 201.2282
244.2392, 190.9319
244.7213, 178.6693
245.2034, 167.6838
245.6855, 158.0147
246.1676, 149.4932
246.6497, 141.8744
247.1319, 134.9470
247.6140, 129.3278
248.0961, 125.3801
248.5782, 123.2609
249.0603, 121.2664
249.5424, 119.3443
250.0246, 117.5810
250.5067, 115.9869
250.9888, 114.3173
251.4709, 113.3221
251.9530, 113.3733
252.4351, 114.5437
252.9173, 115.2104
253.3994, 115.1015
253.8815, 114.8097
254.3636, 114.9506
254.8457, 115.7940
255.3278, 116.4502
255.8100, 116.6502
256.2921, 116.4142
256.7742, 116.5257
257.2563, 116.9767
257.7384, 117.7821
258.2205, 119.0742
258.7026, 121.2723
259.1848, 122.9007
259.6669, 123.5323
260.1490, 123.3189
260.6311, 123.5298
261.1132, 124.3135
261.5953, 125.2810
262.0775, 126.0948
262.5596, 126.6098
263.0417, 127.4303
263.5238, 128.6889
264.0059, 130.3045
264.4880, 131.9380
264.9702, 133.5184
265.4523, 135.2308
265.9344, 137.1526
266.4165, 139.2619
266.8986, 141.7318
267.3807, 144.6748
267.8629, 147.9707
268.3450, 151.3806
268.8271, 155.1830
269.3092, 158.5069
269.7913, 160.7952
270.2734, 161.7773
270.7556, 163.0852
271.2377, 165.0953
271.7198, 167.2504
272.2019, 168.3062
272.6840, 168.2046
273.1661, 167.2241
273.6483, 165.3072
274.1304, 162.3417
274.6125, 159.3773
275.0946, 156.3458
275.5767, 153.4488
276.0588, 151.0132
276.5410, 149.0427
277.0231, 147.5188
277.5052, 146.5278
277.9873, 146.0667
278.4694, 145.8547
278.9515, 146.0216
279.4337, 146.1505
279.9158, 145.5884
280.3979, 144.2820
280.8800, 142.8589
281.3621, 141.5334
281.8442, 140.2951
282.3264, 139.0859
282.8085, 137.8988
283.2906, 136.7765
283.7727, 135.8773
284.2548, 135.2083
284.7369, 134.2492
285.2191, 132.6957
285.7012, 130.7597
286.1833, 129.2508
286.6654, 128.1956
287.1475, 127.3862
287.6296, 126.7008
288.1118, 126.1238
288.5939, 125.5176
289.0760, 124.7944
289.5581, 124.0623
290.0402, 123.5338
290.5223, 123.2051
291.0045, 123.1395
291.4866, 123.6002
291.9687, 124.4366
292.4508, 124.8881
292.9329, 124.7120
293.4150, 124.2641
293.8972, 124.0382
294.3793, 124.0442
294.8614, 124.3939
295.3435, 125.4967
295.8256, 127.0157
296.3077, 127.9618
296.7899, 128.1345
297.2720, 127.9279
297.7541, 127.5964
298.2362, 127.2416
298.7183, 127.3215
299.2004, 128.2585
299.6826, 129.7647
300.1647, 131.4035
300.6468, 133.1643
301.1289, 134.8627
301.6110, 136.3322
302.0931, 137.5932
302.5753, 138.7463
303.0574, 139.7464
303.5395, 140.6931
304.0216, 141.6921
304.5037, 142.7551
304.9858, 143.8541
305.4680, 145.0095
305.9501, 146.1838
306.4322, 147.3049
306.9143, 148.2387
307.3964, 149.1996
307.8785, 150.4289
308.3607, 151.9049
308.8428, 153.4511
309.3249, 154.8280
309.8070, 156.2537
310.2891, 157.9829
310.7712, 160.1889
311.2534, 162.6141
311.7355, 165.2349
312.2176, 167.9869
312.6997, 170.5512
313.1818, 172.2052
313.6639, 173.8741
314.1461, 176.4028
314.6282, 180.2878
315.1103, 184.2985
315.5924, 187.9437
316.0745, 191.2564
316.5566, 194.3643
317.0388, 196.8069
317.5209, 199.3976
318.0030, 202.8400
318.4851, 207.5525
318.9672, 211.7155
319.4493, 214.7632
319.9315, 216.8810
320.4136, 218.3475
320.8957, 219.4866
321.3778, 219.7354
321.8599, 218.7953
322.3420, 216.6006
322.8242, 213.8563
323.3063, 209.8831
323.7884, 205.8178
324.2705, 202.6524
324.7526, 202.1718
325.2347, 200.8567
325.7169, 197.3716
326.1990, 191.9397
326.6811, 187.7495
327.1632, 185.5341
327.6453, 184.2677
328.1274, 183.3854
328.6096, 182.7049
329.0917, 182.6260
329.5738, 183.5197
330.0559, 185.0571
330.5380, 186.1834
331.0201, 186.5191
331.5023, 186.8566
331.9844, 187.5131
332.4665, 188.5804
332.9486, 189.7241
333.4307, 190.8940
333.9128, 192.1611
334.3950, 193.6980
334.8771, 195.8863
335.3592, 197.6364
335.8413, 198.4280
336.3234, 198.1150
336.8055, 198.4024
337.2877, 199.4759
337.7698, 200.8858
338.2519, 202.1007
338.7340, 202.9702
339.2161, 204.1912
339.6982, 205.9160
340.1803, 208.1193
340.6624, 210.5096
341.1446, 213.0789
341.6267, 215.9594
342.1088, 219.2633
342.5909, 222.9547
343.0730, 227.3051
343.5551, 232.3739
344.0373, 238.0439
344.5194, 243.9243
345.0015, 250.0616
345.4836, 256.4813
345.9657, 263.1281
346.4478, 270.0514
346.9300, 277.5344
347.4121, 285.7016
347.8942, 294.2700
348.3763, 302.8621
348.8584, 311.5538
349.3405, 320.9770
349.8227, 331.1761
350.3048, 342.3568
350.7869, 355.0874
351.2690, 369.3264
351.7511, 384.5948
352.2332, 399.9482
352.7154, 415.8802
353.1975, 433.4634
353.6796, 453.2303
354.1617, 474.5980
354.6438, 496.9806
355.1259, 520.3964
355.6081, 544.8503
356.0902, 570.9296
356.5723, 598.0459
357.0544, 625.9595
357.5365, 654.7874
358.0186, 683.2097
358.5008, 710.1559
358.9829, 735.9466
359.4650, 761.2870
359.9471, 787.4881
360.4292, 812.6141
360.9113, 835.6146
361.3935, 856.1576
361.8756, 874.6800
362.3577, 889.3538
362.8398, 902.7852
363.3219, 917.9362
363.8040, 935.4694
364.2862, 955.0195
364.7683, 976.5846
365.2504, 1000.248
365.7325, 1025.495
366.2146, 1051.561
366.6967, 1079.801
367.1789, 1111.059
367.6610, 1147.626
368.1431, 1184.640
368.6252, 1224.114
369.1073, 1264.390
369.5894, 1299.713
370.0716, 1331.135
370.5537, 1356.855
371.0358, 1377.108
371.5179, 1393.668
372.0000, 1399.404
372.4821, 1394.306
372.9643, 1378.381
373.4464, 1350.992
373.9285, 1310.380
374.4106, 1262.204
374.8927, 1206.233
375.3748, 1142.431
375.8570, 1077.428
376.3391, 1009.679
376.8212, 942.8071
377.3033, 878.1024
377.7854, 815.5250
378.2675, 758.2134
378.7497, 706.2754
379.2318, 659.6331
379.7139, 616.9348
380.1960, 578.6146
380.6781, 543.3778
381.1602, 510.9009
381.6424, 481.2094
382.1245, 454.6645
382.6066, 431.1490
383.0887, 410.3690
383.5708, 392.1437
384.0529, 376.3199
384.5351, 361.2711
385.0172, 346.1324
385.4993, 331.7119
385.9814, 319.0079
386.4635, 308.0934
386.9456, 298.2146
387.4278, 289.3111
387.9099, 281.0786
388.3920, 272.8440
388.8741, 264.2377
389.3562, 256.0425
389.8383, 248.9207
390.3205, 242.6530
390.8026, 236.8274
391.2847, 231.2513
391.7668, 226.0198
392.2489, 221.1999
392.7310, 216.8784
393.2132, 212.6884
393.6953, 208.5340
394.1774, 204.4388
394.6595, 200.3980
395.1416, 196.2137
395.6237, 192.3212
396.1059, 188.9934
396.5880, 186.1978
397.0701, 183.3475
397.5522, 180.0667
398.0343, 176.8998
398.5164, 174.1827
398.9986, 172.5163
399.4807, 170.5591
399.9628, 168.1426
400.4449, 165.4197
400.9270, 162.7069
401.4091, 159.8635
401.8913, 157.2643
402.3734, 155.2057
402.8555, 153.9340
403.3376, 151.7574
403.8197, 148.3710
404.3018, 144.4334
404.7840, 140.5192
405.2661, 136.4535
405.7482, 133.0183
406.2303, 130.4915
406.7124, 128.6637
407.1945, 126.5401
407.6767, 124.0673
408.1588, 121.5561
408.6409, 119.1084
409.1230, 116.7534
409.6051, 114.8408
410.0872, 113.4731
410.5694, 112.2941
411.0515, 110.7323
411.5336, 108.8541
412.0157, 107.1088
412.4978, 105.7109
412.9799, 104.5762
413.4621, 103.5297
413.9442, 102.5644
414.4263, 101.7309
414.9084, 101.2404
415.3905, 100.8648
415.8727, 100.1584
416.3548, 98.71666
416.8369, 97.39731
417.3190, 97.10225
417.8011, 97.52560
418.2832, 97.85152
418.7654, 97.67311
419.2475, 97.25328
419.7296, 96.69089
420.2117, 95.94200
420.6938, 95.37724
421.1759, 95.29198
421.6581, 95.40398
422.1402, 95.41360
422.6223, 95.00092
423.1044, 94.74072
423.5865, 94.75936
424.0686, 95.04897
424.5508, 95.53841
425.0329, 96.65956
425.5150, 97.62168
425.9971, 98.02983
426.4792, 97.47404
426.9613, 97.21749
427.4435, 97.35742
427.9256, 97.74693
428.4077, 98.17838
428.8898, 98.72153
429.3719, 99.15408
429.8540, 99.35398
430.3362, 99.35093
430.8183, 99.62731
431.3004, 100.2432
431.7825, 100.9641
432.2646, 101.6019
432.7467, 102.1538
433.2289, 102.7258
433.7110, 103.3242
434.1931, 103.9413
434.6752, 104.5153
435.1573, 105.0595
435.6394, 105.7284
436.1216, 106.7533
436.6036, 107.9365
437.0858, 108.7515
437.5679, 109.1830
438.0500, 109.6211
438.5321, 110.4347
439.0142, 111.4835
439.4963, 112.5560
439.9785, 113.7304
440.4606, 114.7168
440.9427, 115.1492
441.4248, 115.1772
441.9069, 115.2330
442.3890, 115.5496
442.8712, 115.9489
443.3533, 116.3500
443.8354, 116.7673
444.3175, 117.0634
444.7996, 117.0720
445.2817, 116.9830
445.7639, 116.9944
446.2460, 117.2029
446.7281, 117.4439
447.2102, 117.6385
447.6923, 117.8135
448.1744, 118.1731
448.6566, 119.0082
449.1387, 119.7178
449.6208, 119.9885
450.1029, 119.5977
450.5850, 119.4512
451.0671, 119.6423
451.5493, 119.9825
452.0314, 120.2418
452.5135, 120.4412
452.9956, 120.4518
453.4777, 120.1865
453.9598, 119.7170
454.4420, 119.3131
454.9241, 118.9727
455.4062, 118.7533
455.8883, 118.7983
456.3704, 119.0303
456.8525, 119.1063
457.3347, 118.9935
457.8168, 118.7033
458.2989, 118.1644
458.7810, 117.4445
459.2631, 116.7601
459.7452, 116.1991
460.2274, 115.7160
460.7095, 115.2115
461.1916, 114.7038
461.6737, 114.3909
462.1558, 114.8258
462.6379, 115.2746
463.1201, 114.9447
463.6022, 113.2222
464.0843, 111.8020
464.5664, 111.6759
465.0485, 112.2298
465.5306, 112.4842
466.0128, 112.1503
466.4949, 111.5449
466.9770, 110.5444
467.4591, 109.1283
467.9412, 108.2899
468.4233, 108.5434
468.9055, 108.9394
469.3876, 108.9005
469.8697, 108.0640
470.3518, 107.6074
470.8339, 107.6789
471.3160, 108.0548
471.7982, 108.3083
472.2803, 108.3929
472.7624, 108.5502
473.2445, 108.8943
473.7266, 109.3827
474.2087, 109.6754
474.6909, 109.7274
475.1730, 109.9430
475.6551, 110.6766
476.1372, 111.8657
476.6193, 113.3572
477.1014, 115.2307
477.5836, 117.0256
478.0657, 117.8934
478.5478, 118.1736
479.0299, 118.8218
479.5120, 120.6107
479.9941, 122.7685
480.4763, 124.5199
480.9584, 125.9079
481.4405, 127.3910
481.9226, 129.2407
482.4047, 131.2797
482.8868, 133.4191
483.3690, 135.7965
483.8511, 137.9004
484.3332, 139.4352
484.8153, 140.6288
485.2974, 141.8860
485.7795, 143.3629
486.2617, 144.7846
486.7438, 146.1287
487.2259, 147.3974
487.7080, 148.4597
488.1901, 149.2647
488.6722, 149.9429
489.1544, 150.6121
489.6365, 151.3413
490.1186, 151.7377
490.6007, 151.6897
491.0828, 151.4525
491.5649, 151.5014
492.0471, 151.8594
492.5292, 151.9545
493.0113, 151.4927
493.4934, 150.6921
493.9755, 150.1641
494.4576, 149.8979
494.9398, 149.5882
495.4219, 149.0383
495.9040, 148.2824
496.3861, 147.3806
496.8682, 146.3090
497.3503, 145.1989
497.8325, 144.2220
498.3146, 143.2589
498.7967, 142.1039
499.2788, 140.4930
499.7609, 138.8595
500.2430, 137.3989
500.7252, 136.1016
501.2073, 134.8756
501.6894, 133.9337
502.1715, 132.8851
502.6536, 131.4929
503.1357, 129.5824
503.6179, 127.7899
504.1000, 125.9735
504.5821, 124.3852
505.0642, 123.2891
505.5463, 122.8084
506.0284, 122.5733
506.5106, 122.6621
506.9927, 122.9158
507.4748, 122.7091
507.9569, 121.9075
508.4390, 121.2871
508.9211, 121.2673
509.4033, 121.7930
509.8854, 122.4312
510.3675, 123.1831
510.8496, 124.0347
511.3317, 124.8281
511.8138, 125.7112
512.2960, 127.0925
512.7781, 129.1937
513.2602, 131.5982
513.7423, 133.7525
514.2244, 135.8658
514.7065, 138.4475
515.1887, 141.7605
515.6708, 145.6261
516.1529, 150.0417
516.6350, 154.9990
517.1171, 159.9830
517.5992, 164.2178
518.0814, 168.7618
518.5635, 174.3212
519.0456, 181.5141
519.5277, 188.8902
520.0098, 196.4458
520.4919, 204.0642
520.9741, 211.5579
521.4562, 218.7957
521.9383, 225.9726
522.4204, 232.8887
522.9025, 239.7318
523.3846, 247.8986
523.8668, 257.5854
524.3489, 267.5548
524.8310, 277.1307
525.3131, 286.3978
525.7952, 295.4406
526.2773, 304.1515
526.7595, 313.5927
527.2416, 325.5399
527.7237, 339.0680
528.2058, 352.0418
528.6879, 363.6188
529.1700, 374.4351
529.6522, 384.8645
530.1343, 394.9254
530.6164, 404.9993
531.0985, 416.5240
531.5806, 427.0367
532.0627, 435.1696
532.5449, 440.8078
533.0270, 443.8885
533.5091, 444.8807
533.9912, 442.9512
534.4733, 437.4922
534.9554, 428.7356
535.4376, 415.7517
535.9197, 397.7057
536.4018, 375.9269
536.8839, 352.9005
537.3660, 327.7294
537.8481, 303.1031
538.3303, 279.0314
538.8124, 255.9483
539.2945, 235.6602
539.7766, 218.2408
540.2587, 203.0007
540.7408, 189.8694
541.2230, 178.5171
541.7051, 168.1801
542.1872, 158.7908
542.6693, 150.5495
543.1514, 143.6306
543.6335, 137.9624
544.1157, 133.2734
544.5978, 129.9246
545.0799, 126.9145
545.5620, 123.3953
546.0441, 119.7000
546.5262, 116.6526
547.0084, 114.6286
547.4905, 113.2640
547.9726, 112.5598
548.4547, 112.5735
548.9368, 112.4167
549.4189, 112.1348
549.9011, 111.5541
550.3832, 110.4494
550.8653, 108.1233
551.3474, 107.0064
551.8295, 107.6094
552.3116, 108.8703
552.7938, 109.1797
553.2759, 108.4364
553.7580, 107.7146
554.2401, 107.2944
554.7222, 107.0791
555.2043, 106.8760
555.6865, 106.6801
556.1686, 106.4122
556.6507, 106.0165
557.1328, 105.5239
557.6149, 104.9324
558.0970, 104.2422
558.5792, 103.6060
559.0613, 103.2117
559.5434, 102.8955
560.0255, 102.4863
560.5076, 101.8931
560.9897, 101.3065
561.4719, 100.8088
561.9540, 100.3510
562.4361, 99.85901
562.9182, 99.47593
563.4003, 98.87043
563.8824, 97.91775
564.3646, 96.66943
564.8467, 95.43226
565.3288, 94.20860
565.8109, 92.98098
566.2930, 91.69121
566.7751, 90.33663
567.2573, 89.19016
567.7394, 88.29094
568.2215, 87.37373
568.7036, 86.07929
569.1857, 84.51495
569.6678, 83.02567
570.1500, 81.69613
570.6321, 80.46983
571.1142, 79.29858
571.5963, 78.19716
572.0784, 77.20223
572.5605, 76.31960
573.0427, 75.54870
573.5248, 74.93534
574.0069, 74.45631
574.4890, 73.92258
574.9711, 73.26146
575.4532, 72.55605
575.9354, 71.86030
576.4175, 71.20280
576.8996, 70.44445
577.3817, 69.36002
577.8638, 68.40361
578.3459, 68.05711
578.8281, 68.52837
579.3102, 68.76728
579.7923, 68.61231
580.2744, 68.24497
580.7565, 67.92343
581.2386, 67.65775
581.7208, 67.65324
582.2029, 68.17618
582.6850, 68.87621
583.1671, 69.01510
583.6492, 68.69413
584.1313, 68.51603
584.6134, 68.95138
585.0955, 69.65359
585.5776, 70.34063
586.0598, 70.99204
586.5419, 71.54812
587.0240, 71.83414
587.5061, 72.10629
587.9882, 72.57422
588.4703, 73.23512
588.9525, 74.15636
589.4346, 75.51019
589.9167, 77.04183
590.3988, 78.32864
590.8809, 79.24809
591.3630, 80.21731
591.8452, 81.38818
592.3273, 82.65728
592.8094, 83.57048
593.2915, 84.10371
593.7736, 84.64846
594.2557, 85.39549
594.7379, 86.32637
595.2200, 87.49158
595.7021, 88.88116
596.1842, 90.22741
596.6663, 91.38637
597.1484, 92.34703
597.6306, 93.09102
598.1127, 93.57848
598.5948, 93.91611
599.0769, 93.90610
599.5590, 93.85881
600.0411, 94.16557
600.5233, 95.47766
601.0054, 96.47163
601.4875, 96.75263
601.9696, 96.57207
602.4517, 96.71988
602.9338, 97.39336
603.4160, 97.96685
603.8981, 98.16665
604.3802, 98.04713
604.8623, 98.17866
605.3444, 98.58485
605.8265, 99.06145
606.3087, 99.43505
606.7908, 99.75620
607.2729, 100.2188
607.7550, 100.8627
608.2371, 101.4420
608.7192, 101.7741
609.2014, 101.8969
609.6835, 101.8572
610.1656, 101.5988
610.6477, 101.2966
611.1298, 100.9808
611.6119, 100.6795
612.0941, 100.4362
612.5762, 100.3646
613.0583, 100.2375
613.5404, 100.0239
614.0225, 99.72365
614.5046, 99.26512
614.9868, 98.51486
615.4689, 97.92558
615.9510, 97.84509
616.4331, 98.22570
616.9152, 97.97836
617.3973, 97.05016
617.8795, 95.97717
618.3616, 95.32373
618.8437, 94.89598
619.3258, 94.23177
619.8079, 93.24500
620.2900, 92.10280
620.7722, 90.89488
621.2543, 89.63190
621.7364, 88.34782
622.2185, 87.10800
622.7006, 85.77204
623.1827, 84.22232
623.6649, 82.53780
624.1470, 80.89290
624.6291, 79.30905
625.1112, 77.74834
625.5933, 76.17819
626.0754, 74.61735
626.5576, 73.29963
627.0397, 72.30263
627.5218, 71.29192
628.0039, 70.00090
628.4860, 68.48782
628.9681, 67.30235
629.4503, 66.45857
629.9324, 65.71208
630.4145, 64.86111
630.8966, 63.94408
631.3787, 63.01342
631.8608, 62.07745
632.3430, 61.17479
632.8251, 60.29132
633.3072, 59.47652
633.7893, 58.77812
634.2714, 58.22062
634.7535, 57.76904
635.2357, 57.46392
635.7178, 57.25273
636.1999, 56.99750
636.6820, 56.56335
637.1641, 56.34906
637.6462, 56.53408
638.1284, 57.02149
638.6105, 57.26244
639.0926, 57.22806
639.5747, 57.22317
640.0568, 57.55052
640.5389, 58.03722
641.0211, 58.01160
641.5032, 57.48174
641.9853, 57.17970
642.4674, 58.01546
642.9495, 59.21832
643.4316, 59.89447
643.9138, 59.77271
644.3959, 59.60799
644.8780, 59.72241
645.3601, 59.94988
645.8422, 60.12465
646.3243, 59.98737
646.8065, 60.14223
647.2886, 60.86227
647.7707, 61.74444
648.2528, 62.04101
648.7349, 61.62199
649.2170, 61.12339
649.6992, 60.61243
650.1813, 60.19615
650.6634, 60.23867
651.1455, 60.69707
651.6276, 61.13282
652.1097, 61.39144
652.5919, 61.44638
653.0740, 61.16626
653.5561, 60.59763
654.0382, 60.09295
654.5203, 59.96506
655.0024, 59.88645
655.4846, 59.58240
655.9667, 58.93156
656.4488, 58.51923
656.9309, 58.75438
657.4130, 58.99850
657.8951, 58.77502
658.3773, 57.81209
658.8594, 57.21987
659.3415, 57.15111
659.8236, 57.24570
660.3057, 56.96453
660.7878, 56.35301
661.2700, 55.89300
661.7521, 55.72260
662.2342, 55.68712
662.7163, 55.68932
663.1984, 55.66563
663.6805, 55.45622
664.1627, 54.51257
664.6448, 53.80709
665.1269, 54.18620
665.6090, 55.34823
666.0911, 56.12349
666.5732, 55.90525
667.0554, 55.59220
667.5375, 55.45663
668.0196, 55.49734
668.5017, 55.60194
668.9838, 55.78307
669.4659, 55.99760
669.9481, 56.27083
670.4302, 56.58674
670.9123, 56.70147
671.3944, 56.60366
671.8765, 56.39693
672.3586, 56.17617
672.8408, 55.91593
673.3229, 55.51833
673.8050, 54.91404
674.2871, 54.43546
674.7692, 54.44696
675.2513, 54.64592
675.7335, 54.70075
676.2156, 54.62549
676.6977, 54.27575
677.1798, 53.43105
677.6619, 52.38343
678.1440, 51.54416
678.6262, 50.93132
679.1083, 50.50918
679.5904, 50.37648
680.0725, 50.33179
680.5546, 49.78883
681.0367, 48.76774
681.5189, 47.75530
682.0010, 46.97053
682.4831, 46.32059
682.9652, 45.63951
683.4473, 44.95543
683.9294, 44.34255
684.4116, 43.92964
684.8937, 43.54188
685.3758, 43.06832
685.8579, 42.50310
686.3400, 41.90594
686.8221, 41.17303
687.3043, 40.51983
687.7864, 40.05823
688.2685, 39.81798
688.7506, 39.63638
689.2327, 39.55724
689.7148, 39.41655
690.1970, 38.96994
690.6791, 38.28521
691.1612, 37.84759
691.6433, 37.74403
692.1254, 37.72801
692.6075, 37.59733
693.0897, 37.37490
693.5718, 37.07045
694.0539, 36.54890
694.5360, 36.20678
695.0181, 36.34726
695.5002, 36.74301
695.9824, 37.04138
696.4645, 37.23265
696.9466, 37.26526
697.4287, 37.06756
697.9108, 36.73502
698.3929, 36.51699
698.8751, 36.43441
699.3572, 36.31391
699.8393, 36.02335
700.3214, 35.71569
700.8035, 35.90249
701.2856, 36.48151
701.7678, 36.85899
702.2499, 36.42202
702.7320, 35.81857
703.2141, 35.68616
703.6962, 35.97915
704.1783, 36.23546
704.6605, 36.33821
705.1426, 36.31440
705.6247, 36.11317
706.1068, 35.69984
706.5889, 35.47704
707.0710, 35.50224
707.5532, 35.62132
708.0353, 35.78796
708.5174, 36.00237
708.9995, 36.01061
709.4816, 35.78503
709.9637, 35.51894
710.4459, 35.35669
710.9280, 35.29609
711.4101, 35.36055
711.8922, 35.57837
712.3743, 35.79546
712.8564, 35.97992
713.3386, 36.08066
713.8207, 36.03605
714.3028, 35.51833
714.7849, 35.33021
715.2670, 35.70598
715.7491, 36.31184
716.2313, 36.74119
716.7134, 36.97034
717.1955, 37.09587
717.6776, 37.11527
718.1597, 37.06453
718.6418, 36.97199
719.1240, 36.85704
719.6061, 36.80906
720.0882, 36.83711
720.5703, 36.97799
721.0524, 37.34637
721.5345, 37.85698
722.0167, 38.30538
722.4988, 38.60463
722.9809, 38.83877
723.4630, 39.02198
723.9451, 39.15919
724.4272, 39.26695
724.9094, 39.30460
725.3915, 39.38813
725.8736, 39.53658
726.3557, 39.76363
726.8378, 40.19991
727.3199, 40.85256
727.8021, 41.48707
728.2842, 41.96994
728.7663, 42.33633
729.2484, 42.62256
729.7305, 42.82971
730.2126, 42.98460
730.6948, 42.96564
731.1769, 43.00219
731.6590, 43.24670
732.1411, 43.72786
732.6232, 44.33792
733.1053, 45.22741
733.5875, 46.05596
734.0696, 46.56812
734.5517, 46.70052
735.0338, 47.05482
735.5159, 47.67784
735.9980, 48.33162
736.4802, 48.75248
736.9623, 49.02789
737.4444, 49.35761
737.9265, 49.75733
738.4086, 50.31377
738.8907, 51.25994
739.3729, 52.32103
739.8550, 53.19444
740.3371, 53.80162
740.8192, 54.26533
741.3013, 54.37288
741.7834, 54.48700
742.2656, 54.99504
742.7477, 56.04804
743.2298, 56.98662
743.7119, 57.74646
744.1940, 58.34985
744.6761, 58.65586
745.1583, 58.77976
745.6404, 59.31387
746.1225, 60.53224
746.6046, 61.92571
747.0867, 63.16071
747.5688, 64.19867
748.0510, 64.95861
748.5331, 64.87960
749.0152, 65.15004
749.4973, 66.52247
749.9794, 68.36648
750.4615, 69.32273
750.9437, 68.80289
751.4258, 68.89638
751.9079, 70.28080
752.3900, 72.33739
752.8721, 73.38179
753.3542, 73.53406
753.8364, 74.11363
754.3185, 75.99839
754.8006, 78.25660
755.2827, 79.81095
755.7648, 80.82155
756.2469, 81.70547
756.7291, 82.22710
757.2112, 83.07394
757.6933, 84.89041
758.1754, 87.39767
758.6575, 89.00784
759.1396, 89.14600
759.6218, 89.52921
760.1039, 90.90348
760.5860, 92.95969
761.0681, 94.33784
761.5502, 95.04953
762.0323, 95.72727
762.5145, 96.92691
762.9966, 98.21242
763.4787, 98.93558
763.9608, 99.16570
764.4429, 99.38107
764.9250, 99.88830
765.4072, 100.3707
765.8893, 100.7157
766.3714, 100.9145
766.8535, 100.8074
767.3356, 100.3185
767.8177, 99.64896
768.2999, 98.83761
768.7820, 97.90968
769.2641, 97.20469
769.7462, 96.73321
770.2283, 96.14160
770.7104, 95.00027
771.1926, 93.66077
771.6747, 92.67529
772.1568, 92.06915
772.6389, 91.35362
773.1210, 90.01220
773.6031, 88.71371
774.0853, 87.95235
774.5674, 87.88508
775.0495, 87.52392
775.5316, 86.70898
776.0137, 85.88060
776.4958, 85.29839
776.9780, 84.95766
777.4601, 84.83392
777.9422, 84.94865
778.4243, 84.91701
778.9064, 84.03935
779.3885, 82.99462
779.8707, 82.82944
780.3528, 83.73422
780.8349, 84.50260
781.3170, 84.37411
781.7991, 84.05850
782.2812, 84.04448
782.7633, 84.37378
783.2454, 84.92293
783.7275, 85.75288
784.2097, 86.66174
784.6918, 87.42168
785.1739, 88.06516
785.6560, 89.03670
786.1381, 90.39305
786.6202, 91.77766
787.1024, 92.81531
787.5845, 93.71841
788.0666, 94.77464
788.5487, 96.09837
789.0308, 97.26670
789.5129, 97.75739
789.9951, 98.30815
790.4772, 99.50041
790.9593, 101.5603
791.4414, 103.6883
791.9235, 105.9913
792.4056, 108.1821
792.8878, 109.8071
793.3699, 111.0348
793.8520, 112.8710
794.3341, 115.4908
794.8162, 118.2377
795.2983, 120.5616
795.7805, 122.7484
796.2626, 125.1192
796.7447, 127.6663
797.2268, 130.5684
797.7089, 134.0907
798.1910, 137.8845
798.6732, 141.7105
799.1553, 145.7600
799.6374, 149.1504
800.1195, 151.5856
800.6016, 154.2411
801.0837, 158.7800
801.5659, 164.5854
802.0480, 169.6870
802.5301, 173.6626
803.0122, 177.7420
803.4943, 182.9369
803.9764, 188.6722
804.4586, 194.4212
804.9407, 200.1078
805.4228, 205.7573
805.9049, 211.3711
806.3870, 216.9355
806.8691, 222.5038
807.3513, 228.0118
807.8334, 233.9957
808.3155, 240.5934
808.7976, 247.0859
809.2797, 252.3577
809.7618, 257.0855
810.2440, 262.5646
810.7261, 269.1050
811.2082, 275.8454
811.6903, 282.2959
812.1724, 288.7630
812.6545, 295.5209
813.1367, 303.1082
813.6188, 309.7656
814.1009, 315.1531
814.5830, 320.0546
815.0651, 325.1789
815.5472, 330.4864
816.0294, 335.4764
816.5115, 340.1092
816.9936, 344.0846
817.4757, 346.8844
817.9578, 348.9209
818.4399, 350.7706
818.9221, 352.6178
819.4042, 353.6380
819.8863, 353.3496
820.3684, 352.2514
820.8505, 350.7379
821.3326, 348.8365
821.8148, 346.3454
822.2969, 343.2542
822.7790, 339.6154
823.2611, 335.5401
823.7432, 330.9777
824.2253, 325.6187
824.7075, 319.4420
825.1896, 313.2784
825.6717, 307.7596
826.1538, 302.5074
826.6359, 297.3332
827.1180, 292.3692
827.6002, 286.7781
828.0823, 280.0415
828.5644, 273.2944
829.0465, 267.1552
829.5286, 261.7007
830.0107, 256.7657
830.4929, 252.4120
830.9750, 248.3620
831.4571, 244.6994
831.9392, 241.1155
832.4213, 237.0217
832.9034, 232.4691
833.3856, 228.2602
833.8677, 224.9767
834.3498, 222.0457
834.8319, 219.0759
835.3140, 216.0406
835.7961, 213.4634
836.2783, 211.4196
836.7604, 209.6248
837.2425, 207.9382
837.7246, 206.3686
838.2067, 204.9606
838.6888, 203.7007
839.1710, 202.5906
839.6531, 201.5562
840.1352, 200.7199
840.6173, 200.1928
841.0994, 199.9669
841.5815, 199.9661
842.0637, 200.2887
842.5458, 200.7129
843.0279, 201.2724
843.5100, 201.8906
843.9921, 201.9730
844.4742, 201.4923
844.9564, 201.1729
845.4385, 201.6240
845.9206, 202.2868
846.4027, 202.1153
846.8848, 201.3904
847.3669, 201.0641
847.8491, 202.0540
848.3312, 203.0222
848.8133, 203.4690
849.2954, 203.4709
849.7775, 203.2018
850.2596, 202.4346
850.7418, 202.1282
851.2239, 202.6226
851.7060, 203.6477
852.1881, 204.6730
852.6702, 205.7059
853.1523, 206.7240
853.6345, 207.3880
854.1166, 208.4524
854.5987, 210.9012
855.0808, 214.0187
855.5629, 216.4731
856.0450, 217.0388
856.5272, 218.3693
857.0093, 220.8920
857.4914, 224.1119
857.9735, 227.0433
858.4556, 229.7209
858.9377, 233.3798
859.4199, 238.4225
859.9020, 243.8661
860.3841, 248.3512
860.8662, 252.5962
861.3483, 257.8116
861.8304, 264.9000
862.3126, 271.8194
862.7947, 277.5206
863.2768, 283.1739
863.7589, 289.8450
864.2410, 297.7816
864.7231, 305.7490
865.2053, 313.8011
865.6874, 321.5770
866.1695, 328.6147
866.6516, 335.2079
867.1337, 342.0397
867.6158, 349.2405
868.0980, 356.3623
868.5801, 363.2139
869.0622, 369.9453
869.5443, 376.6153
870.0264, 383.2249
870.5085, 390.3281
870.9907, 398.2191
871.4728, 405.6542
871.9549, 411.6922
872.4370, 416.4498
872.9191, 420.2859
873.4012, 423.2562
873.8834, 425.5292
874.3655, 427.3610
874.8476, 428.4367
875.3297, 428.7158
875.8118, 428.1706
876.2939, 426.0413
876.7761, 422.3568
877.2582, 417.1322
877.7403, 410.2409
878.2224, 401.7837
878.7045, 392.1572
879.1866, 381.4134
879.6688, 370.7353
880.1509, 361.2915
880.6330, 351.7731
881.1151, 340.6055
881.5972, 328.2284
882.0793, 316.1198
882.5615, 304.2950
883.0436, 293.2187
883.5257, 283.1982
884.0078, 273.8412
884.4899, 264.1905
884.9720, 254.2067
885.4542, 244.6903
885.9363, 235.7832
886.4184, 227.4983
886.9005, 220.0695
887.3826, 213.1772
887.8647, 206.2796
888.3469, 198.8057
888.8290, 191.9844
889.3111, 186.4474
889.7932, 181.6798
890.2753, 177.2497
890.7574, 173.2886
891.2396, 168.8960
891.7217, 163.8775
892.2038, 158.8990
892.6859, 154.7399
893.1680, 151.1322
893.6501, 147.4232
894.1323, 143.4408
894.6144, 139.9780
895.0965, 137.8558
895.5786, 136.0400
896.0607, 133.7704
896.5428, 130.9732
897.0250, 128.1594
897.5071, 125.2689
897.9892, 122.5793
898.4713, 120.2596
898.9534, 118.2672
899.4355, 116.4883
899.9177, 114.9039
900.3998, 113.2832
900.8819, 111.4182
901.3640, 109.5881
901.8461, 107.9725
902.3282, 106.5675
902.8104, 105.2166
903.2925, 103.9258
903.7746, 102.6936
904.2567, 101.5284
904.7388, 100.4272
905.2209, 99.45403
905.7031, 98.55547
906.1852, 97.48542
906.6673, 95.85669
907.1494, 94.46252
907.6315, 93.87745
908.1136, 93.85456
908.5958, 94.05028
909.0779, 94.90059
909.5600, 94.99760
910.0421, 93.97428
910.5242, 92.67102
911.0063, 92.14162
911.4885, 92.26927
911.9706, 92.46055
912.4527, 92.63597
912.9348, 92.81979
913.4169, 93.08387
913.8990, 93.32899
914.3812, 93.39955
914.8633, 93.15913
915.3454, 93.36574
915.8275, 94.44008
916.3096, 95.25751
916.7917, 94.93016
917.2739, 93.70777
917.7560, 93.28217
918.2381, 93.61232
918.7202, 94.20485
919.2023, 94.96634
919.6844, 95.67001
920.1666, 96.17928
920.6487, 96.48682
921.1308, 96.56546
921.6129, 96.15987
922.0950, 95.96472
922.5771, 96.22851
923.0593, 96.72919
923.5414, 96.82290
924.0235, 96.59250
924.5056, 96.62558
924.9877, 97.20729
925.4698, 97.91989
925.9520, 98.43176
926.4341, 98.83984
926.9162, 99.27466
927.3983, 99.87248
927.8804, 100.3196
928.3625, 100.5385
928.8447, 100.7085
929.3268, 100.9808
929.8089, 101.3575
930.2910, 101.8955
930.7731, 102.6080
931.2552, 103.3924
931.7374, 104.2760
932.2195, 105.1331
932.7016, 105.7655
933.1837, 106.1095
933.6658, 106.9146
934.1479, 108.6727
934.6301, 110.1235
935.1122, 110.5898
935.5943, 110.3493
936.0764, 110.6708
936.5585, 111.4698
937.0406, 112.0896
937.5228, 112.0660
938.0049, 111.8454
938.4870, 111.8247
938.9691, 111.8586
939.4512, 111.5828
939.9333, 110.7430
940.4155, 109.9926
940.8976, 109.5344
941.3797, 109.0072
941.8618, 107.6555
942.3439, 105.6796
942.8260, 104.1466
943.3082, 103.2879
943.7903, 102.5574
944.2724, 101.7503
944.7545, 100.7344
945.2366, 99.35727
945.7188, 97.51846
946.2009, 95.51864
946.6830, 93.22593
947.1651, 91.04184
947.6472, 89.28043
948.1293, 87.85503
948.6115, 86.37601
949.0936, 84.85914
949.5757, 83.36886
950.0578, 81.99354
950.5399, 80.63292
951.0220, 79.18288
951.5042, 77.69504
951.9863, 76.36553
952.4684, 75.20086
952.9505, 74.16199
953.4326, 73.18305
953.9147, 72.42287
954.3969, 72.32069
954.8790, 72.65313
955.3611, 72.78484
955.8432, 72.44984
956.3253, 72.12199
956.8074, 71.81912
957.2896, 71.79581
957.7717, 72.32910
958.2538, 73.60622
958.7359, 74.70513
959.2180, 75.55974
959.7001, 76.46313
960.1823, 77.65665
960.6644, 79.07372
961.1465, 80.63388
961.6286, 82.30396
962.1107, 83.79025
962.5928, 84.69498
963.0750, 85.65539
963.5571, 87.06136
964.0392, 88.75535
964.5213, 90.09265
965.0034, 91.03666
965.4855, 91.94863
965.9677, 92.87244
966.4498, 93.97272
966.9319, 95.66322
967.4140, 97.64363
967.8961, 99.36361
968.3782, 100.7450
968.8604, 101.7253
969.3425, 101.9226
969.8246, 102.1023
970.3067, 102.9988
970.7888, 104.6382
971.2709, 105.9021
971.7531, 106.7328
972.2352, 107.5327
972.7173, 108.7475
973.1994, 110.0067
973.6815, 110.7954
974.1636, 111.1495
974.6458, 111.8358
975.1279, 113.3646
975.6100, 114.6841
976.0921, 115.5132
976.5742, 115.9364
977.0563, 116.0515
977.5385, 115.9268
978.0206, 115.9760
978.5027, 116.3762
978.9848, 116.9266
979.4669, 117.7580
979.9490, 118.5252
980.4311, 118.7309
980.9132, 117.8198
981.3953, 117.5032
981.8774, 117.9086
982.3596, 118.5862
982.8417, 119.3484
983.3238, 120.0352
983.8059, 120.0549
984.2880, 119.4290
984.7701, 118.7435
985.2523, 118.2475
985.7344, 117.8592
986.2165, 117.4844
986.6986, 117.1714
987.1807, 117.2656
987.6628, 117.8952
988.1450, 118.1230
988.6271, 117.5371
989.1092, 116.6959
989.5913, 116.3551
990.0734, 116.3793
990.5555, 116.5738
991.0377, 117.1814
991.5198, 117.3049
992.0019, 116.3300
992.4840, 115.1812
992.9661, 114.4835
993.4482, 114.2411
993.9304, 114.5403
994.4125, 115.4049
994.8946, 115.9054
995.3767, 114.9922
995.8588, 113.7063
996.3409, 113.1059
996.8231, 113.0847
997.3052, 112.6864
997.7873, 111.6021
998.2694, 110.4352
998.7515, 109.2640
999.2336, 108.1435
999.7158, 107.3325
1000.198, 106.7054
1000.680, 105.8207
1001.162, 104.5850
1001.644, 103.0157
1002.126, 100.9105
1002.608, 98.65056
1003.091, 96.68998
1003.573, 95.17068
1004.055, 93.02898
1004.537, 90.13309
1005.019, 87.17132
1005.501, 84.50361
1005.983, 82.10764
1006.465, 80.02702
1006.948, 78.14091
1007.430, 75.92465
1007.912, 72.85300
1008.394, 69.83865
1008.876, 67.15162
1009.358, 64.37905
1009.840, 62.04493
1010.322, 59.34131
1010.804, 56.89661
1011.287, 54.74576
1011.769, 52.87548
1012.251, 51.25262
1012.733, 49.90579
1013.215, 48.91455
1013.697, 48.35155
1014.179, 47.77723
1014.661, 47.16836
1015.143, 46.55223
1015.626, 45.86529
1016.108, 45.22673
1016.590, 45.04681
1017.072, 45.24772
1017.554, 45.53320
1018.036, 45.81175
1018.518, 46.09266
1019.000, 46.37913
1019.483, 46.66774
1019.965, 46.94358
1020.447, 47.19294
1020.929, 47.52573
1021.411, 47.96217
1021.893, 48.40564
1022.375, 48.87324
1022.857, 49.22882
1023.339, 49.23443
1023.822, 48.88792
1024.304, 48.59732
1024.786, 48.87328
1025.268, 48.60786
1025.750, 47.30995
1026.232, 45.38666
1026.714, 43.97169
1027.196, 42.97271
1027.679, 41.90954
1028.161, 40.61370
1028.643, 39.26581
1029.125, 37.89093
1029.607, 36.56934
1030.089, 35.41716
1030.571, 34.52110
1031.053, 33.36922
1031.536, 31.86480
1032.018, 30.51604
1032.500, 29.81587
1032.982, 29.44216
1033.464, 28.90015
1033.946, 28.21922
1034.428, 27.54970
1034.910, 26.87369
1035.392, 26.31135
1035.875, 25.87410
1036.357, 25.56545
1036.839, 25.50773
1037.321, 25.64620
1037.803, 25.39881
1038.285, 24.60440
1038.767, 23.92326
1039.249, 24.11366
1039.731, 24.47318
1040.214, 24.36822
1040.696, 23.72531
1041.178, 23.23799
1041.660, 22.92449
1042.142, 22.71142
1042.624, 22.57031
1043.106, 22.50320
1043.588, 22.61263
1044.071, 22.78362
1044.553, 22.75420
1045.035, 22.28049
1045.517, 21.82195
1045.999, 21.40134
1046.481, 21.09338
1046.963, 21.01591
1047.445, 21.15211
1047.927, 21.25152
1048.410, 21.30579
1048.892, 21.31445
1049.374, 21.34620
1049.856, 21.26947
1050.338, 20.83752
1050.820, 20.19003
1051.302, 19.97703
1051.784, 20.34817
1052.266, 20.65820
1052.749, 20.78213
1053.231, 20.78904
1053.713, 20.75832
1054.195, 20.68314
1054.677, 20.51875
1055.159, 20.22345
1055.641, 20.04937
1056.123, 20.18645
1056.606, 20.31965
1057.088, 20.30543
1057.570, 20.16854
1058.052, 20.00270
1058.534, 19.82625
1059.016, 19.76071
1059.498, 19.97313
1059.980, 20.16617
1060.463, 20.16799
1060.945, 20.02852
1061.427, 19.79637
1061.909, 19.39520
1062.391, 19.23373
1062.873, 19.35723
1063.355, 19.53194
1063.837, 19.54605
1064.319, 19.49399
1064.802, 19.54749
1065.284, 19.67689
1065.766, 19.66612
1066.248, 19.29703
1066.730, 19.00070
1067.212, 18.85806
1067.694, 18.81849
1068.176, 18.82681
1068.658, 18.86150
1069.141, 18.80081
1069.623, 18.59002
1070.105, 18.52400
1070.587, 19.11759
1071.069, 19.59967
1071.551, 19.33108
1072.033, 18.39804
1072.515, 18.04172
1072.998, 18.28627
1073.480, 18.53044
1073.962, 18.48329
1074.444, 18.36025
1074.926, 18.42253
1075.408, 18.55403
1075.890, 18.56409
1076.372, 18.23569
1076.854, 18.18038
1077.337, 18.50122
1077.819, 18.81851
1078.301, 18.78361
1078.783, 18.52217
1079.265, 18.25732
1079.747, 18.02286
1080.229, 17.94652
1080.711, 18.25154
1081.193, 18.51535
1081.676, 18.63601
1082.158, 18.65071
1082.640, 18.59318
1083.122, 18.47251
1083.604, 18.36519
1084.086, 18.27778
1084.568, 18.25850
1085.050, 18.40868
1085.532, 18.58666
1086.015, 18.68203
1086.497, 18.70118
1086.979, 18.74737
1087.461, 18.83525
1087.943, 18.84292
1088.425, 18.69916
1088.907, 18.52768
1089.389, 18.48306
1089.872, 18.51808
1090.354, 18.56019
1090.836, 18.57128
1091.318, 18.66838
1091.800, 18.88077
1092.282, 19.12657
1092.764, 19.41325
1093.246, 19.67503
1093.729, 19.64436
1094.211, 19.39864
1094.693, 19.22799
1095.175, 19.27276
1095.657, 19.39281
1096.139, 19.62616
1096.621, 19.84896
1097.103, 19.89920
1097.585, 19.78667
1098.068, 19.71996
1098.550, 19.71233
1099.032, 19.83066
1099.514, 20.39649
1099.996, 20.84915
1100.478, 20.62452
1100.960, 19.96299
1101.442, 19.82147
1101.924, 20.31469
1102.407, 20.64004
1102.889, 20.62225
1103.371, 20.51912
1103.853, 20.51337
1104.335, 20.65270
1104.817, 21.08937
1105.299, 21.89321
1105.781, 22.33795
1106.264, 22.25803
1106.746, 22.12053
1107.228, 22.11261
1107.710, 21.92877
1108.192, 21.94673
1108.674, 21.63762
1109.156, 21.41375
1109.638, 21.32868
1110.120, 21.36780
1110.603, 21.61605
1111.085, 21.88096
1111.567, 22.02699
1112.049, 22.08019
1112.531, 22.31114
1113.013, 22.66692
1113.495, 22.83085
1113.977, 22.35156
1114.459, 21.96746
1114.942, 22.14007
1115.424, 22.55243
1115.906, 22.80439
1116.388, 22.88651
1116.870, 22.89074
1117.352, 22.81805
1117.834, 22.76532
1118.316, 22.83489
1118.799, 22.93410
1119.281, 22.97651
1119.763, 22.97933
1120.245, 23.04629
1120.727, 23.24319
1121.209, 23.21723
1121.691, 22.83421
1122.173, 22.50754
1122.656, 22.93652
1123.138, 23.60939
1123.620, 23.77938
1124.102, 23.34455
1124.584, 23.05426
1125.066, 23.09252
1125.548, 23.07853
1126.030, 22.85512
1126.512, 22.56887
1126.995, 22.54567
1127.477, 22.68666
1127.959, 22.74876
1128.441, 22.63444
1128.923, 22.58893
1129.405, 22.75580
1129.887, 22.93286
1130.369, 23.03169
1130.851, 23.05596
1131.334, 22.98808
1131.816, 22.85444
1132.298, 22.78123
1132.780, 22.87382
1133.262, 22.95566
1133.744, 22.89081
1134.226, 22.81808
1134.708, 22.92072
1135.191, 23.22697
1135.673, 23.14318
1136.155, 22.68060
1136.637, 22.23316
1137.119, 21.96586
1137.601, 21.88511
1138.083, 22.12338
1138.565, 22.52204
1139.047, 22.76556
1139.530, 22.86609
1140.012, 22.69277
1140.494, 22.20052
1140.976, 21.75814
1141.458, 21.76433
1141.940, 21.93855
1142.422, 22.02209
1142.904, 22.01313
1143.386, 21.99582
1143.869, 21.97080
1144.351, 21.95392
1144.833, 21.94830
1145.315, 21.94977
1145.797, 21.99534
1146.279, 22.02305
1146.761, 21.91718
1147.243, 21.66132
1147.726, 21.47110
1148.208, 21.45557
1148.690, 21.32998
1149.172, 20.94708
1149.654, 20.50074
1150.136, 20.37821
1150.618, 20.47062
1151.100, 20.56635
1151.583, 20.62018
1152.065, 20.66837
1152.547, 20.79402
1153.029, 20.80663
1153.511, 20.57418
1153.993, 20.18532
1154.475, 19.88287
1154.957, 19.67083
1155.439, 19.58089
1155.922, 19.73969
1156.404, 19.78255
1156.886, 19.35689
1157.368, 18.97849
1157.850, 19.06292
1158.332, 19.53437
1158.814, 19.64365
1159.296, 19.43142
1159.778, 19.16142
1160.261, 18.83302
1160.743, 18.64202
1161.225, 18.77979
1161.707, 19.04287
1162.189, 19.27206
1162.671, 19.47195
1163.153, 19.35061
1163.635, 18.91222
1164.118, 18.48759
1164.600, 18.21322
1165.082, 18.11829
1165.564, 18.40046
1166.046, 18.81357
1166.528, 18.87316
1167.010, 18.53115
1167.492, 18.30719
1167.974, 18.24979
1168.457, 18.23320
1168.939, 18.16456
1169.421, 18.08281
1169.903, 18.01715
1170.385, 17.96513
1170.867, 17.90635
1171.349, 17.83516
1171.831, 17.78027
1172.313, 17.74052
1172.796, 17.75640
1173.278, 17.98728
1173.760, 18.20847
1174.242, 18.13779
1174.724, 17.77641
1175.206, 17.61080
1175.688, 17.69460
1176.170, 17.76724
1176.653, 17.75552
1177.135, 17.72831
1177.617, 17.78895
1178.099, 17.87510
1178.581, 17.90139
1179.063, 17.84760
1179.545, 17.82713
1180.027, 17.85010
1180.510, 17.88187
1180.992, 17.91567
1181.474, 17.93989
1181.956, 17.91962
1182.438, 17.88528
1182.920, 17.87486
1183.402, 17.88032
1183.884, 18.01488
1184.366, 18.37206
1184.849, 18.58866
1185.331, 18.43223
1185.813, 18.09121
1186.295, 17.86852
1186.777, 17.73598
1187.259, 17.63769
1187.741, 17.51631
1188.223, 17.56124
1188.705, 17.85103
1189.188, 18.12889
1189.670, 18.20780
1190.152, 18.17370
1190.634, 18.19314
1191.116, 18.25316
1191.598, 18.32284
1192.080, 18.41891
1192.562, 18.47413
1193.045, 18.45966
1193.527, 18.45984
1194.009, 18.57544
1194.491, 18.74377
1194.973, 18.82391
1195.455, 18.82589
1195.937, 18.78998
1196.419, 18.70063
1196.901, 18.60985
1197.384, 18.49796
1197.866, 18.43424
1198.348, 18.54397
1198.830, 18.73253
1199.312, 18.72287
1199.794, 18.55647
1200.276, 18.48439
1200.758, 18.78100
1201.240, 18.91648
1201.723, 18.77354
1202.205, 18.52006
1202.687, 18.29650
1203.169, 18.13853
1203.651, 18.15347
1204.133, 18.33726
1204.615, 18.58636
1205.097, 19.04850
1205.580, 19.29496
1206.062, 19.18601
1206.544, 18.93553
1207.026, 18.81944
1207.508, 18.81411
1207.990, 18.89776
1208.472, 19.06041
1208.954, 19.16887
1209.437, 19.15722
1209.919, 19.10070
1210.401, 19.00485
1210.883, 18.88906
1211.365, 18.74015
1211.847, 18.60690
1212.329, 18.63966
1212.811, 18.86404
1213.293, 19.00741
1213.776, 18.86776
1214.258, 18.79568
1214.740, 18.92398
1215.222, 19.11364
1215.704, 19.05718
1216.186, 18.85961
1216.668, 18.77285
1217.150, 18.85084
1217.632, 18.90926
1218.115, 18.82533
1218.597, 18.84304
1219.079, 19.12287
1219.561, 19.44018
1220.043, 19.22784
1220.525, 18.72709
1221.007, 18.48900
1221.489, 18.66980
1221.972, 18.84493
1222.454, 18.95287
1222.936, 18.97398
1223.418, 18.83869
1223.900, 18.69176
1224.382, 18.99299
1224.864, 19.48406
1225.346, 19.56281
1225.828, 18.93600
1226.311, 18.57915
1226.793, 18.76904
1227.275, 18.93907
1227.757, 18.79155
1228.239, 18.51734
1228.721, 18.52547
1229.203, 18.70809
1229.685, 18.86781
1230.167, 19.00480
1230.650, 18.90795
1231.132, 18.42984
1231.614, 18.07369
1232.096, 18.15009
1232.578, 18.44625
1233.060, 18.62883
1233.542, 18.70046
1234.024, 18.64828
1234.507, 18.39066
1234.989, 18.22535
1235.471, 18.19547
1235.953, 18.15897
1236.435, 18.00217
1236.917, 17.82520
1237.399, 17.85145
1237.881, 17.96317
1238.364, 17.93729
1238.846, 17.61914
1239.328, 17.44346
1239.810, 17.45148
1240.292, 17.44266
1240.774, 17.27092
1241.256, 17.03617
1241.738, 16.82797
1242.220, 16.66743
1242.703, 16.61255
1243.185, 16.78644
1243.667, 16.67135
1244.149, 16.21700
1244.631, 15.77904
1245.113, 15.56748
1245.595, 15.52068
1246.077, 15.68438
1246.559, 15.93047
1247.042, 16.02298
1247.524, 15.89803
1248.006, 15.82759
1248.488, 15.81737
1248.970, 15.79048
1249.452, 15.66040
1249.934, 15.52773
1250.416, 15.51934
1250.899, 15.54875
1251.381, 15.46665
1251.863, 15.23810
1252.345, 15.14602
1252.827, 15.19282
1253.309, 15.08127
1253.791, 14.32913
1254.273, 13.65938
1254.755, 13.64530
1255.238, 13.97353
1255.720, 14.22154
1256.202, 14.39349
1256.684, 14.35408
1257.166, 14.11479
1257.648, 13.91230
1258.130, 13.90653
1258.612, 13.95771
1259.094, 14.07022
1259.577, 14.14667
1260.059, 14.06286
1260.541, 13.83216
1261.023, 13.61307
1261.505, 13.41367
1261.987, 13.25810
1262.469, 13.17786
1262.951, 13.12237
1263.434, 13.08595
1263.916, 13.05170
1264.398, 13.00563
1264.880, 12.94680
1265.362, 12.84683
1265.844, 12.72183
1266.326, 12.65992
1266.808, 12.75551
1267.291, 12.84221
1267.773, 12.89696
1268.255, 12.92443
1268.737, 12.97290
1269.219, 12.98313
1269.701, 12.67108
1270.183, 12.16243
1270.665, 11.95458
1271.147, 12.60654
1271.630, 12.92724
1272.112, 12.75004
1272.594, 12.47230
1273.076, 12.50037
1273.558, 12.64350
1274.040, 12.58076
1274.522, 12.37209
1275.004, 12.23632
1275.486, 12.24455
1275.969, 12.22587
1276.451, 12.16607
1276.933, 12.10413
1277.415, 12.06556
1277.897, 12.04985
1278.379, 12.07346
1278.861, 12.11705
1279.343, 12.13239
1279.825, 12.11118
1280.308, 12.11349
1280.790, 12.14658
1281.272, 12.11252
1281.754, 11.79122
1282.236, 11.52808
1282.718, 11.64594
1283.200, 11.95229
1283.682, 12.14785
1284.165, 12.23456
1284.647, 12.12417
1285.129, 11.83044
1285.611, 11.61279
1286.093, 11.74311
1286.575, 11.84862
1287.057, 11.69217
1287.539, 11.48287
1288.021, 11.43575
1288.504, 11.53296
1288.986, 11.74007
1289.468, 12.01599
1289.950, 12.14142
1290.432, 11.87617
1290.914, 11.63060
1291.396, 11.45235
1291.878, 11.37407
1292.360, 11.48702
1292.843, 11.70038
1293.325, 11.78151
1293.807, 11.75838
1294.289, 11.74865
1294.771, 11.85519
1295.253, 11.85619
1295.735, 11.71661
1296.217, 11.55728
1296.700, 11.51336
1297.182, 11.48734
1297.664, 11.26910
1298.146, 10.96980
1298.628, 10.89237
1299.110, 11.13262
1299.592, 11.32191
1300.074, 11.44922
1300.557, 11.53457
1301.039, 11.54457
1301.521, 11.56838
1302.003, 11.65307
1302.485, 11.81996
1302.967, 12.08392
1303.449, 12.45207
##END=



