##NAMES=Grossular
##RRUFFID=R060452
##IDEAL CHEMISTRY=Ca_3_Al_2_(SiO_4_)_3_
##LOCALITY=unknown
##OWNER=RRUFF
##SOURCE=Gemological Institute of America
##DESCRIPTION=Yellowish-brown colored fragment
##STATUS=The identification of this mineral has been confirmed by X-ray diffraction and chemical analysis
##URL=rruff.info/R060452
##MEASURED CHEMISTRY=(Ca_2.94_Mn_0.03_Mg_0.03_)_Σ=3_(Al_1.91_Fe^3+^_0.06_Ti_0.03_)_Σ=2_((Si_0.99_Al_0.01_)_Σ=1_O_4_)_3_
119.5731, 25.64698
120.0552, 22.82471
120.5373, 18.97590
121.0194, 18.13358
121.5015, 21.12579
121.9836, 24.89178
122.4658, 29.51549
122.9479, 33.99118
123.4300, 37.16031
123.9121, 38.41827
124.3942, 38.57205
124.8763, 39.69122
125.3585, 42.98515
125.8406, 45.11654
126.3227, 44.11642
126.8048, 42.12963
127.2869, 41.65196
127.7690, 44.05417
128.2512, 48.67738
128.7333, 52.75499
129.2154, 55.49078
129.6975, 58.65589
130.1796, 62.91892
130.6617, 67.71714
131.1439, 72.33323
131.6260, 76.38345
132.1081, 79.83284
132.5902, 82.38965
133.0723, 82.21481
133.5544, 83.01917
134.0366, 85.88423
134.5187, 90.20943
135.0008, 95.10372
135.4829, 100.0990
135.9650, 105.1127
136.4471, 108.0585
136.9293, 106.9742
137.4114, 106.0396
137.8935, 106.2590
138.3756, 107.6201
138.8577, 109.9012
139.3398, 113.0585
139.8220, 117.1124
140.3041, 120.5834
140.7862, 122.5977
141.2683, 124.9839
141.7504, 128.3332
142.2325, 132.6977
142.7147, 138.1158
143.1968, 144.8961
143.6789, 153.0304
144.1610, 159.9531
144.6431, 163.9815
145.1252, 168.3256
145.6074, 175.4527
146.0895, 185.0400
146.5716, 194.3044
147.0537, 200.7322
147.5358, 204.2997
148.0179, 209.7990
148.5001, 218.0242
148.9822, 227.5271
149.4643, 238.1319
149.9464, 249.7207
150.4285, 260.1155
150.9106, 266.8463
151.3928, 270.3333
151.8749, 276.0174
152.3570, 287.2078
152.8391, 298.8940
153.3212, 305.8416
153.8033, 307.5376
154.2855, 308.7426
154.7676, 313.7220
155.2497, 321.5295
155.7318, 327.9912
156.2139, 330.7492
156.6960, 332.6932
157.1782, 337.6220
157.6603, 346.1161
158.1424, 354.7434
158.6245, 359.3553
159.1066, 361.8993
159.5887, 367.3975
160.0709, 379.2711
160.5530, 393.9920
161.0351, 406.0133
161.5172, 414.3610
161.9993, 423.0140
162.4814, 434.9153
162.9636, 449.0706
163.4457, 464.3506
163.9278, 481.9390
164.4099, 499.9088
164.8920, 514.6872
165.3741, 526.0224
165.8563, 534.6750
166.3384, 540.4952
166.8205, 544.1694
167.3026, 546.6075
167.7847, 548.6489
168.2668, 549.5463
168.7490, 547.1981
169.2311, 540.2259
169.7132, 533.0507
170.1953, 527.9336
170.6774, 524.1608
171.1595, 520.7175
171.6417, 517.1880
172.1238, 513.6724
172.6059, 510.0366
173.0880, 505.1223
173.5701, 502.6268
174.0522, 504.2497
174.5344, 508.9435
175.0165, 515.2821
175.4986, 522.3246
175.9807, 530.7277
176.4628, 542.0724
176.9449, 555.3907
177.4271, 574.1011
177.9092, 600.5068
178.3913, 631.8466
178.8734, 665.7482
179.3555, 704.2162
179.8376, 742.0227
180.3197, 764.6749
180.8019, 771.5375
181.2840, 762.0430
181.7661, 732.4052
182.2482, 690.7017
182.7303, 645.9387
183.2124, 601.3719
183.6946, 558.2090
184.1767, 519.6506
184.6588, 485.6014
185.1409, 457.5550
185.6230, 435.6071
186.1051, 418.8724
186.5873, 406.4979
187.0694, 398.3158
187.5515, 393.6898
188.0336, 391.0123
188.5157, 391.2178
188.9978, 391.9669
189.4800, 392.6730
189.9621, 393.5724
190.4442, 395.3732
190.9263, 398.5423
191.4084, 401.7379
191.8905, 401.1811
192.3727, 393.1064
192.8548, 388.0539
193.3369, 390.0887
193.8190, 394.3840
194.3011, 395.8787
194.7832, 392.5201
195.2654, 386.9908
195.7475, 385.1071
196.2296, 388.3608
196.7117, 392.7618
197.1938, 399.2279
197.6759, 405.6327
198.1581, 410.1673
198.6402, 412.2357
199.1223, 412.4014
199.6044, 411.4664
200.0865, 408.4495
200.5686, 406.3050
201.0508, 404.4683
201.5329, 403.8862
202.0150, 406.1553
202.4971, 411.4624
202.9792, 417.4029
203.4613, 419.9430
203.9435, 417.3902
204.4256, 415.1037
204.9077, 413.1369
205.3898, 411.6072
205.8719, 410.1807
206.3540, 408.9746
206.8362, 408.9189
207.3183, 411.2316
207.8004, 415.9608
208.2825, 423.1762
208.7646, 439.1335
209.2467, 452.5524
209.7289, 454.6104
210.2110, 445.5826
210.6931, 433.9180
211.1752, 429.5581
211.6573, 434.5930
212.1395, 439.5044
212.6216, 444.2721
213.1037, 448.9196
213.5858, 453.5095
214.0679, 457.9862
214.5500, 462.1168
215.0322, 465.2891
215.5143, 466.9535
215.9964, 471.3829
216.4785, 480.7340
216.9606, 490.8254
217.4427, 501.3797
217.9249, 511.5357
218.4070, 519.6429
218.8891, 523.8889
219.3712, 524.1196
219.8533, 526.0897
220.3354, 530.0945
220.8176, 535.7153
221.2997, 544.2525
221.7818, 554.3517
222.2639, 563.1905
222.7460, 568.2261
223.2281, 570.2180
223.7103, 576.9444
224.1924, 594.9615
224.6745, 610.8149
225.1566, 619.9103
225.6387, 625.4743
226.1208, 632.5054
226.6030, 643.9425
227.0851, 658.7749
227.5672, 672.5803
228.0493, 682.5042
228.5314, 695.5656
229.0135, 716.6673
229.4957, 739.9207
229.9778, 757.8022
230.4599, 766.7472
230.9420, 770.9290
231.4241, 780.8199
231.9062, 799.3184
232.3884, 818.9810
232.8705, 841.0464
233.3526, 862.4269
233.8347, 878.9014
234.3168, 889.3256
234.7989, 899.3929
235.2811, 920.1718
235.7632, 958.9955
236.2453, 991.2010
236.7274, 1012.926
237.2095, 1029.792
237.6916, 1046.639
238.1738, 1063.869
238.6559, 1077.104
239.1380, 1078.008
239.6201, 1060.286
240.1022, 1053.835
240.5843, 1071.656
241.0665, 1091.154
241.5486, 1100.900
242.0307, 1101.136
242.5128, 1099.554
242.9949, 1100.938
243.4770, 1104.488
243.9592, 1121.337
244.4413, 1165.924
244.9234, 1211.182
245.4055, 1251.726
245.8876, 1285.192
246.3697, 1308.115
246.8519, 1317.849
247.3340, 1314.864
247.8161, 1302.877
248.2982, 1278.441
248.7803, 1248.499
249.2624, 1212.280
249.7446, 1173.208
250.2267, 1136.161
250.7088, 1102.415
251.1909, 1073.500
251.6730, 1053.890
252.1551, 1045.143
252.6373, 1043.135
253.1194, 1049.032
253.6015, 1059.031
254.0836, 1068.752
254.5657, 1076.189
255.0478, 1084.422
255.5300, 1099.382
256.0121, 1123.003
256.4942, 1145.877
256.9763, 1163.232
257.4584, 1180.004
257.9406, 1199.789
258.4227, 1223.328
258.9048, 1249.570
259.3869, 1280.974
259.8690, 1318.235
260.3511, 1345.077
260.8333, 1354.140
261.3154, 1354.940
261.7975, 1351.811
262.2796, 1345.661
262.7617, 1342.490
263.2438, 1352.137
263.7260, 1370.722
264.2081, 1374.029
264.6902, 1352.282
265.1723, 1325.805
265.6544, 1312.356
266.1365, 1307.497
266.6187, 1296.371
267.1008, 1267.514
267.5829, 1228.449
268.0650, 1194.798
268.5471, 1167.662
269.0292, 1143.679
269.5114, 1119.230
269.9935, 1096.622
270.4756, 1080.917
270.9577, 1077.350
271.4398, 1078.015
271.9219, 1071.405
272.4041, 1057.090
272.8862, 1050.793
273.3683, 1063.787
273.8504, 1088.687
274.3325, 1109.933
274.8146, 1124.870
275.2968, 1139.783
275.7789, 1161.040
276.2610, 1186.457
276.7431, 1207.944
277.2252, 1224.128
277.7073, 1232.709
278.1895, 1230.914
278.6716, 1220.049
279.1537, 1198.006
279.6358, 1158.981
280.1179, 1109.336
280.6000, 1058.311
281.0822, 1006.966
281.5643, 959.4687
282.0464, 921.5107
282.5285, 893.8920
283.0106, 868.0756
283.4927, 841.2010
283.9749, 817.0070
284.4570, 798.3414
284.9391, 785.5273
285.4212, 778.5984
285.9033, 779.1574
286.3854, 786.9901
286.8676, 789.5944
287.3497, 781.9488
287.8318, 774.4519
288.3139, 773.0139
288.7960, 775.9077
289.2781, 777.3536
289.7603, 773.4803
290.2424, 766.8353
290.7245, 768.4785
291.2066, 788.8272
291.6887, 804.0256
292.1708, 805.9439
292.6530, 802.3981
293.1351, 803.4916
293.6172, 812.7241
294.0993, 825.9280
294.5814, 835.7089
295.0635, 840.1123
295.5457, 844.5361
296.0278, 845.8943
296.5099, 849.4163
296.9920, 861.0941
297.4741, 880.1659
297.9562, 898.9636
298.4384, 909.0867
298.9205, 908.8147
299.4026, 911.9059
299.8847, 919.6639
300.3668, 929.3477
300.8489, 941.4590
301.3310, 954.8145
301.8131, 967.0626
302.2953, 976.3948
302.7774, 983.6827
303.2595, 993.5939
303.7416, 1008.870
304.2237, 1022.746
304.7058, 1032.968
305.1880, 1041.605
305.6701, 1050.845
306.1522, 1061.501
306.6343, 1072.901
307.1164, 1083.774
307.5985, 1093.616
308.0807, 1104.660
308.5628, 1116.822
309.0449, 1130.702
309.5270, 1148.054
310.0091, 1168.559
310.4912, 1187.822
310.9734, 1199.444
311.4555, 1204.668
311.9376, 1217.622
312.4197, 1242.662
312.9018, 1270.911
313.3839, 1297.615
313.8661, 1322.975
314.3482, 1347.117
314.8303, 1369.079
315.3124, 1390.327
315.7945, 1414.195
316.2766, 1441.355
316.7588, 1467.081
317.2409, 1488.929
317.7230, 1507.309
318.2051, 1522.227
318.6872, 1530.868
319.1693, 1540.823
319.6515, 1556.136
320.1336, 1577.006
320.6157, 1606.432
321.0978, 1648.995
321.5799, 1694.645
322.0620, 1723.018
322.5442, 1728.682
323.0263, 1750.629
323.5084, 1821.027
323.9905, 1904.998
324.4726, 1953.656
324.9547, 1959.112
325.4369, 1951.837
325.9190, 1958.601
326.4011, 1980.959
326.8832, 2011.052
327.3653, 2053.188
327.8474, 2098.880
328.3296, 2143.521
328.8117, 2187.813
329.2938, 2234.978
329.7759, 2287.589
330.2580, 2343.868
330.7401, 2394.045
331.2223, 2432.185
331.7044, 2471.832
332.1865, 2515.731
332.6686, 2561.326
333.1507, 2603.967
333.6328, 2642.741
334.1150, 2683.870
334.5971, 2737.786
335.0792, 2809.754
335.5613, 2879.983
336.0434, 2942.426
336.5255, 3008.454
337.0077, 3084.817
337.4898, 3170.004
337.9719, 3258.876
338.4540, 3348.472
338.9361, 3437.963
339.4182, 3518.397
339.9004, 3574.922
340.3825, 3644.287
340.8646, 3744.164
341.3467, 3859.205
341.8288, 3968.551
342.3109, 4063.557
342.7931, 4156.156
343.2752, 4270.867
343.7573, 4414.103
344.2394, 4533.829
344.7215, 4597.116
345.2036, 4648.640
345.6858, 4726.137
346.1679, 4831.084
346.6500, 4936.852
347.1321, 5034.178
347.6142, 5119.410
348.0963, 5180.355
348.5785, 5211.788
349.0606, 5231.721
349.5427, 5261.160
350.0248, 5291.265
350.5069, 5292.006
350.9890, 5247.905
351.4712, 5180.516
351.9533, 5104.402
352.4354, 5019.490
352.9175, 4925.272
353.3996, 4822.429
353.8817, 4709.097
354.3639, 4576.788
354.8460, 4418.457
355.3281, 4261.896
355.8102, 4114.325
356.2923, 3971.458
356.7744, 3829.803
357.2566, 3688.078
357.7387, 3549.285
358.2208, 3415.028
358.7029, 3282.166
359.1850, 3172.974
359.6671, 3094.412
360.1493, 3028.952
360.6314, 2969.818
361.1135, 2917.589
361.5956, 2874.017
362.0777, 2839.329
362.5598, 2816.074
363.0420, 2814.199
363.5241, 2846.052
364.0062, 2880.855
364.4883, 2905.924
364.9704, 2937.361
365.4525, 2992.787
365.9347, 3074.026
366.4168, 3163.263
366.8989, 3237.731
367.3810, 3296.474
367.8631, 3367.635
368.3452, 3469.862
368.8274, 3563.461
369.3095, 3623.132
369.7916, 3659.765
370.2737, 3699.014
370.7558, 3750.740
371.2379, 3813.746
371.7201, 3891.260
372.2022, 3985.721
372.6843, 4071.215
373.1664, 4145.658
373.6485, 4196.948
374.1306, 4216.515
374.6128, 4208.989
375.0949, 4151.884
375.5770, 4021.189
376.0591, 3834.954
376.5412, 3622.271
377.0233, 3386.364
377.5055, 3144.078
377.9876, 2908.773
378.4697, 2681.758
378.9518, 2471.990
379.4339, 2278.187
379.9160, 2103.666
380.3982, 1954.326
380.8803, 1827.326
381.3624, 1716.840
381.8445, 1619.644
382.3266, 1536.650
382.8087, 1469.441
383.2909, 1431.150
383.7730, 1393.408
384.2551, 1355.069
384.7372, 1317.440
385.2193, 1280.518
385.7014, 1244.920
386.1836, 1212.426
386.6657, 1184.682
387.1478, 1161.790
387.6299, 1143.891
388.1120, 1134.977
388.5941, 1126.604
389.0763, 1115.582
389.5584, 1103.386
390.0405, 1092.053
390.5226, 1081.761
391.0047, 1074.403
391.4868, 1074.117
391.9690, 1081.717
392.4511, 1088.556
392.9332, 1091.482
393.4153, 1093.596
393.8974, 1096.968
394.3795, 1101.706
394.8617, 1109.492
395.3438, 1124.318
395.8259, 1141.622
396.3080, 1153.485
396.7901, 1159.008
397.2722, 1162.355
397.7544, 1164.975
398.2365, 1167.862
398.7186, 1175.265
399.2007, 1188.957
399.6828, 1204.936
400.1649, 1222.507
400.6471, 1241.132
401.1292, 1261.128
401.6113, 1282.728
402.0934, 1302.536
402.5755, 1315.581
403.0576, 1319.828
403.5398, 1322.788
404.0219, 1320.703
404.5040, 1320.995
404.9861, 1330.334
405.4682, 1345.358
405.9503, 1356.697
406.4325, 1357.583
406.9146, 1352.335
407.3967, 1356.669
407.8788, 1374.872
408.3609, 1394.074
408.8430, 1415.773
409.3252, 1434.923
409.8073, 1444.680
410.2894, 1444.914
410.7715, 1447.117
411.2536, 1459.332
411.7357, 1481.482
412.2179, 1515.888
412.7000, 1568.828
413.1821, 1618.979
413.6642, 1646.351
414.1463, 1660.680
414.6284, 1680.781
415.1106, 1721.472
415.5927, 1755.154
416.0748, 1758.308
416.5569, 1737.633
417.0390, 1713.876
417.5211, 1694.427
418.0033, 1673.080
418.4854, 1639.057
418.9675, 1586.377
419.4496, 1541.703
419.9317, 1511.791
420.4138, 1485.651
420.8960, 1454.672
421.3781, 1420.430
421.8602, 1389.924
422.3423, 1367.607
422.8244, 1352.300
423.3065, 1338.791
423.7887, 1325.233
424.2708, 1316.739
424.7529, 1317.260
425.2350, 1320.223
425.7171, 1319.873
426.1992, 1315.654
426.6814, 1311.644
427.1635, 1311.836
427.6456, 1315.941
428.1277, 1320.062
428.6098, 1322.643
429.0919, 1328.310
429.5741, 1340.544
430.0562, 1357.009
430.5383, 1374.847
431.0204, 1394.258
431.5025, 1413.034
431.9846, 1429.626
432.4668, 1444.111
432.9489, 1456.127
433.4310, 1464.892
433.9131, 1473.559
434.3952, 1486.484
434.8773, 1504.221
435.3595, 1519.536
435.8416, 1533.232
436.3237, 1543.270
436.8058, 1548.114
437.2879, 1548.299
437.7701, 1544.544
438.2522, 1536.919
438.7343, 1527.520
439.2164, 1521.843
439.6985, 1522.620
440.1806, 1522.373
440.6628, 1524.887
441.1449, 1523.292
441.6270, 1510.305
442.1091, 1488.286
442.5912, 1466.814
443.0733, 1452.995
443.5555, 1445.467
444.0376, 1439.859
444.5197, 1437.796
445.0018, 1433.063
445.4839, 1420.517
445.9660, 1405.427
446.4482, 1393.301
446.9303, 1385.332
447.4124, 1376.513
447.8945, 1363.071
448.3766, 1346.731
448.8587, 1330.117
449.3409, 1313.252
449.8230, 1300.129
450.3051, 1296.201
450.7872, 1299.641
451.2693, 1292.951
451.7514, 1263.251
452.2336, 1239.192
452.7157, 1238.368
453.1978, 1245.914
453.6799, 1239.041
454.1620, 1211.863
454.6441, 1178.596
455.1263, 1157.358
455.6084, 1149.810
456.0905, 1144.987
456.5726, 1150.450
457.0547, 1150.829
457.5368, 1137.268
458.0190, 1116.477
458.5011, 1099.343
458.9832, 1090.631
459.4653, 1086.174
459.9474, 1080.470
460.4295, 1073.528
460.9117, 1065.774
461.3938, 1055.346
461.8759, 1046.870
462.3580, 1046.465
462.8401, 1052.347
463.3222, 1054.961
463.8044, 1049.831
464.2865, 1041.834
464.7686, 1033.204
465.2507, 1025.021
465.7328, 1021.834
466.2149, 1026.371
466.6971, 1034.244
467.1792, 1036.622
467.6613, 1028.640
468.1434, 1025.463
468.6255, 1033.549
469.1076, 1040.760
469.5898, 1037.693
470.0719, 1026.891
470.5540, 1017.305
471.0361, 1014.759
471.5182, 1016.659
472.0003, 1014.724
472.4825, 1006.334
472.9646, 1001.320
473.4467, 1003.169
473.9288, 1008.220
474.4109, 1015.463
474.8930, 1024.361
475.3752, 1032.458
475.8573, 1037.897
476.3394, 1041.812
476.8215, 1046.229
477.3036, 1051.191
477.7857, 1055.749
478.2679, 1059.492
478.7500, 1062.468
479.2321, 1064.716
479.7142, 1065.976
480.1963, 1067.263
480.6784, 1069.205
481.1606, 1070.965
481.6427, 1071.573
482.1248, 1071.131
482.6069, 1070.430
483.0890, 1069.889
483.5711, 1069.771
484.0533, 1071.317
484.5354, 1072.784
485.0175, 1079.175
485.4996, 1094.708
485.9817, 1112.305
486.4638, 1126.651
486.9460, 1137.102
487.4281, 1145.593
487.9102, 1151.716
488.3923, 1157.138
488.8744, 1167.058
489.3565, 1181.792
489.8387, 1199.631
490.3208, 1222.242
490.8029, 1246.072
491.2850, 1262.700
491.7671, 1267.639
492.2492, 1278.437
492.7314, 1306.906
493.2135, 1340.900
493.6956, 1366.267
494.1777, 1382.011
494.6598, 1395.730
495.1419, 1413.083
495.6241, 1433.398
496.1062, 1452.746
496.5883, 1469.145
497.0704, 1487.296
497.5525, 1509.560
498.0346, 1532.447
498.5168, 1553.201
498.9989, 1571.443
499.4810, 1588.291
499.9631, 1605.883
500.4452, 1622.806
500.9273, 1631.226
501.4095, 1628.009
501.8916, 1629.631
502.3737, 1644.060
502.8558, 1667.441
503.3379, 1693.082
503.8200, 1720.935
504.3022, 1750.417
504.7843, 1785.986
505.2664, 1820.314
505.7485, 1839.138
506.2306, 1844.803
506.7127, 1858.396
507.1949, 1895.152
507.6770, 1949.687
508.1591, 1998.334
508.6412, 2044.066
509.1233, 2078.886
509.6054, 2095.647
510.0876, 2107.160
510.5697, 2122.458
511.0518, 2141.759
511.5339, 2159.547
512.0161, 2169.053
512.4982, 2175.959
512.9803, 2198.580
513.4624, 2239.846
513.9445, 2278.674
514.4266, 2310.294
514.9088, 2333.347
515.3909, 2342.110
515.8730, 2334.437
516.3551, 2340.004
516.8372, 2379.899
517.3193, 2427.986
517.8015, 2457.575
518.2836, 2472.186
518.7657, 2494.130
519.2478, 2536.073
519.7299, 2588.067
520.2120, 2626.059
520.6942, 2641.914
521.1763, 2659.146
521.6584, 2677.647
522.1405, 2697.414
522.6226, 2720.461
523.1047, 2744.832
523.5869, 2765.917
524.0690, 2781.753
524.5511, 2792.424
525.0332, 2798.513
525.5153, 2800.003
525.9974, 2794.394
526.4796, 2780.052
526.9617, 2760.093
527.4438, 2739.349
527.9259, 2717.240
528.4080, 2684.425
528.8901, 2628.809
529.3723, 2572.696
529.8544, 2534.532
530.3365, 2504.304
530.8186, 2461.010
531.3007, 2397.521
531.7828, 2326.342
532.2650, 2264.054
532.7471, 2211.089
533.2292, 2163.123
533.7113, 2126.919
534.1934, 2087.678
534.6755, 2039.796
535.1577, 1986.768
535.6398, 1931.501
536.1219, 1873.911
536.6040, 1820.857
537.0861, 1780.745
537.5682, 1750.435
538.0504, 1720.299
538.5325, 1689.398
539.0146, 1658.224
539.4967, 1625.263
539.9788, 1592.737
540.4609, 1571.801
540.9431, 1564.523
541.4252, 1564.209
541.9073, 1572.618
542.3894, 1585.361
542.8715, 1595.934
543.3536, 1605.524
543.8358, 1623.155
544.3179, 1657.058
544.8000, 1703.801
545.2821, 1748.531
545.7642, 1790.418
546.2463, 1832.558
546.7285, 1882.566
547.2106, 1927.472
547.6926, 1961.730
548.1747, 1983.770
548.6569, 1983.895
549.1390, 1957.704
549.6211, 1907.392
550.1032, 1825.266
550.5853, 1718.418
551.0674, 1616.997
551.5496, 1531.939
552.0317, 1458.198
552.5138, 1387.021
552.9959, 1316.091
553.4780, 1255.329
553.9601, 1206.319
554.4423, 1163.897
554.9244, 1127.059
555.4065, 1095.067
555.8886, 1066.958
556.3707, 1042.227
556.8528, 1022.095
557.3350, 1010.212
557.8171, 1005.317
558.2992, 996.4789
558.7813, 981.3546
559.2634, 966.5063
559.7455, 955.8127
560.2277, 948.8765
560.7098, 943.9703
561.1919, 943.1021
561.6740, 940.6865
562.1561, 933.4266
562.6382, 924.7065
563.1204, 915.9247
563.6025, 908.6888
564.0846, 908.1218
564.5667, 919.0330
565.0488, 937.6385
565.5309, 948.6168
566.0131, 948.3687
566.4952, 949.5988
566.9773, 958.6864
567.4594, 966.4316
567.9415, 964.6296
568.4236, 955.4618
568.9058, 949.8319
569.3879, 954.3309
569.8700, 962.5543
570.3521, 968.5920
570.8342, 972.9430
571.3163, 976.8717
571.7985, 980.6220
572.2806, 985.6112
572.7627, 994.0211
573.2448, 1006.598
573.7269, 1015.745
574.2090, 1015.813
574.6912, 1019.491
575.1733, 1034.563
575.6554, 1052.464
576.1375, 1063.045
576.6196, 1064.379
577.1017, 1063.231
577.5839, 1065.225
578.0660, 1069.658
578.5481, 1074.942
579.0302, 1081.418
579.5123, 1085.182
579.9944, 1083.197
580.4766, 1078.546
580.9587, 1077.531
581.4408, 1081.183
581.9229, 1083.402
582.4050, 1084.325
582.8871, 1082.688
583.3693, 1075.689
583.8514, 1065.713
584.3335, 1057.380
584.8156, 1052.852
585.2977, 1051.243
585.7798, 1052.510
586.2620, 1057.295
586.7441, 1056.932
587.2262, 1048.549
587.7083, 1038.994
588.1904, 1030.859
588.6725, 1024.447
589.1547, 1020.558
589.6368, 1019.619
590.1189, 1020.293
590.6010, 1025.640
591.0831, 1030.229
591.5652, 1026.567
592.0474, 1014.683
592.5295, 998.4609
593.0116, 979.5980
593.4937, 960.8634
593.9758, 951.2087
594.4579, 954.7842
594.9401, 957.6750
595.4222, 958.8770
595.9043, 959.0306
596.3864, 957.4365
596.8685, 955.0468
597.3506, 953.9189
597.8328, 954.2476
598.3149, 957.1905
598.7970, 967.3400
599.2791, 980.6388
599.7612, 985.3867
600.2433, 979.3207
600.7255, 971.0766
601.2076, 967.7868
601.6897, 968.8558
602.1718, 969.3762
602.6539, 965.8450
603.1360, 966.7456
603.6182, 980.0771
604.1003, 992.1978
604.5824, 992.1642
605.0645, 980.9186
605.5466, 966.5821
606.0287, 952.7749
606.5109, 939.7371
606.9930, 928.6478
607.4751, 919.0150
607.9572, 906.9931
608.4393, 891.3461
608.9214, 873.8998
609.4036, 856.2086
609.8857, 838.2457
610.3678, 820.5915
610.8499, 803.3698
611.3320, 786.3488
611.8141, 768.0580
612.2963, 750.7897
612.7784, 736.5995
613.2605, 725.9138
613.7426, 719.2042
614.2247, 719.8203
614.7068, 722.1910
615.1890, 709.4446
615.6711, 680.6479
616.1532, 658.0993
616.6353, 649.5343
617.1174, 647.2756
617.5995, 644.0125
618.0817, 639.7078
618.5638, 633.4180
619.0459, 620.4750
619.5280, 610.8992
620.0101, 610.1945
620.4922, 614.2349
620.9744, 619.0295
621.4565, 623.0917
621.9386, 624.9206
622.4207, 622.7433
622.9028, 617.4330
623.3849, 612.1001
623.8671, 606.5546
624.3492, 602.0700
624.8313, 598.9280
625.3134, 597.1288
625.7955, 596.0519
626.2776, 595.6751
626.7598, 599.3774
627.2419, 612.9907
627.7240, 624.9803
628.2061, 629.7773
628.6882, 629.1024
629.1703, 625.5330
629.6525, 619.7605
630.1346, 610.9437
630.6167, 597.3066
631.0988, 580.0646
631.5809, 566.0255
632.0630, 555.6929
632.5452, 546.5401
633.0273, 538.8829
633.5094, 530.9890
633.9915, 519.3809
634.4736, 504.4272
634.9557, 494.3093
635.4379, 494.3138
635.9200, 495.8009
636.4021, 494.8544
636.8842, 491.8770
637.3663, 487.9118
637.8484, 483.1286
638.3306, 476.4492
638.8127, 466.0189
639.2948, 452.9060
639.7769, 444.0710
640.2590, 440.2365
640.7411, 438.1778
641.2233, 438.4787
641.7054, 438.7827
642.1875, 436.8558
642.6696, 432.7785
643.1517, 427.2557
643.6339, 418.3573
644.1160, 410.2628
644.5981, 404.3319
645.0802, 401.0509
645.5623, 402.8848
646.0444, 409.3555
646.5266, 414.2625
647.0087, 411.1917
647.4908, 402.1298
647.9729, 396.6561
648.4550, 395.7685
648.9371, 394.4936
649.4193, 390.3992
649.9014, 386.7938
650.3835, 388.0502
650.8656, 393.2471
651.3477, 395.7356
651.8298, 391.7312
652.3120, 387.8372
652.7941, 387.5215
653.2762, 388.9733
653.7583, 389.7438
654.2404, 389.4772
654.7225, 389.4227
655.2047, 390.8097
655.6868, 392.8801
656.1689, 393.1356
656.6510, 391.4638
657.1331, 388.2816
657.6152, 381.8206
658.0974, 376.5696
658.5795, 379.3496
659.0616, 387.6082
659.5437, 389.5038
660.0258, 376.8545
660.5079, 366.5655
660.9901, 364.9742
661.4722, 368.1905
661.9543, 374.2034
662.4364, 381.2230
662.9185, 385.0801
663.4006, 382.4131
663.8828, 376.5772
664.3649, 375.0600
664.8470, 378.0108
665.3291, 380.6775
665.8112, 383.0146
666.2933, 383.2601
666.7755, 378.7969
667.2576, 371.0940
667.7397, 366.5898
668.2218, 366.8147
668.7039, 367.7166
669.1860, 369.9376
669.6682, 371.3899
670.1503, 368.9464
670.6324, 364.3142
671.1145, 362.6860
671.5966, 366.9413
672.0787, 372.8574
672.5609, 374.5119
673.0430, 372.3863
673.5251, 369.1890
674.0072, 364.5708
674.4893, 362.7236
674.9714, 367.3265
675.4536, 375.4635
675.9357, 379.3945
676.4178, 376.6945
676.8999, 375.0884
677.3820, 375.3461
677.8641, 376.1484
678.3463, 376.5770
678.8284, 377.1480
679.3105, 379.5363
679.7926, 384.2613
680.2747, 387.5092
680.7568, 383.1819
681.2390, 375.3126
681.7211, 374.8293
682.2032, 381.7093
682.6853, 386.8392
683.1674, 385.8790
683.6495, 382.7196
684.1317, 383.6815
684.6138, 390.0046
685.0959, 393.8573
685.5780, 394.0984
686.0601, 393.2331
686.5422, 390.3490
687.0244, 387.5604
687.5065, 387.8237
687.9886, 391.1126
688.4707, 393.1798
688.9528, 389.4360
689.4349, 384.9107
689.9171, 385.7111
690.3992, 390.5096
690.8813, 396.2249
691.3634, 401.8994
691.8455, 404.8469
692.3276, 401.3609
692.8098, 392.8154
693.2919, 392.1277
693.7740, 403.9272
694.2561, 413.3531
694.7382, 417.0193
695.2203, 418.0255
695.7025, 417.5316
696.1846, 416.0766
696.6667, 415.4162
697.1488, 416.2868
697.6309, 417.5824
698.1130, 418.5314
698.5952, 419.6776
699.0773, 421.3689
699.5594, 423.8792
700.0415, 428.5354
700.5236, 436.6263
701.0057, 444.8874
701.4879, 445.0834
701.9700, 436.6173
702.4521, 432.8973
702.9342, 436.0593
703.4163, 441.8318
703.8984, 450.6386
704.3806, 459.1508
704.8627, 458.4955
705.3448, 443.9439
705.8269, 434.4596
706.3090, 437.7122
706.7911, 441.6060
707.2733, 437.3156
707.7554, 429.1756
708.2375, 424.8190
708.7196, 426.5928
709.2017, 431.9244
709.6838, 440.8324
710.1660, 450.8504
710.6481, 455.1061
711.1302, 453.7839
711.6123, 451.5650
712.0944, 450.0660
712.5765, 448.3115
713.0587, 444.5462
713.5408, 438.4772
714.0229, 436.7715
714.5050, 445.5605
714.9871, 450.3006
715.4692, 445.7687
715.9514, 438.7441
716.4335, 433.7482
716.9156, 431.2682
717.3977, 430.9987
717.8798, 434.2422
718.3619, 437.6082
718.8441, 438.9630
719.3262, 438.3918
719.8083, 434.2204
720.2904, 427.4093
720.7725, 424.6757
721.2546, 431.1846
721.7368, 441.9832
722.2189, 444.0542
722.7010, 435.5389
723.1831, 431.7830
723.6652, 437.2679
724.1473, 440.9223
724.6295, 434.9091
725.1116, 423.5164
725.5937, 415.2192
726.0758, 409.9895
726.5579, 408.2748
727.0400, 414.8384
727.5222, 420.1768
728.0043, 416.9794
728.4864, 409.3307
728.9685, 404.0821
729.4506, 403.0666
729.9327, 403.3698
730.4149, 401.4972
730.8970, 399.4416
731.3791, 403.1899
731.8612, 411.9283
732.3433, 417.5292
732.8254, 417.3450
733.3076, 415.5149
733.7897, 416.6389
734.2718, 420.2281
734.7539, 419.6758
735.2360, 411.7471
735.7181, 405.0492
736.2003, 399.8659
736.6824, 396.7404
737.1645, 396.3727
737.6466, 398.3133
738.1287, 401.5341
738.6108, 406.3959
739.0930, 410.9637
739.5751, 415.3207
740.0572, 418.0321
740.5393, 415.7047
741.0214, 410.0305
741.5035, 407.2009
741.9857, 410.1634
742.4678, 414.4322
742.9499, 412.4695
743.4320, 404.9904
743.9141, 402.1024
744.3962, 404.2988
744.8784, 409.6492
745.3605, 419.7820
745.8426, 429.1528
746.3247, 428.8761
746.8068, 417.2487
747.2889, 412.1262
747.7711, 420.0429
748.2532, 425.5686
748.7353, 420.4644
749.2174, 414.8938
749.6995, 420.9458
750.1816, 435.9850
750.6638, 445.3143
751.1459, 439.5678
751.6280, 430.3109
752.1101, 428.0657
752.5922, 429.9389
753.0743, 430.0891
753.5565, 428.2803
754.0386, 428.7426
754.5207, 434.2068
755.0028, 441.4777
755.4849, 443.1424
755.9670, 437.9768
756.4492, 439.7846
756.9313, 452.4716
757.4134, 462.8434
757.8955, 464.1359
758.3776, 460.8268
758.8597, 458.7166
759.3419, 457.4313
759.8240, 460.3283
760.3061, 472.9690
760.7882, 483.5200
761.2703, 486.8769
761.7524, 486.3519
762.2346, 483.7571
762.7167, 480.6351
763.1988, 481.2384
763.6809, 490.3313
764.1630, 499.9688
764.6451, 498.2376
765.1273, 490.3966
765.6094, 490.4633
766.0915, 499.7151
766.5736, 509.8039
767.0557, 515.6900
767.5378, 518.7527
768.0200, 520.9776
768.5021, 521.2457
768.9842, 528.3884
769.4663, 547.2250
769.9484, 562.8021
770.4305, 567.3953
770.9127, 565.9999
771.3948, 564.4000
771.8769, 562.1180
772.3590, 565.2497
772.8411, 579.8937
773.3232, 593.5950
773.8054, 601.4390
774.2875, 606.0104
774.7696, 609.8271
775.2517, 613.3104
775.7338, 616.0334
776.2159, 617.7266
776.6981, 618.6416
777.1802, 619.6981
777.6623, 620.0380
778.1444, 616.5276
778.6265, 609.4897
779.1086, 603.9056
779.5908, 602.5844
780.0729, 604.2930
780.5550, 607.0731
781.0371, 611.0290
781.5192, 615.1564
782.0013, 620.0250
782.4835, 623.5826
782.9656, 624.9449
783.4477, 624.6863
783.9298, 621.9890
784.4119, 616.6464
784.8940, 617.3397
785.3762, 635.6729
785.8583, 645.5166
786.3404, 631.7202
786.8225, 613.0092
787.3046, 605.0918
787.7867, 607.2210
788.2689, 611.2871
788.7510, 614.8112
789.2331, 616.3222
789.7152, 611.8518
790.1973, 605.9836
790.6794, 608.3514
791.1616, 616.9289
791.6437, 619.7778
792.1258, 611.7536
792.6079, 600.7305
793.0900, 597.2228
793.5721, 600.5795
794.0543, 605.1663
794.5364, 611.6897
795.0185, 614.4922
795.5006, 610.1771
795.9827, 605.4651
796.4648, 607.4252
796.9470, 615.3087
797.4291, 620.9673
797.9112, 622.5032
798.3933, 624.4726
798.8754, 628.0688
799.3575, 631.1578
799.8397, 631.8799
800.3218, 631.3915
800.8039, 631.8649
801.2860, 633.7944
801.7681, 636.6534
802.2502, 639.3750
802.7324, 643.6341
803.2145, 651.2639
803.6966, 661.4671
804.1787, 672.7318
804.6608, 684.6487
805.1429, 697.9940
805.6251, 714.4531
806.1072, 731.3661
806.5893, 742.5043
807.0714, 748.5243
807.5535, 754.1837
808.0356, 760.3552
808.5178, 764.6524
808.9999, 764.6194
809.4820, 763.5187
809.9641, 770.0175
810.4462, 786.6570
810.9283, 801.6526
811.4105, 813.8463
811.8926, 826.3619
812.3747, 839.8301
812.8568, 854.5779
813.3389, 871.1870
813.8210, 889.6139
814.3032, 908.0550
814.7853, 924.7565
815.2674, 943.2551
815.7495, 965.7603
816.2316, 989.7616
816.7137, 1014.490
817.1959, 1038.638
817.6780, 1058.597
818.1601, 1071.484
818.6422, 1086.600
819.1243, 1112.954
819.6064, 1146.265
820.0886, 1182.508
820.5707, 1219.698
821.0528, 1252.302
821.5349, 1278.671
822.0170, 1301.405
822.4991, 1324.792
822.9813, 1346.489
823.4634, 1354.336
823.9455, 1347.568
824.4276, 1345.778
824.9097, 1355.849
825.3918, 1360.071
825.8740, 1344.583
826.3561, 1313.411
826.8382, 1279.587
827.3203, 1238.844
827.8024, 1205.393
828.2845, 1185.465
828.7667, 1165.246
829.2488, 1141.439
829.7309, 1113.702
830.2130, 1078.910
830.6951, 1037.084
831.1772, 1003.199
831.6594, 986.0392
832.1415, 971.1360
832.6236, 953.7696
833.1057, 934.3889
833.5878, 910.3515
834.0699, 884.7337
834.5521, 866.9213
835.0342, 862.0545
835.5163, 860.3913
835.9984, 852.3442
836.4805, 841.8904
836.9626, 835.5654
837.4448, 832.9344
837.9269, 831.3516
838.4090, 829.8051
838.8911, 827.2419
839.3732, 821.7736
839.8553, 815.0894
840.3375, 813.6057
840.8196, 817.3934
841.3017, 823.2962
841.7838, 831.3722
842.2659, 838.5253
842.7480, 842.5812
843.2302, 844.3866
843.7123, 845.5436
844.1944, 843.8618
844.6765, 849.5306
845.1586, 872.5557
845.6407, 887.9976
846.1229, 879.3068
846.6050, 864.8706
847.0871, 863.7526
847.5692, 874.9979
848.0513, 882.7939
848.5334, 884.3215
849.0156, 883.1011
849.4977, 876.1045
849.9798, 870.2651
850.4619, 874.1802
850.9440, 882.7690
851.4261, 882.2483
851.9083, 867.4377
852.3904, 858.5276
852.8725, 878.3982
853.3546, 902.6342
853.8367, 900.9946
854.3188, 885.0037
854.8010, 880.7615
855.2831, 892.1946
855.7652, 903.9261
856.2473, 904.1735
856.7294, 899.8481
857.2115, 903.0154
857.6937, 912.3253
858.1758, 921.5847
858.6579, 930.2865
859.1400, 940.9723
859.6221, 954.6138
860.1042, 972.7067
860.5864, 999.0386
861.0685, 1032.924
861.5506, 1057.745
862.0327, 1069.873
862.5148, 1087.526
862.9969, 1116.622
863.4791, 1148.727
863.9612, 1176.767
864.4433, 1202.770
864.9254, 1233.276
865.4075, 1265.569
865.8896, 1308.431
866.3718, 1369.717
866.8539, 1432.050
867.3360, 1488.004
867.8181, 1542.824
868.3002, 1599.561
868.7823, 1659.325
869.2645, 1730.492
869.7466, 1819.823
870.2287, 1914.370
870.7108, 2002.605
871.1929, 2099.197
871.6750, 2219.483
872.1572, 2358.206
872.6393, 2500.872
873.1214, 2642.888
873.6035, 2789.391
874.0856, 2950.751
874.5677, 3113.943
875.0499, 3262.455
875.5320, 3403.187
876.0141, 3553.106
876.4962, 3713.051
876.9783, 3868.212
877.4604, 4009.895
877.9426, 4135.489
878.4247, 4244.717
878.9068, 4333.302
879.3889, 4385.635
879.8710, 4400.771
880.3531, 4380.579
880.8353, 4325.391
881.3174, 4241.862
881.7995, 4136.956
882.2816, 4011.113
882.7637, 3863.381
883.2458, 3691.065
883.7280, 3521.692
884.2101, 3362.901
884.6922, 3198.701
885.1743, 3015.737
885.6564, 2827.015
886.1385, 2660.247
886.6207, 2520.088
887.1028, 2383.178
887.5849, 2243.884
888.0670, 2117.684
888.5491, 2012.902
889.0313, 1919.389
889.5134, 1829.111
889.9955, 1742.327
890.4776, 1659.324
890.9597, 1580.920
891.4418, 1505.677
891.9240, 1430.926
892.4061, 1361.564
892.8882, 1301.026
893.3703, 1246.452
893.8524, 1193.395
894.3345, 1141.546
894.8167, 1096.549
895.2988, 1066.095
895.7809, 1036.749
896.2630, 998.8905
896.7451, 960.2141
897.2272, 927.9779
897.7094, 902.3043
898.1915, 881.7754
898.6736, 865.9523
899.1557, 851.3520
899.6378, 834.0195
900.1199, 817.4320
900.6021, 807.7045
901.0842, 801.5239
901.5663, 791.5098
902.0484, 776.8563
902.5305, 761.6302
903.0126, 748.3630
903.4948, 736.1400
903.9769, 723.5822
904.4590, 711.0395
904.9411, 698.9526
905.4232, 687.8466
905.9053, 682.1850
906.3875, 683.3661
906.8696, 686.2189
907.3517, 686.0900
907.8338, 683.2720
908.3159, 678.3422
908.7980, 671.2973
909.2802, 664.1196
909.7623, 657.0425
910.2444, 649.2912
910.7265, 639.8975
911.2086, 631.6472
911.6907, 629.0106
912.1729, 631.9046
912.6550, 632.8665
913.1371, 630.8096
913.6192, 630.6714
914.1013, 635.4816
914.5834, 638.0916
915.0656, 632.5065
915.5477, 622.2657
916.0298, 615.2247
916.5119, 611.4405
916.9940, 610.7131
917.4761, 615.7683
917.9583, 620.0195
918.4404, 621.5058
918.9225, 622.0233
919.4046, 624.1375
919.8867, 626.5632
920.3688, 624.1429
920.8510, 612.9902
921.3331, 604.7881
921.8152, 602.6899
922.2973, 602.1624
922.7794, 601.5914
923.2615, 601.1245
923.7437, 602.1251
924.2258, 603.9733
924.7079, 602.2776
925.1900, 593.0300
925.6721, 584.4778
926.1542, 577.5914
926.6364, 574.9721
927.1185, 582.6198
927.6006, 594.4833
928.0827, 600.1976
928.5648, 597.7340
929.0469, 593.3940
929.5291, 589.3963
930.0112, 586.2988
930.4933, 586.7482
930.9754, 586.8105
931.4575, 577.5855
931.9396, 563.8345
932.4218, 561.4926
932.9039, 576.0621
933.3860, 591.0771
933.8681, 590.4179
934.3502, 583.7982
934.8323, 582.5540
935.3145, 585.3682
935.7966, 590.0180
936.2787, 595.7412
936.7608, 602.8284
937.2429, 611.7487
937.7250, 616.5352
938.2072, 604.9338
938.6893, 585.7820
939.1714, 580.2413
939.6535, 585.8553
940.1356, 591.9644
940.6177, 595.9940
941.0999, 599.2156
941.5820, 602.3803
942.0641, 606.0610
942.5462, 612.2730
943.0283, 620.0701
943.5104, 624.5543
943.9926, 625.5979
944.4747, 623.6181
944.9568, 618.6326
945.4389, 614.8340
945.9210, 616.0698
946.4031, 621.1060
946.8853, 627.5311
947.3674, 635.3265
947.8495, 639.2861
948.3316, 638.8755
948.8137, 636.2013
949.2958, 631.2510
949.7780, 628.8930
950.2601, 635.9606
950.7422, 649.3975
951.2243, 651.3180
951.7064, 639.0410
952.1885, 633.0414
952.6707, 636.4412
953.1528, 641.6284
953.6349, 644.9791
954.1170, 648.6925
954.5991, 656.3171
955.0812, 667.5181
955.5634, 675.6833
956.0455, 680.0695
956.5276, 683.6505
957.0097, 687.0327
957.4918, 689.1572
957.9739, 689.2634
958.4561, 687.9214
958.9382, 685.4214
959.4203, 681.3734
959.9024, 681.7433
960.3845, 687.7571
960.8666, 695.8776
961.3488, 707.2954
961.8309, 718.3616
962.3130, 726.4326
962.7951, 732.8266
963.2772, 740.4067
963.7593, 749.7401
964.2415, 757.2324
964.7236, 763.2475
965.2057, 766.8888
965.6878, 764.8223
966.1699, 763.4496
966.6520, 766.5900
967.1342, 773.4991
967.6163, 782.7147
968.0984, 794.7006
968.5805, 806.9526
969.0626, 821.3405
969.5447, 833.3888
970.0269, 839.7247
970.5090, 845.3703
970.9911, 853.3712
971.4732, 863.8433
971.9553, 877.2858
972.4374, 895.5948
972.9196, 910.2498
973.4017, 916.1058
973.8838, 923.3876
974.3659, 940.0126
974.8480, 955.9237
975.3301, 959.6331
975.8123, 955.1187
976.2944, 955.8880
976.7765, 965.4749
977.2586, 975.6268
977.7407, 985.0355
978.2228, 993.9727
978.7050, 1002.845
979.1871, 1011.031
979.6692, 1018.448
980.1513, 1024.624
980.6334, 1028.522
981.1155, 1030.587
981.5977, 1028.186
982.0798, 1015.823
982.5619, 1004.331
983.0440, 999.9376
983.5261, 998.7303
984.0082, 994.8569
984.4904, 989.7790
984.9725, 992.1944
985.4546, 1010.073
985.9367, 1018.492
986.4188, 999.0020
986.9009, 978.2443
987.3831, 970.7968
987.8652, 971.4279
988.3473, 976.4090
988.8294, 983.0819
989.3115, 984.4127
989.7936, 975.6469
990.2758, 969.2502
990.7579, 970.7370
991.2400, 975.8135
991.7221, 984.7204
992.2042, 993.6273
992.6863, 998.0812
993.1685, 998.2200
993.6506, 996.4114
994.1327, 990.7181
994.6148, 991.1702
995.0969, 1010.232
995.5790, 1028.370
996.0612, 1026.513
996.5433, 1019.513
997.0254, 1029.000
997.5075, 1053.225
997.9896, 1072.803
998.4717, 1080.617
998.9539, 1084.638
999.4360, 1088.556
999.9181, 1089.995
1000.400, 1084.180
1000.882, 1076.892
1001.364, 1075.438
1001.847, 1079.822
1002.329, 1086.289
1002.811, 1095.383
1003.293, 1100.646
1003.775, 1094.185
1004.257, 1088.151
1004.739, 1096.294
1005.221, 1106.301
1005.703, 1099.694
1006.186, 1079.082
1006.668, 1062.669
1007.150, 1057.126
1007.632, 1054.481
1008.114, 1057.622
1008.596, 1055.275
1009.078, 1037.717
1009.560, 1012.042
1010.043, 983.3926
1010.525, 955.0406
1011.007, 934.0308
1011.489, 923.5062
1011.971, 916.3524
1012.453, 915.9387
1012.935, 910.5500
1013.417, 885.2242
1013.899, 856.7902
1014.382, 845.1401
1014.864, 848.2540
1015.346, 853.4291
1015.828, 859.5682
1016.310, 857.3104
1016.792, 832.9730
1017.274, 811.2012
1017.756, 808.2803
1018.239, 812.3740
1018.721, 813.5448
1019.203, 810.2594
1019.685, 801.0684
1020.167, 783.4885
1020.649, 771.1032
1021.131, 770.6934
1021.613, 773.4609
1022.095, 775.5128
1022.578, 778.7092
1023.060, 787.0363
1023.542, 797.6406
1024.024, 802.9474
1024.506, 800.8065
1024.988, 798.3420
1025.470, 795.0635
1025.952, 794.8203
1026.435, 805.2344
1026.917, 813.5753
1027.399, 804.5945
1027.881, 787.1593
1028.363, 782.6137
1028.845, 795.8489
1029.327, 803.0467
1029.809, 791.2668
1030.292, 784.9180
1030.774, 793.5537
1031.256, 806.6628
1031.738, 822.0500
1032.220, 834.8475
1032.702, 834.2953
1033.184, 818.1242
1033.666, 811.1071
1034.148, 823.8671
1034.630, 834.0328
1035.113, 835.3882
1035.595, 836.1213
1036.077, 843.1005
1036.559, 851.0152
1037.041, 849.2576
1037.523, 837.1850
1038.005, 835.8494
1038.487, 855.3231
1038.970, 869.4087
1039.452, 872.7798
1039.934, 875.6633
1040.416, 884.5125
1040.898, 893.3022
1041.380, 892.7310
1041.862, 884.2432
1042.344, 884.7904
1042.826, 904.3181
1043.309, 909.8292
1043.791, 888.0349
1044.273, 875.4238
1044.755, 890.1908
1045.237, 912.7588
1045.719, 923.3614
1046.201, 924.8383
1046.683, 930.5706
1047.166, 942.1884
1047.648, 952.4985
1048.130, 960.5387
1048.612, 970.4932
1049.094, 985.1904
1049.576, 997.8575
1050.058, 1001.772
1050.540, 1000.663
1051.022, 1005.162
1051.505, 1016.192
1051.987, 1023.282
1052.469, 1025.774
1052.951, 1027.802
1053.433, 1029.932
1053.915, 1034.064
1054.397, 1041.752
1054.879, 1051.483
1055.361, 1060.634
1055.844, 1069.274
1056.326, 1076.943
1056.808, 1083.735
1057.290, 1099.983
1057.772, 1127.577
1058.254, 1153.339
1058.736, 1170.261
1059.218, 1183.207
1059.701, 1199.373
1060.183, 1215.885
1060.665, 1217.998
1061.147, 1210.520
1061.629, 1224.147
1062.111, 1258.973
1062.593, 1285.505
1063.075, 1292.573
1063.557, 1295.720
1064.040, 1310.632
1064.522, 1329.107
1065.004, 1330.819
1065.486, 1326.065
1065.968, 1344.376
1066.450, 1380.214
1066.932, 1407.644
1067.414, 1420.201
1067.896, 1427.242
1068.379, 1433.072
1068.861, 1443.667
1069.343, 1470.896
1069.825, 1503.159
1070.307, 1522.303
1070.789, 1534.657
1071.271, 1554.578
1071.753, 1582.968
1072.236, 1612.582
1072.718, 1641.103
1073.200, 1664.418
1073.682, 1674.272
1074.164, 1683.569
1074.646, 1703.771
1075.128, 1729.347
1075.610, 1754.941
1076.093, 1779.182
1076.575, 1800.203
1077.057, 1817.361
1077.539, 1837.961
1078.021, 1870.791
1078.503, 1900.214
1078.985, 1917.197
1079.467, 1929.955
1079.949, 1940.589
1080.432, 1953.649
1080.914, 1977.276
1081.396, 2011.661
1081.878, 2044.133
1082.360, 2071.386
1082.842, 2098.436
1083.324, 2124.394
1083.806, 2152.143
1084.288, 2184.192
1084.771, 2217.682
1085.253, 2248.491
1085.735, 2277.517
1086.217, 2309.938
1086.699, 2348.912
1087.181, 2382.006
1087.663, 2403.016
1088.145, 2430.196
1088.628, 2466.449
1089.110, 2514.287
1089.592, 2580.702
1090.074, 2654.164
1090.556, 2708.480
1091.038, 2742.621
1091.520, 2785.010
1092.002, 2836.168
1092.484, 2890.328
1092.967, 2946.160
1093.449, 3008.756
1093.931, 3081.939
1094.413, 3159.420
1094.895, 3231.977
1095.377, 3304.216
1095.859, 3393.042
1096.341, 3496.965
1096.823, 3604.309
1097.306, 3713.821
1097.788, 3824.906
1098.270, 3937.568
1098.752, 4057.808
1099.234, 4189.981
1099.716, 4331.579
1100.198, 4477.377
1100.680, 4630.535
1101.163, 4800.295
1101.645, 4982.210
1102.127, 5161.381
1102.609, 5338.482
1103.091, 5532.552
1103.573, 5750.934
1104.055, 5987.997
1104.537, 6237.898
1105.020, 6503.542
1105.502, 6790.788
1105.984, 7092.844
1106.466, 7396.650
1106.948, 7710.795
1107.430, 8048.503
1107.912, 8414.944
1108.394, 8816.003
1108.876, 9265.767
1109.359, 9733.988
1109.841, 10200.21
1110.323, 10688.84
1110.805, 11198.26
1111.287, 11747.96
1111.769, 12363.34
1112.251, 13038.21
1112.733, 13738.99
1113.215, 14456.17
1113.698, 15206.38
1114.180, 15973.70
1114.662, 16791.86
1115.144, 17682.06
1115.626, 18618.88
1116.108, 19596.59
1116.590, 20600.36
1117.072, 21609.12
1117.555, 22624.59
1118.037, 23642.09
1118.519, 24666.27
1119.001, 25673.09
1119.483, 26666.53
1119.965, 27598.86
1120.447, 28450.47
1120.929, 29234.93
1121.411, 29966.96
1121.894, 30627.55
1122.376, 31166.37
1122.858, 31578.64
1123.340, 31841.67
1123.822, 31961.18
1124.304, 31981.02
1124.786, 31907.65
1125.268, 31711.59
1125.750, 31376.75
1126.233, 30921.46
1126.715, 30362.19
1127.197, 29703.46
1127.679, 28955.52
1128.161, 28111.51
1128.643, 27112.67
1129.125, 26011.75
1129.607, 24945.71
1130.090, 23944.48
1130.572, 22935.08
1131.054, 21864.19
1131.536, 20795.21
1132.018, 19735.50
1132.500, 18709.38
1132.982, 17742.12
1133.464, 16805.54
1133.947, 15849.69
1134.429, 14892.51
1134.911, 14003.96
1135.393, 13191.63
1135.875, 12456.91
1136.357, 11846.28
1136.839, 11253.91
1137.321, 10659.22
1137.803, 10081.92
1138.286, 9517.865
1138.768, 8992.396
1139.250, 8545.568
1139.732, 8172.335
1140.214, 7810.466
1140.696, 7455.896
1141.178, 7135.836
1141.660, 6854.637
1142.142, 6562.920
1142.625, 6243.545
1143.107, 5955.810
1143.589, 5749.016
1144.071, 5584.445
1144.553, 5394.237
1145.035, 5190.834
1145.517, 5013.846
1145.999, 4857.336
1146.482, 4697.917
1146.964, 4537.175
1147.446, 4397.193
1147.928, 4285.467
1148.410, 4177.845
1148.892, 4053.429
1149.374, 3931.083
1149.856, 3830.963
1150.339, 3739.448
1150.821, 3646.126
1151.303, 3550.714
1151.785, 3446.020
1152.267, 3338.921
1152.749, 3257.209
1153.231, 3216.698
1153.713, 3166.386
1154.195, 3082.603
1154.677, 3003.406
1155.160, 2938.042
1155.642, 2883.243
1156.124, 2842.067
1156.606, 2805.404
1157.088, 2759.442
1157.570, 2705.358
1158.052, 2658.102
1158.534, 2620.943
1159.017, 2574.581
1159.499, 2516.255
1159.981, 2459.262
1160.463, 2406.136
1160.945, 2369.868
1161.427, 2362.744
1161.909, 2360.621
1162.391, 2317.325
1162.874, 2247.352
1163.356, 2196.971
1163.838, 2162.324
1164.320, 2136.625
1164.802, 2115.500
1165.284, 2087.738
1165.766, 2050.216
1166.248, 2010.532
1166.730, 1971.075
1167.213, 1937.927
1167.695, 1923.063
1168.177, 1909.507
1168.659, 1878.371
1169.141, 1842.339
1169.623, 1817.845
1170.105, 1803.271
1170.587, 1788.312
1171.069, 1770.511
1171.552, 1757.717
1172.034, 1758.573
1172.516, 1753.027
1172.998, 1732.248
1173.480, 1713.216
1173.962, 1706.644
1174.444, 1699.775
1174.926, 1677.509
1175.409, 1645.586
1175.891, 1624.849
1176.373, 1616.294
1176.855, 1603.759
1177.337, 1586.993
1177.819, 1577.681
1178.301, 1577.669
1178.783, 1572.163
1179.266, 1553.916
1179.748, 1534.443
1180.230, 1526.190
1180.712, 1523.803
1181.194, 1521.582
1181.676, 1517.315
1182.158, 1505.958
1182.640, 1490.049
1183.122, 1474.558
1183.604, 1460.490
1184.087, 1446.761
1184.569, 1432.568
1185.051, 1422.217
1185.533, 1422.705
1186.015, 1420.592
1186.497, 1407.093
1186.979, 1392.326
1187.461, 1383.752
1187.944, 1377.974
1188.426, 1370.107
1188.908, 1360.262
1189.390, 1349.042
1189.872, 1333.437
1190.354, 1327.995
1190.836, 1335.355
1191.318, 1340.947
1191.801, 1341.277
1192.283, 1343.033
1192.765, 1350.916
1193.247, 1353.855
1193.729, 1333.784
1194.211, 1305.032
1194.693, 1306.294
1195.175, 1325.868
1195.657, 1334.547
1196.140, 1332.660
1196.622, 1327.460
1197.104, 1320.664
1197.586, 1310.071
1198.068, 1293.928
1198.550, 1282.210
1199.032, 1287.891
1199.514, 1291.041
1199.996, 1275.089
1200.479, 1257.483
1200.961, 1251.305
1201.443, 1252.793
1201.925, 1256.765
1202.407, 1262.409
1202.889, 1267.166
1203.371, 1273.651
1203.853, 1269.642
1204.336, 1250.397
1204.818, 1235.983
1205.300, 1230.532
1205.782, 1230.079
1206.264, 1233.108
1206.746, 1236.086
1207.228, 1233.636
1207.710, 1230.410
1208.193, 1243.737
1208.675, 1263.951
1209.157, 1259.260
1209.639, 1236.966
1210.121, 1221.153
1210.603, 1215.360
1211.085, 1212.552
1211.567, 1209.976
1212.049, 1206.640
1212.531, 1197.293
1213.014, 1193.312
1213.496, 1209.543
1213.978, 1223.462
1214.460, 1210.631
1214.942, 1192.849
1215.424, 1203.829
1215.906, 1233.437
1216.388, 1239.535
1216.871, 1215.867
1217.353, 1208.448
1217.835, 1222.185
1218.317, 1230.142
1218.799, 1227.096
1219.281, 1230.500
1219.763, 1248.330
1220.245, 1265.234
1220.728, 1267.051
1221.210, 1260.480
1221.692, 1251.929
##END=



