##NAMES=Grossular
##RRUFFID=R050081
##IDEAL CHEMISTRY=Ca_3_Al_2_(SiO_4_)_3_
##LOCALITY=Kayes Region, Mali
##OWNER=RRUFF
##SOURCE=Rock Currier
##DESCRIPTION=Dark brown dodecahedron
##STATUS=The identification of this mineral has been confirmed by X-ray diffraction and chemical analysis
##URL=rruff.info/R050081
##MEASURED CHEMISTRY=(Ca_2.92_Mg_0.07_Mn_0.01_)_Σ=3_(Al_1.04_Fe^3+^_0.89_Ti_0.07_)_Σ=2_((Si_0.98_Al_0.02_)_Σ=1_O_4_)_3_; trace amounts of Y
146.0895, 373.0880
146.5716, 383.7536
147.0537, 395.7465
147.5358, 409.2079
148.0179, 423.3810
148.5001, 439.6515
148.9822, 455.5926
149.4643, 469.3544
149.9464, 480.9638
150.4285, 491.7706
150.9106, 503.2774
151.3928, 515.1031
151.8749, 524.6401
152.3570, 528.7997
152.8391, 532.3770
153.3212, 541.3333
153.8033, 556.2829
154.2855, 569.6907
154.7676, 575.0592
155.2497, 573.5995
155.7318, 570.5562
156.2139, 564.4730
156.6960, 558.2849
157.1782, 554.8838
157.6603, 554.3080
158.1424, 557.1187
158.6245, 565.1019
159.1066, 576.9816
159.5887, 590.2557
160.0709, 608.3643
160.5530, 625.9958
161.0351, 632.7921
161.5172, 625.2255
161.9993, 619.1418
162.4814, 627.6179
162.9636, 645.5374
163.4457, 665.0402
163.9278, 685.8853
164.4099, 705.9254
164.8920, 719.2859
165.3741, 722.6054
165.8563, 728.6966
166.3384, 748.7784
166.8205, 776.6631
167.3026, 802.2248
167.7847, 820.5318
168.2668, 834.2860
168.7490, 848.8250
169.2311, 863.4354
169.7132, 880.8270
170.1953, 903.2288
170.6774, 928.9520
171.1595, 955.4861
171.6417, 980.8438
172.1238, 1006.627
172.6059, 1037.356
173.0880, 1075.170
173.5701, 1113.895
174.0522, 1149.810
174.5344, 1185.183
175.0165, 1224.459
175.4986, 1275.962
175.9807, 1329.290
176.4628, 1355.202
176.9449, 1345.090
177.4271, 1321.069
177.9092, 1290.411
178.3913, 1253.896
178.8734, 1212.062
179.3555, 1163.712
179.8376, 1110.968
180.3197, 1058.354
180.8019, 1001.132
181.2840, 953.4200
181.7661, 919.5840
182.2482, 895.8004
182.7303, 878.6083
183.2124, 867.3871
183.6946, 859.9331
184.1767, 849.3058
184.6588, 831.3229
185.1409, 817.8909
185.6230, 813.7097
186.1051, 814.4619
186.5873, 815.6761
187.0694, 815.5709
187.5515, 813.9290
188.0336, 809.5332
188.5157, 798.9493
188.9978, 791.8062
189.4800, 791.0356
189.9621, 793.7878
190.4442, 797.6764
190.9263, 801.8123
191.4084, 805.5007
191.8905, 806.9369
192.3727, 805.0437
192.8548, 802.6370
193.3369, 799.3542
193.8190, 796.2659
194.3011, 794.0135
194.7832, 792.8254
195.2654, 793.3541
195.7475, 797.6764
196.2296, 809.9877
196.7117, 818.1105
197.1938, 818.8531
197.6759, 816.4217
198.1581, 813.3547
198.6402, 810.6563
199.1223, 809.7365
199.6044, 814.3253
200.0865, 830.6510
200.5686, 839.6977
201.0508, 833.9622
201.5329, 825.3209
202.0150, 823.4191
202.4971, 830.7276
202.9792, 842.0542
203.4613, 848.9932
203.9435, 849.2579
204.4256, 850.0974
204.9077, 853.8699
205.3898, 856.9069
205.8719, 855.4091
206.3540, 849.2156
206.8362, 842.5989
207.3183, 842.5810
207.8004, 854.6105
208.2825, 859.0623
208.7646, 847.0706
209.2467, 835.1495
209.7289, 834.8561
210.2110, 846.3111
210.6931, 859.8585
211.1752, 863.1555
211.6573, 851.4939
212.1395, 846.9494
212.6216, 854.8524
213.1037, 864.7668
213.5858, 871.4637
214.0679, 875.0930
214.5500, 879.1976
215.0322, 887.7493
215.5143, 901.7798
215.9964, 913.2188
216.4785, 919.2737
216.9606, 925.4165
217.4427, 934.7690
217.9249, 946.2446
218.4070, 956.4283
218.8891, 962.2763
219.3712, 963.6628
219.8533, 965.2500
220.3354, 960.4579
220.8176, 962.5505
221.2997, 977.5444
221.7818, 1002.348
222.2639, 1031.216
222.7460, 1060.797
223.2281, 1090.812
223.7103, 1115.646
224.1924, 1131.535
224.6745, 1145.894
225.1566, 1155.659
225.6387, 1165.779
226.1208, 1184.925
226.6030, 1219.321
227.0851, 1263.480
227.5672, 1293.571
228.0493, 1294.166
228.5314, 1301.196
229.0135, 1319.718
229.4957, 1347.752
229.9778, 1385.269
230.4599, 1432.682
230.9420, 1483.943
231.4241, 1524.115
231.9062, 1547.201
232.3884, 1568.352
232.8705, 1589.183
233.3526, 1609.407
233.8347, 1628.134
234.3168, 1645.144
234.7989, 1662.733
235.2811, 1685.628
235.7632, 1718.153
236.2453, 1745.735
236.7274, 1759.065
237.2095, 1773.410
237.6916, 1800.174
238.1738, 1840.986
238.6559, 1888.198
239.1380, 1934.593
239.6201, 1982.476
240.1022, 2020.876
240.5843, 2058.857
241.0665, 2079.564
241.5486, 2071.660
242.0307, 2036.368
242.5128, 1984.478
242.9949, 1924.918
243.4770, 1857.505
243.9592, 1782.945
244.4413, 1690.462
244.9234, 1600.047
245.4055, 1516.645
245.8876, 1441.057
246.3697, 1374.077
246.8519, 1316.292
247.3340, 1267.176
247.8161, 1224.838
248.2982, 1187.799
248.7803, 1160.666
249.2624, 1148.894
249.7446, 1146.166
250.2267, 1142.416
250.7088, 1131.718
251.1909, 1117.025
251.6730, 1106.671
252.1551, 1101.262
252.6373, 1099.251
253.1194, 1101.088
253.6015, 1105.203
254.0836, 1110.073
254.5657, 1115.190
255.0478, 1120.714
255.5300, 1127.829
256.0121, 1137.840
256.4942, 1144.343
256.9763, 1138.755
257.4584, 1132.826
257.9406, 1137.665
258.4227, 1155.982
258.9048, 1174.622
259.3869, 1177.374
259.8690, 1163.331
260.3511, 1154.493
260.8333, 1155.825
261.3154, 1163.404
261.7975, 1175.387
262.2796, 1191.354
262.7617, 1208.375
263.2438, 1224.211
263.7260, 1239.280
264.2081, 1255.731
264.6902, 1273.553
265.1723, 1293.307
265.6544, 1316.420
266.1365, 1341.912
266.6187, 1366.187
267.1008, 1382.556
267.5829, 1397.474
268.0650, 1427.599
268.5471, 1478.202
269.0292, 1527.860
269.5114, 1562.605
269.9935, 1586.042
270.4756, 1602.274
270.9577, 1609.234
271.4398, 1611.944
271.9219, 1618.409
272.4041, 1628.974
272.8862, 1631.010
273.3683, 1617.211
273.8504, 1590.435
274.3325, 1557.017
274.8146, 1511.606
275.2968, 1469.675
275.7789, 1441.261
276.2610, 1424.975
276.7431, 1416.351
277.2252, 1417.042
277.7073, 1420.427
278.1895, 1414.784
278.6716, 1398.690
279.1537, 1382.772
279.6358, 1369.288
280.1179, 1358.824
280.6000, 1353.393
281.0822, 1353.921
281.5643, 1356.407
282.0464, 1356.536
282.5285, 1354.256
283.0106, 1350.297
283.4927, 1344.281
283.9749, 1336.894
284.4570, 1327.154
284.9391, 1315.500
285.4212, 1307.089
285.9033, 1308.484
286.3854, 1318.971
286.8676, 1315.216
287.3497, 1279.222
287.8318, 1247.734
288.3139, 1241.842
288.7960, 1255.244
289.2781, 1270.172
289.7603, 1277.061
290.2424, 1277.582
290.7245, 1278.474
291.2066, 1280.346
291.6887, 1281.811
292.1708, 1281.859
292.6530, 1281.669
293.1351, 1282.175
293.6172, 1283.758
294.0993, 1287.406
294.5814, 1295.148
295.0635, 1311.061
295.5457, 1323.386
296.0278, 1329.745
296.5099, 1334.454
296.9920, 1339.843
297.4741, 1346.551
297.9562, 1354.628
298.4384, 1364.383
298.9205, 1376.192
299.4026, 1387.194
299.8847, 1400.181
300.3668, 1409.630
300.8489, 1410.530
301.3311, 1406.407
301.8131, 1404.432
302.2953, 1409.343
302.7774, 1420.184
303.2595, 1432.396
303.7416, 1448.590
304.2237, 1462.139
304.7058, 1469.908
305.1880, 1475.415
305.6701, 1482.767
306.1522, 1493.548
306.6343, 1505.264
307.1164, 1513.170
307.5985, 1515.576
308.0807, 1520.369
308.5628, 1528.636
309.0449, 1540.047
309.5270, 1554.995
310.0091, 1573.401
310.4912, 1593.958
310.9734, 1617.019
311.4555, 1642.150
311.9376, 1663.231
312.4197, 1675.306
312.9018, 1689.916
313.3839, 1713.022
313.8661, 1743.776
314.3482, 1780.215
314.8303, 1825.330
315.3124, 1873.918
315.7945, 1917.466
316.2766, 1955.881
316.7588, 1989.198
317.2409, 2011.057
317.7230, 2029.633
318.2051, 2059.939
318.6872, 2111.536
319.1693, 2161.017
319.6515, 2190.772
320.1336, 2203.152
320.6157, 2209.304
321.0978, 2213.108
321.5799, 2211.795
322.0620, 2199.813
322.5442, 2176.922
323.0263, 2150.315
323.5084, 2123.997
323.9905, 2094.148
324.4726, 2050.899
324.9547, 1992.567
325.4369, 1938.535
325.9190, 1909.010
326.4011, 1907.052
326.8832, 1898.621
327.3653, 1874.241
327.8474, 1852.252
328.3296, 1844.948
328.8117, 1849.035
329.2938, 1853.031
329.7759, 1849.810
330.2580, 1841.988
330.7401, 1841.551
331.2223, 1852.706
331.7044, 1866.140
332.1865, 1885.550
332.6686, 1904.705
333.1507, 1914.823
333.6328, 1913.901
334.1150, 1910.504
334.5971, 1919.023
335.0792, 1948.818
335.5613, 1964.628
336.0434, 1954.861
336.5255, 1943.095
337.0077, 1941.563
337.4898, 1949.157
337.9719, 1958.126
338.4540, 1962.724
338.9361, 1963.252
339.4182, 1960.944
339.9004, 1944.025
340.3825, 1942.908
340.8646, 1976.145
341.3467, 2024.760
341.8288, 2063.398
342.3109, 2081.214
342.7931, 2093.026
343.2752, 2120.484
343.7573, 2164.996
344.2394, 2215.796
344.7215, 2271.986
345.2036, 2333.083
345.6858, 2400.194
346.1679, 2473.270
346.6500, 2546.656
347.1321, 2612.783
347.6142, 2676.456
348.0963, 2752.247
348.5785, 2843.335
349.0606, 2941.512
349.5427, 3038.011
350.0248, 3136.332
350.5069, 3248.296
350.9890, 3383.620
351.4712, 3527.888
351.9533, 3669.164
352.4354, 3809.140
352.9175, 3955.218
353.3996, 4107.791
353.8817, 4272.109
354.3639, 4465.339
354.8460, 4687.796
355.3281, 4927.805
355.8102, 5195.315
356.2923, 5473.165
356.7744, 5735.807
357.2566, 5979.590
357.7387, 6218.145
358.2208, 6468.431
358.7029, 6736.436
359.1850, 6984.258
359.6671, 7232.792
360.1493, 7443.600
360.6314, 7597.306
361.1135, 7699.827
361.5956, 7762.110
362.0777, 7788.655
362.5598, 7787.607
363.0420, 7786.813
363.5241, 7770.085
364.0062, 7781.952
364.4883, 7832.869
364.9704, 7907.330
365.4525, 7985.125
365.9347, 8064.679
366.4168, 8173.825
366.8989, 8351.252
367.3810, 8602.491
367.8631, 8853.977
368.3452, 9109.082
368.8274, 9357.679
369.3095, 9610.145
369.7916, 9854.374
370.2737, 10062.14
370.7558, 10227.81
371.2379, 10343.78
371.7201, 10404.38
372.2022, 10413.21
372.6843, 10331.35
373.1664, 10121.29
373.6485, 9816.004
374.1306, 9477.946
374.6128, 9111.931
375.0949, 8702.797
375.5770, 8215.915
376.0591, 7687.600
376.5412, 7190.604
377.0233, 6740.144
377.5055, 6316.957
377.9876, 5896.916
378.4697, 5480.855
378.9518, 5113.012
379.4339, 4812.964
379.9160, 4545.473
380.3982, 4297.245
380.8803, 4066.486
381.3624, 3855.874
381.8445, 3666.979
382.3266, 3498.290
382.8087, 3342.144
383.2909, 3197.697
383.7730, 3070.750
384.2551, 2972.986
384.7372, 2885.179
385.2193, 2787.360
385.7014, 2679.020
386.1836, 2577.897
386.6657, 2503.863
387.1478, 2458.510
387.6299, 2415.323
388.1120, 2378.438
388.5941, 2338.440
389.0763, 2285.727
389.5584, 2229.590
390.0405, 2186.632
390.5226, 2165.969
391.0047, 2154.001
391.4868, 2126.085
391.9690, 2079.732
392.4511, 2042.463
392.9332, 2025.820
393.4153, 2017.790
393.8974, 2006.306
394.3795, 1991.206
394.8617, 1979.199
395.3438, 1974.883
395.8259, 1975.295
396.3080, 1975.743
396.7901, 1975.821
397.2722, 1976.207
397.7544, 1977.152
398.2365, 1978.859
398.7186, 1981.924
399.2007, 1995.970
399.6828, 2000.690
400.1649, 1981.674
400.6471, 1949.677
401.1292, 1924.603
401.6113, 1912.917
402.0934, 1902.146
402.5755, 1873.038
403.0576, 1818.700
403.5398, 1766.368
404.0219, 1715.554
404.5040, 1666.384
404.9861, 1619.457
405.4682, 1574.061
405.9503, 1528.406
406.4325, 1480.731
406.9146, 1433.308
407.3967, 1396.019
407.8788, 1375.372
408.3609, 1351.615
408.8430, 1314.646
409.3252, 1277.285
409.8073, 1250.629
410.2894, 1235.988
410.7715, 1224.523
411.2536, 1209.198
411.7357, 1190.654
412.2179, 1172.576
412.7000, 1155.356
413.1821, 1138.369
413.6642, 1119.440
414.1463, 1100.562
414.6284, 1086.944
415.1106, 1083.334
415.5927, 1080.493
416.0748, 1069.237
416.5569, 1052.913
417.0390, 1043.150
417.5211, 1045.032
418.0033, 1050.735
418.4854, 1048.025
418.9675, 1033.043
419.4496, 1022.782
419.9317, 1021.723
420.4138, 1022.397
420.8960, 1019.577
421.3781, 1013.870
421.8602, 1008.404
422.3423, 1004.983
422.8244, 1003.797
423.3065, 1005.815
423.7887, 1014.014
424.2708, 1020.849
424.7529, 1026.915
425.2350, 1030.554
425.7171, 1028.567
426.1992, 1021.474
426.6814, 1015.259
427.1635, 1018.766
427.6456, 1030.456
428.1277, 1029.673
428.6098, 1008.198
429.0919, 990.0845
429.5741, 990.4194
430.0562, 1001.122
430.5383, 1010.893
431.0204, 1016.833
431.5025, 1021.880
431.9846, 1029.518
432.4668, 1038.465
432.9489, 1043.574
433.4310, 1042.853
433.9131, 1040.264
434.3952, 1040.350
434.8773, 1043.393
435.3595, 1046.528
435.8416, 1049.347
436.3237, 1052.451
436.8058, 1056.538
437.2879, 1061.224
437.7701, 1065.061
438.2522, 1067.112
438.7343, 1069.154
439.2164, 1076.298
439.6985, 1095.976
440.1806, 1107.185
440.6628, 1102.630
441.1449, 1096.323
441.6270, 1097.752
442.1091, 1106.278
442.5912, 1115.436
443.0733, 1120.860
443.5555, 1122.910
444.0376, 1122.450
444.5197, 1118.384
445.0018, 1114.894
445.4839, 1115.155
445.9660, 1115.925
446.4482, 1112.974
446.9303, 1105.069
447.4124, 1099.295
447.8945, 1102.882
448.3766, 1111.117
448.8587, 1113.703
449.3409, 1109.033
449.8230, 1102.306
450.3051, 1096.954
450.7872, 1093.041
451.2693, 1090.470
451.7514, 1090.099
452.2336, 1089.958
452.7157, 1087.693
453.1978, 1085.891
453.6799, 1089.989
454.1620, 1100.981
454.6441, 1111.859
455.1263, 1112.954
455.6084, 1102.118
456.0905, 1093.688
456.5726, 1088.016
457.0547, 1084.659
457.5368, 1086.170
458.0190, 1089.316
458.5011, 1088.622
458.9832, 1081.290
459.4653, 1071.716
459.9474, 1066.348
460.4295, 1065.274
460.9117, 1063.479
461.3938, 1058.705
461.8759, 1054.799
462.3580, 1057.829
462.8401, 1065.829
463.3222, 1067.722
463.8044, 1054.974
464.2865, 1039.209
464.7686, 1030.333
465.2507, 1027.463
465.7328, 1026.656
466.2149, 1026.529
466.6971, 1026.448
467.1792, 1025.261
467.6613, 1023.089
468.1434, 1019.287
468.6255, 1012.305
469.1076, 1005.067
469.5898, 998.5402
470.0719, 993.3482
470.5540, 990.7511
471.0361, 991.7955
471.5182, 995.2195
472.0003, 997.1766
472.4825, 996.7156
472.9646, 997.3555
473.4467, 1001.285
473.9288, 1005.521
474.4109, 1007.068
474.8930, 1006.348
475.3752, 1008.025
475.8573, 1017.030
476.3394, 1029.222
476.8215, 1036.763
477.3036, 1039.417
477.7857, 1043.484
478.2679, 1052.525
478.7500, 1064.606
479.2321, 1075.154
479.7142, 1083.526
480.1963, 1092.070
480.6784, 1100.968
481.1606, 1110.399
481.6427, 1119.409
482.1248, 1128.740
482.6069, 1142.139
483.0890, 1163.535
483.5711, 1190.224
484.0533, 1206.964
484.5354, 1204.880
485.0175, 1207.365
485.4996, 1222.405
485.9817, 1239.500
486.4638, 1249.798
486.9460, 1252.725
487.4281, 1254.254
487.9102, 1259.100
488.3923, 1266.140
488.8744, 1271.989
489.3565, 1276.505
489.8387, 1280.673
490.3208, 1286.571
490.8029, 1291.397
491.2850, 1288.551
491.7671, 1273.282
492.2492, 1264.093
492.7314, 1275.063
493.2135, 1291.035
493.6956, 1293.236
494.1777, 1281.045
494.6598, 1267.179
495.1419, 1261.231
495.6241, 1261.981
496.1062, 1261.424
496.5883, 1259.787
497.0704, 1256.348
497.5525, 1249.998
498.0346, 1242.622
498.5168, 1236.646
498.9989, 1231.793
499.4810, 1224.553
499.9631, 1208.290
500.4452, 1187.437
500.9273, 1182.448
501.4095, 1198.656
501.8916, 1207.716
502.3737, 1191.634
502.8558, 1164.410
503.3379, 1148.341
503.8200, 1145.657
504.3022, 1146.592
504.7843, 1149.845
505.2664, 1153.489
505.7485, 1156.242
506.2306, 1157.521
506.7127, 1154.611
507.1949, 1144.761
507.6770, 1130.571
508.1591, 1123.589
508.6412, 1130.328
509.1233, 1134.968
509.6054, 1135.823
510.0876, 1135.037
510.5697, 1133.768
511.0518, 1132.323
511.5339, 1130.232
512.0161, 1123.823
512.4982, 1118.632
512.9803, 1135.860
513.4624, 1181.446
513.9445, 1211.684
514.4266, 1202.076
514.9088, 1177.444
515.3909, 1169.083
515.8730, 1177.482
516.3551, 1193.601
516.8372, 1217.418
517.3193, 1245.727
517.8015, 1277.365
518.2836, 1311.209
518.7657, 1344.023
519.2478, 1373.529
519.7299, 1402.925
520.2120, 1439.859
520.6942, 1487.100
521.1763, 1537.243
521.6584, 1595.017
522.1405, 1650.823
522.6226, 1694.962
523.1047, 1733.069
523.5869, 1778.406
524.0690, 1838.280
524.5511, 1908.637
525.0332, 1984.510
525.5153, 2065.873
525.9974, 2147.274
526.4796, 2223.837
526.9617, 2306.081
527.4438, 2409.090
527.9259, 2530.364
528.4080, 2647.517
528.8901, 2751.535
529.3723, 2856.679
529.8544, 2975.979
530.3365, 3101.916
530.8186, 3220.210
531.3007, 3326.324
531.7828, 3420.634
532.2650, 3507.032
532.7471, 3591.081
533.2292, 3634.382
533.7113, 3628.361
534.1934, 3587.997
534.6755, 3518.603
535.1577, 3418.143
535.6398, 3277.792
536.1219, 3091.868
536.6040, 2890.557
537.0861, 2694.948
537.5682, 2506.606
538.0504, 2331.736
538.5325, 2172.216
539.0146, 2023.941
539.4967, 1884.187
539.9788, 1754.803
540.4609, 1646.476
540.9431, 1567.536
541.4252, 1494.214
541.9073, 1417.812
542.3894, 1347.450
542.8715, 1291.885
543.3536, 1251.505
543.8358, 1221.941
544.3179, 1200.966
544.8000, 1186.625
545.2821, 1169.897
545.7642, 1148.787
546.2463, 1130.807
546.7285, 1119.073
547.2106, 1110.505
547.6927, 1103.969
548.1748, 1099.030
548.6569, 1092.477
549.1390, 1081.013
549.6211, 1068.632
550.1032, 1060.228
550.5853, 1055.010
551.0674, 1047.721
551.5496, 1035.130
552.0317, 1025.298
552.5138, 1032.632
552.9959, 1065.566
553.4780, 1087.165
553.9601, 1094.286
554.4423, 1095.303
554.9244, 1090.474
555.4065, 1082.728
555.8886, 1075.773
556.3707, 1070.928
556.8528, 1067.435
557.3350, 1062.769
557.8171, 1057.818
558.2992, 1062.031
558.7813, 1080.193
559.2634, 1095.133
559.7455, 1095.349
560.2277, 1083.281
560.7098, 1068.171
561.1919, 1044.244
561.6740, 1027.454
562.1561, 1031.627
562.6382, 1040.026
563.1204, 1031.538
563.6025, 1007.090
564.0846, 985.5357
564.5667, 981.4157
565.0488, 989.1545
565.5309, 985.6892
566.0131, 965.0052
566.4952, 948.3433
566.9773, 942.7139
567.4594, 939.5178
567.9415, 935.9748
568.4236, 930.7387
568.9058, 919.3975
569.3879, 893.9330
569.8700, 867.0135
570.3521, 851.4445
570.8342, 845.1475
571.3163, 842.3970
571.7985, 841.8720
572.2806, 840.0615
572.7627, 832.2277
573.2448, 817.3893
573.7269, 805.5663
574.2090, 798.9457
574.6912, 792.4138
575.1733, 784.3544
575.6554, 775.9113
576.1375, 768.8452
576.6196, 763.3470
577.1017, 757.2366
577.5839, 745.2928
578.0660, 731.1731
578.5481, 730.8487
579.0302, 746.8856
579.5123, 754.9791
579.9944, 739.8548
580.4766, 714.0257
580.9587, 702.2943
581.4408, 707.1802
581.9229, 711.9348
582.4050, 714.8781
582.8871, 716.4980
583.3693, 715.7027
583.8514, 714.0085
584.3335, 714.8224
584.8156, 719.7268
585.2977, 726.1354
585.7798, 729.7743
586.2620, 730.3345
586.7441, 731.1864
587.2262, 730.3454
587.7083, 733.4249
588.1904, 747.2514
588.6725, 766.1277
589.1547, 780.7242
589.6368, 788.8254
590.1189, 795.3804
590.6010, 802.6990
591.0831, 809.8704
591.5652, 814.6511
592.0474, 817.5967
592.5295, 822.6641
593.0116, 832.6839
593.4937, 846.0175
593.9758, 858.0391
594.4579, 869.3680
594.9401, 877.7692
595.4222, 879.5760
595.9043, 881.4929
596.3864, 888.2750
596.8685, 897.7863
597.3506, 903.8868
597.8328, 902.2020
598.3149, 900.5090
598.7970, 907.5216
599.2791, 919.8808
599.7612, 928.6936
600.2433, 932.2714
600.7255, 934.3705
601.2076, 938.0556
601.6897, 943.1173
602.1718, 947.8462
602.6539, 951.8969
603.1360, 956.0760
603.6182, 963.5502
604.1003, 968.7370
604.5824, 963.7411
605.0645, 951.6757
605.5466, 945.8300
606.0287, 956.5976
606.5109, 973.8940
606.9930, 983.7923
607.4751, 986.6378
607.9572, 983.8265
608.4393, 974.2235
608.9214, 964.7711
609.4036, 962.6145
609.8857, 967.8081
610.3678, 972.9261
610.8499, 981.1541
611.3320, 985.3009
611.8141, 979.5256
612.2963, 971.4969
612.7784, 969.9849
613.2605, 975.0621
613.7426, 979.4622
614.2247, 977.6210
614.7068, 971.2841
615.1890, 963.4611
615.6711, 953.9302
616.1532, 948.0336
616.6353, 947.7051
617.1174, 950.9866
617.5995, 958.0394
618.0817, 968.9669
618.5638, 971.5733
619.0459, 960.6378
619.5280, 946.8235
620.0101, 931.4102
620.4922, 916.8186
620.9744, 907.7192
621.4565, 903.7741
621.9386, 897.2918
622.4207, 879.6243
622.9028, 854.6115
623.3849, 838.3901
623.8671, 832.5027
624.3492, 826.5246
624.8313, 817.7112
625.3134, 807.0408
625.7955, 794.7417
626.2776, 780.9205
626.7598, 769.5859
627.2419, 764.4612
627.7240, 758.5660
628.2061, 748.3098
628.6882, 735.1497
629.1703, 720.5777
629.6525, 705.4059
630.1346, 691.1891
630.6167, 678.9927
631.0988, 669.1700
631.5809, 664.5921
632.0630, 667.1560
632.5452, 667.3715
633.0273, 660.9901
633.5094, 652.3446
633.9915, 646.2728
634.4736, 642.6381
634.9557, 638.7262
635.4379, 630.4214
635.9200, 625.5258
636.4021, 632.9767
636.8842, 645.0334
637.3663, 647.9014
637.8484, 639.2749
638.3306, 630.1594
638.8127, 632.1464
639.2948, 643.0805
639.7769, 649.5876
640.2590, 650.6341
640.7411, 650.9581
641.2233, 651.7131
641.7054, 652.4379
642.1875, 652.5886
642.6696, 652.2152
643.1517, 651.9313
643.6339, 650.6287
644.1160, 650.7640
644.5981, 654.5637
645.0802, 660.3286
645.5623, 666.5742
646.0444, 672.3859
646.5266, 675.0952
647.0087, 671.4288
647.4908, 663.0530
647.9729, 658.1330
648.4550, 657.7234
648.9371, 656.6478
649.4193, 653.2247
649.9014, 649.0917
650.3835, 644.5852
650.8656, 640.1801
651.3477, 639.6368
651.8298, 647.0782
652.3120, 654.5323
652.7941, 660.0013
653.2762, 662.4335
653.7583, 658.0045
654.2404, 647.8116
654.7225, 640.6959
655.2047, 645.0779
655.6868, 656.2468
656.1689, 656.9986
656.6510, 644.8642
657.1331, 638.1727
657.6152, 644.4305
658.0974, 651.8374
658.5795, 646.7302
659.0616, 632.7858
659.5437, 626.8971
660.0258, 640.2704
660.5079, 649.8265
660.9901, 643.0895
661.4722, 631.6332
661.9543, 628.1982
662.4364, 632.9070
662.9185, 637.8746
663.4006, 637.8250
663.8828, 634.9660
664.3649, 633.6010
664.8470, 633.7220
665.3291, 636.0824
665.8112, 642.0152
666.2933, 647.3838
666.7755, 649.4954
667.2576, 648.4412
667.7397, 644.9266
668.2218, 633.7253
668.7039, 628.5453
669.1860, 638.1751
669.6682, 649.7390
670.1503, 651.9210
670.6324, 647.0656
671.1145, 644.6541
671.5966, 649.6626
672.0787, 656.8618
672.5609, 658.9169
673.0430, 656.4235
673.5251, 653.5902
674.0072, 650.8146
674.4893, 647.5129
674.9714, 642.8829
675.4536, 637.8413
675.9357, 635.0006
676.4178, 636.2109
676.8999, 635.5228
677.3820, 631.7758
677.8641, 627.1216
678.3463, 622.6523
678.8284, 618.0919
679.3105, 611.9979
679.7926, 603.9324
680.2747, 597.9331
680.7568, 600.4608
681.2390, 607.2682
681.7211, 607.4846
682.2032, 601.0035
682.6853, 594.1074
683.1674, 589.1240
683.6495, 586.3262
684.1317, 586.7700
684.6138, 591.9374
685.0959, 592.4545
685.5780, 583.0010
686.0601, 575.2462
686.5422, 574.9430
687.0244, 575.8942
687.5065, 569.6957
687.9886, 556.2310
688.4707, 546.3418
688.9528, 549.4125
689.4349, 556.7045
689.9171, 558.8820
690.3992, 556.9741
690.8813, 553.2422
691.3634, 548.4305
691.8455, 545.8505
692.3276, 549.9846
692.8098, 559.2354
693.2919, 558.0307
693.7740, 538.2204
694.2561, 526.0886
694.7382, 532.6136
695.2203, 542.8484
695.7025, 546.2006
696.1846, 544.4669
696.6667, 545.3611
697.1488, 553.9315
697.6309, 560.7892
698.1130, 558.6425
698.5952, 553.2455
699.0773, 552.1623
699.5594, 555.4366
700.0415, 558.7405
700.5236, 559.5806
701.0057, 557.9795
701.4879, 552.0074
701.9700, 541.0728
702.4521, 539.3179
702.9342, 552.2590
703.4163, 563.3508
703.8984, 561.2755
704.3806, 551.2768
704.8627, 545.6380
705.3448, 544.3535
705.8269, 546.9805
706.3090, 559.0603
706.7911, 569.4613
707.2733, 569.2982
707.7554, 563.6022
708.2375, 561.1647
708.7196, 564.6451
709.2017, 570.2898
709.6838, 577.1934
710.1660, 582.9228
710.6481, 578.4332
711.1302, 564.4762
711.6123, 556.0342
712.0944, 558.9743
712.5765, 567.1534
713.0587, 573.5589
713.5408, 578.2144
714.0229, 580.5296
714.5050, 578.1369
714.9871, 576.5999
715.4692, 576.9266
715.9514, 578.3024
716.4335, 580.0751
716.9156, 582.2588
717.3977, 585.2391
717.8798, 589.3250
718.3619, 594.0479
718.8441, 600.8351
719.3262, 607.3161
719.8083, 607.5771
720.2904, 602.1569
720.7725, 599.4846
721.2546, 605.6551
721.7368, 616.4091
722.2189, 620.2712
722.7010, 615.3544
723.1831, 617.4111
723.6652, 631.7366
724.1473, 644.9764
724.6295, 648.7172
725.1116, 646.6397
725.5937, 646.4294
726.0758, 648.5759
726.5579, 650.9634
727.0400, 649.9503
727.5222, 652.3808
728.0043, 666.6588
728.4864, 685.5569
728.9685, 695.8096
729.4506, 694.6501
729.9327, 693.7430
730.4149, 705.3583
730.8970, 723.9832
731.3791, 736.7548
731.8612, 744.3177
732.3433, 753.6594
732.8254, 767.4675
733.3076, 779.0731
733.7897, 780.1833
734.2718, 772.1903
734.7539, 773.9055
735.2360, 791.8082
735.7181, 808.7228
736.2003, 820.9988
736.6824, 833.3991
737.1645, 849.1769
737.6466, 867.5391
738.1287, 885.8161
738.6108, 903.1653
739.0930, 920.8829
739.5751, 942.2991
740.0572, 962.7754
740.5393, 975.3676
741.0214, 981.6948
741.5035, 988.1234
741.9857, 997.5593
742.4678, 1009.607
742.9499, 1023.572
743.4320, 1039.533
743.9141, 1059.678
744.3962, 1085.023
744.8784, 1109.312
745.3605, 1130.398
745.8426, 1149.217
746.3247, 1166.199
746.8068, 1180.854
747.2889, 1199.070
747.7711, 1223.424
748.2532, 1247.960
748.7353, 1273.609
749.2174, 1297.254
749.6995, 1313.092
750.1816, 1323.765
750.6638, 1340.833
751.1459, 1373.152
751.6280, 1407.124
752.1101, 1430.262
752.5922, 1446.148
753.0743, 1458.736
753.5565, 1469.944
754.0386, 1486.431
754.5207, 1512.302
755.0028, 1543.487
755.4849, 1572.279
755.9670, 1598.330
756.4492, 1625.504
756.9313, 1655.223
757.4134, 1682.807
757.8955, 1705.869
758.3776, 1726.203
758.8597, 1746.771
759.3419, 1767.619
759.8240, 1787.456
760.3061, 1804.319
760.7882, 1822.414
761.2703, 1847.744
761.7524, 1872.199
762.2346, 1887.730
762.7167, 1893.550
763.1988, 1892.381
763.6809, 1881.961
764.1630, 1872.032
764.6451, 1879.557
765.1273, 1895.318
765.6094, 1893.202
766.0915, 1871.481
766.5736, 1851.952
767.0557, 1848.767
767.5378, 1852.734
768.0200, 1843.646
768.5021, 1819.744
768.9842, 1792.833
769.4663, 1760.233
769.9484, 1730.891
770.4305, 1709.114
770.9127, 1692.488
771.3948, 1679.397
771.8769, 1670.732
772.3590, 1654.971
772.8411, 1622.609
773.3232, 1592.876
773.8054, 1575.674
774.2875, 1563.174
774.7696, 1547.114
775.2517, 1526.982
775.7338, 1506.552
776.2159, 1487.077
776.6981, 1469.882
777.1802, 1457.031
777.6623, 1447.453
778.1444, 1439.454
778.6265, 1432.503
779.1086, 1424.170
779.5908, 1412.900
780.0729, 1401.227
780.5550, 1394.659
781.0371, 1394.061
781.5192, 1389.342
782.0013, 1377.914
782.4835, 1369.473
782.9656, 1370.298
783.4477, 1373.430
783.9298, 1368.587
784.4119, 1355.494
784.8940, 1347.658
785.3762, 1351.876
785.8583, 1353.363
786.3404, 1344.326
786.8225, 1333.971
787.3046, 1330.199
787.7867, 1332.473
788.2689, 1335.880
788.7510, 1337.994
789.2331, 1341.933
789.7152, 1350.925
790.1973, 1363.193
790.6794, 1379.268
791.1616, 1396.528
791.6437, 1402.598
792.1258, 1392.179
792.6079, 1382.578
793.0900, 1401.631
793.5721, 1444.850
794.0543, 1463.516
794.5364, 1452.349
795.0185, 1450.874
795.5006, 1472.541
795.9827, 1503.016
796.4648, 1529.535
796.9470, 1552.451
797.4291, 1574.563
797.9112, 1594.939
798.3933, 1615.724
798.8754, 1633.021
799.3575, 1654.704
799.8397, 1689.456
800.3218, 1730.617
800.8039, 1764.220
801.2860, 1785.158
801.7681, 1811.354
802.2502, 1857.554
802.7324, 1907.887
803.2145, 1949.708
803.6966, 1984.235
804.1787, 2011.630
804.6608, 2034.114
805.1429, 2064.492
805.6251, 2115.712
806.1072, 2178.990
806.5893, 2238.216
807.0714, 2293.080
807.5535, 2337.281
808.0356, 2369.143
808.5178, 2401.624
808.9999, 2443.365
809.4820, 2491.864
809.9641, 2539.968
810.4462, 2586.980
810.9283, 2637.080
811.4105, 2693.543
811.8926, 2748.022
812.3747, 2793.365
812.8568, 2837.571
813.3389, 2891.063
813.8210, 2953.748
814.3032, 3012.149
814.7853, 3068.452
815.2674, 3114.638
815.7495, 3140.774
816.2316, 3161.168
816.7137, 3191.354
817.1959, 3227.806
817.6780, 3256.309
818.1601, 3270.729
818.6422, 3276.848
819.1243, 3279.914
819.6064, 3277.793
820.0886, 3265.093
820.5707, 3243.976
821.0528, 3223.414
821.5349, 3206.269
822.0170, 3186.906
822.4991, 3158.760
822.9813, 3123.164
823.4634, 3085.529
823.9455, 3045.586
824.4276, 3003.085
824.9097, 2957.501
825.3918, 2910.832
825.8740, 2863.777
826.3561, 2817.376
826.8382, 2776.338
827.3203, 2745.994
827.8024, 2708.592
828.2845, 2657.173
828.7667, 2607.207
829.2488, 2567.957
829.7309, 2530.894
830.2130, 2483.490
830.6951, 2425.136
831.1772, 2374.946
831.6594, 2336.448
832.1415, 2308.252
832.6236, 2300.927
833.1057, 2295.257
833.5878, 2267.879
834.0699, 2223.704
834.5521, 2184.425
835.0342, 2159.286
835.5163, 2143.509
835.9984, 2137.925
836.4805, 2135.888
836.9626, 2126.127
837.4448, 2109.641
837.9269, 2091.107
838.4090, 2072.515
838.8911, 2057.883
839.3732, 2052.370
839.8553, 2053.571
840.3375, 2053.481
840.8196, 2052.147
841.3017, 2045.012
841.7838, 2028.865
842.2659, 2019.491
842.7480, 2029.839
843.2302, 2051.421
843.7123, 2063.327
844.1944, 2065.011
844.6765, 2058.003
845.1586, 2030.808
845.6407, 2012.070
846.1229, 2014.945
846.6050, 2028.293
847.0871, 2045.932
847.5692, 2066.449
848.0513, 2076.156
848.5334, 2059.536
849.0156, 2050.461
849.4977, 2065.999
849.9798, 2085.414
850.4619, 2090.465
850.9440, 2087.034
851.4261, 2089.923
851.9083, 2103.734
852.3904, 2123.032
852.8725, 2148.508
853.3546, 2174.273
853.8367, 2193.294
854.3188, 2208.195
854.8010, 2223.340
855.2831, 2240.465
855.7652, 2261.819
856.2473, 2289.073
856.7294, 2321.194
857.2115, 2356.661
857.6937, 2395.357
858.1758, 2435.368
858.6579, 2476.896
859.1400, 2529.885
859.6221, 2600.068
860.1042, 2677.142
860.5864, 2746.913
861.0685, 2809.364
861.5506, 2874.597
862.0327, 2943.541
862.5148, 3011.069
862.9969, 3073.239
863.4791, 3140.350
863.9612, 3219.529
864.4433, 3310.595
864.9254, 3412.296
865.4075, 3534.380
865.8896, 3647.417
866.3718, 3740.263
866.8539, 3838.527
867.3360, 3954.531
867.8181, 4078.565
868.3002, 4198.949
868.7823, 4315.239
869.2645, 4434.353
869.7466, 4559.709
870.2287, 4685.147
870.7108, 4815.288
871.1929, 4938.204
871.6750, 5038.474
872.1572, 5123.154
872.6393, 5213.864
873.1214, 5318.938
873.6035, 5405.026
874.0856, 5436.113
874.5677, 5446.061
875.0499, 5481.266
875.5320, 5522.924
876.0141, 5528.480
876.4962, 5492.212
876.9783, 5437.560
877.4604, 5379.622
877.9426, 5314.929
878.4247, 5244.876
878.9068, 5163.636
879.3889, 5040.722
879.8710, 4878.241
880.3531, 4720.480
880.8353, 4586.550
881.3174, 4461.148
881.7995, 4328.007
882.2816, 4186.926
882.7637, 4031.757
883.2458, 3858.619
883.7280, 3705.304
884.2101, 3581.245
884.6922, 3470.512
885.1743, 3368.938
885.6564, 3269.199
886.1385, 3153.101
886.6207, 3015.645
887.1028, 2885.690
887.5849, 2758.094
888.0670, 2647.155
888.5491, 2565.979
889.0313, 2495.016
889.5134, 2416.367
889.9955, 2332.866
890.4776, 2256.776
890.9597, 2190.876
891.4418, 2129.559
891.9240, 2074.038
892.4061, 2020.429
892.8882, 1967.807
893.3703, 1914.809
893.8524, 1856.966
894.3345, 1794.910
894.8167, 1743.317
895.2988, 1718.185
895.7809, 1692.982
896.2630, 1647.426
896.7451, 1599.174
897.2272, 1568.602
897.7094, 1551.539
898.1915, 1533.944
898.6736, 1510.897
899.1557, 1482.229
899.6378, 1442.786
900.1199, 1401.793
900.6021, 1372.375
901.0842, 1349.774
901.5663, 1322.580
902.0484, 1289.911
902.5305, 1259.802
903.0126, 1237.504
903.4948, 1219.405
903.9769, 1200.240
904.4590, 1181.067
904.9411, 1166.192
905.4232, 1155.302
905.9053, 1144.853
906.3875, 1133.710
906.8696, 1124.371
907.3517, 1119.886
907.8338, 1117.994
908.3159, 1110.858
908.7980, 1098.455
909.2802, 1086.138
909.7623, 1074.046
910.2444, 1065.974
910.7265, 1064.899
911.2086, 1065.297
911.6907, 1058.569
912.1729, 1044.855
912.6550, 1035.547
913.1371, 1031.288
913.6192, 1029.568
914.1013, 1031.239
914.5834, 1033.007
915.0656, 1032.826
915.5477, 1031.167
916.0298, 1028.936
916.5119, 1025.658
916.9940, 1023.618
917.4761, 1024.633
917.9583, 1024.315
918.4404, 1022.475
918.9225, 1018.222
919.4046, 1008.849
919.8867, 996.3082
920.3688, 987.7770
920.8510, 984.8159
921.3331, 983.5067
921.8152, 983.4971
922.2973, 984.7894
922.7794, 988.0300
923.2615, 992.1582
923.7437, 996.6326
924.2258, 1001.018
924.7079, 1003.207
925.1900, 999.9238
925.6721, 998.7419
926.1542, 1005.777
926.6364, 1013.270
927.1185, 1013.544
927.6006, 1010.359
928.0827, 1011.287
928.5648, 1017.673
929.0469, 1023.786
929.5291, 1026.351
930.0112, 1027.575
930.4933, 1028.247
930.9754, 1029.127
931.4575, 1032.358
931.9396, 1036.556
932.4218, 1036.634
932.9039, 1030.898
933.3860, 1027.085
933.8681, 1034.459
934.3502, 1045.397
934.8323, 1049.966
935.3145, 1050.551
935.7966, 1053.143
936.2787, 1057.401
936.7608, 1056.087
937.2429, 1044.937
937.7250, 1033.832
938.2072, 1038.510
938.6893, 1050.696
939.1714, 1050.043
939.6535, 1039.320
940.1356, 1032.659
940.6177, 1032.273
941.0999, 1024.873
941.5820, 999.6323
942.0641, 969.7850
942.5462, 962.2919
943.0283, 971.9953
943.5104, 971.2297
943.9926, 959.6840
944.4747, 949.6433
944.9568, 944.9923
945.4389, 937.7410
945.9210, 919.4954
946.4031, 896.3135
946.8853, 887.7348
947.3674, 893.6229
947.8495, 887.7350
948.3316, 867.1731
948.8137, 849.7991
949.2958, 843.1247
949.7780, 838.9277
950.2601, 827.6421
950.7422, 811.2310
951.2243, 801.1068
951.7064, 798.9113
952.1885, 791.3586
952.6707, 774.9128
953.1528, 762.1317
953.6349, 759.4911
954.1170, 762.0190
954.5991, 762.8130
955.0812, 762.1349
955.5634, 766.4376
956.0455, 778.2860
956.5276, 787.0956
957.0097, 790.9298
957.4918, 792.8652
957.9739, 793.0946
958.4561, 794.0974
958.9382, 801.0300
959.4203, 814.8086
959.9024, 821.1931
960.3845, 813.6339
960.8666, 811.8895
961.3488, 821.0439
961.8309, 833.7581
962.3130, 848.6920
962.7951, 862.5483
963.2772, 867.4774
963.7593, 860.4077
964.2415, 860.9006
964.7236, 875.4670
965.2057, 888.1340
965.6878, 895.8559
966.1699, 901.2959
966.6520, 907.3152
967.1342, 912.0838
967.6163, 909.2170
968.0984, 893.2769
968.5805, 891.1423
969.0626, 919.6915
969.5447, 941.2886
970.0269, 940.7833
970.5090, 935.1673
970.9911, 936.6578
971.4732, 943.5328
971.9553, 949.8852
972.4374, 954.4713
972.9196, 961.0807
973.4017, 974.7421
973.8838, 984.8358
974.3659, 988.1180
974.8480, 985.8301
975.3301, 972.5551
975.8123, 955.0181
976.2944, 954.6636
976.7765, 981.7486
977.2586, 1002.856
977.7407, 1009.099
978.2228, 1009.586
978.7050, 1003.793
979.1871, 997.5789
979.6692, 998.3719
980.1513, 1003.781
980.6334, 1003.790
981.1155, 994.1938
981.5977, 985.6483
982.0798, 980.6667
982.5619, 978.2652
983.0440, 980.3113
983.5261, 982.9060
984.0082, 980.4954
984.4904, 974.5982
984.9725, 973.3468
985.4546, 982.6605
985.9367, 985.3596
986.4188, 968.8320
986.9009, 951.1959
987.3831, 939.3814
987.8652, 934.8489
988.3473, 944.8401
988.8294, 963.9434
989.3115, 969.5462
989.7936, 948.7427
990.2758, 932.1447
990.7579, 938.0214
991.2400, 945.9115
991.7221, 941.0295
992.2042, 931.6368
992.6863, 930.0777
993.1685, 935.0858
993.6506, 934.1840
994.1327, 919.9539
994.6148, 909.1954
995.0969, 915.3126
995.5790, 921.0469
996.0612, 911.6122
996.5433, 896.8005
997.0254, 889.6180
997.5075, 890.1189
997.9896, 890.6777
998.4717, 889.5841
998.9539, 885.5547
999.4360, 879.0479
999.9181, 868.2325
1000.400, 846.0551
1000.882, 822.6185
1001.364, 813.2888
1001.847, 815.7363
1002.329, 813.1842
1002.811, 798.6719
1003.293, 782.3116
1003.775, 768.8354
1004.257, 755.0670
1004.739, 738.1957
1005.221, 720.2881
1005.703, 704.1190
1006.186, 689.7334
1006.668, 675.7532
1007.150, 662.5948
1007.632, 647.1418
1008.114, 624.2280
1008.596, 602.7253
1009.078, 588.1879
1009.560, 578.5452
1010.043, 573.3150
1010.525, 570.3023
1011.007, 562.7375
1011.489, 546.5209
1011.971, 533.0645
1012.453, 527.0121
1012.935, 525.3915
1013.417, 529.1211
1013.899, 534.3264
1014.382, 538.5518
1014.864, 540.3228
1015.346, 535.1824
1015.828, 518.5925
1016.310, 509.6279
1016.792, 523.3381
1017.274, 537.4543
1017.756, 539.1584
1018.239, 535.7463
1018.721, 532.7812
1019.203, 532.0052
1019.685, 536.7315
1020.167, 549.6171
1020.649, 558.2367
1021.131, 555.5035
1021.613, 551.4304
1022.095, 551.3315
1022.578, 551.4262
1023.060, 545.7337
1023.542, 537.6704
1024.024, 537.4957
1024.506, 548.9182
1024.988, 556.0603
1025.470, 553.6044
1025.952, 547.7430
1026.435, 539.9057
1026.917, 530.3311
1027.399, 516.7894
1027.881, 502.3605
1028.363, 494.3879
1028.845, 494.9980
1029.327, 491.7906
1029.809, 480.5352
1030.292, 467.9743
1030.774, 453.6910
1031.256, 440.8430
1031.738, 432.0939
1032.220, 425.9938
1032.702, 419.8977
1033.184, 413.5543
1033.666, 408.0925
1034.148, 403.6019
1034.630, 400.0720
1035.113, 398.2694
1035.595, 396.5909
1036.077, 393.4059
1036.559, 390.1995
1037.041, 389.6693
1037.523, 391.9502
1038.005, 392.8576
1038.487, 392.7530
1038.970, 390.5906
1039.452, 383.4184
1039.934, 377.9875
1040.416, 379.3863
1040.898, 382.2072
1041.380, 378.9476
1041.862, 370.4865
1042.344, 366.9095
1042.826, 372.6613
1043.309, 373.1207
1043.791, 362.9832
1044.273, 356.7328
1044.755, 361.6400
1045.237, 369.8936
1045.719, 374.2339
1046.201, 375.0056
1046.683, 373.4021
1047.166, 367.6545
1047.648, 366.1799
1048.130, 371.6414
1048.612, 373.2980
1049.094, 366.7511
1049.576, 358.3603
1050.058, 353.1037
1050.540, 350.5126
1051.022, 349.7890
1051.505, 351.3380
1051.987, 350.1173
1052.469, 345.2694
1052.951, 343.3096
1053.433, 346.0789
1053.915, 350.5204
1054.397, 355.0484
1054.879, 358.5662
1055.361, 358.7015
1055.844, 355.8043
1056.326, 354.2410
1056.808, 353.9922
1057.290, 352.5020
1057.772, 349.3080
1058.254, 347.6075
1058.736, 349.2444
1059.218, 351.0814
1059.701, 348.1384
1060.183, 342.7644
1060.665, 344.9564
1061.147, 352.4607
1061.629, 350.3679
1062.111, 338.8644
1062.593, 334.1918
1063.075, 342.4290
1063.557, 354.0816
1064.040, 361.4113
1064.522, 363.4759
1065.004, 353.8507
1065.486, 339.2166
1065.968, 338.3338
1066.450, 348.0529
1066.932, 352.3177
1067.414, 347.5078
1067.896, 342.7137
1068.379, 344.6234
1068.861, 347.1877
1069.343, 340.4747
1069.825, 332.5317
1070.307, 337.0996
1070.789, 348.2516
1071.271, 352.8297
1071.753, 350.1971
1072.236, 349.0587
1072.718, 353.6318
1073.200, 358.0699
1073.682, 358.5155
1074.164, 356.6557
1074.646, 352.9252
1075.128, 348.4382
1075.610, 343.9130
1076.093, 339.8788
1076.575, 336.7033
1077.057, 334.4015
1077.539, 335.3648
1078.021, 344.7196
1078.503, 352.1642
1078.985, 352.0262
1079.467, 349.1868
1079.949, 345.9615
1080.432, 343.4218
1080.914, 342.8830
1081.396, 344.4338
1081.878, 346.6877
1082.360, 351.7869
1082.842, 353.9169
1083.324, 348.0771
1083.806, 344.0288
1084.288, 348.5031
1084.771, 355.2206
1085.253, 356.7499
1085.735, 354.3567
1086.217, 354.5330
1086.699, 359.0037
1087.181, 361.5363
1087.663, 362.5291
1088.145, 360.3194
1088.628, 351.8508
1089.110, 345.1328
1089.592, 347.0865
1090.074, 353.5011
1090.556, 355.1708
1091.038, 351.9172
1091.520, 348.7407
1092.002, 345.3481
1092.484, 344.0455
1092.967, 345.2379
1093.449, 348.8097
1093.931, 355.2050
1094.413, 361.3281
1094.895, 363.0807
1095.377, 361.5680
1095.859, 359.5370
1096.341, 357.6079
1096.823, 362.9894
1097.306, 374.9062
1097.788, 379.6615
1098.270, 373.3573
1098.752, 367.5502
1099.234, 371.8851
1099.716, 379.6653
1100.198, 380.5187
1100.680, 377.3964
1101.163, 375.4529
1101.645, 374.9478
1102.127, 375.9724
1102.609, 378.3631
1103.091, 381.7194
1103.573, 385.8893
1104.055, 389.9576
1104.537, 393.8766
1105.020, 396.5639
1105.502, 394.7452
1105.984, 392.8455
1106.466, 398.4023
1106.948, 407.7051
1107.430, 411.4321
1107.912, 407.7978
1108.394, 403.2691
1108.876, 398.7747
1109.359, 396.4354
1109.841, 397.2627
1110.323, 400.2420
1110.805, 407.2397
1111.287, 414.3253
1111.769, 415.9618
1112.251, 413.1074
1112.733, 412.0343
1113.215, 413.3115
1113.698, 416.4268
1114.180, 426.5291
1114.662, 429.8804
1115.144, 417.1121
1115.626, 405.9158
1116.108, 409.8224
1116.590, 421.3349
1117.072, 426.4632
1117.555, 425.1751
1118.037, 424.8121
1118.519, 425.2311
1119.001, 428.2711
1119.483, 435.1058
1119.965, 437.1660
1120.447, 429.9102
1120.929, 423.3786
1121.411, 428.7852
1121.894, 440.4283
1122.376, 443.0657
1122.858, 438.4224
1123.340, 434.5982
1123.822, 432.2040
1124.304, 433.3751
1124.786, 437.7396
1125.268, 439.0462
1125.750, 433.6505
1126.233, 425.6446
1126.715, 417.4727
1127.197, 411.3400
1127.679, 411.8532
1128.161, 415.5730
1128.643, 417.9422
1129.125, 418.2932
1129.607, 416.1126
1130.090, 411.6610
1130.572, 408.5644
1131.054, 409.9086
1131.536, 410.7501
1132.018, 407.7923
1132.500, 404.2545
1132.982, 400.9992
1133.464, 399.3890
1133.947, 403.6209
1134.429, 410.9493
1134.911, 409.5033
1135.393, 393.1343
1135.875, 384.3119
1136.357, 391.7743
1136.839, 396.4829
1137.321, 392.1904
1137.803, 389.1224
1138.286, 394.8618
1138.768, 402.8410
1139.250, 402.2168
1139.732, 394.6098
1140.214, 397.3942
1140.696, 413.3543
1141.178, 416.2558
1141.660, 402.9376
1142.142, 393.7555
1142.625, 395.4265
1143.107, 399.3159
1143.589, 398.9425
1144.071, 395.7353
1144.553, 390.7409
1145.035, 385.4164
1145.517, 385.7687
1145.999, 389.4151
1146.482, 388.3400
1146.964, 382.6291
1147.446, 377.1216
1147.928, 373.8171
1148.410, 373.3464
1148.892, 378.2389
1149.374, 382.6166
1149.856, 380.6121
1150.339, 376.1533
1150.821, 371.6866
1151.303, 368.3241
1151.785, 367.0730
1152.267, 368.0179
1152.749, 371.5316
1153.231, 379.5371
1153.713, 382.6938
1154.195, 372.5302
1154.677, 366.0932
1155.160, 371.4551
1155.642, 378.9008
1156.124, 384.9244
1156.606, 387.2602
1157.088, 380.4691
1157.570, 365.9978
1158.052, 362.2203
1158.534, 373.0716
1159.017, 375.9072
1159.499, 368.2430
1159.981, 360.5499
1160.463, 355.7578
1160.945, 353.3795
1161.427, 353.3947
1161.909, 353.6247
1162.391, 348.9489
1162.874, 342.0005
1163.356, 341.9076
1163.838, 347.1439
1164.320, 354.8945
1164.802, 363.0821
1165.284, 365.2655
1165.766, 360.1313
1166.248, 355.5263
1166.730, 357.0176
1167.213, 359.8537
1167.695, 362.0201
1168.177, 361.8129
1168.659, 355.1339
1169.141, 347.0406
1169.623, 342.9396
1170.105, 343.1812
1170.587, 347.8077
1171.069, 357.8691
1171.552, 363.3924
1172.034, 359.4774
1172.516, 355.8786
1172.998, 353.7334
1173.480, 352.7581
1173.962, 354.0231
1174.444, 354.5483
1174.926, 349.9538
1175.409, 343.1023
1175.891, 338.2503
1176.373, 352.4338
1176.855, 360.7333
1177.337, 363.4655
1177.819, 343.9545
1178.301, 353.1659
1178.783, 350.8665
1179.266, 348.0968
1179.748, 361.3507
1180.230, 345.0749
1180.712, 358.0747
1181.194, 359.3880
1181.676, 361.0000
1182.158, 366.5139
1182.640, 368.8262
1183.122, 364.9314
1183.604, 356.4901
1184.087, 350.7440
1184.569, 350.3273
1185.051, 352.8611
1185.533, 360.1232
1186.015, 366.1884
1186.497, 368.3192
1186.979, 368.6719
1187.461, 367.6559
1187.944, 366.5300
1188.426, 368.0470
1188.908, 371.1791
1189.390, 368.9624
1189.872, 358.0528
1190.354, 353.9675
1190.836, 357.9711
1191.318, 364.0736
1191.801, 371.8119
1192.283, 374.5707
1192.765, 367.7684
1193.247, 360.9502
1193.729, 367.6794
1194.211, 380.7118
1194.693, 380.9088
1195.175, 373.5700
1195.657, 366.9385
1196.140, 360.6745
1196.622, 374.3780
1197.104, 382.1978
1197.586, 384.4500
1198.068, 364.4592
1198.550, 373.1907
1199.032, 370.4116
1199.514, 367.1605
1199.996, 368.5580
1200.479, 366.6577
1200.961, 362.1689
1201.443, 357.6888
1201.925, 357.1926
1202.407, 360.3818
1202.889, 363.2704
1203.371, 366.0424
1203.853, 367.9016
1204.336, 368.9813
1204.818, 368.7107
1205.300, 366.9540
1205.782, 363.4890
1206.264, 357.8088
1206.746, 352.7221
1207.228, 351.2264
1207.710, 353.4782
1208.193, 362.5587
1208.675, 374.7758
1209.157, 378.8821
1209.639, 376.5307
1210.121, 373.1953
1210.603, 370.3206
1211.085, 368.2102
1211.567, 366.9759
1212.049, 366.4229
1212.531, 367.9082
1213.014, 368.0225
1213.496, 362.2913
1213.978, 357.5139
1214.460, 358.1289
1214.942, 362.6523
1215.424, 371.3480
1215.906, 381.9464
1216.388, 386.6170
1216.871, 384.3857
1217.353, 382.0383
1217.835, 379.5712
1218.317, 376.8920
1218.799, 373.8875
1219.281, 370.9325
1219.763, 367.9881
1220.245, 368.2482
1220.728, 375.7062
1221.210, 383.6599
1221.692, 377.7639
1222.174, 365.2874
1222.656, 360.5172
1223.138, 361.3632
1223.620, 364.2788
1224.102, 367.6753
1224.584, 368.9417
1225.067, 367.6920
1225.549, 367.8893
1226.031, 373.1534
1226.513, 376.2724
1226.995, 373.0910
1227.477, 369.5273
1227.959, 367.3991
1228.441, 366.7603
1228.923, 368.6297
1229.406, 370.9371
1229.888, 369.6910
1230.370, 365.4188
1230.852, 364.7252
1231.334, 367.8978
1231.816, 366.0292
1232.298, 358.9938
1232.780, 357.4126
1233.263, 363.4099
1233.745, 368.3474
1234.227, 367.3565
1234.709, 363.0105
1235.191, 354.9357
1235.673, 348.4469
##END=



