##NAMES=Grossular
##RRUFFID=R060499
##IDEAL CHEMISTRY=Ca_3_Al_2_(SiO_4_)_3_
##LOCALITY=Lake Jaco, Chihuahua, Mexico
##OWNER=RRUFF
##SOURCE=Michael Scott
##DESCRIPTION=Tan colored single dodecahedral crystal
##STATUS=The identification of this mineral has been confirmed by X-ray diffraction and chemical analysis
##URL=rruff.info/R060499
##MEASURED CHEMISTRY=(Ca_2.90_Mg_0.10_)_Σ=3_(Al_1.78_Fe^3+^_0.19_Ti_0.03_)_Σ=2_(Si_1.00_O_4_)_3_
92.37695, 71.66735
92.85907, 71.08242
93.34119, 71.31837
93.82330, 71.86473
94.30542, 71.87944
94.78754, 71.02496
95.26965, 69.54534
95.75177, 68.10741
96.23389, 67.02487
96.71600, 66.06440
97.19812, 65.02534
97.68024, 63.85874
98.16235, 62.74904
98.64447, 62.03175
99.12659, 61.97567
99.60870, 61.41459
100.0908, 59.97797
100.5729, 58.26439
101.0551, 56.79185
101.5372, 55.79976
102.0193, 55.21048
102.5014, 54.70632
102.9835, 54.33017
103.4656, 53.98433
103.9478, 53.64050
104.4299, 53.30762
104.9120, 53.02718
105.3941, 52.84932
105.8762, 52.79520
106.3583, 52.51619
106.8405, 51.85503
107.3226, 51.13071
107.8047, 50.44651
108.2868, 49.83513
108.7689, 49.40168
109.2510, 49.39815
109.7332, 49.87531
110.2153, 49.93818
110.6974, 49.17157
111.1795, 47.99785
111.6616, 47.00554
112.1437, 46.29277
112.6259, 45.86677
113.1080, 45.78392
113.5901, 46.01525
114.0722, 46.27777
114.5543, 46.44962
115.0364, 46.52853
115.5185, 46.44345
116.0007, 46.00408
116.4828, 45.51583
116.9649, 45.13406
117.4470, 44.88728
117.9291, 44.75856
118.4112, 44.72591
118.8934, 44.78709
119.3755, 44.96673
119.8576, 45.46561
120.3397, 45.95866
120.8218, 46.14870
121.3039, 45.91945
121.7861, 45.42780
122.2682, 45.12590
122.7503, 45.23457
123.2324, 45.31712
123.7145, 45.31355
124.1966, 45.27004
124.6788, 45.26331
125.1609, 45.34331
125.6430, 45.49412
126.1251, 45.57615
126.6072, 45.56586
127.0893, 45.53008
127.5715, 45.47724
128.0536, 45.41479
128.5357, 45.36547
129.0178, 45.31970
129.4999, 45.30717
129.9821, 45.42852
130.4642, 45.92228
130.9463, 46.42937
131.4284, 46.46083
131.9105, 45.87920
132.3926, 45.39067
132.8748, 45.81227
133.3569, 46.71971
133.8390, 47.33634
134.3211, 47.01953
134.8032, 46.10801
135.2853, 45.82414
135.7674, 46.62156
136.2496, 47.47449
136.7317, 47.85009
137.2138, 47.85793
137.6959, 47.79441
138.1780, 47.88211
138.6601, 48.13377
139.1423, 48.40478
139.6244, 48.71846
140.1065, 49.03350
140.5886, 49.36799
141.0707, 49.70197
141.5528, 49.97797
142.0350, 50.10271
142.5171, 49.93954
142.9992, 49.99424
143.4813, 50.42299
143.9634, 50.91789
144.4455, 51.31594
144.9277, 51.56303
145.4098, 51.66252
145.8919, 51.59951
146.3740, 51.18056
146.8561, 50.96284
147.3382, 51.10646
147.8204, 51.41815
148.3025, 51.61544
148.7846, 51.56809
149.2667, 51.48630
149.7488, 51.89189
150.2309, 52.92202
150.7131, 53.84293
151.1952, 54.37488
151.6773, 54.58171
152.1594, 54.62850
152.6415, 54.48336
153.1236, 54.29598
153.6058, 54.31682
154.0879, 54.61686
154.5700, 54.90716
155.0521, 54.81763
155.5342, 54.31627
156.0163, 54.14446
156.4985, 55.07271
156.9806, 56.21226
157.4627, 56.78136
157.9448, 56.52610
158.4269, 55.96940
158.9090, 55.88671
159.3912, 56.42086
159.8733, 57.10146
160.3554, 58.20011
160.8375, 59.19888
161.3196, 59.53902
161.8017, 58.93919
162.2839, 57.75095
162.7660, 57.03876
163.2481, 57.26270
163.7302, 57.37769
164.2123, 57.01548
164.6944, 56.51868
165.1766, 56.35714
165.6587, 56.81756
166.1408, 57.77445
166.6229, 58.40685
167.1050, 58.28857
167.5871, 58.31121
168.0693, 58.70822
168.5514, 59.38189
169.0335, 60.11013
169.5156, 60.73399
169.9977, 61.28066
170.4798, 62.07008
170.9620, 63.05894
171.4441, 64.26613
171.9262, 65.71923
172.4083, 67.40276
172.8904, 69.23156
173.3725, 71.01146
173.8547, 72.90123
174.3368, 75.66863
174.8189, 79.01807
175.3010, 83.44423
175.7831, 89.05708
176.2652, 95.84701
176.7474, 104.6185
177.2295, 117.2203
177.7116, 132.3600
178.1937, 146.5563
178.6758, 163.2747
179.1579, 177.1973
179.6401, 179.7139
180.1222, 168.7090
180.6043, 152.0581
181.0864, 130.9624
181.5685, 108.2080
182.0506, 88.72099
182.5328, 75.03751
183.0149, 66.21568
183.4970, 59.45500
183.9791, 55.51789
184.4612, 52.74993
184.9433, 50.49060
185.4255, 48.67512
185.9076, 47.19112
186.3897, 45.96697
186.8718, 45.01231
187.3539, 44.46283
187.8360, 44.69054
188.3182, 44.96904
188.8003, 45.16305
189.2824, 45.24527
189.7645, 45.19151
190.2466, 44.95617
190.7287, 44.52545
191.2109, 44.22996
191.6930, 44.17270
192.1751, 44.14776
192.6572, 44.06375
193.1393, 43.95115
193.6214, 43.88524
194.1036, 43.91042
194.5857, 43.99585
195.0678, 44.47464
195.5499, 46.11146
196.0320, 47.37626
196.5141, 47.30889
196.9963, 46.07436
197.4784, 44.59526
197.9605, 43.69221
198.4426, 43.44846
198.9247, 43.42561
199.4068, 43.83273
199.8890, 44.27945
200.3711, 44.49174
200.8532, 44.45594
201.3353, 44.36320
201.8174, 44.40704
202.2995, 44.59415
202.7817, 44.63571
203.2638, 44.31620
203.7459, 43.96464
204.2280, 43.95644
204.7101, 44.34710
205.1922, 44.75042
205.6744, 44.78263
206.1565, 44.51271
206.6386, 44.25353
207.1207, 43.98510
207.6028, 43.79116
208.0849, 43.80574
208.5671, 44.06643
209.0492, 44.43255
209.5313, 44.89845
210.0134, 45.39503
210.4955, 45.74726
210.9776, 45.84754
211.4598, 45.76604
211.9419, 45.60560
212.4240, 45.25019
212.9061, 45.07970
213.3882, 45.50423
213.8703, 46.24628
214.3525, 46.79039
214.8346, 46.78394
215.3167, 46.37651
215.7988, 46.10751
216.2809, 46.01131
216.7630, 46.01653
217.2451, 46.06816
217.7273, 46.18219
218.2094, 46.39627
218.6915, 46.76509
219.1736, 47.25323
219.6557, 47.64574
220.1378, 47.92262
220.6200, 48.10876
221.1021, 48.12222
221.5842, 48.06695
222.0663, 48.11621
222.5484, 48.40517
223.0305, 48.90008
223.5127, 49.27369
223.9948, 49.36672
224.4769, 49.49569
224.9590, 49.68136
225.4411, 49.95404
225.9232, 50.37240
226.4054, 50.99883
226.8875, 51.80040
227.3696, 52.42800
227.8517, 52.59359
228.3338, 52.87883
228.8159, 53.40624
229.2981, 54.14253
229.7802, 55.01763
230.2623, 55.99780
230.7444, 57.07609
231.2265, 58.14938
231.7086, 59.05164
232.1908, 60.12534
232.6729, 61.63937
233.1550, 63.38754
233.6371, 64.91658
234.1192, 65.89750
234.6013, 66.47017
235.0835, 67.71934
235.5656, 70.49969
236.0477, 72.90000
236.5298, 74.28909
237.0119, 74.86691
237.4940, 75.11227
237.9762, 75.27829
238.4583, 75.31982
238.9404, 75.01640
239.4225, 73.86878
239.9046, 72.99133
240.3867, 72.81767
240.8689, 73.20660
241.3510, 73.82101
241.8331, 74.50320
242.3152, 75.30744
242.7973, 76.40617
243.2794, 78.00607
243.7616, 79.51934
244.2437, 81.01514
244.7258, 82.27685
245.2079, 82.61165
245.6900, 81.63235
246.1721, 79.62637
246.6543, 77.21023
247.1364, 74.27278
247.6185, 71.30499
248.1006, 68.33637
248.5827, 65.49236
249.0648, 63.22743
249.5470, 61.83885
250.0291, 60.94850
250.5112, 59.92108
250.9933, 58.70331
251.4754, 57.64045
251.9576, 56.85218
252.4397, 56.35578
252.9218, 56.27075
253.4039, 56.88707
253.8860, 57.60793
254.3681, 57.71515
254.8503, 57.21257
255.3324, 56.74716
255.8145, 56.78391
256.2966, 57.22396
256.7787, 57.57017
257.2608, 57.73960
257.7430, 57.78092
258.2251, 57.64505
258.7072, 57.37941
259.1893, 57.29968
259.6714, 57.71959
260.1535, 58.54135
260.6357, 59.22868
261.1178, 59.71796
261.5999, 60.06851
262.0820, 60.31202
262.5641, 60.46784
263.0462, 60.59370
263.5284, 60.73385
264.0105, 60.87840
264.4926, 60.94756
264.9747, 60.79946
265.4568, 60.79125
265.9389, 61.14131
266.4211, 61.73555
266.9032, 62.33493
267.3853, 62.76343
267.8674, 63.08528
268.3495, 63.59633
268.8316, 64.38966
269.3138, 65.24905
269.7959, 66.23415
270.2780, 67.19664
270.7601, 67.83294
271.2422, 67.82584
271.7243, 67.54299
272.2065, 68.26199
272.6886, 70.48868
273.1707, 72.92654
273.6528, 75.47267
274.1349, 77.91006
274.6170, 80.04796
275.0992, 81.85281
275.5813, 83.14795
276.0634, 83.45345
276.5455, 82.50223
277.0276, 80.96146
277.5097, 78.67861
277.9919, 76.12961
278.4740, 73.72807
278.9561, 71.61264
279.4382, 69.70604
279.9203, 67.75778
280.4024, 65.37972
280.8846, 63.87495
281.3667, 63.69104
281.8488, 64.05891
282.3309, 64.59091
282.8130, 65.12830
283.2951, 65.49952
283.7773, 65.38436
284.2594, 64.48589
284.7415, 63.83798
285.2236, 63.47052
285.7057, 63.31447
286.1878, 63.48759
286.6700, 63.91384
287.1521, 64.25974
287.6342, 64.09085
288.1163, 63.22099
288.5984, 62.56794
289.0805, 62.48285
289.5627, 62.28854
290.0448, 61.45665
290.5269, 60.15943
291.0090, 59.07439
291.4911, 58.89598
291.9732, 59.73386
292.4554, 60.07485
292.9375, 59.47164
293.4196, 58.82673
293.9017, 58.36878
294.3838, 58.09943
294.8659, 57.96272
295.3481, 57.93300
295.8302, 57.99846
296.3123, 57.99983
296.7944, 57.57248
297.2765, 57.48055
297.7586, 58.09472
298.2408, 59.09851
298.7229, 60.02062
299.2050, 60.59562
299.6871, 60.91217
300.1692, 61.30523
300.6513, 61.81004
301.1335, 62.35791
301.6156, 62.93106
302.0977, 63.54427
302.5798, 64.26844
303.0619, 65.12282
303.5440, 65.97708
304.0262, 66.55152
304.5083, 66.53608
304.9904, 66.69169
305.4725, 67.09306
305.9546, 67.61291
306.4367, 68.21346
306.9189, 68.85781
307.4010, 69.43654
307.8831, 69.77425
308.3652, 69.71407
308.8473, 69.82059
309.3294, 70.15929
309.8116, 70.58068
310.2937, 71.03944
310.7758, 71.50493
311.2579, 71.92722
311.7400, 72.26069
312.2221, 72.51369
312.7043, 72.61994
313.1864, 72.35588
313.6685, 72.18467
314.1506, 72.40178
314.6327, 72.87527
315.1148, 73.24389
315.5970, 73.22038
316.0791, 72.84855
316.5612, 72.73295
317.0433, 73.07996
317.5254, 73.45443
318.0075, 73.84628
318.4897, 74.19279
318.9718, 74.37910
319.4539, 74.33826
319.9360, 74.17154
320.4181, 74.19938
320.9002, 74.30586
321.3824, 74.80455
321.8645, 76.02419
322.3466, 77.48080
322.8287, 78.72820
323.3108, 79.60569
323.7929, 80.24376
324.2751, 80.84483
324.7572, 81.36413
325.2393, 81.93803
325.7214, 82.64090
326.2035, 83.33979
326.6856, 84.03854
327.1678, 84.68423
327.6499, 85.10594
328.1320, 85.08882
328.6141, 84.53064
329.0962, 84.02431
329.5783, 83.50312
330.0605, 83.08652
330.5426, 82.82316
331.0247, 82.70812
331.5068, 82.72373
331.9889, 82.86338
332.4710, 83.12182
332.9532, 83.41565
333.4353, 83.74454
333.9174, 84.11562
334.3995, 84.59725
334.8816, 85.10539
335.3637, 85.52401
335.8459, 85.79166
336.3280, 85.94214
336.8101, 86.05165
337.2922, 85.93069
337.7743, 86.07377
338.2564, 86.58704
338.7386, 87.31609
339.2206, 88.23235
339.7028, 89.29121
340.1849, 90.26911
340.6670, 90.77339
341.1491, 90.49746
341.6312, 90.51192
342.1133, 90.78307
342.5955, 91.32470
343.0776, 92.26125
343.5597, 93.51826
344.0418, 94.83484
344.5239, 95.95186
345.0060, 96.85032
345.4882, 97.88480
345.9703, 98.93173
346.4524, 100.2635
346.9345, 102.1447
347.4166, 104.3522
347.8987, 106.4667
348.3809, 108.1857
348.8630, 109.6814
349.3451, 111.6206
349.8272, 114.1736
350.3093, 116.9901
350.7914, 120.0198
351.2736, 123.2321
351.7557, 126.5480
352.2378, 129.9516
352.7199, 133.5422
353.2020, 137.4549
353.6841, 141.6862
354.1663, 146.2635
354.6484, 151.0817
355.1305, 156.3196
355.6126, 162.1133
356.0947, 168.4560
356.5768, 175.2076
357.0590, 182.1414
357.5411, 189.1888
358.0232, 197.1003
358.5053, 206.1406
358.9874, 215.8444
359.4695, 225.4868
359.9517, 235.5858
360.4338, 247.1740
360.9159, 260.9882
361.3980, 276.6175
361.8801, 293.0509
362.3622, 310.2002
362.8444, 328.2349
363.3265, 348.0010
363.8086, 368.2740
364.2907, 388.1352
364.7728, 407.5714
365.2549, 425.5836
365.7371, 441.5057
366.2192, 455.6382
366.7013, 465.3782
367.1834, 468.0470
367.6655, 467.4365
368.1476, 465.1298
368.6298, 461.5334
369.1119, 459.3360
369.5940, 460.3920
370.0761, 464.4708
370.5582, 470.7133
371.0403, 479.6880
371.5225, 489.7544
372.0046, 501.6459
372.4867, 513.7945
372.9688, 522.5020
373.4509, 527.4338
373.9330, 527.4646
374.4152, 520.3845
374.8973, 505.9009
375.3794, 486.8670
375.8615, 462.8624
376.3436, 435.7998
376.8257, 408.2840
377.3079, 379.9315
377.7900, 352.5451
378.2721, 327.2431
378.7542, 303.9398
379.2363, 282.2582
379.7184, 261.8940
380.2006, 243.3433
380.6827, 227.2900
381.1648, 213.6401
381.6469, 201.3474
382.1290, 190.1330
382.6111, 180.0038
383.0933, 171.0710
383.5754, 163.3226
384.0575, 156.5339
384.5396, 150.5856
385.0217, 145.5147
385.5038, 140.8018
385.9860, 136.4436
386.4681, 132.4586
386.9502, 128.8345
387.4323, 125.6004
387.9144, 122.8669
388.3965, 120.7960
388.8787, 119.1106
389.3608, 117.0193
389.8429, 114.0217
390.3250, 111.6840
390.8071, 110.7229
391.2892, 110.4186
391.7714, 109.9166
392.2535, 109.0249
392.7356, 108.0542
393.2177, 107.3657
393.6998, 107.0129
394.1819, 106.7437
394.6641, 106.6038
395.1462, 106.4964
395.6283, 106.2337
396.1104, 105.9377
396.5925, 106.0053
397.0746, 106.7438
397.5568, 107.9884
398.0389, 108.8394
398.5210, 108.5932
399.0031, 108.7935
399.4852, 110.0253
399.9673, 111.6001
400.4495, 112.6900
400.9316, 113.0588
401.4137, 113.2159
401.8958, 113.9472
402.3779, 115.4488
402.8600, 117.0134
403.3422, 118.4705
403.8243, 120.1386
404.3064, 122.2002
404.7885, 124.6254
405.2706, 127.2781
405.7527, 130.0323
406.2349, 132.9186
406.7170, 136.0596
407.1991, 139.4395
407.6812, 143.1101
408.1633, 147.0100
408.6454, 151.1965
409.1276, 155.8304
409.6097, 160.9682
410.0918, 166.2701
410.5739, 171.6301
411.0560, 177.3779
411.5381, 181.3178
412.0203, 182.6581
412.5024, 182.2986
412.9845, 180.2451
413.4666, 176.7732
413.9487, 172.8519
414.4308, 168.9477
414.9130, 165.1175
415.3951, 161.4755
415.8772, 157.8042
416.3593, 154.8704
416.8414, 153.4929
417.3235, 152.9874
417.8057, 152.4843
418.2878, 151.6808
418.7699, 151.0134
419.2520, 150.9693
419.7341, 151.4963
420.2162, 152.0925
420.6984, 152.5902
421.1805, 153.1226
421.6626, 153.9690
422.1447, 155.1488
422.6268, 156.0002
423.1089, 156.2988
423.5911, 156.1281
424.0732, 155.6030
424.5553, 154.7382
425.0374, 153.4664
425.5195, 151.6827
426.0016, 149.4089
426.4838, 147.0238
426.9659, 144.5939
427.4480, 141.9924
427.9301, 139.2023
428.4122, 136.1992
428.8943, 132.9342
429.3765, 129.3704
429.8586, 125.5923
430.3407, 121.7312
430.8228, 117.7049
431.3049, 113.7674
431.7870, 109.8343
432.2692, 106.0741
432.7513, 102.5602
433.2334, 99.33889
433.7155, 96.46537
434.1976, 94.02596
434.6797, 91.99850
435.1619, 90.00491
435.6440, 87.94727
436.1261, 86.03442
436.6082, 84.35800
437.0903, 82.82285
437.5724, 81.31054
438.0546, 79.78437
438.5367, 78.28085
439.0188, 76.83649
439.5009, 75.40834
439.9830, 74.18417
440.4651, 73.24734
440.9473, 72.43831
441.4294, 71.75523
441.9115, 71.14967
442.3936, 70.52148
442.8757, 69.79850
443.3578, 69.01008
443.8400, 68.24944
444.3221, 67.44998
444.8042, 66.84239
445.2863, 66.65088
445.7684, 66.61091
446.2505, 66.52848
446.7327, 66.37217
447.2148, 66.08951
447.6969, 65.51731
448.1790, 64.73605
448.6611, 64.21268
449.1432, 64.09383
449.6254, 64.09923
450.1075, 64.04066
450.5896, 63.91888
451.0717, 63.71168
451.5538, 63.39154
452.0359, 62.99841
452.5181, 62.52635
453.0002, 61.99387
453.4823, 61.54456
453.9644, 61.27188
454.4465, 61.08717
454.9286, 60.76104
455.4108, 60.20313
455.8929, 59.79576
456.3750, 59.67590
456.8571, 59.72285
457.3392, 59.94808
457.8214, 60.29597
458.3035, 60.36206
458.7856, 59.71353
459.2677, 58.33641
459.7498, 57.40608
460.2319, 57.18746
460.7141, 57.03119
461.1962, 56.67860
461.6783, 56.30110
462.1604, 56.21361
462.6425, 56.52510
463.1246, 56.97261
463.6068, 57.09015
464.0889, 56.71740
464.5710, 56.43536
465.0531, 56.27370
465.5352, 56.16917
466.0173, 56.12160
466.4995, 56.10750
466.9816, 56.06222
467.4637, 55.90618
467.9458, 55.73349
468.4279, 55.86171
468.9100, 56.37822
469.3922, 56.97368
469.8743, 57.72930
470.3564, 58.42508
470.8385, 58.80064
471.3206, 58.82558
471.8027, 58.87653
472.2849, 59.32658
472.7670, 60.05544
473.2491, 60.60965
473.7312, 60.94798
474.2133, 61.10902
474.6954, 60.92517
475.1776, 60.59120
475.6597, 60.59616
476.1418, 61.31504
476.6239, 62.02454
477.1060, 62.14648
477.5881, 61.84488
478.0703, 61.59610
478.5524, 61.55280
479.0345, 61.64454
479.5166, 61.80421
479.9987, 62.07417
480.4808, 62.20228
480.9630, 61.94341
481.4451, 61.73195
481.9272, 61.93385
482.4093, 62.46076
482.8914, 62.95643
483.3735, 63.19788
483.8557, 63.28518
484.3378, 63.58016
484.8199, 64.24546
485.3020, 64.89854
485.7841, 65.63869
486.2662, 66.28384
486.7484, 66.57749
487.2305, 66.57360
487.7126, 66.64754
488.1947, 67.15961
488.6768, 68.08485
489.1589, 69.03890
489.6411, 70.22201
490.1232, 71.10069
490.6053, 71.37322
491.0874, 71.36404
491.5695, 71.44716
492.0516, 71.73327
492.5338, 72.02961
493.0159, 72.08016
493.4980, 71.92473
493.9801, 71.94697
494.4622, 72.29971
494.9443, 72.65259
495.4265, 72.71854
495.9086, 72.56921
496.3907, 72.37417
496.8728, 72.08862
497.3549, 71.84775
497.8370, 71.78720
498.3192, 71.87261
498.8013, 71.99508
499.2834, 72.13160
499.7655, 72.23276
500.2476, 72.19985
500.7297, 71.97499
501.2119, 71.82373
501.6940, 71.89451
502.1761, 71.93471
502.6582, 71.62869
503.1403, 71.10979
503.6224, 70.88328
504.1045, 71.31091
504.5866, 72.11758
505.0688, 72.28902
505.5509, 71.22031
506.0330, 70.45486
506.5151, 70.25066
506.9972, 70.22567
507.4793, 70.16573
507.9615, 70.01391
508.4436, 69.75568
508.9257, 69.38605
509.4078, 68.89816
509.8899, 68.24196
510.3720, 67.32326
510.8542, 66.43782
511.3363, 65.66560
511.8184, 64.99497
512.3005, 64.44453
512.7827, 64.02501
513.2648, 63.62957
513.7469, 63.12780
514.2290, 62.58590
514.7111, 62.24885
515.1932, 62.20367
515.6754, 62.07840
516.1575, 61.46867
516.6396, 60.52636
517.1217, 59.96740
517.6038, 60.03898
518.0859, 60.24029
518.5681, 60.46735
519.0502, 60.64387
519.5323, 60.59914
520.0144, 60.28872
520.4965, 59.89269
520.9786, 59.61703
521.4608, 59.46276
521.9429, 59.43400
522.4250, 59.54175
522.9071, 59.74062
523.3892, 60.18100
523.8713, 60.65369
524.3535, 60.79566
524.8356, 60.46256
525.3177, 59.95623
525.7998, 59.76636
526.2819, 59.93155
526.7640, 60.22264
527.2462, 60.72449
527.7283, 61.25099
528.2104, 61.71698
528.6925, 62.13719
529.1746, 62.52914
529.6567, 62.81268
530.1389, 63.21107
530.6210, 64.14288
531.1031, 65.56996
531.5852, 66.78069
532.0673, 67.44471
532.5494, 68.01153
533.0316, 68.95850
533.5137, 70.24882
533.9958, 72.01213
534.4779, 74.62685
534.9600, 77.42807
535.4421, 79.78502
535.9243, 81.86301
536.4064, 84.26899
536.8885, 87.25003
537.3706, 90.85820
537.8527, 95.18890
538.3348, 100.6929
538.8170, 106.1457
539.2991, 110.8920
539.7812, 116.1479
540.2633, 122.9569
540.7454, 130.9241
541.2275, 139.1019
541.7097, 147.0264
542.1918, 154.4295
542.6739, 160.7737
543.1560, 166.3994
543.6381, 169.9717
544.1202, 171.5500
544.6024, 170.5401
545.0845, 165.9740
545.5666, 158.1826
546.0487, 149.0494
546.5308, 138.8209
547.0129, 128.1777
547.4951, 118.0288
547.9772, 108.3649
548.4593, 99.66732
548.9414, 92.20081
549.4235, 85.78449
549.9056, 80.21553
550.3878, 75.40157
550.8699, 71.51282
551.3520, 68.98329
551.8341, 67.12672
552.3162, 65.46049
552.7983, 63.95358
553.2805, 62.73409
553.7626, 61.88536
554.2447, 61.31253
554.7268, 60.73907
555.2089, 60.15540
555.6910, 59.58989
556.1732, 58.81834
556.6553, 58.25116
557.1374, 58.28951
557.6195, 58.77451
558.1016, 59.16515
558.5837, 59.07737
559.0659, 58.74377
559.5480, 58.74353
560.0301, 59.13945
560.5122, 59.48327
560.9943, 59.52821
561.4764, 59.59426
561.9586, 60.06706
562.4407, 60.91245
562.9228, 61.61116
563.4049, 61.90490
563.8870, 62.00597
564.3691, 62.09227
564.8513, 62.17799
565.3334, 62.27930
565.8155, 62.39233
566.2976, 62.55832
566.7797, 62.86342
567.2618, 63.37545
567.7440, 63.88084
568.2261, 64.47383
568.7082, 64.97063
569.1903, 65.12247
569.6724, 65.09907
570.1545, 65.34158
570.6367, 66.10303
571.1188, 67.07898
571.6009, 67.56445
572.0830, 67.38706
572.5651, 67.39359
573.0472, 67.78854
573.5294, 68.28014
574.0115, 68.74796
574.4936, 69.18550
574.9757, 69.59401
575.4578, 69.98776
575.9399, 70.33447
576.4221, 70.55360
576.9042, 70.67464
577.3863, 70.86522
577.8684, 71.16884
578.3505, 71.56988
578.8326, 72.08435
579.3148, 72.72551
579.7969, 73.25558
580.2790, 73.58492
580.7611, 73.88778
581.2432, 74.21719
581.7253, 74.58650
582.2075, 74.97184
582.6896, 75.37281
583.1717, 75.93117
583.6538, 76.90894
584.1359, 78.41448
584.6180, 79.54638
585.1002, 79.79243
585.5823, 80.28936
586.0643, 81.70454
586.5464, 83.44479
587.0286, 84.73576
587.5107, 85.35514
587.9928, 85.59782
588.4749, 85.52185
588.9570, 85.27389
589.4391, 85.49998
589.9213, 86.35766
590.4034, 87.29806
590.8855, 88.09272
591.3676, 88.64613
591.8497, 88.69373
592.3318, 87.95562
592.8140, 87.20103
593.2961, 86.47596
593.7782, 85.96903
594.2603, 86.05310
594.7424, 86.66463
595.2245, 87.26038
595.7067, 87.39979
596.1888, 87.15257
596.6709, 86.93300
597.1530, 86.95944
597.6351, 86.61771
598.1172, 85.31921
598.5994, 84.06867
599.0815, 83.75579
599.5636, 84.27149
600.0457, 84.72995
600.5278, 84.59518
601.0099, 84.02003
601.4921, 83.26353
601.9742, 82.32474
602.4563, 81.20836
602.9384, 79.79912
603.4205, 78.37055
603.9026, 77.37355
604.3848, 76.80864
604.8669, 76.18952
605.3490, 75.49080
605.8311, 74.67205
606.3132, 73.55372
606.7953, 72.31099
607.2775, 71.32742
607.7596, 70.75327
608.2417, 70.38242
608.7238, 69.93006
609.2059, 69.40787
609.6880, 68.74195
610.1702, 67.71766
610.6523, 66.79613
611.1344, 66.16592
611.6165, 65.71262
612.0986, 65.31874
612.5807, 64.96255
613.0629, 64.50822
613.5450, 63.66991
614.0271, 62.63125
614.5092, 62.06263
614.9913, 62.09361
615.4734, 62.12397
615.9556, 61.77632
616.4377, 61.12942
616.9198, 60.43449
617.4019, 59.44677
617.8840, 58.86261
618.3661, 59.12385
618.8483, 59.62758
619.3304, 59.88140
619.8125, 59.84992
620.2946, 59.67777
620.7767, 59.44489
621.2589, 59.19215
621.7410, 59.04187
622.2231, 59.00742
622.7052, 59.03603
623.1873, 59.12291
623.6694, 59.27464
624.1516, 59.58301
624.6337, 59.96486
625.1158, 60.18348
625.5979, 60.11825
626.0800, 59.89431
626.5621, 59.60297
627.0443, 59.25397
627.5264, 58.91047
628.0085, 58.59794
628.4906, 58.18988
628.9727, 57.52882
629.4548, 56.61607
629.9370, 55.78666
630.4191, 55.21468
630.9012, 54.49845
631.3833, 53.40677
631.8654, 52.20490
632.3475, 51.14118
632.8297, 50.26447
633.3118, 49.51264
633.7939, 48.87239
634.2760, 48.29975
634.7581, 47.64879
635.2402, 46.94204
635.7224, 46.04830
636.2045, 44.70253
636.6866, 43.35837
637.1687, 42.53469
637.6508, 42.21132
638.1329, 41.88419
638.6151, 41.40717
639.0972, 40.85718
639.5793, 40.18239
640.0614, 39.49245
640.5435, 39.11678
641.0256, 39.17536
641.5078, 39.34645
641.9899, 39.18970
642.4720, 38.65595
642.9541, 38.19764
643.4362, 37.79079
643.9183, 37.49587
644.4005, 37.38099
644.8826, 37.35814
645.3647, 37.38462
645.8468, 37.43457
646.3289, 37.36189
646.8110, 36.89687
647.2932, 36.25008
647.7753, 36.03709
648.2574, 36.29354
648.7395, 36.39217
649.2216, 35.95187
649.7037, 35.33426
650.1859, 35.21229
650.6680, 35.69105
651.1501, 36.14875
651.6322, 36.77175
652.1143, 37.13500
652.5964, 36.71075
653.0786, 35.91109
653.5607, 35.54052
654.0428, 35.88864
654.5249, 36.48946
655.0070, 36.70808
655.4891, 36.52976
655.9713, 36.36046
656.4534, 36.16738
656.9355, 36.04710
657.4176, 36.08316
657.8997, 36.20255
658.3818, 36.33805
658.8640, 36.48907
659.3461, 36.61168
659.8282, 36.63369
660.3103, 36.65161
660.7924, 36.85405
661.2745, 37.17641
661.7567, 37.26366
662.2388, 36.91160
662.7209, 36.45663
663.2030, 36.58693
663.6851, 37.60687
664.1672, 38.21551
664.6494, 38.08311
665.1315, 37.89204
665.6136, 37.79042
666.0957, 37.79724
666.5778, 37.99313
667.0599, 38.41381
667.5421, 38.70568
668.0242, 38.39431
668.5063, 37.75819
668.9884, 37.48833
669.4705, 37.63324
669.9526, 37.94237
670.4348, 38.33354
670.9169, 38.73624
671.3990, 38.98616
671.8811, 39.00930
672.3632, 39.05839
672.8453, 39.08970
673.3275, 39.19494
673.8096, 39.57845
674.2917, 40.02922
674.7738, 40.11309
675.2559, 39.66806
675.7380, 39.15861
676.2202, 39.23471
676.7023, 39.82788
677.1844, 40.24707
677.6665, 40.45492
678.1486, 40.53373
678.6307, 40.50458
679.1129, 40.37805
679.5950, 40.17659
680.0771, 39.88534
680.5592, 39.58381
681.0413, 39.30874
681.5234, 39.01657
682.0056, 38.64146
682.4877, 38.22477
682.9698, 37.88990
683.4519, 37.68804
683.9340, 37.49116
684.4161, 37.05307
684.8983, 36.33287
685.3804, 35.89518
685.8625, 35.90132
686.3446, 35.91059
686.8267, 35.79097
687.3088, 35.54445
687.7910, 35.11517
688.2731, 34.47817
688.7552, 33.90934
689.2373, 33.52526
689.7194, 33.27114
690.2015, 33.20582
690.6837, 33.23384
691.1658, 33.00959
691.6479, 32.38021
692.1300, 31.65895
692.6121, 31.32137
693.0942, 31.43364
693.5764, 31.47085
694.0585, 31.34542
694.5406, 31.26249
695.0227, 31.38647
695.5048, 31.51685
695.9869, 31.40756
696.4691, 31.03170
696.9512, 30.64584
697.4333, 30.38270
697.9154, 30.20527
698.3975, 30.01398
698.8796, 29.84574
699.3618, 29.97707
699.8439, 30.55120
700.3260, 31.09432
700.8081, 30.92635
701.2902, 29.94284
701.7723, 29.24003
702.2545, 28.86655
702.7366, 28.73169
703.2187, 28.99479
703.7008, 29.38132
704.1829, 29.64554
704.6650, 29.75466
705.1472, 29.80767
705.6293, 29.90313
706.1114, 29.95462
706.5935, 29.74600
707.0756, 29.33121
707.5577, 29.09594
708.0399, 29.18342
708.5220, 29.32212
709.0041, 29.20860
709.4862, 28.84187
709.9683, 28.56775
710.4504, 28.41838
710.9326, 28.31192
711.4147, 28.22281
711.8968, 28.18034
712.3789, 28.29797
712.8610, 28.50718
713.3431, 28.51263
713.8253, 28.01165
714.3074, 27.42081
714.7895, 27.52905
715.2716, 28.21441
715.7537, 28.54548
716.2358, 28.27121
716.7180, 27.92371
717.2001, 27.99627
717.6822, 28.38877
718.1643, 28.42195
718.6464, 27.61098
719.1285, 27.15099
719.6107, 27.37792
720.0928, 27.80449
720.5749, 28.23050
721.0570, 28.54239
721.5391, 28.52860
722.0212, 28.03344
722.5034, 27.45035
722.9855, 27.33551
723.4676, 27.61933
723.9497, 27.91511
724.4318, 28.19620
724.9139, 28.38183
725.3961, 28.38121
725.8782, 28.27794
726.3603, 28.32123
726.8424, 28.66314
727.3245, 28.79755
727.8066, 28.40962
728.2888, 28.09420
728.7709, 28.29048
729.2530, 28.76946
729.7351, 29.10135
730.2172, 29.13856
730.6993, 29.06903
731.1815, 28.99887
731.6636, 28.98442
732.1457, 29.28293
732.6278, 29.92042
733.1099, 30.62464
733.5920, 31.35899
734.0742, 31.97628
734.5563, 32.18182
735.0384, 31.82833
735.5205, 31.82970
736.0026, 32.58117
736.4847, 33.21896
736.9669, 33.33760
737.4490, 33.23097
737.9311, 33.18317
738.4132, 33.28199
738.8953, 33.58102
739.3774, 34.20844
739.8596, 34.99103
740.3417, 35.57751
740.8238, 35.97589
741.3059, 36.27386
741.7880, 36.46541
742.2701, 36.66843
742.7523, 37.03490
743.2344, 37.54225
743.7165, 37.82128
744.1986, 37.49324
744.6807, 37.47657
745.1628, 38.16690
745.6450, 38.97468
746.1271, 39.44081
746.6092, 39.61821
747.0913, 39.78638
747.5734, 40.05725
748.0555, 40.45461
748.5377, 41.15942
749.0198, 42.02647
749.5019, 42.41975
749.9840, 42.24601
750.4661, 42.03941
750.9482, 42.08704
751.4304, 42.36579
751.9125, 42.85234
752.3946, 43.78455
752.8767, 44.34916
753.3588, 44.19417
753.8409, 44.09248
754.3231, 44.42883
754.8052, 44.98676
755.2873, 45.43428
755.7694, 45.69510
756.2515, 45.97367
756.7336, 46.47263
757.2158, 47.06366
757.6979, 47.37577
758.1800, 47.51569
758.6621, 48.23238
759.1442, 49.83934
759.6263, 51.60353
760.1085, 52.61342
760.5906, 52.86203
761.0727, 53.61265
761.5548, 55.31385
762.0369, 56.86012
762.5190, 57.89100
763.0012, 58.87440
763.4833, 60.23690
763.9654, 61.88391
764.4475, 63.35485
764.9296, 64.32510
765.4117, 65.31569
765.8939, 66.86398
766.3760, 68.70184
766.8581, 70.38380
767.3402, 71.83732
767.8223, 73.04790
768.3044, 73.97939
768.7866, 74.79748
769.2687, 75.96667
769.7508, 77.71301
770.2329, 78.99582
770.7150, 79.74959
771.1971, 80.08519
771.6793, 79.78294
772.1614, 79.23586
772.6435, 79.06689
773.1256, 79.41517
773.6077, 79.41389
774.0898, 78.57742
774.5720, 77.39931
775.0541, 76.16016
775.5362, 74.92262
776.0183, 73.84785
776.5004, 72.94344
776.9825, 71.81325
777.4647, 69.94019
777.9468, 67.54776
778.4289, 65.87627
778.9110, 65.09679
779.3931, 64.03901
779.8752, 62.24617
780.3574, 60.37726
780.8395, 59.00262
781.3216, 58.06252
781.8037, 57.30247
782.2858, 56.89397
782.7679, 56.39368
783.2501, 55.68655
783.7322, 54.85386
784.2143, 53.80843
784.6964, 52.70885
785.1785, 51.90857
785.6606, 51.56871
786.1428, 51.50139
786.6249, 51.57499
787.1070, 51.72948
787.5891, 51.71574
788.0712, 51.51871
788.5533, 51.16005
789.0355, 50.56319
789.5176, 50.00891
789.9997, 49.98555
790.4818, 50.62547
790.9639, 50.96242
791.4460, 50.65961
791.9282, 50.49675
792.4103, 50.77134
792.8924, 51.17218
793.3745, 51.43984
793.8566, 51.54967
794.3387, 51.57649
794.8209, 51.48149
795.3030, 51.43397
795.7851, 51.59862
796.2672, 51.93565
796.7493, 52.43953
797.2314, 53.07238
797.7136, 53.52543
798.1957, 53.57108
798.6778, 53.42212
799.1599, 53.61315
799.6420, 54.23263
800.1241, 54.83842
800.6063, 55.47776
801.0884, 56.01625
801.5705, 56.13165
802.0526, 56.23928
802.5347, 56.93811
803.0168, 58.31467
803.4990, 59.57270
803.9811, 60.50522
804.4632, 61.23112
804.9453, 61.52858
805.4274, 61.79540
805.9095, 62.74080
806.3917, 64.38658
806.8738, 66.00456
807.3559, 66.96638
807.8380, 67.61849
808.3201, 68.76515
808.8022, 70.39061
809.2844, 71.98677
809.7665, 73.47803
810.2486, 74.90339
810.7307, 76.27447
811.2128, 77.60259
811.6949, 78.90062
812.1771, 80.17732
812.6592, 81.39188
813.1413, 82.30235
813.6234, 83.41260
814.1055, 85.04365
814.5876, 86.94984
815.0698, 88.80408
815.5519, 90.53552
816.0340, 92.23796
816.5161, 93.96924
816.9982, 95.69198
817.4803, 97.53435
817.9625, 99.30517
818.4446, 100.3424
818.9267, 100.5565
819.4088, 100.8045
819.8909, 101.8751
820.3730, 103.4283
820.8552, 104.2035
821.3373, 104.0307
821.8194, 103.8509
822.3015, 103.8688
822.7836, 103.7119
823.2657, 103.0385
823.7479, 102.0735
824.2300, 101.3597
824.7121, 101.1255
825.1942, 100.3070
825.6763, 98.12398
826.1584, 95.91101
826.6406, 94.42564
827.1227, 93.40609
827.6048, 92.52305
828.0869, 91.64315
828.5690, 90.54409
829.0511, 88.84319
829.5333, 87.06551
830.0154, 86.27768
830.4975, 86.27536
830.9796, 86.08691
831.4617, 85.52415
831.9438, 84.68537
832.4260, 83.57829
832.9081, 82.35155
833.3902, 81.46976
833.8723, 81.13190
834.3544, 80.60164
834.8365, 79.48655
835.3187, 78.68485
835.8008, 78.73906
836.2829, 79.17590
836.7650, 79.47340
837.2471, 79.58055
837.7292, 79.47610
838.2114, 78.86012
838.6935, 78.34441
839.1756, 78.59920
839.6577, 79.04940
840.1398, 78.68517
840.6219, 77.55863
841.1041, 76.72680
841.5862, 76.93462
842.0683, 77.67670
842.5504, 78.13631
843.0325, 78.33869
843.5146, 78.38876
843.9968, 78.27515
844.4789, 78.30427
844.9610, 78.68297
845.4431, 79.20447
845.9252, 79.48005
846.4073, 79.44236
846.8895, 79.50269
847.3716, 79.76486
847.8537, 79.98559
848.3358, 79.95883
848.8179, 79.98668
849.3000, 80.42986
849.7822, 81.20664
850.2643, 81.81533
850.7464, 81.94184
851.2285, 82.12149
851.7106, 82.67976
852.1927, 83.44440
852.6749, 84.23701
853.1570, 85.04964
853.6391, 85.91226
854.1212, 86.83591
854.6033, 87.88570
855.0854, 89.10192
855.5676, 90.50681
856.0497, 92.32409
856.5318, 94.57784
857.0139, 96.47738
857.4960, 97.65202
857.9781, 98.80647
858.4603, 100.6860
858.9424, 103.2421
859.4245, 105.9460
859.9066, 108.8911
860.3887, 111.8168
860.8708, 114.4243
861.3530, 117.3109
861.8351, 120.7599
862.3172, 124.7183
862.7993, 129.1140
863.2814, 134.0080
863.7635, 139.0258
864.2457, 143.8204
864.7278, 148.8979
865.2099, 154.7273
865.6920, 161.0933
866.1741, 167.4653
866.6563, 173.7943
867.1384, 180.4102
867.6205, 187.5598
868.1026, 195.1590
868.5847, 203.2190
869.0668, 211.6229
869.5490, 219.4055
870.0311, 226.3663
870.5132, 234.3863
870.9953, 244.8735
871.4774, 256.5955
871.9595, 267.1068
872.4417, 276.3017
872.9238, 284.9299
873.4059, 292.5615
873.8880, 300.3840
874.3701, 310.0604
874.8522, 319.0318
875.3344, 325.0859
875.8165, 328.4071
876.2986, 330.4319
876.7807, 331.3062
877.2628, 331.0897
877.7449, 330.5870
878.2271, 328.3397
878.7092, 322.6262
879.1913, 314.1981
879.6734, 304.7127
880.1555, 294.8134
880.6376, 284.5203
881.1198, 274.0188
881.6019, 263.1789
882.0840, 251.5662
882.5661, 239.3618
883.0482, 227.2758
883.5303, 215.4991
884.0125, 204.0296
884.4946, 192.8234
884.9767, 182.0101
885.4588, 172.0546
885.9409, 163.0225
886.4230, 154.3824
886.9052, 145.9319
887.3873, 138.1941
887.8694, 131.4537
888.3515, 125.4778
888.8336, 119.8550
889.3157, 114.6009
889.7979, 109.6439
890.2800, 104.8169
890.7621, 100.4701
891.2442, 96.85043
891.7263, 93.62040
892.2084, 90.55820
892.6906, 87.63282
893.1727, 84.92017
893.6548, 82.45164
894.1369, 80.13737
894.6190, 77.92196
895.1011, 75.82029
895.5833, 73.81455
896.0654, 71.96538
896.5475, 70.54732
897.0296, 69.59007
897.5117, 68.49790
897.9938, 66.54524
898.4760, 64.24213
898.9581, 63.02047
899.4402, 62.80666
899.9223, 62.79437
900.4044, 62.89624
900.8865, 62.70848
901.3687, 61.92452
901.8508, 60.79445
902.3329, 59.83868
902.8150, 59.05336
903.2971, 58.46597
903.7792, 58.28703
904.2614, 57.94165
904.7435, 57.10280
905.2256, 56.15536
905.7077, 55.41097
906.1898, 54.86345
906.6719, 54.47573
907.1541, 54.43593
907.6362, 54.25101
908.1183, 53.60025
908.6004, 52.95734
909.0825, 52.71147
909.5646, 52.69912
910.0468, 52.60598
910.5289, 52.35141
911.0110, 52.05413
911.4931, 51.75669
911.9752, 51.49021
912.4573, 51.29165
912.9395, 51.14629
913.4216, 51.01123
913.9037, 50.88896
914.3858, 50.84937
914.8679, 50.94459
915.3500, 51.05698
915.8321, 50.91529
916.3142, 50.57935
916.7963, 50.57374
917.2784, 50.93385
917.7606, 51.21249
918.2427, 51.25040
918.7248, 51.16188
919.2069, 51.04466
919.6890, 50.91395
920.1711, 50.90493
920.6533, 51.15949
921.1354, 51.19100
921.6175, 50.85106
922.0996, 50.42818
922.5817, 49.98354
923.0638, 49.58683
923.5460, 49.36140
924.0281, 49.32800
924.5102, 49.30172
924.9923, 49.17403
925.4744, 49.15415
925.9565, 49.45934
926.4387, 49.79208
926.9208, 49.90794
927.4029, 49.80197
927.8850, 49.52833
928.3671, 49.07545
928.8492, 48.61715
929.3314, 48.24788
929.8135, 47.95543
930.2956, 47.75136
930.7777, 47.60435
931.2598, 47.42223
931.7419, 47.20059
932.2241, 47.08293
932.7062, 47.20655
933.1883, 47.43740
933.6704, 47.60662
934.1525, 47.67571
934.6346, 47.34774
935.1168, 46.62041
935.5989, 46.13855
936.0810, 46.21859
936.5631, 46.57043
937.0452, 46.83211
937.5273, 46.99886
938.0095, 46.99488
938.4916, 46.80410
938.9737, 46.50438
939.4558, 46.08846
939.9379, 45.59134
940.4200, 44.93047
940.9022, 44.25908
941.3843, 43.99208
941.8664, 44.30513
942.3485, 44.48122
942.8306, 44.51519
943.3127, 44.42402
943.7949, 44.08744
944.2770, 43.72569
944.7591, 43.56958
945.2412, 43.57093
945.7233, 43.49720
946.2054, 43.31757
946.6876, 43.01328
947.1697, 42.38984
947.6518, 41.82185
948.1339, 41.70176
948.6160, 41.77942
949.0981, 41.63200
949.5803, 41.19100
950.0624, 40.71901
950.5445, 40.42101
951.0266, 40.09003
951.5087, 39.41107
951.9908, 38.60559
952.4730, 38.02872
952.9551, 37.69241
953.4372, 37.50515
953.9193, 37.42094
954.4014, 37.30907
954.8835, 37.03253
955.3657, 36.60914
955.8478, 36.01994
956.3299, 35.30452
956.8120, 34.76074
957.2941, 34.44820
957.7762, 34.19663
958.2584, 33.87989
958.7405, 33.88982
959.2226, 33.66301
959.7047, 34.05344
960.1868, 34.37542
960.6689, 34.66337
961.1511, 34.71840
961.6332, 34.37600
962.1153, 34.01592
962.5974, 34.01620
963.0795, 34.27441
963.5616, 34.33725
964.0438, 34.09385
964.5259, 33.89188
965.0080, 33.67038
965.4901, 33.57120
965.9722, 33.56194
966.4543, 33.74974
966.9365, 34.33892
967.4186, 35.28180
967.9007, 36.11163
968.3828, 36.87545
968.8649, 37.36405
969.3470, 37.18790
969.8292, 37.06488
970.3113, 37.49529
970.7934, 38.26960
971.2755, 39.10518
971.7576, 39.92245
972.2397, 40.54742
972.7219, 40.70936
973.2040, 40.86649
973.6861, 41.34691
974.1682, 41.95896
974.6503, 42.56356
975.1324, 43.08817
975.6146, 43.35661
976.0967, 43.32011
976.5788, 43.38372
977.0609, 44.01946
977.5430, 44.87022
978.0251, 45.51697
978.5073, 45.96152
978.9894, 46.20532
979.4715, 46.26252
979.9536, 46.13049
980.4357, 45.79441
980.9178, 45.53608
981.4000, 45.91685
981.8821, 46.70028
982.3642, 46.94700
982.8463, 46.69685
983.3284, 46.27806
983.8105, 45.76796
984.2927, 45.53573
984.7748, 45.90000
985.2569, 46.56853
985.7390, 46.85427
986.2211, 46.73239
986.7032, 46.78320
987.1854, 47.10012
987.6675, 47.02777
988.1496, 46.20708
988.6317, 45.39625
989.1138, 45.35744
989.5959, 45.88975
990.0781, 46.10848
990.5602, 45.83329
991.0423, 45.77763
991.5244, 46.06704
992.0065, 46.37664
992.4886, 46.74318
992.9708, 46.91205
993.4529, 46.40429
993.9350, 45.32053
994.4171, 44.86446
994.8992, 45.63830
995.3813, 46.10236
995.8635, 45.95893
996.3456, 45.78362
996.8277, 45.80225
997.3098, 45.94675
997.7919, 46.21921
998.2740, 46.58744
998.7562, 46.67035
999.2383, 45.98174
999.7204, 45.58173
1000.203, 46.00844
1000.685, 46.55248
1001.167, 46.82558
1001.649, 46.83805
1002.131, 46.58374
1002.613, 46.08916
1003.095, 45.70432
1003.577, 45.60674
1004.059, 45.62737
1004.542, 45.83627
1005.024, 45.98441
1005.506, 45.83126
1005.988, 45.40738
1006.470, 44.75451
1006.952, 43.91109
1007.434, 43.19294
1007.916, 43.00047
1008.398, 42.84406
1008.881, 42.17841
1009.363, 41.29364
1009.845, 40.69247
1010.327, 40.28473
1010.809, 39.50994
1011.291, 38.17625
1011.773, 36.93709
1012.255, 36.51283
1012.738, 36.47607
1013.220, 36.15243
1013.702, 35.67413
1014.184, 35.41311
1014.666, 35.35826
1015.148, 35.15111
1015.630, 34.61787
1016.112, 34.02436
1016.594, 33.63746
1017.077, 33.46453
1017.559, 33.64211
1018.041, 34.07376
1018.523, 34.25353
1019.005, 34.11171
1019.487, 33.92974
1019.969, 33.86149
1020.451, 33.88331
1020.934, 33.98659
1021.416, 34.14721
1021.898, 34.16809
1022.380, 34.05958
1022.862, 34.22047
1023.344, 34.74316
1023.826, 35.32313
1024.308, 35.79513
1024.791, 36.11124
1025.273, 36.10810
1025.755, 35.80573
1026.237, 35.99504
1026.719, 36.75302
1027.201, 37.43037
1027.683, 37.92967
1028.165, 38.10549
1028.647, 37.73806
1029.130, 37.23721
1029.612, 37.57106
1030.094, 38.86840
1030.576, 39.23244
1031.058, 38.34553
1031.540, 37.62685
1032.022, 37.42615
1032.504, 37.34206
1032.986, 37.04257
1033.469, 36.72636
1033.951, 36.93676
1034.433, 37.89088
1034.915, 37.99219
1035.397, 36.85534
1035.879, 35.67425
1036.361, 34.51841
1036.843, 33.63262
1037.326, 33.20098
1037.808, 33.16203
1038.290, 33.47520
1038.772, 34.38038
1039.254, 34.52721
1039.736, 32.75968
1040.218, 32.09543
1040.700, 34.51325
1041.182, 36.71981
1041.665, 35.85950
1042.147, 33.27256
1042.629, 32.16188
1043.111, 32.96438
1043.593, 33.29588
1044.075, 32.64385
1044.557, 32.15590
1045.039, 32.07209
1045.521, 32.21431
1046.004, 32.71058
1046.486, 33.27509
1046.968, 33.24838
1047.450, 32.45875
1047.932, 31.82983
1048.414, 31.42999
1048.896, 31.23837
1049.378, 31.33908
1049.861, 31.56006
1050.343, 31.96207
1050.825, 32.33611
1051.307, 32.18468
1051.789, 31.35964
1052.271, 30.86807
1052.753, 31.29824
1053.235, 31.55794
1053.718, 31.07586
1054.200, 30.51799
1054.682, 30.47500
1055.164, 30.69098
1055.646, 30.60039
1056.128, 30.10305
1056.610, 29.67744
1057.092, 29.50256
1057.574, 29.34889
1058.057, 29.01224
1058.539, 28.78337
1059.021, 29.03176
1059.503, 29.49137
1059.985, 29.65632
1060.467, 29.44689
1060.949, 29.21957
1061.431, 29.02188
1061.913, 28.91963
1062.396, 29.15091
1062.878, 29.28187
1063.360, 28.70954
1063.842, 27.91669
1064.324, 27.86918
1064.806, 28.65653
1065.288, 29.16177
1065.770, 28.64813
1066.253, 28.21458
1066.735, 28.44831
1067.217, 28.79986
1067.699, 28.87723
1068.181, 28.76857
1068.663, 28.59625
1069.145, 28.41405
1069.627, 28.42041
1070.109, 28.91996
1070.592, 29.23025
1071.074, 28.91650
1071.556, 28.42929
1072.038, 28.07550
1072.520, 27.78636
1073.002, 27.31426
1073.484, 26.71692
1073.966, 26.51529
1074.448, 27.10866
1074.931, 27.65149
1075.413, 27.67743
1075.895, 27.57584
1076.377, 27.35184
1076.859, 27.34538
1077.341, 28.44683
1077.823, 30.27366
1078.305, 30.80728
1078.788, 28.92435
1079.270, 27.11362
1079.752, 26.48998
1080.234, 26.40187
1080.716, 26.69008
1081.198, 27.06111
1081.680, 27.17549
1082.162, 27.07595
1082.644, 27.05500
1083.127, 27.22348
1083.609, 27.36462
1084.091, 27.40240
1084.573, 27.36043
1085.055, 27.19085
1085.537, 26.99809
1086.019, 26.89816
1086.501, 26.86935
1086.984, 26.80680
1087.466, 26.67129
1087.948, 26.64157
1088.430, 27.01098
1088.912, 27.23331
1089.394, 26.85433
1089.876, 26.34634
1090.358, 26.15675
1090.840, 26.18656
1091.323, 26.14019
1091.805, 25.95717
1092.287, 25.86143
1092.769, 25.89740
1093.251, 26.08894
1093.733, 26.64701
1094.215, 27.16970
1094.697, 27.43436
1095.179, 27.39958
1095.662, 26.82307
1096.144, 25.77216
1096.626, 25.30042
1097.108, 26.18684
1097.590, 26.99029
1098.072, 27.12535
1098.554, 27.15912
1099.036, 27.55441
1099.519, 27.99516
1100.001, 28.00766
1100.483, 27.61705
1100.965, 27.24048
1101.447, 26.89364
1101.929, 26.74824
1102.411, 27.14221
1102.893, 27.39529
1103.375, 26.88121
1103.858, 26.30401
1104.340, 26.53379
1104.822, 27.34537
1105.304, 27.79259
1105.786, 27.63837
1106.268, 27.49647
1106.750, 27.51276
1107.232, 27.50768
1107.714, 27.21684
1108.197, 27.07220
1108.679, 27.59727
1109.161, 28.47668
1109.643, 28.96525
1110.125, 28.95197
1110.607, 28.95927
1111.089, 29.02135
1111.571, 29.12343
1112.054, 29.44766
1112.536, 29.61119
1113.018, 29.23288
1113.500, 28.64242
1113.982, 28.29344
1114.464, 28.19144
1114.946, 28.39810
1115.428, 29.20720
1115.911, 29.83816
1116.393, 30.23720
1116.875, 30.47367
1117.357, 30.55266
1117.839, 30.49711
1118.321, 30.21255
1118.803, 29.79946
1119.285, 29.88170
1119.767, 30.81995
1120.250, 31.33670
1120.732, 31.23862
1121.214, 31.11347
1121.696, 31.13933
1122.178, 31.16951
1122.660, 31.04504
1123.142, 30.87108
1123.624, 30.93305
1124.106, 31.26200
1124.589, 31.60023
1125.071, 31.98146
1125.553, 32.23883
1126.035, 32.30474
1126.517, 32.35093
1126.999, 32.47902
1127.481, 32.64436
1127.963, 32.77381
1128.446, 32.87301
1128.928, 33.00859
1129.410, 33.18171
1129.892, 33.37960
1130.374, 33.59955
1130.856, 33.86137
1131.338, 34.18252
1131.820, 34.46708
1132.302, 34.57795
1132.785, 34.63300
1133.267, 35.09473
1133.749, 35.91668
1134.231, 36.29515
1134.713, 36.20930
1135.195, 36.14747
1135.677, 36.24689
1136.159, 36.50144
1136.641, 36.92810
1137.124, 37.38209
1137.606, 37.56419
1138.088, 37.57708
1138.570, 37.80011
1139.052, 38.21254
1139.534, 38.78054
1140.016, 39.44923
1140.498, 39.90392
1140.981, 40.00175
1141.463, 39.99102
1141.945, 40.06664
1142.427, 40.28643
1142.909, 40.90114
1143.391, 41.67390
1143.873, 41.96448
1144.355, 41.92655
1144.838, 42.26103
1145.320, 43.10858
1145.802, 43.97218
1146.284, 44.62297
1146.766, 44.83384
1147.248, 43.70021
1147.730, 42.56776
1148.212, 43.39024
1148.694, 45.26075
1149.177, 46.66236
1149.659, 47.36760
1150.141, 47.63179
1150.623, 47.50325
1151.105, 47.51159
1151.587, 47.99559
1152.069, 48.71679
1152.551, 49.86384
1153.033, 50.86557
1153.516, 50.77601
1153.998, 50.21035
1154.480, 50.59008
1154.962, 52.11115
1155.444, 53.36494
1155.926, 53.67570
1156.408, 53.95510
1156.890, 54.49797
1157.373, 55.06163
1157.855, 55.49704
1158.337, 55.88823
1158.819, 56.29081
1159.301, 56.74220
1159.783, 57.38701
1160.265, 58.34749
1160.747, 59.21667
1161.229, 59.96927
1161.712, 60.62736
1162.194, 61.00130
1162.676, 61.52296
1163.158, 62.54580
1163.640, 63.85369
1164.122, 65.07785
1164.604, 66.22704
1165.086, 67.25304
1165.568, 68.06722
1166.051, 69.00611
1166.533, 70.03011
1167.015, 71.41735
1167.497, 73.37902
1167.979, 75.46899
1168.461, 77.23055
1168.943, 78.75353
1169.425, 80.33085
1169.908, 81.95129
1170.390, 83.75523
1170.872, 85.73946
1171.354, 87.84774
1171.836, 90.06774
1172.318, 92.60654
1172.800, 95.62722
1173.282, 98.77222
1173.765, 101.4494
1174.247, 104.6424
1174.729, 107.1296
1175.211, 110.8292
1175.693, 114.2592
1176.175, 117.4940
1176.657, 121.3119
1177.139, 125.9445
1177.621, 130.9572
1178.104, 136.0411
1178.586, 141.3891
1179.068, 147.1894
1179.550, 153.3432
1180.032, 159.7920
1180.514, 166.4325
1180.996, 173.2318
1181.478, 180.1155
1181.960, 186.7051
1182.443, 192.8199
1182.925, 199.6204
1183.407, 208.0728
1183.889, 217.0730
1184.371, 226.2123
1184.853, 235.3674
1185.335, 244.4544
1185.817, 253.4898
1186.300, 262.1473
1186.782, 270.6026
1187.264, 280.2337
1187.746, 292.1288
1188.228, 303.5658
1188.710, 313.1141
1189.192, 323.2932
1189.674, 335.3016
1190.156, 347.9409
1190.639, 360.2887
1191.121, 372.5645
1191.603, 385.4583
1192.085, 399.1666
1192.567, 410.4649
1193.049, 418.4832
1193.531, 426.6508
1194.013, 435.4658
1194.495, 444.1639
1194.978, 452.6273
1195.460, 460.2099
1195.942, 466.2521
1196.424, 470.7995
1196.906, 474.1981
1197.388, 476.3838
1197.870, 475.2924
1198.352, 471.0389
1198.835, 466.1247
1199.317, 461.0566
1199.799, 455.0990
1200.281, 447.8723
1200.763, 439.2227
1201.245, 428.5852
1201.727, 417.0341
1202.209, 406.5663
1202.692, 396.4869
1203.174, 385.2225
1203.656, 372.9876
1204.138, 360.6255
1204.620, 348.3367
1205.102, 336.1070
1205.584, 323.8849
1206.066, 311.8874
1206.548, 300.3800
1207.031, 289.1285
1207.513, 277.9120
1207.995, 266.9971
1208.477, 256.6237
1208.959, 246.7004
1209.441, 237.1139
1209.923, 227.8617
1210.405, 219.0715
1210.887, 210.9023
1211.370, 203.0686
1211.852, 195.4004
1212.334, 188.2045
1212.816, 181.7780
1213.298, 175.7221
1213.780, 169.6544
1214.262, 163.7184
1214.744, 158.2836
1215.227, 153.3961
1215.709, 148.4599
1216.191, 143.3035
1216.673, 138.7598
1217.155, 135.0106
1217.637, 131.4516
1218.119, 127.8615
1218.601, 124.2299
1219.083, 120.5641
1219.566, 116.9416
1220.048, 113.5690
1220.530, 110.4487
1221.012, 107.5519
1221.494, 104.8653
1221.976, 102.2457
1222.458, 99.70837
1222.940, 97.46284
1223.422, 95.60711
1223.905, 93.98097
1224.387, 92.67178
1224.869, 91.17264
1225.351, 88.58362
1225.833, 85.77441
1226.315, 83.71036
1226.797, 82.24895
1227.279, 81.24134
1227.762, 80.47494
1228.244, 79.35446
1228.726, 77.62896
1229.208, 75.98524
1229.690, 74.61185
1230.172, 73.42519
1230.654, 72.56802
1231.136, 71.71717
1231.619, 70.66080
1232.101, 69.49106
1232.583, 68.34274
1233.065, 67.20027
1233.547, 65.94006
1234.029, 64.51262
1234.511, 63.09866
1234.993, 61.58903
1235.475, 60.53431
1235.958, 60.13471
1236.440, 59.86583
1236.922, 59.45006
1237.404, 58.84483
1237.886, 57.95493
1238.368, 56.88356
1238.850, 55.81131
1239.332, 54.84272
1239.814, 54.57521
1240.297, 54.82032
1240.779, 54.65031
1241.261, 53.89907
1241.743, 52.96615
1242.225, 52.04600
1242.707, 51.21319
1243.189, 50.53461
1243.671, 49.97042
1244.154, 49.44422
1244.636, 49.03939
1245.118, 48.97079
1245.600, 49.02199
1246.082, 48.80775
1246.564, 48.32563
1247.046, 47.89478
1247.528, 47.64733
1248.010, 47.27531
1248.493, 46.54745
1248.975, 45.94818
1249.457, 45.67602
1249.939, 45.45195
1250.421, 45.09243
1250.903, 44.74110
1251.385, 44.63615
1251.867, 44.69481
1252.349, 44.40767
1252.832, 43.73862
1253.314, 43.21455
1253.796, 42.85575
1254.278, 42.47795
1254.760, 42.04507
1255.242, 41.82398
1255.724, 41.96457
1256.206, 42.17121
1256.689, 42.12928
1257.171, 41.92168
1257.653, 41.66232
1258.135, 41.34668
1258.617, 40.89427
1259.099, 40.41301
1259.581, 40.15771
1260.063, 40.09959
1260.546, 39.95342
1261.028, 39.60851
1261.510, 39.30177
1261.992, 39.09856
1262.474, 39.01118
1262.956, 39.20600
1263.438, 39.33699
1263.920, 39.04874
1264.402, 38.68561
1264.885, 38.71718
1265.367, 39.01697
1265.849, 39.12997
1266.331, 39.03741
1266.813, 38.87330
1267.295, 38.62418
1267.777, 38.33753
1268.259, 37.99409
1268.741, 37.85215
1269.224, 38.03843
1269.706, 38.23044
1270.188, 38.10896
1270.670, 37.86827
1271.152, 37.86349
1271.634, 38.01780
1272.116, 38.14468
1272.598, 38.28583
1273.081, 38.73224
1273.563, 39.27631
1274.045, 39.07989
1274.527, 38.01060
1275.009, 37.31945
1275.491, 37.88678
1275.973, 38.37981
1276.455, 37.98681
1276.938, 37.55065
1277.420, 37.53718
1277.902, 37.68873
1278.384, 37.85354
1278.866, 37.95844
1279.348, 37.85583
1279.830, 37.55725
1280.312, 37.36557
1280.794, 37.32545
1281.276, 37.19476
1281.759, 36.92187
1282.241, 36.81562
1282.723, 36.97002
1283.205, 37.13555
1283.687, 37.15379
1284.169, 37.21631
1284.651, 37.64066
1285.133, 38.16549
1285.616, 38.33632
1286.098, 38.14948
##END=



