##NAMES=Groutite
##RRUFFID=R080004
##IDEAL CHEMISTRY=Mn^3+^O(OH)
##LOCALITY=Roberts mine, Crosby, Minnesota, USA
##OWNER=RRUFF
##SOURCE=Michael Scott
##DESCRIPTION=Black crystalline and in some cases striated.
##STATUS=The identification of this mineral has been confirmed by single-crystal X-ray diffraction.
##URL=rruff.info/R080004
133.4219, 23.53266
133.9040, 23.95319
134.3862, 24.45137
134.8683, 24.92390
135.3504, 25.37346
135.8325, 25.84936
136.3146, 26.33944
136.7967, 26.85353
137.2789, 27.55093
137.7610, 28.48692
138.2431, 29.48630
138.7252, 30.29949
139.2073, 30.88333
139.6894, 31.50874
140.1716, 32.31979
140.6537, 33.37018
141.1358, 34.22057
141.6179, 34.79419
142.1000, 35.26380
142.5821, 36.01657
143.0643, 37.30941
143.5464, 38.35846
144.0285, 38.82287
144.5106, 38.49279
144.9927, 38.13116
145.4748, 37.80957
145.9570, 37.44788
146.4391, 36.82947
146.9212, 35.91687
147.4033, 34.79277
147.8854, 33.45399
148.3675, 31.60432
148.8497, 30.01650
149.3318, 28.81970
149.8139, 27.94492
150.2960, 27.05392
150.7781, 26.13697
151.2602, 25.21517
151.7424, 24.30917
152.2245, 23.20847
152.7066, 22.35733
153.1887, 21.89495
153.6708, 21.79053
154.1529, 21.61255
154.6351, 21.29130
155.1172, 20.91162
155.5993, 20.53140
156.0814, 20.10912
156.5635, 19.73054
157.0456, 19.42176
157.5278, 19.18565
158.0099, 18.96181
158.4920, 18.74294
158.9741, 18.52761
159.4562, 18.31371
159.9383, 17.99018
160.4205, 17.76796
160.9026, 17.79185
161.3847, 18.08667
161.8668, 18.27281
162.3489, 18.15563
162.8310, 17.87900
163.3132, 17.61032
163.7953, 17.38418
164.2774, 17.19673
164.7595, 17.03958
165.2416, 16.90761
165.7237, 16.83349
166.2059, 16.88299
166.6880, 16.99182
167.1701, 17.06231
167.6522, 17.02805
168.1343, 16.95609
168.6164, 16.88193
169.0986, 16.80140
169.5807, 16.75539
170.0628, 16.85240
170.5449, 17.00407
171.0270, 17.03573
171.5091, 16.69109
171.9913, 16.26853
172.4734, 16.08654
172.9555, 16.24360
173.4376, 16.45396
173.9197, 16.50321
174.4018, 16.41631
174.8840, 16.25758
175.3661, 15.94736
175.8482, 15.62603
176.3303, 15.51239
176.8124, 15.70673
177.2945, 15.95057
177.7767, 15.93618
178.2588, 15.71625
178.7409, 15.50946
179.2230, 15.48759
179.7051, 15.56762
180.1872, 15.58583
180.6694, 15.48747
181.1515, 15.36708
181.6336, 15.36642
182.1157, 15.47242
182.5978, 15.59215
183.0799, 15.67556
183.5621, 15.72495
184.0442, 15.73790
184.5263, 15.69525
185.0084, 15.64179
185.4905, 15.67938
185.9726, 15.80340
186.4547, 15.90051
186.9369, 15.85958
187.4190, 15.71039
187.9011, 15.57478
188.3832, 15.46771
188.8653, 15.39657
189.3474, 15.41185
189.8296, 15.51841
190.3117, 15.58770
190.7938, 15.45513
191.2759, 15.15460
191.7580, 14.95927
192.2401, 14.95646
192.7223, 15.08252
193.2044, 15.13962
193.6865, 15.11775
194.1686, 15.10896
194.6507, 15.23786
195.1328, 15.49470
195.6150, 15.65796
196.0971, 15.64605
196.5792, 15.50706
197.0613, 15.41466
197.5434, 15.36531
198.0255, 15.37801
198.5077, 15.49159
198.9898, 15.71017
199.4719, 15.93021
199.9540, 16.13545
200.4361, 16.32218
200.9182, 16.48663
201.4004, 16.64043
201.8825, 16.73326
202.3646, 16.67877
202.8467, 16.45409
203.3288, 16.28001
203.8109, 16.21441
204.2931, 16.24787
204.7752, 16.30955
205.2573, 16.41046
205.7394, 16.51344
206.2215, 16.56925
206.7036, 16.56304
207.1858, 16.58807
207.6679, 16.68357
208.1500, 16.84167
208.6321, 16.92891
209.1142, 16.91625
209.5963, 16.88713
210.0785, 16.93584
210.5606, 17.08036
211.0427, 17.23137
211.5248, 17.35102
212.0069, 17.44217
212.4890, 17.65131
212.9712, 18.02913
213.4533, 18.44847
213.9354, 18.74232
214.4175, 18.84714
214.8996, 19.02963
215.3817, 19.37596
215.8639, 19.88347
216.3460, 20.37873
216.8281, 20.93107
217.3102, 21.38025
217.7923, 21.52933
218.2744, 21.30929
218.7566, 20.96529
219.2387, 20.53699
219.7208, 20.01901
220.2029, 19.50057
220.6850, 18.98224
221.1671, 18.46796
221.6493, 17.95818
222.1314, 17.41025
222.6135, 16.95321
223.0956, 16.62463
223.5777, 16.42148
224.0598, 16.31353
224.5420, 16.32586
225.0241, 16.40426
225.5062, 16.50500
225.9883, 16.66570
226.4704, 16.76544
226.9525, 16.75992
227.4347, 16.64360
227.9168, 16.54911
228.3989, 16.44167
228.8810, 16.39263
229.3631, 16.49305
229.8452, 16.83403
230.3274, 17.14886
230.8095, 17.39684
231.2916, 17.57890
231.7737, 17.65587
232.2558, 17.54511
232.7379, 17.41483
233.2201, 17.44649
233.7022, 17.73217
234.1843, 17.99675
234.6664, 18.16843
235.1485, 18.24366
235.6306, 18.39012
236.1128, 18.63350
236.5949, 18.92381
237.0770, 19.21741
237.5591, 19.51452
238.0412, 19.81426
238.5233, 20.12380
239.0055, 20.44430
239.4876, 20.71504
239.9697, 20.89810
240.4518, 21.07509
240.9339, 21.33151
241.4160, 21.75065
241.8982, 22.07882
242.3803, 22.22222
242.8624, 22.19071
243.3445, 22.31054
243.8266, 22.61997
244.3087, 23.03724
244.7909, 23.52875
245.2730, 24.23935
245.7551, 24.71400
246.2372, 24.74099
246.7193, 24.38007
247.2014, 24.49922
247.6836, 25.37499
248.1657, 26.39515
248.6478, 27.07285
249.1299, 27.23856
249.6120, 27.44221
250.0941, 27.76917
250.5762, 28.19888
251.0584, 28.55236
251.5405, 28.74599
252.0226, 28.97173
252.5047, 29.38377
252.9868, 30.11334
253.4689, 30.73007
253.9511, 31.19257
254.4332, 31.51004
254.9153, 31.71875
255.3974, 31.80331
255.8795, 31.80523
256.3617, 31.73960
256.8438, 31.57833
257.3259, 31.42088
257.8080, 31.26334
258.2901, 31.11637
258.7722, 31.03911
259.2544, 31.11651
259.7365, 31.11848
260.2186, 30.87911
260.7007, 30.27600
261.1828, 29.81417
261.6649, 29.57446
262.1471, 29.47583
262.6292, 29.25970
263.1113, 28.87775
263.5934, 28.47727
264.0755, 28.13861
264.5576, 27.88309
265.0398, 27.59342
265.5219, 27.23121
266.0040, 26.85484
266.4861, 26.61983
266.9682, 26.60668
267.4503, 26.53892
267.9325, 26.24072
268.4146, 25.60799
268.8967, 25.23481
269.3788, 25.20912
269.8609, 25.35495
270.3430, 25.33676
270.8252, 25.11207
271.3073, 24.86534
271.7894, 24.66819
272.2715, 24.52202
272.7536, 24.39382
273.2357, 24.26649
273.7179, 24.18333
274.2000, 24.25873
274.6821, 24.55208
275.1642, 24.72832
275.6463, 24.59456
276.1284, 24.14949
276.6106, 23.97944
277.0927, 24.14698
277.5748, 24.45339
278.0569, 24.64365
278.5390, 24.70009
279.0211, 24.78650
279.5032, 24.98306
279.9854, 25.26599
280.4675, 25.43449
280.9496, 25.48205
281.4317, 25.43850
281.9138, 25.32125
282.3959, 25.12883
282.8781, 24.90846
283.3602, 24.67447
283.8423, 24.42052
284.3244, 24.13293
284.8065, 23.81361
285.2886, 23.44164
285.7708, 22.92899
286.2529, 22.29051
286.7350, 21.82630
287.2171, 21.64866
287.6992, 21.64966
288.1813, 21.53517
288.6635, 21.30006
289.1456, 21.03762
289.6277, 20.78130
290.1098, 20.54349
290.5919, 20.43512
291.0740, 20.51730
291.5562, 20.66883
292.0383, 20.62443
292.5204, 20.39331
293.0025, 20.17847
293.4846, 20.15620
293.9667, 20.26433
294.4489, 20.27847
294.9310, 20.15862
295.4131, 19.97482
295.8952, 19.78652
296.3773, 19.60598
296.8594, 19.50408
297.3416, 19.55767
297.8237, 19.71477
298.3058, 19.86927
298.7879, 20.02121
299.2700, 20.13865
299.7521, 20.17494
300.2343, 20.14245
300.7164, 20.07837
301.1985, 19.47846
301.6806, 20.05475
302.1627, 20.39097
302.6448, 20.50002
303.1270, 19.70150
303.6091, 20.07492
304.0912, 19.97867
304.5733, 19.86317
305.0554, 20.40153
305.5375, 19.73501
306.0197, 20.26301
306.5018, 20.31418
306.9839, 20.58358
307.4660, 20.38041
307.9481, 20.32321
308.4302, 20.73872
308.9124, 20.89249
309.3945, 20.63493
309.8766, 20.38258
310.3587, 20.49788
310.8408, 20.62833
311.3229, 20.74319
311.8051, 20.81976
312.2872, 20.82068
312.7693, 20.68023
313.2514, 20.56060
313.7335, 20.55172
314.2156, 20.63863
314.6978, 20.77612
315.1799, 21.01958
315.6620, 21.25912
316.1441, 21.39995
316.6262, 21.39147
317.1083, 21.38405
317.5905, 21.44150
318.0726, 21.54227
318.5547, 21.65018
319.0368, 21.75738
319.5189, 21.86423
320.0010, 21.96709
320.4832, 22.06346
320.9653, 22.17035
321.4474, 22.31036
321.9295, 22.45770
322.4116, 22.58220
322.8937, 22.70798
323.3759, 22.78109
323.8580, 22.73483
324.3401, 22.55796
324.8222, 22.50556
325.3043, 22.75181
325.7864, 23.06268
326.2686, 23.25775
326.7507, 23.11569
327.2328, 23.08293
327.7149, 23.26181
328.1970, 23.63128
328.6791, 23.97260
329.1613, 24.32509
329.6434, 24.61276
330.1255, 24.78901
330.6076, 24.65451
331.0897, 24.70357
331.5718, 25.09839
332.0540, 25.67787
332.5361, 25.96191
333.0182, 25.67473
333.5003, 25.45868
333.9824, 25.60152
334.4645, 26.26940
334.9467, 26.78561
335.4288, 27.09007
335.9109, 27.28241
336.3930, 27.50516
336.8751, 27.74302
337.3572, 28.05191
337.8394, 28.45672
338.3215, 28.95584
338.8036, 29.52033
339.2857, 30.19192
339.7678, 30.85810
340.2499, 31.40546
340.7321, 31.81179
341.2142, 32.16589
341.6963, 32.44309
342.1784, 32.68468
342.6605, 33.10306
343.1426, 33.71921
343.6248, 34.39610
344.1069, 35.03402
344.5890, 35.62584
345.0711, 36.17937
345.5532, 36.65381
346.0353, 37.14052
346.5175, 37.86559
346.9996, 38.83111
347.4817, 39.77867
347.9638, 40.46781
348.4459, 40.99903
348.9280, 41.80480
349.4102, 42.97513
349.8923, 44.16205
350.3744, 44.78227
350.8565, 44.97911
351.3386, 45.32597
351.8207, 46.25863
352.3029, 47.45083
352.7850, 48.38485
353.2671, 49.06036
353.7492, 49.61336
354.2313, 50.19348
354.7134, 50.72988
355.1956, 51.10885
355.6777, 51.32276
356.1598, 51.32735
356.6419, 51.04313
357.1240, 50.49611
357.6061, 49.82374
358.0883, 49.13483
358.5704, 48.34877
359.0525, 47.37301
359.5346, 46.10859
360.0167, 44.80591
360.4988, 43.57592
360.9810, 42.42016
361.4631, 41.35534
361.9452, 40.39406
362.4273, 39.52015
362.9094, 38.72517
363.3915, 38.00782
363.8737, 37.36610
364.3558, 36.75965
364.8379, 36.24632
365.3200, 35.89797
365.8021, 35.77401
366.2842, 35.77398
366.7664, 35.92074
367.2485, 36.21480
367.7306, 36.45514
368.2127, 36.49597
368.6948, 36.55258
369.1769, 36.76849
369.6591, 37.26400
370.1412, 37.78009
370.6233, 38.32185
371.1054, 38.88058
371.5875, 39.41599
372.0696, 39.82876
372.5518, 40.33251
373.0339, 41.05022
373.5160, 42.11734
373.9981, 42.99417
374.4802, 43.55042
374.9623, 44.03054
375.4445, 44.85905
375.9266, 46.19728
376.4087, 47.45133
376.8908, 48.38607
377.3729, 49.02222
377.8550, 49.87715
378.3372, 50.94624
378.8193, 52.22747
379.3014, 53.70759
379.7835, 55.40091
380.2656, 57.27823
380.7477, 59.37441
381.2299, 61.60641
381.7120, 63.88128
382.1941, 66.18408
382.6762, 68.31853
383.1583, 70.15133
383.6404, 71.69958
384.1226, 73.02661
384.6047, 74.20054
385.0868, 74.92739
385.5689, 74.80636
386.0510, 73.91108
386.5331, 72.53414
387.0153, 70.74413
387.4974, 68.57161
387.9795, 65.98892
388.4616, 62.99898
388.9437, 59.81669
389.4258, 56.46703
389.9080, 53.05681
390.3901, 49.78328
390.8722, 46.64828
391.3543, 43.73452
391.8364, 41.15898
392.3185, 38.90565
392.8007, 36.82441
393.2828, 34.77765
393.7649, 32.91936
394.2470, 31.42044
394.7291, 30.41969
395.2112, 29.45748
395.6934, 28.26618
396.1755, 27.03467
396.6576, 26.04583
397.1397, 25.59079
397.6218, 25.17667
398.1039, 24.62447
398.5861, 23.90766
399.0682, 23.28007
399.5503, 22.77555
400.0324, 22.36313
400.5145, 22.02385
400.9966, 21.78524
401.4788, 21.58032
401.9609, 21.44189
402.4430, 21.33808
402.9251, 21.13236
403.4072, 20.74073
403.8893, 20.37388
404.3714, 20.13781
404.8535, 20.06614
405.3357, 19.98318
405.8178, 19.89799
406.2999, 19.79072
406.7820, 19.61141
407.2641, 19.33817
407.7462, 19.12250
408.2284, 19.03171
408.7105, 19.03635
409.1926, 18.97667
409.6747, 18.84726
410.1568, 18.69432
410.6389, 18.54350
411.1211, 18.39962
411.6032, 18.28763
412.0853, 18.22161
412.5674, 18.16884
413.0495, 18.04932
413.5316, 17.88321
414.0138, 17.77529
414.4959, 17.85382
414.9780, 17.99993
415.4601, 18.01223
415.9422, 17.87222
416.4243, 17.72681
416.9065, 17.73226
417.3886, 17.80089
417.8707, 17.80013
418.3528, 17.57713
418.8349, 17.37234
419.3170, 17.38809
419.7992, 17.57343
420.2813, 17.68884
420.7634, 17.53585
421.2455, 17.34115
421.7276, 17.26913
422.2097, 17.41466
422.6919, 17.51398
423.1740, 17.47916
423.6561, 17.36370
424.1382, 17.24847
424.6203, 17.06222
425.1024, 16.96462
425.5846, 17.04567
426.0667, 17.32034
426.5488, 17.48048
427.0309, 17.46400
427.5130, 17.38918
427.9951, 17.33570
428.4773, 17.31425
428.9594, 17.28919
429.4415, 17.24850
429.9236, 17.20733
430.4057, 17.21788
430.8878, 17.30811
431.3700, 17.36287
431.8521, 17.30617
432.3342, 17.13817
432.8163, 17.07424
433.2984, 17.14087
433.7805, 17.22002
434.2627, 17.12186
434.7448, 16.87480
435.2269, 16.78411
435.7090, 16.99841
436.1911, 17.33994
436.6732, 17.42393
437.1554, 17.27924
437.6375, 17.13528
438.1196, 17.15622
438.6017, 17.27387
439.0838, 17.39947
439.5659, 17.53575
440.0481, 17.60730
440.5302, 17.46732
441.0123, 17.23231
441.4944, 17.09784
441.9765, 17.24865
442.4586, 17.43761
442.9408, 17.49787
443.4229, 17.44461
443.9050, 17.42509
444.3871, 17.53281
444.8692, 17.67295
445.3513, 17.78719
445.8335, 17.87634
446.3156, 17.92075
446.7977, 17.89171
447.2798, 17.81942
447.7619, 17.75593
448.2440, 17.64420
448.7262, 17.60984
449.2083, 17.71388
449.6904, 17.96759
450.1725, 18.14201
450.6546, 18.24237
451.1367, 18.25530
451.6189, 18.12953
452.1010, 17.77137
452.5831, 17.60774
453.0652, 17.72582
453.5473, 18.00727
454.0294, 18.20346
454.5116, 18.31219
454.9937, 18.35501
455.4758, 18.29471
455.9579, 18.16441
456.4400, 18.16919
456.9221, 18.31997
457.4043, 18.50217
457.8864, 18.61588
458.3685, 18.67194
458.8506, 18.70059
459.3327, 18.69493
459.8148, 18.68810
460.2970, 18.71827
460.7791, 18.78031
461.2612, 18.85651
461.7433, 18.94574
462.2254, 19.03964
462.7076, 19.13724
463.1897, 19.24180
463.6718, 19.32105
464.1539, 19.30493
464.6360, 19.27808
465.1181, 19.32523
465.6003, 19.57831
466.0824, 19.78907
466.5645, 19.90166
467.0466, 19.92319
467.5287, 19.88223
468.0108, 19.65179
468.4930, 19.47794
468.9751, 19.44893
469.4572, 19.58657
469.9393, 19.79469
470.4214, 20.13269
470.9035, 20.48473
471.3857, 20.71025
471.8678, 20.75633
472.3499, 20.84771
472.8320, 21.04316
473.3141, 21.30433
473.7962, 21.47301
474.2784, 21.52774
474.7605, 21.64565
475.2426, 22.01147
475.7247, 22.56351
476.2068, 22.89556
476.6889, 22.97582
477.1711, 22.96307
477.6532, 23.03304
478.1353, 23.15161
478.6174, 23.21061
479.0995, 23.07556
479.5816, 22.97904
480.0638, 23.22994
480.5459, 23.75842
481.0280, 24.30304
481.5101, 24.74456
481.9922, 25.12605
482.4743, 25.46688
482.9565, 25.76482
483.4386, 26.06291
483.9207, 26.34962
484.4028, 26.65430
484.8849, 27.00826
485.3670, 27.51956
485.8492, 27.96278
486.3313, 28.22705
486.8134, 28.36479
487.2955, 28.64647
487.7776, 29.13306
488.2597, 29.68484
488.7419, 30.29570
489.2240, 31.02972
489.7061, 31.46047
490.1882, 31.47495
490.6703, 31.35365
491.1524, 31.43179
491.6346, 31.74609
492.1167, 31.97119
492.5988, 32.01886
493.0809, 31.96718
493.5630, 32.02728
494.0451, 32.19527
494.5273, 32.34563
495.0094, 32.37327
495.4915, 32.33469
495.9736, 32.34509
496.4557, 32.40804
496.9378, 32.54535
497.4200, 32.76515
497.9021, 33.07459
498.3842, 33.49417
498.8663, 34.14021
499.3484, 34.74759
499.8305, 35.02080
500.3127, 35.11732
500.7948, 35.43526
501.2769, 36.26947
501.7590, 37.23500
502.2411, 38.16669
502.7232, 39.05574
503.2054, 39.94846
503.6875, 40.85009
504.1696, 41.75107
504.6517, 42.62743
505.1338, 43.42555
505.6159, 44.28810
506.0981, 45.21792
506.5802, 46.21255
507.0623, 47.26136
507.5444, 48.37514
508.0265, 49.55141
508.5086, 50.80906
508.9908, 52.14058
509.4729, 53.48509
509.9550, 54.83481
510.4371, 56.21801
510.9192, 57.60714
511.4013, 59.03634
511.8835, 60.63029
512.3655, 62.45839
512.8477, 64.32487
513.3298, 66.05235
513.8119, 67.64352
514.2940, 69.10326
514.7761, 70.22495
515.2582, 71.37746
515.7404, 72.87512
516.2225, 74.69096
516.7046, 76.59495
517.1867, 78.56360
517.6688, 80.53203
518.1509, 82.47308
518.6331, 84.42645
519.1152, 86.25019
519.5973, 87.74921
520.0794, 89.16112
520.5615, 90.76699
521.0436, 92.78582
521.5258, 94.66917
522.0079, 96.32154
522.4900, 97.76891
522.9721, 99.14375
523.4542, 100.4118
523.9363, 101.6289
524.4185, 102.8484
524.9006, 104.0740
525.3827, 105.1054
525.8648, 105.9375
526.3469, 106.6399
526.8290, 107.3361
527.3112, 107.9783
527.7933, 108.3935
528.2754, 108.5469
528.7575, 108.4589
529.2396, 108.0672
529.7217, 107.4410
530.2039, 106.7916
530.6860, 106.1885
531.1681, 105.6254
531.6502, 105.0487
532.1323, 104.4573
532.6144, 104.0068
533.0966, 104.0932
533.5787, 104.1211
534.0608, 103.6249
534.5429, 101.8833
535.0250, 100.6809
535.5071, 100.5096
535.9893, 100.8315
536.4714, 100.8800
536.9535, 100.4757
537.4356, 100.1371
537.9177, 99.93385
538.3998, 99.88487
538.8820, 100.1474
539.3641, 100.7557
539.8462, 101.4982
540.3283, 102.1474
540.8104, 102.7636
541.2925, 103.9044
541.7747, 105.6468
542.2568, 107.5224
542.7389, 109.0098
543.2210, 110.2446
543.7031, 111.5444
544.1852, 112.9999
544.6674, 114.5455
545.1495, 116.1050
545.6316, 117.6942
546.1137, 119.3524
546.5958, 121.1132
547.0779, 122.9354
547.5601, 124.8327
548.0422, 126.8077
548.5243, 128.7135
549.0064, 130.5190
549.4885, 132.2434
549.9706, 133.8957
550.4528, 135.4312
550.9349, 136.9797
551.4170, 138.6038
551.8991, 140.2162
552.3812, 141.7466
552.8633, 143.2561
553.3455, 144.4500
553.8276, 145.3249
554.3097, 145.7993
554.7918, 145.4876
555.2739, 144.3972
555.7560, 143.0666
556.2382, 141.8822
556.7203, 140.6844
557.2024, 139.1262
557.6845, 137.1916
558.1666, 134.9536
558.6487, 132.3880
559.1309, 129.5988
559.6130, 126.7764
560.0951, 124.0107
560.5772, 121.0906
561.0593, 117.8408
561.5414, 114.3647
562.0236, 110.8970
562.5057, 107.2277
562.9878, 103.8102
563.4699, 100.9258
563.9520, 98.51411
564.4341, 95.66866
564.9163, 92.07271
565.3984, 88.48063
565.8805, 85.21449
566.3626, 82.27412
566.8447, 79.56483
567.3268, 77.09292
567.8090, 74.73563
568.2911, 72.32871
568.7732, 69.88538
569.2553, 67.73550
569.7374, 65.96214
570.2195, 64.42413
570.7017, 62.90575
571.1838, 61.40647
571.6659, 59.95546
572.1480, 58.54592
572.6301, 57.18489
573.1122, 55.89523
573.5944, 54.65931
574.0765, 53.42543
574.5586, 52.04271
575.0407, 50.75177
575.5228, 49.71040
576.0049, 49.04458
576.4871, 48.35106
576.9692, 47.52043
577.4513, 46.69085
577.9334, 46.00091
578.4155, 45.59552
578.8976, 44.97660
579.3798, 43.94844
579.8619, 42.78154
580.3440, 42.24969
580.8261, 42.41033
581.3082, 42.48816
581.7903, 42.09836
582.2725, 41.40416
582.7546, 40.87289
583.2367, 40.49664
583.7188, 40.18149
584.2009, 39.83238
584.6830, 39.51902
585.1652, 39.36389
585.6473, 39.40676
586.1294, 39.43678
586.6115, 39.24423
587.0936, 39.01049
587.5757, 38.92908
588.0579, 39.19280
588.5400, 39.44205
589.0221, 39.66957
589.5042, 39.83214
589.9863, 39.81776
590.4684, 39.41554
590.9506, 39.18129
591.4327, 39.29453
591.9148, 39.71523
592.3969, 40.09320
592.8790, 40.42054
593.3611, 40.74006
593.8433, 41.04102
594.3254, 41.34338
594.8075, 41.82370
595.2896, 42.50517
595.7717, 43.20272
596.2538, 43.60055
596.7360, 43.91284
597.2181, 44.56885
597.7002, 45.80697
598.1823, 47.09711
598.6644, 47.98928
599.1465, 48.70465
599.6287, 49.62668
600.1108, 51.02195
600.5929, 52.48012
601.0750, 53.87237
601.5571, 55.20654
602.0392, 56.61353
602.5214, 58.07093
603.0035, 59.65069
603.4856, 61.38277
603.9677, 63.29146
604.4498, 65.21074
604.9319, 67.15302
605.4141, 69.11236
605.8962, 70.94409
606.3783, 72.72477
606.8604, 74.87680
607.3425, 77.53532
607.8246, 80.28748
608.3068, 82.52855
608.7889, 84.48455
609.2710, 86.59510
609.7531, 89.10110
610.2352, 91.70988
610.7173, 94.20383
611.1995, 96.66040
611.6816, 99.30521
612.1637, 102.4478
612.6458, 105.5893
613.1279, 108.6060
613.6100, 111.4538
614.0922, 114.2082
614.5743, 117.0128
615.0564, 119.5779
615.5385, 121.6953
616.0206, 123.3015
616.5027, 124.9642
616.9849, 126.7168
617.4670, 128.4224
617.9491, 130.0164
618.4312, 131.4377
618.9133, 132.3020
619.3954, 132.4978
619.8776, 132.2253
620.3597, 131.7681
620.8418, 131.0243
621.3239, 129.7888
621.8060, 127.7920
622.2881, 125.4202
622.7703, 122.8163
623.2524, 120.0011
623.7345, 117.0503
624.2166, 113.8305
624.6987, 110.6085
625.1808, 107.5362
625.6630, 104.6161
626.1451, 101.6252
626.6272, 98.50953
627.1093, 95.35625
627.5914, 92.18372
628.0735, 88.98098
628.5557, 85.91013
629.0378, 82.99485
629.5199, 80.22878
630.0020, 77.63269
630.4841, 75.16328
630.9662, 72.65166
631.4484, 69.96899
631.9305, 67.41995
632.4126, 65.41951
632.8947, 63.77073
633.3768, 62.02573
633.8589, 59.82509
634.3411, 57.69959
634.8232, 55.86492
635.3053, 54.30121
635.7874, 52.86094
636.2695, 51.67234
636.7516, 50.44915
637.2338, 49.07230
637.7159, 47.51506
638.1980, 46.14146
638.6801, 44.96965
639.1622, 43.90146
639.6443, 42.82944
640.1265, 41.78005
640.6086, 40.96205
641.0907, 40.43203
641.5728, 39.91129
642.0549, 39.06017
642.5370, 38.01375
643.0192, 36.99047
643.5013, 36.00400
643.9834, 35.14491
644.4655, 34.50517
644.9476, 34.02159
645.4297, 33.56050
645.9119, 33.12319
646.3940, 32.67198
646.8761, 32.20279
647.3582, 31.71346
647.8403, 31.20369
648.3224, 30.63513
648.8046, 30.11068
649.2867, 29.67145
649.7688, 29.30669
650.2509, 28.95261
650.7330, 28.60527
651.2151, 28.27709
651.6973, 27.99760
652.1794, 27.73795
652.6615, 27.42554
653.1436, 27.05126
653.6257, 26.69984
654.1078, 26.48013
654.5900, 26.30434
655.0721, 26.06063
655.5542, 25.65342
656.0363, 25.32875
656.5184, 25.26888
657.0005, 25.29668
657.4827, 25.16740
657.9648, 24.66814
658.4469, 24.37375
658.9290, 24.45599
659.4111, 24.72346
659.8932, 24.66179
660.3754, 24.22182
660.8575, 23.87531
661.3396, 23.86489
661.8217, 24.02040
662.3038, 23.89390
662.7859, 23.52157
663.2681, 23.15342
663.7502, 22.94043
664.2323, 22.81080
664.7144, 22.69064
665.1965, 22.57714
665.6786, 22.50974
666.1608, 22.59051
666.6429, 22.66010
667.1250, 22.60691
667.6071, 22.35428
668.0892, 22.16074
668.5714, 22.05462
669.0535, 21.97530
669.5356, 21.86892
670.0177, 21.72951
670.4998, 21.59874
670.9819, 21.47569
671.4641, 21.37472
671.9462, 21.32631
672.4283, 21.32061
672.9104, 21.32167
673.3925, 21.34088
673.8746, 21.32499
674.3568, 21.20411
674.8389, 21.00806
675.3210, 20.80080
675.8031, 20.51328
676.2852, 20.31786
676.7673, 20.36198
677.2495, 20.59062
677.7316, 20.65200
678.2137, 20.37319
678.6958, 20.15836
679.1779, 20.18919
679.6600, 20.44910
680.1422, 20.51676
680.6243, 20.36960
681.1064, 20.17093
681.5885, 19.98190
682.0706, 19.83007
682.5527, 19.85725
683.0349, 20.07699
683.5170, 20.25336
683.9991, 20.09928
684.4812, 19.85144
684.9633, 19.78976
685.4454, 20.02856
685.9276, 20.26096
686.4097, 20.43913
686.8918, 20.53213
687.3739, 20.49409
687.8560, 20.17008
688.3381, 19.99950
688.8203, 20.05260
689.3024, 20.22386
689.7845, 20.36329
690.2666, 20.47596
690.7487, 20.48223
691.2308, 20.32055
691.7130, 20.10264
692.1951, 20.04784
692.6772, 20.11039
693.1593, 20.12375
693.6414, 19.92382
694.1235, 19.71129
694.6057, 19.63247
695.0878, 19.67484
695.5699, 19.77448
696.0520, 20.04197
696.5341, 20.23604
697.0162, 20.21364
697.4984, 19.98014
697.9805, 19.88227
698.4626, 19.97001
698.9447, 20.09254
699.4268, 20.19072
699.9089, 20.26185
700.3911, 20.18889
700.8732, 19.95759
701.3553, 19.76325
701.8374, 19.86078
702.3195, 20.08681
702.8016, 20.11973
703.2838, 19.88272
703.7659, 19.70507
704.2480, 19.86895
704.7301, 20.14756
705.2122, 20.32522
705.6943, 20.30939
706.1765, 20.27440
706.6586, 20.22837
707.1407, 20.17550
707.6228, 20.12473
708.1049, 20.08499
708.5870, 19.99689
709.0692, 19.82388
709.5513, 19.65039
710.0334, 19.65383
710.5155, 19.80323
710.9976, 19.93171
711.4797, 19.96019
711.9618, 19.96978
712.4439, 20.08364
712.9260, 20.24428
713.4081, 20.31566
713.8903, 20.16812
714.3724, 19.99730
714.8545, 19.83840
715.3366, 19.70926
715.8187, 19.69964
716.3008, 19.90928
716.7830, 20.06457
717.2651, 20.04904
717.7472, 19.89092
718.2293, 19.83080
718.7114, 19.87445
719.1935, 19.92108
719.6757, 19.88832
720.1578, 19.82000
720.6399, 19.80770
721.1220, 19.85067
721.6041, 19.88665
722.0862, 19.87369
722.5684, 19.83827
723.0505, 19.79492
723.5326, 19.74183
724.0147, 19.69988
724.4968, 19.66842
724.9789, 19.65231
725.4611, 19.66268
725.9432, 19.71827
726.4253, 19.72103
726.9074, 19.65918
727.3895, 19.57848
727.8716, 19.54035
728.3538, 19.52802
728.8359, 19.45583
729.3180, 19.28994
729.8001, 19.15718
730.2822, 19.23535
730.7643, 19.39454
731.2465, 19.45527
731.7286, 19.28473
732.2107, 19.13966
732.6928, 19.10456
733.1749, 19.13152
733.6570, 19.14049
734.1392, 19.09031
734.6213, 19.12662
735.1034, 19.31863
735.5855, 19.55052
736.0676, 19.55128
736.5497, 19.33762
737.0319, 19.17227
737.5140, 19.17443
737.9961, 19.22648
738.4782, 19.15292
738.9603, 19.00386
739.4424, 18.90817
739.9246, 18.96134
740.4067, 19.04379
740.8888, 19.14631
741.3709, 19.24352
741.8530, 19.21964
742.3351, 18.94546
742.8173, 18.74790
743.2994, 18.73823
743.7815, 18.87957
744.2636, 18.97619
744.7457, 19.02591
745.2278, 19.06021
745.7100, 19.10418
746.1921, 19.14118
746.6742, 19.13797
747.1563, 19.09621
747.6384, 19.02986
748.1205, 18.86827
748.6027, 18.74704
749.0848, 18.80327
749.5669, 19.05221
750.0490, 19.19697
750.5311, 19.17521
751.0132, 19.07058
751.4954, 18.88605
751.9775, 18.60635
752.4596, 18.48195
752.9417, 18.53629
753.4238, 18.62472
753.9059, 18.62072
754.3881, 18.56519
754.8702, 18.57877
755.3523, 18.67169
755.8344, 18.74580
756.3165, 18.69703
756.7986, 18.61600
757.2808, 18.58873
757.7629, 18.64721
758.2450, 18.68607
758.7271, 18.69114
759.2092, 18.66875
759.6913, 18.61200
760.1735, 18.50055
760.6556, 18.45241
761.1377, 18.48901
761.6198, 18.52891
762.1019, 18.43406
762.5840, 18.26504
763.0662, 18.24621
763.5483, 18.44117
764.0304, 18.64070
764.5125, 18.67063
764.9946, 18.60390
765.4767, 18.51762
765.9589, 18.38517
766.4410, 18.31247
766.9231, 18.38766
767.4052, 18.48720
767.8873, 18.47038
768.3694, 17.95131
768.8516, 18.36936
769.3337, 18.59537
769.8158, 18.63963
770.2979, 17.95783
770.7800, 18.21358
771.2621, 18.09361
771.7443, 17.95823
772.2264, 18.34595
772.7085, 17.76975
773.1906, 18.14917
773.6727, 18.14713
774.1548, 18.31967
774.6370, 18.11415
775.1191, 18.02542
775.6012, 18.31485
776.0833, 18.39488
776.5654, 18.14585
777.0475, 18.32949
777.5297, 17.74009
778.0118, 17.82904
778.4939, 18.21067
778.9760, 17.98066
779.4581, 18.17121
779.9402, 18.20158
780.4224, 17.50402
780.9045, 18.07241
781.3866, 18.09332
781.8687, 17.55208
782.3508, 18.07710
782.8329, 17.93211
783.3151, 17.98467
783.7972, 17.31119
784.2793, 17.57525
784.7614, 17.46359
785.2435, 17.33652
785.7256, 17.73255
786.2078, 17.16466
786.6899, 17.55239
787.1720, 17.55866
787.6541, 17.73951
788.1362, 17.54231
788.6183, 17.46188
789.1005, 17.75962
789.5826, 17.84796
790.0647, 17.60724
790.5468, 17.79919
791.0289, 17.21811
791.5110, 17.31537
791.9932, 17.70531
792.4753, 17.48360
792.9574, 17.68246
793.4395, 17.72114
793.9216, 17.03189
794.4037, 17.60860
794.8859, 17.63781
795.3680, 17.10489
795.8501, 17.63821
796.3322, 17.18278
796.8143, 17.39968
797.2964, 17.40483
797.7786, 17.29708
798.2607, 17.15537
798.7428, 16.87284
799.2249, 16.74464
799.7070, 16.91034
800.1891, 17.25054
800.6713, 17.35235
801.1534, 17.21247
801.6355, 17.02898
802.1176, 16.85547
802.5997, 16.71458
803.0818, 16.63632
803.5640, 16.61852
804.0461, 16.65445
804.5282, 16.77383
805.0103, 16.91221
805.4924, 17.08236
805.9745, 17.25517
806.4567, 17.31983
806.9388, 17.24423
807.4209, 17.11918
807.9030, 16.93272
808.3851, 16.73816
808.8672, 16.74075
809.3494, 16.91612
809.8315, 17.04235
810.3136, 16.98730
810.7957, 16.85640
811.2778, 16.71491
811.7599, 16.58260
812.2421, 16.51494
812.7242, 16.60288
813.2063, 16.67968
813.6884, 16.68274
814.1705, 16.63689
814.6526, 16.63075
815.1348, 16.68779
815.6169, 16.68233
816.0990, 16.54839
816.5811, 16.35793
817.0632, 16.26683
817.5453, 16.26074
818.0275, 16.28206
818.5096, 16.35339
818.9917, 16.39467
819.4738, 16.32247
819.9559, 16.17827
820.4380, 16.07408
820.9202, 16.05308
821.4023, 16.04563
821.8844, 16.03673
822.3665, 16.03595
822.8486, 16.06646
823.3307, 16.12790
823.8129, 16.22881
824.2950, 16.39497
824.7771, 16.56821
825.2592, 16.68843
825.7413, 16.74781
826.2234, 16.73381
826.7056, 16.59304
827.1877, 16.42970
827.6698, 16.25346
828.1519, 16.08712
828.6340, 15.97058
829.1161, 15.90116
829.5983, 15.90225
830.0804, 16.01286
830.5625, 16.14811
831.0446, 16.10480
831.5267, 15.92317
832.0089, 15.81461
832.4910, 15.87355
832.9731, 15.98409
833.4552, 16.05247
833.9373, 16.09959
834.4194, 16.15883
834.9016, 16.31248
835.3837, 16.37811
835.8658, 16.27939
836.3479, 16.12452
836.8300, 16.08908
837.3121, 16.18830
837.7943, 16.26613
838.2764, 16.30459
838.7585, 16.28898
839.2406, 16.15370
839.7227, 15.95730
840.2048, 15.81762
840.6870, 15.76803
841.1691, 15.77560
841.6512, 15.91764
842.1333, 16.06361
842.6154, 16.03500
843.0975, 15.63434
843.5797, 15.51334
844.0618, 15.79349
844.5439, 16.17941
845.0260, 16.29864
845.5081, 16.20069
845.9902, 16.13587
846.4724, 16.15216
846.9545, 16.13610
847.4366, 15.90616
847.9187, 15.63322
848.4008, 15.52852
848.8829, 15.73225
849.3651, 15.81110
849.8472, 15.59844
850.3293, 15.36182
850.8114, 15.31560
851.2935, 15.48547
851.7756, 15.58149
852.2578, 15.58762
852.7399, 15.57812
853.2220, 15.65117
853.7041, 15.74095
854.1862, 15.72240
854.6683, 15.57674
855.1505, 15.45433
855.6326, 15.43436
856.1147, 15.45293
856.5968, 15.46232
857.0789, 15.45298
857.5610, 15.52841
858.0432, 15.73361
858.5253, 15.88333
859.0074, 15.80248
859.4895, 15.56758
859.9716, 15.45964
860.4537, 15.47048
860.9359, 15.49944
861.4180, 15.49997
861.9001, 15.48011
862.3822, 15.42107
862.8643, 15.32921
863.3464, 15.31602
863.8286, 15.43893
864.3107, 15.55396
864.7928, 15.60384
865.2749, 15.60718
865.7570, 15.66595
866.2391, 15.77463
866.7213, 15.82847
867.2034, 15.69786
867.6855, 15.54637
868.1676, 15.60799
868.6497, 15.79603
869.1318, 15.86073
869.6140, 15.56344
870.0961, 15.31796
870.5782, 15.21708
871.0603, 15.23622
871.5424, 15.34974
872.0245, 15.57576
872.5067, 15.70559
872.9888, 15.64963
873.4709, 15.54090
873.9530, 15.60248
874.4351, 15.76481
874.9172, 15.87638
875.3994, 15.88194
875.8815, 15.83768
876.3636, 15.69767
876.8457, 15.55054
877.3278, 15.52983
877.8099, 15.70945
878.2921, 15.77684
878.7742, 15.67483
879.2563, 15.53009
879.7384, 15.53200
880.2205, 15.61981
880.7026, 15.59613
881.1848, 15.39866
881.6669, 15.24902
882.1490, 15.38259
882.6311, 15.57677
883.1132, 15.61826
883.5953, 15.40512
884.0775, 15.28534
884.5596, 15.29245
885.0417, 15.32919
885.5238, 15.32125
886.0059, 15.27690
886.4880, 15.24488
886.9702, 15.22691
887.4523, 15.22284
887.9344, 15.23819
888.4165, 15.26356
888.8986, 15.33289
889.3807, 15.44403
889.8629, 15.38511
890.3450, 14.95199
890.8271, 14.60627
891.3092, 14.54246
891.7913, 14.70638
892.2734, 14.83165
892.7556, 14.91773
893.2377, 14.97238
893.7198, 14.98103
894.2019, 14.97498
894.6840, 14.98303
895.1661, 15.00333
895.6483, 15.03065
896.1304, 15.14321
896.6125, 15.15470
897.0946, 14.97071
897.5767, 14.69913
898.0588, 14.58346
898.5410, 14.62783
899.0231, 14.67026
899.5052, 14.66903
899.9873, 14.66272
900.4694, 14.72589
900.9515, 14.81055
901.4337, 14.83005
901.9158, 14.71018
902.3979, 14.62420
902.8800, 14.65222
903.3621, 14.71189
903.8442, 14.73040
904.3264, 14.69579
904.8085, 14.69964
905.2906, 14.75502
905.7727, 14.79813
906.2548, 14.72128
906.7369, 14.60972
907.2191, 14.64232
907.7012, 14.84197
908.1833, 14.95588
908.6654, 14.78074
909.1475, 14.56756
909.6296, 14.45983
910.1118, 14.45638
910.5939, 14.40824
911.0760, 14.30024
911.5581, 14.23061
912.0402, 14.26459
912.5223, 14.36789
913.0045, 14.51166
913.4866, 14.67229
913.9687, 14.75496
914.4508, 14.61921
914.9329, 14.49782
915.4150, 14.51902
915.8972, 14.62319
916.3793, 14.65494
916.8614, 14.59333
917.3435, 14.53838
917.8256, 14.50337
918.3077, 14.50134
918.7899, 14.59565
919.2720, 14.73553
919.7541, 14.79514
920.2362, 14.70886
920.7183, 14.60750
921.2004, 14.51399
921.6826, 14.45976
922.1647, 14.48461
922.6468, 14.64564
923.1289, 14.69645
923.6110, 14.60696
924.0931, 14.50391
924.5753, 14.54450
925.0574, 14.65344
925.5395, 14.63433
926.0216, 14.47664
926.5037, 14.36730
926.9858, 14.47385
927.4680, 14.60320
927.9501, 14.63860
928.4322, 14.58407
928.9143, 14.49388
929.3964, 14.34108
929.8785, 14.25962
930.3607, 14.35565
930.8428, 14.52208
931.3249, 14.48752
931.8070, 14.30986
932.2891, 14.17882
932.7712, 14.20385
933.2534, 14.26714
933.7355, 14.35409
934.2176, 14.43717
934.6997, 14.45591
935.1818, 14.37412
935.6639, 14.37023
936.1461, 14.49612
936.6282, 14.62367
937.1103, 14.55398
937.5924, 14.36346
938.0745, 14.20084
938.5566, 14.08143
939.0388, 14.05665
939.5209, 14.26098
940.0030, 14.48498
940.4851, 14.55713
940.9672, 14.44812
941.4493, 14.43561
941.9315, 14.54402
942.4136, 14.63207
942.8957, 14.57230
943.3778, 14.43755
943.8599, 14.36415
944.3420, 14.34754
944.8242, 14.35201
945.3063, 14.35355
945.7884, 14.38155
946.2705, 14.48704
946.7526, 14.62313
947.2347, 14.65808
947.7169, 14.58097
948.1990, 14.46510
948.6811, 14.30493
949.1632, 14.17070
949.6453, 14.19974
950.1274, 14.32040
950.6096, 14.39554
951.0917, 14.35767
951.5738, 14.33938
952.0559, 14.40981
952.5380, 14.49256
953.0201, 14.52612
953.5023, 14.50305
953.9844, 14.48309
954.4665, 14.46654
954.9486, 14.46001
955.4307, 14.49532
955.9128, 14.52880
956.3950, 14.48687
956.8771, 14.37458
957.3591, 14.29072
957.8412, 14.29877
958.3234, 14.30715
958.8055, 14.29457
959.2876, 14.25870
959.7697, 14.17474
960.2518, 14.04398
960.7339, 13.93736
961.2161, 13.85697
961.6982, 13.85015
962.1803, 14.05737
962.6624, 14.34378
963.1445, 14.50025
963.6266, 14.35605
964.1088, 14.24765
964.5909, 14.19101
965.0730, 14.17754
965.5551, 14.21958
966.0372, 14.30679
966.5193, 14.32451
967.0015, 14.26321
967.4836, 14.24303
967.9657, 14.44002
968.4478, 14.65567
968.9299, 14.72104
969.4120, 14.62275
969.8942, 14.49106
970.3763, 14.29709
970.8584, 14.14419
971.3405, 14.05640
971.8226, 14.04329
972.3047, 14.20003
972.7869, 14.46937
973.2690, 14.61168
973.7511, 14.41022
974.2332, 14.23001
974.7153, 14.32661
975.1974, 14.54326
975.6796, 14.65511
976.1617, 14.62105
976.6438, 14.57637
977.1259, 14.52637
977.6080, 14.47044
978.0901, 14.39956
978.5723, 14.32582
979.0544, 14.26889
979.5365, 14.23125
980.0186, 14.22119
980.5007, 14.23129
980.9828, 14.28453
981.4650, 14.42508
981.9471, 14.62577
982.4292, 14.69363
982.9113, 14.61576
983.3934, 14.55664
983.8755, 14.60838
984.3577, 14.67075
984.8398, 14.57467
985.3219, 14.39804
985.8040, 14.28796
986.2861, 14.37169
986.7682, 14.40360
987.2504, 14.29405
987.7325, 14.18860
988.2146, 14.29326
988.6967, 14.58872
989.1788, 14.61765
989.6609, 14.34114
990.1431, 14.11799
990.6252, 14.37730
991.1073, 14.70482
991.5894, 14.69246
992.0715, 14.33218
992.5536, 14.12552
993.0358, 14.16195
993.5179, 14.22633
994.0000, 14.25419
994.4821, 14.26076
994.9642, 14.28024
995.4464, 14.30943
995.9285, 14.34406
996.4106, 14.41521
996.8927, 14.42737
997.3748, 14.24773
997.8569, 14.02963
998.3391, 13.95230
998.8212, 14.07646
999.3033, 14.12806
999.7854, 14.09445
1000.268, 14.03778
1000.750, 13.99122
1001.232, 13.96630
1001.714, 14.01356
1002.196, 14.11814
1002.678, 14.15536
1003.160, 14.01444
1003.642, 13.86555
1004.124, 13.72932
1004.607, 13.63685
1005.089, 13.72602
1005.571, 13.98490
1006.053, 14.13157
1006.535, 14.05673
1007.017, 13.94456
1007.499, 14.00715
1007.981, 14.11331
1008.464, 14.10147
1008.946, 13.87330
1009.428, 13.69890
1009.910, 13.58218
1010.392, 13.51305
1010.874, 13.51180
1011.356, 13.55112
1011.838, 13.49306
1012.320, 13.36611
1012.803, 13.33156
1013.285, 13.66516
1013.767, 13.91681
1014.249, 13.75077
1014.731, 13.37389
1015.213, 13.25210
1015.695, 13.44595
1016.177, 13.50393
1016.659, 13.32042
1017.142, 13.10533
1017.624, 13.13737
1018.106, 13.28761
1018.588, 13.37492
1019.070, 13.36020
1019.552, 13.34687
1020.034, 13.34210
1020.516, 13.36304
1020.999, 13.43012
1021.481, 13.52952
1021.963, 13.59388
1022.445, 13.62247
1022.927, 13.60646
1023.409, 13.50248
1023.891, 13.39776
1024.373, 13.35892
1024.855, 13.35553
1025.338, 13.33520
1025.820, 13.29767
1026.302, 13.22633
1026.784, 13.10208
1027.266, 13.00586
1027.748, 13.06669
1028.230, 13.19873
1028.712, 13.23619
1029.195, 13.16957
1029.677, 13.09470
1030.159, 12.95588
1030.641, 12.93559
1031.123, 13.16754
1031.605, 13.53695
1032.087, 13.61395
1032.569, 13.41541
1033.052, 13.26328
1033.534, 13.27211
1034.016, 13.32574
1034.498, 13.37300
1034.980, 13.37735
1035.462, 13.26896
1035.944, 12.91789
1036.426, 12.83622
1036.908, 13.11544
1037.391, 13.40956
1037.873, 13.43020
1038.355, 13.29220
1038.837, 13.29717
1039.319, 13.41597
1039.801, 13.51057
1040.283, 13.51945
1040.765, 13.48690
1041.247, 13.37450
1041.730, 13.26171
1042.212, 13.30462
1042.694, 13.50638
1043.176, 13.63360
1043.658, 13.65159
1044.140, 13.61529
1044.622, 13.53179
1045.104, 13.44894
1045.587, 13.41213
1046.069, 13.42841
1046.551, 13.47982
1047.033, 13.60125
1047.515, 13.66341
1047.997, 13.60015
1048.479, 13.46605
1048.961, 13.37073
1049.443, 13.30280
1049.926, 13.22508
1050.408, 13.06468
1050.890, 13.00196
1051.372, 13.20101
1051.854, 13.44544
1052.336, 13.56621
1052.818, 13.55862
1053.300, 13.52642
1053.782, 13.47055
1054.265, 13.42756
1054.747, 13.41696
1055.229, 13.43621
1055.711, 13.51077
1056.193, 13.61585
1056.675, 13.65712
1057.157, 13.59294
1057.639, 13.56690
1058.122, 13.61487
1058.604, 13.67360
1059.086, 13.63330
1059.568, 13.54576
1060.050, 13.51788
1060.532, 13.57043
1061.014, 13.63062
1061.496, 13.69862
1061.979, 13.73693
1062.461, 13.73825
1062.943, 13.69657
1063.425, 13.53827
1063.907, 13.28209
1064.389, 13.12096
1064.871, 13.16211
1065.353, 13.25919
1065.835, 13.35118
1066.318, 13.40933
1066.800, 13.38256
1067.282, 13.20810
1067.764, 13.16275
1068.246, 13.25952
1068.728, 13.42471
1069.210, 13.70128
1069.692, 13.95528
1070.174, 13.89745
1070.657, 13.61168
1071.139, 13.43596
1071.621, 13.58732
1072.103, 13.72328
1072.585, 13.81179
1073.067, 13.83106
1073.549, 13.67754
1074.031, 13.41710
1074.514, 13.36370
1074.996, 13.57102
1075.478, 13.76350
1075.960, 13.74904
1076.442, 13.67738
1076.924, 13.61938
1077.406, 13.58328
1077.888, 13.62887
1078.370, 13.76168
1078.853, 13.86694
1079.335, 13.89605
1079.817, 13.90276
1080.299, 13.96679
1080.781, 14.03674
1081.263, 14.03774
1081.745, 13.91566
1082.227, 13.82980
1082.709, 13.77914
1083.192, 13.76966
1083.674, 13.83690
1084.156, 13.93637
1084.638, 13.92433
1085.120, 13.84068
1085.602, 13.82189
1086.084, 14.04631
1086.566, 14.17856
1087.048, 14.08382
1087.531, 13.92184
1088.013, 13.88124
1088.495, 13.95266
1088.977, 14.04531
1089.459, 14.15199
1089.941, 14.21209
1090.423, 14.10490
1090.905, 14.00828
1091.388, 14.09634
1091.870, 14.30227
1092.352, 14.30934
1092.834, 14.07325
1093.316, 13.96375
1093.798, 14.08864
1094.280, 14.27874
1094.762, 14.37776
1095.245, 14.40098
1095.727, 14.34123
1096.209, 14.17285
1096.691, 14.10385
1097.173, 14.18088
1097.655, 14.27456
1098.137, 14.33941
1098.619, 14.37152
1099.101, 14.32060
1099.583, 14.23175
1100.066, 14.22489
1100.548, 14.42141
1101.030, 14.56024
1101.512, 14.54375
1101.994, 14.47625
1102.476, 14.44162
1102.958, 14.43392
1103.440, 14.30923
1103.923, 14.08647
1104.405, 13.96695
1104.887, 14.20118
1105.369, 14.43362
1105.851, 14.42125
1106.333, 14.28515
1106.815, 14.26733
1107.297, 14.38677
1107.780, 14.49129
1108.262, 14.56868
1108.744, 14.61593
1109.226, 14.63315
1109.708, 14.61783
1110.190, 14.53487
1110.672, 14.39908
1111.154, 14.36707
1111.636, 14.49557
1112.119, 14.58085
1112.601, 14.56499
1113.083, 14.51134
1113.565, 14.50871
1114.047, 14.53862
1114.529, 14.57751
1115.011, 14.62973
1115.493, 14.63121
1115.975, 14.50483
1116.458, 14.42591
1116.940, 14.49557
1117.422, 14.65018
1117.904, 14.66290
1118.386, 14.57712
1118.868, 14.54776
1119.350, 14.67558
1119.832, 14.77910
1120.315, 14.74845
1120.797, 14.69044
1121.279, 14.68889
1121.761, 14.74288
1122.243, 14.76453
1122.725, 14.75660
1123.207, 14.76252
1123.689, 14.82903
1124.172, 14.89630
1124.654, 14.91013
1125.136, 14.90458
1125.618, 14.94293
1126.100, 15.03746
1126.582, 15.11784
1127.064, 15.18104
1127.546, 15.21996
1128.028, 15.24482
1128.510, 15.22989
1128.993, 15.08871
1129.475, 14.86876
1129.957, 14.81579
1130.439, 15.00838
1130.921, 15.18191
1131.403, 15.29289
1131.885, 15.37115
1132.367, 15.47306
1132.850, 15.55911
1133.332, 15.55179
1133.814, 15.44038
1134.296, 15.35861
1134.778, 15.31874
1135.260, 15.34657
1135.742, 15.48673
1136.224, 15.65373
1136.707, 15.61276
1137.189, 15.45749
1137.671, 15.45840
1138.153, 15.73051
1138.635, 15.93974
1139.117, 15.88544
1139.599, 15.81177
1140.081, 15.84173
1140.563, 15.94740
1141.046, 15.99641
1141.528, 15.99727
1142.010, 15.99706
1142.492, 16.02750
1142.974, 16.03788
1143.456, 15.96655
1143.938, 15.89108
1144.420, 15.90082
1144.902, 16.00322
1145.385, 15.95351
1145.867, 15.76008
1146.349, 15.59729
1146.831, 15.61364
1147.313, 15.65725
1147.795, 15.58419
1148.277, 15.48779
1148.759, 15.54448
1149.242, 15.81403
1149.724, 15.89667
1150.206, 15.75971
1150.688, 15.61086
1151.170, 15.63986
1151.652, 15.72388
1152.134, 15.77590
1152.616, 15.78567
1153.099, 15.71988
1153.581, 15.52369
1154.063, 15.44944
1154.545, 15.54558
1155.027, 15.70081
1155.509, 15.82932
1155.991, 15.91787
1156.473, 15.93596
1156.955, 15.88623
1157.438, 15.83498
1157.920, 15.77244
1158.402, 15.75503
1158.884, 15.80902
1159.366, 15.88280
1159.848, 15.91045
1160.330, 15.89967
1160.812, 15.85312
1161.294, 15.76616
1161.777, 15.69832
1162.259, 15.61785
1162.741, 15.64283
1163.223, 15.86924
1163.705, 16.15998
1164.187, 16.19032
1164.669, 16.04366
1165.151, 15.90728
1165.634, 15.81309
1166.116, 15.78981
1166.598, 15.92229
1167.080, 16.01998
1167.562, 15.97943
1168.044, 15.83627
1168.526, 15.65585
1169.008, 15.47955
1169.490, 15.46686
1169.973, 15.81919
1170.455, 16.05931
1170.937, 15.93878
1171.419, 15.72834
1171.901, 15.55879
1172.383, 15.44643
1172.865, 15.57501
1173.347, 15.89882
1173.829, 16.17095
1174.312, 16.27598
1174.794, 16.28989
1175.276, 16.17375
1175.758, 16.03096
1176.240, 15.96821
1176.722, 15.98229
1177.204, 15.93700
1177.686, 15.83621
1178.169, 15.76212
1178.651, 15.76350
1179.133, 15.80869
1179.615, 15.91578
1180.097, 16.03931
1180.579, 16.11718
1181.061, 16.14806
1181.543, 16.16504
1182.026, 16.17055
1182.508, 16.14400
1182.990, 16.02050
1183.472, 15.90943
1183.954, 15.89745
1184.436, 15.94891
1184.918, 15.97054
1185.400, 15.95685
1185.882, 16.05246
1186.365, 16.28777
1186.847, 16.48266
1187.329, 16.45975
1187.811, 16.36487
1188.293, 16.29841
1188.775, 16.25900
1189.257, 16.21840
1189.739, 16.17433
1190.221, 16.17298
1190.704, 16.23377
1191.186, 16.27701
1191.668, 16.15797
1192.150, 16.04149
1192.632, 16.12855
1193.114, 16.38494
1193.596, 16.44590
1194.078, 16.28974
1194.561, 16.13960
1195.043, 16.04988
1195.525, 16.01269
1196.007, 16.05072
1196.489, 16.11687
1196.971, 16.16824
1197.453, 16.20148
1197.935, 16.22373
1198.417, 16.23710
1198.900, 16.22193
1199.382, 16.16925
1199.864, 16.09142
1200.346, 15.94719
1200.828, 15.81700
1201.310, 15.80452
1201.792, 15.92602
1202.274, 16.09964
1202.756, 16.34737
1203.239, 16.43651
1203.721, 16.15387
1204.203, 15.85820
1204.685, 16.04322
1205.167, 16.40942
1205.649, 16.52746
1206.131, 16.30390
1206.613, 16.17704
1207.096, 16.15988
1207.578, 16.11341
1208.060, 15.93435
1208.542, 15.72721
1209.024, 15.54966
1209.506, 15.44473
1209.988, 15.52078
1210.470, 15.86752
1210.953, 16.00604
1211.435, 15.91503
1211.917, 15.80029
1212.399, 15.81413
1212.881, 15.84737
1213.363, 15.76937
1213.845, 15.63439
1214.327, 15.54423
1214.809, 15.52603
1215.292, 15.46257
1215.774, 15.34273
1216.256, 15.26635
1216.738, 15.34338
1217.220, 15.46626
1217.702, 15.53299
1218.184, 15.56830
1218.666, 15.64224
1219.148, 15.80382
1219.631, 15.79154
1220.113, 15.57555
1220.595, 15.37082
1221.077, 15.36076
1221.559, 15.42667
1222.041, 15.50749
1222.523, 15.57181
1223.005, 15.55542
1223.488, 15.44736
1223.970, 15.29113
1224.452, 15.07938
1224.934, 14.93347
1225.416, 14.97252
1225.898, 15.09740
1226.380, 15.30810
1226.862, 15.52023
1227.344, 15.50764
1227.827, 15.21711
1228.309, 15.05058
1228.791, 15.04706
1229.273, 15.10493
1229.755, 15.19280
1230.237, 15.25910
1230.719, 15.26670
1231.201, 15.21649
1231.683, 15.09413
1232.166, 14.88195
1232.648, 14.83038
1233.130, 14.97328
1233.612, 15.16179
1234.094, 15.38707
1234.576, 15.50850
1235.058, 15.29788
1235.540, 14.93234
1236.023, 14.86894
1236.505, 15.11414
1236.987, 15.26412
1237.469, 15.26426
1237.951, 15.20539
1238.433, 15.10833
1238.915, 15.02415
1239.397, 15.01877
1239.880, 15.04077
1240.362, 14.95556
1240.844, 14.77312
1241.326, 14.62400
1241.808, 14.52622
1242.290, 14.49689
1242.772, 14.61248
1243.254, 14.72834
1243.736, 14.74423
1244.219, 14.71953
1244.701, 14.83138
1245.183, 15.04682
1245.665, 15.13400
1246.147, 15.04413
1246.629, 14.96895
1247.111, 15.09261
1247.593, 15.16201
1248.075, 15.05199
1248.558, 14.83693
1249.040, 14.66020
1249.522, 14.52647
1250.004, 14.47349
1250.486, 14.51037
1250.968, 14.56204
1251.450, 14.63084
1251.932, 14.66047
1252.415, 14.62831
1252.897, 14.55198
1253.379, 14.43086
1253.861, 14.30315
1254.343, 14.28579
1254.825, 14.40592
1255.307, 14.50021
1255.789, 14.51611
1256.271, 14.49320
1256.754, 14.42757
1257.236, 14.35183
1257.718, 14.32294
1258.200, 14.33046
1258.682, 14.36358
1259.164, 14.42336
1259.646, 14.46611
1260.128, 14.50572
1260.610, 14.47568
1261.093, 14.33082
1261.575, 14.16562
1262.057, 14.15471
1262.539, 14.20240
1263.021, 14.14516
1263.503, 13.95045
1263.985, 13.87945
1264.467, 13.97690
1264.950, 14.08521
1265.432, 14.17260
1265.914, 14.21138
1266.396, 14.13507
1266.878, 14.01011
1267.360, 13.89124
1267.842, 13.78853
1268.324, 13.80404
1268.807, 13.95663
1269.289, 14.07850
1269.771, 14.13279
1270.253, 14.09939
1270.735, 13.88871
1271.217, 13.63402
1271.699, 13.45674
1272.181, 13.35364
1272.663, 13.28519
1273.146, 13.25250
1273.628, 13.31459
1274.110, 13.51539
1274.592, 13.68125
1275.074, 13.69351
1275.556, 13.60828
1276.038, 13.43169
1276.520, 13.20837
1277.002, 13.11559
1277.485, 13.13190
1277.967, 13.11158
1278.449, 13.00446
1278.931, 12.94931
1279.413, 13.09857
1279.895, 13.22594
1280.377, 13.22497
1280.859, 13.13807
1281.342, 13.04487
1281.824, 12.95973
1282.306, 12.93062
1282.788, 12.97613
1283.270, 13.01423
1283.752, 13.03411
1284.234, 13.02053
1284.716, 12.96385
1285.198, 12.87777
1285.681, 12.74707
1286.163, 12.61999
1286.645, 12.58948
1287.127, 12.67747
1287.609, 12.44669
1288.091, 12.87087
1288.573, 13.10299
1289.055, 13.15338
1289.537, 12.47771
1290.020, 12.73956
1290.502, 12.62571
1290.984, 12.49645
1291.466, 12.89029
1291.948, 12.32022
1292.430, 12.70576
1292.912, 12.70984
1293.394, 12.88851
1293.877, 12.68909
1294.359, 12.60648
1294.841, 12.90203
1295.323, 12.98819
1295.805, 12.74528
1296.287, 12.93505
1296.769, 12.35177
1297.251, 12.44685
1297.734, 12.83457
1298.216, 12.61068
1298.698, 12.80735
1299.180, 12.84385
1299.662, 12.15241
1300.144, 12.72693
1300.626, 12.75396
1301.108, 12.21885
1301.590, 12.74999
1302.073, 12.29234
1302.555, 12.18765
1303.037, 12.34856
1303.519, 12.23259
1304.001, 12.55315
1304.483, 12.45317
1304.965, 12.25630
##END=



