##NAMES=Groutite
##RRUFFID=R070583
##IDEAL CHEMISTRY=Mn^3+^O(OH)
##LOCALITY=Marble Canyon, Gunnison County, Colorado, USA
##OWNER=RRUFF
##SOURCE=James Shigley
##DESCRIPTION=Black elongated prismatic
##STATUS=The identification of this mineral has been confirmed by single-crystal X-ray diffraction.
##URL=rruff.info/R070583
92.96582, 160.4591
93.44794, 161.7525
93.93005, 162.3377
94.41217, 160.3277
94.89429, 156.9979
95.37640, 152.4055
95.85852, 147.3741
96.34064, 142.9138
96.82275, 139.5777
97.30487, 137.0906
97.78699, 134.6282
98.26910, 132.2594
98.75122, 129.9354
99.23334, 127.6317
99.71545, 125.2782
100.1976, 122.7201
100.6797, 120.2862
101.1618, 117.9312
101.6439, 115.4891
102.1260, 112.5873
102.6081, 109.6058
103.0903, 107.4101
103.5724, 106.1881
104.0545, 105.3895
104.5366, 104.9169
105.0187, 104.5766
105.5008, 103.9993
105.9830, 102.9085
106.4651, 101.2816
106.9472, 99.44511
107.4293, 96.68523
107.9114, 94.26753
108.3935, 92.64579
108.8757, 91.84478
109.3578, 91.67722
109.8399, 91.99136
110.3220, 93.28642
110.8041, 93.90936
111.2862, 93.58215
111.7684, 92.84707
112.2505, 92.07097
112.7326, 91.37495
113.2147, 90.74376
113.6968, 90.12157
114.1789, 89.23149
114.6611, 88.83205
115.1432, 89.32805
115.6253, 90.41451
116.1074, 91.54774
116.5895, 92.60217
117.0716, 93.39889
117.5538, 93.53796
118.0359, 92.53974
118.5180, 91.70700
119.0001, 92.11418
119.4822, 93.79124
119.9643, 95.58999
120.4465, 97.03687
120.9286, 98.24429
121.4107, 99.31555
121.8928, 100.3004
122.3749, 101.1385
122.8570, 101.6966
123.3392, 101.8658
123.8213, 101.9255
124.3034, 101.9448
124.7855, 101.9458
125.2676, 101.9276
125.7497, 101.8331
126.2319, 101.6964
126.7140, 101.9997
127.1961, 103.5294
127.6782, 104.8028
128.1603, 105.3707
128.6424, 105.3563
129.1246, 105.1234
129.6067, 104.9735
130.0888, 104.8729
130.5709, 105.0930
131.0530, 105.9797
131.5351, 106.8502
132.0173, 107.2979
132.4994, 107.2785
132.9815, 107.0313
133.4636, 106.8594
133.9457, 106.8374
134.4278, 106.5976
134.9100, 105.7325
135.3921, 104.7771
135.8742, 104.5270
136.3563, 105.3276
136.8384, 106.3763
137.3205, 106.3596
137.8027, 105.2799
138.2848, 104.1093
138.7669, 103.3718
139.2490, 102.9132
139.7311, 102.0898
140.2132, 100.5155
140.6954, 98.67233
141.1775, 97.11568
141.6596, 95.89121
142.1417, 94.70098
142.6238, 93.21766
143.1059, 91.36922
143.5881, 89.67336
144.0702, 88.61191
144.5523, 87.56111
145.0344, 86.04593
145.5165, 83.91819
145.9986, 81.49584
146.4807, 79.33068
146.9629, 77.41539
147.4450, 75.81057
147.9271, 74.52906
148.4092, 73.48469
148.8913, 72.59587
149.3734, 71.81798
149.8556, 71.17091
150.3377, 70.73788
150.8198, 70.66267
151.3019, 70.67478
151.7840, 71.02242
152.2661, 71.40813
152.7483, 71.30969
153.2304, 70.34553
153.7125, 68.60564
154.1946, 67.50095
154.6767, 67.37364
155.1588, 67.36579
155.6410, 67.19063
156.1231, 66.85855
156.6052, 66.46664
157.0873, 66.03805
157.5694, 65.60999
158.0515, 65.44016
158.5337, 65.61697
159.0158, 65.98206
159.4979, 66.60576
159.9800, 67.51046
160.4621, 68.08179
160.9442, 67.42897
161.4264, 65.97793
161.9085, 65.01453
162.3906, 65.11990
162.8727, 65.81547
163.3548, 66.37595
163.8369, 66.82061
164.3191, 66.99396
164.8012, 66.68885
165.2833, 66.05470
165.7654, 65.39623
166.2475, 64.79100
166.7296, 64.26784
167.2118, 63.96264
167.6939, 63.84452
168.1760, 64.03918
168.6581, 64.77695
169.1402, 65.87534
169.6223, 66.89882
170.1045, 67.49153
170.5866, 67.63294
171.0687, 67.57387
171.5508, 67.26426
172.0329, 66.78181
172.5150, 65.89779
172.9972, 64.77116
173.4793, 63.89473
173.9614, 63.91593
174.4435, 65.32572
174.9256, 65.90188
175.4077, 64.79869
175.8899, 63.69283
176.3720, 63.67285
176.8541, 64.80371
177.3362, 66.31937
177.8183, 67.24231
178.3004, 67.46031
178.7826, 67.18040
179.2647, 65.74189
179.7468, 64.22314
180.2289, 63.61773
180.7110, 64.15800
181.1931, 65.18608
181.6752, 65.71748
182.1574, 65.60255
182.6395, 65.41874
183.1216, 65.10684
183.6037, 64.79362
184.0858, 64.68391
184.5679, 64.86416
185.0501, 65.16084
185.5322, 65.29496
186.0143, 65.27094
186.4964, 65.19991
186.9785, 65.05112
187.4606, 64.87989
187.9428, 64.87011
188.4249, 65.19625
188.9070, 65.51157
189.3891, 65.33131
189.8712, 64.62535
190.3533, 63.94384
190.8355, 63.60395
191.3176, 63.58498
191.7997, 63.73936
192.2818, 64.14961
192.7639, 64.63126
193.2460, 64.98931
193.7282, 65.21189
194.2103, 65.49275
194.6924, 66.05576
195.1745, 66.94109
195.6566, 67.76394
196.1387, 68.51883
196.6209, 69.13204
197.1030, 69.44365
197.5851, 69.45522
198.0672, 69.46971
198.5493, 70.04636
199.0314, 71.61318
199.5136, 72.32504
199.9957, 71.13342
200.4778, 69.66992
200.9599, 68.97621
201.4420, 69.29070
201.9241, 70.10198
202.4063, 70.61617
202.8884, 70.69286
203.3705, 70.72255
203.8526, 70.52986
204.3347, 70.41853
204.8168, 70.68843
205.2990, 71.40355
205.7811, 72.32050
206.2632, 72.98884
206.7453, 73.24211
207.2274, 73.44509
207.7095, 73.56339
208.1917, 73.65287
208.6738, 73.82743
209.1559, 74.11662
209.6380, 74.35006
210.1201, 74.15389
210.6022, 72.65477
211.0844, 72.05052
211.5665, 73.14335
212.0486, 74.92913
212.5307, 76.30054
213.0128, 76.87769
213.4949, 76.84364
213.9771, 76.46835
214.4592, 75.49849
214.9413, 74.77764
215.4234, 74.66348
215.9055, 74.84856
216.3876, 74.82347
216.8698, 74.37621
217.3519, 73.76051
217.8340, 73.48428
218.3161, 73.59635
218.7982, 73.71263
219.2803, 73.61141
219.7625, 73.42464
220.2446, 73.44039
220.7267, 73.73953
221.2088, 74.30193
221.6909, 75.19028
222.1730, 76.46938
222.6552, 77.55938
223.1373, 78.08767
223.6194, 78.17545
224.1015, 78.21009
224.5836, 78.11596
225.0657, 78.25288
225.5479, 79.03928
226.0300, 80.48803
226.5121, 82.01864
226.9942, 83.37196
227.4763, 84.53016
227.9584, 85.36698
228.4406, 85.47168
228.9227, 85.65328
229.4048, 86.54925
229.8869, 88.14915
230.3690, 90.03951
230.8511, 92.20711
231.3333, 94.62283
231.8154, 96.20754
232.2975, 96.08340
232.7796, 95.73251
233.2617, 95.85450
233.7438, 96.51759
234.2260, 97.69070
234.7081, 99.58773
235.1902, 102.2853
235.6723, 104.5331
236.1544, 105.8378
236.6365, 107.0074
237.1187, 108.4486
237.6008, 110.1166
238.0829, 111.6808
238.5650, 112.7117
239.0471, 113.0809
239.5292, 113.8693
240.0114, 116.0090
240.4935, 117.7846
240.9756, 118.3159
241.4577, 117.7935
241.9398, 117.0510
242.4219, 116.8117
242.9041, 117.0961
243.3862, 117.7572
243.8683, 119.5607
244.3504, 121.0427
244.8325, 121.4132
245.3146, 120.9026
245.7968, 120.3219
246.2789, 120.4540
246.7610, 121.4338
247.2431, 121.8948
247.7252, 121.8144
248.2073, 121.2921
248.6895, 120.0156
249.1716, 118.2619
249.6537, 116.7410
250.1358, 116.1290
250.6179, 116.5319
251.1000, 116.0893
251.5822, 113.9991
252.0643, 111.9768
252.5464, 110.9723
253.0285, 110.6050
253.5106, 109.7138
253.9927, 107.2878
254.4748, 103.3503
254.9570, 100.7338
255.4391, 100.4347
255.9212, 100.1559
256.4033, 98.94924
256.8854, 97.09054
257.3676, 95.38706
257.8497, 94.41671
258.3318, 94.09289
258.8139, 93.29671
259.2960, 91.46874
259.7781, 89.88103
260.2603, 88.94176
260.7424, 88.56960
261.2245, 88.54927
261.7066, 88.78495
262.1887, 89.25181
262.6708, 89.83353
263.1530, 90.97790
263.6351, 91.72889
264.1172, 91.53245
264.5993, 90.72413
265.0814, 90.02522
265.5635, 89.79075
266.0457, 89.88527
266.5278, 89.89310
267.0099, 89.89610
267.4920, 89.72092
267.9741, 89.02161
268.4562, 88.11835
268.9384, 87.72047
269.4204, 88.18659
269.9026, 89.14599
270.3847, 89.86161
270.8668, 90.43848
271.3489, 90.62914
271.8310, 89.92756
272.3131, 88.83057
272.7953, 88.33650
273.2774, 88.83315
273.7595, 89.81741
274.2416, 90.57803
274.7237, 91.15811
275.2058, 91.47481
275.6880, 91.44156
276.1701, 91.14320
276.6522, 90.74893
277.1343, 90.31588
277.6164, 89.71819
278.0985, 88.59769
278.5807, 87.01334
279.0628, 85.68599
279.5449, 85.12366
280.0270, 84.85090
280.5091, 84.16734
280.9912, 82.97728
281.4734, 81.35852
281.9555, 79.03462
282.4376, 76.20672
282.9197, 73.83291
283.4018, 72.44960
283.8839, 71.52407
284.3661, 70.36728
284.8482, 68.91872
285.3303, 67.36024
285.8124, 65.68559
286.2945, 64.00703
286.7766, 62.63470
287.2588, 61.88819
287.7409, 61.34108
288.2230, 60.34828
288.7051, 58.83566
289.1872, 57.74541
289.6693, 58.09914
290.1515, 59.13935
290.6336, 59.46733
291.1157, 58.48675
291.5978, 57.21900
292.0799, 56.57871
292.5620, 56.56532
293.0442, 56.96507
293.5263, 58.14214
294.0084, 59.41845
294.4905, 59.74929
294.9726, 58.73305
295.4547, 57.66759
295.9369, 57.89233
296.4190, 59.28027
296.9011, 60.07478
297.3832, 59.36756
297.8653, 58.13012
298.3474, 57.48067
298.8296, 57.48783
299.3117, 57.67160
299.7938, 57.72201
300.2759, 57.67268
300.7580, 57.73318
301.2401, 58.07385
301.7223, 58.35568
302.2044, 58.19982
302.6865, 57.65868
303.1686, 57.18735
303.6507, 57.03717
304.1328, 57.14771
304.6150, 57.33199
305.0971, 57.57557
305.5792, 57.88951
306.0613, 58.34021
306.5434, 58.87168
307.0255, 59.32267
307.5077, 59.56349
307.9898, 59.69011
308.4719, 59.95827
308.9540, 60.47512
309.4361, 60.80680
309.9182, 60.41276
310.4004, 59.70161
310.8825, 59.28088
311.3646, 59.34229
311.8467, 59.76878
312.3288, 60.55452
312.8109, 61.79589
313.2931, 62.77630
313.7752, 63.15458
314.2573, 63.06527
314.7394, 62.49710
315.2215, 61.23064
315.7036, 60.07584
316.1858, 60.00560
316.6679, 61.01051
317.1500, 61.84837
317.6321, 61.95361
318.1142, 61.86937
318.5963, 62.20365
319.0785, 63.02108
319.5606, 63.81519
320.0427, 64.19166
320.5248, 64.21354
321.0069, 64.24122
321.4890, 64.32991
321.9712, 64.45632
322.4533, 64.50504
322.9354, 64.51628
323.4175, 64.77653
323.8996, 65.61391
324.3817, 66.80823
324.8639, 67.72346
325.3460, 68.19875
325.8281, 68.67698
326.3102, 69.66098
326.7923, 70.89529
327.2744, 71.79957
327.7566, 71.86928
328.2387, 71.64532
328.7208, 71.89551
329.2029, 72.63982
329.6850, 73.74976
330.1671, 75.36449
330.6493, 77.25624
331.1314, 79.13148
331.6135, 80.97157
332.0956, 82.71995
332.5777, 84.20977
333.0598, 85.45495
333.5420, 86.95265
334.0241, 89.06496
334.5062, 91.38374
334.9883, 93.29264
335.4704, 94.67005
335.9525, 96.19785
336.4347, 98.47514
336.9168, 101.2954
337.3989, 103.8477
337.8810, 105.9935
338.3631, 107.7497
338.8452, 108.8631
339.3274, 109.4128
339.8094, 110.5689
340.2916, 113.3317
340.7737, 116.8456
341.2558, 119.6146
341.7379, 121.4113
342.2200, 122.8144
342.7021, 124.1128
343.1843, 125.3730
343.6664, 126.8133
344.1485, 128.8448
344.6306, 130.8408
345.1127, 131.9515
345.5948, 132.2012
346.0770, 132.7731
346.5591, 134.5346
347.0412, 137.0151
347.5233, 138.8501
348.0054, 139.7739
348.4875, 140.4751
348.9697, 141.2450
349.4518, 142.0977
349.9339, 143.1714
350.4160, 144.6891
350.8981, 146.1592
351.3802, 146.6920
351.8624, 146.2384
352.3445, 145.5242
352.8266, 144.6075
353.3087, 143.6189
353.7908, 142.7940
354.2729, 142.1968
354.7551, 141.6082
355.2372, 140.7607
355.7193, 139.6444
356.2014, 138.6132
356.6835, 137.5378
357.1656, 136.6770
357.6478, 136.1313
358.1299, 135.9444
358.6120, 136.3148
359.0941, 137.4065
359.5762, 139.2087
360.0583, 141.4301
360.5405, 143.6575
361.0226, 146.6835
361.5047, 150.7253
361.9868, 155.8080
362.4689, 161.9955
362.9510, 169.2447
363.4332, 177.6920
363.9153, 187.5214
364.3974, 198.3499
364.8795, 211.2502
365.3616, 227.5044
365.8438, 245.3741
366.3259, 263.0940
366.8080, 280.2972
367.2901, 297.1341
367.7722, 314.0391
368.2543, 331.4955
368.7365, 346.2108
369.2186, 357.1124
369.7007, 366.3917
370.1828, 374.9867
370.6649, 383.1059
371.1470, 390.8738
371.6292, 398.3826
372.1113, 405.6253
372.5934, 412.4820
373.0755, 417.9754
373.5576, 424.2163
374.0397, 432.3120
374.5219, 441.2211
375.0040, 449.3934
375.4861, 456.2085
375.9682, 462.1497
376.4503, 468.4460
376.9324, 476.8018
377.4146, 482.6164
377.8967, 484.6801
378.3788, 485.2843
378.8609, 486.4515
379.3430, 488.2254
379.8251, 488.9037
380.3073, 486.6117
380.7894, 481.1102
381.2715, 474.2523
381.7536, 466.6165
382.2357, 456.9677
382.7178, 444.5416
383.2000, 429.7763
383.6821, 413.3596
384.1642, 395.6405
384.6463, 376.7550
385.1284, 357.2654
385.6105, 337.4082
386.0927, 316.4038
386.5748, 293.0668
387.0569, 269.1657
387.5390, 246.0882
388.0211, 224.1906
388.5032, 204.0091
388.9854, 186.3519
389.4675, 171.4958
389.9496, 157.8731
390.4317, 145.4919
390.9138, 134.4424
391.3959, 125.0547
391.8781, 117.1704
392.3602, 110.1224
392.8423, 103.4680
393.3244, 97.28512
393.8065, 91.99709
394.2886, 87.82799
394.7708, 84.20831
395.2529, 80.88931
395.7350, 77.87521
396.2171, 75.22141
396.6992, 72.96460
397.1813, 70.99998
397.6635, 69.20325
398.1456, 67.57526
398.6277, 66.09653
399.1098, 64.81161
399.5919, 63.65055
400.0740, 62.59373
400.5562, 61.64547
401.0383, 60.58391
401.5204, 59.13653
402.0025, 57.48553
402.4846, 56.08369
402.9667, 55.00848
403.4489, 54.12749
403.9310, 53.34215
404.4131, 52.66307
404.8952, 52.16952
405.3773, 52.16850
405.8594, 52.14013
406.3416, 51.44460
406.8237, 50.19801
407.3058, 49.27845
407.7879, 49.23752
408.2700, 49.70667
408.7521, 49.69880
409.2343, 48.95719
409.7164, 48.37282
410.1985, 48.52004
410.6806, 48.89153
411.1627, 48.64406
411.6448, 47.57066
412.1269, 46.30604
412.6090, 45.57161
413.0912, 45.46007
413.5733, 45.57810
414.0554, 46.12830
414.5375, 46.71612
415.0196, 47.34429
415.5017, 47.84339
415.9839, 47.68398
416.4660, 46.42513
416.9481, 44.43202
417.4302, 43.45974
417.9123, 44.72734
418.3944, 45.54554
418.8766, 45.33220
419.3587, 44.74237
419.8408, 44.50346
420.3229, 44.78364
420.8050, 45.14816
421.2871, 44.94236
421.7693, 43.86208
422.2514, 43.34981
422.7335, 43.83595
423.2156, 44.43597
423.6977, 44.87775
424.1798, 45.13974
424.6620, 45.26827
425.1441, 45.29089
425.6262, 45.20778
426.1083, 45.01650
426.5904, 44.70180
427.0725, 44.29858
427.5547, 43.45916
428.0368, 42.74763
428.5189, 42.87122
429.0010, 43.95473
429.4831, 45.09211
429.9652, 45.12304
430.4474, 44.04621
430.9295, 43.46332
431.4116, 43.87442
431.8937, 44.36730
432.3758, 44.31745
432.8579, 43.88146
433.3401, 43.50268
433.8222, 43.44516
434.3043, 43.51315
434.7864, 43.33452
435.2685, 42.87278
435.7506, 42.56017
436.2328, 42.64972
436.7149, 42.97578
437.1970, 43.27642
437.6791, 43.56797
438.1612, 43.75739
438.6433, 43.75239
439.1255, 43.61699
439.6076, 43.48151
440.0897, 43.37251
440.5718, 43.25690
441.0539, 43.04017
441.5360, 42.73236
442.0182, 42.71988
442.5003, 43.39553
442.9824, 44.04193
443.4645, 44.05729
443.9466, 43.62918
444.4287, 43.40556
444.9109, 43.74207
445.3930, 44.41449
445.8751, 44.82087
446.3572, 44.68030
446.8393, 44.69347
447.3214, 45.27898
447.8036, 45.78730
448.2857, 45.36013
448.7678, 44.06451
449.2499, 42.98962
449.7320, 43.33648
450.2141, 45.21540
450.6963, 46.24694
451.1784, 45.57460
451.6605, 44.97194
452.1426, 44.92926
452.6247, 45.18711
453.1068, 45.32386
453.5890, 45.15924
454.0711, 44.91956
454.5532, 45.04609
455.0353, 45.65493
455.5174, 46.22377
455.9995, 46.74591
456.4817, 47.16477
456.9638, 47.44037
457.4459, 47.57615
457.9280, 47.58299
458.4101, 47.32691
458.8922, 46.97349
459.3744, 47.15983
459.8565, 48.12355
460.3386, 48.85392
460.8207, 48.53881
461.3028, 47.86259
461.7849, 47.63723
462.2671, 48.05604
462.7492, 48.63801
463.2313, 49.06654
463.7134, 49.38253
464.1955, 49.66240
464.6776, 49.85256
465.1598, 50.23895
465.6419, 51.23547
466.1240, 52.77367
466.6061, 54.18175
467.0882, 55.51103
467.5703, 56.57116
468.0525, 56.90850
468.5346, 56.80994
469.0167, 57.23232
469.4988, 58.67041
469.9809, 60.79252
470.4630, 62.84515
470.9452, 64.58516
471.4273, 66.69389
471.9094, 69.70464
472.3915, 72.74836
472.8736, 75.19205
473.3557, 76.95820
473.8379, 78.19990
474.3200, 78.98454
474.8021, 79.35438
475.2842, 79.92317
475.7663, 80.72305
476.2484, 81.70340
476.7306, 82.94517
477.2127, 84.31517
477.6948, 85.65597
478.1769, 86.92074
478.6590, 88.22208
479.1411, 89.77893
479.6233, 91.64697
480.1054, 93.17242
480.5875, 94.14980
481.0696, 94.96732
481.5517, 95.69860
482.0338, 96.43822
482.5159, 97.46681
482.9980, 99.22960
483.4802, 100.8718
483.9623, 100.8249
484.4444, 99.08311
484.9265, 97.96389
485.4086, 98.62390
485.8907, 99.79187
486.3729, 99.68566
486.8550, 98.25912
487.3371, 97.12949
487.8192, 97.48192
488.3013, 98.06770
488.7834, 97.05495
489.2656, 94.45437
489.7477, 92.16141
490.2298, 91.51360
490.7119, 92.09029
491.1940, 91.82736
491.6761, 90.10299
492.1583, 88.53194
492.6404, 87.30025
493.1225, 86.42068
493.6046, 85.90699
494.0867, 85.76325
494.5688, 85.99852
495.0510, 86.63113
495.5331, 87.66557
496.0152, 89.00899
496.4973, 91.00255
496.9794, 92.93330
497.4615, 94.63888
497.9437, 96.18222
498.4258, 97.59966
498.9079, 98.90755
499.3900, 100.2418
499.8721, 101.7161
500.3542, 103.2666
500.8364, 105.3968
501.3185, 108.4855
501.8006, 111.8245
502.2827, 115.0586
502.7648, 118.2037
503.2469, 121.4026
503.7291, 124.7234
504.2112, 128.0818
504.6933, 131.1638
505.1754, 133.9881
505.6575, 137.4581
506.1396, 142.2799
506.6218, 147.4465
507.1039, 151.3270
507.5860, 153.8117
508.0681, 156.6570
508.5502, 160.2711
509.0323, 164.5079
509.5145, 169.4887
509.9966, 175.0662
510.4787, 180.4569
510.9608, 185.1444
511.4429, 189.3018
511.9250, 193.5511
512.4072, 198.0900
512.8893, 202.4329
513.3714, 206.3512
513.8535, 210.1901
514.3356, 214.3389
514.8177, 218.7645
515.2999, 223.1091
515.7820, 227.0164
516.2641, 230.4990
516.7462, 233.9408
517.2283, 237.3653
517.7104, 240.6682
518.1926, 244.0064
518.6747, 247.1277
519.1568, 249.7839
519.6389, 251.9085
520.1210, 253.6069
520.6031, 254.7211
521.0853, 255.3952
521.5674, 256.6927
522.0495, 259.0198
522.5316, 261.2035
523.0137, 262.3329
523.4958, 262.7659
523.9780, 263.1129
524.4601, 263.4411
524.9422, 263.7504
525.4243, 264.1826
525.9064, 264.5844
526.3885, 264.4528
526.8707, 263.6100
527.3528, 262.7474
527.8349, 262.6865
528.3170, 263.5477
528.7991, 264.1935
529.2813, 264.4839
529.7634, 264.7259
530.2455, 264.7836
530.7276, 264.9446
531.2097, 265.7275
531.6918, 267.3238
532.1740, 269.3397
532.6561, 271.1038
533.1382, 272.3873
533.6203, 274.1657
534.1024, 276.9359
534.5845, 279.7351
535.0667, 281.7103
535.5488, 283.5333
536.0309, 286.6123
536.5130, 291.7700
536.9951, 297.9241
537.4772, 303.5606
537.9594, 308.6780
538.4415, 313.7879
538.9236, 319.0933
539.4057, 324.3160
539.8878, 329.0848
540.3699, 333.5088
540.8521, 338.3566
541.3342, 344.1024
541.8163, 350.1391
542.2984, 356.3180
542.7805, 362.4229
543.2626, 367.6633
543.7448, 371.6509
544.2269, 374.8926
544.7090, 378.2591
545.1911, 381.9887
545.6732, 385.1937
546.1553, 387.6396
546.6375, 389.7895
547.1196, 392.0452
547.6017, 394.2303
548.0838, 395.9522
548.5659, 397.0324
549.0480, 397.3394
549.5302, 396.4865
550.0123, 394.1714
550.4944, 391.6046
550.9765, 389.0175
551.4586, 386.0763
551.9407, 382.9507
552.4229, 379.3500
552.9050, 374.4516
553.3871, 367.4905
553.8692, 359.4049
554.3513, 351.4399
554.8334, 343.5995
555.3156, 336.2944
555.7977, 330.2709
556.2798, 323.9228
556.7619, 314.5479
557.2440, 302.2134
557.7261, 290.5405
558.2083, 280.5114
558.6904, 271.0905
559.1725, 261.1945
559.6546, 251.1590
560.1367, 242.0425
560.6188, 234.4453
561.1010, 227.7358
561.5831, 220.8447
562.0652, 213.9748
562.5473, 206.3452
563.0294, 196.7814
563.5115, 187.7189
563.9937, 180.5272
564.4758, 174.7948
564.9579, 169.4355
565.4400, 163.9078
565.9221, 158.3765
566.4042, 153.1676
566.8864, 148.3488
567.3685, 143.3226
567.8506, 137.5085
568.3327, 132.0565
568.8148, 127.8424
569.2969, 124.6595
569.7791, 121.7072
570.2612, 118.9065
570.7433, 116.0879
571.2254, 112.9543
571.7075, 109.6462
572.1896, 106.7440
572.6718, 104.4647
573.1539, 102.4452
573.6360, 100.1975
574.1181, 97.61846
574.6002, 95.24331
575.0823, 92.92280
575.5645, 90.95296
576.0466, 89.73212
576.5287, 88.86604
577.0108, 87.70434
577.4929, 86.00105
577.9750, 84.07431
578.4572, 82.38956
578.9393, 80.99091
579.4214, 79.59975
579.9035, 78.24316
580.3856, 76.85709
580.8677, 75.17437
581.3499, 73.51376
581.8320, 72.46976
582.3141, 72.34690
582.7962, 72.42529
583.2783, 72.25987
583.7604, 71.79135
584.2426, 70.66430
584.7247, 68.71765
585.2068, 66.80012
585.6889, 65.60340
586.1710, 65.09507
586.6531, 64.75646
587.1352, 64.73337
587.6173, 64.69260
588.0994, 64.60971
588.5815, 64.42406
589.0637, 64.01618
589.5458, 63.39480
590.0279, 62.74303
590.5100, 62.25694
590.9921, 61.90745
591.4742, 61.33741
591.9564, 60.27705
592.4385, 59.45306
592.9206, 59.20428
593.4027, 59.11964
593.8848, 58.74426
594.3669, 58.06514
594.8491, 57.63420
595.3312, 58.05690
595.8133, 58.91930
596.2954, 59.26240
596.7775, 59.04927
597.2596, 59.11831
597.7418, 60.11189
598.2239, 61.35548
598.7060, 61.27129
599.1881, 59.41001
599.6702, 58.26798
600.1523, 58.66602
600.6345, 59.52813
601.1166, 60.19848
601.5987, 60.64293
602.0808, 60.96518
602.5629, 61.21437
603.0450, 61.45711
603.5272, 61.90260
604.0093, 62.76079
604.4914, 63.17905
604.9735, 62.42271
605.4556, 61.89680
605.9377, 62.48301
606.4199, 63.71239
606.9020, 64.59933
607.3841, 64.72781
607.8662, 64.51168
608.3483, 64.26984
608.8304, 64.04205
609.3126, 64.03600
609.7947, 64.32269
610.2768, 64.69289
610.7589, 64.99253
611.2410, 65.21678
611.7231, 65.36179
612.2053, 65.40996
612.6874, 65.40577
613.1695, 65.48976
613.6516, 65.46026
614.1337, 64.96763
614.6158, 64.03442
615.0980, 63.11197
615.5801, 62.60746
616.0622, 62.47026
616.5443, 62.33859
617.0264, 62.31512
617.5085, 62.08061
617.9907, 61.29951
618.4728, 60.46541
618.9549, 59.96305
619.4370, 59.79946
619.9191, 59.70662
620.4012, 59.63357
620.8834, 59.49604
621.3655, 59.11692
621.8476, 58.53208
622.3297, 58.02173
622.8118, 57.70265
623.2939, 57.47936
623.7761, 57.26856
624.2582, 57.17937
624.7403, 56.55807
625.2224, 54.80080
625.7045, 53.16799
626.1866, 52.33161
626.6688, 51.96250
627.1509, 51.49241
627.6330, 50.73489
628.1151, 49.98108
628.5972, 49.69158
629.0793, 49.87037
629.5615, 49.74561
630.0436, 49.17026
630.5257, 48.58738
631.0078, 48.23890
631.4899, 47.99302
631.9720, 47.68721
632.4542, 47.28852
632.9363, 46.91875
633.4184, 46.65780
633.9005, 46.44928
634.3826, 46.20428
634.8647, 45.93037
635.3469, 45.73735
635.8290, 45.70632
636.3111, 45.73201
636.7932, 45.53815
637.2753, 44.92794
637.7574, 44.50285
638.2396, 44.39762
638.7217, 44.31940
639.2038, 44.18655
639.6859, 43.96074
640.1680, 43.56151
640.6501, 42.92988
641.1323, 42.28028
641.6144, 41.88314
642.0965, 41.72030
642.5786, 41.67401
643.0607, 41.76453
643.5428, 41.85421
644.0250, 41.83582
644.5071, 41.74004
644.9892, 41.69057
645.4713, 41.75358
645.9534, 41.74568
646.4355, 41.54980
646.9177, 41.30168
647.3998, 41.11084
647.8819, 40.99820
648.3640, 40.99939
648.8461, 41.16632
649.3282, 41.35980
649.8104, 41.07908
650.2925, 40.01381
650.7746, 39.47231
651.2567, 40.07786
651.7388, 40.77769
652.2209, 40.92612
652.7031, 40.71109
653.1852, 40.66614
653.6673, 41.05751
654.1494, 41.48480
654.6315, 41.68475
655.1136, 41.65503
655.5958, 41.33532
656.0779, 40.71790
656.5600, 39.98765
657.0421, 39.22499
657.5242, 38.49929
658.0063, 38.30912
658.4885, 39.27222
658.9706, 39.96255
659.4527, 40.18188
659.9348, 40.20233
660.4169, 40.23362
660.8990, 40.25879
661.3812, 40.10023
661.8633, 39.57014
662.3454, 38.97842
662.8275, 38.96817
663.3096, 39.51080
663.7917, 39.83156
664.2739, 39.75226
664.7560, 39.46686
665.2381, 39.22950
665.7202, 38.95522
666.2023, 38.14731
666.6844, 35.46532
667.1666, 33.88956
667.6487, 35.31958
668.1308, 37.77028
668.6129, 39.11016
669.0950, 39.11574
669.5771, 38.71676
670.0593, 38.60014
670.5414, 38.63198
671.0235, 38.26949
671.5056, 37.26784
671.9877, 36.78099
672.4698, 37.25993
672.9520, 38.06077
673.4341, 38.96898
673.9162, 39.83189
674.3983, 40.12161
674.8804, 39.33784
675.3625, 38.45341
675.8447, 38.13111
676.3268, 38.15242
676.8089, 38.15197
677.2910, 38.05827
677.7731, 37.94535
678.2552, 37.85789
678.7374, 37.81824
679.2195, 37.97517
679.7016, 38.58706
680.1837, 38.92134
680.6658, 38.82132
681.1479, 38.52466
681.6301, 37.92546
682.1122, 37.24406
682.5943, 37.10541
683.0764, 38.04185
683.5585, 39.10511
684.0406, 39.15416
684.5228, 38.47100
685.0049, 37.95531
685.4870, 37.77211
685.9691, 37.83816
686.4512, 38.13957
686.9333, 38.62395
687.4155, 38.96980
687.8976, 39.14085
688.3797, 39.21876
688.8618, 39.18301
689.3439, 39.07605
689.8260, 38.89769
690.3082, 38.67439
690.7903, 38.42963
691.2724, 38.14070
691.7545, 37.96594
692.2366, 38.23672
692.7188, 38.88580
693.2009, 39.40165
693.6830, 39.75944
694.1651, 39.73329
694.6472, 38.91451
695.1293, 37.61201
695.6115, 37.12495
696.0936, 37.92983
696.5757, 38.61282
697.0578, 38.91239
697.5399, 39.04253
698.0220, 39.21897
698.5042, 39.37022
698.9863, 39.19779
699.4684, 38.52546
699.9505, 37.74955
700.4326, 37.60014
700.9147, 38.07140
701.3969, 38.29543
701.8790, 38.11290
702.3611, 37.90049
702.8432, 37.85047
703.3253, 37.93873
703.8074, 38.12807
704.2896, 38.50803
704.7717, 38.71931
705.2538, 38.42960
705.7359, 38.12982
706.2180, 38.34172
706.7001, 38.88147
707.1823, 39.20271
707.6644, 39.06329
708.1465, 38.71489
708.6286, 38.46350
709.1107, 38.29604
709.5928, 38.54450
710.0750, 39.50981
710.5571, 40.25759
711.0392, 40.14608
711.5213, 39.69468
712.0034, 39.60047
712.4855, 39.94826
712.9677, 40.18612
713.4498, 40.01462
713.9319, 39.77283
714.4140, 39.81408
714.8961, 39.99418
715.3782, 39.91519
715.8604, 39.45263
716.3425, 38.89898
716.8246, 38.58722
717.3067, 38.51546
717.7888, 38.73235
718.2709, 39.47661
718.7531, 39.99018
719.2352, 39.85408
719.7173, 39.51239
720.1994, 39.36317
720.6815, 39.40440
721.1636, 39.39200
721.6458, 39.09389
722.1279, 38.86282
722.6100, 39.12125
723.0921, 39.58702
723.5742, 39.63136
724.0563, 39.15511
724.5385, 38.71992
725.0206, 38.87823
725.5027, 39.50482
725.9848, 39.85897
726.4669, 39.95604
726.9490, 39.72718
727.4312, 38.63844
727.9132, 37.71670
728.3953, 37.80487
728.8774, 38.63595
729.3596, 39.30565
729.8417, 39.53065
730.3238, 39.62419
730.8059, 39.90305
731.2880, 40.11132
731.7701, 39.61892
732.2523, 38.54118
732.7344, 37.96879
733.2165, 38.70860
733.6986, 40.06898
734.1807, 40.11427
734.6628, 38.33143
735.1450, 37.21839
735.6271, 37.16430
736.1092, 37.50750
736.5913, 38.17414
737.0734, 38.90285
737.5555, 39.24964
738.0377, 39.08086
738.5198, 38.82310
739.0019, 38.53753
739.4840, 38.36217
739.9661, 38.62283
740.4482, 39.13546
740.9304, 39.17028
741.4125, 38.41914
741.8946, 37.69752
742.3767, 38.39000
742.8588, 40.61526
743.3409, 41.53923
743.8231, 40.40711
744.3052, 39.49293
744.7873, 39.93160
745.2694, 40.71762
745.7515, 40.86578
746.2336, 40.36398
746.7158, 39.88391
747.1979, 39.57519
747.6800, 39.40506
748.1621, 39.47137
748.6442, 39.61896
749.1263, 39.57844
749.6085, 39.30469
750.0906, 38.91590
750.5727, 38.44808
751.0548, 38.03630
751.5369, 38.37533
752.0190, 39.79140
752.5012, 40.48182
752.9833, 39.69409
753.4654, 38.68502
753.9475, 38.33516
754.4296, 38.50109
754.9117, 38.89793
755.3939, 39.79664
755.8760, 40.33622
756.3581, 39.68296
756.8402, 38.91278
757.3223, 39.22368
757.8044, 40.38159
758.2866, 41.44981
758.7687, 41.97415
759.2508, 42.01758
759.7329, 41.56199
760.2150, 40.62068
760.6971, 39.77007
761.1793, 39.00521
761.6614, 38.40533
762.1435, 37.94337
762.6256, 37.72240
763.1077, 38.05737
763.5898, 39.04249
764.0720, 39.62703
764.5541, 39.57177
765.0362, 39.21449
765.5183, 38.46237
766.0004, 37.63086
766.4825, 37.06294
766.9647, 36.84765
767.4468, 36.95523
767.9289, 37.40546
768.4110, 38.11469
768.8931, 39.09076
769.3752, 40.30163
769.8574, 40.74776
770.3395, 40.03062
770.8216, 39.13294
771.3037, 38.88603
771.7858, 39.17090
772.2679, 39.26670
772.7501, 39.03923
773.2322, 38.82801
773.7143, 38.44815
774.1964, 38.28264
774.6785, 38.91900
775.1606, 39.88623
775.6428, 40.13631
776.1249, 39.24089
776.6070, 38.19326
777.0891, 37.93745
777.5712, 38.22175
778.0533, 38.51472
778.5355, 38.78819
779.0176, 39.16185
779.4997, 39.72056
779.9818, 40.23437
780.4639, 40.35059
780.9460, 40.02445
781.4282, 39.73119
781.9103, 39.37939
782.3924, 39.19275
782.8745, 39.32453
783.3566, 39.54865
783.8387, 39.74274
784.3209, 39.86372
784.8030, 39.80021
785.2851, 39.43131
785.7672, 38.96764
786.2493, 38.41208
786.7314, 37.94055
787.2136, 37.98278
787.6957, 38.51118
788.1778, 38.96811
788.6599, 38.98083
789.1420, 38.73675
789.6241, 38.72080
790.1063, 39.03623
790.5884, 38.93895
791.0705, 37.98992
791.5526, 37.34874
792.0347, 37.70075
792.5168, 38.63958
792.9990, 39.86633
793.4811, 41.52726
793.9632, 42.10215
794.4453, 40.05610
794.9274, 38.02412
795.4095, 37.66104
795.8917, 38.34062
796.3738, 39.19018
796.8559, 39.92486
797.3380, 40.42981
797.8201, 40.55447
798.3022, 40.45393
798.7844, 40.48510
799.2665, 40.64533
799.7486, 40.89952
800.2307, 41.31518
800.7128, 41.51162
801.1949, 41.08399
801.6771, 40.25305
802.1592, 39.89262
802.6413, 40.67113
803.1234, 40.76393
803.6055, 39.33706
804.0876, 38.08829
804.5698, 38.02639
805.0519, 38.63541
805.5340, 39.05597
806.0161, 39.07659
806.4982, 39.09885
806.9803, 39.59680
807.4625, 40.14225
807.9446, 39.90644
808.4267, 39.16240
808.9088, 39.07513
809.3909, 39.96280
809.8730, 40.76307
810.3552, 40.33270
810.8373, 38.97283
811.3194, 38.61756
811.8015, 39.66637
812.2836, 40.58783
812.7657, 41.41325
813.2479, 41.76569
813.7300, 40.96629
814.2121, 39.62268
814.6942, 39.09077
815.1763, 39.79096
815.6584, 40.48112
816.1406, 40.86619
816.6227, 40.97955
817.1048, 40.61535
817.5869, 40.05849
818.0690, 39.90425
818.5511, 40.30396
819.0333, 40.75469
819.5154, 40.71352
819.9975, 40.35913
820.4796, 40.19621
820.9617, 40.22420
821.4438, 40.52164
821.9260, 41.23116
822.4081, 41.65582
822.8902, 40.98776
823.3723, 39.49755
823.8544, 38.90928
824.3365, 40.00622
824.8187, 40.76674
825.3008, 41.07922
825.7829, 41.12011
826.2650, 40.89663
826.7471, 40.49506
827.2292, 39.91244
827.7114, 39.10651
828.1935, 38.75826
828.6756, 39.75667
829.1577, 41.01823
829.6398, 41.32520
830.1219, 40.93435
830.6041, 40.57191
831.0862, 40.44999
831.5683, 40.38258
832.0504, 40.16699
832.5325, 39.90300
833.0146, 40.05553
833.4968, 40.70942
833.9789, 41.06425
834.4610, 40.83171
834.9431, 40.64870
835.4252, 41.07553
835.9073, 41.85085
836.3895, 42.16419
836.8716, 41.85368
837.3537, 41.55894
837.8358, 41.10467
838.3179, 40.92413
838.8000, 41.49405
839.2822, 42.33182
839.7643, 42.86930
840.2464, 42.97270
840.7285, 42.71198
841.2106, 41.91182
841.6927, 40.98515
842.1749, 40.42736
842.6570, 40.15113
843.1391, 39.93524
843.6212, 39.73590
844.1033, 39.58183
844.5854, 39.48433
845.0676, 39.48256
845.5497, 39.74525
846.0318, 40.37315
846.5139, 40.64136
846.9960, 40.37691
847.4781, 40.06232
847.9603, 39.84412
848.4424, 39.74652
848.9245, 39.87558
849.4066, 40.25592
849.8887, 40.41344
850.3708, 40.04531
850.8530, 39.75464
851.3351, 39.76587
851.8172, 39.95214
852.2993, 40.32626
852.7814, 40.75877
853.2635, 40.87203
853.7457, 40.40451
854.2278, 39.85196
854.7099, 39.81965
855.1920, 40.05574
855.6741, 40.01919
856.1563, 39.68929
856.6384, 39.16438
857.1205, 38.46258
857.6026, 38.00748
858.0847, 38.54835
858.5668, 40.02015
859.0490, 40.30992
859.5311, 38.99537
860.0132, 37.72338
860.4953, 36.58999
860.9774, 35.98327
861.4595, 36.55860
861.9417, 37.96682
862.4238, 38.91734
862.9059, 39.32258
863.3880, 39.33837
863.8701, 38.46273
864.3522, 37.73659
864.8344, 38.05961
865.3165, 38.89761
865.7986, 39.30475
866.2807, 39.06687
866.7628, 38.75100
867.2449, 38.76528
867.7271, 38.94298
868.2092, 39.14629
868.6913, 39.31960
869.1733, 39.33715
869.6555, 39.16523
870.1376, 38.70684
870.6197, 37.84411
871.1018, 36.84137
871.5839, 36.33326
872.0660, 36.34620
872.5482, 36.64981
873.0303, 37.38359
873.5124, 37.98801
873.9945, 38.21027
874.4766, 38.18269
874.9587, 38.09455
875.4409, 37.95242
875.9230, 37.62422
876.4051, 36.84735
876.8872, 36.23600
877.3693, 36.07732
877.8514, 36.01345
878.3336, 35.64526
878.8157, 35.14082
879.2978, 35.02771
879.7799, 35.55704
880.2620, 36.14956
880.7441, 36.59058
881.2263, 36.73430
881.7084, 36.19391
882.1905, 35.22413
882.6726, 34.47659
883.1547, 34.15502
883.6368, 34.08883
884.1190, 34.12331
884.6011, 34.28308
885.0832, 34.79377
885.5653, 35.64671
886.0474, 35.87402
886.5295, 35.20918
887.0117, 34.51173
887.4938, 34.33915
887.9759, 34.47167
888.4580, 34.41399
888.9401, 34.09797
889.4222, 33.85732
889.9044, 33.79696
890.3865, 33.67534
890.8686, 33.33142
891.3507, 32.98073
891.8328, 32.88722
892.3149, 32.98614
892.7971, 32.86973
893.2792, 32.06382
893.7613, 31.66331
894.2434, 32.79792
894.7255, 33.98574
895.2076, 33.60279
895.6898, 32.20895
896.1719, 31.22676
896.6540, 31.12205
897.1361, 31.40952
897.6182, 31.76332
898.1003, 32.14018
898.5825, 32.58028
899.0646, 32.98553
899.5467, 32.85383
900.0288, 32.10677
900.5109, 31.25810
900.9930, 30.64471
901.4752, 30.31580
901.9573, 30.50998
902.4394, 31.34743
902.9215, 31.74683
903.4036, 31.56124
903.8857, 31.27837
904.3679, 31.02919
904.8500, 30.84356
905.3321, 30.77336
905.8142, 30.81903
906.2963, 30.85772
906.7784, 31.03326
907.2606, 30.99629
907.7427, 30.52000
908.2248, 29.99979
908.7069, 29.47303
909.1890, 29.14939
909.6711, 29.56160
910.1533, 30.90725
910.6354, 31.82137
911.1175, 31.32209
911.5996, 30.43642
912.0817, 29.70620
912.5638, 29.29613
913.0460, 29.65601
913.5281, 30.63320
914.0102, 31.29762
914.4923, 31.03880
914.9744, 30.37951
915.4565, 29.92682
915.9387, 29.70379
916.4208, 30.01294
916.9029, 30.77455
917.3850, 30.82346
917.8671, 29.64547
918.3492, 28.40588
918.8314, 28.55304
919.3135, 29.81247
919.7956, 30.12366
920.2777, 29.23090
920.7598, 28.44657
921.2419, 27.81639
921.7241, 27.62844
922.2062, 28.35321
922.6883, 29.46232
923.1704, 29.76448
923.6525, 28.92237
924.1346, 28.55809
924.6168, 29.26950
925.0989, 29.68346
925.5810, 29.02492
926.0631, 28.25567
926.5452, 28.36883
927.0273, 29.12163
927.5095, 29.49693
927.9916, 29.13218
928.4737, 28.60903
928.9558, 27.85006
929.4379, 27.37794
929.9200, 27.85639
930.4022, 28.88441
930.8843, 29.87447
931.3664, 30.60149
931.8485, 30.83326
932.3306, 30.23873
932.8127, 29.34380
933.2949, 28.88418
933.7770, 28.71139
934.2591, 28.35551
934.7412, 27.83655
935.2233, 27.71831
935.7054, 28.27747
936.1876, 29.01953
936.6697, 29.22502
937.1518, 29.68004
937.6339, 30.10789
938.1160, 30.09963
938.5981, 30.58513
939.0803, 30.50672
939.5624, 30.14710
940.0445, 29.59091
940.5266, 29.02675
941.0087, 29.01982
941.4908, 29.88864
941.9730, 30.15464
942.4551, 29.22650
942.9372, 28.58784
943.4193, 29.02845
943.9014, 29.65495
944.3835, 29.67954
944.8657, 29.21431
945.3478, 28.81574
945.8299, 28.37452
946.3120, 28.32482
946.7941, 29.18011
947.2762, 30.00434
947.7584, 30.35507
948.2405, 30.26367
948.7226, 29.62750
949.2047, 28.54890
949.6868, 27.81600
950.1689, 28.12415
950.6511, 28.49312
951.1332, 27.92176
951.6153, 27.14617
952.0974, 27.28689
952.5795, 28.09318
953.0616, 28.52768
953.5438, 28.20741
954.0259, 27.67671
954.5080, 27.32150
954.9901, 27.23041
955.4722, 27.83186
955.9543, 28.86741
956.4365, 29.26574
956.9186, 28.89004
957.4007, 28.50766
957.8828, 28.59850
958.3649, 28.22915
958.8470, 28.57412
959.3292, 27.84930
959.8113, 27.38867
960.2934, 27.19725
960.7755, 27.23087
961.2576, 27.52602
961.7397, 27.88429
962.2219, 28.18233
962.7040, 28.37677
963.1861, 28.29569
963.6682, 27.83601
964.1503, 27.38360
964.6324, 26.70097
965.1146, 26.45135
965.5967, 27.28243
966.0788, 28.29794
966.5609, 28.53957
967.0430, 28.09455
967.5251, 27.51493
968.0073, 26.22827
968.4894, 25.72894
968.9715, 26.94052
969.4536, 28.12478
969.9357, 28.30759
970.4178, 27.96750
970.9000, 27.79450
971.3821, 27.85317
971.8642, 27.77477
972.3463, 27.10112
972.8284, 26.68793
973.3105, 27.21618
973.7927, 27.95986
974.2748, 28.30373
974.7569, 28.29160
975.2390, 28.11658
975.7211, 27.85001
976.2032, 27.61676
976.6854, 27.49352
977.1675, 27.45626
977.6496, 27.52949
978.1317, 27.64671
978.6138, 27.69056
979.0959, 27.65900
979.5781, 27.58531
980.0602, 27.48677
980.5423, 27.46364
981.0244, 27.67797
981.5065, 28.03379
981.9886, 28.41995
982.4708, 28.75558
982.9529, 28.55846
983.4350, 27.77886
983.9171, 27.06629
984.3992, 26.83503
984.8813, 26.80877
985.3635, 26.41123
985.8456, 25.69857
986.3277, 25.58334
986.8098, 26.11343
987.2919, 26.55992
987.7740, 26.72915
988.2562, 26.83986
988.7383, 27.10003
989.2204, 27.36728
989.7025, 27.20549
990.1846, 26.49853
990.6667, 25.90736
991.1489, 25.29477
991.6310, 25.21103
992.1131, 26.15465
992.5952, 27.18404
993.0773, 27.35715
993.5594, 26.88365
994.0416, 26.73172
994.5237, 27.26424
995.0058, 27.35452
995.4879, 26.42922
995.9700, 25.79152
996.4521, 26.15676
996.9343, 26.74999
997.4164, 26.78399
997.8985, 26.34686
998.3806, 26.05324
998.8627, 26.10128
999.3448, 26.03897
999.8270, 25.70244
1000.309, 25.33688
1000.791, 25.00211
1001.273, 24.75118
1001.755, 24.58851
1002.238, 24.54897
1002.720, 24.82865
1003.202, 25.76193
1003.684, 26.51412
1004.166, 26.60979
1004.648, 26.48770
1005.130, 26.44188
1005.612, 26.44240
1006.094, 26.41226
1006.577, 26.32961
1007.059, 26.16705
1007.541, 25.79391
1008.023, 25.55227
1008.505, 25.90919
1008.987, 26.38787
1009.469, 26.36242
1009.951, 25.99627
1010.433, 25.71260
1010.916, 25.64002
1011.398, 25.73789
1011.880, 26.08584
1012.362, 26.38887
1012.844, 26.19073
1013.326, 25.73821
1013.808, 25.50140
1014.290, 25.45417
1014.773, 25.27627
1015.255, 24.88914
1015.737, 24.69336
1016.219, 25.15592
1016.701, 25.86052
1017.183, 25.99814
1017.665, 25.72034
1018.147, 25.54112
1018.629, 25.47840
1019.112, 25.15530
1019.594, 24.43384
1020.076, 23.92544
1020.558, 24.37287
1021.040, 25.38696
1021.522, 25.83025
1022.004, 25.75998
1022.486, 25.68070
1022.969, 25.64845
1023.451, 25.70715
1023.933, 25.89661
1024.415, 25.94780
1024.897, 25.45317
1025.379, 25.74190
1025.861, 24.65035
1026.343, 25.60119
1026.825, 25.88216
1027.308, 25.22531
1027.790, 24.56925
1028.272, 24.32403
1028.754, 24.37477
1029.236, 24.61595
1029.718, 25.01112
1030.200, 25.28561
1030.682, 25.42575
1031.165, 25.49778
1031.647, 25.48400
1032.129, 25.49756
1032.611, 25.65826
1033.093, 25.73873
1033.575, 25.37373
1034.057, 24.61706
1034.539, 24.25191
1035.021, 24.44392
1035.504, 24.54319
1035.986, 24.30203
1036.468, 24.37664
1036.950, 25.34876
1037.432, 26.46824
1037.914, 26.70327
1038.396, 26.10221
1038.878, 25.69500
1039.360, 25.55400
1039.843, 25.47756
1040.325, 25.69417
1040.807, 25.62666
1041.289, 24.54316
1041.771, 23.41334
1042.253, 23.64210
1042.735, 25.13831
1043.217, 26.01905
1043.700, 26.16854
1044.182, 25.89768
1044.664, 24.52185
1045.146, 23.55085
1045.628, 23.92942
1046.110, 24.81195
1046.592, 25.27196
1047.074, 25.32805
1047.557, 25.37964
1048.039, 25.49921
1048.521, 25.54633
1049.003, 25.32896
1049.485, 25.24676
1049.967, 25.80029
1050.449, 26.35485
1050.931, 26.03745
1051.413, 24.99571
1051.896, 24.33373
1052.378, 24.39300
1052.860, 24.48530
1053.342, 24.49844
1053.824, 24.50120
1054.306, 24.48461
1054.788, 24.50410
1055.270, 24.60282
1055.752, 24.78906
1056.235, 25.10929
1056.717, 25.73096
1057.199, 26.07044
1057.681, 25.86756
1058.163, 25.47360
1058.645, 24.68951
1059.127, 24.08216
1059.609, 24.51975
1060.092, 25.66892
1060.574, 26.19908
1061.056, 25.60377
1061.538, 25.14988
1062.020, 25.39353
1062.502, 25.71617
1062.984, 25.94102
1063.466, 25.97642
1063.948, 25.58157
1064.431, 24.94838
1064.913, 24.62848
1065.395, 24.79854
1065.877, 25.00265
1066.359, 25.11865
1066.841, 25.16109
1067.323, 25.02120
1067.805, 24.90721
1068.287, 25.14189
1068.770, 25.54502
1069.252, 25.59702
1069.734, 25.14637
1070.216, 24.82341
1070.698, 24.89875
1071.180, 25.15231
1071.662, 25.66408
1072.144, 26.13228
1072.627, 26.30485
1073.109, 26.21193
1073.591, 25.90722
1074.073, 25.41179
1074.555, 24.99201
1075.037, 24.88313
1075.519, 24.71747
1076.001, 23.96998
1076.484, 23.40654
1076.966, 24.09132
1077.448, 25.26386
1077.930, 25.37010
1078.412, 24.26893
1078.894, 23.62827
1079.376, 24.58321
1079.858, 25.41602
1080.340, 25.28017
1080.823, 24.72344
1081.305, 23.74250
1081.787, 22.86698
1082.269, 23.05453
1082.751, 24.18677
1083.233, 24.81554
1083.715, 24.07717
1084.197, 23.54078
1084.679, 24.25646
1085.161, 25.08667
1085.644, 25.21414
1086.126, 24.99548
1086.608, 24.93784
1087.090, 25.03295
1087.572, 24.89829
1088.054, 24.25508
1088.536, 24.01218
1089.018, 24.99038
1089.501, 25.98169
1089.983, 26.44784
1090.465, 26.40563
1090.947, 25.55703
1091.429, 24.30235
1091.911, 23.67845
1092.393, 24.00176
1092.875, 24.40156
1093.358, 24.76472
1093.840, 24.84512
1094.322, 24.25603
1094.804, 23.57294
1095.286, 23.12420
1095.768, 23.04323
1096.250, 23.64991
1096.732, 24.99495
1097.214, 26.02542
1097.697, 26.23610
1098.179, 26.28926
1098.661, 26.64423
1099.143, 26.70297
1099.625, 25.59281
1100.107, 24.14587
1100.589, 23.71954
1101.071, 24.35253
1101.553, 24.85823
1102.036, 24.89649
1102.518, 24.84890
1103.000, 24.72195
1103.482, 24.64153
1103.964, 24.80755
1104.446, 24.96096
1104.928, 24.63002
1105.410, 23.98758
1105.893, 23.94355
1106.375, 25.04544
1106.857, 25.60887
1107.339, 24.68475
1107.821, 23.99586
1108.303, 24.39250
1108.785, 25.09848
1109.267, 25.58356
1109.750, 25.81829
1110.232, 25.73045
1110.714, 25.18338
1111.196, 25.03848
1111.678, 26.10175
1112.160, 26.55104
1112.642, 25.25723
1113.124, 24.03251
1113.606, 24.10277
1114.089, 24.88149
1114.571, 25.50251
1115.053, 25.95362
1115.535, 26.08503
1116.017, 25.64585
1116.499, 25.29936
1116.981, 25.16652
1117.463, 25.01192
1117.945, 24.65614
1118.428, 24.30786
1118.910, 24.12507
1119.392, 24.14401
1119.874, 24.61520
1120.356, 25.91744
1120.838, 26.69135
1121.320, 26.79276
1121.802, 26.62615
1122.285, 26.17595
1122.767, 25.68316
1123.249, 25.22950
1123.731, 24.96390
1124.213, 25.36561
1124.695, 26.59669
1125.177, 26.93252
1125.659, 26.08039
1126.141, 25.21765
1126.624, 24.36677
1127.106, 24.10707
1127.588, 24.89216
1128.070, 26.17025
1128.552, 27.22307
1129.034, 28.02163
1129.516, 28.21684
1129.998, 27.71288
1130.480, 27.43516
1130.963, 27.49584
1131.445, 27.51187
1131.927, 27.30227
1132.409, 27.23825
1132.891, 27.71222
1133.373, 28.50239
1133.855, 29.03857
1134.337, 29.32398
1134.820, 29.39051
1135.302, 29.24388
1135.784, 29.13202
1136.266, 29.11166
1136.748, 28.96078
1137.230, 28.52206
1137.712, 28.04390
1138.194, 27.85744
1138.677, 27.95422
1139.159, 28.53517
1139.641, 29.39254
1140.123, 29.40994
1140.605, 28.60028
1141.087, 28.10109
1141.569, 28.33335
1142.051, 28.48358
1142.533, 27.69195
1143.016, 26.65319
1143.498, 26.62274
1143.980, 27.12595
1144.462, 27.20016
1144.944, 26.88342
1145.426, 26.45536
1145.908, 26.00425
1146.390, 25.48445
1146.872, 24.82373
1147.355, 24.47776
1147.837, 25.23512
1148.319, 26.23245
1148.801, 26.44025
1149.283, 26.20041
1149.765, 26.04807
1150.247, 25.99235
1150.729, 25.79576
1151.212, 25.39260
1151.694, 25.01839
1152.176, 24.72107
1152.658, 24.62055
1153.140, 24.94851
1153.622, 25.35797
1154.104, 25.66384
1154.586, 25.76341
1155.068, 25.38111
1155.551, 24.63759
1156.033, 24.27062
1156.515, 24.69575
1156.997, 24.93590
1157.479, 24.35703
1157.961, 23.91727
1158.443, 24.09680
1158.925, 24.57596
1159.407, 25.23784
1159.890, 25.91996
1160.372, 26.34573
1160.854, 26.51059
1161.336, 26.27294
1161.818, 25.14625
1162.300, 24.34191
1162.782, 23.92551
1163.264, 23.96596
1163.747, 24.94998
1164.229, 25.96123
1164.711, 25.75428
1165.193, 24.64369
1165.675, 24.42554
1166.157, 25.53836
1166.639, 26.10743
1167.121, 25.98525
1167.604, 25.72329
1168.086, 25.36359
1168.568, 25.20674
1169.050, 25.53087
1169.532, 26.00561
1170.014, 26.03985
1170.496, 25.67724
1170.978, 25.33686
1171.460, 25.01584
1171.943, 24.95462
1172.425, 25.18486
1172.907, 25.34760
1173.389, 25.30044
1173.871, 25.28246
1174.353, 25.55061
1174.835, 25.83914
1175.317, 25.42193
1175.799, 25.51988
1176.282, 25.42251
1176.764, 25.11792
1177.246, 25.29981
1177.728, 25.04183
1178.210, 25.13914
1178.692, 25.96262
1179.174, 26.64233
1179.656, 26.04483
1180.139, 25.16869
1180.621, 25.36944
1181.103, 26.05019
1181.585, 26.43583
1182.067, 26.52840
1182.549, 26.55696
1183.031, 26.54363
1183.513, 26.24898
1183.995, 25.40518
1184.478, 24.82832
1184.960, 25.34369
1185.442, 25.87528
1185.924, 25.46698
1186.406, 24.91424
1186.888, 25.17279
1187.370, 25.93166
1187.852, 26.39365
1188.334, 26.43516
1188.817, 26.22971
1189.299, 25.36780
1189.781, 24.93951
1190.263, 25.83561
1190.745, 26.34774
1191.227, 25.02318
1191.709, 23.54703
1192.191, 23.64962
1192.674, 24.89254
1193.156, 25.74413
1193.638, 26.08770
1194.120, 26.72865
1194.602, 28.04919
1195.084, 28.32760
1195.566, 26.94561
1196.048, 25.54947
1196.531, 24.94883
1197.013, 24.98395
1197.495, 25.56291
1197.977, 26.46509
1198.459, 26.85987
1198.941, 26.76565
1199.423, 26.32058
1199.905, 25.60154
1200.387, 25.41710
1200.870, 25.93570
1201.352, 26.60285
1201.834, 27.09732
1202.316, 27.24099
1202.798, 26.41536
1203.280, 25.42701
1203.762, 26.17671
1204.244, 27.62438
1204.726, 27.61805
1205.209, 26.48791
1205.691, 25.70375
1206.173, 25.61129
1206.655, 25.61973
1207.137, 25.40729
1207.619, 25.27649
1208.101, 25.65384
1208.583, 25.93769
1209.066, 25.41440
1209.548, 24.78764
1210.030, 24.80649
1210.512, 25.35463
1210.994, 26.17019
1211.476, 27.20557
1211.958, 27.74592
1212.440, 27.24090
1212.922, 26.86921
1213.405, 27.09519
1213.887, 27.07651
1214.369, 26.18273
1214.851, 25.27884
1215.333, 25.12226
1215.815, 25.49388
1216.297, 25.86353
1216.779, 26.23696
1217.261, 26.58617
1217.744, 26.97348
1218.226, 26.94915
1218.708, 26.39850
1219.190, 25.79577
1219.672, 25.31269
1220.154, 25.14370
1220.636, 25.53350
1221.118, 26.16905
1221.600, 26.39086
1222.083, 26.27773
1222.565, 26.07555
1223.047, 25.81616
1223.529, 25.56759
1224.011, 25.35417
1224.493, 25.22489
1224.975, 25.19622
1225.457, 25.21855
1225.940, 25.28032
1226.422, 25.32493
1226.904, 25.19940
1227.386, 25.12164
1227.868, 25.28344
1228.350, 25.66834
1228.832, 26.49984
1229.314, 27.48570
1229.797, 27.67694
1230.279, 26.75275
1230.761, 26.02141
1231.243, 26.15322
1231.725, 26.07282
1232.207, 25.08949
1232.689, 24.32098
1233.171, 24.42925
1233.653, 24.98578
1234.135, 25.79368
1234.618, 26.62540
1235.100, 26.58389
1235.582, 26.75430
1236.064, 26.79398
1236.546, 26.09308
1237.028, 26.39970
1237.510, 25.67688
1237.992, 25.28495
1238.475, 25.88592
1238.957, 26.67048
1239.439, 26.82158
1239.921, 26.53518
1240.403, 26.01427
1240.885, 25.46685
1241.367, 25.77926
1241.849, 25.38371
1242.332, 26.51343
1242.814, 25.66324
1243.296, 25.50107
1243.778, 26.51816
1244.260, 27.42236
1244.742, 27.25604
1245.224, 26.78711
1245.706, 26.49142
1246.188, 26.24437
1246.671, 25.84803
1247.153, 25.50435
1247.635, 25.50354
1248.117, 25.77128
1248.599, 26.10398
1249.081, 26.52103
1249.563, 26.56689
1250.045, 25.72812
1250.527, 25.28830
1251.010, 25.72630
1251.492, 25.90594
1251.974, 25.28276
1252.456, 24.44773
1252.938, 23.82970
1253.420, 23.51192
1253.902, 23.74944
1254.384, 24.49766
1254.867, 25.21398
1255.349, 25.86200
1255.831, 25.38652
1256.313, 23.85242
1256.795, 23.36863
1257.277, 24.55329
1257.759, 25.78453
1258.241, 25.90398
1258.724, 25.56492
1259.206, 25.50716
1259.688, 25.47848
1260.170, 25.10176
1260.652, 24.58189
1261.134, 24.07361
1261.616, 23.73135
1262.098, 23.94628
1262.580, 24.66908
1263.063, 25.04862
1263.545, 24.60611
1264.027, 24.35510
1264.509, 24.77435
1264.991, 25.12904
1265.473, 25.33353
1265.955, 25.19280
1266.437, 24.34747
1266.919, 23.33711
1267.402, 22.88766
1267.884, 22.95522
1268.366, 23.35857
1268.848, 24.17411
1269.330, 24.57923
1269.812, 24.54774
1270.294, 24.23563
1270.776, 23.68849
1271.259, 23.45816
1271.741, 23.82184
1272.223, 24.20865
1272.705, 23.97927
1273.187, 23.56369
1273.669, 23.54512
1274.151, 23.82153
1274.633, 24.50414
1275.115, 25.21487
1275.598, 25.17032
1276.080, 24.55789
1276.562, 24.25793
1277.044, 24.49952
1277.526, 24.52444
1278.008, 23.82908
1278.490, 23.22706
1278.972, 22.68170
1279.454, 22.57716
1279.937, 23.84814
1280.419, 24.78856
1280.901, 23.65764
1281.383, 21.77604
1281.865, 21.81799
1282.347, 23.61059
1282.829, 24.47899
1283.311, 24.36296
1283.794, 24.39045
1284.276, 24.63682
1284.758, 24.99972
1285.240, 25.42546
1285.722, 25.58546
1286.204, 25.29134
##END=



