##NAMES=Grunerite
##RRUFFID=R060062
##IDEAL CHEMISTRY=[box]Fe^2+^_2_Fe^2+^_5_Si_8_O_22_(OH)_2_
##LOCALITY=2C mine, Broken Hill, New South Wales, Australia
##OWNER=RRUFF
##SOURCE=University of Arizona Mineral Museum
##DESCRIPTION=Aggregate of greenish-brown colored parallel acicular crystals
##STATUS=The identification of this mineral has been confirmed by X-ray diffraction and chemical analysis
##URL=rruff.info/R060062
##MEASURED CHEMISTRY=[box](Fe^2+^_4.32_Mg_1.90_Mn_0.54_Ca_0.22_)_Σ=7_(Si_7.98_Al_0.02_)_Σ=8_O_22_(OH)_2_
135.0798, 60.19017
135.5619, 60.56083
136.0440, 61.07946
136.5262, 61.74120
137.0083, 62.59132
137.4904, 64.00669
137.9725, 65.41354
138.4546, 66.37309
138.9367, 66.74223
139.4189, 66.80498
139.9010, 67.08027
140.3831, 67.64684
140.8652, 68.31084
141.3473, 69.08523
141.8294, 69.90402
142.3116, 70.70687
142.7937, 71.46947
143.2758, 72.18590
143.7579, 72.85250
144.2400, 73.22897
144.7221, 73.81319
145.2043, 74.83684
145.6864, 76.10976
146.1685, 77.27731
146.6506, 78.09215
147.1327, 78.59569
147.6148, 79.43626
148.0969, 80.80367
148.5791, 82.23976
149.0612, 83.55255
149.5433, 84.75143
150.0254, 85.96228
150.5075, 87.29051
150.9896, 88.72398
151.4718, 90.06258
151.9539, 91.12032
152.4360, 92.19272
152.9181, 93.63883
153.4002, 95.51800
153.8823, 97.42505
154.3645, 99.06389
154.8466, 100.4876
155.3287, 101.6871
155.8108, 102.6463
156.2929, 103.3835
156.7750, 103.9601
157.2572, 104.4231
157.7393, 104.6093
158.2214, 104.5468
158.7035, 104.1993
159.1856, 103.4592
159.6677, 102.1776
160.1499, 100.3814
160.6320, 98.45379
161.1141, 96.03969
161.5962, 93.86348
162.0783, 92.31757
162.5604, 91.28119
163.0426, 90.36784
163.5247, 89.13434
164.0068, 87.41701
164.4889, 86.27742
164.9710, 85.82554
165.4531, 85.79845
165.9353, 86.25565
166.4174, 87.10631
166.8995, 88.08727
167.3816, 88.87123
167.8637, 89.37476
168.3458, 89.88745
168.8279, 90.27003
169.3101, 90.74591
169.7922, 91.44892
170.2743, 92.41476
170.7564, 93.62453
171.2385, 95.09715
171.7206, 96.97475
172.2028, 98.79296
172.6849, 100.5889
173.1670, 102.2925
173.6491, 103.7694
174.1312, 104.9619
174.6133, 106.0587
175.0955, 107.4220
175.5776, 109.1051
176.0597, 110.6886
176.5418, 111.9108
177.0239, 112.9470
177.5060, 114.2529
177.9882, 116.0732
178.4703, 118.0495
178.9524, 119.6822
179.4345, 120.9461
179.9166, 122.1912
180.3987, 123.8928
180.8809, 125.9296
181.3630, 127.2002
181.8451, 127.0249
182.3272, 126.2340
182.8093, 125.5738
183.2914, 125.1061
183.7736, 124.6292
184.2557, 124.0117
184.7378, 123.2752
185.2199, 122.2353
185.7020, 120.4356
186.1841, 118.5629
186.6663, 117.1313
187.1484, 116.2301
187.6305, 115.3707
188.1126, 113.7928
188.5947, 111.1763
189.0768, 108.7052
189.5589, 106.5510
190.0411, 104.5566
190.5232, 102.5921
191.0053, 100.6233
191.4874, 98.70893
191.9695, 96.95156
192.4516, 95.49446
192.9338, 93.98352
193.4159, 92.23784
193.8980, 90.50592
194.3801, 89.01751
194.8622, 87.84880
195.3443, 86.90401
195.8265, 85.95751
196.3086, 85.00981
196.7907, 84.05226
197.2728, 82.96832
197.7549, 81.91447
198.2370, 81.10921
198.7192, 80.65144
199.2013, 80.39679
199.6834, 79.95668
200.1655, 79.15154
200.6476, 78.42987
201.1297, 77.91798
201.6119, 77.52715
202.0940, 77.12903
202.5761, 76.67548
203.0582, 76.17337
203.5403, 75.63916
204.0224, 75.08265
204.5046, 74.48904
204.9867, 73.78742
205.4688, 73.03956
205.9509, 72.41399
206.4330, 72.01118
206.9151, 71.74134
207.3973, 71.41907
207.8794, 71.03328
208.3615, 70.63517
208.8436, 70.28094
209.3257, 69.95421
209.8078, 69.56326
210.2899, 69.12600
210.7721, 68.54595
211.2542, 67.66851
211.7363, 66.40163
212.2184, 65.18871
212.7005, 64.44247
213.1826, 64.16384
213.6648, 63.91216
214.1469, 63.62009
214.6290, 63.24775
215.1111, 62.72845
215.5932, 62.04033
216.0753, 61.33507
216.5575, 60.77217
217.0396, 60.37160
217.5217, 59.99514
218.0038, 59.71110
218.4859, 59.37620
218.9680, 58.84136
219.4502, 58.08370
219.9323, 57.30878
220.4144, 56.79659
220.8965, 56.62931
221.3786, 56.45430
221.8607, 56.27521
222.3429, 56.04126
222.8250, 55.67538
223.3071, 55.17362
223.7892, 54.65557
224.2713, 54.31948
224.7534, 54.28981
225.2356, 54.14822
225.7177, 53.74253
226.1998, 53.32392
226.6819, 53.10319
227.1640, 53.11079
227.6461, 53.17565
228.1283, 53.02606
228.6104, 52.52512
229.0925, 52.05602
229.5746, 51.64250
230.0567, 51.24003
230.5388, 50.74077
231.0210, 50.15197
231.5031, 49.66158
231.9852, 49.58421
232.4673, 50.35201
232.9494, 50.66169
233.4315, 50.18793
233.9137, 49.50727
234.3958, 49.01049
234.8779, 48.80173
235.3600, 48.80947
235.8421, 48.95910
236.3242, 49.39757
236.8064, 49.61285
237.2885, 49.47893
237.7706, 49.20393
238.2527, 48.93536
238.7348, 48.70919
239.2169, 48.53175
239.6991, 48.41701
240.1812, 48.38234
240.6633, 48.36057
241.1454, 48.33784
241.6275, 48.33375
242.1096, 48.40405
242.5918, 48.55611
243.0739, 48.66252
243.5560, 48.51731
244.0381, 48.08193
244.5202, 47.88140
245.0023, 48.26298
245.4845, 48.74769
245.9666, 48.72061
246.4487, 48.07040
246.9308, 47.42103
247.4129, 47.50718
247.8950, 48.23625
248.3772, 48.68763
248.8593, 48.60647
249.3414, 48.23257
249.8235, 47.74972
250.3056, 47.14543
250.7877, 46.67333
251.2698, 46.64776
251.7520, 46.94777
252.2341, 47.21084
252.7162, 47.38927
253.1983, 47.48059
253.6804, 47.45669
254.1625, 47.30183
254.6447, 47.12053
255.1268, 46.99439
255.6089, 46.88985
256.0910, 46.74267
256.5731, 46.51057
257.0552, 46.24623
257.5374, 46.03484
258.0195, 45.89431
258.5016, 45.71629
258.9837, 45.31831
259.4658, 44.87945
259.9479, 44.62451
260.4301, 44.63772
260.9122, 44.82274
261.3943, 45.11805
261.8764, 45.57932
262.3585, 45.89240
262.8406, 45.77145
263.3228, 45.49143
263.8049, 45.27869
264.2870, 45.19186
264.7691, 45.18474
265.2512, 45.22159
265.7333, 45.32175
266.2155, 45.37144
266.6976, 45.27803
267.1797, 45.14942
267.6618, 45.02076
268.1439, 44.89403
268.6260, 44.88005
269.1082, 45.20091
269.5903, 45.96054
270.0724, 46.51667
270.5545, 46.59964
271.0366, 46.51514
271.5187, 46.36081
272.0009, 46.17180
272.4830, 46.06578
272.9651, 46.21937
273.4472, 46.69190
273.9293, 47.08549
274.4114, 47.31220
274.8936, 47.48070
275.3757, 47.63155
275.8578, 47.76999
276.3399, 47.88931
276.8220, 47.97726
277.3041, 48.02874
277.7863, 48.08408
278.2684, 48.16436
278.7505, 48.23099
279.2326, 48.23521
279.7147, 48.20369
280.1968, 48.22112
280.6789, 48.39047
281.1610, 48.72084
281.6432, 48.91690
282.1253, 48.77833
282.6074, 48.69306
283.0895, 48.77303
283.5716, 48.99847
284.0537, 49.32814
284.5359, 49.77269
285.0180, 50.30257
285.5001, 50.57061
285.9822, 50.34007
286.4643, 50.08976
286.9464, 49.89115
287.4286, 49.75285
287.9107, 49.67471
288.3928, 49.65635
288.8749, 49.69633
289.3570, 49.79563
289.8391, 50.06736
290.3213, 50.24627
290.8034, 50.28199
291.2855, 50.21321
291.7676, 50.04357
292.2497, 49.77232
292.7318, 49.48967
293.2140, 49.45186
293.6961, 49.96812
294.1782, 50.23972
294.6603, 50.03655
295.1424, 49.67432
295.6245, 49.43023
296.1067, 49.39113
296.5888, 49.45460
297.0709, 49.46617
297.5530, 49.51803
298.0351, 49.31304
298.5172, 48.43447
298.9994, 47.63223
299.4815, 47.54377
299.9636, 48.20486
300.4457, 49.04937
300.9278, 49.35493
301.4099, 48.90314
301.8921, 48.61063
302.3742, 48.55340
302.8563, 48.55729
303.3384, 48.52430
303.8205, 48.46185
304.3026, 48.45408
304.7848, 48.60401
305.2669, 48.94911
305.7490, 49.06120
306.2311, 48.66599
306.7132, 48.32803
307.1953, 48.25747
307.6775, 48.39771
308.1596, 48.59830
308.6417, 48.75853
309.1238, 48.88188
309.6059, 49.00524
310.0880, 49.19364
310.5702, 49.30852
311.0523, 49.36538
311.5344, 49.32262
312.0165, 49.07866
312.4986, 48.57093
312.9807, 47.92564
313.4629, 47.53434
313.9450, 47.56747
314.4271, 47.66953
314.9092, 47.89729
315.3913, 48.14192
315.8734, 48.30406
316.3556, 48.34885
316.8377, 48.30110
317.3198, 48.18661
317.8019, 47.85008
318.2840, 47.74505
318.7661, 48.07043
319.2483, 48.45482
319.7304, 48.67266
320.2125, 48.67303
320.6946, 48.49572
321.1767, 48.16056
321.6588, 47.58829
322.1409, 47.16902
322.6230, 46.84014
323.1052, 46.68797
323.5873, 46.88237
324.0694, 47.31808
324.5515, 47.69682
325.0336, 47.76731
325.5157, 47.52956
325.9979, 47.31981
326.4800, 47.10619
326.9621, 46.95644
327.4442, 46.89223
327.9263, 46.90526
328.4084, 46.96771
328.8906, 47.05830
329.3727, 47.20639
329.8548, 47.53745
330.3369, 48.22007
330.8190, 48.88394
331.3011, 49.62643
331.7833, 50.27253
332.2654, 50.56631
332.7475, 50.42961
333.2296, 50.13576
333.7117, 50.20870
334.1938, 50.85558
334.6760, 51.49382
335.1581, 52.17047
335.6402, 52.78947
336.1223, 53.26509
336.6044, 53.60010
337.0865, 53.87549
337.5687, 54.16063
338.0508, 54.41271
338.5329, 54.88078
339.0150, 55.86115
339.4971, 56.76772
339.9792, 57.33529
340.4614, 57.62221
340.9435, 57.83900
341.4256, 58.14013
341.9077, 58.51674
342.3898, 58.85163
342.8719, 58.97518
343.3541, 59.26677
343.8362, 59.97893
344.3183, 60.85480
344.8004, 61.52950
345.2825, 61.81597
345.7646, 61.86797
346.2468, 62.11484
346.7289, 62.81911
347.2110, 63.20997
347.6931, 62.94906
348.1752, 62.53711
348.6573, 62.41577
349.1395, 62.67941
349.6216, 63.04473
350.1037, 63.14318
350.5858, 62.93105
351.0679, 62.61883
351.5500, 62.08955
352.0322, 61.56895
352.5143, 61.10749
352.9964, 60.73946
353.4785, 60.53187
353.9606, 60.63384
354.4427, 61.01570
354.9249, 61.04041
355.4070, 60.44772
355.8891, 59.80882
356.3712, 59.22659
356.8533, 58.75121
357.3354, 58.47396
357.8176, 58.48286
358.2997, 58.64120
358.7818, 58.59871
359.2639, 58.26215
359.7460, 57.95342
360.2281, 57.77312
360.7103, 57.65236
361.1924, 57.55710
361.6745, 57.48017
362.1566, 57.36320
362.6387, 57.13464
363.1208, 56.78817
363.6029, 56.39172
364.0851, 55.95340
364.5672, 55.46033
365.0493, 54.81477
365.5314, 54.06852
366.0135, 53.48141
366.4956, 53.45871
366.9778, 53.80717
367.4599, 53.56233
367.9420, 52.40825
368.4241, 51.19994
368.9062, 50.39909
369.3883, 49.88656
369.8705, 49.49215
370.3526, 49.25940
370.8347, 49.00699
371.3168, 48.41434
371.7989, 47.43724
372.2810, 46.46824
372.7632, 45.55582
373.2453, 44.81300
373.7274, 44.43072
374.2095, 44.50019
374.6916, 44.60331
375.1737, 44.39382
375.6559, 43.93710
376.1380, 43.56421
376.6201, 43.38474
377.1022, 43.25028
377.5843, 42.92896
378.0664, 42.45295
378.5486, 42.16647
379.0307, 42.34544
379.5128, 42.73107
379.9949, 42.92370
380.4770, 42.87615
380.9591, 42.80126
381.4413, 42.84285
381.9234, 42.98401
382.4055, 43.14519
382.8876, 43.40229
383.3697, 43.60203
383.8518, 43.53978
384.3340, 43.30221
384.8161, 43.27666
385.2982, 43.70541
385.7803, 44.32898
386.2624, 44.51523
386.7445, 44.11550
387.2267, 43.83529
387.7088, 43.87691
388.1909, 44.13794
388.6730, 44.53114
389.1551, 45.03917
389.6372, 45.54548
390.1194, 45.93130
390.6015, 46.17837
391.0836, 46.35139
391.5657, 46.27038
392.0478, 46.27130
392.5299, 46.72735
393.0121, 47.48492
393.4942, 47.95882
393.9763, 47.72117
394.4584, 46.96939
394.9405, 46.76465
395.4226, 47.75504
395.9048, 48.44810
396.3869, 48.45251
396.8690, 48.10662
397.3511, 47.78460
397.8332, 47.61439
398.3153, 47.55154
398.7975, 47.54293
399.2796, 47.65437
399.7617, 47.64209
400.2438, 47.29934
400.7259, 47.02933
401.2080, 47.26507
401.6902, 47.82967
402.1723, 48.07727
402.6544, 47.42057
403.1365, 45.97071
403.6186, 45.12129
404.1007, 45.51147
404.5828, 45.77314
405.0649, 45.65554
405.5471, 45.28294
406.0292, 44.75784
406.5113, 44.12157
406.9934, 43.50310
407.4755, 43.14869
407.9576, 43.17326
408.4398, 43.11588
408.9219, 42.83934
409.4040, 42.54464
409.8861, 42.38158
410.3682, 42.32222
410.8503, 42.19257
411.3325, 41.78175
411.8146, 41.14808
412.2967, 40.77949
412.7788, 40.86277
413.2609, 40.89127
413.7430, 40.60540
414.2252, 40.14909
414.7073, 39.71827
415.1894, 39.38388
415.6715, 39.08302
416.1536, 38.71505
416.6357, 38.27380
417.1179, 37.88874
417.6000, 37.58311
418.0821, 37.36673
418.5642, 37.26945
419.0463, 37.28994
419.5284, 37.27963
420.0106, 37.13654
420.4927, 36.90985
420.9748, 36.70771
421.4569, 36.54352
421.9390, 36.38581
422.4211, 36.21027
422.9033, 36.02172
423.3854, 35.83736
423.8675, 35.72493
424.3496, 35.55456
424.8317, 35.18685
425.3138, 34.67422
425.7960, 34.22797
426.2781, 33.96645
426.7602, 33.75167
427.2423, 33.27513
427.7244, 32.44179
428.2065, 31.72293
428.6887, 31.29319
429.1708, 30.96414
429.6529, 30.51266
430.1350, 29.92880
430.6171, 29.39582
431.0992, 29.07484
431.5814, 28.96992
432.0635, 28.90300
432.5456, 28.95143
433.0277, 28.94430
433.5098, 28.81418
433.9919, 28.59554
434.4741, 28.32701
434.9562, 28.02410
435.4383, 27.72694
435.9204, 27.51546
436.4025, 27.41550
436.8846, 27.35747
437.3668, 27.39338
437.8489, 27.42210
438.3310, 27.36230
438.8131, 27.22972
439.2952, 27.10978
439.7773, 27.08136
440.2595, 27.13063
440.7416, 27.11392
441.2237, 26.97054
441.7058, 26.84865
442.1879, 26.83876
442.6700, 26.84575
443.1522, 26.73430
443.6343, 26.45591
444.1164, 26.16220
444.5985, 26.07697
445.0806, 26.22202
445.5627, 26.29211
446.0448, 26.18870
446.5269, 26.05860
447.0091, 26.01142
447.4912, 26.02552
447.9733, 26.01003
448.4554, 25.86584
448.9375, 25.68481
449.4196, 25.67419
449.9018, 25.86248
450.3839, 25.96897
450.8660, 25.76518
451.3481, 25.44374
451.8302, 25.37018
452.3123, 25.65546
452.7945, 25.89209
453.2766, 25.75769
453.7587, 25.44224
454.2408, 25.35149
454.7229, 25.58563
455.2050, 25.92819
455.6872, 26.18993
456.1693, 26.36249
456.6514, 26.43265
457.1335, 26.37440
457.6156, 26.23857
458.0977, 25.96266
458.5799, 25.62935
459.0620, 25.46166
459.5441, 25.57940
460.0262, 25.86011
460.5083, 26.00872
460.9904, 26.01417
461.4726, 25.88128
461.9547, 25.48315
462.4368, 25.04346
462.9189, 24.66912
463.4010, 24.40547
463.8831, 24.32428
464.3653, 24.51933
464.8474, 24.96596
465.3295, 25.26287
465.8116, 25.36503
466.2937, 25.35855
466.7758, 25.22752
467.2580, 25.01966
467.7401, 24.72869
468.2222, 24.36137
468.7043, 24.07626
469.1864, 24.12001
469.6685, 24.51803
470.1507, 24.91320
470.6328, 25.37140
471.1149, 25.69760
471.5970, 25.75228
472.0791, 25.60124
472.5612, 25.41058
473.0434, 25.19609
473.5255, 25.03215
474.0076, 25.07581
474.4897, 25.33389
474.9718, 25.53761
475.4539, 25.56816
475.9361, 25.50499
476.4182, 25.45864
476.9003, 25.42465
477.3824, 25.43432
477.8645, 25.49659
478.3466, 25.61082
478.8288, 25.80204
479.3109, 26.06923
479.7930, 26.32173
480.2751, 26.50715
480.7572, 26.61836
481.2393, 26.61863
481.7215, 26.32963
482.2036, 26.15760
482.6857, 26.32334
483.1678, 26.63096
483.6499, 26.82787
484.1320, 26.83843
484.6142, 26.72557
485.0963, 26.53371
485.5784, 26.17610
486.0605, 26.16117
486.5426, 26.91471
487.0247, 27.53795
487.5068, 27.61911
487.9890, 27.34969
488.4711, 27.06588
488.9532, 26.92646
489.4353, 26.93357
489.9174, 27.14785
490.3995, 27.67617
490.8817, 28.03824
491.3638, 27.99922
491.8459, 27.89672
492.3280, 27.89483
492.8101, 27.99558
493.2922, 28.13710
493.7744, 28.32979
494.2565, 28.52144
494.7386, 28.57210
495.2207, 28.45775
495.7028, 28.35598
496.1849, 28.36321
496.6671, 28.42034
497.1492, 28.40999
497.6313, 28.29081
498.1134, 28.26499
498.5955, 28.46382
499.0776, 28.80333
499.5598, 29.22640
500.0419, 29.72207
500.5240, 30.03578
501.0061, 29.89735
501.4882, 29.35224
501.9703, 29.04287
502.4525, 29.03923
502.9346, 29.15952
503.4167, 29.42950
503.8988, 29.76079
504.3809, 30.04701
504.8630, 30.25453
505.3452, 30.39772
505.8273, 30.48623
506.3094, 30.50037
506.7915, 30.56267
507.2736, 30.65928
507.7557, 30.81873
508.2379, 31.13584
508.7200, 31.50247
509.2021, 31.75490
509.6842, 31.82122
510.1663, 31.74804
510.6484, 31.57311
511.1306, 31.26796
511.6127, 31.06955
512.0948, 31.11795
512.5769, 31.17284
513.0590, 31.03330
513.5411, 30.75736
514.0233, 30.55734
514.5054, 30.51374
514.9875, 30.60671
515.4696, 30.90895
515.9517, 31.40052
516.4338, 31.67867
516.9160, 31.49940
517.3981, 31.12636
517.8802, 31.00866
518.3623, 31.16690
518.8444, 31.36381
519.3265, 31.59931
519.8087, 31.81490
520.2908, 31.95066
520.7729, 32.01121
521.2550, 32.03809
521.7371, 32.05091
522.2192, 32.06276
522.7014, 32.12677
523.1835, 32.36354
523.6656, 32.48957
524.1477, 32.40705
524.6298, 32.27485
525.1119, 32.20030
525.5941, 32.20189
526.0762, 32.27110
526.5583, 32.44347
527.0404, 32.67251
527.5225, 32.62087
528.0046, 32.15475
528.4868, 31.66527
528.9689, 31.14716
529.4510, 30.73289
529.9331, 30.63453
530.4152, 30.88268
530.8973, 31.08435
531.3795, 30.85191
531.8616, 30.33908
532.3437, 30.02560
532.8258, 29.98500
533.3079, 29.95334
533.7900, 29.76480
534.2722, 29.45029
534.7543, 29.12465
535.2364, 28.75556
535.7185, 28.43156
536.2006, 28.28497
536.6827, 28.16877
537.1649, 27.77105
537.6470, 27.05870
538.1291, 26.45765
538.6112, 26.40796
539.0933, 26.91843
539.5754, 27.24028
540.0576, 27.35237
540.5397, 27.31066
541.0218, 27.02097
541.5039, 26.63319
541.9860, 26.28972
542.4681, 26.03803
542.9503, 25.88110
543.4324, 25.86782
543.9145, 26.00840
544.3966, 25.98736
544.8787, 25.65206
545.3608, 25.38821
545.8430, 25.45569
546.3251, 25.64890
546.8072, 25.66105
547.2892, 25.37287
547.7714, 25.07535
548.2535, 25.03474
548.7356, 25.19262
549.2177, 25.37561
549.6998, 25.57484
550.1819, 25.69755
550.6641, 25.62992
551.1462, 25.39621
551.6283, 25.24559
552.1104, 25.31716
552.5925, 25.31652
553.0746, 25.02192
553.5568, 24.61704
554.0389, 24.38043
554.5210, 24.38110
555.0031, 24.50086
555.4852, 24.61465
555.9673, 24.72489
556.4495, 24.79964
556.9316, 24.79199
557.4137, 24.80121
557.8958, 24.83284
558.3779, 24.90077
558.8600, 25.05931
559.3422, 25.31603
559.8243, 25.52643
560.3064, 25.51344
560.7885, 25.28788
561.2706, 24.98864
561.7527, 24.53408
562.2349, 24.18593
562.7170, 24.28798
563.1991, 24.55941
563.6812, 24.51324
564.1633, 23.90935
564.6454, 23.35953
565.1276, 23.30505
565.6097, 23.55764
566.0918, 23.80596
566.5739, 23.99080
567.0560, 24.01162
567.5381, 23.71980
568.0203, 23.14089
568.5024, 22.87750
568.9845, 23.26431
569.4666, 23.49940
569.9487, 23.23906
570.4308, 22.83802
570.9130, 22.74574
571.3951, 23.00845
571.8772, 23.25736
572.3593, 23.08051
572.8414, 22.51773
573.3235, 22.21977
573.8057, 22.31660
574.2878, 22.45167
574.7699, 22.54043
575.2520, 22.59277
575.7341, 22.60924
576.2162, 22.59007
576.6984, 22.56010
577.1805, 22.56149
577.6626, 22.55844
578.1447, 22.44897
578.6268, 22.22035
579.1089, 22.01072
579.5911, 21.88789
580.0732, 21.84896
580.5553, 21.89861
581.0374, 22.10651
581.5195, 22.24244
582.0016, 22.16097
582.4838, 22.05966
582.9659, 22.16945
583.4480, 22.45248
583.9301, 22.66325
584.4122, 22.62485
584.8943, 22.40622
585.3765, 22.25543
585.8586, 22.17488
586.3407, 22.16163
586.8228, 22.33883
587.3049, 22.47664
587.7870, 22.37286
588.2692, 22.08313
588.7513, 21.85570
589.2334, 21.84115
589.7155, 21.95971
590.1976, 22.12191
590.6797, 22.32570
591.1619, 22.43238
591.6440, 22.37372
592.1261, 22.23837
592.6082, 22.10857
593.0903, 21.97991
593.5724, 21.95480
594.0546, 22.15939
594.5367, 22.36423
595.0188, 22.36304
595.5009, 22.26107
595.9830, 22.34004
596.4651, 22.70577
596.9473, 23.10909
597.4294, 23.14726
597.9115, 22.72307
598.3936, 22.40875
598.8757, 22.13180
599.3578, 22.06093
599.8400, 22.43406
600.3221, 22.97696
600.8042, 23.30359
601.2863, 23.28419
601.7684, 23.14393
602.2505, 23.08800
602.7327, 23.10398
603.2148, 23.14317
603.6969, 23.20732
604.1790, 23.26899
604.6611, 23.31433
605.1432, 23.34194
605.6254, 23.35601
606.1075, 23.37834
606.5896, 23.34752
607.0717, 23.10032
607.5538, 22.87616
608.0359, 22.97823
608.5181, 23.39799
609.0002, 23.91668
609.4823, 24.40011
609.9644, 24.80553
610.4465, 24.93066
610.9286, 24.59233
611.4108, 24.32744
611.8929, 24.14681
612.3750, 24.09262
612.8571, 24.21203
613.3392, 24.48705
613.8214, 24.86569
614.3035, 25.39136
614.7856, 25.92190
615.2677, 26.23289
615.7498, 26.33541
616.2319, 26.33882
616.7141, 26.24156
617.1962, 26.12912
617.6783, 26.10319
618.1604, 26.16634
618.6425, 26.22961
619.1246, 26.20976
619.6068, 26.27549
620.0889, 26.58069
620.5710, 26.99487
621.0531, 27.30614
621.5352, 27.46205
622.0173, 27.58757
622.4995, 27.83207
622.9816, 28.19566
623.4637, 28.50113
623.9458, 28.67241
624.4279, 28.91418
624.9100, 29.33262
625.3922, 29.81790
625.8743, 30.27975
626.3564, 30.70579
626.8385, 31.08502
627.3206, 31.38118
627.8027, 31.64156
628.2849, 31.92981
628.7670, 32.25005
629.2491, 32.64291
629.7311, 33.13030
630.2133, 33.68962
630.6954, 34.28614
631.1775, 34.97382
631.6596, 35.54557
632.1417, 35.79038
632.6238, 36.12346
633.1060, 36.80302
633.5881, 37.72352
634.0702, 38.71654
634.5523, 39.70863
635.0344, 40.61378
635.5165, 41.23762
635.9987, 41.56441
636.4808, 42.14066
636.9629, 43.07885
637.4450, 44.11390
637.9271, 45.08017
638.4092, 46.06519
638.8914, 47.19137
639.3735, 48.48238
639.8556, 49.91702
640.3377, 51.50964
640.8198, 53.23554
641.3019, 55.06683
641.7841, 57.00249
642.2662, 59.04083
642.7483, 61.17202
643.2304, 63.40795
643.7125, 65.79995
644.1946, 68.51777
644.6768, 71.06187
645.1589, 73.08449
645.6410, 75.27787
646.1231, 78.11343
646.6052, 81.37278
647.0873, 84.59410
647.5695, 87.57127
648.0516, 90.43771
648.5337, 93.33217
649.0158, 96.27083
649.4979, 99.35333
649.9800, 102.6826
650.4622, 105.8851
650.9443, 108.6362
651.4264, 111.0411
651.9085, 113.6622
652.3906, 116.6208
652.8727, 119.5892
653.3549, 122.5182
653.8370, 125.4248
654.3191, 128.3682
654.8012, 131.3241
655.2833, 134.1762
655.7654, 136.8624
656.2476, 139.3597
656.7297, 141.6402
657.2118, 143.7445
657.6939, 145.4426
658.1760, 146.7177
658.6581, 147.5224
659.1403, 147.7501
659.6224, 147.5349
660.1045, 147.2522
660.5866, 147.2609
661.0687, 146.7579
661.5508, 145.1637
662.0330, 142.6991
662.5151, 139.8086
662.9972, 136.5431
663.4793, 132.6084
663.9614, 127.6721
664.4435, 121.9843
664.9257, 116.6966
665.4078, 112.2263
665.8899, 107.5305
666.3720, 102.3328
666.8541, 97.10933
667.3362, 92.02032
667.8184, 87.15063
668.3005, 82.59865
668.7826, 78.40749
669.2647, 74.55898
669.7468, 71.13318
670.2289, 68.06052
670.7111, 65.06982
671.1932, 62.08851
671.6753, 59.26210
672.1574, 56.66481
672.6395, 54.31156
673.1216, 52.29881
673.6038, 50.80701
674.0859, 49.37696
674.5680, 47.90022
675.0501, 46.47815
675.5322, 45.19744
676.0143, 44.05663
676.4965, 43.04189
676.9786, 42.16128
677.4607, 41.34149
677.9428, 40.36877
678.4249, 39.21847
678.9070, 38.35253
679.3892, 37.99702
679.8713, 37.66971
680.3534, 36.89966
680.8355, 35.86424
681.3176, 35.04808
681.7997, 34.56726
682.2819, 34.19425
682.7640, 33.94621
683.2461, 33.69109
683.7282, 33.19363
684.2103, 32.50276
684.6924, 31.96203
685.1746, 31.81599
685.6567, 31.90009
686.1388, 31.74441
686.6209, 31.24965
687.1030, 30.87903
687.5851, 30.76629
688.0673, 30.68270
688.5494, 30.47993
689.0315, 30.21715
689.5136, 30.02823
689.9957, 29.97758
690.4778, 29.91784
690.9600, 29.77803
691.4421, 29.55987
691.9242, 29.22097
692.4063, 28.78119
692.8884, 28.38488
693.3705, 28.12146
693.8527, 27.96721
694.3348, 27.86719
694.8169, 27.86588
695.2990, 27.81779
695.7811, 27.78391
696.2632, 27.63678
696.7454, 27.21199
697.2275, 26.66600
697.7096, 26.27409
698.1917, 26.12869
698.6738, 26.06397
699.1559, 26.01958
699.6381, 25.93669
700.1202, 25.59964
700.6023, 25.01687
701.0844, 24.63515
701.5665, 24.73846
702.0486, 25.10125
702.5308, 25.22361
703.0129, 24.96180
703.4950, 24.82294
703.9771, 24.96370
704.4592, 25.04256
704.9413, 24.79257
705.4235, 24.44043
705.9056, 24.37882
706.3877, 24.71214
706.8698, 25.03696
707.3519, 24.94066
707.8340, 24.57417
708.3162, 24.31746
708.7983, 24.18443
709.2804, 24.07060
709.7625, 23.93189
710.2446, 23.78660
710.7267, 23.66492
711.2089, 23.57589
711.6909, 23.47380
712.1730, 23.29934
712.6552, 23.18076
713.1373, 23.20109
713.6194, 23.28478
714.1015, 23.36596
714.5836, 23.41653
715.0657, 23.38428
715.5479, 23.18251
716.0300, 22.88209
716.5121, 22.64372
716.9942, 22.46569
717.4763, 22.44973
717.9584, 22.67916
718.4406, 22.96670
718.9227, 23.08809
719.4048, 23.03312
719.8869, 23.02851
720.3690, 23.10262
720.8511, 23.18983
721.3333, 23.35807
721.8154, 23.47469
722.2975, 23.31946
722.7796, 22.94728
723.2617, 22.68906
723.7438, 22.80172
724.2260, 23.12233
724.7081, 23.36477
725.1902, 23.52674
725.6723, 23.51376
726.1544, 23.23369
726.6365, 22.98878
727.1187, 23.07797
727.6008, 23.42479
728.0829, 23.57351
728.5650, 23.32661
729.0471, 23.18809
729.5292, 23.32694
730.0114, 23.53577
730.4935, 23.66464
730.9756, 23.71912
731.4577, 23.75444
731.9398, 23.79333
732.4219, 23.86868
732.9041, 24.08255
733.3862, 24.40402
733.8683, 24.53721
734.3504, 24.41969
734.8325, 24.28101
735.3146, 24.23624
735.7968, 24.26453
736.2789, 24.31442
736.7610, 24.36106
737.2431, 24.50398
737.7252, 24.88781
738.2073, 25.23175
738.6895, 25.36031
739.1716, 25.35112
739.6537, 25.31627
740.1358, 25.29863
740.6179, 25.33538
741.1000, 25.54912
741.5822, 25.84488
742.0643, 25.77688
742.5464, 25.30626
743.0285, 25.08328
743.5106, 25.43682
743.9927, 25.93843
744.4749, 26.05723
744.9570, 25.75772
745.4391, 25.47447
745.9212, 25.09243
746.4033, 24.86642
746.8854, 25.02084
747.3676, 25.26388
747.8497, 25.31746
748.3318, 25.15897
748.8139, 24.89302
749.2960, 24.53821
749.7781, 24.20714
750.2603, 24.11500
750.7424, 24.23455
751.2245, 24.34598
751.7066, 24.40505
752.1887, 24.48821
752.6708, 24.68805
753.1530, 24.94501
753.6351, 25.00772
754.1172, 24.70051
754.5993, 24.48263
755.0814, 24.40929
755.5635, 24.38529
756.0457, 24.36107
756.5278, 24.34435
757.0099, 24.38510
757.4920, 24.50431
757.9741, 24.56404
758.4562, 24.36176
758.9384, 24.01979
759.4205, 23.81826
759.9026, 23.77018
760.3847, 23.85308
760.8668, 24.08080
761.3489, 24.35099
761.8311, 24.51391
762.3132, 24.56492
762.7953, 24.54084
763.2774, 24.44888
763.7595, 24.26994
764.2416, 23.82681
764.7238, 23.41510
765.2059, 23.34876
765.6880, 23.60738
766.1701, 23.90614
766.6522, 24.18872
767.1343, 24.33140
767.6165, 24.06108
768.0986, 23.55940
768.5807, 23.35279
769.0628, 23.52575
769.5449, 23.67870
770.0270, 23.48066
770.5092, 23.07477
770.9913, 22.98778
771.4734, 23.38359
771.9555, 23.69911
772.4376, 23.97750
772.9197, 24.08161
773.4019, 23.75817
773.8840, 23.28823
774.3661, 23.17566
774.8482, 23.57495
775.3303, 23.94702
775.8124, 23.93933
776.2946, 23.83285
776.7767, 23.95026
777.2588, 24.22372
777.7409, 24.44530
778.2230, 24.53502
778.7051, 24.47027
779.1873, 24.17719
779.6694, 23.68950
780.1515, 23.41113
780.6336, 23.39996
781.1157, 23.42204
781.5978, 23.47113
782.0800, 23.47173
782.5621, 23.30056
783.0442, 23.00337
783.5263, 22.81042
784.0084, 22.78877
784.4905, 22.83315
784.9727, 22.94917
785.4548, 23.08303
785.9369, 23.21252
786.4190, 23.30979
786.9011, 23.31642
787.3832, 23.19936
787.8654, 22.99869
788.3475, 22.69623
788.8296, 22.32965
789.3117, 22.29360
789.7938, 22.67746
790.2759, 22.93481
790.7581, 22.73288
791.2402, 22.34627
791.7223, 22.27551
792.2044, 22.64121
792.6865, 22.79049
793.1686, 22.51991
793.6508, 22.28726
794.1328, 22.23988
794.6149, 22.30051
795.0970, 22.42966
795.5792, 22.59088
796.0613, 22.67522
796.5434, 22.57246
797.0255, 22.42580
797.5076, 22.40372
797.9897, 22.48162
798.4719, 22.61170
798.9540, 22.78038
799.4361, 22.90582
799.9182, 22.92795
800.4003, 22.87222
800.8824, 22.81413
801.3646, 22.77327
801.8467, 22.66870
802.3288, 22.39482
802.8109, 22.19177
803.2930, 22.16236
803.7751, 22.25139
804.2573, 22.42402
804.7394, 22.68396
805.2215, 22.86359
805.7036, 22.86064
806.1857, 22.79394
806.6678, 22.76343
807.1500, 22.73057
807.6321, 22.58440
808.1142, 22.32547
808.5963, 22.11868
809.0784, 22.10755
809.5605, 22.23595
810.0427, 22.37167
810.5248, 22.51841
811.0069, 22.59362
811.4890, 22.58518
811.9711, 22.48724
812.4532, 22.20467
812.9354, 21.86124
813.4175, 21.87705
813.8996, 22.48551
814.3817, 22.89070
814.8638, 23.01746
815.3459, 22.96793
815.8281, 22.63435
816.3102, 22.22866
816.7923, 22.05721
817.2744, 22.17502
817.7565, 22.35233
818.2386, 22.47418
818.7208, 22.52807
819.2029, 22.40410
819.6850, 22.19112
820.1671, 22.26176
820.6492, 22.69255
821.1313, 23.07178
821.6135, 23.02893
822.0956, 22.70104
822.5777, 22.66041
823.0598, 23.07860
823.5419, 23.22590
824.0240, 22.87303
824.5062, 22.47039
824.9883, 22.23969
825.4704, 22.11647
825.9525, 21.98828
826.4346, 21.82602
826.9167, 21.78260
827.3989, 22.03307
827.8810, 22.28088
828.3631, 22.35196
828.8452, 22.28478
829.3273, 22.10412
829.8094, 21.84815
830.2916, 21.64577
830.7737, 21.58397
831.2558, 21.65944
831.7379, 21.96334
832.2200, 22.44585
832.7021, 22.65129
833.1843, 22.48220
833.6664, 22.23853
834.1485, 22.10651
834.6306, 22.06994
835.1127, 22.08612
835.5948, 22.14656
836.0770, 22.28198
836.5591, 22.66876
837.0412, 22.92490
837.5233, 22.82329
838.0054, 22.59575
838.4875, 22.49331
838.9697, 22.54162
839.4518, 22.63513
839.9339, 22.85365
840.4160, 22.97335
840.8981, 22.73036
841.3802, 22.33838
841.8624, 22.11479
842.3445, 22.09046
842.8266, 22.12398
843.3087, 22.12746
843.7908, 22.13609
844.2729, 22.21574
844.7551, 22.36335
845.2372, 22.55674
845.7193, 22.81786
846.2014, 22.96746
846.6835, 22.89133
847.1656, 22.71301
847.6478, 22.62798
848.1299, 22.66113
848.6120, 22.59107
849.0941, 22.29501
849.5762, 22.06181
850.0583, 21.89372
850.5405, 21.85020
851.0226, 22.07811
851.5047, 22.47545
851.9868, 22.70815
852.4689, 22.60427
852.9510, 22.46782
853.4332, 22.54782
853.9153, 22.67977
854.3974, 22.65538
854.8795, 22.49036
855.3616, 22.26113
855.8438, 22.00475
856.3259, 21.82196
856.8080, 21.84935
857.2901, 22.05363
857.7722, 22.30858
858.2543, 22.63299
858.7365, 22.73526
859.2186, 22.46924
859.7007, 22.16860
860.1828, 22.13935
860.6649, 22.31961
861.1470, 22.38888
861.6292, 22.21627
862.1113, 22.14183
862.5934, 22.27557
863.0755, 22.38502
863.5576, 22.34955
864.0397, 22.22874
864.5219, 22.09602
865.0040, 21.96696
865.4861, 21.87798
865.9682, 21.87364
866.4503, 21.89177
866.9324, 21.87114
867.4146, 21.84105
867.8967, 21.90280
868.3788, 22.03159
868.8609, 22.00648
869.3430, 21.65440
869.8251, 21.20039
870.3073, 21.08079
870.7894, 21.26012
871.2715, 21.37813
871.7536, 21.39610
872.2357, 21.50319
872.7178, 21.83395
873.2000, 22.18039
873.6821, 22.21648
874.1642, 21.91263
874.6463, 21.72521
875.1284, 21.73097
875.6105, 21.73884
876.0927, 21.73014
876.5747, 21.70490
877.0568, 21.65885
877.5389, 21.59688
878.0211, 21.51904
878.5032, 21.39206
878.9853, 21.35165
879.4674, 21.55818
879.9495, 21.78221
880.4316, 21.85839
880.9138, 21.79660
881.3959, 21.58935
881.8780, 21.26510
882.3601, 21.01089
882.8422, 21.00874
883.3243, 21.14440
883.8065, 21.18661
884.2886, 21.16617
884.7707, 21.26196
885.2528, 21.50224
885.7349, 21.72184
886.2170, 21.82570
886.6992, 21.80241
887.1813, 21.57335
887.6634, 21.04544
888.1455, 20.91752
888.6276, 21.43315
889.1097, 21.84911
889.5919, 21.82822
890.0740, 21.68341
890.5561, 21.81960
891.0382, 22.17090
891.5203, 22.22637
892.0024, 21.62270
892.4846, 21.17121
892.9667, 21.10746
893.4488, 21.18504
893.9309, 21.24769
894.4130, 21.30885
894.8951, 21.45552
895.3773, 21.71042
895.8594, 21.90477
896.3415, 21.86907
896.8236, 21.74961
897.3057, 21.69328
897.7878, 21.69666
898.2700, 21.77696
898.7521, 21.91772
899.2342, 21.99237
899.7163, 21.89977
900.1984, 21.74621
900.6805, 21.83391
901.1627, 22.13750
901.6448, 21.97000
902.1269, 21.19613
902.6090, 20.69371
903.0911, 20.90240
903.5732, 21.39869
904.0554, 21.62944
904.5375, 21.59463
905.0196, 21.70082
905.5017, 22.17910
905.9838, 22.40901
906.4659, 22.16460
906.9481, 21.80675
907.4302, 21.40359
907.9123, 21.06227
908.3944, 21.03857
908.8765, 21.45397
909.3586, 21.71138
909.8408, 21.47652
910.3229, 21.20373
910.8050, 21.20443
911.2871, 21.30874
911.7692, 21.23767
912.2513, 21.00671
912.7335, 20.92186
913.2156, 21.23805
913.6977, 21.51881
914.1798, 21.07123
914.6619, 20.32555
915.1440, 20.24769
915.6262, 20.75815
916.1083, 21.12306
916.5904, 21.05179
917.0725, 20.78946
917.5546, 20.60732
918.0367, 20.48153
918.5189, 20.26695
919.0010, 19.94920
919.4831, 19.79109
919.9652, 19.88471
920.4473, 19.96049
920.9294, 19.80562
921.4116, 19.54850
921.8937, 19.49831
922.3758, 19.72400
922.8579, 19.89903
923.3400, 20.08806
923.8221, 20.13238
924.3043, 19.80981
924.7864, 19.47964
925.2685, 19.52680
925.7506, 19.84977
926.2327, 19.96476
926.7148, 19.66635
927.1970, 19.39973
927.6791, 19.31123
928.1612, 19.28967
928.6433, 19.29026
929.1254, 19.28772
929.6075, 19.25305
930.0897, 19.18124
930.5718, 19.09008
931.0539, 18.94977
931.5360, 18.84563
932.0181, 18.92607
932.5002, 19.08225
932.9824, 19.10427
933.4645, 18.99232
933.9466, 18.85394
934.4287, 18.74135
934.9108, 18.72331
935.3929, 18.97244
935.8751, 19.39214
936.3572, 19.56194
936.8393, 19.48442
937.3214, 19.14770
937.8035, 18.49956
938.2856, 18.05336
938.7678, 18.25578
939.2499, 18.88194
939.7320, 19.28019
940.2141, 19.39834
940.6962, 19.48987
941.1783, 19.55279
941.6605, 19.59240
942.1426, 19.60287
942.6247, 19.59749
943.1068, 19.57080
943.5889, 19.53015
944.0710, 19.56665
944.5532, 19.74652
945.0353, 19.90494
945.5174, 20.04854
945.9995, 20.14348
946.4816, 20.10846
946.9637, 20.04387
947.4459, 20.11814
947.9280, 20.35002
948.4101, 20.54502
948.8922, 20.60973
949.3743, 20.63873
949.8564, 20.63958
950.3386, 20.66780
950.8207, 20.81968
951.3028, 21.05085
951.7849, 21.21952
952.2670, 21.26933
952.7491, 21.31221
953.2313, 21.51787
953.7134, 21.73082
954.1955, 21.60197
954.6776, 21.30011
955.1597, 21.31589
955.6418, 21.71118
956.1240, 22.17964
956.6061, 22.52995
957.0882, 22.79592
957.5703, 23.04947
958.0524, 23.27770
958.5345, 23.35839
959.0166, 23.28718
959.4987, 23.25925
959.9808, 23.33571
960.4630, 23.48745
960.9451, 23.70075
961.4272, 23.95221
961.9093, 24.14068
962.3914, 24.24785
962.8735, 24.36530
963.3557, 24.49169
963.8378, 24.64666
964.3199, 24.86554
964.8020, 25.08634
965.2841, 25.23005
965.7662, 25.29704
966.2484, 25.34253
966.7305, 25.36446
967.2126, 25.36698
967.6947, 25.31660
968.1768, 25.28292
968.6589, 25.35979
969.1411, 25.44875
969.6232, 25.37533
970.1053, 25.11603
970.5874, 24.90372
971.0695, 24.79242
971.5516, 24.73970
972.0338, 24.80929
972.5159, 24.86138
972.9980, 24.74799
973.4801, 24.51943
973.9622, 24.32546
974.4443, 24.21380
974.9265, 24.05629
975.4086, 23.69182
975.8907, 23.32671
976.3728, 23.11811
976.8549, 23.04837
977.3370, 23.16233
977.8192, 23.38976
978.3013, 23.49543
978.7834, 23.35838
979.2655, 23.09625
979.7476, 22.74110
980.2297, 22.40294
980.7119, 22.38527
981.1940, 22.58246
981.6761, 22.57731
982.1582, 22.29549
982.6403, 22.00367
983.1224, 21.87869
983.6046, 21.90405
984.0867, 22.09960
984.5688, 22.43256
985.0509, 22.66100
985.5330, 22.77726
986.0151, 22.84090
986.4973, 22.86911
986.9794, 22.84982
987.4615, 22.74363
987.9436, 22.62713
988.4257, 22.83056
988.9078, 23.44025
989.3900, 23.74479
989.8721, 23.62976
990.3542, 23.49894
990.8363, 23.51826
991.3184, 23.56528
991.8005, 23.48227
992.2827, 23.29632
992.7648, 23.24537
993.2469, 23.36975
993.7290, 23.54641
994.2111, 23.84115
994.6932, 24.08496
995.1754, 24.18552
995.6575, 24.20957
996.1396, 24.24338
996.6217, 24.28551
997.1038, 24.28418
997.5859, 24.30651
998.0681, 24.18314
998.5502, 23.72085
999.0323, 23.29357
999.5144, 23.03185
999.9965, 22.96883
1000.479, 23.23978
1000.961, 23.83554
1001.443, 24.22804
1001.925, 24.12695
1002.407, 24.00121
1002.889, 23.93794
1003.371, 23.99296
1003.853, 24.33038
1004.336, 24.77257
1004.818, 24.95900
1005.300, 24.82541
1005.782, 24.77766
1006.264, 25.08230
1006.746, 25.47457
1007.228, 25.80910
1007.710, 26.10851
1008.193, 26.36708
1008.675, 26.62048
1009.157, 26.94460
1009.639, 27.36445
1010.121, 27.82459
1010.603, 28.31939
1011.085, 28.80232
1011.567, 29.15916
1012.049, 29.49569
1012.532, 30.00228
1013.014, 30.66839
1013.496, 31.39609
1013.978, 32.13940
1014.460, 32.77375
1014.942, 33.11650
1015.424, 33.30435
1015.906, 33.54148
1016.388, 33.84239
1016.871, 34.30993
1017.353, 34.91427
1017.835, 35.40219
1018.317, 35.64770
1018.799, 35.80630
1019.281, 36.06660
1019.763, 36.40143
1020.245, 36.76032
1020.728, 37.12266
1021.210, 37.34435
1021.692, 37.40244
1022.174, 37.33718
1022.656, 37.16658
1023.138, 36.93106
1023.620, 36.70596
1024.102, 36.47193
1024.584, 36.06329
1025.067, 35.47666
1025.549, 34.94737
1026.031, 34.51749
1026.513, 34.18215
1026.995, 33.97664
1027.477, 33.72132
1027.959, 33.07571
1028.441, 32.05875
1028.923, 31.21040
1029.406, 30.55141
1029.888, 29.96776
1030.370, 29.46680
1030.852, 28.93098
1031.334, 28.25927
1031.816, 27.54951
1032.298, 26.97374
1032.780, 26.53942
1033.263, 26.11887
1033.745, 25.72837
1034.227, 25.30417
1034.709, 24.83941
1035.191, 24.32693
1035.673, 23.72001
1036.155, 23.10448
1036.637, 22.62969
1037.120, 22.29428
1037.602, 22.14598
1038.084, 22.38144
1038.566, 22.40221
1039.048, 22.00570
1039.530, 21.53294
1040.012, 21.18112
1040.494, 20.88429
1040.976, 20.50353
1041.458, 20.01081
1041.941, 19.66160
1042.423, 19.49358
1042.905, 19.40930
1043.387, 19.47206
1043.869, 19.53530
1044.351, 19.55355
1044.833, 19.50676
1045.315, 19.34707
1045.798, 19.06405
1046.280, 18.78984
1046.762, 18.43294
1047.244, 18.22610
1047.726, 18.33844
1048.208, 18.46768
1048.690, 18.44002
1049.172, 18.32117
1049.655, 18.21367
1050.137, 18.12482
1050.619, 18.02290
1051.101, 17.84533
1051.583, 17.73976
1052.065, 17.78904
1052.547, 17.86286
1053.029, 17.94217
1053.511, 17.96656
1053.994, 17.82479
1054.476, 17.51827
1054.958, 17.25019
1055.440, 17.02121
1055.922, 16.89886
1056.404, 16.98465
1056.886, 17.09113
1057.368, 17.14192
1057.850, 17.12103
1058.333, 16.99570
1058.815, 16.77598
1059.297, 16.55959
1059.779, 16.27039
1060.261, 16.15685
1060.743, 16.50407
1061.225, 16.82793
1061.707, 16.72726
1062.190, 16.48012
1062.672, 16.51203
1063.154, 16.80507
1063.636, 16.95949
1064.118, 16.82246
1064.600, 16.60914
1065.082, 16.33043
1065.564, 16.07489
1066.047, 15.85954
1066.529, 15.72618
1067.011, 15.75080
1067.493, 15.90692
1067.975, 16.07330
1068.457, 16.24645
1068.939, 16.32284
1069.421, 16.18173
1069.903, 16.01800
1070.385, 15.92223
1070.868, 15.89621
1071.350, 15.98920
1071.832, 16.14565
1072.314, 16.19660
1072.796, 16.08293
1073.278, 15.90753
1073.760, 15.62298
1074.242, 15.39883
1074.725, 15.31504
1075.207, 15.36557
1075.689, 15.65421
1076.171, 16.04871
1076.653, 16.19683
1077.135, 15.97910
1077.617, 15.78245
1078.099, 15.80122
1078.582, 15.86625
1079.064, 15.87913
1079.546, 15.89538
1080.028, 16.01512
1080.510, 16.17247
1080.992, 16.21292
1081.474, 16.10139
1081.956, 15.95889
1082.438, 15.73473
1082.921, 15.62744
1083.403, 15.81458
1083.885, 16.09270
1084.367, 16.32507
1084.849, 16.49629
1085.331, 16.59704
1085.813, 16.63268
1086.295, 16.67599
1086.777, 16.83577
1087.260, 16.88556
1087.742, 16.53356
1088.224, 16.22176
1088.706, 16.35815
1089.188, 16.72110
1089.670, 17.03015
1090.152, 17.21230
1090.634, 17.16950
1091.116, 16.69736
1091.599, 16.38955
1092.081, 16.68101
1092.563, 17.00344
1093.045, 17.00008
1093.527, 16.81785
1094.009, 16.56783
1094.491, 16.32825
1094.973, 16.31276
1095.456, 16.67734
1095.938, 16.88003
1096.420, 16.58378
1096.902, 16.24701
1097.384, 16.06193
1097.866, 15.98485
1098.348, 16.03795
1098.830, 16.14122
1099.313, 16.10369
1099.795, 15.87017
1100.277, 15.65774
1100.759, 15.54944
1101.241, 15.44834
1101.723, 15.25172
1102.205, 15.11230
1102.687, 15.29869
1103.169, 15.56336
1103.651, 15.38046
1104.134, 14.69282
1104.616, 14.21914
1105.098, 14.30294
1105.580, 14.34495
1106.062, 14.08635
1106.544, 13.87427
1107.026, 13.98479
1107.508, 14.20998
1107.991, 14.26153
1108.473, 14.14362
1108.955, 14.06835
1109.437, 14.10806
1109.919, 14.10771
1110.401, 13.94829
1110.883, 13.86936
1111.365, 14.07699
1111.848, 14.31621
1112.330, 14.32362
1112.812, 14.15373
1113.294, 14.01974
1113.776, 13.91288
1114.258, 13.89953
1114.740, 14.11379
1115.222, 14.23972
1115.704, 14.20403
1116.187, 14.05960
1116.669, 13.72275
1117.151, 13.35032
1117.633, 13.29651
1118.115, 13.61504
1118.597, 13.76871
1119.079, 13.60594
1119.561, 13.56697
1120.043, 13.77038
1120.526, 14.00104
1121.008, 14.17258
1121.490, 14.29878
1121.972, 14.43248
1122.454, 14.55008
1122.936, 14.36984
1123.418, 13.67675
1123.900, 13.33491
1124.383, 13.54213
1124.865, 13.68544
1125.347, 13.52859
1125.829, 13.28316
1126.311, 13.11562
1126.793, 13.03327
1127.275, 13.08268
1127.757, 13.30232
1128.240, 13.33848
1128.722, 13.13053
1129.204, 13.05565
1129.686, 13.23636
1130.168, 13.38150
1130.650, 13.28371
1131.132, 13.11434
1131.614, 13.19368
1132.096, 13.47245
1132.578, 13.43137
1133.061, 13.05667
1133.543, 12.86629
1134.025, 12.92991
1134.507, 13.12160
1134.989, 13.40049
1135.471, 13.62070
1135.953, 13.61691
1136.435, 13.46883
1136.918, 13.39917
1137.400, 13.39114
1137.882, 13.33288
1138.364, 13.22221
1138.846, 13.07102
1139.328, 12.89211
1139.810, 12.81447
1140.292, 12.93506
1140.775, 13.12690
1141.257, 13.18502
1141.739, 13.17360
1142.221, 13.34667
1142.703, 13.58063
1143.185, 13.40371
1143.667, 12.85241
1144.149, 12.43753
1144.631, 12.37323
1145.114, 12.46970
1145.596, 12.63797
1146.078, 12.74652
1146.560, 12.50527
1147.042, 12.15579
1147.524, 12.11834
1148.006, 12.30638
1148.488, 12.39349
1148.970, 12.34095
1149.453, 12.44695
1149.935, 12.94292
1150.417, 13.38423
1150.899, 13.33109
1151.381, 13.14863
1151.863, 13.15293
1152.345, 13.26200
1152.827, 13.41623
1153.310, 13.54036
1153.792, 13.48004
1154.274, 13.18685
1154.756, 12.80118
1155.238, 12.17965
1155.720, 11.75632
1156.202, 11.87235
1156.684, 12.13602
1157.167, 12.27418
1157.649, 12.33228
1158.131, 12.43340
1158.613, 12.57701
1159.095, 12.62662
1159.577, 12.47013
1160.059, 12.38277
1160.541, 12.46396
1161.023, 12.55192
1161.505, 12.57847
1161.988, 12.58965
1162.470, 12.61937
1162.952, 12.66855
1163.434, 12.75559
1163.916, 12.91391
1164.398, 12.92634
1164.880, 12.69811
1165.362, 12.51590
1165.844, 12.40037
1166.327, 12.38470
1166.809, 12.54463
1167.291, 12.71643
1167.773, 12.66164
1168.255, 12.43686
1168.737, 12.41064
1169.219, 12.63533
1169.701, 12.68883
1170.184, 12.51787
1170.666, 12.42737
1171.148, 12.50895
1171.630, 12.68508
1172.112, 12.91720
1172.594, 13.12221
1173.076, 13.12701
1173.558, 12.96938
1174.041, 12.86770
1174.523, 12.80822
1175.005, 12.64090
1175.487, 12.37760
1175.969, 12.32412
1176.451, 12.59220
1176.933, 12.83336
1177.415, 12.70304
1177.897, 12.44014
1178.380, 12.42040
1178.862, 12.53950
1179.344, 12.64117
1179.826, 12.69259
1180.308, 12.57533
1180.790, 12.34413
1181.272, 12.35826
1181.754, 12.80873
1182.236, 13.10150
1182.719, 12.56578
1183.201, 11.92274
1183.683, 11.75006
1184.165, 11.83054
1184.647, 11.99248
1185.129, 12.17915
1185.611, 12.37339
1186.093, 12.55258
1186.576, 12.58194
1187.058, 12.29665
1187.540, 12.11097
1188.022, 12.19934
1188.504, 12.36983
1188.986, 12.64485
1189.468, 12.85783
1189.950, 12.80278
1190.432, 12.57674
1190.915, 12.44567
1191.397, 12.43897
1191.879, 12.41835
1192.361, 12.37561
1192.843, 12.33515
1193.325, 12.30909
1193.807, 12.26193
1194.289, 12.14464
1194.771, 12.06415
1195.254, 12.17028
1195.736, 12.38037
1196.218, 12.36225
1196.700, 12.08106
1197.182, 11.92514
1197.664, 11.90340
1198.146, 11.93241
1198.628, 11.99723
1199.111, 12.04670
1199.593, 12.04572
1200.075, 12.10921
1200.557, 12.44652
1201.039, 12.86161
1201.521, 12.74768
1202.003, 12.29720
1202.485, 12.17066
1202.968, 12.32454
1203.450, 12.38900
1203.932, 12.28530
1204.414, 12.17108
1204.896, 12.12702
1205.378, 12.18418
1205.860, 12.46196
1206.342, 12.76558
1206.824, 12.92329
1207.307, 12.95386
1207.789, 12.82377
1208.271, 12.61459
1208.753, 12.50112
1209.235, 12.50437
1209.717, 12.44827
1210.199, 12.21591
1210.681, 12.02420
1211.163, 11.87783
1211.646, 11.87855
1212.128, 12.29514
1212.610, 12.68828
1213.092, 12.56846
1213.574, 12.13529
1214.056, 11.93982
1214.538, 12.01724
1215.020, 12.03091
1215.503, 11.92035
1215.985, 11.89368
1216.467, 12.02052
1216.949, 12.09476
1217.431, 12.00106
1217.913, 11.92770
1218.395, 12.07141
1218.877, 12.32070
1219.359, 12.38219
1219.842, 12.26775
1220.324, 12.21662
1220.806, 12.21901
1221.288, 12.07065
1221.770, 11.76545
1222.252, 11.61408
1222.734, 11.74283
1223.216, 11.94319
1223.698, 12.03870
1224.181, 12.06883
1224.663, 12.07946
1225.145, 12.07201
1225.627, 11.97752
1226.109, 11.90024
1226.591, 12.12917
1227.073, 12.57441
1227.555, 12.79621
1228.038, 12.64807
1228.520, 12.50081
1229.002, 12.63772
1229.484, 12.71324
1229.966, 12.42216
1230.448, 12.15981
1230.930, 12.29756
1231.412, 12.55296
1231.895, 12.54403
1232.377, 12.32670
1232.859, 12.23137
1233.341, 12.32883
1233.823, 12.35964
1234.305, 12.33255
1234.787, 12.20225
1235.269, 11.85201
1235.751, 11.66257
1236.234, 11.86613
1236.716, 12.17932
1237.198, 12.29593
1237.680, 12.26918
1238.162, 12.26360
1238.644, 12.27589
1239.126, 12.22131
1239.608, 12.11027
1240.090, 12.09567
1240.573, 12.18563
1241.055, 12.15429
1241.537, 11.90902
1242.019, 11.77849
1242.501, 12.13663
1242.983, 12.59676
1243.465, 12.65677
1243.947, 12.50492
1244.430, 12.31824
1244.912, 12.16238
1245.394, 12.15351
1245.876, 12.24636
1246.358, 12.23512
1246.840, 12.05289
1247.322, 11.98746
1247.804, 12.28803
1248.286, 12.52149
1248.769, 12.51760
1249.251, 12.44140
1249.733, 12.35544
1250.215, 12.26308
1250.697, 12.07258
1251.179, 11.90677
1251.661, 12.19882
1252.143, 13.06502
1252.625, 13.23713
1253.108, 12.50221
1253.590, 12.02709
1254.072, 11.98034
1254.554, 12.06187
1255.036, 12.16350
1255.518, 12.26442
1256.000, 12.35684
1256.482, 12.38993
1256.964, 12.19094
1257.447, 11.88660
1257.929, 11.85066
1258.411, 12.01760
1258.893, 12.26526
1259.375, 12.52505
1259.857, 12.66540
1260.339, 12.65041
##END=



