##NAMES=Grunerite
##RRUFFID=R040150
##IDEAL CHEMISTRY=[box]Fe^2+^_2_Fe^2+^_5_Si_8_O_22_(OH)_2_
##LOCALITY=Smallwood mine, Heath Lake, Newfoundland, Canada
##OWNER=RRUFF
##SOURCE=University of Arizona Mineral Museum
##DESCRIPTION=Brown bladed crystals in parallel aggregate
##STATUS=The identification of this mineral has been confirmed by X-ray diffraction and chemical analysis
##URL=rruff.info/R040150
##MEASURED CHEMISTRY=(Fe_0.69_Mg_0.27_Ca_0.02_Mn_0.02_)_7_Si_8.02_O_22_((OH)_0.98_Cl_0.02_)_2_
151.8749, 8917.266
152.3570, 8925.375
152.8391, 8914.923
153.3212, 8952.821
153.8033, 9045.022
154.2855, 9139.443
154.7676, 9192.753
155.2497, 9212.903
155.7318, 9233.846
156.2139, 9258.540
156.6960, 9287.620
157.1782, 9324.185
157.6603, 9369.602
158.1424, 9413.831
158.6245, 9447.191
159.1066, 9473.056
159.5887, 9498.872
160.0709, 9519.329
160.5530, 9543.342
161.0351, 9583.240
161.5172, 9639.648
161.9993, 9710.100
162.4814, 9801.422
162.9636, 9905.011
163.4457, 10008.11
163.9278, 10106.33
164.4099, 10200.81
164.8920, 10292.25
165.3741, 10379.76
165.8563, 10466.05
166.3384, 10549.74
166.8205, 10633.54
167.3026, 10723.35
167.7847, 10829.84
168.2668, 10941.58
168.7490, 11030.55
169.2311, 11086.06
169.7132, 11143.78
170.1953, 11236.28
170.6774, 11341.73
171.1595, 11423.64
171.6417, 11454.35
172.1238, 11455.39
172.6059, 11481.89
173.0880, 11544.43
173.5701, 11612.33
174.0522, 11672.28
174.5344, 11728.50
175.0165, 11786.26
175.4986, 11849.11
175.9807, 11914.92
176.4628, 11976.94
176.9449, 12027.88
177.4271, 12089.51
177.9092, 12183.01
178.3913, 12287.45
178.8734, 12372.03
179.3555, 12416.92
179.8376, 12437.81
180.3197, 12482.19
180.8019, 12560.10
181.2840, 12645.46
181.7661, 12736.00
182.2482, 12826.12
182.7303, 12910.73
183.2124, 12990.32
183.6946, 13058.26
184.1767, 13092.51
184.6588, 13074.23
185.1409, 13052.94
185.6230, 13047.43
186.1051, 13045.16
186.5873, 13030.19
187.0694, 12993.62
187.5515, 12944.37
188.0336, 12907.40
188.5157, 12899.20
188.9978, 12874.15
189.4800, 12805.81
189.9621, 12725.58
190.4442, 12666.57
190.9263, 12644.69
191.4084, 12646.43
191.8905, 12639.12
192.3727, 12615.80
192.8548, 12595.49
193.3369, 12582.02
193.8190, 12572.19
194.3011, 12563.65
194.7832, 12555.53
195.2654, 12546.82
195.7475, 12534.13
196.2296, 12509.55
196.7117, 12496.47
197.1938, 12496.89
197.6759, 12508.23
198.1581, 12533.31
198.6402, 12572.42
199.1223, 12613.42
199.6044, 12632.21
200.0865, 12615.37
200.5686, 12602.19
201.0508, 12598.22
201.5329, 12597.30
202.0150, 12596.01
202.4971, 12593.02
202.9792, 12587.35
203.4613, 12577.69
203.9435, 12564.79
204.4256, 12545.58
204.9077, 12499.46
205.3898, 12461.69
205.8719, 12464.63
206.3540, 12510.87
206.8362, 12569.04
207.3183, 12595.40
207.8004, 12575.81
208.2825, 12558.75
208.7646, 12542.63
209.2467, 12530.17
209.7289, 12526.48
210.2110, 12530.25
210.6931, 12532.57
211.1752, 12519.15
211.6573, 12478.72
212.1395, 12465.21
212.6216, 12503.13
213.1037, 12545.04
213.5858, 12573.06
214.0679, 12583.98
214.5500, 12579.29
215.0322, 12554.66
215.5143, 12502.52
215.9964, 12482.34
216.4785, 12524.08
216.9606, 12569.40
217.4427, 12596.69
217.9249, 12608.25
218.4070, 12618.57
218.8891, 12641.63
219.3712, 12678.27
219.8533, 12697.24
220.3354, 12670.70
220.8176, 12652.94
221.2997, 12665.49
221.7818, 12698.27
222.2639, 12729.50
222.7460, 12743.65
223.2281, 12742.44
223.7103, 12743.05
224.1924, 12744.94
224.6745, 12749.64
225.1566, 12761.88
225.6387, 12776.29
226.1208, 12785.87
226.6030, 12786.85
227.0851, 12779.25
227.5672, 12762.36
228.0493, 12723.96
228.5314, 12692.59
229.0135, 12671.61
229.4957, 12660.27
229.9778, 12659.41
230.4599, 12669.71
230.9420, 12686.35
231.4241, 12697.18
231.9062, 12697.38
232.3884, 12699.85
232.8705, 12715.85
233.3526, 12729.45
233.8347, 12722.52
234.3168, 12689.87
234.7989, 12648.21
235.2811, 12624.56
235.7632, 12618.10
236.2453, 12633.50
236.7274, 12704.02
237.2095, 12771.20
237.6916, 12785.24
238.1738, 12741.52
238.6559, 12686.69
239.1380, 12683.68
239.6201, 12751.69
240.1022, 12800.52
240.5843, 12820.69
241.0665, 12826.28
241.5486, 12819.02
242.0307, 12801.52
242.5128, 12780.04
242.9949, 12756.30
243.4770, 12728.52
243.9592, 12720.42
244.4413, 12759.10
244.9234, 12792.51
245.4055, 12800.97
245.8876, 12788.03
246.3697, 12765.59
246.8519, 12737.70
247.3340, 12706.34
247.8161, 12691.51
248.2982, 12702.61
248.7803, 12719.03
249.2624, 12740.16
249.7446, 12760.22
250.2267, 12769.31
250.7088, 12759.89
251.1909, 12738.61
251.6730, 12724.30
252.1551, 12718.37
252.6373, 12716.98
253.1194, 12712.37
253.6015, 12713.48
254.0836, 12737.92
254.5657, 12798.48
255.0478, 12859.72
255.5300, 12851.71
256.0121, 12747.81
256.4942, 12676.25
256.9763, 12702.85
257.4584, 12759.62
257.9406, 12803.40
258.4227, 12825.39
258.9048, 12832.05
259.3869, 12826.14
259.8690, 12806.99
260.3511, 12789.62
260.8333, 12771.87
261.3154, 12761.78
261.7975, 12768.83
262.2796, 12791.95
262.7617, 12813.72
263.2438, 12822.30
263.7260, 12818.98
264.2081, 12810.46
264.6902, 12794.54
265.1723, 12777.79
265.6544, 12762.11
266.1365, 12748.70
266.6187, 12742.52
267.1008, 12748.97
267.5829, 12763.68
268.0650, 12779.93
268.5471, 12800.37
269.0292, 12813.16
269.5114, 12800.65
269.9935, 12775.48
270.4756, 12758.92
270.9577, 12757.87
271.4398, 12766.47
271.9219, 12782.04
272.4041, 12804.94
272.8862, 12822.51
273.3683, 12826.08
273.8504, 12821.10
274.3325, 12820.03
274.8146, 12829.03
275.2968, 12831.64
275.7789, 12808.18
276.2610, 12766.44
276.7431, 12738.45
277.2252, 12736.50
277.7073, 12752.60
278.1895, 12775.68
278.6716, 12807.84
279.1537, 12835.84
279.6358, 12853.30
280.1179, 12863.81
280.6000, 12872.21
281.0822, 12879.05
281.5643, 12887.19
282.0464, 12900.44
282.5285, 12918.98
283.0106, 12939.39
283.4927, 12972.80
283.9749, 13000.63
284.4570, 13000.29
284.9391, 12972.15
285.4212, 12942.33
285.9033, 12932.75
286.3854, 12943.22
286.8676, 12946.29
287.3497, 12931.00
287.8318, 12919.57
288.3139, 12929.04
288.7960, 12951.78
289.2781, 12965.85
289.7603, 12957.90
290.2424, 12934.12
290.7245, 12920.70
291.2066, 12930.89
291.6887, 12934.38
292.1708, 12921.30
292.6530, 12900.94
293.1351, 12882.87
293.6172, 12870.64
294.0993, 12866.06
294.5814, 12873.77
295.0635, 12909.65
295.5457, 12926.95
296.0278, 12918.17
296.5099, 12897.74
296.9920, 12866.14
297.4741, 12829.04
297.9562, 12805.57
298.4384, 12819.22
298.9205, 12878.38
299.4026, 12916.46
299.8847, 12916.45
300.3668, 12913.09
300.8489, 12918.39
301.3310, 12929.67
301.8131, 12938.18
302.2953, 12937.15
302.7774, 12929.76
303.2595, 12933.61
303.7416, 12964.11
304.2237, 12982.66
304.7058, 12973.70
305.1880, 12953.43
305.6701, 12938.55
306.1522, 12935.19
306.6343, 12939.31
307.1164, 12945.95
307.5985, 12956.92
308.0807, 12963.44
308.5628, 12953.85
309.0449, 12946.45
309.5270, 12956.11
310.0091, 12982.67
310.4912, 13008.71
310.9734, 13021.99
311.4555, 13022.58
311.9376, 13008.76
312.4197, 12972.86
312.9018, 12932.87
313.3839, 12894.24
313.8661, 12859.95
314.3482, 12838.96
314.8303, 12841.32
315.3124, 12856.77
315.7945, 12868.03
316.2766, 12874.65
316.7588, 12879.73
317.2409, 12886.17
317.7230, 12891.44
318.2051, 12890.99
318.6872, 12881.90
319.1693, 12871.18
319.6515, 12864.14
320.1336, 12860.01
320.6157, 12855.13
321.0978, 12848.07
321.5799, 12840.10
322.0620, 12830.44
322.5442, 12816.20
323.0263, 12814.69
323.5084, 12852.62
323.9905, 12896.76
324.4726, 12896.17
324.9547, 12842.53
325.4369, 12780.28
325.9190, 12750.40
326.4011, 12756.69
326.8832, 12769.30
327.3653, 12800.62
327.8474, 12826.80
328.3296, 12825.63
328.8117, 12806.72
329.2938, 12801.36
329.7759, 12829.93
330.2580, 12882.59
330.7401, 12913.69
331.2223, 12909.34
331.7044, 12900.53
332.1865, 12881.49
332.6686, 12863.58
333.1507, 12861.49
333.6328, 12878.82
334.1150, 12903.58
334.5971, 12918.53
335.0792, 12922.19
335.5613, 12919.19
336.0434, 12901.11
336.5255, 12884.59
337.0077, 12879.32
337.4898, 12883.74
337.9719, 12889.31
338.4540, 12887.19
338.9361, 12879.90
339.4182, 12892.22
339.9004, 12943.96
340.3825, 12985.91
340.8646, 13001.97
341.3467, 13001.99
341.8288, 12996.62
342.3109, 12988.75
342.7931, 12982.10
343.2752, 12981.27
343.7573, 12985.98
344.2394, 12999.04
344.7215, 13029.33
345.2036, 13061.91
345.6858, 13084.38
346.1679, 13096.35
346.6500, 13106.80
347.1321, 13121.66
347.6142, 13139.32
348.0963, 13156.14
348.5785, 13172.65
349.0606, 13185.63
349.5427, 13191.86
350.0248, 13192.42
350.5069, 13189.75
350.9890, 13181.08
351.4712, 13171.82
351.9533, 13166.88
352.4354, 13165.49
352.9175, 13163.38
353.3996, 13158.12
353.8817, 13151.33
354.3639, 13147.44
354.8460, 13147.16
355.3281, 13147.47
355.8102, 13151.77
356.2923, 13154.48
356.7744, 13150.99
357.2566, 13139.79
357.7387, 13116.41
358.2208, 13072.22
358.7029, 12998.61
359.1850, 12953.87
359.6671, 12957.88
360.1493, 12966.49
360.6314, 12963.06
361.1135, 12948.58
361.5956, 12928.60
362.0777, 12905.91
362.5598, 12881.36
363.0420, 12856.93
363.5241, 12824.20
364.0062, 12806.35
364.4883, 12813.97
364.9704, 12830.75
365.4525, 12848.02
365.9347, 12861.96
366.4168, 12864.98
366.8989, 12843.91
367.3810, 12796.72
367.8631, 12755.79
368.3452, 12714.61
368.8274, 12690.50
369.3095, 12698.35
369.7916, 12728.36
370.2737, 12757.40
370.7558, 12775.68
371.2379, 12786.03
371.7201, 12793.64
372.2022, 12798.97
372.6843, 12796.45
373.1664, 12778.33
373.6485, 12754.05
374.1306, 12738.17
374.6128, 12732.72
375.0949, 12729.94
375.5770, 12722.87
376.0591, 12716.17
376.5412, 12725.18
377.0233, 12755.84
377.5055, 12779.46
377.9876, 12760.04
378.4697, 12691.68
378.9518, 12651.91
379.4339, 12659.12
379.9160, 12679.51
380.3982, 12702.78
380.8803, 12723.44
381.3624, 12727.88
381.8445, 12706.86
382.3266, 12671.37
382.8087, 12654.77
383.2909, 12680.29
383.7730, 12695.13
384.2551, 12691.83
384.7372, 12681.68
385.2193, 12669.81
385.7014, 12659.37
386.1836, 12656.90
386.6657, 12672.34
387.1478, 12707.18
387.6299, 12730.16
388.1120, 12735.80
388.5941, 12734.95
389.0763, 12723.58
389.5584, 12710.08
390.0405, 12708.66
390.5226, 12727.68
391.0047, 12754.36
391.4868, 12769.39
391.9690, 12772.07
392.4511, 12768.26
392.9332, 12750.78
393.4153, 12735.37
393.8974, 12739.19
394.3795, 12762.15
394.8617, 12784.00
395.3438, 12790.79
395.8259, 12791.51
396.3080, 12804.03
396.7901, 12830.65
397.2722, 12853.49
397.7544, 12856.82
398.2365, 12845.66
398.7186, 12847.67
399.2007, 12885.35
399.6828, 12910.81
400.1649, 12896.04
400.6471, 12859.01
401.1292, 12828.15
401.6113, 12812.65
402.0934, 12807.85
402.5755, 12807.83
403.0576, 12816.34
403.5398, 12817.81
404.0219, 12816.58
404.5040, 12805.47
404.9861, 12768.78
405.4682, 12718.79
405.9503, 12687.11
406.4325, 12696.91
406.9146, 12732.41
407.3967, 12733.58
407.8788, 12673.07
408.3609, 12634.83
408.8430, 12655.49
409.3252, 12689.25
409.8073, 12700.18
410.2894, 12683.05
410.7715, 12657.46
411.2536, 12636.93
411.7357, 12621.44
412.2179, 12611.21
412.7000, 12605.31
413.1821, 12607.07
413.6642, 12624.38
414.1463, 12650.75
414.6284, 12674.27
415.1106, 12701.18
415.5927, 12714.49
416.0748, 12692.25
416.5569, 12645.13
417.0390, 12606.05
417.5211, 12586.37
418.0033, 12578.29
418.4854, 12569.73
418.9675, 12557.32
419.4496, 12557.82
419.9317, 12597.37
420.4138, 12628.99
420.8960, 12603.15
421.3781, 12537.98
421.8602, 12499.56
422.3423, 12534.59
422.8244, 12620.50
423.3065, 12659.05
423.7887, 12620.96
424.2708, 12578.67
424.7529, 12532.68
425.2350, 12490.65
425.7171, 12458.91
426.1992, 12438.14
426.6814, 12424.91
427.1635, 12422.33
427.6456, 12428.16
428.1277, 12413.26
428.6098, 12366.18
429.0919, 12320.33
429.5741, 12291.10
430.0562, 12274.22
430.5383, 12266.25
431.0204, 12270.89
431.5025, 12274.42
431.9846, 12261.63
432.4668, 12237.63
432.9489, 12221.00
433.4310, 12216.99
433.9131, 12220.01
434.3952, 12226.87
434.8773, 12238.87
435.3595, 12237.19
435.8416, 12207.38
436.3237, 12175.66
436.8058, 12157.74
437.2879, 12151.14
437.7701, 12147.30
438.2522, 12141.99
438.7343, 12135.87
439.2164, 12130.73
439.6985, 12127.39
440.1806, 12123.61
440.6628, 12123.17
441.1449, 12119.22
441.6270, 12102.28
442.1091, 12076.37
442.5912, 12057.02
443.0733, 12058.24
443.5555, 12074.28
444.0376, 12082.81
444.5197, 12082.16
445.0018, 12078.71
445.4839, 12072.45
445.9660, 12065.77
446.4482, 12061.36
446.9303, 12059.88
447.4124, 12058.29
447.8945, 12058.20
448.3766, 12056.00
448.8587, 12041.16
449.3409, 12011.28
449.8230, 11982.36
450.3051, 11967.31
450.7872, 11964.92
451.2693, 11960.32
451.7514, 11947.20
452.2336, 11939.31
452.7157, 11947.00
453.1978, 11960.53
453.6799, 11965.82
454.1620, 11959.00
454.6441, 11946.78
455.1263, 11936.96
455.6084, 11928.98
456.0905, 11926.77
456.5726, 11942.25
457.0547, 11951.30
457.5368, 11943.76
458.0190, 11925.54
458.5011, 11904.61
458.9832, 11882.91
459.4653, 11866.40
459.9474, 11866.28
460.4295, 11882.82
460.9117, 11898.19
461.3938, 11913.37
461.8759, 11920.20
462.3580, 11899.00
462.8401, 11858.13
463.3222, 11844.93
463.8044, 11904.35
464.2865, 11971.59
464.7686, 11986.32
465.2507, 11957.35
465.7328, 11920.40
466.2149, 11888.54
466.6971, 11865.43
467.1792, 11859.69
467.6613, 11883.99
468.1434, 11899.45
468.6255, 11911.95
469.1076, 11910.87
469.5898, 11876.10
470.0719, 11820.90
470.5540, 11780.57
471.0361, 11777.86
471.5182, 11803.18
472.0003, 11833.23
472.4825, 11877.39
472.9646, 11899.96
473.4467, 11870.81
473.9288, 11833.23
474.4109, 11819.27
474.8930, 11827.57
475.3752, 11827.08
475.8573, 11783.92
476.3394, 11727.07
476.8215, 11713.68
477.3036, 11745.43
477.7857, 11769.78
478.2679, 11759.10
478.7500, 11725.62
479.2321, 11696.72
479.7142, 11668.87
480.1963, 11653.13
480.6784, 11658.55
481.1606, 11672.34
481.6427, 11688.72
482.1248, 11703.52
482.6069, 11704.36
483.0890, 11678.90
483.5711, 11635.18
484.0533, 11619.76
484.5354, 11662.18
485.0175, 11684.12
485.4996, 11655.48
485.9817, 11617.86
486.4638, 11602.28
486.9460, 11612.69
487.4281, 11637.17
487.9102, 11677.57
488.3923, 11724.39
488.8744, 11745.39
489.3565, 11736.40
489.8387, 11723.88
490.3208, 11717.28
490.8029, 11717.71
491.2850, 11727.26
491.7671, 11750.15
492.2492, 11769.86
492.7314, 11782.88
493.2135, 11788.54
493.6956, 11784.94
494.1777, 11772.52
494.6598, 11753.11
495.1419, 11725.91
495.6241, 11694.38
496.1062, 11680.46
496.5883, 11696.40
497.0704, 11713.91
497.5525, 11742.41
498.0346, 11763.06
498.5168, 11751.74
498.9989, 11711.26
499.4810, 11675.11
499.9631, 11672.93
500.4452, 11697.04
500.9273, 11722.74
501.4095, 11754.14
501.8916, 11768.74
502.3737, 11744.44
502.8558, 11704.55
503.3379, 11687.23
503.8200, 11698.31
504.3022, 11710.32
504.7843, 11717.20
505.2664, 11717.22
505.7485, 11700.53
506.2306, 11670.86
506.7127, 11654.43
507.1949, 11670.78
507.6770, 11711.36
508.1591, 11738.63
508.6412, 11744.62
509.1233, 11748.28
509.6054, 11754.80
510.0876, 11756.39
510.5697, 11741.18
511.0518, 11713.48
511.5339, 11693.93
512.0161, 11703.55
512.4982, 11728.04
512.9803, 11722.71
513.4624, 11680.69
513.9445, 11651.46
514.4266, 11659.55
514.9088, 11682.70
515.3909, 11691.19
515.8730, 11683.97
516.3551, 11676.96
516.8372, 11679.11
517.3193, 11680.53
517.8015, 11665.91
518.2836, 11640.54
518.7657, 11627.35
519.2478, 11639.37
519.7299, 11667.12
520.2120, 11687.43
520.6942, 11690.03
521.1763, 11705.27
521.6584, 11756.74
522.1405, 11797.40
522.6226, 11791.13
523.1047, 11753.10
523.5869, 11725.41
524.0690, 11732.59
524.5511, 11755.45
525.0332, 11759.40
525.5153, 11744.65
525.9974, 11745.69
526.4796, 11778.37
526.9617, 11816.85
527.4438, 11833.98
527.9259, 11832.00
528.4080, 11823.86
528.8901, 11804.88
529.3723, 11786.53
529.8544, 11779.05
530.3365, 11776.43
530.8186, 11767.97
531.3007, 11749.84
531.7828, 11722.37
532.2650, 11682.99
532.7471, 11626.63
533.2292, 11589.43
533.7113, 11588.46
534.1934, 11587.57
534.6755, 11575.21
535.1577, 11556.67
535.6398, 11541.26
536.1219, 11532.46
536.6040, 11518.40
537.0861, 11482.19
537.5682, 11431.67
538.0504, 11392.97
538.5325, 11370.07
539.0146, 11353.87
539.4967, 11342.78
539.9788, 11332.96
540.4609, 11306.13
540.9431, 11233.96
541.4252, 11184.96
541.9073, 11188.24
542.3894, 11210.86
542.8715, 11228.91
543.3536, 11235.28
543.8358, 11222.56
544.3179, 11178.97
544.8000, 11117.25
545.2821, 11097.98
545.7642, 11139.75
546.2463, 11173.03
546.7285, 11174.86
547.2106, 11165.43
547.6926, 11160.08
548.1747, 11158.81
548.6569, 11152.84
549.1390, 11128.20
549.6211, 11104.14
550.1032, 11114.81
550.5853, 11148.61
551.0674, 11148.92
551.5496, 11088.76
552.0317, 11007.10
552.5138, 10966.91
552.9959, 10980.06
553.4780, 10995.46
553.9601, 11017.64
554.4423, 11036.97
554.9244, 11049.60
555.4065, 11056.83
555.8886, 11062.15
556.3707, 11066.99
556.8528, 11066.00
557.3350, 11046.66
557.8171, 11012.59
558.2992, 10995.01
558.7813, 11000.17
559.2634, 11011.59
559.7455, 11024.41
560.2277, 11034.19
560.7098, 11028.53
561.1919, 11000.31
561.6740, 10969.03
562.1561, 10932.59
562.6382, 10901.11
563.1204, 10886.19
563.6025, 10887.89
564.0846, 10899.65
564.5667, 10918.80
565.0488, 10940.68
565.5309, 10946.38
566.0131, 10930.64
566.4952, 10912.09
566.9773, 10897.10
567.4594, 10877.21
567.9415, 10839.34
568.4236, 10789.34
568.9058, 10753.92
569.3879, 10751.97
569.8700, 10762.47
570.3521, 10766.84
570.8342, 10765.92
571.3163, 10760.96
571.7985, 10751.81
572.2806, 10744.49
572.7627, 10747.70
573.2448, 10763.62
573.7269, 10769.17
574.2090, 10750.82
574.6912, 10738.84
575.1733, 10752.27
575.6554, 10769.98
576.1375, 10766.20
576.6196, 10736.22
577.1017, 10699.09
577.5839, 10667.32
578.0660, 10642.24
578.5481, 10629.25
579.0302, 10629.12
579.5123, 10635.49
579.9944, 10647.27
580.4766, 10662.35
580.9587, 10678.59
581.4408, 10699.36
581.9229, 10708.52
582.4050, 10698.68
582.8871, 10681.13
583.3693, 10660.78
583.8514, 10639.09
584.3335, 10614.78
584.8156, 10587.32
585.2977, 10564.79
585.7798, 10563.52
586.2620, 10586.03
586.7441, 10600.52
587.2262, 10604.58
587.7083, 10602.04
588.1904, 10589.86
588.6725, 10573.91
589.1547, 10564.97
589.6368, 10568.53
590.1189, 10568.21
590.6010, 10554.05
591.0831, 10532.68
591.5652, 10508.34
592.0474, 10483.96
592.5295, 10470.49
593.0116, 10477.16
593.4937, 10494.48
593.9758, 10490.37
594.4579, 10447.68
594.9401, 10424.44
595.4222, 10445.80
595.9043, 10469.38
596.3864, 10472.15
596.8685, 10460.36
597.3506, 10452.91
597.8328, 10460.55
598.3149, 10467.32
598.7970, 10451.59
599.2791, 10424.33
599.7612, 10418.20
600.2433, 10439.52
600.7255, 10461.51
601.2076, 10462.27
601.6897, 10443.43
602.1718, 10418.05
602.6539, 10358.19
603.1360, 10331.28
603.6182, 10363.34
604.1003, 10412.99
604.5824, 10463.71
605.0645, 10505.09
605.5466, 10513.51
606.0287, 10459.84
606.5109, 10387.29
606.9930, 10366.59
607.4751, 10390.79
607.9572, 10403.74
608.4393, 10389.96
608.9214, 10368.29
609.4036, 10358.35
609.8857, 10360.14
610.3678, 10352.28
610.8499, 10320.15
611.3320, 10297.83
611.8141, 10305.05
612.2963, 10318.39
612.7784, 10309.11
613.2605, 10278.11
613.7426, 10254.44
614.2247, 10266.06
614.7068, 10295.54
615.1890, 10297.99
615.6711, 10272.24
616.1532, 10243.23
616.6353, 10212.76
617.1174, 10191.42
617.5995, 10195.54
618.0817, 10225.79
618.5638, 10248.46
619.0459, 10255.83
619.5280, 10262.87
620.0101, 10283.30
620.4922, 10302.69
620.9744, 10298.26
621.4565, 10268.80
621.9386, 10238.06
622.4207, 10229.16
622.9028, 10235.26
623.3849, 10226.49
623.8671, 10198.31
624.3492, 10182.74
624.8313, 10195.27
625.3134, 10217.86
625.7955, 10232.13
626.2776, 10238.57
626.7598, 10234.35
627.2419, 10201.21
627.7240, 10176.60
628.2061, 10187.28
628.6882, 10215.42
629.1703, 10237.15
629.6525, 10245.71
630.1346, 10243.84
630.6167, 10231.63
631.0988, 10211.66
631.5809, 10197.38
632.0630, 10187.80
632.5452, 10188.91
633.0273, 10214.25
633.5094, 10239.70
633.9915, 10231.15
634.4736, 10191.04
634.9557, 10169.44
635.4379, 10196.66
635.9200, 10223.45
636.4021, 10212.31
636.8842, 10186.28
637.3663, 10185.06
637.8484, 10216.31
638.3306, 10254.83
638.8127, 10276.61
639.2948, 10283.58
639.7769, 10285.64
640.2590, 10280.80
640.7411, 10277.71
641.2233, 10274.42
641.7054, 10278.42
642.1875, 10302.79
642.6696, 10345.25
643.1517, 10376.31
643.6339, 10388.34
644.1160, 10389.16
644.5981, 10366.61
645.0802, 10342.12
645.5623, 10353.69
646.0444, 10405.72
646.5266, 10464.47
647.0087, 10498.34
647.4908, 10512.67
647.9729, 10531.67
648.4550, 10555.02
648.9371, 10583.79
649.4193, 10617.07
649.9014, 10657.29
650.3835, 10707.57
650.8656, 10767.12
651.3477, 10832.83
651.8298, 10918.55
652.3120, 10994.32
652.7941, 11032.50
653.2762, 11059.37
653.7583, 11112.11
654.2404, 11194.46
654.7225, 11283.65
655.2047, 11363.21
655.6868, 11432.96
656.1689, 11485.95
656.6510, 11516.70
657.1331, 11568.06
657.6152, 11666.98
658.0974, 11762.48
658.5795, 11801.07
659.0616, 11794.53
659.5437, 11792.55
660.0258, 11810.10
660.5079, 11819.87
660.9901, 11816.88
661.4722, 11798.80
661.9543, 11763.13
662.4364, 11709.93
662.9185, 11637.57
663.4006, 11541.09
663.8828, 11435.74
664.3649, 11360.50
664.8470, 11316.96
665.3291, 11249.74
665.8112, 11143.58
666.2933, 11027.35
666.7755, 10916.64
667.2576, 10813.62
667.7397, 10724.63
668.2218, 10662.90
668.7039, 10594.10
669.1860, 10506.38
669.6682, 10413.67
670.1503, 10320.44
670.6324, 10231.40
671.1145, 10153.77
671.5966, 10090.29
672.0787, 10042.52
672.5609, 10022.83
673.0430, 10024.75
673.5251, 9996.922
674.0072, 9928.592
674.4893, 9864.468
674.9714, 9830.804
675.4536, 9819.392
675.9357, 9810.018
676.4178, 9803.302
676.8999, 9797.218
677.3820, 9792.072
677.8641, 9787.177
678.3463, 9785.347
678.8284, 9782.530
679.3105, 9774.495
679.7926, 9759.892
680.2747, 9732.553
680.7568, 9669.734
681.2390, 9594.230
681.7211, 9567.322
682.2032, 9589.108
682.6853, 9612.536
683.1674, 9617.188
683.6495, 9615.174
684.1317, 9628.720
684.6138, 9667.060
685.0959, 9671.528
685.5780, 9597.616
686.0601, 9543.121
686.5422, 9551.212
687.0244, 9578.138
687.5065, 9575.591
687.9886, 9539.232
688.4707, 9503.311
688.9528, 9488.957
689.4349, 9483.600
689.9171, 9473.736
690.3992, 9460.921
690.8813, 9450.414
691.3634, 9443.602
691.8455, 9436.688
692.3276, 9424.433
692.8098, 9408.814
693.2919, 9409.909
693.7740, 9441.227
694.2561, 9459.262
694.7382, 9448.712
695.2203, 9428.721
695.7025, 9410.336
696.1846, 9393.406
696.6667, 9376.068
697.1488, 9355.896
697.6309, 9338.181
698.1130, 9325.851
698.5952, 9317.599
699.0773, 9313.326
699.5594, 9311.835
700.0415, 9309.231
700.5236, 9302.929
701.0057, 9294.997
701.4879, 9292.111
701.9700, 9295.063
702.4521, 9285.396
702.9342, 9258.125
703.4163, 9225.773
703.8984, 9185.622
704.3806, 9149.608
704.8627, 9150.912
705.3448, 9211.994
705.8269, 9243.420
706.3090, 9215.581
706.7911, 9172.348
707.2733, 9122.303
707.7554, 9080.989
708.2375, 9078.718
708.7196, 9122.188
709.2017, 9165.569
709.6838, 9159.030
710.1660, 9120.997
710.6481, 9094.952
711.1302, 9081.492
711.6123, 9083.730
712.0944, 9107.326
712.5765, 9126.831
713.0587, 9105.923
713.5408, 9041.336
714.0229, 9006.335
714.5050, 9025.914
714.9871, 9041.716
715.4692, 9045.265
715.9514, 9041.224
716.4335, 9028.726
716.9156, 9011.225
717.3977, 9001.306
717.8798, 9007.757
718.3619, 9018.116
718.8441, 9025.563
719.3262, 9028.975
719.8083, 9024.772
720.2904, 9013.632
720.7725, 9001.843
721.2546, 8993.702
721.7368, 8987.494
722.2189, 8979.918
722.7010, 8971.572
723.1831, 8956.732
723.6652, 8930.598
724.1473, 8906.486
724.6295, 8892.485
725.1116, 8885.463
725.5937, 8878.442
726.0758, 8870.659
726.5579, 8865.678
727.0400, 8862.349
727.5222, 8863.788
728.0043, 8879.913
728.4864, 8899.046
728.9685, 8902.099
729.4506, 8884.541
729.9327, 8858.417
730.4149, 8830.569
730.8970, 8803.598
731.3791, 8782.536
731.8612, 8767.529
732.3433, 8761.072
732.8254, 8764.633
733.3076, 8771.785
733.7897, 8775.485
734.2718, 8776.417
734.7539, 8784.939
735.2360, 8818.391
735.7181, 8830.054
736.2003, 8789.900
736.6824, 8750.264
737.1645, 8753.150
737.6466, 8782.290
738.1287, 8788.772
738.6108, 8750.265
739.0930, 8710.273
739.5751, 8690.355
740.0572, 8683.921
740.5393, 8691.860
741.0214, 8706.673
741.5035, 8705.137
741.9857, 8676.213
742.4678, 8642.514
742.9499, 8642.364
743.4320, 8672.047
743.9141, 8675.598
744.3962, 8646.992
744.8784, 8622.857
745.3605, 8620.770
745.8426, 8624.194
746.3247, 8608.393
746.8068, 8569.702
747.2889, 8546.289
747.7711, 8543.425
748.2532, 8547.776
748.7353, 8564.646
749.2174, 8581.122
749.6995, 8584.731
750.1816, 8576.724
750.6638, 8566.963
751.1459, 8558.630
751.6280, 8552.991
752.1101, 8553.524
752.5922, 8556.766
753.0743, 8558.893
753.5565, 8557.936
754.0386, 8546.596
754.5207, 8520.264
755.0028, 8484.120
755.4849, 8443.666
755.9670, 8396.190
756.4492, 8372.030
756.9313, 8377.018
757.4134, 8392.818
757.8955, 8421.216
758.3776, 8448.970
758.8597, 8452.990
759.3419, 8431.143
759.8240, 8413.268
760.3061, 8399.364
760.7882, 8392.621
761.2703, 8396.582
761.7524, 8406.742
762.2346, 8424.754
762.7167, 8445.793
763.1988, 8451.509
763.6809, 8425.262
764.1630, 8390.405
764.6451, 8376.701
765.1273, 8374.849
765.6094, 8356.519
766.0915, 8320.590
766.5736, 8297.083
767.0557, 8306.021
767.5378, 8331.847
768.0200, 8341.205
768.5021, 8332.063
768.9842, 8318.038
769.4663, 8297.748
769.9484, 8275.228
770.4305, 8240.594
770.9127, 8212.736
771.3948, 8230.298
771.8769, 8299.616
772.3590, 8328.892
772.8411, 8273.808
773.3232, 8217.348
773.8054, 8183.599
774.2875, 8169.716
774.7696, 8183.790
775.2517, 8216.002
775.7338, 8228.669
776.2159, 8193.231
776.6981, 8146.731
777.1802, 8134.580
777.6623, 8142.124
778.1444, 8132.205
778.6265, 8103.240
779.1086, 8081.980
779.5908, 8084.032
780.0729, 8098.242
780.5550, 8104.776
781.0371, 8103.092
781.5192, 8098.718
782.0013, 8091.257
782.4835, 8081.788
782.9656, 8067.909
783.4477, 8054.912
783.9298, 8051.345
784.4119, 8057.500
784.8940, 8059.044
785.3762, 8045.314
785.8583, 8039.971
786.3404, 8059.932
786.8225, 8082.519
787.3046, 8087.396
787.7867, 8076.806
788.2689, 8064.926
788.7510, 8057.670
789.2331, 8050.703
789.7152, 8044.802
790.1973, 8034.435
790.6794, 8001.799
791.1616, 7954.270
791.6437, 7926.666
792.1258, 7933.832
792.6079, 7954.898
793.0900, 7962.329
793.5721, 7957.574
794.0543, 7956.446
794.5364, 7960.734
795.0185, 7956.714
795.5006, 7938.586
795.9827, 7914.799
796.4648, 7892.958
796.9470, 7872.793
797.4291, 7852.222
797.9112, 7812.575
798.3933, 7800.041
798.8754, 7843.587
799.3575, 7888.055
799.8397, 7906.652
800.3218, 7901.974
800.8039, 7878.766
801.2860, 7834.929
801.7681, 7795.742
802.2502, 7768.610
802.7324, 7756.381
803.2145, 7773.361
803.6966, 7803.487
804.1787, 7815.116
804.6608, 7801.997
805.1429, 7784.972
805.6251, 7782.782
806.1072, 7786.657
806.5893, 7773.632
807.0714, 7747.124
807.5535, 7738.455
808.0356, 7754.563
808.5178, 7758.375
808.9999, 7720.591
809.4820, 7663.701
809.9641, 7647.217
810.4462, 7684.939
810.9283, 7712.701
811.4105, 7728.791
811.8926, 7737.815
812.3747, 7738.495
812.8568, 7734.827
813.3389, 7735.726
813.8210, 7741.040
814.3032, 7725.903
814.7853, 7649.794
815.2674, 7599.715
815.7495, 7630.744
816.2316, 7680.778
816.7137, 7695.272
817.1959, 7676.388
817.6780, 7649.474
818.1601, 7622.486
818.6422, 7602.478
819.1243, 7596.103
819.6064, 7599.942
820.0886, 7615.062
820.5707, 7635.893
821.0528, 7636.781
821.5349, 7610.321
822.0170, 7633.405
822.4991, 7639.068
822.9813, 7628.410
823.4634, 7542.857
823.9455, 7561.466
824.4276, 7542.881
824.9097, 7525.886
825.3918, 7568.443
825.8740, 7510.498
826.3561, 7558.658
826.8382, 7569.008
827.3203, 7601.399
827.8024, 7542.646
828.2845, 7538.290
828.7667, 7529.386
829.2488, 7518.480
829.7309, 7504.809
830.2130, 7484.551
830.6951, 7457.719
831.1772, 7439.875
831.6594, 7438.931
832.1415, 7442.570
832.6236, 7450.703
833.1057, 7456.964
833.5878, 7454.440
834.0699, 7444.120
834.5521, 7430.251
835.0342, 7413.545
835.5163, 7400.427
835.9984, 7395.581
836.4805, 7398.836
836.9626, 7417.284
837.4448, 7444.140
837.9269, 7454.012
838.4090, 7438.962
838.8911, 7415.664
839.3732, 7400.168
839.8553, 7391.799
840.3375, 7391.163
840.8196, 7398.612
841.3017, 7392.785
841.7838, 7366.551
842.2659, 7344.073
842.7480, 7343.859
843.2302, 7355.707
843.7123, 7352.495
844.1944, 7325.772
844.6765, 7313.087
845.1586, 7330.126
845.6407, 7337.813
846.1229, 7309.013
846.6050, 7274.562
847.0871, 7267.500
847.5692, 7285.847
848.0513, 7298.587
848.5334, 7296.147
849.0156, 7294.940
849.4977, 7308.237
849.9798, 7316.522
850.4619, 7300.004
850.9440, 7267.436
851.4261, 7238.546
851.9083, 7219.071
852.3904, 7206.091
852.8725, 7196.741
853.3546, 7193.507
853.8367, 7207.702
854.3188, 7227.359
854.8010, 7223.523
855.2831, 7194.498
855.7652, 7169.406
856.2473, 7170.382
856.7294, 7185.123
857.2115, 7192.949
857.6937, 7195.531
858.1758, 7203.824
858.6579, 7218.134
859.1400, 7217.559
859.6221, 7190.765
860.1042, 7156.273
860.5864, 7141.227
861.0685, 7144.809
861.5506, 7141.356
862.0327, 7129.025
862.5148, 7116.502
862.9969, 7104.354
863.4791, 7094.748
863.9612, 7089.330
864.4433, 7087.792
864.9254, 7089.602
865.4075, 7101.237
865.8896, 7102.597
866.3718, 7080.638
866.8539, 7064.405
867.3360, 7061.824
867.8181, 7071.563
868.3002, 7107.144
868.7823, 7163.376
869.2645, 7174.107
869.7466, 7074.519
870.2287, 6988.801
870.7108, 6971.041
871.1929, 6981.954
871.6750, 6998.607
872.1572, 7011.976
872.6393, 7007.459
873.1214, 6979.134
873.6035, 6959.037
874.0856, 6985.860
874.5677, 7020.068
875.0499, 7010.068
875.5320, 6974.903
876.0141, 6955.731
876.4962, 6959.646
876.9783, 6971.730
877.4604, 6984.044
877.9426, 6990.452
878.4247, 6973.912
878.9068, 6942.990
879.3889, 6934.547
879.8710, 6948.589
880.3531, 6951.346
880.8353, 6928.425
881.3174, 6902.618
881.7995, 6902.775
882.2816, 6923.433
882.7637, 6928.450
883.2458, 6915.198
883.7280, 6907.404
884.2101, 6854.937
884.6922, 6894.822
885.1743, 6914.035
885.6564, 6913.687
886.1385, 6835.188
886.6207, 6857.602
887.1028, 6839.577
887.5849, 6819.892
888.0670, 6856.512
888.5491, 6789.380
889.0313, 6825.105
889.5134, 6819.772
889.9955, 6833.232
890.4776, 6806.000
890.9597, 6791.335
891.4418, 6817.376
891.9240, 6820.876
892.4061, 6788.959
892.8882, 6803.614
893.3703, 6735.061
893.8524, 6739.522
894.3345, 6745.186
894.8167, 6733.242
895.2988, 6742.990
895.7809, 6749.933
896.2630, 6731.532
896.7451, 6710.982
897.2272, 6717.472
897.7094, 6742.548
898.1915, 6759.805
898.6736, 6759.817
899.1557, 6751.651
899.6378, 6738.337
900.1199, 6724.150
900.6021, 6714.417
901.0842, 6707.922
901.5663, 6702.652
902.0484, 6697.747
902.5305, 6690.485
903.0126, 6678.231
903.4948, 6668.887
903.9769, 6678.521
904.4590, 6699.907
904.9411, 6713.379
905.4232, 6717.081
905.9053, 6701.902
906.3875, 6665.170
906.8696, 6627.712
907.3517, 6608.766
907.8338, 6605.953
908.3159, 6617.795
908.7980, 6644.552
909.2802, 6644.137
909.7623, 6607.528
910.2444, 6581.269
910.7265, 6591.504
911.2086, 6611.649
911.6907, 6599.678
912.1729, 6556.396
912.6550, 6548.487
913.1371, 6593.647
913.6192, 6616.553
914.1013, 6594.650
914.5834, 6566.412
915.0656, 6555.954
915.5477, 6557.319
916.0298, 6557.352
916.5119, 6556.752
916.9940, 6551.973
917.4761, 6534.727
917.9583, 6525.070
918.4404, 6540.431
918.9225, 6554.030
919.4046, 6538.354
919.8867, 6502.680
920.3688, 6482.535
920.8510, 6487.850
921.3331, 6492.328
921.8152, 6494.137
922.2973, 6492.128
922.7794, 6480.332
923.2615, 6467.951
923.7437, 6469.003
924.2258, 6481.728
924.7079, 6486.581
925.1900, 6476.389
925.6721, 6459.608
926.1542, 6429.098
926.6364, 6403.293
927.1185, 6402.061
927.6006, 6414.268
928.0827, 6419.854
928.5648, 6414.569
929.0469, 6407.359
929.5291, 6400.282
930.0112, 6396.479
930.4933, 6403.450
930.9754, 6411.542
931.4575, 6403.089
931.9396, 6385.194
932.4218, 6384.628
932.9039, 6410.559
933.3860, 6431.180
933.8681, 6411.798
934.3502, 6377.625
934.8323, 6359.669
935.3145, 6352.473
935.7966, 6346.279
936.2787, 6338.896
936.7608, 6330.523
937.2429, 6321.397
937.7250, 6309.597
938.2072, 6288.409
938.6893, 6264.491
939.1714, 6253.032
939.6535, 6252.814
940.1356, 6261.485
940.6177, 6276.831
941.0999, 6284.423
941.5820, 6272.947
942.0641, 6254.112
942.5462, 6252.638
943.0283, 6263.222
943.5104, 6253.739
943.9926, 6225.090
944.4747, 6209.098
944.9568, 6215.931
945.4389, 6221.641
945.9210, 6202.489
946.4031, 6171.587
946.8853, 6171.491
947.3674, 6201.926
947.8495, 6201.977
948.3316, 6163.502
948.8137, 6148.899
949.2958, 6186.657
949.7780, 6235.395
950.2601, 6250.007
950.7422, 6234.619
951.2243, 6206.099
951.7064, 6159.042
952.1885, 6136.089
952.6707, 6146.168
953.1528, 6163.619
953.6349, 6179.962
954.1170, 6190.222
954.5991, 6185.059
955.0812, 6165.820
955.5634, 6162.892
956.0455, 6182.357
956.5276, 6199.904
957.0097, 6214.307
957.4918, 6223.099
957.9739, 6223.894
958.4561, 6219.639
958.9382, 6216.627
959.4203, 6215.987
959.9024, 6198.262
960.3845, 6143.663
960.8666, 6112.318
961.3488, 6125.455
961.8309, 6146.868
962.3130, 6158.459
962.7951, 6161.574
963.2772, 6157.389
963.7593, 6143.464
964.2415, 6135.438
964.7236, 6145.925
965.2057, 6143.953
965.6878, 6107.593
966.1699, 6073.486
966.6520, 6067.072
967.1342, 6079.549
967.6163, 6092.669
968.0984, 6108.544
968.5805, 6114.702
969.0626, 6102.250
969.5447, 6091.169
970.0269, 6091.482
970.5090, 6090.401
970.9911, 6076.747
971.4732, 6054.095
971.9553, 6029.625
972.4374, 5996.490
972.9196, 5988.559
973.4017, 6046.550
973.8838, 6084.276
974.3659, 6053.842
974.8480, 6005.093
975.3301, 5981.359
975.8123, 5977.352
976.2944, 5967.701
976.7765, 5943.753
977.2586, 5929.767
977.7407, 5941.494
978.2228, 5951.729
978.7050, 5947.798
979.1871, 5937.296
979.6692, 5927.824
980.1513, 5919.010
980.6334, 5905.263
981.1155, 5879.946
981.5977, 5866.999
982.0798, 5882.245
982.5619, 5901.372
983.0440, 5920.347
983.5261, 5930.683
984.0082, 5918.768
984.4904, 5889.943
984.9725, 5865.397
985.4546, 5848.260
985.9367, 5842.983
986.4188, 5869.450
986.9009, 5887.552
987.3831, 5866.006
987.8652, 5828.434
988.3473, 5794.506
988.8294, 5771.583
989.3115, 5776.176
989.7936, 5827.293
990.2758, 5864.421
990.7579, 5855.482
991.2400, 5832.387
991.7221, 5804.587
992.2042, 5781.831
992.6863, 5778.553
993.1685, 5790.841
993.6506, 5795.133
994.1327, 5776.318
994.6148, 5770.400
995.0969, 5815.206
995.5790, 5854.904
996.0612, 5843.146
996.5433, 5809.039
997.0254, 5791.513
997.5075, 5790.754
997.9896, 5781.718
998.4717, 5751.200
998.9539, 5725.726
999.4360, 5719.444
999.9181, 5720.301
1000.400, 5721.068
1000.882, 5723.282
1001.364, 5735.667
1001.847, 5752.963
1002.329, 5749.010
1002.811, 5701.851
1003.293, 5673.513
1003.775, 5709.370
1004.257, 5756.291
1004.739, 5787.797
1005.221, 5802.063
1005.703, 5792.651
1006.186, 5765.765
1006.668, 5743.550
1007.150, 5734.761
1007.632, 5726.905
1008.114, 5712.910
1008.596, 5699.515
1009.078, 5684.848
1009.560, 5677.581
1010.043, 5696.167
1010.525, 5732.241
1011.007, 5750.011
1011.489, 5732.289
1011.971, 5719.233
1012.453, 5735.854
1012.935, 5753.483
1013.417, 5754.063
1013.899, 5746.567
1014.382, 5736.881
1014.864, 5729.372
1015.346, 5735.032
1015.828, 5761.507
1016.310, 5780.901
1016.792, 5772.816
1017.274, 5766.344
1017.756, 5784.496
1018.239, 5806.559
1018.721, 5809.731
1019.203, 5797.523
1019.685, 5787.331
1020.167, 5784.797
1020.649, 5775.931
1021.131, 5741.699
1021.613, 5718.045
1022.095, 5733.688
1022.578, 5757.022
1023.060, 5762.424
1023.542, 5750.299
1024.024, 5724.796
1024.506, 5683.028
1024.988, 5652.409
1025.470, 5642.849
1025.952, 5642.105
1026.435, 5655.271
1026.917, 5666.827
1027.399, 5662.190
1027.881, 5647.157
1028.363, 5636.756
1028.845, 5634.522
1029.327, 5622.774
1029.809, 5588.688
1030.292, 5558.104
1030.774, 5542.159
1031.256, 5527.534
1031.738, 5502.755
1032.220, 5473.894
1032.702, 5452.717
1033.184, 5440.611
1033.666, 5428.199
1034.148, 5405.255
1034.630, 5395.651
1035.113, 5418.266
1035.595, 5438.848
1036.077, 5438.960
1036.559, 5425.168
1037.041, 5404.193
1037.523, 5375.756
1038.005, 5355.625
1038.487, 5341.962
1038.970, 5340.116
1039.452, 5370.652
1039.934, 5386.143
1040.416, 5348.607
1040.898, 5300.281
1041.380, 5297.773
1041.862, 5335.292
1042.344, 5347.270
1042.826, 5318.626
1043.309, 5297.412
1043.791, 5287.241
1044.273, 5281.071
1044.755, 5278.735
1045.237, 5275.791
1045.719, 5267.103
1046.201, 5254.066
1046.683, 5242.240
1047.166, 5228.523
1047.648, 5228.494
1048.130, 5250.305
1048.612, 5260.765
1049.094, 5246.010
1049.576, 5227.282
1050.058, 5223.351
1050.540, 5227.590
1051.022, 5221.496
1051.505, 5203.806
1051.987, 5186.785
1052.469, 5168.800
1052.951, 5165.277
1053.433, 5183.226
1053.915, 5197.138
1054.397, 5189.222
1054.879, 5169.115
1055.361, 5152.641
1055.844, 5140.192
1056.326, 5137.895
1056.808, 5145.681
1057.290, 5151.684
1057.772, 5153.937
1058.254, 5148.279
1058.736, 5131.939
1059.218, 5113.771
1059.701, 5106.096
1060.183, 5105.589
1060.665, 5099.310
1061.147, 5089.458
1061.629, 5090.539
1062.111, 5102.448
1062.593, 5111.807
1063.075, 5113.234
1063.557, 5106.490
1064.040, 5089.229
1064.522, 5068.039
1065.004, 5055.479
1065.486, 5048.425
1065.968, 5041.233
1066.450, 5032.272
1066.932, 5013.024
1067.414, 4984.791
1067.896, 4974.747
1068.379, 5008.508
1068.861, 5041.041
1069.343, 5006.238
1069.825, 4950.270
1070.307, 4937.804
1070.789, 4954.767
1071.271, 4973.038
1071.753, 4984.244
1072.236, 4981.755
1072.718, 4960.168
1073.200, 4942.007
1073.682, 4946.040
1074.164, 4957.622
1074.646, 4973.521
1075.128, 4983.212
1075.610, 4968.649
1076.093, 4938.108
1076.575, 4915.460
1077.057, 4907.082
1077.539, 4902.377
1078.021, 4902.283
1078.503, 4897.615
1078.985, 4870.641
1079.467, 4850.890
1079.949, 4871.970
1080.432, 4910.795
1080.914, 4927.463
1081.396, 4918.296
1081.878, 4908.887
1082.360, 4903.336
1082.842, 4898.512
1083.324, 4898.868
1083.806, 4893.989
1084.288, 4870.902
1084.771, 4846.448
1085.253, 4842.021
1085.735, 4852.984
1086.217, 4857.150
1086.699, 4857.800
1087.181, 4841.049
1087.663, 4788.993
1088.145, 4756.589
1088.628, 4763.118
1089.110, 4784.672
1089.592, 4810.088
1090.074, 4831.042
1090.556, 4826.917
1091.038, 4796.421
1091.520, 4779.165
1092.002, 4777.276
1092.484, 4775.615
1092.967, 4771.575
1093.449, 4769.563
1093.931, 4772.426
1094.413, 4774.847
1094.895, 4769.931
1095.377, 4759.185
1095.859, 4747.649
1096.341, 4735.392
1096.823, 4720.318
1097.306, 4703.777
1097.788, 4701.756
1098.270, 4718.272
1098.752, 4732.906
1099.234, 4729.167
1099.716, 4715.866
1100.198, 4702.398
1100.680, 4691.411
1101.163, 4688.733
1101.645, 4693.071
1102.127, 4706.292
1102.609, 4723.425
1103.091, 4723.671
1103.573, 4696.412
1104.055, 4666.519
1104.537, 4650.847
1105.020, 4645.876
1105.502, 4657.898
1105.984, 4671.547
1106.466, 4663.583
1106.948, 4643.213
1107.430, 4634.905
1107.912, 4643.353
1108.394, 4651.550
1108.876, 4655.681
1109.359, 4653.619
1109.841, 4636.827
1110.323, 4622.296
1110.805, 4625.660
1111.287, 4633.595
1111.769, 4626.317
1112.251, 4607.275
1112.733, 4600.756
1113.215, 4621.068
1113.698, 4623.272
1114.180, 4592.121
1114.662, 4564.713
1115.144, 4543.344
1115.626, 4537.375
1116.108, 4563.283
1116.590, 4598.057
1117.072, 4595.507
1117.555, 4555.360
1118.037, 4536.598
1118.519, 4544.726
1119.001, 4539.853
1119.483, 4513.190
1119.965, 4503.782
1120.447, 4530.640
1120.929, 4562.986
1121.411, 4568.984
1121.894, 4557.266
1122.376, 4549.397
1122.858, 4543.943
1123.340, 4531.381
1123.822, 4513.347
1124.304, 4500.682
1124.786, 4495.409
1125.268, 4489.987
1125.750, 4479.641
1126.233, 4475.754
1126.715, 4504.208
1127.197, 4535.561
1127.679, 4522.268
1128.161, 4487.719
1128.643, 4462.069
1129.125, 4451.230
1129.607, 4463.987
1130.090, 4498.804
1130.572, 4519.843
1131.054, 4504.102
1131.536, 4479.352
1132.018, 4447.615
1132.500, 4425.487
1132.982, 4435.109
1133.464, 4452.857
1133.947, 4446.697
1134.429, 4422.161
1134.911, 4411.374
1135.393, 4424.505
1135.875, 4429.597
1136.357, 4419.699
1136.839, 4407.868
1137.321, 4392.058
1137.803, 4381.210
1138.286, 4382.649
1138.768, 4389.553
1139.250, 4393.710
1139.732, 4394.112
1140.214, 4377.134
1140.696, 4337.637
1141.178, 4322.777
1141.660, 4337.771
1142.142, 4354.213
1142.625, 4363.589
1143.107, 4360.930
1143.589, 4340.021
1144.071, 4316.904
1144.553, 4325.099
1145.035, 4351.875
1145.517, 4358.751
1145.999, 4350.377
1146.482, 4339.916
1146.964, 4330.545
1147.446, 4325.015
1147.928, 4324.096
1148.410, 4323.460
1148.892, 4322.615
1149.374, 4316.112
1149.856, 4290.227
1150.339, 4264.803
1150.821, 4261.062
1151.303, 4270.446
1151.785, 4282.476
1152.267, 4293.278
1152.749, 4295.558
1153.231, 4284.005
1153.713, 4278.120
1154.195, 4295.593
1154.677, 4300.838
1155.160, 4264.574
1155.642, 4233.767
1156.124, 4245.938
1156.606, 4273.675
1157.088, 4278.287
1157.570, 4261.077
1158.052, 4235.076
1158.534, 4195.097
1159.017, 4170.021
1159.499, 4161.762
1159.981, 4168.435
1160.463, 4191.308
1160.945, 4215.455
1161.427, 4231.339
1161.909, 4235.992
1162.391, 4217.393
1162.874, 4186.285
1163.356, 4181.638
1163.838, 4195.213
1164.320, 4202.962
1164.802, 4202.076
1165.284, 4193.113
1165.766, 4178.002
1166.248, 4170.703
1166.730, 4183.937
1167.213, 4199.078
1167.695, 4207.735
1168.177, 4204.235
1168.659, 4169.483
1169.141, 4129.751
1169.623, 4121.399
1170.105, 4136.434
1170.587, 4142.154
1171.069, 4131.420
1171.552, 4123.326
1172.034, 4124.583
1172.516, 4123.206
1172.998, 4115.066
1173.480, 4107.012
1173.962, 4099.215
1174.444, 4097.448
1174.926, 4112.666
1175.409, 4134.923
1175.891, 4123.152
1176.373, 4072.359
1176.855, 4065.167
1177.337, 4102.825
1177.819, 4126.220
1178.301, 4124.516
1178.783, 4116.198
1179.266, 4110.290
1179.748, 4104.959
1180.230, 4098.952
1180.712, 4091.237
1181.194, 4077.157
1181.676, 4062.212
1182.158, 4058.338
1182.640, 4060.445
1183.122, 4055.284
1183.604, 4043.454
1184.087, 4037.789
1184.569, 4044.003
1185.051, 4048.499
1185.533, 4046.114
1186.015, 4039.278
1186.497, 4020.992
1186.979, 4007.136
1187.461, 4012.901
1187.944, 4027.114
1188.426, 4036.092
1188.908, 4039.143
1189.390, 4031.132
1189.872, 4004.780
1190.354, 3994.898
1190.836, 4006.577
1191.318, 4012.593
1191.801, 4007.264
1192.283, 3991.969
1192.765, 3965.968
1193.247, 3942.755
1193.729, 3940.597
1194.211, 3951.448
1194.693, 3960.122
1195.175, 3964.126
1195.657, 3948.793
1196.140, 3924.527
1196.622, 3925.261
1197.104, 3951.904
1197.586, 3976.306
1198.068, 3987.023
1198.550, 3984.054
1199.032, 3953.829
1199.514, 3927.527
1199.996, 3927.528
1200.479, 3933.603
1200.961, 3934.382
1201.443, 3928.026
1201.925, 3906.801
1202.407, 3875.192
1202.889, 3866.165
1203.371, 3889.330
1203.853, 3905.641
1204.336, 3916.965
1204.818, 3911.641
1205.300, 3880.821
1205.782, 3866.514
1206.264, 3894.776
1206.746, 3925.949
1207.228, 3909.504
1207.710, 3867.943
1208.193, 3859.651
1208.675, 3871.990
1209.157, 3865.990
1209.639, 3848.316
1210.121, 3846.006
1210.603, 3859.867
1211.085, 3870.421
1211.567, 3869.902
1212.049, 3868.917
1212.531, 3877.221
1213.014, 3882.438
1213.496, 3876.786
1213.978, 3867.143
1214.460, 3856.600
1214.942, 3846.072
1215.424, 3835.725
1215.906, 3826.125
1216.388, 3818.080
1216.871, 3809.882
1217.353, 3817.335
1217.835, 3849.481
1218.317, 3856.276
1218.799, 3827.266
1219.281, 3795.355
1219.763, 3773.128
1220.245, 3766.059
1220.728, 3781.709
1221.210, 3804.570
1221.692, 3807.014
1222.174, 3796.858
1222.656, 3784.748
1223.138, 3775.463
1223.620, 3782.222
1224.102, 3799.151
1224.584, 3805.730
1225.067, 3797.528
1225.549, 3790.918
1226.031, 3794.017
1226.513, 3797.473
1226.995, 3804.894
1227.477, 3803.333
1227.959, 3777.932
1228.441, 3750.710
1228.923, 3734.695
1229.406, 3730.664
1229.888, 3743.983
1230.370, 3771.294
1230.852, 3771.377
1231.334, 3742.740
1231.816, 3723.789
1232.298, 3716.808
1232.780, 3720.349
1233.263, 3732.681
1233.745, 3739.022
1234.227, 3730.833
1234.709, 3718.451
1235.191, 3712.251
1235.673, 3707.848
1236.155, 3702.504
1236.637, 3694.325
1237.120, 3676.276
1237.602, 3656.927
1238.084, 3649.928
1238.566, 3654.708
1239.048, 3662.171
1239.530, 3671.256
1240.012, 3681.930
1240.494, 3706.277
1240.976, 3705.663
1241.458, 3662.276
1241.941, 3628.516
1242.423, 3628.172
1242.905, 3637.227
##END=



