##NAMES=Grunerite
##RRUFFID=R070186
##IDEAL CHEMISTRY=[box]Fe^2+^_2_Fe^2+^_5_Si_8_O_22_(OH)_2_
##LOCALITY=Homestake mine, 3800' level, Lead, Lawrence County, South Dakota, USA
##OWNER=RRUFF
##SOURCE=California Institute of Technology
##DESCRIPTION=Parallel aggregate of brown acicular to fibrous crystals
##STATUS=The identification of this mineral is confirmed by single-crystal X-ray diffraction and chemical analysis.
##URL=rruff.info/R070186
##MEASURED CHEMISTRY=([box]_0.96_Ca_0.04_)_Σ=1_(Fe_4.34_Mg_2.43_Mn_0.14_Al_0.05_)_Σ=7_(Si_7.95_Al_0.05_)_Σ=8_O_22_(OH)_2_ ; OH estimated by difference
93.82880, 63.90979
94.31091, 70.20839
94.79303, 72.83486
95.27515, 65.12828
95.75726, 50.28569
96.23938, 37.52634
96.72150, 36.43393
97.20361, 50.24889
97.68573, 61.47113
98.16785, 71.19390
98.64996, 78.18968
99.13208, 80.76246
99.61420, 79.26345
100.0963, 76.21890
100.5784, 74.71859
101.0605, 75.52523
101.5427, 76.13860
102.0248, 77.75272
102.5069, 78.52916
102.9890, 75.38750
103.4711, 67.80811
103.9532, 60.36326
104.4354, 61.47592
104.9175, 76.94780
105.3996, 86.13346
105.8817, 81.80453
106.3638, 71.42766
106.8459, 64.80130
107.3281, 65.08144
107.8102, 70.17368
108.2923, 78.21741
108.7744, 91.92332
109.2565, 99.68430
109.7386, 91.03494
110.2208, 72.69071
110.7029, 63.39287
111.1850, 72.49841
111.6671, 90.69852
112.1492, 101.4824
112.6313, 103.1466
113.1135, 103.2201
113.5956, 106.8069
114.0777, 113.4131
114.5598, 118.1051
115.0419, 116.4836
115.5240, 113.8051
116.0062, 116.6217
116.4883, 126.6623
116.9704, 139.0707
117.4525, 149.7140
117.9346, 158.6548
118.4167, 165.6571
118.8989, 168.8087
119.3810, 170.6876
119.8631, 172.9891
120.3452, 175.8847
120.8273, 180.1092
121.3094, 186.9074
121.7916, 196.7347
122.2737, 207.9797
122.7558, 222.0190
123.2379, 236.4109
123.7200, 248.1996
124.2021, 255.7232
124.6843, 261.5337
125.1664, 271.6721
125.6485, 287.7787
126.1306, 306.0988
126.6127, 326.6909
127.0948, 348.2779
127.5770, 369.9645
128.0591, 391.3315
128.5412, 412.0195
129.0233, 429.4250
129.5054, 436.7343
129.9875, 449.4260
130.4697, 472.0578
130.9518, 501.1631
131.4339, 532.2684
131.9160, 562.9693
132.3981, 593.0565
132.8802, 620.8432
133.3624, 645.2753
133.8445, 668.2997
134.3266, 691.0483
134.8087, 712.4985
135.2908, 730.6825
135.7729, 743.9492
136.2551, 752.5491
136.7372, 761.5792
137.2193, 770.1014
137.7014, 779.9100
138.1835, 792.2833
138.6656, 806.4733
139.1478, 820.8829
139.6299, 834.3350
140.1120, 846.8348
140.5941, 859.5658
141.0762, 868.1088
141.5583, 880.8317
142.0405, 903.3399
142.5226, 933.8673
143.0047, 965.1953
143.4868, 991.0904
143.9689, 1011.512
144.4510, 1041.662
144.9332, 1085.814
145.4153, 1134.637
145.8974, 1183.025
146.3795, 1230.979
146.8616, 1281.567
147.3438, 1338.745
147.8259, 1402.265
148.3080, 1458.079
148.7901, 1498.680
149.2722, 1537.206
149.7543, 1583.288
150.2365, 1637.615
150.7186, 1694.592
151.2007, 1750.158
151.6828, 1804.588
152.1649, 1861.838
152.6470, 1933.177
153.1292, 2000.679
153.6113, 2046.381
154.0934, 2068.496
154.5755, 2081.461
155.0576, 2090.632
155.5397, 2098.908
156.0219, 2118.583
156.5040, 2155.623
156.9861, 2203.075
157.4682, 2255.950
157.9503, 2315.119
158.4324, 2371.794
158.9146, 2417.747
159.3967, 2455.616
159.8788, 2490.509
160.3609, 2528.158
160.8430, 2561.781
161.3251, 2583.046
161.8073, 2592.868
162.2894, 2585.634
162.7715, 2547.497
163.2536, 2489.826
163.7357, 2430.157
164.2178, 2370.063
164.7000, 2313.129
165.1821, 2266.466
165.6642, 2230.933
166.1463, 2203.888
166.6284, 2187.350
167.1105, 2177.431
167.5927, 2167.888
168.0748, 2153.414
168.5569, 2138.559
169.0390, 2133.365
169.5211, 2139.446
170.0032, 2152.113
170.4854, 2173.667
170.9675, 2198.932
171.4496, 2218.789
171.9317, 2222.998
172.4138, 2221.646
172.8959, 2241.912
173.3781, 2292.951
173.8602, 2348.183
174.3423, 2395.265
174.8244, 2438.823
175.3065, 2484.549
175.7886, 2534.752
176.2708, 2589.437
176.7529, 2650.462
177.2350, 2722.587
177.7171, 2792.359
178.1992, 2853.665
178.6813, 2909.988
179.1634, 2965.045
179.6456, 3019.796
180.1277, 3076.043
180.6098, 3139.950
181.0919, 3213.729
181.5740, 3292.018
182.0561, 3373.801
182.5383, 3458.124
183.0204, 3545.292
183.5025, 3638.019
183.9846, 3729.759
184.4667, 3801.762
184.9488, 3849.502
185.4310, 3882.200
185.9131, 3900.249
186.3952, 3908.269
186.8773, 3913.375
187.3594, 3920.225
187.8415, 3922.079
188.3237, 3899.907
188.8058, 3844.659
189.2879, 3778.712
189.7700, 3708.145
190.2521, 3631.648
190.7342, 3546.323
191.2164, 3451.206
191.6985, 3348.466
192.1806, 3241.955
192.6627, 3123.294
193.1448, 3015.951
193.6269, 2924.846
194.1091, 2843.909
194.5912, 2767.507
195.0733, 2693.423
195.5554, 2622.459
196.0375, 2558.027
196.5196, 2505.827
197.0018, 2448.407
197.4839, 2376.103
197.9660, 2302.348
198.4481, 2237.777
198.9302, 2185.921
199.4123, 2145.739
199.8945, 2117.327
200.3766, 2110.393
200.8587, 2095.717
201.3408, 2062.467
201.8229, 2026.922
202.3050, 2003.363
202.7872, 1995.115
203.2693, 1993.159
203.7514, 1982.878
204.2335, 1960.534
204.7156, 1937.942
205.1977, 1915.430
205.6799, 1893.042
206.1620, 1869.778
206.6441, 1845.882
207.1262, 1823.730
207.6083, 1807.004
208.0904, 1798.563
208.5726, 1788.707
209.0547, 1777.319
209.5368, 1764.744
210.0189, 1751.440
210.5010, 1737.357
210.9831, 1721.642
211.4653, 1702.136
211.9474, 1676.016
212.4295, 1657.170
212.9116, 1647.656
213.3937, 1643.078
213.8758, 1645.349
214.3580, 1651.982
214.8401, 1655.723
215.3222, 1648.080
215.8043, 1626.447
216.2864, 1610.952
216.7685, 1607.971
217.2507, 1605.056
217.7328, 1598.261
218.2149, 1587.473
218.6970, 1573.424
219.1791, 1555.136
219.6612, 1532.192
220.1434, 1520.424
220.6255, 1533.983
221.1076, 1545.493
221.5897, 1549.448
222.0718, 1545.601
222.5539, 1533.945
223.0361, 1512.988
223.5182, 1484.207
224.0003, 1465.451
224.4824, 1468.926
224.9645, 1469.650
225.4466, 1458.215
225.9288, 1441.566
226.4109, 1432.024
226.8930, 1438.026
227.3751, 1453.432
227.8572, 1451.424
228.3393, 1411.558
228.8215, 1381.403
229.3036, 1372.992
229.7857, 1376.511
230.2678, 1381.446
230.7499, 1383.170
231.2320, 1382.496
231.7142, 1381.435
232.1963, 1380.505
232.6784, 1378.135
233.1605, 1371.289
233.6426, 1364.661
234.1247, 1363.472
234.6069, 1369.239
235.0890, 1377.256
235.5711, 1378.972
236.0532, 1371.010
236.5353, 1364.662
237.0174, 1359.630
237.4996, 1357.076
237.9817, 1358.750
238.4638, 1364.580
238.9459, 1371.791
239.4280, 1377.886
239.9101, 1383.959
240.3923, 1384.631
240.8744, 1375.099
241.3565, 1363.913
241.8386, 1353.518
242.3207, 1344.874
242.8028, 1339.353
243.2850, 1340.409
243.7671, 1349.222
244.2492, 1350.180
244.7313, 1334.350
245.2134, 1318.653
245.6955, 1307.208
246.1777, 1300.853
246.6598, 1300.716
247.1419, 1310.396
247.6240, 1327.974
248.1061, 1335.128
248.5882, 1323.945
249.0704, 1312.347
249.5525, 1306.102
250.0346, 1303.699
250.5167, 1302.570
250.9988, 1301.438
251.4809, 1300.554
251.9631, 1301.076
252.4452, 1304.734
252.9273, 1306.155
253.4094, 1301.396
253.8915, 1294.687
254.3736, 1290.345
254.8558, 1289.868
255.3379, 1292.523
255.8200, 1298.750
256.3021, 1310.696
256.7842, 1317.901
257.2664, 1314.902
257.7485, 1307.302
258.2306, 1297.449
258.7127, 1285.682
259.1948, 1275.245
259.6769, 1270.655
260.1591, 1272.245
260.6412, 1271.703
261.1233, 1265.174
261.6054, 1258.034
262.0875, 1253.683
262.5696, 1252.299
263.0518, 1253.015
263.5339, 1255.994
264.0160, 1260.854
264.4981, 1265.404
264.9802, 1269.581
265.4623, 1273.126
265.9445, 1277.625
266.4266, 1281.923
266.9087, 1281.687
267.3908, 1269.023
267.8729, 1251.492
268.3550, 1247.721
268.8372, 1262.754
269.3193, 1276.454
269.8014, 1268.697
270.2835, 1250.550
270.7656, 1241.121
271.2477, 1249.379
271.7299, 1265.032
272.2120, 1278.453
272.6941, 1289.709
273.1762, 1296.279
273.6583, 1292.641
274.1404, 1285.521
274.6226, 1288.485
275.1047, 1308.326
275.5868, 1327.047
276.0689, 1332.051
276.5510, 1325.611
277.0331, 1315.613
277.5153, 1301.598
277.9974, 1289.788
278.4795, 1292.073
278.9616, 1310.984
279.4437, 1328.484
279.9258, 1336.287
280.4080, 1338.861
280.8901, 1343.853
281.3722, 1353.108
281.8543, 1363.969
282.3364, 1373.873
282.8185, 1382.836
283.3007, 1389.967
283.7828, 1393.217
284.2649, 1395.809
284.7470, 1401.692
285.2291, 1410.809
285.7112, 1418.526
286.1934, 1420.511
286.6755, 1416.850
287.1576, 1415.948
287.6397, 1423.339
288.1218, 1427.907
288.6039, 1422.045
289.0861, 1408.748
289.5682, 1395.955
290.0503, 1387.804
290.5324, 1383.884
291.0145, 1382.851
291.4966, 1393.745
291.9788, 1396.271
292.4609, 1376.350
292.9430, 1350.308
293.4251, 1341.280
293.9072, 1357.066
294.3893, 1383.127
294.8715, 1393.003
295.3536, 1371.340
295.8357, 1362.470
296.3178, 1381.916
296.7999, 1402.065
297.2820, 1400.131
297.7642, 1375.861
298.2463, 1347.100
298.7284, 1332.124
299.2105, 1332.758
299.6926, 1334.781
300.1747, 1341.371
300.6569, 1346.147
301.1390, 1344.717
301.6211, 1339.758
302.1032, 1337.622
302.5853, 1343.314
303.0674, 1354.312
303.5495, 1356.856
304.0316, 1340.437
304.5138, 1331.236
304.9959, 1339.614
305.4780, 1354.965
305.9601, 1366.499
306.4422, 1370.260
306.9243, 1368.434
307.4065, 1364.105
307.8886, 1356.944
308.3707, 1348.556
308.8528, 1332.734
309.3349, 1320.440
309.8170, 1322.021
310.2992, 1337.035
310.7813, 1351.516
311.2634, 1351.063
311.7455, 1337.383
312.2276, 1329.565
312.7097, 1331.397
313.1919, 1335.901
313.6740, 1340.239
314.1561, 1343.713
314.6382, 1344.283
315.1203, 1339.394
315.6024, 1331.758
316.0846, 1325.750
316.5667, 1321.348
317.0488, 1318.809
317.5309, 1319.588
318.0130, 1321.984
318.4951, 1323.010
318.9773, 1321.356
319.4594, 1319.981
319.9415, 1322.671
320.4236, 1328.055
320.9057, 1330.463
321.3878, 1328.793
321.8700, 1321.966
322.3521, 1304.102
322.8342, 1271.692
323.3163, 1250.706
323.7984, 1256.990
324.2805, 1275.107
324.7627, 1285.151
325.2448, 1283.820
325.7269, 1278.714
326.2090, 1276.718
326.6911, 1278.209
327.1732, 1279.482
327.6554, 1281.222
328.1375, 1282.144
328.6196, 1281.083
329.1017, 1278.526
329.5838, 1274.895
330.0659, 1269.588
330.5481, 1264.817
331.0302, 1270.854
331.5123, 1302.305
331.9944, 1326.541
332.4765, 1335.730
332.9586, 1338.172
333.4408, 1342.221
333.9229, 1350.569
334.4050, 1361.525
334.8871, 1372.983
335.3692, 1385.833
335.8513, 1396.533
336.3335, 1398.578
336.8156, 1404.374
337.2977, 1423.967
337.7798, 1453.843
338.2619, 1481.708
338.7440, 1496.544
339.2262, 1500.371
339.7083, 1511.447
340.1904, 1532.354
340.6725, 1557.206
341.1546, 1588.316
341.6367, 1620.502
342.1189, 1646.512
342.6010, 1663.080
343.0831, 1675.751
343.5652, 1692.846
344.0473, 1715.049
344.5294, 1736.956
345.0116, 1756.143
345.4937, 1775.669
345.9758, 1798.422
346.4579, 1824.506
346.9400, 1850.889
347.4221, 1878.231
347.9043, 1904.377
348.3864, 1921.479
348.8685, 1925.685
349.3506, 1930.572
349.8327, 1950.514
350.3148, 1980.218
350.7970, 2003.793
351.2791, 2019.791
351.7612, 2027.701
352.2433, 2023.488
352.7254, 2009.365
353.2076, 1997.142
353.6897, 1993.254
354.1718, 1993.677
354.6539, 1988.012
355.1360, 1977.462
355.6181, 1960.484
356.1003, 1932.529
356.5824, 1899.844
357.0645, 1868.039
357.5466, 1838.702
358.0287, 1815.659
358.5108, 1804.579
358.9930, 1809.179
359.4751, 1804.633
359.9572, 1784.037
360.4393, 1762.643
360.9214, 1746.943
361.4035, 1735.824
361.8857, 1724.620
362.3678, 1709.954
362.8499, 1695.142
363.3320, 1693.622
363.8141, 1722.271
364.2962, 1736.668
364.7784, 1719.732
365.2605, 1695.471
365.7426, 1685.667
366.2247, 1694.186
366.7068, 1706.446
367.1889, 1704.745
367.6711, 1687.935
368.1532, 1676.653
368.6353, 1678.898
369.1174, 1677.874
369.5995, 1662.464
370.0816, 1637.458
370.5638, 1614.942
371.0459, 1603.555
371.5280, 1595.407
372.0101, 1577.027
372.4922, 1547.779
372.9743, 1514.234
373.4565, 1473.787
373.9386, 1434.185
374.4207, 1407.231
374.9028, 1396.040
375.3849, 1387.617
375.8670, 1374.721
376.3492, 1360.047
376.8313, 1349.243
377.3134, 1343.637
377.7955, 1340.699
378.2776, 1339.104
378.7597, 1339.126
379.2419, 1333.771
379.7240, 1319.577
380.2061, 1303.032
380.6882, 1285.437
381.1703, 1268.527
381.6524, 1256.702
382.1346, 1252.646
382.6167, 1254.161
383.0988, 1254.577
383.5809, 1252.599
384.0630, 1251.165
384.5451, 1249.022
385.0273, 1248.283
385.5094, 1251.645
385.9915, 1258.943
386.4736, 1266.755
386.9557, 1271.093
387.4378, 1271.626
387.9200, 1274.754
388.4021, 1282.002
388.8842, 1290.330
389.3663, 1297.816
389.8484, 1305.878
390.3305, 1317.965
390.8127, 1337.317
391.2948, 1356.404
391.7769, 1360.403
392.2590, 1347.046
392.7411, 1340.229
393.2232, 1348.619
393.7054, 1364.207
394.1875, 1380.128
394.6696, 1396.240
395.1517, 1410.886
395.6338, 1421.902
396.1159, 1431.386
396.5981, 1442.983
397.0802, 1457.042
397.5623, 1472.310
398.0444, 1489.490
398.5265, 1507.034
399.0086, 1518.348
399.4908, 1512.221
399.9729, 1512.362
400.4550, 1532.769
400.9371, 1564.341
401.4192, 1593.675
401.9013, 1616.529
402.3835, 1632.291
402.8656, 1639.776
403.3477, 1636.175
403.8298, 1632.187
404.3119, 1627.437
404.7940, 1622.667
405.2762, 1614.802
405.7583, 1607.138
406.2404, 1608.540
406.7225, 1626.156
407.2046, 1653.431
407.6867, 1665.512
408.1689, 1652.459
408.6510, 1644.556
409.1331, 1651.868
409.6152, 1663.371
410.0973, 1672.065
410.5794, 1676.426
411.0616, 1675.831
411.5437, 1666.081
412.0258, 1649.780
412.5079, 1641.326
412.9900, 1643.768
413.4721, 1649.051
413.9543, 1658.412
414.4364, 1666.205
414.9185, 1658.371
415.4006, 1620.118
415.8827, 1580.428
416.3648, 1560.205
416.8470, 1555.768
417.3291, 1557.797
417.8112, 1564.652
418.2933, 1571.293
418.7754, 1570.025
419.2575, 1558.792
419.7397, 1545.751
420.2218, 1527.691
420.7039, 1510.804
421.1860, 1500.649
421.6681, 1495.611
422.1502, 1489.604
422.6324, 1478.463
423.1145, 1463.683
423.5966, 1452.169
424.0787, 1450.145
424.5608, 1441.312
425.0429, 1419.758
425.5251, 1394.241
426.0072, 1371.234
426.4893, 1351.901
426.9714, 1334.580
427.4535, 1318.215
427.9356, 1302.596
428.4178, 1287.040
428.8999, 1272.579
429.3820, 1256.179
429.8641, 1231.769
430.3462, 1205.540
430.8283, 1188.374
431.3105, 1187.208
431.7926, 1186.059
432.2747, 1167.146
432.7568, 1136.470
433.2389, 1117.559
433.7210, 1118.947
434.2032, 1124.794
434.6853, 1114.265
435.1674, 1084.902
435.6495, 1066.914
436.1316, 1074.376
436.6137, 1082.465
437.0959, 1072.972
437.5780, 1051.464
438.0601, 1033.721
438.5422, 1027.864
439.0243, 1030.446
439.5064, 1033.141
439.9886, 1037.777
440.4707, 1039.051
440.9528, 1034.033
441.4349, 1028.401
441.9170, 1027.089
442.3991, 1029.009
442.8813, 1028.617
443.3634, 1020.925
443.8455, 1007.995
444.3276, 997.5996
444.8097, 989.8640
445.2918, 984.3084
445.7740, 981.1827
446.2561, 979.9922
446.7382, 981.1370
447.2203, 985.0897
447.7024, 987.9781
448.1845, 984.1959
448.6667, 978.3038
449.1488, 982.4168
449.6309, 999.0155
450.1130, 1013.420
450.5951, 1013.673
451.0772, 1000.830
451.5594, 989.0844
452.0415, 974.8826
452.5236, 965.7579
453.0057, 967.3068
453.4878, 974.3319
453.9699, 980.3007
454.4521, 983.1384
454.9342, 983.5347
455.4163, 981.9337
455.8984, 977.6243
456.3805, 975.3634
456.8626, 974.9539
457.3448, 977.0032
457.8269, 985.3859
458.3090, 995.5093
458.7911, 998.8666
459.2732, 990.6584
459.7553, 980.4116
460.2375, 984.5900
460.7196, 1003.500
461.2017, 1014.232
461.6838, 1008.717
462.1659, 998.7701
462.6480, 993.3319
463.1302, 992.1804
463.6123, 995.0921
464.0944, 1009.643
464.5765, 1022.257
465.0586, 1014.996
465.5407, 993.7045
466.0229, 984.1732
466.5050, 999.7083
466.9871, 1025.141
467.4692, 1029.635
467.9513, 993.6324
468.4334, 978.3235
468.9156, 1004.196
469.3977, 1032.570
469.8798, 1036.850
470.3619, 1022.019
470.8440, 1008.421
471.3261, 1009.113
471.8083, 1019.019
472.2904, 1023.327
472.7725, 1020.345
473.2546, 1016.285
473.7367, 1009.169
474.2188, 1003.810
474.7010, 1005.333
475.1831, 1013.006
475.6652, 1018.792
476.1473, 1014.805
476.6294, 1007.300
477.1115, 1007.785
477.5937, 1016.582
478.0758, 1026.482
478.5579, 1035.201
479.0400, 1041.672
479.5221, 1042.325
480.0042, 1033.703
480.4864, 1028.761
480.9685, 1029.899
481.4506, 1035.801
481.9327, 1049.352
482.4148, 1067.926
482.8969, 1080.348
483.3791, 1077.245
483.8612, 1062.220
484.3433, 1055.154
484.8254, 1058.135
485.3075, 1066.289
485.7896, 1085.119
486.2718, 1103.802
486.7539, 1111.695
487.2360, 1108.831
487.7181, 1105.982
488.2002, 1111.445
488.6823, 1123.396
489.1645, 1137.274
489.6466, 1153.642
490.1287, 1168.215
490.6108, 1177.852
491.0929, 1184.713
491.5750, 1193.473
492.0572, 1204.821
492.5393, 1216.070
493.0214, 1228.857
493.5035, 1239.567
493.9856, 1242.016
494.4677, 1236.823
494.9499, 1231.963
495.4320, 1233.505
495.9141, 1240.593
496.3962, 1247.730
496.8783, 1253.863
497.3604, 1261.583
497.8426, 1274.133
498.3247, 1286.285
498.8068, 1292.145
499.2889, 1292.069
499.7710, 1292.906
500.2531, 1300.408
500.7353, 1313.344
501.2174, 1326.976
501.6995, 1341.130
502.1816, 1357.133
502.6637, 1379.016
503.1458, 1401.002
503.6280, 1413.286
504.1101, 1413.165
504.5922, 1413.889
505.0743, 1421.855
505.5564, 1432.421
506.0385, 1439.019
506.5207, 1441.988
507.0028, 1447.479
507.4849, 1459.899
507.9670, 1477.784
508.4491, 1494.607
508.9312, 1509.918
509.4134, 1524.865
509.8955, 1541.412
510.3776, 1556.200
510.8597, 1566.484
511.3418, 1572.400
511.8239, 1576.262
512.3061, 1581.127
512.7882, 1584.255
513.2703, 1574.295
513.7524, 1547.561
514.2346, 1531.432
514.7167, 1543.214
515.1988, 1563.624
515.6809, 1565.461
516.1630, 1546.981
516.6451, 1533.417
517.1273, 1534.660
517.6094, 1542.434
518.0915, 1549.213
518.5736, 1555.351
519.0557, 1566.036
519.5378, 1584.808
520.0200, 1605.968
520.5021, 1615.155
520.9842, 1602.188
521.4663, 1596.699
521.9484, 1599.220
522.4305, 1607.700
522.9127, 1624.573
523.3948, 1646.512
523.8769, 1664.568
524.3590, 1671.303
524.8411, 1678.135
525.3232, 1709.290
525.8054, 1764.537
526.2875, 1806.323
526.7696, 1821.923
527.2517, 1827.687
527.7338, 1841.095
528.2159, 1860.924
528.6981, 1875.099
529.1802, 1877.906
529.6623, 1878.606
530.1444, 1886.098
530.6265, 1894.816
531.1086, 1892.128
531.5908, 1873.972
532.0729, 1850.254
532.5550, 1836.381
533.0371, 1836.483
533.5192, 1820.005
534.0013, 1767.779
534.4835, 1720.505
534.9656, 1696.049
535.4477, 1681.700
535.9298, 1659.147
536.4119, 1622.516
536.8940, 1582.542
537.3762, 1550.188
537.8583, 1522.625
538.3404, 1488.714
538.8225, 1445.968
539.3046, 1407.921
539.7867, 1387.092
540.2689, 1379.003
540.7510, 1361.487
541.2331, 1320.610
541.7152, 1290.174
542.1973, 1288.568
542.6794, 1292.970
543.1616, 1278.547
543.6437, 1245.505
544.1258, 1213.483
544.6079, 1198.604
545.0900, 1196.843
545.5721, 1190.341
546.0543, 1176.985
546.5364, 1164.694
547.0185, 1155.429
547.5006, 1148.115
547.9827, 1143.042
548.4648, 1139.809
548.9469, 1134.718
549.4290, 1125.493
549.9111, 1114.119
550.3932, 1101.937
550.8754, 1089.356
551.3575, 1077.894
551.8396, 1067.967
552.3217, 1059.908
552.8038, 1054.624
553.2859, 1053.965
553.7681, 1049.659
554.2502, 1035.353
554.7323, 1024.684
555.2144, 1026.000
555.6965, 1033.667
556.1786, 1038.763
556.6608, 1038.018
557.1429, 1034.518
557.6250, 1031.065
558.1071, 1027.839
558.5892, 1026.417
559.0714, 1027.138
559.5535, 1029.269
560.0356, 1034.823
560.5177, 1040.972
560.9998, 1039.052
561.4819, 1023.050
561.9641, 1009.411
562.4462, 1006.550
562.9283, 1006.594
563.4104, 997.9225
563.8925, 982.0267
564.3746, 973.6595
564.8568, 985.4687
565.3389, 1009.724
565.8210, 1014.816
566.3031, 992.5583
566.7852, 971.8326
567.2673, 956.9365
567.7495, 945.5880
568.2316, 937.2007
568.7137, 931.3725
569.1958, 926.7665
569.6779, 923.1270
570.1600, 920.1616
570.6422, 917.8372
571.1243, 915.9457
571.6064, 914.1945
572.0885, 912.6376
572.5706, 909.6014
573.0527, 902.5265
573.5349, 890.5800
574.0170, 882.3138
574.4991, 881.3250
574.9812, 879.4220
575.4633, 872.7665
575.9454, 865.0837
576.4276, 860.7310
576.9097, 860.5757
577.3918, 862.0014
577.8739, 863.7479
578.3560, 865.1641
578.8381, 863.6892
579.3203, 859.0346
579.8024, 853.4520
580.2845, 846.5844
580.7666, 840.6094
581.2487, 840.9020
581.7308, 849.3521
582.2130, 854.9258
582.6951, 856.7769
583.1772, 854.6811
583.6593, 843.7422
584.1414, 829.3318
584.6235, 823.9219
585.1057, 833.3691
585.5878, 847.4293
586.0699, 849.4144
586.5520, 838.2845
587.0341, 826.0898
587.5162, 808.5908
587.9984, 797.9210
588.4805, 808.4968
588.9626, 828.4025
589.4447, 837.7601
589.9268, 831.0459
590.4089, 821.4950
590.8911, 812.9670
591.3732, 806.5300
591.8553, 804.8088
592.3374, 807.1367
592.8195, 808.7921
593.3016, 806.3279
593.7838, 801.9298
594.2659, 802.9474
594.7480, 813.1696
595.2301, 819.7769
595.7122, 818.8945
596.1943, 816.6530
596.6765, 816.5885
597.1586, 817.5536
597.6407, 815.8683
598.1228, 808.3312
598.6049, 801.3665
599.0870, 802.8439
599.5692, 809.2412
600.0513, 809.8160
600.5334, 802.4726
601.0155, 797.3856
601.4976, 804.0298
601.9797, 820.5636
602.4619, 831.9833
602.9440, 837.9877
603.4261, 838.7960
603.9082, 828.8798
604.3903, 818.2303
604.8724, 816.4202
605.3546, 821.4933
605.8367, 822.5303
606.3188, 810.5668
606.8009, 794.8460
607.2830, 788.8173
607.7651, 791.8282
608.2473, 800.7505
608.7294, 817.1672
609.2115, 829.9286
609.6936, 825.7036
610.1757, 804.3952
610.6578, 792.4276
611.1400, 791.3043
611.6221, 796.6198
612.1042, 814.1425
612.5863, 833.3976
613.0684, 844.2144
613.5505, 845.4726
614.0327, 841.5366
614.5148, 833.7911
614.9969, 824.7613
615.4790, 820.5663
615.9611, 821.2849
616.4432, 825.8545
616.9254, 836.0782
617.4075, 846.1838
617.8896, 847.7851
618.3717, 840.6767
618.8538, 840.7213
619.3359, 855.9753
619.8181, 869.8515
620.3002, 875.1094
620.7823, 875.8062
621.2644, 875.4189
621.7465, 875.6864
622.2286, 880.0970
622.7108, 893.4240
623.1929, 912.7157
623.6750, 925.7828
624.1571, 931.6511
624.6392, 936.8820
625.1213, 943.0842
625.6035, 949.8908
626.0856, 957.4537
626.5677, 965.7200
627.0498, 971.8895
627.5319, 971.7405
628.0140, 973.5260
628.4962, 983.9493
628.9783, 997.8884
629.4604, 1006.962
629.9425, 1009.708
630.4246, 1011.908
630.9067, 1019.093
631.3889, 1030.614
631.8710, 1044.478
632.3531, 1063.333
632.8352, 1073.483
633.3173, 1062.578
633.7994, 1049.175
634.2816, 1056.302
634.7637, 1082.689
635.2458, 1104.964
635.7279, 1112.641
636.2100, 1121.106
636.6921, 1145.179
637.1743, 1173.396
637.6564, 1183.670
638.1385, 1172.964
638.6206, 1162.480
639.1027, 1174.008
639.5848, 1204.014
640.0670, 1231.297
640.5491, 1256.151
641.0312, 1277.265
641.5133, 1291.530
641.9954, 1304.346
642.4775, 1321.582
642.9597, 1342.917
643.4418, 1364.193
643.9239, 1380.467
644.4060, 1400.849
644.8881, 1431.770
645.3702, 1469.499
645.8524, 1507.817
646.3345, 1545.598
646.8166, 1586.196
647.2987, 1632.072
647.7808, 1683.361
648.2629, 1742.096
648.7451, 1809.614
649.2272, 1877.225
649.7093, 1938.191
650.1914, 2003.390
650.6735, 2088.250
651.1556, 2189.269
651.6378, 2283.896
652.1199, 2356.100
652.6020, 2435.470
653.0841, 2542.271
653.5662, 2661.963
654.0483, 2773.808
654.5305, 2875.401
655.0126, 2978.749
655.4947, 3093.732
655.9768, 3217.542
656.4589, 3339.407
656.9410, 3458.838
657.4232, 3579.778
657.9053, 3703.519
658.3874, 3827.306
658.8695, 3948.971
659.3516, 4068.419
659.8337, 4182.632
660.3159, 4291.824
660.7980, 4395.693
661.2801, 4512.397
661.7622, 4612.017
662.2443, 4662.458
662.7264, 4663.179
663.2086, 4632.256
663.6907, 4579.305
664.1728, 4508.336
664.6549, 4429.582
665.1370, 4343.451
665.6191, 4236.166
666.1013, 4104.702
666.5834, 3951.858
667.0655, 3770.692
667.5476, 3569.390
668.0297, 3382.137
668.5118, 3215.407
668.9940, 3052.990
669.4761, 2890.801
669.9582, 2732.936
670.4403, 2576.108
670.9224, 2425.180
671.4045, 2292.877
671.8867, 2185.649
672.3688, 2092.813
672.8509, 1996.485
673.3330, 1899.021
673.8151, 1821.098
674.2972, 1766.867
674.7794, 1717.396
675.2615, 1661.713
675.7436, 1602.849
676.2257, 1548.954
676.7078, 1497.823
677.1899, 1456.289
677.6721, 1429.760
678.1542, 1407.501
678.6363, 1386.569
679.1184, 1365.389
679.6005, 1342.003
680.0826, 1315.835
680.5648, 1289.113
681.0469, 1260.524
681.5290, 1234.008
682.0111, 1223.065
682.4932, 1227.146
682.9753, 1224.783
683.4575, 1204.915
683.9396, 1180.274
684.4217, 1171.406
684.9038, 1182.398
685.3859, 1187.669
685.8680, 1188.424
686.3502, 1181.867
686.8323, 1159.738
687.3144, 1134.528
687.7965, 1119.271
688.2786, 1115.277
688.7607, 1114.870
689.2429, 1117.751
689.7250, 1118.891
690.2071, 1109.622
690.6892, 1093.839
691.1713, 1084.280
691.6534, 1084.241
692.1356, 1084.434
692.6177, 1074.957
693.0998, 1057.297
693.5819, 1045.191
694.0640, 1042.146
694.5461, 1036.773
695.0283, 1021.424
695.5104, 1008.183
695.9925, 1011.361
696.4746, 1024.562
696.9567, 1023.078
697.4388, 989.8970
697.9210, 957.2296
698.4031, 942.5682
698.8852, 937.9844
699.3673, 936.1487
699.8494, 934.7278
700.3315, 930.5461
700.8137, 921.2747
701.2958, 909.9818
701.7779, 903.7378
702.2600, 902.8915
702.7421, 899.3159
703.2242, 891.6143
703.7064, 882.8499
704.1885, 874.1570
704.6706, 865.9059
705.1527, 858.1776
705.6348, 848.6703
706.1169, 846.0797
706.5991, 862.0144
707.0812, 874.7729
707.5633, 867.5458
708.0454, 849.4396
708.5275, 835.3710
709.0096, 830.1196
709.4918, 831.5461
709.9739, 843.3006
710.4560, 858.8060
710.9381, 859.2000
711.4202, 845.1096
711.9023, 830.4200
712.3845, 819.0354
712.8666, 813.6230
713.3487, 819.7822
713.8308, 838.6861
714.3129, 843.8761
714.7950, 820.9157
715.2772, 803.8275
715.7593, 798.1165
716.2414, 799.9488
716.7235, 811.2305
717.2056, 828.2443
717.6877, 836.9316
718.1699, 827.1861
718.6520, 813.6321
719.1341, 807.4907
719.6162, 805.6138
720.0983, 801.7587
720.5804, 795.8103
721.0626, 793.9417
721.5447, 801.0690
722.0268, 811.7436
722.5089, 811.5490
722.9910, 798.3405
723.4731, 789.0511
723.9553, 785.4622
724.4374, 784.8202
724.9195, 786.2166
725.4016, 789.3857
725.8837, 794.4930
726.3658, 803.4993
726.8480, 807.3958
727.3301, 799.3022
727.8122, 791.0042
728.2943, 790.4868
728.7764, 794.1655
729.2585, 795.3277
729.7407, 792.3748
730.2228, 789.6676
730.7049, 792.7077
731.1870, 798.1624
731.6691, 796.5253
732.1512, 788.9377
732.6334, 787.6755
733.1155, 797.3264
733.5976, 807.3596
734.0797, 806.3495
734.5618, 795.3657
735.0439, 788.4376
735.5261, 786.0019
736.0082, 786.9826
736.4903, 795.7752
736.9724, 803.6286
737.4545, 803.4465
737.9366, 798.0270
738.4188, 795.5025
738.9009, 798.7099
739.3830, 803.4446
739.8651, 808.5380
740.3472, 813.1010
740.8293, 814.1309
741.3115, 813.5030
741.7936, 818.3505
742.2757, 832.0317
742.7578, 847.6276
743.2399, 854.6097
743.7220, 853.6634
744.2042, 855.6257
744.6863, 861.9051
745.1684, 863.7047
745.6505, 856.5050
746.1326, 844.7495
746.6147, 832.9539
747.0969, 820.3057
747.5790, 815.9214
748.0611, 826.0696
748.5432, 835.8149
749.0253, 845.9016
749.5074, 850.9847
749.9896, 842.3056
750.4717, 823.4099
750.9538, 809.5671
751.4359, 808.8595
751.9180, 814.0945
752.4001, 821.2930
752.8823, 828.7885
753.3644, 833.2925
753.8465, 834.5850
754.3286, 833.9976
754.8107, 832.1578
755.2928, 829.9614
755.7750, 828.5350
756.2571, 827.5259
756.7392, 832.2056
757.2213, 847.3918
757.7034, 855.7711
758.1855, 843.5863
758.6677, 825.1684
759.1498, 825.0457
759.6319, 845.4826
760.1140, 857.2094
760.5961, 847.6830
761.0782, 841.3147
761.5604, 852.6783
762.0425, 868.2598
762.5246, 873.3575
763.0067, 867.2720
763.4888, 858.0945
763.9709, 847.8339
764.4531, 841.0834
764.9352, 847.2598
765.4173, 860.3406
765.8994, 864.2734
766.3815, 857.5915
766.8636, 850.1866
767.3458, 848.2001
767.8279, 849.0159
768.3100, 846.8673
768.7921, 841.2269
769.2742, 836.3289
769.7563, 834.4827
770.2385, 828.3463
770.7206, 810.1818
771.2027, 789.0637
771.6848, 777.6393
772.1669, 776.1406
772.6490, 779.6157
773.1312, 796.6500
773.6133, 807.6624
774.0954, 799.8137
774.5775, 785.6556
775.0596, 778.4316
775.5417, 778.7993
776.0239, 779.5067
776.5060, 775.4832
776.9881, 772.5250
777.4702, 782.3721
777.9523, 796.9810
778.4344, 794.6079
778.9166, 774.9479
779.3987, 756.5967
779.8808, 749.8022
780.3629, 751.7389
780.8450, 759.2191
781.3271, 773.4451
781.8093, 780.8047
782.2914, 780.2831
782.7735, 775.3588
783.2556, 764.8933
783.7377, 752.9473
784.2198, 744.3026
784.7020, 738.9499
785.1841, 736.2684
785.6662, 737.4397
786.1483, 739.7521
786.6304, 746.5250
787.1125, 750.9515
787.5947, 744.5626
788.0768, 730.3845
788.5589, 719.9224
789.0410, 719.1325
789.5231, 719.4213
790.0052, 711.3943
790.4874, 700.7924
790.9695, 697.0300
791.4516, 699.7026
791.9337, 703.9647
792.4158, 707.7549
792.8979, 710.5273
793.3801, 710.7802
793.8622, 709.0710
794.3443, 712.4731
794.8264, 722.7131
795.3085, 726.4023
795.7906, 717.0953
796.2728, 705.7182
796.7549, 703.9315
797.2370, 710.4077
797.7191, 710.9281
798.2012, 697.5741
798.6833, 689.6303
799.1655, 695.8562
799.6476, 699.8451
800.1297, 687.7169
800.6118, 667.8582
801.0939, 657.1739
801.5760, 660.6006
802.0582, 665.6291
802.5403, 667.1448
803.0224, 666.5105
803.5045, 660.4951
803.9866, 654.6427
804.4688, 663.8939
804.9509, 688.9179
805.4330, 707.0873
805.9151, 696.4340
806.3972, 670.3185
806.8793, 657.4522
807.3615, 656.1090
807.8436, 652.8571
808.3257, 645.1251
808.8078, 640.6862
809.2899, 645.3118
809.7720, 655.3984
810.2542, 662.0342
810.7363, 665.0374
811.2184, 665.1666
811.7005, 660.9405
812.1826, 656.2252
812.6647, 651.4384
813.1469, 647.6301
813.6290, 646.6318
814.1111, 648.4250
814.5932, 649.0735
815.0753, 645.8359
815.5574, 644.1348
816.0396, 647.8079
816.5217, 652.2634
817.0038, 653.1127
817.4859, 650.8893
817.9680, 648.4593
818.4501, 646.8462
818.9323, 646.1293
819.4144, 648.5048
819.8965, 650.6008
820.3786, 644.0991
820.8607, 632.2095
821.3428, 628.7761
821.8250, 638.3190
822.3071, 649.3063
822.7892, 647.8169
823.2713, 637.8523
823.7534, 637.7625
824.2355, 648.1544
824.7177, 656.6497
825.1998, 661.7050
825.6819, 659.5531
826.1640, 643.9854
826.6461, 621.5560
827.1282, 615.3393
827.6104, 635.5008
828.0925, 648.4017
828.5746, 649.8300
829.0567, 649.0447
829.5388, 648.8243
830.0209, 648.5584
830.5031, 645.7607
830.9852, 640.4338
831.4673, 641.8390
831.9494, 665.3923
832.4315, 679.9535
832.9136, 662.5629
833.3958, 636.6326
833.8779, 625.0236
834.3600, 627.4579
834.8421, 634.2830
835.3242, 642.5327
835.8063, 646.5649
836.2885, 637.7750
836.7706, 623.1851
837.2527, 610.1543
837.7348, 601.7676
838.2169, 610.3163
838.6990, 638.6964
839.1812, 665.1262
839.6633, 664.2803
840.1454, 645.0341
840.6275, 642.3968
841.1096, 656.8383
841.5917, 662.6622
842.0739, 654.1639
842.5560, 641.9705
843.0381, 631.7828
843.5202, 624.7567
844.0023, 624.4460
844.4844, 634.2565
844.9666, 639.2020
845.4487, 635.0959
845.9308, 632.3629
846.4129, 634.8845
846.8950, 640.1328
847.3771, 647.6138
847.8593, 656.6655
848.3414, 660.1919
848.8235, 651.0539
849.3056, 644.6703
849.7877, 648.4742
850.2698, 653.6637
850.7520, 652.1750
851.2341, 646.8748
851.7162, 645.3074
852.1983, 649.9652
852.6804, 655.3937
853.1625, 660.2564
853.6447, 662.2440
854.1268, 657.9159
854.6089, 649.1448
855.0910, 638.2446
855.5731, 626.6821
856.0552, 618.3608
856.5374, 616.4013
857.0195, 618.6283
857.5016, 622.1901
857.9837, 626.6707
858.4658, 629.9981
858.9479, 632.0312
859.4301, 634.6633
859.9122, 638.8843
860.3943, 643.4578
860.8764, 646.9227
861.3585, 649.2057
861.8406, 647.9744
862.3228, 641.3038
862.8049, 638.8981
863.2870, 644.1166
863.7691, 652.1320
864.2512, 662.6643
864.7333, 672.0945
865.2155, 666.0941
865.6976, 628.3967
866.1797, 609.3117
866.6618, 621.1384
867.1439, 635.9686
867.6260, 648.1803
868.1082, 655.7772
868.5903, 653.3630
869.0724, 642.0102
869.5545, 637.9165
870.0366, 651.5623
870.5187, 664.9266
871.0009, 673.5205
871.4830, 676.9005
871.9651, 671.6661
872.4472, 661.5267
872.9293, 653.6804
873.4114, 650.4318
873.8936, 651.6416
874.3757, 660.7386
874.8578, 671.3036
875.3399, 677.2675
875.8220, 678.7634
876.3041, 673.2698
876.7863, 662.6934
877.2684, 659.6826
877.7505, 674.6769
878.2326, 693.8601
878.7147, 690.3132
879.1968, 671.9004
879.6790, 670.8818
880.1611, 687.7858
880.6432, 700.6024
881.1253, 700.2849
881.6074, 694.6808
882.0895, 692.5479
882.5717, 693.5903
883.0538, 696.9179
883.5359, 703.3831
884.0180, 703.9639
884.5001, 693.5544
884.9822, 690.3895
885.4644, 711.3791
885.9465, 741.2377
886.4286, 744.7385
886.9107, 713.4540
887.3928, 694.2219
887.8749, 696.4077
888.3571, 695.4468
888.8392, 675.2135
889.3213, 657.9588
889.8034, 670.2892
890.2855, 703.5594
890.7676, 717.4139
891.2498, 692.8994
891.7319, 678.3765
892.2140, 690.1844
892.6961, 702.8253
893.1782, 699.8103
893.6603, 691.0460
894.1425, 691.9534
894.6246, 703.7985
895.1067, 713.2642
895.5888, 718.3871
896.0709, 715.6929
896.5530, 693.3938
897.0352, 669.8994
897.5173, 667.2977
897.9994, 680.1072
898.4815, 690.5450
898.9636, 692.2802
899.4457, 689.4075
899.9279, 678.3383
900.4100, 669.8959
900.8921, 684.3172
901.3742, 709.7214
901.8563, 719.2164
902.3384, 710.2524
902.8206, 699.2346
903.3027, 696.1309
903.7848, 697.5563
904.2669, 698.8506
904.7490, 700.6224
905.2311, 706.0837
905.7133, 714.4966
906.1954, 718.1148
906.6775, 714.5002
907.1596, 713.8138
907.6417, 727.7404
908.1238, 748.8842
908.6060, 749.9620
909.0881, 730.7600
909.5702, 724.4218
910.0523, 736.5261
910.5344, 744.3198
911.0165, 735.5530
911.4987, 720.7978
911.9808, 715.2465
912.4629, 718.8010
912.9450, 722.8234
913.4271, 729.5034
913.9092, 729.3101
914.3914, 718.0001
914.8735, 704.0770
915.3556, 690.3064
915.8377, 679.5403
916.3198, 679.4348
916.8019, 694.6572
917.2841, 703.0601
917.7662, 703.3323
918.2483, 698.6082
918.7304, 681.2913
919.2125, 666.3997
919.6946, 669.7216
920.1768, 685.7158
920.6589, 693.4753
921.1410, 688.9522
921.6231, 681.7651
922.1052, 666.4232
922.5873, 656.6178
923.0695, 667.0532
923.5516, 680.9666
924.0337, 673.4687
924.5158, 647.2199
924.9979, 635.1924
925.4800, 657.4487
925.9622, 678.5664
926.4443, 684.8963
926.9264, 683.7186
927.4085, 677.8879
927.8906, 669.9086
928.3727, 662.9117
928.8549, 657.5385
929.3370, 652.0237
929.8191, 643.3662
930.3012, 636.5529
930.7833, 637.5666
931.2654, 641.0203
931.7476, 638.1292
932.2297, 631.6626
932.7118, 632.5107
933.1939, 644.4490
933.6760, 656.0628
934.1581, 656.1093
934.6403, 651.4430
935.1224, 651.2527
935.6045, 653.0039
936.0866, 651.1631
936.5687, 645.4417
937.0508, 637.8166
937.5330, 629.0116
938.0151, 624.2639
938.4972, 635.2185
938.9793, 652.8660
939.4614, 651.6487
939.9435, 637.7551
940.4257, 640.9459
940.9078, 665.7038
941.3899, 684.5051
941.8720, 676.9756
942.3541, 657.6781
942.8362, 652.8750
943.3184, 659.7924
943.8005, 663.6227
944.2826, 664.1629
944.7647, 669.7797
945.2468, 683.3483
945.7289, 689.1111
946.2111, 670.1615
946.6932, 639.3731
947.1753, 636.4404
947.6574, 661.1743
948.1395, 672.1648
948.6216, 665.3813
949.1038, 661.9243
949.5859, 670.6551
950.0680, 681.8058
950.5501, 683.8717
951.0322, 679.2742
951.5143, 681.0714
951.9965, 689.9883
952.4786, 701.8012
952.9607, 718.4172
953.4428, 728.3596
953.9249, 724.2370
954.4070, 715.0159
954.8892, 712.5032
955.3713, 716.4835
955.8534, 721.9203
956.3355, 728.8733
956.8176, 737.5262
957.2997, 750.3704
957.7819, 759.7278
958.2640, 759.9515
958.7461, 755.8679
959.2282, 754.9813
959.7103, 757.3598
960.1924, 761.9858
960.6746, 768.8126
961.1567, 778.1814
961.6388, 792.8177
962.1209, 806.2514
962.6030, 812.5466
963.0851, 815.9442
963.5673, 825.1758
964.0494, 841.5079
964.5315, 856.9503
965.0136, 874.2825
965.4957, 886.6793
965.9778, 887.2092
966.4600, 888.1472
966.9421, 902.1379
967.4242, 921.2666
967.9063, 925.5690
968.3884, 908.7977
968.8705, 900.6089
969.3527, 909.6353
969.8348, 917.7061
970.3169, 919.9009
970.7990, 919.8566
971.2811, 920.9431
971.7632, 921.9777
972.2454, 919.3444
972.7275, 911.7138
973.2096, 903.9933
973.6917, 896.8483
974.1738, 889.6403
974.6559, 880.9927
975.1381, 873.1733
975.6202, 869.5591
976.1023, 868.4216
976.5844, 864.3969
977.0665, 856.2387
977.5486, 846.5568
978.0308, 837.5277
978.5129, 825.1801
978.9950, 800.7894
979.4771, 777.7250
979.9592, 771.8891
980.4413, 779.3150
980.9235, 782.4534
981.4056, 775.2649
981.8877, 770.9219
982.3698, 776.1669
982.8519, 781.8842
983.3340, 786.4396
983.8162, 786.8481
984.2983, 779.4160
984.7804, 765.0366
985.2625, 745.8894
985.7446, 715.3904
986.2267, 701.6265
986.7089, 734.7529
987.1910, 764.7726
987.6731, 753.4963
988.1552, 728.9891
988.6373, 729.0898
989.1194, 749.8039
989.6016, 756.2363
990.0837, 731.5892
990.5658, 710.7004
991.0479, 708.0287
991.5300, 713.5573
992.0121, 728.1199
992.4943, 742.3431
992.9764, 741.7247
993.4585, 729.5909
993.9406, 726.1747
994.4227, 740.8239
994.9048, 756.9443
995.3870, 770.3849
995.8691, 779.3617
996.3512, 779.0289
996.8333, 775.7955
997.3154, 779.8790
997.7975, 789.4637
998.2797, 791.0203
998.7618, 775.9285
999.2439, 764.5583
999.7260, 773.2605
1000.208, 781.4838
1000.690, 770.8649
1001.172, 753.8219
1001.654, 747.1076
1002.137, 750.5663
1002.619, 753.8934
1003.101, 754.1324
1003.583, 752.0294
1004.065, 744.2390
1004.547, 738.2142
1005.029, 741.8531
1005.511, 748.5273
1005.994, 748.7983
1006.476, 743.5598
1006.958, 741.2739
1007.440, 746.0304
1007.922, 749.6425
1008.404, 742.0676
1008.886, 739.0847
1009.368, 756.7345
1009.850, 780.9735
1010.333, 793.6956
1010.815, 796.1606
1011.297, 801.6432
1011.779, 815.1712
1012.261, 828.5135
1012.743, 839.5242
1013.225, 847.7900
1013.707, 849.5648
1014.190, 850.9589
1014.672, 859.8748
1015.154, 874.6607
1015.636, 886.9823
1016.118, 893.1008
1016.600, 902.8578
1017.082, 922.2542
1017.564, 943.6699
1018.046, 962.4194
1018.529, 981.5159
1019.011, 1006.115
1019.493, 1033.755
1019.975, 1057.028
1020.457, 1074.259
1020.939, 1086.908
1021.421, 1091.988
1021.903, 1096.984
1022.385, 1105.608
1022.868, 1115.553
1023.350, 1127.441
1023.832, 1138.244
1024.314, 1139.907
1024.796, 1129.108
1025.278, 1121.372
1025.760, 1125.587
1026.242, 1127.179
1026.725, 1120.150
1027.207, 1108.944
1027.689, 1092.904
1028.171, 1076.842
1028.653, 1075.417
1029.135, 1095.148
1029.617, 1088.393
1030.099, 1016.763
1030.582, 958.9914
1031.064, 946.7000
1031.546, 944.1647
1032.028, 928.8307
1032.510, 905.3942
1032.992, 882.5085
1033.474, 860.4162
1033.956, 844.7828
1034.438, 844.4096
1034.921, 838.5876
1035.403, 819.6179
1035.885, 799.1042
1036.367, 781.4050
1036.849, 767.2144
1037.331, 757.8187
1037.813, 753.2556
1038.295, 751.1305
1038.777, 757.4296
1039.260, 756.3254
1039.742, 740.2466
1040.224, 725.3566
1040.706, 721.9482
1041.188, 720.5770
1041.670, 707.9481
1042.152, 685.7109
1042.634, 672.3144
1043.116, 672.5013
1043.599, 671.0681
1044.081, 664.6973
1044.563, 662.4786
1045.045, 672.0154
1045.527, 680.8679
1046.009, 674.9530
1046.491, 657.9496
1046.973, 647.0206
1047.456, 643.8594
1047.938, 641.2157
1048.420, 640.3479
1048.902, 635.2854
1049.384, 621.6808
1049.866, 610.0936
1050.348, 610.2576
1050.830, 618.0261
1051.313, 622.5045
1051.795, 623.5539
1052.277, 622.9918
1052.759, 621.2239
1053.241, 613.6691
1053.723, 597.3689
1054.205, 585.9916
1054.687, 589.5272
1055.169, 600.6699
1055.651, 606.6195
1056.134, 607.5857
1056.616, 605.3350
1057.098, 599.8730
1057.580, 597.6403
1058.062, 599.8158
1058.544, 595.5674
1059.026, 578.3161
1059.508, 563.1208
1059.991, 573.8378
1060.473, 599.3767
1060.955, 600.1108
1061.437, 580.5585
1061.919, 562.8578
1062.401, 550.3863
1062.883, 547.7584
1063.365, 556.2994
1063.848, 565.4143
1064.330, 564.1225
1064.812, 558.5822
1065.294, 562.2560
1065.776, 569.7516
1066.258, 566.0244
1066.740, 553.5296
1067.222, 543.8010
1067.704, 540.1077
1068.187, 540.2634
1068.669, 543.2758
1069.151, 547.6877
1069.633, 552.2089
1070.115, 556.8329
1070.597, 562.0477
1071.079, 567.1792
1071.561, 572.9329
1072.043, 577.5487
1072.526, 572.9271
1073.008, 553.5227
1073.490, 538.0850
1073.972, 544.5538
1074.454, 555.9318
1074.936, 559.1354
1075.418, 558.0888
1075.900, 557.6381
1076.383, 557.8423
1076.865, 556.9508
1077.347, 554.4813
1077.829, 551.5706
1078.311, 547.8551
1078.793, 544.9484
1079.275, 543.9849
1079.757, 543.7137
1080.240, 543.8780
1080.722, 543.7051
1081.204, 540.4124
1081.686, 534.2344
1082.168, 534.4786
1082.650, 552.5378
1083.132, 562.1947
1083.614, 555.3405
1084.096, 544.2738
1084.578, 528.1229
1085.061, 515.2986
1085.543, 516.5155
1086.025, 529.3100
1086.507, 542.6022
1086.989, 561.1334
1087.471, 566.7395
1087.953, 551.9280
1088.435, 538.8143
1088.918, 530.5061
1089.400, 531.0665
1089.882, 548.3238
1090.364, 570.5366
1090.846, 569.8456
1091.328, 544.9038
1091.810, 537.1880
1092.292, 549.5912
1092.775, 562.6851
1093.257, 574.8021
1093.739, 576.4868
1094.221, 561.5259
1094.703, 541.4326
1095.185, 530.1202
1095.667, 526.5161
1096.149, 527.9535
1096.631, 533.8914
1097.114, 539.9935
1097.596, 546.0783
1098.078, 556.4499
1098.560, 571.7558
1099.042, 579.2142
1099.524, 566.4569
1100.006, 549.6505
1100.488, 559.0354
1100.970, 579.4958
1101.453, 577.5443
1101.935, 560.8349
1102.417, 551.1115
1102.899, 551.3485
1103.381, 553.7745
1103.863, 554.8938
1104.345, 555.3840
1104.827, 557.1906
1105.310, 557.1318
1105.792, 549.6876
1106.274, 540.6380
1106.756, 538.7104
1107.238, 540.5605
1107.720, 535.1082
1108.202, 520.9313
1108.684, 515.1968
1109.167, 535.4246
1109.649, 549.3541
1110.131, 540.3625
1110.613, 526.6368
1111.095, 516.0449
1111.577, 509.2444
1112.059, 507.6088
1112.541, 510.0661
1113.023, 511.5859
1113.505, 512.5671
1113.988, 510.4407
1114.470, 501.7018
1114.952, 495.3851
1115.434, 494.1051
1115.916, 494.9641
1116.398, 496.7518
1116.880, 498.6895
1117.362, 499.4295
1117.845, 498.9699
1118.327, 496.9189
1118.809, 493.0703
1119.291, 488.0735
1119.773, 481.2593
1120.255, 478.5264
1120.737, 482.6672
1121.219, 489.8542
1121.702, 496.4867
1122.184, 502.3524
1122.666, 509.1801
1123.148, 514.8497
1123.630, 502.8059
1124.112, 477.6424
1124.594, 469.7243
1125.076, 483.4381
1125.558, 494.1740
1126.041, 487.7333
1126.523, 476.7478
1127.005, 475.9179
1127.487, 478.5593
1127.969, 472.5925
1128.451, 465.3964
1128.933, 473.9599
1129.415, 490.9934
1129.897, 491.5934
1130.380, 471.3604
1130.862, 457.0767
1131.344, 465.9599
1131.826, 477.1772
1132.308, 485.7517
1132.790, 486.5088
1133.272, 465.7393
1133.754, 442.5510
1134.237, 442.2912
1134.719, 460.6605
1135.201, 473.5057
1135.683, 476.4471
1136.165, 478.9726
1136.647, 484.4261
1137.129, 485.2919
1137.611, 477.3216
1138.094, 468.7272
1138.576, 463.3680
1139.058, 461.2021
1139.540, 463.7329
1140.022, 469.5727
1140.504, 463.0432
1140.986, 440.7658
1141.468, 433.9643
1141.950, 446.1287
1142.432, 457.0836
1142.915, 460.4108
1143.397, 460.2974
1143.879, 459.6496
1144.361, 459.1869
1144.843, 460.5039
1145.325, 462.9075
1145.807, 463.5446
1146.289, 463.5577
1146.772, 467.2160
1147.254, 474.0922
1147.736, 480.4547
1148.218, 484.7735
1148.700, 487.2596
1149.182, 491.0673
1149.664, 487.9588
1150.146, 460.6633
1150.629, 432.3393
1151.111, 428.8766
1151.593, 438.4761
1152.075, 440.3529
1152.557, 435.3575
1153.039, 441.2559
1153.521, 467.7360
1154.003, 483.3678
1154.485, 474.0266
1154.968, 462.7138
1155.450, 451.6270
1155.932, 445.9628
1156.414, 453.2573
1156.896, 463.9285
1157.378, 462.6517
1157.860, 450.9601
1158.342, 448.0159
1158.824, 457.2161
1159.307, 458.3910
1159.789, 448.5359
1160.271, 442.9847
1160.753, 446.5540
1161.235, 454.1973
1161.717, 463.2238
1162.199, 469.1559
1162.681, 461.0131
1163.164, 444.9521
1163.646, 442.9308
1164.128, 450.6956
1164.610, 454.7544
1165.092, 454.6620
1165.574, 457.2525
1166.056, 464.0719
1166.538, 467.7078
1167.021, 462.5689
1167.503, 454.3539
1167.985, 443.4181
1168.467, 436.0067
1168.949, 442.1814
1169.431, 452.0104
1169.913, 453.2760
1170.395, 446.8859
1170.877, 438.2841
1171.359, 427.5619
1171.842, 422.0125
1172.324, 425.1363
1172.806, 430.1010
1173.288, 439.7571
1173.770, 445.3954
1174.252, 441.9349
1174.734, 434.3752
1175.216, 426.0423
1175.699, 419.2960
1176.181, 424.5197
1176.663, 443.2631
1177.145, 450.0085
1177.627, 444.4021
1178.109, 445.6423
1178.591, 456.9961
1179.073, 461.9852
1179.556, 452.5677
1180.038, 440.2652
1180.520, 436.9258
1181.002, 438.7330
1181.484, 439.4767
1181.966, 441.1121
1182.448, 451.3507
1182.930, 463.3508
1183.412, 459.8281
1183.895, 442.6496
1184.377, 429.8542
1184.859, 427.6341
1185.341, 433.2716
1185.823, 456.5722
1186.305, 472.3698
1186.787, 464.6811
1187.269, 451.6105
1187.751, 443.1162
1188.234, 438.7009
1188.716, 436.7070
1189.198, 437.2493
1189.680, 441.9382
1190.162, 453.5093
1190.644, 459.0470
1191.126, 456.9666
1191.608, 457.1515
1192.091, 463.0395
1192.573, 460.5203
1193.055, 440.1358
1193.537, 419.3747
1194.019, 421.6365
1194.501, 437.2862
1194.983, 445.5118
1195.465, 446.9634
1195.948, 441.6638
1196.430, 431.6160
1196.912, 420.1216
1197.394, 409.2034
1197.876, 402.2000
1198.358, 400.1807
1198.840, 406.5057
1199.322, 434.5516
1199.804, 456.9072
1200.286, 454.2690
1200.769, 443.6827
1201.251, 434.9177
1201.733, 429.2185
1202.215, 426.9589
1202.697, 428.2512
1203.179, 433.6787
1203.661, 447.3833
1204.143, 451.0108
1204.626, 440.4872
1205.108, 433.6021
1205.590, 434.9880
1206.072, 434.7677
1206.554, 427.2031
1207.036, 418.6194
1207.518, 416.4398
1208.000, 418.9540
1208.483, 421.9911
1208.965, 426.1279
1209.447, 434.9852
1209.929, 445.9860
1210.411, 451.4649
1210.893, 450.7406
1211.375, 446.7550
1211.857, 440.5692
1212.339, 436.4104
1212.822, 440.0122
1213.304, 442.0379
1213.786, 434.3707
1214.268, 426.9172
1214.750, 429.4070
1215.232, 434.0272
1215.714, 427.9062
1216.196, 415.4695
1216.678, 415.1343
1217.161, 430.3958
1217.643, 435.0971
1218.125, 425.4297
1218.607, 422.1165
1219.089, 429.0291
1219.571, 435.4912
1220.053, 437.2087
1220.535, 435.3282
1221.018, 430.3245
1221.500, 424.7206
1221.982, 422.9129
1222.464, 423.8012
1222.946, 424.9204
1223.428, 427.0363
1223.910, 434.5605
1224.392, 444.1758
1224.875, 444.8626
1225.357, 434.6219
1225.839, 425.8509
1226.321, 424.3881
1226.803, 424.1328
1227.285, 423.5172
1227.767, 423.0931
1228.249, 422.1180
1228.731, 422.6514
1229.214, 428.6450
1229.696, 434.6878
1230.178, 429.8615
##END=



