##NAMES=Grunerite
##RRUFFID=R070204
##IDEAL CHEMISTRY=[box]Fe^2+^_2_Fe^2+^_5_Si_8_O_22_(OH)_2_
##LOCALITY=Penge mine, Transvaal, South Africa
##OWNER=RRUFF
##SOURCE=California Institute of Technology
##DESCRIPTION=Aggregate of tan colored parallel fibers. The Penge mine is the source of UICC standard for amosite
##STATUS=The identification of this mineral has been confirmed by X-ray diffraction and chemical analysis
##URL=rruff.info/R070204
##MEASURED CHEMISTRY=([box]_0.98_Na_0.02_)_Σ=1_(Fe_5.24_Mg_1.59_Mn_0.08_[box]_0.03_Al_0.04_Ca_0.02_)_Σ=7_Si_8.00_O_22_(OH)_2_ ; OH estimated by difference and charge balance
144.4510, 1521.177
144.9332, 1558.475
145.4153, 1600.386
145.8974, 1654.308
146.3795, 1718.172
146.8616, 1779.037
147.3438, 1826.709
147.8259, 1860.094
148.3080, 1890.913
148.7901, 1916.842
149.2722, 1941.940
149.7543, 1970.447
150.2365, 2002.461
150.7186, 2032.656
151.2007, 2057.646
151.6828, 2076.773
152.1649, 2090.385
152.6470, 2098.735
153.1292, 2101.370
153.6113, 2097.398
154.0934, 2086.683
154.5755, 2071.060
155.0576, 2048.995
155.5397, 2022.332
156.0219, 1999.371
156.5040, 1985.372
156.9861, 1973.742
157.4682, 1955.557
157.9503, 1929.356
158.4324, 1903.963
158.9146, 1887.859
159.3967, 1878.055
159.8788, 1867.838
160.3609, 1853.537
160.8430, 1838.658
161.3251, 1827.843
161.8073, 1821.064
162.2894, 1819.085
162.7715, 1827.745
163.2536, 1841.570
163.7357, 1850.301
164.2178, 1843.880
164.7000, 1831.951
165.1821, 1834.005
165.6642, 1854.989
166.1463, 1876.096
166.6284, 1885.459
167.1105, 1887.056
167.5927, 1886.651
168.0748, 1883.800
168.5569, 1881.295
169.0390, 1885.790
169.5211, 1899.443
170.0032, 1915.528
170.4854, 1932.917
170.9675, 1949.902
171.4496, 1963.391
171.9317, 1970.703
172.4138, 1974.139
172.8959, 1978.989
173.3781, 1984.521
173.8602, 1993.279
174.3423, 2008.141
174.8244, 2026.250
175.3065, 2043.289
175.7886, 2056.807
176.2708, 2068.209
176.7529, 2081.664
177.2350, 2098.198
177.7171, 2115.015
178.1992, 2131.529
178.6813, 2147.487
179.1634, 2162.193
179.6456, 2174.813
180.1277, 2186.624
180.6098, 2202.687
181.0919, 2229.000
181.5740, 2248.434
182.0561, 2253.932
182.5383, 2251.294
183.0204, 2247.511
183.5025, 2246.075
183.9846, 2245.474
184.4667, 2241.852
184.9488, 2236.939
185.4310, 2225.202
185.9131, 2201.692
186.3952, 2173.164
186.8773, 2147.202
187.3594, 2127.459
187.8415, 2111.934
188.3237, 2094.640
188.8058, 2073.337
189.2879, 2054.517
189.7700, 2041.550
190.2521, 2030.660
190.7342, 2017.862
191.2164, 2001.479
191.6985, 1982.472
192.1806, 1962.759
192.6627, 1940.236
193.1448, 1920.894
193.6269, 1903.436
194.1091, 1889.954
194.5912, 1883.082
195.0733, 1883.922
195.5554, 1890.007
196.0375, 1896.497
196.5196, 1905.045
197.0018, 1910.742
197.4839, 1915.266
197.9660, 1916.091
198.4481, 1909.785
198.9302, 1895.373
199.4123, 1876.857
199.8945, 1861.149
200.3766, 1847.395
200.8587, 1838.763
201.3408, 1838.209
201.8229, 1840.138
202.3050, 1840.568
202.7872, 1838.324
203.2693, 1834.574
203.7514, 1830.819
204.2335, 1825.957
204.7156, 1823.800
205.1977, 1830.548
205.6799, 1835.555
206.1620, 1827.698
206.6441, 1806.534
207.1262, 1784.684
207.6083, 1781.443
208.0904, 1808.031
208.5726, 1824.731
209.0547, 1828.704
209.5368, 1826.212
210.0189, 1817.363
210.5010, 1804.034
210.9831, 1791.833
211.4653, 1788.146
211.9474, 1796.168
212.4295, 1801.070
212.9116, 1803.062
213.3937, 1802.050
213.8758, 1795.409
214.3580, 1784.756
214.8401, 1775.585
215.3222, 1774.212
215.8043, 1782.473
216.2864, 1786.286
216.7685, 1780.511
217.2507, 1775.133
217.7328, 1777.453
218.2149, 1784.122
218.6970, 1784.938
219.1791, 1769.586
219.6612, 1737.362
220.1434, 1714.777
220.6255, 1711.122
221.1076, 1708.637
221.5897, 1701.269
222.0718, 1691.439
222.5539, 1685.207
223.0361, 1687.604
223.5182, 1697.449
224.0003, 1701.834
224.4824, 1697.721
224.9645, 1690.784
225.4466, 1679.810
225.9288, 1667.229
226.4109, 1656.063
226.8930, 1647.960
227.3751, 1642.891
227.8572, 1640.984
228.3393, 1645.863
228.8215, 1649.097
229.3036, 1651.286
229.7857, 1650.474
230.2678, 1642.886
230.7499, 1626.527
231.2320, 1606.418
231.7142, 1595.359
232.1963, 1599.677
232.6784, 1602.693
233.1605, 1600.762
233.6426, 1597.593
234.1247, 1597.403
234.6069, 1601.402
235.0890, 1605.759
235.5711, 1602.113
236.0532, 1582.532
236.5353, 1574.231
237.0174, 1587.129
237.4996, 1605.165
237.9817, 1619.897
238.4638, 1628.821
238.9459, 1631.796
239.4280, 1626.675
239.9101, 1609.801
240.3923, 1598.450
240.8744, 1595.531
241.3565, 1596.358
241.8386, 1600.768
242.3207, 1607.620
242.8028, 1613.762
243.2850, 1616.545
243.7671, 1615.945
244.2492, 1612.041
244.7313, 1599.428
245.2134, 1588.527
245.6955, 1582.969
246.1777, 1582.316
246.6598, 1584.963
247.1419, 1591.255
247.6240, 1600.334
248.1061, 1603.673
248.5882, 1595.317
249.0704, 1589.109
249.5525, 1591.421
250.0346, 1598.592
250.5167, 1604.663
250.9988, 1606.444
251.4809, 1605.099
251.9631, 1604.063
252.4452, 1603.969
252.9273, 1602.818
253.4094, 1598.451
253.8915, 1593.436
254.3736, 1591.187
254.8558, 1593.522
255.3379, 1596.786
255.8200, 1594.664
256.3021, 1585.746
256.7842, 1576.787
257.2664, 1567.389
257.7485, 1560.064
258.2306, 1557.839
258.7127, 1561.518
259.1948, 1566.274
259.6769, 1566.477
260.1591, 1561.861
260.6412, 1558.983
261.1233, 1560.683
261.6054, 1563.093
262.0875, 1563.634
262.5696, 1562.207
263.0518, 1559.733
263.5339, 1555.084
264.0160, 1549.237
264.4981, 1548.890
264.9802, 1558.894
265.4623, 1567.988
265.9445, 1568.424
266.4266, 1561.559
266.9087, 1551.325
267.3908, 1533.089
267.8729, 1513.889
268.3550, 1512.107
268.8372, 1533.853
269.3193, 1554.393
269.8014, 1550.979
270.2835, 1535.075
270.7656, 1526.042
271.2477, 1533.133
271.7299, 1545.613
272.2120, 1550.331
272.6941, 1546.997
273.1762, 1546.720
273.6583, 1558.556
274.1404, 1575.208
274.6226, 1582.086
275.1047, 1573.415
275.5868, 1564.254
276.0689, 1567.562
276.5510, 1579.760
277.0331, 1585.020
277.5153, 1574.926
277.9974, 1559.250
278.4795, 1554.534
278.9616, 1561.969
279.4437, 1571.339
279.9258, 1583.184
280.4080, 1593.650
280.8901, 1594.208
281.3722, 1581.903
281.8543, 1566.283
282.3364, 1558.219
282.8185, 1558.153
283.3007, 1560.510
283.7828, 1567.348
284.2649, 1574.686
284.7470, 1579.260
285.2291, 1580.749
285.7112, 1579.618
286.1934, 1575.050
286.6755, 1567.368
287.1576, 1565.787
287.6397, 1576.490
288.1218, 1586.713
288.6039, 1588.631
289.0861, 1584.876
289.5682, 1583.898
290.0503, 1591.276
290.5324, 1603.495
291.0145, 1605.353
291.4966, 1584.376
291.9788, 1569.173
292.4609, 1566.581
292.9430, 1571.171
293.4251, 1576.909
293.9072, 1581.600
294.3893, 1585.426
294.8715, 1588.623
295.3536, 1590.623
295.8357, 1593.072
296.3178, 1597.751
296.7999, 1601.567
297.2820, 1601.844
297.7642, 1598.609
298.2463, 1593.921
298.7284, 1589.286
299.2105, 1583.973
299.6926, 1584.071
300.1747, 1593.936
300.6569, 1604.673
301.1390, 1614.840
301.6211, 1623.503
302.1032, 1629.548
302.5853, 1632.259
303.0674, 1631.775
303.5495, 1628.329
304.0316, 1617.239
304.5138, 1610.298
304.9959, 1611.644
305.4780, 1617.131
305.9601, 1623.018
306.4422, 1628.006
306.9243, 1631.351
307.4065, 1631.512
307.8886, 1627.795
308.3707, 1623.466
308.8528, 1617.279
309.3349, 1611.940
309.8170, 1609.019
310.2992, 1608.700
310.7813, 1610.518
311.2634, 1615.923
311.7455, 1624.264
312.2276, 1627.570
312.7097, 1621.645
313.1919, 1615.848
313.6740, 1617.028
314.1561, 1622.947
314.6382, 1627.844
315.1203, 1630.035
315.6024, 1629.226
316.0846, 1623.728
316.5667, 1612.643
317.0488, 1602.242
317.5309, 1597.255
318.0130, 1594.714
318.4951, 1589.626
318.9773, 1580.558
319.4594, 1570.433
319.9415, 1557.748
320.4236, 1544.708
320.9057, 1543.008
321.3878, 1560.968
321.8700, 1585.135
322.3521, 1593.249
322.8342, 1583.941
323.3163, 1573.107
323.7984, 1562.337
324.2805, 1553.718
324.7627, 1551.193
325.2448, 1555.377
325.7269, 1560.851
326.2090, 1562.458
326.6911, 1559.724
327.1732, 1557.569
327.6554, 1553.908
328.1375, 1552.666
328.6196, 1558.056
329.1017, 1568.030
329.5838, 1576.119
330.0659, 1578.186
330.5481, 1576.121
331.0302, 1578.437
331.5123, 1592.631
331.9944, 1601.927
332.4765, 1599.901
332.9586, 1594.294
333.4408, 1593.641
333.9229, 1600.446
334.4050, 1610.952
334.8871, 1619.705
335.3692, 1625.890
335.8513, 1632.396
336.3335, 1640.009
336.8156, 1647.205
337.2977, 1654.311
337.7798, 1660.453
338.2619, 1663.030
338.7440, 1658.263
339.2262, 1647.807
339.7083, 1646.671
340.1904, 1657.339
340.6725, 1674.592
341.1546, 1703.389
341.6367, 1734.759
342.1189, 1756.902
342.6010, 1764.855
343.0831, 1765.229
343.5652, 1766.872
344.0473, 1769.795
344.5294, 1774.157
345.0116, 1782.849
345.4937, 1790.644
345.9758, 1792.588
346.4579, 1788.611
346.9400, 1784.433
347.4221, 1783.798
347.9043, 1785.708
348.3864, 1788.798
348.8685, 1794.768
349.3506, 1796.103
349.8327, 1782.186
350.3148, 1758.236
350.7970, 1739.805
351.2791, 1729.475
351.7612, 1725.680
352.2433, 1731.533
352.7254, 1744.562
353.2076, 1751.350
353.6897, 1744.075
354.1718, 1728.410
354.6539, 1718.995
355.1360, 1716.277
355.6181, 1717.021
356.1003, 1725.084
356.5824, 1734.206
357.0645, 1736.271
357.5466, 1729.763
358.0287, 1719.435
358.5108, 1710.114
358.9930, 1701.456
359.4751, 1696.091
359.9572, 1698.786
360.4393, 1699.594
360.9214, 1691.028
361.4035, 1677.184
361.8857, 1667.725
362.3678, 1668.719
362.8499, 1676.859
363.3320, 1679.641
363.8141, 1670.753
364.2962, 1666.756
364.7784, 1673.943
365.2605, 1683.544
365.7426, 1687.745
366.2247, 1685.103
366.7068, 1680.537
367.1889, 1679.998
367.6711, 1683.854
368.1532, 1685.436
368.6353, 1683.441
369.1174, 1680.253
369.5995, 1677.086
370.0816, 1673.774
370.5638, 1669.752
371.0459, 1663.817
371.5280, 1657.785
372.0101, 1655.860
372.4922, 1658.696
372.9743, 1659.294
373.4565, 1653.551
373.9386, 1644.469
374.4207, 1636.368
374.9028, 1629.019
375.3849, 1623.932
375.8670, 1623.929
376.3492, 1626.446
376.8313, 1625.392
377.3134, 1619.014
377.7955, 1613.244
378.2776, 1615.565
378.7597, 1627.125
379.2419, 1631.581
379.7240, 1622.616
380.2061, 1611.996
380.6882, 1606.656
381.1703, 1605.511
381.6524, 1604.393
382.1346, 1600.945
382.6167, 1596.329
383.0988, 1594.031
383.5809, 1595.538
384.0630, 1597.682
384.5451, 1599.411
385.0273, 1602.356
385.5094, 1609.852
385.9915, 1621.238
386.4736, 1630.587
386.9557, 1630.706
387.4378, 1620.937
387.9200, 1614.561
388.4021, 1612.825
388.8842, 1613.351
389.3663, 1616.411
389.8484, 1620.874
390.3305, 1625.013
390.8127, 1628.042
391.2948, 1630.704
391.7769, 1634.489
392.2590, 1639.586
392.7411, 1644.120
393.2232, 1649.960
393.7054, 1652.582
394.1875, 1644.767
394.6696, 1626.727
395.1517, 1614.833
395.6338, 1621.926
396.1159, 1638.601
396.5981, 1650.226
397.0802, 1655.532
397.5623, 1655.561
398.0444, 1648.448
398.5265, 1636.499
399.0086, 1631.555
399.4908, 1639.832
399.9729, 1648.012
400.4550, 1650.590
400.9371, 1649.772
401.4192, 1649.863
401.9013, 1652.289
402.3835, 1653.822
402.8656, 1649.107
403.3477, 1634.361
403.8298, 1625.075
404.3119, 1625.542
404.7940, 1626.600
405.2762, 1621.721
405.7583, 1613.385
406.2404, 1609.274
406.7225, 1615.080
407.2046, 1626.792
407.6867, 1629.568
408.1689, 1618.713
408.6510, 1608.420
409.1331, 1598.531
409.6152, 1592.045
410.0973, 1594.549
410.5794, 1605.890
411.0616, 1614.393
411.5437, 1605.591
412.0258, 1583.929
412.5079, 1574.286
412.9900, 1583.136
413.4721, 1592.320
413.9543, 1583.241
414.4364, 1565.928
414.9185, 1561.583
415.4006, 1582.617
415.8827, 1607.234
416.3648, 1622.526
416.8470, 1628.793
417.3291, 1624.885
417.8112, 1608.789
418.2933, 1588.253
418.7754, 1574.401
419.2575, 1568.444
419.7397, 1566.217
420.2218, 1570.587
420.7039, 1576.271
421.1860, 1579.386
421.6681, 1580.539
422.1502, 1582.865
422.6324, 1588.610
423.1145, 1596.671
423.5966, 1602.711
424.0787, 1611.153
424.5608, 1609.916
425.0429, 1592.430
425.5251, 1569.360
426.0072, 1545.826
426.4893, 1524.288
426.9714, 1510.409
427.4535, 1514.990
427.9356, 1535.648
428.4178, 1542.147
428.8999, 1527.988
429.3820, 1512.031
429.8641, 1503.758
430.3462, 1499.950
430.8283, 1496.050
431.3105, 1490.526
431.7926, 1485.706
432.2747, 1484.880
432.7568, 1486.595
433.2389, 1485.015
433.7210, 1477.894
434.2032, 1469.672
434.6853, 1465.384
435.1674, 1465.368
435.6495, 1466.920
436.1316, 1470.533
436.6137, 1475.129
437.0959, 1482.105
437.5780, 1489.556
438.0601, 1493.193
438.5422, 1490.787
439.0243, 1483.373
439.5064, 1472.876
439.9886, 1452.561
440.4707, 1441.647
440.9528, 1445.984
441.4349, 1453.972
441.9170, 1459.129
442.3991, 1460.921
442.8813, 1461.398
443.3634, 1461.756
443.8455, 1462.115
444.3276, 1463.345
444.8097, 1466.404
445.2918, 1467.650
445.7740, 1465.081
446.2561, 1460.234
446.7382, 1453.849
447.2203, 1445.736
447.7024, 1438.513
448.1845, 1433.013
448.6667, 1429.693
449.1488, 1430.251
449.6309, 1435.136
450.1130, 1441.099
450.5951, 1446.859
451.0772, 1451.713
451.5594, 1450.555
452.0415, 1434.787
452.5236, 1423.457
453.0057, 1426.927
453.4878, 1437.124
453.9699, 1442.790
454.4521, 1440.691
454.9342, 1434.974
455.4163, 1430.403
455.8984, 1426.511
456.3805, 1426.429
456.8626, 1433.508
457.3448, 1441.144
457.8269, 1451.169
458.3090, 1459.517
458.7911, 1458.256
459.2732, 1442.445
459.7553, 1423.655
460.2375, 1420.045
460.7196, 1431.888
461.2017, 1440.775
461.6838, 1441.659
462.1659, 1440.741
462.6480, 1444.664
463.1302, 1452.209
463.6123, 1456.710
464.0944, 1455.238
464.5765, 1450.871
465.0586, 1443.183
465.5407, 1434.239
466.0229, 1433.214
466.5050, 1445.448
466.9871, 1462.806
467.4692, 1468.934
467.9513, 1455.369
468.4334, 1448.159
468.9156, 1452.186
469.3977, 1458.184
469.8798, 1461.645
470.3619, 1462.040
470.8440, 1459.501
471.3261, 1453.662
471.8083, 1446.173
472.2904, 1442.112
472.7725, 1443.061
473.2546, 1443.194
473.7367, 1439.747
474.2188, 1436.212
474.7010, 1434.405
475.1831, 1434.568
475.6652, 1436.825
476.1473, 1442.519
476.6294, 1449.839
477.1115, 1456.639
477.5937, 1462.859
478.0758, 1465.160
478.5579, 1459.636
479.0400, 1450.961
479.5221, 1451.715
480.0042, 1467.325
480.4864, 1477.350
480.9685, 1472.439
481.4506, 1463.961
481.9327, 1463.570
482.4148, 1470.830
482.8969, 1476.392
483.3791, 1472.629
483.8612, 1462.033
484.3433, 1458.567
484.8254, 1465.987
485.3075, 1474.731
485.7896, 1487.232
486.2718, 1497.699
486.7539, 1500.035
487.2360, 1494.415
487.7181, 1487.804
488.2002, 1483.881
488.6823, 1483.221
489.1645, 1489.380
489.6466, 1503.961
490.1287, 1516.119
490.6108, 1520.157
491.0929, 1518.193
491.5750, 1515.087
492.0572, 1510.301
492.5393, 1505.934
493.0214, 1499.368
493.5035, 1495.482
493.9856, 1502.662
494.4677, 1520.011
494.9499, 1536.748
495.4320, 1544.781
495.9141, 1545.049
496.3962, 1543.552
496.8783, 1534.942
497.3604, 1532.377
497.8426, 1542.839
498.3247, 1555.629
498.8068, 1561.727
499.2889, 1560.361
499.7710, 1556.747
500.2531, 1552.269
500.7353, 1549.082
501.2174, 1559.022
501.6995, 1587.221
502.1816, 1605.885
502.6637, 1591.406
503.1458, 1567.357
503.6280, 1575.342
504.1101, 1627.014
504.5922, 1664.044
505.0743, 1650.933
505.5564, 1619.481
506.0385, 1606.232
506.5207, 1612.914
507.0028, 1623.430
507.4849, 1627.764
507.9670, 1626.336
508.4491, 1620.675
508.9312, 1602.171
509.4134, 1592.301
509.8955, 1601.874
510.3776, 1612.615
510.8597, 1608.076
511.3418, 1590.336
511.8239, 1575.617
512.3061, 1576.678
512.7882, 1588.405
513.2703, 1595.985
513.7524, 1597.890
514.2346, 1605.447
514.7167, 1628.891
515.1988, 1654.353
515.6809, 1661.775
516.1630, 1649.503
516.6451, 1641.590
517.1273, 1651.623
517.6094, 1664.525
518.0915, 1664.308
518.5736, 1653.413
519.0557, 1644.885
519.5378, 1645.672
520.0200, 1652.922
520.5021, 1660.685
520.9842, 1675.216
521.4663, 1677.819
521.9484, 1652.176
522.4305, 1631.245
522.9127, 1638.749
523.3948, 1665.669
523.8769, 1686.088
524.3590, 1684.753
524.8411, 1674.023
525.3232, 1674.240
525.8054, 1685.332
526.2875, 1696.120
526.7696, 1705.027
527.2517, 1711.123
527.7338, 1712.718
528.2159, 1710.265
528.6981, 1706.181
529.1802, 1700.580
529.6623, 1693.637
530.1444, 1682.535
530.6265, 1670.698
531.1086, 1666.881
531.5908, 1673.719
532.0729, 1681.343
532.5550, 1675.115
533.0371, 1651.930
533.5192, 1634.124
534.0013, 1626.863
534.4835, 1619.130
534.9656, 1603.989
535.4477, 1587.787
535.9298, 1580.273
536.4119, 1584.897
536.8940, 1591.769
537.3762, 1591.866
537.8583, 1586.817
538.3404, 1581.729
538.8225, 1577.241
539.3046, 1572.483
539.7867, 1566.693
540.2689, 1560.168
540.7510, 1554.536
541.2331, 1552.218
541.7152, 1547.334
542.1973, 1534.646
542.6794, 1521.484
543.1616, 1515.909
543.6437, 1517.755
544.1258, 1520.454
544.6079, 1518.717
545.0900, 1513.661
545.5721, 1509.741
546.0543, 1506.095
546.5364, 1506.096
547.0185, 1518.969
547.5006, 1529.402
547.9827, 1519.366
548.4648, 1491.202
548.9469, 1474.915
549.4290, 1495.955
549.9111, 1526.756
550.3932, 1536.072
550.8754, 1527.604
551.3575, 1520.271
551.8396, 1521.918
552.3217, 1526.225
552.8038, 1522.319
553.2859, 1505.683
553.7681, 1496.191
554.2502, 1498.973
554.7323, 1502.288
555.2144, 1501.231
555.6965, 1497.657
556.1786, 1495.238
556.6608, 1495.360
557.1429, 1495.413
557.6250, 1491.188
558.1071, 1483.475
558.5892, 1479.288
559.0714, 1480.379
559.5535, 1481.517
560.0356, 1479.746
560.5177, 1475.215
560.9998, 1468.873
561.4819, 1458.978
561.9641, 1450.313
562.4462, 1442.144
562.9283, 1437.303
563.4104, 1442.171
563.8925, 1454.795
564.3746, 1463.555
564.8568, 1459.276
565.3389, 1445.875
565.8210, 1439.619
566.3031, 1445.283
566.7852, 1445.990
567.2673, 1430.384
567.7495, 1415.811
568.2316, 1415.046
568.7137, 1425.853
569.1958, 1435.739
569.6779, 1439.128
570.1600, 1439.629
570.6422, 1441.435
571.1243, 1443.544
571.6064, 1441.868
572.0885, 1434.879
572.5706, 1426.700
573.0527, 1422.877
573.5349, 1424.417
574.0170, 1420.543
574.4991, 1401.199
574.9812, 1388.658
575.4633, 1394.382
575.9454, 1406.702
576.4276, 1413.354
576.9097, 1411.377
577.3918, 1404.250
577.8739, 1390.483
578.3560, 1374.136
578.8381, 1370.626
579.3203, 1381.483
579.8024, 1394.122
580.2845, 1405.449
580.7666, 1412.920
581.2487, 1409.336
581.7308, 1391.300
582.2130, 1378.553
582.6951, 1374.604
583.1772, 1376.087
583.6593, 1385.846
584.1414, 1398.629
584.6235, 1402.382
585.1057, 1391.438
585.5878, 1376.844
586.0699, 1379.402
586.5520, 1401.671
587.0341, 1409.707
587.5162, 1394.018
587.9984, 1377.017
588.4805, 1372.398
588.9626, 1374.601
589.4447, 1374.866
589.9268, 1371.410
590.4089, 1367.613
590.8911, 1364.037
591.3732, 1361.603
591.8553, 1362.458
592.3374, 1366.087
592.8195, 1369.349
593.3016, 1370.401
593.7838, 1368.889
594.2659, 1362.613
594.7480, 1346.272
595.2301, 1337.855
595.7122, 1344.572
596.1943, 1354.526
596.6765, 1363.480
597.1586, 1370.955
597.6407, 1376.738
598.1228, 1380.878
598.6049, 1382.988
599.0870, 1382.111
599.5692, 1378.982
600.0513, 1374.205
600.5334, 1367.860
601.0155, 1365.381
601.4976, 1372.938
601.9797, 1388.367
602.4619, 1393.907
602.9440, 1379.322
603.4261, 1368.568
603.9082, 1362.536
604.3903, 1361.590
604.8724, 1369.607
605.3546, 1383.680
605.8367, 1393.320
606.3188, 1390.608
606.8009, 1382.875
607.2830, 1382.256
607.7651, 1387.529
608.2473, 1388.400
608.7294, 1381.540
609.2115, 1372.749
609.6936, 1367.894
610.1757, 1366.991
610.6578, 1364.682
611.1400, 1357.336
611.6221, 1353.304
612.1042, 1356.843
612.5863, 1363.155
613.0684, 1367.617
613.5505, 1369.645
614.0327, 1371.123
614.5148, 1373.172
614.9969, 1375.923
615.4790, 1379.217
615.9611, 1382.950
616.4432, 1390.564
616.9254, 1405.853
617.4075, 1420.180
617.8896, 1420.838
618.3717, 1407.490
618.8538, 1404.768
619.3359, 1424.352
619.8181, 1442.277
620.3002, 1449.686
620.7823, 1450.042
621.2644, 1446.957
621.7465, 1441.781
622.2286, 1435.557
622.7108, 1427.924
623.1929, 1420.533
623.6750, 1420.603
624.1571, 1429.081
624.6392, 1440.244
625.1213, 1456.315
625.6035, 1469.874
626.0856, 1467.413
626.5677, 1450.051
627.0498, 1443.418
627.5319, 1461.561
628.0140, 1479.834
628.4962, 1482.827
628.9783, 1479.263
629.4604, 1483.320
629.9425, 1497.590
630.4246, 1513.030
630.9067, 1520.799
631.3889, 1522.100
631.8710, 1524.282
632.3531, 1528.573
632.8352, 1528.100
633.3173, 1512.920
633.7994, 1499.798
634.2816, 1512.356
634.7637, 1548.828
635.2458, 1574.219
635.7279, 1571.530
636.2100, 1566.492
636.6921, 1574.365
637.1743, 1589.029
637.6564, 1600.210
638.1385, 1605.592
638.6206, 1610.000
639.1027, 1618.479
639.5848, 1630.105
640.0670, 1638.015
640.5491, 1639.901
641.0312, 1646.504
641.5133, 1662.984
641.9954, 1683.449
642.4775, 1700.942
642.9597, 1715.990
643.4418, 1735.394
643.9239, 1761.444
644.4060, 1791.249
644.8881, 1827.676
645.3702, 1865.106
645.8524, 1892.354
646.3345, 1908.592
646.8166, 1926.239
647.2987, 1957.291
647.7808, 1998.887
648.2629, 2038.025
648.7451, 2074.088
649.2272, 2109.152
649.7093, 2143.754
650.1914, 2177.399
650.6735, 2209.182
651.1556, 2239.465
651.6378, 2271.862
652.1199, 2303.232
652.6020, 2341.225
653.0841, 2396.246
653.5662, 2456.948
654.0483, 2508.428
654.5305, 2548.348
655.0126, 2582.501
655.4947, 2614.780
655.9768, 2645.905
656.4589, 2680.047
656.9410, 2719.617
657.4232, 2746.356
657.9053, 2750.842
658.3874, 2749.429
658.8695, 2760.138
659.3516, 2778.500
659.8337, 2783.311
660.3159, 2768.979
660.7980, 2745.486
661.2801, 2709.652
661.7622, 2670.505
662.2443, 2645.727
662.7264, 2629.473
663.2086, 2590.099
663.6907, 2502.149
664.1728, 2390.804
664.6549, 2310.883
665.1370, 2263.316
665.6191, 2216.974
666.1013, 2166.911
666.5834, 2117.323
667.0655, 2070.932
667.5476, 2027.697
668.0297, 1986.447
668.5118, 1950.452
668.9940, 1911.368
669.4761, 1858.184
669.9582, 1809.118
670.4403, 1780.163
670.9224, 1767.697
671.4045, 1760.981
671.8867, 1756.050
672.3688, 1744.027
672.8509, 1703.842
673.3330, 1641.475
673.8151, 1602.164
674.2972, 1592.474
674.7794, 1592.535
675.2615, 1594.341
675.7436, 1594.996
676.2257, 1586.315
676.7078, 1561.597
677.1899, 1542.083
677.6721, 1531.101
678.1542, 1522.563
678.6363, 1513.153
679.1184, 1504.131
679.6005, 1498.795
680.0826, 1498.194
680.5648, 1497.412
681.0469, 1490.530
681.5290, 1480.395
682.0111, 1472.985
682.4932, 1468.675
682.9753, 1469.732
683.4575, 1478.546
683.9396, 1488.583
684.4217, 1489.320
684.9038, 1478.755
685.3859, 1469.454
685.8680, 1461.275
686.3502, 1454.445
686.8323, 1449.002
687.3144, 1444.950
687.7965, 1444.027
688.2786, 1445.667
688.7607, 1443.358
689.2429, 1428.373
689.7250, 1411.400
690.2071, 1405.347
690.6892, 1407.462
691.1713, 1409.911
691.6534, 1410.498
692.1356, 1410.585
692.6177, 1412.321
693.0998, 1414.703
693.5819, 1407.210
694.0640, 1381.100
694.5461, 1364.564
695.0283, 1369.296
695.5104, 1379.478
695.9925, 1387.096
696.4746, 1391.328
696.9567, 1389.975
697.4388, 1378.776
697.9210, 1367.484
698.4031, 1360.146
698.8852, 1356.327
699.3673, 1358.091
699.8494, 1363.497
700.3315, 1364.438
700.8137, 1355.384
701.2958, 1341.803
701.7779, 1335.523
702.2600, 1336.957
702.7421, 1336.177
703.2242, 1330.697
703.7064, 1327.283
704.1885, 1331.699
704.6706, 1340.217
705.1527, 1343.845
705.6348, 1341.370
706.1169, 1337.926
706.5991, 1332.043
707.0812, 1327.527
707.5633, 1328.158
708.0454, 1331.222
708.5275, 1332.148
709.0096, 1329.556
709.4918, 1325.439
709.9739, 1320.935
710.4560, 1316.523
710.9381, 1312.643
711.4202, 1309.487
711.9023, 1310.905
712.3845, 1319.177
712.8666, 1328.452
713.3487, 1330.436
713.8308, 1324.406
714.3129, 1326.855
714.7950, 1354.485
715.2772, 1367.420
715.7593, 1346.817
716.2414, 1319.398
716.7235, 1305.735
717.2056, 1305.622
717.6877, 1308.795
718.1699, 1311.831
718.6520, 1315.803
719.1341, 1324.853
719.6162, 1334.153
720.0983, 1333.508
720.5804, 1323.068
721.0626, 1312.584
721.5447, 1308.475
722.0268, 1309.222
722.5089, 1312.141
722.9910, 1318.002
723.4731, 1320.816
723.9553, 1320.409
724.4374, 1316.244
724.9195, 1304.980
725.4016, 1290.925
725.8837, 1282.285
726.3658, 1279.100
726.8480, 1281.587
727.3301, 1296.403
727.8122, 1310.188
728.2943, 1315.307
728.7764, 1313.906
729.2585, 1308.716
729.7407, 1301.098
730.2228, 1294.671
730.7049, 1294.016
731.1870, 1296.375
731.6691, 1293.245
732.1512, 1285.845
732.6334, 1287.594
733.1155, 1303.692
733.5976, 1321.657
734.0797, 1329.029
734.5618, 1326.335
735.0439, 1320.496
735.5261, 1307.052
736.0082, 1297.937
736.4903, 1295.963
736.9724, 1297.105
737.4545, 1300.153
737.9366, 1304.250
738.4188, 1307.536
738.9009, 1309.349
739.3830, 1310.736
739.8651, 1313.351
740.3472, 1315.152
740.8293, 1312.278
741.3115, 1306.244
741.7936, 1302.543
742.2757, 1303.789
742.7578, 1307.300
743.2399, 1310.424
743.7220, 1312.897
744.2042, 1309.760
744.6863, 1299.306
745.1684, 1292.108
745.6505, 1291.725
746.1326, 1297.432
746.6147, 1310.628
747.0969, 1333.263
747.5790, 1344.553
748.0611, 1337.824
748.5432, 1329.219
749.0253, 1319.921
749.5074, 1312.263
749.9896, 1310.653
750.4717, 1312.992
750.9538, 1309.568
751.4359, 1290.343
751.9180, 1274.218
752.4001, 1284.871
752.8823, 1308.816
753.3644, 1319.776
753.8465, 1316.038
754.3286, 1310.976
754.8107, 1312.410
755.2928, 1317.059
755.7750, 1318.646
756.2571, 1316.892
756.7392, 1314.646
757.2213, 1312.215
757.7034, 1308.408
758.1855, 1300.330
758.6677, 1292.318
759.1498, 1292.089
759.6319, 1300.437
760.1140, 1306.596
760.5961, 1307.610
761.0782, 1308.822
761.5604, 1315.779
762.0425, 1321.633
762.5246, 1315.896
763.0067, 1300.482
763.4888, 1289.842
763.9709, 1293.971
764.4531, 1303.188
764.9352, 1309.486
765.4173, 1311.590
765.8994, 1303.146
766.3815, 1284.831
766.8636, 1270.376
767.3458, 1268.527
767.8279, 1274.488
768.3100, 1278.238
768.7921, 1279.488
769.2742, 1280.204
769.7563, 1280.532
770.2385, 1280.041
770.7206, 1278.129
771.2027, 1275.567
771.6848, 1273.274
772.1669, 1271.200
772.6490, 1269.987
773.1312, 1270.902
773.6133, 1271.274
774.0954, 1267.334
774.5775, 1264.146
775.0596, 1270.470
775.5417, 1283.874
776.0239, 1290.297
776.5060, 1279.473
776.9881, 1263.999
777.4702, 1257.090
777.9523, 1256.532
778.4344, 1258.630
778.9166, 1262.315
779.3987, 1263.466
779.8808, 1259.265
780.3629, 1254.841
780.8450, 1263.144
781.3271, 1287.253
781.8093, 1289.408
782.2914, 1257.221
782.7735, 1236.748
783.2556, 1253.097
783.7377, 1282.355
784.2198, 1294.606
784.7020, 1289.621
785.1841, 1282.061
785.6662, 1269.063
786.1483, 1258.030
786.6304, 1249.396
787.1125, 1244.770
787.5947, 1249.623
788.0768, 1259.778
788.5589, 1260.914
789.0410, 1243.084
789.5231, 1227.787
790.0052, 1239.352
790.4874, 1261.978
790.9695, 1269.653
791.4516, 1263.479
791.9337, 1258.166
792.4158, 1260.034
792.8979, 1264.371
793.3801, 1265.048
793.8622, 1262.339
794.3443, 1258.322
794.8264, 1252.403
795.3085, 1249.109
795.7906, 1250.580
796.2728, 1253.267
796.7549, 1253.557
797.2370, 1251.781
797.7191, 1251.493
798.2012, 1256.727
798.6833, 1257.594
799.1655, 1247.288
799.6476, 1238.825
800.1297, 1241.769
800.6118, 1251.332
801.0939, 1258.237
801.5760, 1260.316
802.0582, 1260.043
802.5403, 1257.387
803.0224, 1254.030
803.5045, 1251.379
803.9866, 1249.218
804.4688, 1247.063
804.9509, 1244.745
805.4330, 1242.098
805.9151, 1238.832
806.3972, 1235.350
806.8793, 1232.781
807.3615, 1230.920
807.8436, 1227.978
808.3257, 1223.552
808.8078, 1218.904
809.2899, 1213.754
809.7720, 1211.277
810.2542, 1221.832
810.7363, 1253.915
811.2184, 1267.281
811.7005, 1251.711
812.1826, 1234.013
812.6647, 1219.934
813.1469, 1211.964
813.6290, 1216.483
814.1111, 1233.335
814.5932, 1242.453
815.0753, 1232.979
815.5574, 1225.423
816.0396, 1229.487
816.5217, 1236.374
817.0038, 1238.528
817.4859, 1236.016
817.9680, 1231.318
818.4501, 1224.485
818.9323, 1220.452
819.4144, 1226.255
819.8965, 1235.915
820.3786, 1242.209
820.8607, 1243.848
821.3428, 1236.373
821.8250, 1218.722
822.3071, 1202.312
822.7892, 1200.361
823.2713, 1209.684
823.7534, 1218.353
824.2355, 1226.721
824.7177, 1226.129
825.1998, 1211.744
825.6819, 1200.677
826.1640, 1207.428
826.6461, 1226.157
827.1282, 1237.041
827.6104, 1236.588
828.0925, 1236.342
828.5746, 1237.153
829.0567, 1237.108
829.5388, 1233.898
830.0209, 1209.881
830.5031, 1229.344
830.9852, 1240.135
831.4673, 1242.721
831.9494, 1212.525
832.4315, 1224.660
832.9136, 1219.830
833.3958, 1214.305
833.8779, 1232.398
834.3600, 1206.970
834.8421, 1224.688
835.3242, 1225.183
835.8063, 1233.561
836.2885, 1224.870
836.7706, 1221.450
837.2527, 1235.106
837.7348, 1221.445
838.2169, 1220.724
838.6990, 1225.389
839.1812, 1229.334
839.6633, 1225.373
840.1454, 1216.183
840.6275, 1211.623
841.1096, 1211.764
841.5917, 1213.194
842.0739, 1215.626
842.5560, 1217.845
843.0381, 1219.208
843.5202, 1219.542
844.0023, 1217.966
844.4844, 1212.531
844.9666, 1211.969
845.4487, 1220.611
845.9308, 1227.675
846.4129, 1231.946
846.8950, 1231.276
847.3771, 1217.945
847.8593, 1194.109
848.3414, 1185.509
848.8235, 1210.726
849.3056, 1231.091
849.7877, 1232.845
850.2698, 1228.823
850.7520, 1228.136
851.2341, 1229.945
851.7162, 1230.724
852.1983, 1229.483
852.6804, 1225.910
853.1625, 1217.272
853.6447, 1208.304
854.1268, 1201.108
854.6089, 1198.312
855.0910, 1209.216
855.5731, 1232.407
856.0552, 1249.026
856.5374, 1243.842
857.0195, 1228.310
857.5016, 1221.321
857.9837, 1221.627
858.4658, 1224.944
858.9479, 1230.638
859.4301, 1234.149
859.9122, 1233.220
860.3943, 1230.106
860.8764, 1227.424
861.3585, 1225.312
861.8406, 1227.966
862.3228, 1237.318
862.8049, 1243.986
863.2870, 1246.121
863.7691, 1244.573
864.2512, 1238.013
864.7333, 1228.818
865.2155, 1226.120
865.6976, 1236.880
866.1797, 1239.533
866.6618, 1224.007
867.1439, 1212.754
867.6260, 1216.477
868.1082, 1226.682
868.5903, 1235.677
869.0724, 1242.423
869.5545, 1243.853
870.0366, 1231.315
870.5187, 1223.521
871.0009, 1233.453
871.4830, 1246.341
871.9651, 1249.073
872.4472, 1243.690
872.9293, 1237.582
873.4114, 1233.181
873.8936, 1228.500
874.3757, 1217.340
874.8578, 1209.047
875.3399, 1220.751
875.8220, 1241.512
876.3041, 1245.308
876.7863, 1230.109
877.2684, 1217.495
877.7505, 1222.630
878.2326, 1235.512
878.7147, 1241.581
879.1968, 1241.614
879.6790, 1233.898
880.1611, 1220.165
880.6432, 1225.940
881.1253, 1238.220
881.6074, 1246.165
882.0895, 1250.006
882.5717, 1237.457
883.0538, 1246.073
883.5359, 1247.305
884.0180, 1252.794
884.5001, 1245.371
884.9822, 1237.434
885.4644, 1236.883
885.9465, 1241.167
886.4286, 1245.078
886.9107, 1249.043
887.3928, 1250.682
887.8749, 1250.282
888.3571, 1246.965
888.8392, 1235.179
889.3213, 1225.086
889.8034, 1228.426
890.2855, 1241.563
890.7676, 1247.863
891.2498, 1245.112
891.7319, 1237.495
892.2140, 1214.762
892.6961, 1199.028
893.1782, 1210.539
893.6603, 1231.470
894.1425, 1234.009
894.6246, 1216.339
895.1067, 1206.910
895.5888, 1222.689
896.0709, 1242.732
896.5530, 1262.634
897.0352, 1276.118
897.5173, 1271.872
897.9994, 1256.125
898.4815, 1244.988
898.9636, 1244.221
899.4457, 1247.576
899.9279, 1253.113
900.4100, 1257.624
900.8921, 1256.181
901.3742, 1250.913
901.8563, 1244.816
902.3384, 1239.500
902.8206, 1239.102
903.3027, 1246.715
903.7848, 1257.249
904.2669, 1265.216
904.7490, 1269.722
905.2311, 1264.585
905.7133, 1251.588
906.1954, 1245.966
906.6775, 1252.612
907.1596, 1261.380
907.6417, 1261.961
908.1238, 1258.114
908.6060, 1264.356
909.0881, 1280.817
909.5702, 1286.531
910.0523, 1277.901
910.5344, 1269.404
911.0165, 1268.194
911.4987, 1270.210
911.9808, 1269.805
912.4629, 1266.990
912.9450, 1263.273
913.4271, 1258.288
913.9092, 1253.296
914.3914, 1247.293
914.8735, 1243.845
915.3556, 1247.235
915.8377, 1253.569
916.3198, 1253.555
916.8019, 1245.061
917.2841, 1238.143
917.7662, 1231.895
918.2483, 1228.532
918.7304, 1230.982
919.2125, 1234.391
919.6946, 1234.549
920.1768, 1232.421
920.6589, 1232.140
921.1410, 1237.111
921.6231, 1237.009
922.1052, 1225.615
922.5873, 1214.327
923.0695, 1205.037
923.5516, 1200.829
924.0337, 1207.759
924.5158, 1224.255
924.9979, 1237.623
925.4800, 1244.089
925.9622, 1246.867
926.4443, 1246.658
926.9264, 1243.808
927.4085, 1236.124
927.8906, 1227.007
928.3727, 1222.128
928.8549, 1222.565
929.3370, 1224.502
929.8191, 1226.700
930.3012, 1228.602
930.7833, 1230.587
931.2654, 1231.507
931.7476, 1228.301
932.2297, 1222.875
932.7118, 1221.743
933.1939, 1227.119
933.6760, 1230.907
934.1581, 1222.908
934.6403, 1212.010
935.1224, 1209.222
935.6045, 1212.530
936.0866, 1219.496
936.5687, 1228.392
937.0508, 1235.481
937.5330, 1238.853
938.0151, 1238.151
938.4972, 1230.158
938.9793, 1218.874
939.4614, 1213.683
939.9435, 1213.639
940.4257, 1214.335
940.9078, 1214.787
941.3899, 1216.428
941.8720, 1220.366
942.3541, 1225.553
942.8362, 1230.339
943.3184, 1234.721
943.8005, 1239.305
944.2826, 1243.879
944.7647, 1244.346
945.2468, 1239.280
945.7289, 1236.660
946.2111, 1244.686
946.6932, 1258.030
947.1753, 1260.680
947.6574, 1252.700
948.1395, 1248.185
948.6216, 1248.355
949.1038, 1248.057
949.5859, 1245.195
950.0680, 1231.388
950.5501, 1246.112
951.0322, 1255.055
951.5143, 1258.527
951.9965, 1240.144
952.4786, 1249.983
952.9607, 1248.511
953.4428, 1246.576
953.9249, 1260.386
954.4070, 1245.182
954.8892, 1258.743
955.3713, 1260.821
955.8534, 1268.155
956.3355, 1264.109
956.8176, 1263.578
957.2997, 1274.429
957.7819, 1269.557
958.2640, 1275.557
958.7461, 1280.939
959.2282, 1271.674
959.7103, 1285.689
960.1924, 1293.922
960.6746, 1296.686
961.1567, 1277.594
961.6388, 1286.723
962.1209, 1284.543
962.6030, 1281.899
963.0851, 1295.000
963.5673, 1279.087
964.0494, 1291.939
964.5315, 1293.308
965.0136, 1299.933
965.4957, 1295.178
965.9778, 1293.937
966.4600, 1304.080
966.9421, 1307.920
967.4242, 1301.855
967.9063, 1308.814
968.3884, 1292.503
968.8705, 1301.222
969.3527, 1306.141
969.8348, 1310.198
970.3169, 1314.307
970.7990, 1316.026
971.2811, 1310.766
971.7632, 1302.020
972.2454, 1290.370
972.7275, 1302.794
973.2096, 1309.437
973.6917, 1310.609
974.1738, 1289.927
974.6559, 1297.465
975.1381, 1293.694
975.6202, 1289.459
976.1023, 1300.970
976.5844, 1283.466
977.0665, 1294.727
977.5486, 1294.506
978.0308, 1299.539
978.5129, 1293.193
978.9950, 1290.362
979.4771, 1298.915
979.9592, 1301.164
980.4413, 1293.508
980.9235, 1298.876
981.4056, 1280.974
981.8877, 1283.492
982.3698, 1294.820
982.8519, 1287.736
983.3340, 1293.312
983.8162, 1294.066
984.2983, 1272.909
984.7804, 1289.858
985.2625, 1290.328
985.7446, 1273.876
986.2267, 1289.520
986.7089, 1275.401
987.1910, 1271.905
987.6731, 1276.404
988.1552, 1272.569
988.6373, 1281.874
989.1194, 1273.541
989.6016, 1271.561
990.0837, 1270.386
990.5658, 1273.136
991.0479, 1287.719
991.5300, 1299.393
992.0121, 1294.924
992.4943, 1284.547
992.9764, 1281.246
993.4585, 1284.979
993.9406, 1287.553
994.4227, 1285.446
994.9048, 1284.336
995.3870, 1288.151
995.8691, 1292.307
996.3512, 1293.061
996.8333, 1292.696
997.3154, 1293.464
997.7975, 1296.077
998.2797, 1302.221
998.7618, 1315.005
999.2439, 1323.648
999.7260, 1317.698
1000.208, 1311.777
1000.690, 1317.791
1001.172, 1328.809
1001.654, 1336.105
1002.137, 1339.082
1002.619, 1340.857
1003.101, 1341.915
1003.583, 1343.749
1004.065, 1349.810
1004.547, 1353.934
1005.029, 1346.344
1005.511, 1337.891
1005.994, 1345.548
1006.476, 1366.179
1006.958, 1380.660
1007.440, 1381.440
1007.922, 1379.296
1008.404, 1376.992
1008.886, 1375.752
1009.368, 1374.106
1009.850, 1375.540
1010.333, 1386.853
1010.815, 1405.335
1011.297, 1419.151
1011.779, 1423.159
1012.261, 1428.227
1012.743, 1439.801
1013.225, 1453.022
1013.707, 1466.410
1014.190, 1478.702
1014.672, 1488.217
1015.154, 1495.396
1015.636, 1503.155
1016.118, 1513.984
1016.600, 1517.853
1017.082, 1499.485
1017.564, 1486.662
1018.046, 1500.589
1018.529, 1522.829
1019.011, 1537.811
1019.493, 1543.483
1019.975, 1538.431
1020.457, 1518.910
1020.939, 1506.314
1021.421, 1516.237
1021.903, 1523.842
1022.385, 1517.831
1022.868, 1504.147
1023.350, 1484.316
1023.832, 1462.506
1024.314, 1448.323
1024.796, 1445.208
1025.278, 1438.899
1025.760, 1425.984
1026.242, 1408.958
1026.725, 1382.043
1027.207, 1357.628
1027.689, 1347.045
1028.171, 1346.251
1028.653, 1346.868
1029.135, 1348.561
1029.617, 1345.189
1030.099, 1328.297
1030.582, 1316.410
1031.064, 1320.602
1031.546, 1325.198
1032.028, 1319.403
1032.510, 1306.638
1032.992, 1291.686
1033.474, 1274.217
1033.956, 1264.841
1034.438, 1274.441
1034.921, 1277.880
1035.403, 1264.163
1035.885, 1250.840
1036.367, 1250.760
1036.849, 1255.407
1037.331, 1250.411
1037.813, 1235.129
1038.295, 1226.895
1038.777, 1230.597
1039.260, 1233.738
1039.742, 1239.007
1040.224, 1239.052
1040.706, 1226.578
1041.188, 1210.633
1041.670, 1200.964
1042.152, 1197.547
1042.634, 1200.862
1043.116, 1218.952
1043.599, 1225.160
1044.081, 1209.372
1044.563, 1199.439
1045.045, 1210.523
1045.527, 1224.552
1046.009, 1222.755
1046.491, 1208.368
1046.973, 1195.531
1047.456, 1181.620
1047.938, 1179.227
1048.420, 1193.410
1048.902, 1204.358
1049.384, 1205.834
1049.866, 1203.160
1050.348, 1200.750
1050.830, 1197.518
1051.313, 1189.031
1051.795, 1173.736
1052.277, 1170.544
1052.759, 1182.117
1053.241, 1189.064
1053.723, 1186.506
1054.205, 1180.146
1054.687, 1173.090
1055.169, 1166.756
1055.651, 1163.648
1056.134, 1163.674
1056.616, 1165.979
1057.098, 1170.572
1057.580, 1176.592
1058.062, 1183.966
1058.544, 1184.634
1059.026, 1173.566
1059.508, 1163.674
1059.991, 1175.436
1060.473, 1199.260
1060.955, 1201.153
1061.437, 1184.803
1061.919, 1166.879
1062.401, 1150.817
1062.883, 1147.722
1063.365, 1161.228
1063.848, 1173.890
1064.330, 1167.106
1064.812, 1152.641
1065.294, 1153.772
1065.776, 1163.546
1066.258, 1163.294
1066.740, 1155.484
1067.222, 1154.419
1067.704, 1163.061
1068.187, 1172.628
1068.669, 1178.163
1069.151, 1178.211
1069.633, 1165.507
1070.115, 1150.564
1070.597, 1150.472
1071.079, 1158.681
1071.561, 1160.150
1072.043, 1154.330
1072.526, 1151.407
1073.008, 1156.079
1073.490, 1163.497
1073.972, 1175.412
1074.454, 1182.969
1074.936, 1173.687
1075.418, 1159.467
1075.900, 1155.614
1076.383, 1159.841
1076.865, 1161.835
1077.347, 1158.852
1077.829, 1154.415
1078.311, 1148.575
1078.793, 1143.567
1079.275, 1138.805
1079.757, 1136.840
1080.240, 1141.353
1080.722, 1149.167
1081.204, 1155.801
1081.686, 1160.586
1082.168, 1162.613
1082.650, 1162.406
1083.132, 1158.379
1083.614, 1144.276
1084.096, 1133.515
1084.578, 1133.356
1085.061, 1138.698
1085.543, 1145.568
1086.025, 1153.234
1086.507, 1158.118
1086.989, 1157.722
1087.471, 1161.609
1087.953, 1174.661
1088.435, 1181.730
1088.918, 1176.543
1089.400, 1168.560
1089.882, 1163.657
1090.364, 1162.018
1090.846, 1165.464
1091.328, 1174.553
1091.810, 1169.976
1092.292, 1147.582
1092.775, 1140.822
1093.257, 1157.839
1093.739, 1171.524
1094.221, 1167.544
1094.703, 1157.364
1095.185, 1155.297
1095.667, 1159.382
1096.149, 1164.212
1096.631, 1169.022
1097.114, 1166.290
1097.596, 1156.323
1098.078, 1146.119
1098.560, 1138.452
1099.042, 1139.861
1099.524, 1157.924
1100.006, 1177.803
1100.488, 1174.281
1100.970, 1157.331
1101.453, 1143.217
1101.935, 1134.279
1102.417, 1137.751
1102.899, 1150.795
1103.381, 1156.882
1103.863, 1147.907
1104.345, 1136.992
1104.827, 1133.000
1105.310, 1134.089
1105.792, 1142.978
1106.274, 1152.630
1106.756, 1152.782
1107.238, 1147.171
1107.720, 1146.649
1108.202, 1153.073
1108.684, 1155.779
1109.167, 1144.883
1109.649, 1137.910
1110.131, 1145.365
1110.613, 1154.238
1111.095, 1158.447
1111.577, 1158.264
1112.059, 1153.084
1112.541, 1144.045
1113.023, 1136.046
1113.505, 1128.008
1113.988, 1124.981
1114.470, 1131.673
1114.952, 1136.094
1115.434, 1135.460
1115.916, 1131.706
1116.398, 1123.568
1116.880, 1115.931
1117.362, 1119.726
1117.845, 1135.058
1118.327, 1136.813
1118.809, 1121.949
1119.291, 1110.125
1119.773, 1103.373
1120.255, 1101.788
1120.737, 1105.841
1121.219, 1112.315
1121.702, 1118.143
1122.184, 1123.272
1122.666, 1126.350
1123.148, 1128.417
1123.630, 1139.698
1124.112, 1156.381
1124.594, 1151.932
1125.076, 1123.822
1125.558, 1101.506
1126.041, 1101.942
1126.523, 1110.940
1127.005, 1114.639
1127.487, 1115.740
1127.969, 1118.290
1128.451, 1120.655
1128.933, 1119.552
1129.415, 1115.976
1129.897, 1113.322
1130.380, 1112.368
1130.862, 1110.765
1131.344, 1104.016
1131.826, 1102.279
1132.308, 1118.042
1132.790, 1132.629
1133.272, 1133.680
1133.754, 1125.988
1134.237, 1112.497
1134.719, 1096.165
1135.201, 1085.734
1135.683, 1083.743
1136.165, 1082.543
1136.647, 1075.826
1137.129, 1079.037
1137.611, 1102.577
1138.094, 1125.414
1138.576, 1136.811
1139.058, 1139.078
1139.540, 1133.674
1140.022, 1122.144
1140.504, 1120.325
1140.986, 1130.204
1141.468, 1134.120
1141.950, 1130.566
1142.432, 1124.572
1142.915, 1117.501
1143.397, 1112.744
1143.879, 1113.177
1144.361, 1116.264
1144.843, 1117.624
1145.325, 1118.032
1145.807, 1120.611
1146.289, 1124.147
1146.772, 1124.163
1147.254, 1121.067
1147.736, 1120.749
1148.218, 1124.789
1148.700, 1122.470
1149.182, 1099.094
1149.664, 1077.776
1150.146, 1082.569
1150.629, 1096.189
1151.111, 1103.040
1151.593, 1106.003
1152.075, 1111.503
1152.557, 1119.413
1153.039, 1126.187
1153.521, 1132.510
1154.003, 1131.359
1154.485, 1112.612
1154.968, 1098.028
1155.450, 1094.754
1155.932, 1097.109
1156.414, 1106.037
1156.896, 1114.542
1157.378, 1110.643
1157.860, 1095.927
1158.342, 1089.710
1158.824, 1094.202
1159.307, 1097.624
1159.789, 1099.874
1160.271, 1096.975
1160.753, 1086.733
1161.235, 1079.699
1161.717, 1083.829
1162.199, 1093.982
1162.681, 1104.305
1163.164, 1112.467
1163.646, 1107.679
1164.128, 1094.522
1164.610, 1087.005
1165.092, 1086.268
1165.574, 1089.374
1166.056, 1094.949
1166.538, 1100.902
1167.021, 1106.580
1167.503, 1110.272
1167.985, 1111.509
1168.467, 1109.154
1168.949, 1096.171
1169.431, 1083.398
1169.913, 1087.385
1170.395, 1102.958
1170.877, 1110.937
1171.359, 1106.599
1171.842, 1106.341
1172.324, 1123.828
1172.806, 1128.413
1173.288, 1101.211
1173.770, 1081.174
1174.252, 1088.570
1174.734, 1105.445
1175.216, 1115.087
1175.699, 1117.516
1176.181, 1111.128
1176.663, 1094.947
1177.145, 1083.792
1177.627, 1077.682
1178.109, 1075.154
1178.591, 1075.794
1179.073, 1074.053
1179.556, 1067.191
1180.038, 1063.000
1180.520, 1070.907
1181.002, 1084.215
1181.484, 1095.084
1181.966, 1101.760
1182.448, 1096.830
1182.930, 1086.908
1183.412, 1088.320
1183.895, 1099.591
1184.377, 1101.199
1184.859, 1083.403
1185.341, 1076.349
1185.823, 1108.316
1186.305, 1134.091
1186.787, 1129.607
1187.269, 1117.763
1187.751, 1116.120
1188.234, 1115.876
1188.716, 1100.229
1189.198, 1073.144
1189.680, 1059.907
1190.162, 1063.388
1190.644, 1072.036
1191.126, 1088.964
1191.608, 1096.432
1192.091, 1089.467
1192.573, 1079.990
1193.055, 1074.625
1193.537, 1070.876
1194.019, 1064.818
1194.501, 1059.251
1194.983, 1063.535
1195.465, 1072.910
1195.948, 1072.726
1196.430, 1066.505
1196.912, 1068.111
1197.394, 1078.194
1197.876, 1085.199
1198.358, 1083.783
1198.840, 1081.475
1199.322, 1084.383
1199.804, 1085.940
1200.286, 1080.178
1200.769, 1073.886
1201.251, 1071.254
1201.733, 1072.253
1202.215, 1079.238
1202.697, 1090.272
1203.179, 1091.443
1203.661, 1078.082
1204.143, 1070.368
1204.626, 1071.772
1205.108, 1065.624
1205.590, 1045.020
1206.072, 1034.416
1206.554, 1048.463
1207.036, 1067.958
1207.518, 1068.661
1208.000, 1060.932
1208.483, 1075.908
1208.965, 1102.071
1209.447, 1100.323
1209.929, 1080.861
1210.411, 1081.855
1210.893, 1103.267
1211.375, 1112.600
1211.857, 1096.763
1212.339, 1079.622
1212.822, 1074.364
1213.304, 1073.702
1213.786, 1077.418
1214.268, 1080.343
1214.750, 1073.754
1215.232, 1068.085
1215.714, 1082.855
1216.196, 1109.355
1216.678, 1113.629
1217.161, 1091.146
1217.643, 1073.176
1218.125, 1058.297
1218.607, 1055.608
1219.089, 1068.401
1219.571, 1079.198
1220.053, 1080.758
1220.535, 1078.248
1221.018, 1075.861
1221.500, 1074.420
1221.982, 1075.680
1222.464, 1078.762
1222.946, 1082.561
1223.428, 1086.401
1223.910, 1089.679
1224.392, 1091.678
1224.875, 1090.317
1225.357, 1085.419
1225.839, 1081.315
1226.321, 1081.333
1226.803, 1079.528
1227.285, 1070.517
1227.767, 1063.678
1228.249, 1064.715
1228.731, 1067.783
1229.214, 1068.119
1229.696, 1068.020
1230.178, 1072.205
1230.660, 1079.869
1231.142, 1081.096
1231.624, 1075.535
##END=



