##NAMES=Grunerite
##RRUFFID=R070186
##IDEAL CHEMISTRY=[box]Fe^2+^_2_Fe^2+^_5_Si_8_O_22_(OH)_2_
##LOCALITY=Homestake mine, 3800' level, Lead, Lawrence County, South Dakota, USA
##OWNER=RRUFF
##SOURCE=California Institute of Technology
##DESCRIPTION=Parallel aggregate of brown acicular to fibrous crystals
##STATUS=The identification of this mineral is confirmed by single-crystal X-ray diffraction and chemical analysis.
##URL=rruff.info/R070186
##MEASURED CHEMISTRY=([box]_0.96_Ca_0.04_)_Σ=1_(Fe_4.34_Mg_2.43_Mn_0.14_Al_0.05_)_Σ=7_(Si_7.95_Al_0.05_)_Σ=8_O_22_(OH)_2_ ; OH estimated by difference
129.4506, 577.3984
129.9327, 603.7208
130.4149, 636.0638
130.8970, 668.6104
131.3791, 696.9525
131.8612, 721.9879
132.3433, 748.8317
132.8254, 778.4909
133.3076, 809.2632
133.7897, 837.2741
134.2718, 862.5623
134.7539, 885.4889
135.2360, 906.8725
135.7181, 926.9741
136.2003, 942.2863
136.6824, 949.1314
137.1645, 950.1232
137.6466, 964.1476
138.1287, 996.4275
138.6108, 1030.469
139.0930, 1047.536
139.5751, 1043.219
140.0572, 1036.934
140.5393, 1032.350
141.0214, 1029.125
141.5035, 1030.966
141.9857, 1037.741
142.4678, 1049.734
142.9499, 1067.802
143.4320, 1094.508
143.9141, 1122.871
144.3962, 1150.370
144.8784, 1174.155
145.3605, 1203.791
145.8426, 1241.328
146.3247, 1284.593
146.8068, 1326.573
147.2889, 1365.184
147.7711, 1404.505
148.2532, 1445.975
148.7353, 1486.203
149.2174, 1533.577
149.6995, 1591.490
150.1816, 1658.787
150.6638, 1723.408
151.1459, 1773.742
151.6280, 1828.465
152.1101, 1898.513
152.5922, 1991.700
153.0743, 2092.657
153.5565, 2202.906
154.0386, 2322.625
154.5207, 2435.796
155.0028, 2536.670
155.4849, 2632.174
155.9670, 2730.325
156.4492, 2826.115
156.9313, 2930.059
157.4134, 3054.163
157.8955, 3204.764
158.3776, 3336.132
158.8597, 3439.563
159.3419, 3515.802
159.8240, 3564.734
160.3061, 3591.683
160.7882, 3588.281
161.2703, 3547.243
161.7524, 3460.729
162.2346, 3356.530
162.7167, 3239.706
163.1988, 3112.833
163.6809, 2983.695
164.1630, 2838.611
164.6451, 2700.876
165.1273, 2588.092
165.6094, 2508.434
166.0915, 2446.199
166.5736, 2392.216
167.0557, 2348.224
167.5379, 2318.338
168.0200, 2307.217
168.5021, 2310.877
168.9842, 2326.031
169.4663, 2357.612
169.9484, 2394.320
170.4306, 2424.796
170.9127, 2450.183
171.3948, 2482.400
171.8769, 2529.102
172.3590, 2587.678
172.8411, 2654.408
173.3233, 2730.336
173.8054, 2811.708
174.2875, 2891.463
174.7696, 2969.828
175.2517, 3057.301
175.7338, 3166.546
176.2160, 3292.027
176.6981, 3421.210
177.1802, 3547.372
177.6623, 3673.288
178.1444, 3801.693
178.6265, 3931.094
179.1087, 4066.294
179.5908, 4210.266
180.0729, 4362.056
180.5550, 4521.905
181.0371, 4697.938
181.5192, 4881.076
182.0014, 5043.394
182.4835, 5181.165
182.9656, 5308.921
183.4477, 5456.169
183.9298, 5618.273
184.4119, 5763.518
184.8941, 5875.976
185.3762, 5957.521
185.8583, 6010.989
186.3404, 6037.743
186.8225, 6035.831
187.3046, 5998.375
187.7868, 5925.890
188.2689, 5831.117
188.7510, 5724.521
189.2331, 5605.397
189.7152, 5465.244
190.1973, 5299.016
190.6795, 5116.521
191.1616, 4935.331
191.6437, 4756.103
192.1258, 4580.308
192.6079, 4407.474
193.0900, 4237.854
193.5722, 4077.214
194.0543, 3927.428
194.5364, 3786.784
195.0185, 3653.869
195.5006, 3528.271
195.9827, 3411.865
196.4649, 3310.071
196.9470, 3221.951
197.4291, 3138.126
197.9112, 3055.307
198.3933, 2974.462
198.8754, 2902.399
199.3576, 2839.865
199.8397, 2784.444
200.3218, 2735.080
200.8039, 2692.670
201.2860, 2652.942
201.7681, 2614.080
202.2503, 2576.229
202.7324, 2546.089
203.2145, 2527.307
203.6966, 2509.525
204.1787, 2475.458
204.6608, 2420.534
205.1430, 2371.175
205.6251, 2337.947
206.1072, 2322.184
206.5893, 2304.832
207.0714, 2284.957
207.5535, 2264.652
208.0357, 2248.563
208.5178, 2239.285
208.9999, 2226.422
209.4820, 2203.121
209.9641, 2165.459
210.4462, 2140.568
210.9284, 2133.403
211.4105, 2134.933
211.8926, 2126.098
212.3747, 2102.413
212.8568, 2079.030
213.3389, 2064.086
213.8211, 2062.459
214.3032, 2050.712
214.7853, 2023.412
215.2674, 1988.381
215.7495, 1966.323
216.2316, 1960.710
216.7138, 1960.797
217.1959, 1963.419
217.6780, 1972.760
218.1601, 1971.545
218.6422, 1956.301
219.1243, 1930.821
219.6065, 1906.466
220.0886, 1882.711
220.5707, 1861.234
221.0528, 1843.855
221.5349, 1831.933
222.0170, 1819.823
222.4992, 1806.693
222.9813, 1793.134
223.4634, 1781.461
223.9455, 1773.577
224.4276, 1764.738
224.9097, 1751.300
225.3919, 1728.852
225.8740, 1711.745
226.3561, 1701.813
226.8382, 1698.301
227.3203, 1696.947
227.8024, 1699.913
228.2846, 1702.235
228.7667, 1700.224
229.2488, 1691.331
229.7309, 1683.815
230.2130, 1679.618
230.6951, 1678.031
231.1773, 1671.939
231.6594, 1654.363
232.1415, 1640.621
232.6236, 1644.126
233.1057, 1679.399
233.5878, 1702.407
234.0700, 1705.262
234.5521, 1689.498
235.0342, 1673.012
235.5163, 1652.939
235.9984, 1635.461
236.4805, 1625.940
236.9627, 1628.264
237.4448, 1631.135
237.9269, 1633.805
238.4090, 1636.179
238.8911, 1634.758
239.3732, 1625.402
239.8554, 1616.629
240.3375, 1616.665
240.8196, 1632.457
241.3017, 1643.872
241.7838, 1647.815
242.2659, 1644.259
242.7481, 1637.126
243.2302, 1624.289
243.7123, 1610.032
244.1944, 1598.174
244.6765, 1589.334
245.1586, 1581.727
245.6408, 1575.407
246.1229, 1570.355
246.6050, 1564.935
247.0871, 1559.301
247.5692, 1553.140
248.0513, 1545.758
248.5335, 1535.236
249.0156, 1527.254
249.4977, 1523.353
249.9798, 1523.577
250.4619, 1524.442
250.9440, 1527.103
251.4262, 1529.168
251.9083, 1527.878
252.3904, 1520.903
252.8725, 1515.411
253.3546, 1513.873
253.8367, 1516.430
254.3189, 1514.849
254.8010, 1508.655
255.2831, 1498.908
255.7652, 1484.796
256.2473, 1460.458
256.7295, 1445.714
257.2116, 1448.448
257.6937, 1468.897
258.1758, 1479.694
258.6579, 1478.219
259.1400, 1470.264
259.6222, 1460.333
260.1043, 1445.730
260.5864, 1436.458
261.0685, 1436.660
261.5506, 1446.257
262.0327, 1450.737
262.5149, 1448.723
262.9970, 1443.445
263.4791, 1437.844
263.9612, 1431.394
264.4433, 1425.994
264.9254, 1422.004
265.4076, 1419.467
265.8897, 1417.792
266.3718, 1416.752
266.8539, 1416.922
267.3360, 1419.739
267.8181, 1426.659
268.3003, 1430.755
268.7824, 1429.235
269.2645, 1422.652
269.7466, 1419.448
270.2287, 1419.362
270.7108, 1423.144
271.1930, 1433.436
271.6751, 1452.443
272.1572, 1467.556
272.6393, 1475.534
273.1214, 1476.986
273.6035, 1475.668
274.0857, 1469.662
274.5678, 1465.768
275.0499, 1471.851
275.5320, 1489.383
276.0141, 1507.093
276.4962, 1523.854
276.9784, 1538.975
277.4605, 1546.116
277.9426, 1543.293
278.4247, 1539.741
278.9068, 1545.207
279.3889, 1560.372
279.8711, 1573.953
280.3532, 1582.609
280.8353, 1587.978
281.3174, 1597.216
281.7995, 1610.655
282.2816, 1625.827
282.7638, 1642.928
283.2459, 1661.823
283.7280, 1673.175
284.2101, 1672.648
284.6922, 1664.447
285.1743, 1660.272
285.6565, 1659.986
286.1386, 1665.299
286.6207, 1682.181
287.1028, 1708.867
287.5849, 1727.631
288.0670, 1733.542
288.5492, 1730.578
289.0313, 1727.302
289.5134, 1723.774
289.9955, 1718.631
290.4776, 1707.666
290.9597, 1693.170
291.4419, 1686.150
291.9240, 1690.675
292.4061, 1700.942
292.8882, 1708.492
293.3703, 1713.108
293.8524, 1711.838
294.3346, 1697.505
294.8167, 1675.206
295.2988, 1659.462
295.7809, 1653.228
296.2630, 1653.571
296.7451, 1660.567
297.2273, 1672.614
297.7094, 1678.887
298.1915, 1667.282
298.6736, 1645.461
299.1557, 1629.437
299.6378, 1622.277
300.1200, 1619.478
300.6021, 1615.741
301.0842, 1611.673
301.5663, 1609.639
302.0484, 1614.057
302.5305, 1620.430
303.0127, 1620.859
303.4948, 1612.390
303.9769, 1604.663
304.4590, 1608.245
304.9411, 1620.099
305.4232, 1631.891
305.9054, 1641.561
306.3875, 1647.802
306.8696, 1648.461
307.3517, 1642.740
307.8338, 1634.463
308.3159, 1624.192
308.7981, 1613.557
309.2802, 1605.707
309.7623, 1602.375
310.2444, 1602.225
310.7265, 1605.333
311.2086, 1612.216
311.6908, 1618.124
312.1729, 1618.951
312.6550, 1617.329
313.1371, 1617.014
313.6192, 1619.809
314.1013, 1624.074
314.5835, 1629.871
315.0656, 1637.351
315.5477, 1643.058
316.0298, 1645.155
316.5119, 1644.795
316.9940, 1643.240
317.4762, 1640.826
317.9583, 1637.358
318.4404, 1631.983
318.9225, 1624.738
319.4046, 1618.840
319.8867, 1618.838
320.3689, 1618.813
320.8510, 1613.850
321.3331, 1592.066
321.8152, 1576.458
322.2973, 1577.173
322.7794, 1592.281
323.2616, 1599.480
323.7437, 1588.594
324.2258, 1572.874
324.7079, 1560.562
325.1900, 1552.716
325.6721, 1548.046
326.1543, 1548.871
326.6364, 1553.805
327.1185, 1554.850
327.6006, 1544.706
328.0827, 1536.405
328.5648, 1535.877
329.0470, 1548.178
329.5291, 1561.271
330.0112, 1576.150
330.4933, 1591.773
330.9754, 1604.792
331.4576, 1612.990
331.9397, 1621.346
332.4218, 1631.323
332.9039, 1641.199
333.3860, 1657.768
333.8681, 1683.695
334.3503, 1714.450
334.8324, 1740.824
335.3145, 1760.330
335.7966, 1780.275
336.2787, 1803.369
336.7608, 1829.768
337.2430, 1857.243
337.7251, 1886.044
338.2072, 1914.673
338.6893, 1939.139
339.1714, 1957.223
339.6535, 1980.881
340.1357, 2013.622
340.6178, 2055.437
341.0999, 2103.521
341.5820, 2160.185
342.0641, 2217.581
342.5462, 2268.027
343.0284, 2311.119
343.5105, 2356.313
343.9926, 2407.385
344.4747, 2461.604
344.9568, 2507.172
345.4389, 2543.524
345.9211, 2578.688
346.4032, 2619.813
346.8853, 2666.050
347.3674, 2712.042
347.8495, 2757.459
348.3316, 2801.044
348.8138, 2840.195
349.2959, 2875.034
349.7780, 2905.046
350.2601, 2931.299
350.7422, 2952.845
351.2243, 2967.845
351.7065, 2975.795
352.1886, 2978.106
352.6707, 2975.977
353.1528, 2969.443
353.6349, 2958.837
354.1170, 2938.186
354.5992, 2916.305
355.0813, 2906.534
355.5634, 2913.372
356.0455, 2914.212
356.5276, 2884.187
357.0097, 2837.578
357.4919, 2799.790
357.9740, 2785.725
358.4561, 2779.999
358.9382, 2773.265
359.4203, 2764.901
359.9024, 2757.763
360.3846, 2752.588
360.8667, 2749.564
361.3488, 2748.889
361.8309, 2749.133
362.3130, 2753.186
362.7951, 2763.583
363.2773, 2779.788
363.7594, 2795.725
364.2415, 2806.745
364.7236, 2818.713
365.2057, 2835.486
365.6878, 2867.200
366.1700, 2892.513
366.6521, 2907.710
367.1342, 2914.308
367.6163, 2918.561
368.0984, 2934.675
368.5805, 2936.607
369.0627, 2912.176
369.5448, 2845.394
370.0269, 2784.148
370.5090, 2735.998
370.9911, 2691.250
371.4732, 2630.873
371.9554, 2549.166
372.4375, 2462.105
372.9196, 2371.055
373.4017, 2271.814
373.8838, 2194.067
374.3659, 2142.997
374.8481, 2104.448
375.3302, 2061.969
375.8123, 2013.827
376.2944, 1967.576
376.7765, 1924.853
377.2586, 1885.061
377.7408, 1845.262
378.2229, 1803.459
378.7050, 1767.635
379.1871, 1748.952
379.6692, 1746.470
380.1513, 1735.304
380.6335, 1707.196
381.1156, 1672.122
381.5977, 1652.940
382.0798, 1649.203
382.5619, 1649.828
383.0440, 1646.667
383.5262, 1642.193
384.0083, 1644.367
384.4904, 1655.759
384.9725, 1668.455
385.4546, 1670.903
385.9367, 1666.353
386.4189, 1664.932
386.9010, 1673.115
387.3831, 1686.564
387.8652, 1701.113
388.3473, 1716.565
388.8294, 1731.340
389.3116, 1739.985
389.7937, 1747.921
390.2758, 1762.695
390.7579, 1794.681
391.2400, 1827.946
391.7221, 1853.091
392.2043, 1870.681
392.6864, 1887.252
393.1685, 1902.214
393.6506, 1918.973
394.1327, 1940.384
394.6148, 1969.620
395.0970, 2000.131
395.5791, 2030.090
396.0612, 2060.258
396.5433, 2092.000
397.0254, 2129.799
397.5075, 2165.680
397.9897, 2195.771
398.4718, 2214.740
398.9539, 2239.729
399.4360, 2277.122
399.9181, 2318.170
400.4002, 2350.224
400.8824, 2367.789
401.3645, 2384.437
401.8466, 2402.348
402.3287, 2421.505
402.8108, 2444.906
403.2929, 2474.767
403.7751, 2505.143
404.2572, 2530.882
404.7393, 2551.684
405.2214, 2569.542
405.7035, 2585.638
406.1856, 2598.475
406.6678, 2600.005
407.1499, 2588.486
407.6320, 2577.773
408.1141, 2578.925
408.5962, 2590.428
409.0783, 2597.554
409.5605, 2599.032
410.0426, 2596.147
410.5247, 2589.886
411.0068, 2580.555
411.4889, 2569.576
411.9710, 2556.162
412.4532, 2542.001
412.9353, 2529.898
413.4174, 2520.003
413.8995, 2511.246
414.3816, 2505.404
414.8637, 2499.572
415.3459, 2488.785
415.8280, 2469.507
416.3101, 2446.635
416.7922, 2421.612
417.2743, 2395.599
417.7564, 2371.699
418.2386, 2353.834
418.7207, 2337.583
419.2028, 2319.612
419.6849, 2297.656
420.1670, 2277.248
420.6491, 2260.561
421.1313, 2246.479
421.6134, 2232.821
422.0955, 2226.899
422.5776, 2214.169
423.0597, 2188.563
423.5418, 2147.890
424.0240, 2105.132
424.5061, 2059.261
424.9882, 2012.691
425.4703, 1967.296
425.9524, 1922.153
426.4345, 1880.084
426.9167, 1844.670
427.3988, 1813.192
427.8809, 1770.195
428.3630, 1710.329
428.8451, 1649.483
429.3272, 1597.842
429.8094, 1555.986
430.2915, 1517.976
430.7736, 1484.334
431.2557, 1453.240
431.7378, 1421.358
432.2199, 1388.531
432.7021, 1359.457
433.1842, 1337.047
433.6663, 1320.085
434.1484, 1303.391
434.6305, 1286.992
435.1126, 1271.368
435.5948, 1258.460
436.0769, 1246.937
436.5590, 1232.754
437.0411, 1212.839
437.5232, 1192.758
438.0053, 1177.576
438.4875, 1167.405
438.9696, 1162.709
439.4517, 1172.603
439.9338, 1183.287
440.4159, 1179.059
440.8980, 1152.950
441.3802, 1130.473
441.8623, 1129.347
442.3444, 1138.629
442.8265, 1142.704
443.3086, 1132.567
443.7907, 1120.310
444.2729, 1108.351
444.7550, 1096.917
445.2371, 1090.792
445.7192, 1096.536
446.2013, 1103.945
446.6834, 1106.259
447.1656, 1098.260
447.6477, 1092.645
448.1298, 1092.011
448.6119, 1093.711
449.0940, 1089.652
449.5761, 1074.739
450.0583, 1063.776
450.5404, 1064.600
451.0225, 1079.005
451.5046, 1085.657
451.9867, 1082.273
452.4688, 1075.844
452.9510, 1074.541
453.4331, 1078.464
453.9152, 1083.695
454.3973, 1090.080
454.8794, 1096.512
455.3615, 1100.716
455.8437, 1102.676
456.3258, 1100.905
456.8079, 1089.422
457.2900, 1074.169
457.7721, 1067.959
458.2542, 1073.722
458.7364, 1083.993
459.2185, 1095.216
459.7006, 1105.432
460.1827, 1110.267
460.6648, 1101.414
461.1469, 1091.310
461.6291, 1089.234
462.1112, 1095.115
462.5933, 1102.164
463.0754, 1111.741
463.5575, 1118.778
464.0396, 1118.855
464.5218, 1102.836
465.0039, 1090.805
465.4860, 1089.276
465.9681, 1094.554
466.4502, 1097.040
466.9323, 1094.062
467.4145, 1090.273
467.8966, 1085.700
468.3787, 1078.818
468.8608, 1080.398
469.3429, 1096.140
469.8250, 1113.931
470.3072, 1120.883
470.7893, 1114.360
471.2714, 1106.976
471.7535, 1099.989
472.2356, 1094.079
472.7177, 1092.791
473.1999, 1096.635
473.6820, 1100.088
474.1641, 1097.013
474.6462, 1089.986
475.1284, 1093.086
475.6105, 1109.046
476.0926, 1125.284
476.5747, 1123.645
477.0568, 1110.417
477.5389, 1101.718
478.0211, 1105.778
478.5032, 1115.690
478.9853, 1125.981
479.4674, 1136.515
479.9495, 1146.121
480.4316, 1155.562
480.9138, 1162.960
481.3959, 1165.809
481.8780, 1160.660
482.3601, 1158.441
482.8422, 1164.428
483.3243, 1175.307
483.8065, 1185.964
484.2886, 1197.995
484.7707, 1207.141
485.2528, 1210.309
485.7349, 1207.449
486.2170, 1209.431
486.6992, 1217.437
487.1813, 1229.048
487.6634, 1244.272
488.1455, 1267.379
488.6276, 1280.653
489.1097, 1279.414
489.5919, 1271.541
490.0740, 1272.871
490.5561, 1284.084
491.0382, 1298.403
491.5203, 1312.719
492.0024, 1327.855
492.4846, 1349.503
492.9667, 1378.134
493.4488, 1403.362
493.9309, 1412.880
494.4130, 1411.732
494.8951, 1411.294
495.3773, 1413.761
495.8594, 1418.341
496.3415, 1423.396
496.8236, 1429.854
497.3057, 1440.028
497.7878, 1457.490
498.2700, 1477.255
498.7521, 1496.412
499.2342, 1514.519
499.7163, 1533.211
500.1984, 1551.473
500.6805, 1571.000
501.1627, 1593.337
501.6448, 1621.023
502.1269, 1648.485
502.6090, 1676.752
503.0911, 1704.560
503.5732, 1728.614
504.0554, 1746.518
504.5375, 1764.268
505.0196, 1783.538
505.5017, 1804.256
505.9838, 1827.575
506.4659, 1853.793
506.9481, 1881.776
507.4302, 1912.807
507.9123, 1947.026
508.3944, 1970.678
508.8765, 1978.439
509.3586, 1979.181
509.8408, 1991.278
510.3229, 2012.809
510.8050, 2030.381
511.2871, 2033.219
511.7692, 2028.696
512.2513, 2029.098
512.7335, 2035.172
513.2156, 2037.443
513.6977, 2024.425
514.1798, 2005.650
514.6619, 1992.188
515.1440, 1989.706
515.6262, 1989.817
516.1083, 1991.037
516.5904, 1992.469
517.0725, 1991.781
517.5546, 1975.790
518.0367, 1969.188
518.5189, 1985.071
519.0010, 2028.062
519.4831, 2062.425
519.9652, 2079.673
520.4473, 2096.406
520.9294, 2129.001
521.4116, 2184.437
521.8937, 2230.167
522.3758, 2259.718
522.8579, 2279.932
523.3400, 2306.351
523.8221, 2339.024
524.3043, 2375.569
524.7864, 2417.886
525.2685, 2463.214
525.7506, 2503.588
526.2327, 2539.075
526.7148, 2572.176
527.1970, 2605.380
527.6791, 2638.040
528.1612, 2669.219
528.6433, 2698.954
529.1254, 2727.236
529.6075, 2759.488
530.0897, 2790.019
530.5718, 2806.201
531.0539, 2799.248
531.5360, 2780.614
532.0181, 2753.826
532.5002, 2719.144
532.9824, 2680.044
533.4645, 2638.396
533.9466, 2591.566
534.4287, 2538.621
534.9108, 2477.513
535.3929, 2412.123
535.8751, 2338.019
536.3572, 2262.939
536.8393, 2202.462
537.3214, 2159.074
537.8035, 2116.797
538.2856, 2069.382
538.7678, 2018.845
539.2499, 1972.600
539.7320, 1930.601
540.2141, 1893.985
540.6962, 1867.799
541.1783, 1847.353
541.6605, 1819.091
542.1426, 1778.947
542.6247, 1741.959
543.1068, 1727.314
543.5889, 1724.678
544.0710, 1716.434
544.5532, 1689.397
545.0353, 1660.734
545.5174, 1639.778
545.9995, 1625.009
546.4816, 1609.024
546.9637, 1582.902
547.4459, 1560.585
547.9280, 1550.748
548.4101, 1561.369
548.8922, 1561.542
549.3743, 1544.434
549.8564, 1522.589
550.3386, 1509.364
550.8207, 1507.064
551.3028, 1506.425
551.7849, 1507.730
552.2670, 1508.451
552.7491, 1498.271
553.2313, 1476.581
553.7134, 1460.589
554.1955, 1463.159
554.6776, 1478.187
555.1597, 1491.613
555.6418, 1503.195
556.1240, 1506.406
556.6061, 1486.365
557.0882, 1457.221
557.5703, 1440.670
558.0524, 1447.471
558.5345, 1456.163
559.0167, 1454.488
559.4988, 1445.943
559.9809, 1437.099
560.4630, 1422.619
560.9451, 1415.210
561.4272, 1424.040
561.9094, 1449.564
562.3915, 1463.149
562.8736, 1459.192
563.3557, 1449.150
563.8378, 1439.073
564.3199, 1429.475
564.8021, 1417.591
565.2842, 1402.939
565.7663, 1386.942
566.2484, 1370.738
566.7305, 1354.259
567.2126, 1341.912
567.6948, 1336.549
568.1769, 1334.164
568.6590, 1327.636
569.1411, 1317.318
569.6232, 1305.605
570.1053, 1291.957
570.5875, 1278.633
571.0696, 1267.195
571.5517, 1257.699
572.0338, 1252.659
572.5159, 1259.027
572.9980, 1267.709
573.4802, 1270.382
573.9623, 1262.269
574.4444, 1251.964
574.9265, 1238.497
575.4086, 1224.055
575.8907, 1213.358
576.3729, 1207.917
576.8550, 1203.737
577.3371, 1199.984
577.8192, 1196.685
578.3013, 1194.858
578.7834, 1195.525
579.2656, 1193.654
579.7477, 1181.899
580.2298, 1162.876
580.7119, 1155.951
581.1940, 1164.072
581.6761, 1175.390
582.1583, 1176.713
582.6404, 1171.450
583.1225, 1166.933
583.6046, 1167.038
584.0867, 1166.842
584.5688, 1162.112
585.0510, 1154.120
585.5331, 1146.430
586.0152, 1138.323
586.4973, 1132.645
586.9794, 1132.011
587.4615, 1137.475
587.9437, 1139.529
588.4258, 1137.048
588.9079, 1131.811
589.3900, 1123.628
589.8721, 1108.604
590.3542, 1103.506
590.8364, 1112.184
591.3185, 1126.195
591.8006, 1131.620
592.2827, 1128.671
592.7648, 1126.999
593.2469, 1130.735
593.7291, 1136.320
594.2112, 1135.003
594.6933, 1128.360
595.1754, 1124.754
595.6575, 1132.705
596.1396, 1144.156
596.6218, 1150.756
597.1039, 1151.596
597.5860, 1153.035
598.0681, 1160.769
598.5502, 1168.821
599.0323, 1172.133
599.5145, 1163.262
599.9966, 1159.154
600.4787, 1164.841
600.9608, 1174.344
601.4429, 1177.083
601.9250, 1168.240
602.4072, 1164.509
602.8893, 1171.890
603.3714, 1186.952
603.8535, 1193.802
604.3356, 1191.887
604.8177, 1189.837
605.2999, 1193.717
605.7820, 1201.583
606.2641, 1208.144
606.7462, 1213.252
607.2283, 1217.106
607.7104, 1218.755
608.1926, 1219.723
608.6747, 1221.910
609.1568, 1225.576
609.6389, 1230.945
610.1210, 1238.910
610.6031, 1248.445
611.0853, 1257.701
611.5674, 1268.192
612.0495, 1276.129
612.5316, 1278.674
613.0137, 1277.297
613.4958, 1282.046
613.9780, 1295.013
614.4601, 1309.151
614.9422, 1320.741
615.4243, 1329.863
615.9064, 1339.139
616.3885, 1348.192
616.8707, 1360.343
617.3528, 1381.797
617.8349, 1408.650
618.3170, 1432.232
618.7991, 1450.922
619.2813, 1465.115
619.7634, 1472.179
620.2455, 1475.474
620.7276, 1480.779
621.2097, 1489.508
621.6918, 1501.423
622.1740, 1516.557
622.6561, 1534.872
623.1382, 1556.276
623.6203, 1583.293
624.1024, 1610.589
624.5845, 1636.497
625.0667, 1661.042
625.5488, 1685.233
626.0309, 1709.585
626.5130, 1732.619
626.9951, 1751.998
627.4772, 1768.211
627.9594, 1786.325
628.4415, 1806.495
628.9236, 1830.296
629.4057, 1860.330
629.8878, 1895.219
630.3699, 1931.799
630.8521, 1970.458
631.3342, 2008.780
631.8163, 2042.800
632.2984, 2074.750
632.7805, 2110.353
633.2626, 2156.386
633.7448, 2201.499
634.2269, 2239.048
634.7090, 2268.879
635.1911, 2305.063
635.6732, 2354.415
636.1553, 2400.877
636.6375, 2432.388
637.1196, 2445.863
637.6017, 2466.703
638.0838, 2494.076
638.5659, 2531.838
639.0480, 2591.199
639.5302, 2665.938
640.0123, 2732.492
640.4944, 2783.236
640.9765, 2829.560
641.4586, 2879.123
641.9407, 2934.511
642.4229, 3002.363
642.9050, 3094.375
643.3871, 3189.959
643.8692, 3273.867
644.3513, 3349.783
644.8334, 3445.455
645.3156, 3568.278
645.7977, 3708.465
646.2798, 3865.743
646.7619, 4039.458
647.2440, 4223.468
647.7261, 4416.194
648.2083, 4620.295
648.6904, 4829.735
649.1725, 5045.964
649.6546, 5287.994
650.1367, 5556.873
650.6188, 5845.864
651.1010, 6144.651
651.5831, 6454.649
652.0652, 6778.632
652.5473, 7116.434
653.0294, 7470.014
653.5115, 7848.688
653.9937, 8245.231
654.4758, 8635.382
654.9579, 8993.477
655.4400, 9364.100
655.9221, 9769.402
656.4042, 10204.31
656.8864, 10623.64
657.3685, 11023.21
657.8506, 11415.50
658.3327, 11813.19
658.8148, 12215.79
659.2969, 12582.15
659.7791, 12916.04
660.2612, 13210.45
660.7433, 13464.10
661.2254, 13671.80
661.7075, 13823.93
662.1896, 13924.71
662.6718, 13945.73
663.1539, 13862.18
663.6360, 13684.73
664.1181, 13430.38
664.6002, 13099.29
665.0823, 12696.12
665.5645, 12198.03
666.0466, 11627.25
666.5287, 11042.88
667.0108, 10444.50
667.4929, 9841.137
667.9750, 9234.279
668.4572, 8627.385
668.9393, 8047.584
669.4214, 7492.678
669.9035, 6983.531
670.3856, 6549.842
670.8677, 6172.996
671.3499, 5806.349
671.8320, 5451.631
672.3141, 5129.367
672.7962, 4862.710
673.2783, 4637.297
673.7604, 4445.029
674.2426, 4297.781
674.7247, 4147.473
675.2068, 3960.980
675.6889, 3773.502
676.1710, 3619.545
676.6531, 3514.670
677.1353, 3416.559
677.6174, 3321.395
678.0995, 3230.755
678.5816, 3149.116
679.0637, 3075.923
679.5458, 3010.385
680.0280, 2952.725
680.5101, 2902.155
680.9922, 2856.813
681.4743, 2816.912
681.9564, 2781.360
682.4385, 2750.493
682.9207, 2723.369
683.4028, 2704.219
683.8849, 2691.843
684.3670, 2669.854
684.8491, 2614.931
685.3312, 2562.453
685.8134, 2535.903
686.2955, 2544.601
686.7776, 2542.433
687.2597, 2528.383
687.7418, 2505.191
688.2239, 2470.857
688.7061, 2424.957
689.1882, 2392.370
689.6703, 2377.544
690.1524, 2370.905
690.6345, 2363.709
691.1166, 2354.912
691.5988, 2342.165
692.0809, 2327.639
692.5630, 2304.455
693.0451, 2257.286
693.5272, 2198.564
694.0093, 2153.668
694.4915, 2143.869
694.9736, 2134.156
695.4557, 2115.573
695.9378, 2089.278
696.4199, 2058.482
696.9020, 2020.002
697.3842, 1984.783
697.8663, 1958.007
698.3484, 1938.640
698.8305, 1920.440
699.3126, 1903.652
699.7947, 1884.428
700.2769, 1856.806
700.7590, 1826.066
701.2411, 1800.362
701.7232, 1780.516
702.2053, 1764.122
702.6874, 1753.966
703.1696, 1744.320
703.6517, 1729.603
704.1338, 1703.323
704.6159, 1683.468
705.0980, 1675.867
705.5801, 1671.730
706.0623, 1659.885
706.5444, 1636.574
707.0265, 1622.609
707.5086, 1623.557
707.9907, 1629.727
708.4728, 1622.497
708.9550, 1604.389
709.4371, 1589.562
709.9192, 1584.118
710.4013, 1582.984
710.8834, 1584.815
711.3655, 1586.883
711.8477, 1581.812
712.3298, 1559.611
712.8119, 1536.347
713.2940, 1516.277
713.7761, 1500.266
714.2582, 1492.596
714.7404, 1498.633
715.2225, 1504.258
715.7046, 1502.045
716.1867, 1492.560
716.6688, 1492.114
717.1509, 1501.845
717.6331, 1510.292
718.1152, 1505.000
718.5973, 1492.523
719.0794, 1487.542
719.5615, 1491.844
720.0436, 1495.463
720.5258, 1489.369
721.0079, 1480.486
721.4900, 1476.045
721.9721, 1483.137
722.4542, 1482.940
722.9363, 1466.290
723.4185, 1445.561
723.9006, 1432.653
724.3827, 1429.284
724.8648, 1428.581
725.3469, 1430.440
725.8290, 1433.469
726.3112, 1436.827
726.7933, 1439.797
727.2754, 1437.693
727.7575, 1424.542
728.2396, 1412.136
728.7217, 1414.973
729.2039, 1428.363
729.6860, 1441.234
730.1681, 1451.466
730.6502, 1458.038
731.1323, 1460.382
731.6144, 1458.499
732.0966, 1452.850
732.5787, 1439.214
733.0608, 1429.250
733.5429, 1427.843
734.0250, 1433.834
734.5071, 1439.405
734.9893, 1444.491
735.4714, 1450.899
735.9535, 1463.472
736.4356, 1476.766
736.9177, 1478.013
737.3998, 1467.324
737.8820, 1462.426
738.3641, 1478.371
738.8462, 1500.805
739.3283, 1519.544
739.8104, 1532.305
740.2925, 1545.315
740.7747, 1560.174
741.2568, 1574.305
741.7389, 1586.050
742.2210, 1595.326
742.7031, 1601.968
743.1852, 1605.046
743.6674, 1608.758
744.1495, 1621.081
744.6316, 1637.985
745.1137, 1648.151
745.5958, 1647.360
746.0779, 1644.349
746.5601, 1648.018
747.0422, 1652.814
747.5243, 1651.119
748.0064, 1627.476
748.4885, 1614.195
748.9706, 1624.865
749.4528, 1644.849
749.9349, 1648.663
750.4170, 1631.380
750.8991, 1616.432
751.3812, 1609.652
751.8633, 1607.591
752.3455, 1600.821
752.8276, 1591.261
753.3097, 1588.474
753.7918, 1604.528
754.2739, 1622.827
754.7560, 1624.218
755.2382, 1614.304
755.7203, 1611.439
756.2024, 1630.100
756.6845, 1648.815
757.1666, 1657.970
757.6487, 1659.326
758.1309, 1667.189
758.6130, 1683.461
759.0951, 1701.595
759.5772, 1720.622
760.0593, 1739.294
760.5414, 1749.873
761.0236, 1752.771
761.5057, 1753.979
761.9878, 1757.345
762.4699, 1761.555
762.9520, 1767.066
763.4341, 1773.817
763.9163, 1774.278
764.3984, 1760.757
764.8805, 1743.828
765.3626, 1729.807
765.8447, 1719.333
766.3268, 1709.724
766.8090, 1702.084
767.2911, 1693.117
767.7732, 1678.137
768.2553, 1658.413
768.7374, 1644.728
769.2195, 1637.964
769.7017, 1635.404
770.1838, 1641.219
770.6659, 1646.914
771.1480, 1638.841
771.6301, 1609.074
772.1122, 1583.714
772.5944, 1573.894
773.0765, 1572.342
773.5586, 1572.009
774.0407, 1572.777
774.5228, 1574.862
775.0049, 1579.711
775.4871, 1583.625
775.9692, 1579.135
776.4513, 1567.637
776.9334, 1562.395
777.4155, 1566.780
777.8976, 1575.932
778.3798, 1592.097
778.8619, 1607.540
779.3440, 1608.797
779.8261, 1575.454
780.3082, 1548.197
780.7903, 1545.554
781.2725, 1555.799
781.7546, 1556.672
782.2367, 1541.320
782.7188, 1533.003
783.2009, 1539.169
783.6830, 1550.185
784.1652, 1543.604
784.6473, 1521.676
785.1294, 1502.600
785.6115, 1493.718
786.0936, 1489.664
786.5757, 1485.192
787.0579, 1480.726
787.5400, 1477.246
788.0221, 1482.069
788.5042, 1480.407
788.9863, 1461.114
789.4684, 1431.391
789.9506, 1413.971
790.4327, 1414.110
790.9148, 1412.688
791.3969, 1403.948
791.8790, 1389.677
792.3611, 1373.127
792.8433, 1354.927
793.3254, 1340.811
793.8075, 1335.287
794.2896, 1333.972
794.7717, 1334.890
795.2538, 1336.894
795.7360, 1335.522
796.2181, 1329.900
796.7002, 1319.681
797.1823, 1301.093
797.6644, 1276.344
798.1465, 1264.743
798.6287, 1269.061
799.1108, 1276.374
799.5929, 1283.841
800.0750, 1288.919
800.5571, 1280.148
801.0392, 1259.605
801.5214, 1241.905
802.0035, 1236.453
802.4856, 1237.901
802.9677, 1245.863
803.4498, 1259.343
803.9319, 1265.828
804.4141, 1257.230
804.8962, 1246.575
805.3783, 1238.258
805.8604, 1232.188
806.3425, 1225.005
806.8246, 1216.139
807.3068, 1209.891
807.7889, 1209.979
808.2710, 1214.411
808.7531, 1221.360
809.2352, 1230.121
809.7173, 1233.156
810.1995, 1216.363
810.6816, 1200.015
811.1637, 1200.289
811.6458, 1220.711
812.1279, 1232.056
812.6100, 1227.286
813.0922, 1221.805
813.5743, 1224.431
814.0564, 1234.678
814.5385, 1242.164
815.0206, 1247.050
815.5027, 1245.750
815.9849, 1228.352
816.4670, 1206.581
816.9491, 1198.561
817.4312, 1205.444
817.9133, 1210.755
818.3954, 1201.511
818.8776, 1192.873
819.3597, 1196.032
819.8418, 1213.170
820.3239, 1222.772
820.8060, 1222.163
821.2881, 1220.388
821.7703, 1223.512
822.2524, 1230.843
822.7345, 1240.988
823.2166, 1253.822
823.6987, 1260.511
824.1808, 1246.727
824.6630, 1228.176
825.1451, 1222.042
825.6272, 1231.338
826.1093, 1235.958
826.5914, 1225.207
827.0735, 1214.297
827.5557, 1210.914
828.0378, 1215.866
828.5199, 1219.066
829.0020, 1220.291
829.4841, 1220.776
829.9662, 1220.955
830.4484, 1221.218
830.9305, 1222.764
831.4126, 1225.617
831.8947, 1227.856
832.3768, 1227.086
832.8589, 1226.163
833.3411, 1226.884
833.8232, 1229.565
834.3053, 1234.074
834.7874, 1242.557
835.2695, 1249.161
835.7516, 1250.055
836.2338, 1245.448
836.7159, 1236.947
837.1980, 1224.392
837.6801, 1215.420
838.1622, 1217.541
838.6443, 1225.481
839.1265, 1234.712
839.6086, 1244.969
840.0907, 1252.874
840.5728, 1258.372
841.0549, 1260.170
841.5370, 1256.913
842.0192, 1248.223
842.5013, 1241.072
842.9834, 1235.256
843.4655, 1231.929
843.9476, 1233.314
844.4298, 1237.477
844.9119, 1240.343
845.3940, 1241.736
845.8762, 1241.216
846.3583, 1233.726
846.8404, 1228.105
847.3225, 1231.815
847.8046, 1246.208
848.2867, 1256.709
848.7689, 1261.383
849.2510, 1264.963
849.7331, 1270.267
850.2152, 1276.629
850.6973, 1278.203
851.1794, 1275.120
851.6616, 1271.861
852.1437, 1270.200
852.6258, 1270.674
853.1079, 1276.488
853.5900, 1286.492
854.0721, 1290.595
854.5543, 1278.402
855.0364, 1266.915
855.5185, 1261.594
856.0006, 1262.312
856.4827, 1270.373
856.9648, 1287.565
857.4470, 1300.229
857.9291, 1299.923
858.4112, 1291.146
858.8933, 1279.804
859.3754, 1267.370
859.8575, 1260.714
860.3397, 1268.381
860.8218, 1278.096
861.3039, 1282.874
861.7860, 1283.672
862.2681, 1287.934
862.7502, 1295.677
863.2324, 1307.849
863.7145, 1329.006
864.1966, 1352.118
864.6787, 1352.512
865.1608, 1333.923
865.6429, 1319.095
866.1251, 1321.548
866.6072, 1330.096
867.0893, 1336.838
867.5714, 1342.837
868.0535, 1351.062
868.5356, 1367.589
869.0178, 1379.318
869.4999, 1381.919
869.9820, 1379.620
870.4641, 1384.575
870.9462, 1396.652
871.4283, 1403.678
871.9105, 1400.704
872.3926, 1393.099
872.8747, 1384.966
873.3568, 1377.719
873.8389, 1374.110
874.3210, 1374.170
874.8032, 1379.156
875.2853, 1392.739
875.7674, 1409.962
876.2495, 1425.057
876.7316, 1438.766
877.2137, 1446.101
877.6959, 1445.432
878.1780, 1440.420
878.6601, 1433.367
879.1422, 1426.357
879.6243, 1424.069
880.1064, 1428.036
880.5886, 1436.241
881.0707, 1453.142
881.5528, 1471.052
882.0349, 1480.376
882.5170, 1475.911
882.9991, 1475.447
883.4813, 1480.500
883.9634, 1486.998
884.4455, 1491.972
884.9276, 1494.734
885.4097, 1490.413
885.8918, 1477.322
886.3740, 1467.996
886.8561, 1476.107
887.3382, 1489.657
887.8203, 1497.911
888.3024, 1497.472
888.7845, 1497.797
889.2667, 1497.497
889.7488, 1500.645
890.2309, 1511.155
890.7130, 1528.315
891.1951, 1547.035
891.6772, 1567.218
892.1594, 1581.488
892.6415, 1578.867
893.1236, 1571.044
893.6057, 1568.075
894.0878, 1570.731
894.5699, 1577.604
895.0521, 1591.031
895.5342, 1605.836
896.0163, 1622.063
896.4984, 1638.657
896.9805, 1640.405
897.4626, 1627.257
897.9448, 1622.686
898.4269, 1647.875
898.9090, 1683.970
899.3911, 1709.200
899.8732, 1725.599
900.3553, 1741.897
900.8375, 1763.131
901.3196, 1782.024
901.8017, 1797.323
902.2838, 1808.632
902.7659, 1812.704
903.2480, 1808.255
903.7302, 1809.573
904.2123, 1822.432
904.6944, 1840.949
905.1765, 1859.069
905.6586, 1876.250
906.1407, 1891.555
906.6229, 1907.542
907.1050, 1917.935
907.5871, 1916.192
908.0692, 1909.805
908.5513, 1909.275
909.0334, 1916.855
909.5156, 1918.931
909.9977, 1913.007
910.4798, 1904.089
910.9619, 1899.246
911.4440, 1895.884
911.9261, 1886.786
912.4083, 1867.487
912.8904, 1856.277
913.3725, 1875.068
913.8546, 1896.312
914.3367, 1896.455
914.8188, 1869.558
915.3010, 1845.132
915.7831, 1823.666
916.2652, 1803.649
916.7473, 1782.257
917.2294, 1761.838
917.7115, 1748.631
918.1937, 1742.701
918.6758, 1739.072
919.1579, 1737.063
919.6400, 1734.661
920.1221, 1732.405
920.6042, 1729.882
921.0864, 1717.870
921.5685, 1693.405
922.0506, 1668.826
922.5327, 1648.378
923.0148, 1632.566
923.4969, 1626.018
923.9791, 1626.309
924.4612, 1624.282
924.9433, 1611.361
925.4254, 1599.137
925.9075, 1592.014
926.3896, 1590.241
926.8718, 1594.293
927.3539, 1608.879
927.8360, 1615.389
928.3181, 1608.728
928.8002, 1595.943
929.2823, 1586.988
929.7645, 1581.809
930.2466, 1581.297
930.7287, 1588.201
931.2108, 1593.162
931.6929, 1588.389
932.1750, 1580.190
932.6572, 1575.792
933.1393, 1578.710
933.6214, 1576.530
934.1035, 1567.327
934.5856, 1558.131
935.0677, 1554.773
935.5499, 1556.583
936.0320, 1563.086
936.5141, 1574.193
936.9962, 1584.198
937.4783, 1587.685
937.9604, 1590.621
938.4426, 1598.865
938.9247, 1612.711
939.4068, 1617.291
939.8889, 1609.095
940.3710, 1603.096
940.8531, 1609.542
941.3353, 1621.585
941.8174, 1617.145
942.2995, 1601.477
942.7816, 1595.687
943.2637, 1622.817
943.7458, 1649.199
944.2280, 1655.642
944.7101, 1649.681
945.1922, 1651.890
945.6743, 1664.458
946.1564, 1677.393
946.6385, 1688.733
947.1207, 1700.365
947.6028, 1716.119
948.0849, 1734.426
948.5670, 1752.944
949.0491, 1774.373
949.5313, 1786.503
950.0134, 1769.367
950.4955, 1750.185
950.9776, 1754.675
951.4597, 1790.373
951.9418, 1820.326
952.4240, 1842.987
952.9061, 1866.857
953.3882, 1901.870
953.8703, 1941.950
954.3524, 1976.118
954.8345, 2003.866
955.3167, 2028.437
955.7988, 2046.879
956.2809, 2066.599
956.7630, 2090.836
957.2451, 2119.093
957.7272, 2148.311
958.2094, 2177.438
958.6915, 2218.775
959.1736, 2286.381
959.6557, 2357.959
960.1378, 2392.687
960.6199, 2404.816
961.1021, 2428.050
961.5842, 2481.506
962.0663, 2539.108
962.5484, 2595.993
963.0305, 2653.148
963.5126, 2712.806
963.9948, 2776.164
964.4769, 2827.758
964.9590, 2863.827
965.4411, 2898.655
965.9232, 2948.248
966.4053, 3004.378
966.8875, 3060.868
967.3696, 3118.810
967.8517, 3159.838
968.3338, 3168.242
968.8159, 3172.975
969.2980, 3191.311
969.7802, 3220.668
970.2623, 3224.988
970.7444, 3205.421
971.2265, 3187.147
971.7086, 3199.623
972.1907, 3208.652
972.6729, 3176.893
973.1550, 3115.505
973.6371, 3064.714
974.1192, 3034.905
974.6013, 3011.590
975.0834, 2999.352
975.5656, 2984.205
976.0477, 2933.101
976.5298, 2853.879
977.0119, 2783.802
977.4940, 2733.849
977.9761, 2688.612
978.4583, 2637.023
978.9404, 2584.790
979.4225, 2538.510
979.9046, 2498.818
980.3867, 2464.902
980.8688, 2440.265
981.3510, 2412.346
981.8331, 2364.266
982.3152, 2306.534
982.7973, 2271.573
983.2794, 2257.577
983.7615, 2244.951
984.2437, 2218.979
984.7258, 2195.937
985.2079, 2187.172
985.6900, 2188.000
986.1721, 2180.228
986.6542, 2159.873
987.1364, 2157.017
987.6185, 2187.211
988.1006, 2224.030
988.5827, 2223.769
989.0648, 2203.165
989.5469, 2192.964
990.0291, 2205.844
990.5112, 2222.932
990.9933, 2240.957
991.4754, 2260.711
991.9575, 2286.364
992.4396, 2318.764
992.9218, 2326.039
993.4039, 2305.680
993.8860, 2293.727
994.3681, 2332.333
994.8502, 2383.679
995.3323, 2409.978
995.8145, 2410.907
996.2966, 2415.078
996.7787, 2429.890
997.2608, 2442.545
997.7429, 2448.563
998.2250, 2450.537
998.7072, 2456.766
999.1893, 2465.449
999.6714, 2468.476
1000.154, 2461.158
1000.636, 2450.776
1001.118, 2443.540
1001.600, 2435.061
1002.082, 2417.379
1002.564, 2379.465
1003.046, 2365.302
1003.528, 2379.350
1004.010, 2403.974
1004.493, 2425.662
1004.975, 2445.253
1005.457, 2462.400
1005.939, 2477.671
1006.421, 2495.470
1006.903, 2519.429
1007.385, 2544.613
1007.867, 2568.219
1008.349, 2591.332
1008.832, 2613.797
1009.314, 2635.051
1009.796, 2677.179
1010.278, 2756.837
1010.760, 2842.333
1011.242, 2890.426
1011.724, 2923.808
1012.206, 2976.443
1012.689, 3075.588
1013.171, 3158.653
1013.653, 3211.782
1014.135, 3268.841
1014.617, 3366.305
1015.099, 3495.686
1015.581, 3615.725
1016.063, 3724.757
1016.545, 3829.887
1017.028, 3931.715
1017.510, 4034.782
1017.992, 4144.946
1018.474, 4259.923
1018.956, 4365.036
1019.438, 4458.618
1019.920, 4550.337
1020.402, 4643.802
1020.885, 4733.220
1021.367, 4810.185
1021.849, 4875.755
1022.331, 4932.251
1022.813, 4982.268
1023.295, 5018.835
1023.777, 5042.643
1024.259, 5050.048
1024.741, 5036.798
1025.224, 5002.717
1025.706, 4955.410
1026.188, 4894.919
1026.670, 4828.599
1027.152, 4768.802
1027.634, 4699.471
1028.116, 4604.362
1028.598, 4486.487
1029.080, 4361.134
1029.563, 4225.373
1030.045, 4092.292
1030.527, 3965.572
1031.009, 3843.469
1031.491, 3727.666
1031.973, 3616.081
1032.455, 3499.940
1032.937, 3371.847
1033.420, 3256.913
1033.902, 3171.743
1034.384, 3097.955
1034.866, 3022.530
1035.348, 2945.111
1035.830, 2876.523
1036.312, 2816.492
1036.794, 2757.274
1037.276, 2689.466
1037.759, 2622.424
1038.241, 2569.756
1038.723, 2526.680
1039.205, 2477.571
1039.687, 2408.856
1040.169, 2353.389
1040.651, 2318.130
1041.133, 2293.755
1041.615, 2268.904
1042.098, 2243.668
1042.580, 2219.393
1043.062, 2196.167
1043.544, 2174.372
1044.026, 2156.496
1044.508, 2138.492
1044.990, 2117.763
1045.472, 2094.446
1045.955, 2067.949
1046.437, 2038.163
1046.919, 2012.171
1047.401, 1995.429
1047.883, 1982.259
1048.365, 1966.102
1048.847, 1948.432
1049.329, 1932.311
1049.812, 1918.967
1050.294, 1907.397
1050.776, 1899.067
1051.258, 1889.833
1051.740, 1874.656
1052.222, 1854.843
1052.704, 1834.563
1053.186, 1814.172
1053.668, 1796.650
1054.151, 1787.005
1054.633, 1777.186
1055.115, 1760.522
1055.597, 1740.009
1056.079, 1729.558
1056.561, 1730.327
1057.043, 1725.146
1057.525, 1706.495
1058.007, 1686.146
1058.490, 1679.340
1058.972, 1678.734
1059.454, 1673.640
1059.936, 1656.856
1060.418, 1649.517
1060.900, 1656.423
1061.382, 1664.561
1061.864, 1665.866
1062.347, 1661.103
1062.829, 1651.069
1063.311, 1636.814
1063.793, 1623.713
1064.275, 1612.743
1064.757, 1605.575
1065.239, 1607.446
1065.721, 1611.126
1066.203, 1602.817
1066.686, 1581.797
1067.168, 1567.188
1067.650, 1562.264
1068.132, 1560.955
1068.614, 1559.509
1069.096, 1557.515
1069.578, 1554.438
1070.060, 1550.166
1070.542, 1545.492
1071.025, 1539.797
1071.507, 1535.221
1071.989, 1531.902
1072.471, 1530.977
1072.953, 1535.645
1073.435, 1544.417
1073.917, 1554.266
1074.399, 1569.589
1074.882, 1576.172
1075.364, 1565.891
1075.846, 1549.755
1076.328, 1532.427
1076.810, 1514.515
1077.292, 1516.129
1077.774, 1536.844
1078.256, 1555.168
1078.739, 1557.915
1079.221, 1551.688
1079.703, 1536.046
1080.185, 1515.029
1080.667, 1501.484
1081.149, 1495.974
1081.631, 1497.405
1082.113, 1507.316
1082.595, 1518.078
1083.078, 1517.319
1083.560, 1512.272
1084.042, 1514.733
1084.524, 1528.199
1085.006, 1534.690
1085.488, 1525.933
1085.970, 1519.247
1086.452, 1523.704
1086.934, 1534.585
1087.417, 1534.558
1087.899, 1527.412
1088.381, 1527.628
1088.863, 1547.538
1089.345, 1565.462
1089.827, 1568.775
1090.309, 1567.848
1090.791, 1572.306
1091.274, 1582.354
1091.756, 1596.615
1092.238, 1615.207
1092.720, 1632.330
1093.202, 1638.372
1093.684, 1645.604
1094.166, 1672.716
1094.648, 1711.173
1095.130, 1724.203
1095.613, 1698.240
1096.095, 1683.800
1096.577, 1690.812
1097.059, 1708.163
1097.541, 1723.987
1098.023, 1738.437
1098.505, 1754.421
1098.987, 1773.750
1099.470, 1779.238
1099.952, 1757.995
1100.434, 1734.503
1100.916, 1718.582
1101.398, 1706.961
1101.880, 1688.328
1102.362, 1664.640
1102.844, 1643.338
1103.327, 1628.056
1103.809, 1614.048
1104.291, 1599.790
1104.773, 1584.967
1105.255, 1568.430
1105.737, 1549.307
1106.219, 1537.592
1106.701, 1533.281
1107.183, 1528.732
1107.666, 1518.202
1108.148, 1505.611
1108.630, 1493.318
1109.112, 1481.648
1109.594, 1471.051
1110.076, 1460.781
1110.558, 1454.224
1111.040, 1452.735
1111.522, 1451.190
1112.005, 1443.810
1112.487, 1432.591
1112.969, 1418.627
1113.451, 1402.264
1113.933, 1391.172
1114.415, 1390.319
1114.897, 1389.456
1115.379, 1385.998
1115.862, 1380.343
1116.344, 1370.023
1116.826, 1358.474
1117.308, 1356.987
1117.790, 1373.094
1118.272, 1384.384
1118.754, 1378.061
1119.236, 1366.663
1119.719, 1355.771
1120.201, 1346.087
1120.683, 1347.197
1121.165, 1357.830
1121.647, 1365.854
1122.129, 1365.205
1122.611, 1359.677
1123.093, 1346.757
1123.575, 1332.720
1124.057, 1326.476
1124.540, 1328.964
1125.022, 1336.911
1125.504, 1351.266
1125.986, 1359.982
1126.468, 1347.723
1126.950, 1328.901
1127.432, 1317.380
1127.914, 1312.474
1128.397, 1307.321
1128.879, 1298.198
1129.361, 1298.207
1129.843, 1312.006
1130.325, 1328.916
1130.807, 1336.662
1131.289, 1337.340
1131.771, 1332.772
1132.254, 1322.827
1132.736, 1314.422
1133.218, 1311.138
1133.700, 1305.405
1134.182, 1291.914
1134.664, 1276.908
1135.146, 1280.040
1135.628, 1294.567
1136.110, 1299.705
1136.593, 1283.702
1137.075, 1273.153
1137.557, 1287.146
1138.039, 1300.792
1138.521, 1297.305
1139.003, 1279.139
1139.485, 1267.516
1139.967, 1261.864
1140.449, 1258.803
1140.932, 1257.329
1141.414, 1257.010
1141.896, 1258.291
1142.378, 1260.249
1142.860, 1261.479
1143.342, 1261.746
1143.824, 1264.424
1144.306, 1269.720
1144.789, 1274.249
1145.271, 1276.476
1145.753, 1275.851
1146.235, 1270.176
1146.717, 1261.176
1147.199, 1254.881
1147.681, 1251.159
1148.163, 1251.456
1148.646, 1256.743
1149.128, 1262.488
1149.610, 1262.597
1150.092, 1261.436
1150.574, 1266.350
1151.056, 1277.653
1151.538, 1278.344
1152.020, 1263.399
1152.502, 1250.041
1152.984, 1243.534
1153.467, 1240.844
1153.949, 1238.784
1154.431, 1236.490
1154.913, 1231.771
1155.395, 1222.538
1155.877, 1218.137
1156.359, 1220.859
1156.841, 1225.788
1157.324, 1233.106
1157.806, 1238.991
1158.288, 1227.979
1158.770, 1207.381
1159.252, 1197.257
1159.734, 1212.630
1160.216, 1225.795
1160.698, 1232.917
1161.181, 1234.323
1161.663, 1226.476
1162.145, 1212.491
1162.627, 1212.418
1163.109, 1223.221
1163.591, 1227.719
1164.073, 1206.944
1164.555, 1190.878
1165.037, 1191.077
1165.520, 1199.822
1166.002, 1211.759
1166.484, 1225.815
1166.966, 1226.166
1167.448, 1212.487
1167.930, 1203.200
1168.412, 1218.373
1168.894, 1232.680
1169.376, 1230.029
1169.859, 1217.649
1170.341, 1209.860
1170.823, 1206.558
1171.305, 1204.251
1171.787, 1202.056
1172.269, 1203.696
1172.751, 1217.370
1173.233, 1231.664
1173.716, 1236.663
1174.198, 1234.094
1174.680, 1233.242
1175.162, 1234.290
1175.644, 1232.803
1176.126, 1227.133
1176.608, 1219.810
1177.090, 1209.731
1177.573, 1201.461
1178.055, 1201.340
1178.537, 1210.008
1179.019, 1214.096
1179.501, 1213.289
1179.983, 1210.459
1180.465, 1203.976
1180.947, 1200.788
1181.429, 1217.157
1181.911, 1238.050
1182.394, 1239.497
1182.876, 1211.106
1183.358, 1194.228
1183.840, 1189.746
1184.322, 1191.372
1184.804, 1196.271
1185.286, 1204.062
1185.768, 1219.138
1186.251, 1235.761
1186.733, 1240.526
1187.215, 1223.600
1187.697, 1213.177
1188.179, 1211.030
1188.661, 1211.403
1189.143, 1211.621
1189.625, 1209.922
1190.108, 1199.851
1190.590, 1185.269
1191.072, 1180.671
1191.554, 1195.381
1192.036, 1206.484
1192.518, 1211.829
1193.000, 1212.624
1193.482, 1206.520
1193.964, 1198.805
1194.447, 1199.996
1194.929, 1209.161
1195.411, 1211.638
1195.893, 1199.564
1196.375, 1190.710
1196.857, 1188.397
1197.339, 1190.782
1197.821, 1200.367
1198.303, 1210.668
1198.786, 1207.034
1199.268, 1187.327
1199.750, 1178.256
1200.232, 1190.718
1200.714, 1203.704
1201.196, 1213.844
1201.678, 1217.099
1202.160, 1196.434
1202.643, 1166.621
1203.125, 1160.033
1203.607, 1188.819
1204.089, 1201.865
1204.571, 1178.587
1205.053, 1163.163
1205.535, 1178.201
1206.017, 1206.057
1206.500, 1207.513
1206.982, 1192.390
1207.464, 1182.031
1207.946, 1182.454
1208.428, 1186.800
1208.910, 1198.436
1209.392, 1204.714
1209.874, 1195.139
1210.356, 1177.999
1210.839, 1174.908
1211.321, 1181.986
1211.803, 1189.690
1212.285, 1196.305
1212.767, 1200.961
1213.249, 1204.750
1213.731, 1204.805
1214.213, 1196.086
1214.695, 1183.103
1215.178, 1178.575
1215.660, 1180.697
1216.142, 1184.033
1216.624, 1188.003
1217.106, 1190.881
1217.588, 1191.976
1218.070, 1193.031
1218.552, 1198.122
1219.035, 1203.576
1219.517, 1197.105
1219.999, 1181.790
1220.481, 1170.910
1220.963, 1174.151
1221.445, 1174.673
1221.927, 1167.454
1222.409, 1162.563
1222.891, 1174.731
1223.374, 1196.005
1223.856, 1209.194
1224.338, 1214.026
1224.820, 1215.205
1225.302, 1211.583
1225.784, 1207.780
1226.266, 1203.435
1226.748, 1201.146
1227.230, 1206.687
1227.713, 1215.801
1228.195, 1219.961
1228.677, 1218.747
1229.159, 1216.076
1229.641, 1210.393
1230.123, 1208.220
1230.605, 1211.787
1231.087, 1217.072
1231.570, 1219.322
1232.052, 1218.735
1232.534, 1213.781
1233.016, 1204.557
1233.498, 1201.282
1233.980, 1210.545
1234.462, 1214.302
1234.944, 1205.055
1235.427, 1194.950
1235.909, 1208.501
1236.391, 1231.287
1236.873, 1237.784
1237.355, 1223.233
1237.837, 1216.529
1238.319, 1223.546
1238.801, 1230.116
1239.283, 1232.529
1239.766, 1230.782
1240.248, 1221.263
1240.730, 1209.290
1241.212, 1203.986
1241.694, 1208.293
1242.176, 1205.315
1242.658, 1189.840
1243.140, 1183.840
1243.622, 1199.475
1244.105, 1220.376
1244.587, 1225.765
1245.069, 1221.474
1245.551, 1213.477
1246.033, 1200.549
1246.515, 1198.821
1246.997, 1210.264
1247.479, 1223.671
1247.962, 1235.824
1248.444, 1244.410
1248.926, 1245.015
1249.408, 1240.875
1249.890, 1234.947
1250.372, 1226.379
1250.854, 1226.709
1251.336, 1237.131
1251.818, 1243.496
1252.301, 1235.088
1252.783, 1225.411
1253.265, 1231.293
1253.747, 1241.943
1254.229, 1241.308
1254.711, 1226.194
1255.193, 1225.589
1255.675, 1239.718
1256.157, 1252.419
1256.640, 1254.678
1257.122, 1252.820
1257.604, 1248.421
1258.086, 1244.697
1258.568, 1246.765
1259.050, 1255.591
1259.532, 1253.480
1260.014, 1241.190
1260.497, 1231.607
1260.979, 1234.825
1261.461, 1239.389
1261.943, 1238.276
1262.425, 1235.755
1262.907, 1238.204
1263.389, 1245.323
1263.871, 1234.666
1264.354, 1209.544
1264.836, 1196.513
1265.318, 1224.642
1265.800, 1249.381
1266.282, 1250.769
1266.764, 1244.479
1267.246, 1245.905
1267.728, 1252.457
1268.210, 1246.027
1268.693, 1228.455
1269.175, 1211.990
1269.657, 1194.718
1270.139, 1191.198
1270.621, 1208.439
1271.103, 1231.404
1271.585, 1246.072
1272.067, 1254.088
1272.549, 1260.636
1273.032, 1264.903
1273.514, 1262.908
1273.996, 1242.083
1274.478, 1232.627
1274.960, 1240.693
1275.442, 1253.290
1275.924, 1257.623
1276.406, 1257.603
1276.889, 1262.115
1277.371, 1268.950
1277.853, 1267.591
1278.335, 1248.364
1278.817, 1238.555
1279.299, 1241.392
1279.781, 1249.653
1280.263, 1260.828
1280.745, 1270.104
1281.228, 1270.573
1281.710, 1264.111
1282.192, 1257.569
1282.674, 1249.799
1283.156, 1249.187
1283.638, 1257.032
1284.120, 1266.740
1284.602, 1276.188
1285.084, 1282.229
1285.567, 1281.630
1286.049, 1275.458
1286.531, 1265.673
1287.013, 1251.430
1287.495, 1246.004
1287.977, 1250.503
1288.459, 1255.873
1288.941, 1255.369
1289.424, 1254.108
1289.906, 1253.577
1290.388, 1255.035
1290.870, 1262.635
1291.352, 1274.900
1291.834, 1280.150
1292.316, 1277.770
1292.798, 1273.602
1293.281, 1268.084
1293.763, 1265.114
##END=



