##NAMES=Grunerite
##RRUFFID=R060062
##IDEAL CHEMISTRY=[box]Fe^2+^_2_Fe^2+^_5_Si_8_O_22_(OH)_2_
##LOCALITY=2C mine, Broken Hill, New South Wales, Australia
##OWNER=RRUFF
##SOURCE=University of Arizona Mineral Museum
##DESCRIPTION=Aggregate of greenish-brown colored parallel acicular crystals
##STATUS=The identification of this mineral has been confirmed by X-ray diffraction and chemical analysis
##URL=rruff.info/R060062
##MEASURED CHEMISTRY=[box](Fe^2+^_4.32_Mg_1.90_Mn_0.54_Ca_0.22_)_Σ=7_(Si_7.98_Al_0.02_)_Σ=8_O_22_(OH)_2_
139.6275, 106.6165
140.1096, 107.5116
140.5918, 108.7768
141.0739, 109.7264
141.5560, 110.2185
142.0381, 110.6531
142.5202, 111.4265
143.0023, 112.6899
143.4845, 113.8120
143.9666, 114.5032
144.4487, 114.7535
144.9308, 115.7616
145.4129, 117.8352
145.8951, 120.3639
146.3772, 122.7813
146.8593, 124.9807
147.3414, 127.2143
147.8235, 129.5170
148.3056, 131.9240
148.7878, 134.3307
149.2699, 136.8333
149.7520, 139.3254
150.2341, 141.6201
150.7162, 143.0269
151.1983, 144.9803
151.6805, 147.8930
152.1626, 151.9666
152.6447, 156.3885
153.1268, 161.6819
153.6089, 167.2801
154.0910, 172.2157
154.5732, 175.3658
155.0553, 178.8013
155.5374, 183.2376
156.0195, 189.1667
156.5016, 195.1651
156.9837, 201.7195
157.4659, 208.1948
157.9480, 213.2661
158.4301, 216.4298
158.9122, 218.2725
159.3943, 219.0096
159.8764, 218.6368
160.3586, 217.2541
160.8407, 215.0304
161.3228, 211.8504
161.8049, 207.3812
162.2870, 200.1732
162.7691, 192.4512
163.2512, 185.6068
163.7334, 179.8374
164.2155, 175.1241
164.6976, 171.5021
165.1797, 168.9349
165.6618, 167.2915
166.1439, 167.3295
166.6261, 167.8917
167.1082, 167.9481
167.5903, 166.3859
168.0724, 165.1067
168.5545, 165.2879
169.0366, 166.7986
169.5188, 168.8439
170.0009, 171.4056
170.4830, 174.0845
170.9651, 176.4767
171.4472, 178.0116
171.9293, 179.5643
172.4115, 181.7786
172.8936, 184.6404
173.3757, 188.0051
173.8578, 191.9500
174.3399, 196.2602
174.8220, 200.6555
175.3042, 205.2620
175.7863, 209.7580
176.2684, 213.4041
176.7505, 216.2235
177.2326, 219.8057
177.7147, 226.2993
178.1969, 234.5879
178.6790, 242.1131
179.1611, 247.0924
179.6432, 250.9792
180.1253, 256.0156
180.6074, 262.2122
181.0896, 268.5943
181.5717, 274.2427
182.0538, 279.2524
182.5359, 284.1429
183.0180, 289.5885
183.5001, 294.9290
183.9823, 298.6632
184.4644, 300.7006
184.9465, 301.5192
185.4286, 301.3985
185.9107, 300.4132
186.3928, 298.9468
186.8750, 297.6048
187.3571, 295.9637
187.8392, 292.3889
188.3213, 286.6779
188.8034, 279.9872
189.2855, 273.7765
189.7677, 268.0316
190.2498, 262.2983
190.7319, 256.4139
191.2140, 250.4054
191.6961, 244.4099
192.1782, 238.4550
192.6603, 232.4932
193.1425, 226.2958
193.6246, 219.8918
194.1067, 214.1788
194.5888, 209.9341
195.0709, 207.0455
195.5530, 203.8825
196.0352, 200.3214
196.5173, 196.5831
196.9994, 192.8718
197.4815, 189.1543
197.9636, 185.8660
198.4457, 183.1401
198.9279, 180.9809
199.4100, 179.6217
199.8921, 179.3515
200.3742, 179.3940
200.8563, 178.0619
201.3384, 175.0705
201.8206, 172.3294
202.3027, 171.0387
202.7848, 171.3593
203.2669, 170.8898
203.7490, 169.3200
204.2311, 167.2274
204.7133, 165.8558
205.1954, 165.3697
205.6775, 164.9345
206.1596, 164.1825
206.6417, 163.0992
207.1238, 161.7316
207.6060, 159.9509
208.0881, 158.0014
208.5702, 156.3908
209.0523, 155.1252
209.5344, 154.1743
210.0165, 153.6897
210.4987, 153.8934
210.9808, 153.4244
211.4629, 152.0133
211.9450, 150.0925
212.4271, 148.6852
212.9092, 147.9306
213.3914, 147.3376
213.8735, 146.6898
214.3556, 145.9928
214.8377, 145.2630
215.3198, 144.5817
215.8019, 143.8272
216.2841, 142.6257
216.7662, 140.6803
217.2483, 138.9171
217.7304, 137.9208
218.2125, 138.1568
218.6946, 137.6454
219.1767, 135.9950
219.6589, 133.7477
220.1410, 132.2017
220.6231, 131.6591
221.1052, 131.2497
221.5873, 130.5955
222.0694, 129.6792
222.5516, 128.5689
223.0337, 127.1706
223.5158, 125.6206
223.9979, 124.1533
224.4800, 122.7234
224.9621, 121.4740
225.4443, 120.5230
225.9264, 120.0324
226.4085, 119.3926
226.8906, 118.4986
227.3727, 117.4961
227.8548, 116.6855
228.3370, 116.1135
228.8191, 115.6708
229.3012, 115.3678
229.7833, 115.4062
230.2654, 115.0430
230.7475, 114.1262
231.2297, 112.8685
231.7118, 111.7254
232.1939, 110.6588
232.6760, 109.7716
233.1581, 109.1039
233.6402, 108.6960
234.1224, 108.4186
234.6045, 108.3199
235.0866, 108.3283
235.5687, 108.3213
236.0508, 108.4249
236.5329, 108.3097
237.0151, 107.8258
237.4972, 106.8632
237.9793, 105.8075
238.4614, 104.3350
238.9435, 102.9068
239.4256, 102.5154
239.9078, 103.8679
240.3899, 105.1187
240.8720, 105.5199
241.3541, 104.6471
241.8362, 104.4687
242.3183, 105.5190
242.8005, 106.9793
243.2826, 107.3570
243.7647, 106.0254
244.2468, 104.6448
244.7289, 103.7166
245.2110, 103.3049
245.6931, 103.1039
246.1753, 103.2381
246.6574, 103.5023
247.1395, 103.5686
247.6216, 103.3268
248.1037, 103.0770
248.5858, 102.9344
249.0680, 102.9523
249.5501, 102.7478
250.0322, 102.0907
250.5143, 101.3895
250.9964, 101.2470
251.4785, 102.0140
251.9607, 102.6979
252.4428, 103.0285
252.9249, 102.9614
253.4070, 102.9201
253.8891, 102.9997
254.3712, 103.0178
254.8534, 102.6764
255.3355, 101.6206
255.8176, 100.9601
256.2997, 101.1354
256.7818, 102.2170
257.2639, 102.6120
257.7461, 101.9726
258.2282, 101.0363
258.7103, 100.6513
259.1924, 101.1815
259.6745, 101.3828
260.1566, 100.8145
260.6388, 99.50455
261.1209, 98.97871
261.6030, 99.63771
262.0851, 100.5150
262.5672, 100.6865
263.0493, 99.89832
263.5315, 99.07276
264.0136, 98.28075
264.4957, 97.55698
264.9778, 97.26672
265.4599, 97.62016
265.9420, 98.04984
266.4242, 98.01390
266.9063, 97.25800
267.3884, 96.89571
267.8705, 97.17154
268.3526, 97.95899
268.8347, 98.67050
269.3169, 99.34090
269.7990, 99.84426
270.2811, 100.0575
270.7632, 99.90674
271.2453, 99.76196
271.7274, 99.63966
272.2096, 99.55550
272.6917, 99.55932
273.1738, 99.65768
273.6559, 99.82292
274.1380, 100.0248
274.6201, 100.2519
275.1023, 100.6483
275.5844, 101.3486
276.0665, 102.1139
276.5486, 102.2779
277.0307, 101.6662
277.5128, 101.1735
277.9950, 101.3950
278.4771, 102.4070
278.9592, 103.0422
279.4413, 103.1451
279.9234, 103.0379
280.4055, 103.4169
280.8877, 104.3692
281.3698, 105.1641
281.8519, 105.3397
282.3340, 104.9010
282.8161, 104.7359
283.2982, 104.8502
283.7804, 105.2312
284.2625, 106.0582
284.7446, 107.3620
285.2267, 108.2698
285.7088, 108.1685
286.1909, 107.2624
286.6730, 107.1200
287.1552, 107.8755
287.6373, 108.8473
288.1194, 109.1382
288.6015, 108.7961
289.0836, 108.5687
289.5657, 108.6838
290.0479, 109.1026
290.5300, 109.8397
291.0121, 110.9424
291.4942, 111.8807
291.9763, 111.9292
292.4584, 111.2469
292.9406, 110.8297
293.4227, 111.1393
293.9048, 111.7348
294.3869, 111.4856
294.8690, 110.3891
295.3511, 109.3262
295.8333, 109.0900
296.3154, 109.4809
296.7975, 109.8391
297.2796, 110.0198
297.7617, 110.1127
298.2438, 110.3021
298.7260, 110.5634
299.2081, 110.7111
299.6902, 110.5041
300.1723, 110.1046
300.6544, 109.9326
301.1365, 110.1882
301.6187, 110.3284
302.1008, 109.3828
302.5829, 107.6587
303.0650, 106.2726
303.5471, 106.0779
304.0292, 106.5617
304.5114, 106.9864
304.9935, 107.2663
305.4756, 107.5751
305.9577, 108.3098
306.4398, 109.2132
306.9219, 109.7015
307.4041, 108.9697
307.8862, 107.9797
308.3683, 107.8495
308.8504, 108.6681
309.3325, 109.4397
309.8146, 109.1481
310.2968, 108.3806
310.7789, 108.0076
311.2610, 108.8654
311.7431, 109.8986
312.2252, 110.2671
312.7073, 110.0112
313.1895, 109.7577
313.6716, 110.0870
314.1537, 110.5190
314.6358, 110.5351
315.1179, 109.4921
315.6000, 108.5229
316.0822, 108.2513
316.5643, 108.5665
317.0464, 109.0109
317.5285, 109.7319
318.0106, 110.2993
318.4927, 110.3514
318.9749, 109.4587
319.4570, 108.6670
319.9391, 108.4584
320.4212, 108.6321
320.9033, 108.7127
321.3854, 108.6840
321.8676, 108.4271
322.3497, 107.7882
322.8318, 106.5216
323.3139, 105.5506
323.7960, 105.3192
324.2781, 105.4451
324.7603, 105.3714
325.2424, 104.8802
325.7245, 104.2975
326.2066, 103.6216
326.6887, 102.7829
327.1708, 102.3049
327.6530, 102.5094
328.1351, 102.9676
328.6172, 103.2863
329.0993, 103.4708
329.5814, 103.4905
330.0635, 103.1730
330.5457, 102.5416
331.0278, 102.3522
331.5099, 102.6770
331.9920, 103.3915
332.4741, 104.4621
332.9562, 106.5114
333.4384, 107.8678
333.9205, 108.1465
334.4026, 107.6447
334.8847, 107.4384
335.3668, 107.5008
335.8489, 107.9006
336.3311, 108.7164
336.8132, 110.1183
337.2953, 111.4787
337.7774, 112.8469
338.2595, 114.1245
338.7416, 115.0307
339.2238, 115.4149
339.7059, 115.8939
340.1880, 116.7122
340.6701, 117.8818
341.1522, 119.0173
341.6343, 120.0849
342.1164, 121.2146
342.5985, 122.7193
343.0807, 124.6861
343.5628, 126.2201
344.0449, 126.9627
344.5270, 127.1135
345.0091, 127.5665
345.4912, 128.3456
345.9734, 129.2874
346.4555, 130.1994
346.9376, 131.1107
347.4197, 132.4295
347.9018, 134.3927
348.3839, 136.5420
348.8661, 138.0266
349.3482, 138.8768
349.8303, 139.6201
350.3124, 140.9073
350.7945, 142.3380
351.2766, 142.7527
351.7588, 141.9026
352.2409, 140.6077
352.7230, 139.7092
353.2051, 139.1320
353.6872, 138.6387
354.1693, 138.1196
354.6515, 137.6269
355.1336, 137.2901
355.6157, 137.1133
356.0978, 136.8535
356.5799, 136.2646
357.0620, 135.4792
357.5442, 134.6839
358.0263, 133.7582
358.5084, 133.0219
358.9905, 132.8686
359.4726, 133.1865
359.9547, 133.3806
360.4369, 133.0454
360.9190, 132.4863
361.4011, 131.9213
361.8832, 131.2853
362.3653, 130.8632
362.8474, 131.0197
363.3296, 131.4764
363.8117, 131.6502
364.2938, 130.8683
364.7759, 130.1402
365.2580, 130.0221
365.7401, 130.7435
366.2223, 131.3014
366.7044, 131.5769
367.1865, 131.5380
367.6686, 131.1528
368.1507, 130.2724
368.6328, 129.2008
369.1150, 127.9954
369.5971, 126.6583
370.0792, 125.1372
370.5613, 123.0897
371.0434, 121.1301
371.5255, 119.6673
372.0077, 119.3511
372.4898, 118.4992
372.9719, 116.7383
373.4540, 114.4044
373.9361, 112.5390
374.4182, 111.2351
374.9004, 110.2792
375.3825, 109.6532
375.8646, 109.4714
376.3467, 109.1471
376.8288, 108.6755
377.3109, 108.0621
377.7931, 107.1984
378.2752, 105.9528
378.7573, 105.0748
379.2394, 104.9585
379.7215, 105.4442
380.2036, 105.2210
380.6858, 104.1454
381.1679, 103.0632
381.6500, 102.8579
382.1321, 103.4550
382.6142, 103.9256
383.0963, 104.0836
383.5785, 104.0649
384.0606, 104.0798
384.5427, 104.1346
385.0248, 104.2990
385.5069, 104.6968
385.9890, 105.2303
386.4712, 105.6446
386.9533, 105.9024
387.4354, 106.1417
387.9175, 106.5104
388.3996, 106.9665
388.8817, 107.4202
389.3639, 107.7203
389.8460, 108.0603
390.3281, 108.6446
390.8102, 109.4649
391.2923, 110.4135
391.7744, 111.4729
392.2566, 112.6092
392.7387, 113.8427
393.2208, 115.4403
393.7029, 116.7330
394.1850, 117.1666
394.6671, 117.0158
395.1493, 117.0143
395.6314, 117.3614
396.1135, 117.9929
396.5956, 119.0179
397.0777, 120.6714
397.5598, 121.8700
398.0419, 122.1421
398.5240, 121.9154
399.0062, 121.6811
399.4883, 121.3074
399.9704, 121.1349
400.4525, 121.2682
400.9346, 121.6991
401.4167, 122.2355
401.8989, 123.2165
402.3810, 123.9960
402.8631, 124.1548
403.3452, 123.2973
403.8273, 122.5819
404.3094, 122.0488
404.7916, 121.6893
405.2737, 121.5478
405.7558, 121.7703
406.2379, 121.8460
406.7200, 121.5305
407.2021, 120.8042
407.6843, 120.2112
408.1664, 119.8020
408.6485, 119.4129
409.1306, 118.8107
409.6127, 117.9923
410.0948, 117.3319
410.5770, 116.9713
411.0591, 116.7856
411.5412, 116.4476
412.0233, 115.9571
412.5054, 115.4627
412.9875, 115.1254
413.4697, 114.8615
413.9518, 114.4404
414.4339, 113.8193
414.9160, 113.1220
415.3981, 112.3167
415.8802, 111.5372
416.3624, 111.0813
416.8445, 111.4762
417.3266, 112.0193
417.8087, 111.9193
418.2908, 111.2042
418.7729, 110.5686
419.2551, 110.4138
419.7372, 110.5726
420.2193, 110.9204
420.7014, 111.6863
421.1835, 112.2341
421.6656, 112.1986
422.1478, 111.7360
422.6299, 111.2160
423.1120, 110.8223
423.5941, 110.3350
424.0762, 109.5965
424.5583, 108.4718
425.0405, 107.5998
425.5226, 107.3784
426.0047, 107.2861
426.4868, 106.8218
426.9689, 105.8420
427.4510, 104.6736
427.9332, 103.3291
428.4153, 101.8318
428.8974, 100.2705
429.3795, 98.54366
429.8616, 96.93000
430.3438, 95.59708
430.8259, 94.59259
431.3080, 93.65353
431.7901, 92.82497
432.2722, 91.99564
432.7543, 90.91261
433.2365, 89.54710
433.7186, 88.26561
434.2007, 87.13466
434.6828, 86.18713
435.1649, 85.66064
435.6470, 85.57825
436.1292, 85.48306
436.6113, 84.91691
437.0934, 84.02445
437.5755, 83.20816
438.0576, 82.46995
438.5397, 82.00021
439.0219, 82.27542
439.5040, 83.05658
439.9861, 83.62431
440.4682, 83.65907
440.9503, 83.29308
441.4324, 82.46226
441.9146, 81.17693
442.3967, 80.11215
442.8788, 79.81290
443.3609, 79.88057
443.8430, 79.90018
444.3251, 79.50648
444.8073, 79.38752
445.2894, 80.11581
445.7715, 81.32494
446.2536, 82.06474
446.7357, 81.80052
447.2178, 81.29118
447.7000, 80.77035
448.1821, 80.18401
448.6642, 79.84272
449.1463, 79.94682
449.6284, 80.17181
450.1105, 80.22153
450.5927, 80.00857
451.0747, 79.75282
451.5569, 79.34815
452.0390, 78.92897
452.5211, 79.15491
453.0032, 80.33014
453.4853, 81.32829
453.9674, 81.47030
454.4496, 80.70522
454.9317, 80.06667
455.4138, 79.55693
455.8959, 79.20557
456.3780, 79.12088
456.8601, 79.27245
457.3423, 79.37984
457.8244, 79.33647
458.3065, 79.21905
458.7886, 79.16771
459.2707, 79.17762
459.7528, 79.21536
460.2350, 79.26277
460.7171, 79.32102
461.1992, 79.40099
461.6813, 79.50927
462.1634, 79.60185
462.6455, 79.59222
463.1277, 79.55582
463.6098, 79.60822
464.0919, 80.05074
464.5740, 80.35330
465.0561, 80.09238
465.5382, 79.38017
466.0204, 78.93441
466.5025, 79.28381
466.9846, 79.72661
467.4667, 79.82756
467.9488, 79.22231
468.4309, 78.95479
468.9131, 79.50739
469.3952, 80.26947
469.8773, 80.40224
470.3594, 79.22007
470.8415, 78.53087
471.3236, 78.92205
471.8058, 80.21269
472.2879, 80.77876
472.7700, 80.40108
473.2521, 79.84453
473.7342, 79.60521
474.2163, 79.70592
474.6985, 79.71941
475.1806, 79.57873
475.6627, 79.45950
476.1448, 79.68327
476.6269, 80.20528
477.1090, 80.64587
477.5912, 80.85557
478.0733, 80.90707
478.5554, 80.84409
479.0375, 80.69118
479.5196, 80.68604
480.0017, 81.10742
480.4839, 81.72672
480.9660, 82.27035
481.4481, 82.70067
481.9302, 83.02885
482.4123, 83.11938
482.8944, 83.14507
483.3766, 83.36057
483.8587, 83.99850
484.3408, 84.70264
484.8229, 85.42915
485.3050, 86.14896
485.7871, 86.63161
486.2693, 86.93213
486.7514, 86.91394
487.2335, 86.38512
487.7156, 84.71734
488.1977, 83.98745
488.6798, 84.70390
489.1620, 86.01395
489.6441, 86.79770
490.1262, 86.90144
490.6083, 86.87367
491.0904, 86.76402
491.5725, 86.61970
492.0547, 86.69059
492.5368, 87.01295
493.0189, 87.34999
493.5010, 87.46395
493.9831, 87.42004
494.4652, 87.80354
494.9474, 88.73885
495.4295, 89.58965
495.9116, 89.37639
496.3937, 88.46907
496.8758, 87.90205
497.3579, 88.00788
497.8401, 88.59984
498.3222, 89.86385
498.8043, 91.54996
499.2864, 92.74542
499.7685, 92.27815
500.2506, 91.59236
500.7328, 91.89310
501.2149, 93.48352
501.6970, 94.86472
502.1791, 95.36329
502.6612, 95.45180
503.1433, 95.57713
503.6255, 95.69725
504.1076, 95.99207
504.5897, 96.23995
505.0718, 96.66737
505.5539, 98.12672
506.0360, 102.1494
506.5181, 104.8908
507.0002, 104.4073
507.4824, 100.3993
507.9645, 98.71052
508.4466, 99.98175
508.9287, 102.0986
509.4108, 103.2093
509.8929, 103.3195
510.3751, 102.9822
510.8572, 102.0573
511.3393, 101.1480
511.8214, 101.5513
512.3035, 103.0081
512.7856, 104.1468
513.2678, 104.2029
513.7499, 103.5917
514.2320, 102.6492
514.7141, 101.4368
515.1962, 100.5207
515.6783, 100.3362
516.1605, 100.5992
516.6426, 101.1041
517.1247, 101.9583
517.6068, 102.6647
518.0889, 102.9972
518.5710, 103.0707
519.0532, 103.0472
519.5353, 102.7875
520.0174, 102.6227
520.4995, 102.6311
520.9816, 102.8029
521.4637, 103.0800
521.9459, 103.5080
522.4280, 103.9816
522.9101, 104.3920
523.3922, 104.6466
523.8743, 105.4198
524.3564, 106.9811
524.8386, 108.5289
525.3207, 108.9175
525.8028, 108.1504
526.2849, 107.5825
526.7670, 107.5649
527.2491, 107.8484
527.7313, 107.9382
528.2134, 107.8800
528.6955, 107.9404
529.1776, 108.5150
529.6597, 109.1802
530.1418, 109.3649
530.6240, 109.0444
531.1061, 108.5092
531.5882, 107.8724
532.0703, 107.1548
532.5524, 106.3783
533.0345, 105.5762
533.5167, 104.6762
533.9988, 103.4504
534.4809, 102.1536
534.9630, 101.2240
535.4451, 101.4071
535.9272, 101.1949
536.4094, 100.0517
536.8915, 98.08339
537.3736, 96.68016
537.8557, 96.12156
538.3378, 95.63902
538.8199, 94.68961
539.3021, 93.12956
539.7842, 92.30498
540.2663, 92.40769
540.7484, 92.72581
541.2305, 92.28783
541.7126, 91.19158
542.1948, 90.25302
542.6769, 89.70625
543.1590, 89.39317
543.6411, 89.09145
544.1232, 88.82925
544.6053, 88.71204
545.0875, 88.95953
545.5696, 89.27404
546.0517, 89.35118
546.5338, 89.18463
547.0159, 89.01989
547.4980, 89.20081
547.9802, 89.29130
548.4623, 88.88582
548.9444, 87.30116
549.4265, 86.31532
549.9086, 86.58525
550.3907, 87.47696
550.8729, 88.09076
551.3550, 88.35697
551.8371, 88.45066
552.3192, 88.35432
552.8013, 88.10371
553.2834, 87.88489
553.7656, 87.69292
554.2477, 87.54347
554.7298, 87.44622
555.2119, 87.39851
555.6940, 87.37742
556.1761, 87.38054
556.6583, 87.42531
557.1404, 87.58936
557.6225, 87.80698
558.1046, 87.90029
558.5867, 87.78025
559.0688, 87.64909
559.5510, 87.74940
560.0331, 87.96933
560.5152, 88.08825
560.9973, 87.96172
561.4794, 87.76288
561.9615, 87.54771
562.4437, 87.32503
562.9258, 87.13725
563.4079, 87.00668
563.8900, 86.90117
564.3721, 86.82657
564.8542, 86.83598
565.3364, 86.67771
565.8185, 86.26085
566.3006, 85.79044
566.7827, 85.49141
567.2648, 85.39829
567.7469, 85.29167
568.2291, 85.16237
568.7112, 84.97024
569.1933, 84.57851
569.6754, 84.00978
570.1575, 83.48024
570.6396, 82.95924
571.1218, 82.60390
571.6039, 82.86635
572.0860, 83.65490
572.5681, 84.27306
573.0502, 84.16221
573.5323, 83.71816
574.0145, 83.26383
574.4966, 82.84205
574.9787, 82.43430
575.4608, 81.96053
575.9429, 81.53185
576.4250, 81.26311
576.9072, 81.11660
577.3893, 81.21613
577.8714, 81.77949
578.3535, 82.53734
578.8356, 82.83267
579.3177, 82.49381
579.7999, 82.11340
580.2820, 81.84901
580.7641, 81.69530
581.2462, 81.62468
581.7283, 81.64684
582.2104, 81.67001
582.6926, 81.61107
583.1747, 81.50282
583.6568, 81.40581
584.1389, 81.31286
584.6210, 81.35196
585.1031, 81.83784
585.5853, 82.47191
586.0674, 82.78825
586.5495, 82.42831
587.0316, 82.11330
587.5137, 82.40213
587.9958, 82.96693
588.4779, 83.17550
588.9600, 82.27499
589.4421, 81.61844
589.9243, 81.74632
590.4064, 82.54753
590.8885, 83.04144
591.3706, 83.13292
591.8527, 83.06879
592.3348, 82.97401
592.8170, 82.86022
593.2991, 82.50687
593.7812, 81.83313
594.2633, 81.21444
594.7454, 81.03825
595.2275, 81.25430
595.7097, 81.68989
596.1918, 82.37949
596.6739, 83.08443
597.1560, 83.63913
597.6381, 83.98798
598.1202, 84.00051
598.6024, 83.16241
599.0845, 82.39445
599.5666, 82.28452
600.0487, 82.71473
600.5308, 83.22392
601.0129, 83.96188
601.4951, 84.48961
601.9772, 84.49159
602.4593, 83.88013
602.9414, 83.60979
603.4235, 83.81799
603.9056, 84.19412
604.3878, 84.53043
604.8699, 84.79818
605.3520, 85.22691
605.8341, 85.91067
606.3162, 86.54697
606.7983, 86.61977
607.2805, 86.23961
607.7626, 86.05862
608.2447, 86.31536
608.7268, 86.74562
609.2089, 87.12932
609.6910, 87.42506
610.1732, 87.53091
610.6553, 87.01400
611.1374, 86.60733
611.6195, 86.84608
612.1016, 87.68613
612.5837, 88.57804
613.0659, 89.75109
613.5480, 90.61890
614.0301, 90.68916
614.5122, 89.59428
614.9943, 89.36267
615.4764, 90.43803
615.9586, 91.81224
616.4407, 92.60226
616.9228, 92.72691
617.4049, 92.77591
617.8870, 92.71541
618.3691, 92.82714
618.8513, 93.81058
619.3334, 95.43077
619.8155, 96.60578
620.2976, 96.66756
620.7797, 96.43721
621.2618, 96.88869
621.7440, 97.83392
622.2261, 98.73297
622.7082, 99.01451
623.1903, 99.42588
623.6724, 100.6097
624.1545, 102.5592
624.6367, 104.0467
625.1188, 104.4609
625.6009, 104.6809
626.0830, 105.0247
626.5651, 105.3300
627.0472, 106.5505
627.5294, 109.2936
628.0115, 111.9575
628.4936, 112.5163
628.9757, 110.9429
629.4578, 110.2465
629.9399, 110.8676
630.4221, 112.4105
630.9042, 114.9153
631.3863, 117.9596
631.8684, 120.1689
632.3505, 120.6576
632.8326, 120.5469
633.3148, 120.2757
633.7969, 120.1254
634.2790, 120.9200
634.7611, 123.8574
635.2432, 126.9934
635.7253, 129.5693
636.2075, 131.5198
636.6896, 133.2044
637.1717, 134.3682
637.6538, 135.6153
638.1359, 137.1707
638.6180, 138.9661
639.1002, 141.5778
639.5823, 145.2517
640.0644, 149.0619
640.5465, 151.9367
641.0286, 154.0821
641.5107, 156.5302
641.9929, 159.4097
642.4750, 162.6518
642.9571, 166.0470
643.4392, 169.7165
643.9213, 173.9587
644.4034, 179.1453
644.8856, 184.5600
645.3677, 189.4614
645.8498, 194.2942
646.3319, 199.9934
646.8140, 207.3249
647.2961, 215.0514
647.7783, 222.9867
648.2604, 231.0499
648.7425, 238.9168
649.2246, 246.4436
649.7067, 253.9616
650.1888, 261.4208
650.6710, 268.8582
651.1531, 278.1318
651.6352, 289.2659
652.1173, 300.5273
652.5994, 310.2306
653.0815, 319.1323
653.5637, 328.7493
654.0458, 339.4081
654.5279, 350.5944
655.0100, 362.2657
655.4921, 374.1439
655.9742, 385.9289
656.4564, 397.7276
656.9385, 409.1635
657.4206, 419.7766
657.9027, 430.1175
658.3848, 440.9555
658.8669, 453.0215
659.3491, 464.3364
659.8312, 475.1974
660.3133, 484.7821
660.7954, 490.6100
661.2775, 492.5281
661.7596, 492.4352
662.2418, 491.1180
662.7239, 488.3928
663.2060, 484.1488
663.6881, 478.2909
664.1702, 470.1789
664.6523, 459.1231
665.1345, 445.8263
665.6166, 430.5439
666.0987, 413.2551
666.5808, 395.3018
667.0629, 377.0235
667.5450, 358.5305
668.0272, 339.7525
668.5093, 319.7921
668.9914, 301.8200
669.4735, 286.1623
669.9556, 272.0709
670.4377, 258.4843
670.9199, 245.4622
671.4020, 233.7308
671.8841, 223.4740
672.3662, 214.2794
672.8483, 206.0225
673.3304, 198.4447
673.8126, 190.7945
674.2947, 182.1971
674.7768, 174.2489
675.2589, 168.2121
675.7410, 163.6891
676.2231, 159.7490
676.7053, 156.6768
677.1874, 153.5567
677.6695, 149.7627
678.1516, 145.4990
678.6337, 142.2316
679.1158, 140.4140
679.5980, 138.7816
680.0801, 136.8540
680.5622, 134.6650
681.0443, 132.3539
681.5264, 129.9057
682.0085, 127.6585
682.4907, 126.0044
682.9728, 124.7428
683.4549, 123.3537
683.9370, 121.8103
684.4191, 120.4011
684.9012, 119.4129
685.3834, 118.6478
685.8655, 117.9510
686.3476, 117.3752
686.8297, 116.6640
687.3118, 115.6006
687.7939, 114.4561
688.2761, 113.5135
688.7582, 112.8119
689.2403, 112.2507
689.7224, 111.8965
690.2045, 111.5955
690.6866, 111.0200
691.1688, 110.1770
691.6509, 109.5107
692.1330, 109.2222
692.6151, 109.0246
693.0972, 108.4911
693.5793, 107.6840
694.0615, 106.8038
694.5436, 105.7237
695.0257, 104.7791
695.5078, 104.4486
695.9899, 104.5015
696.4720, 103.9933
696.9542, 101.7893
697.4363, 99.94485
697.9183, 99.27727
698.4005, 99.70373
698.8826, 99.78954
699.3647, 99.48605
699.8468, 98.97928
700.3289, 98.33381
700.8110, 97.56268
701.2932, 96.67610
701.7753, 95.67522
702.2574, 94.87376
702.7395, 94.71461
703.2216, 94.82735
703.7037, 94.75076
704.1859, 94.42683
704.6680, 93.91179
705.1501, 93.00129
705.6322, 92.05455
706.1143, 91.35578
706.5964, 91.00884
707.0786, 90.84496
707.5607, 91.02599
708.0428, 91.23601
708.5249, 91.09357
709.0070, 90.54072
709.4891, 89.97525
709.9713, 89.37048
710.4534, 88.95259
710.9355, 89.35518
711.4176, 90.26938
711.8997, 90.63217
712.3818, 89.88113
712.8640, 88.84271
713.3461, 87.98887
713.8282, 87.39539
714.3103, 87.22414
714.7924, 87.94441
715.2745, 88.63805
715.7567, 89.16466
716.2388, 89.47580
716.7209, 89.37309
717.2030, 88.65823
717.6851, 88.01134
718.1672, 87.58105
718.6494, 87.40082
719.1315, 87.77136
719.6136, 88.66204
720.0957, 89.32760
720.5778, 89.09382
721.0599, 88.48801
721.5421, 88.32699
722.0242, 88.53886
722.5063, 88.53628
722.9884, 87.63126
723.4705, 86.72232
723.9526, 86.43253
724.4348, 86.88823
724.9169, 87.15504
725.3990, 87.07741
725.8811, 86.94324
726.3632, 86.88145
726.8453, 86.88549
727.3275, 87.13999
727.8096, 87.72691
728.2917, 88.14720
728.7738, 87.73153
729.2559, 86.82704
729.7380, 86.31489
730.2202, 86.31866
730.7023, 86.49685
731.1844, 86.77014
731.6665, 86.99770
732.1486, 86.98897
732.6307, 86.46085
733.1129, 86.23289
733.5950, 86.81478
734.0771, 87.53063
734.5592, 87.69443
735.0413, 86.99636
735.5234, 86.80383
736.0056, 87.37356
736.4877, 88.20222
736.9698, 88.52665
737.4519, 88.44934
737.9340, 88.49031
738.4161, 88.79961
738.8983, 89.22299
739.3804, 89.63179
739.8625, 90.03928
740.3446, 90.47417
740.8267, 91.04878
741.3088, 91.53749
741.7910, 91.84776
742.2731, 92.02811
742.7552, 92.20541
743.2373, 92.43900
743.7194, 92.52574
744.2015, 92.37077
744.6837, 92.08496
745.1658, 91.97346
745.6479, 92.02690
746.1300, 92.06054
746.6121, 91.88960
747.0942, 91.76332
747.5764, 92.23943
748.0585, 93.07673
748.5406, 93.54855
749.0227, 93.13576
749.5048, 92.45446
749.9869, 91.60991
750.4691, 90.67983
750.9512, 90.15910
751.4333, 90.22838
751.9154, 90.44819
752.3975, 90.78157
752.8796, 91.15231
753.3618, 90.85665
753.8439, 89.85262
754.3260, 89.30202
754.8081, 90.56523
755.2902, 92.46735
755.7723, 92.85000
756.2545, 91.86998
756.7366, 90.88149
757.2187, 90.46290
757.7008, 90.41590
758.1829, 90.76005
758.6650, 91.53458
759.1472, 91.98286
759.6293, 91.92860
760.1114, 91.73821
760.5935, 91.56602
761.0756, 91.41228
761.5577, 91.25829
762.0399, 91.09270
762.5220, 91.02260
763.0041, 91.36612
763.4862, 91.79443
763.9683, 91.47884
764.4504, 90.36646
764.9326, 89.51241
765.4147, 89.99594
765.8968, 90.71048
766.3789, 90.77058
766.8610, 89.85017
767.3431, 89.11913
767.8253, 88.61456
768.3074, 88.34906
768.7895, 88.40031
769.2716, 88.81834
769.7537, 89.14127
770.2358, 89.38473
770.7180, 89.40919
771.2001, 88.87115
771.6822, 88.06219
772.1643, 87.60667
772.6464, 87.61236
773.1285, 87.70024
773.6107, 87.58725
774.0928, 87.46147
774.5749, 87.50655
775.0570, 87.85612
775.5391, 88.13967
776.0212, 88.38790
776.5034, 88.51695
776.9855, 88.43483
777.4676, 88.12997
777.9497, 87.72308
778.4318, 87.19319
778.9139, 86.72767
779.3961, 86.46851
779.8782, 86.44147
780.3603, 86.79759
780.8424, 87.70912
781.3245, 88.42617
781.8066, 88.50546
782.2888, 88.16938
782.7709, 87.62290
783.2530, 86.40475
783.7351, 85.81030
784.2172, 86.12773
784.6993, 86.74667
785.1815, 86.99950
785.6636, 86.87762
786.1457, 86.67310
786.6278, 86.39159
787.1099, 86.15602
787.5920, 86.27488
788.0742, 86.50258
788.5563, 86.30526
789.0384, 85.29166
789.5205, 84.53848
790.0026, 84.88835
790.4847, 85.64584
790.9669, 86.02344
791.4490, 85.72790
791.9311, 85.45055
792.4132, 85.21856
792.8953, 84.99608
793.3774, 84.65870
793.8596, 84.22925
794.3417, 84.12206
794.8238, 84.47404
795.3059, 84.89571
795.7880, 84.88613
796.2701, 84.67247
796.7523, 84.64016
797.2344, 85.04572
797.7165, 85.33290
798.1986, 85.28633
798.6807, 85.02126
799.1628, 84.66773
799.6450, 84.09988
800.1271, 83.75278
800.6092, 83.69446
801.0913, 83.79277
801.5734, 83.82767
802.0555, 83.84051
802.5377, 84.12944
803.0198, 84.84303
803.5019, 85.51017
803.9840, 85.68943
804.4661, 85.53062
804.9482, 85.20268
805.4304, 84.43076
805.9125, 84.04347
806.3946, 84.59543
806.8767, 85.40644
807.3588, 85.79917
807.8409, 85.68340
808.3230, 85.47427
808.8051, 85.16998
809.2872, 84.88039
809.7693, 84.79018
810.2515, 84.82832
810.7336, 84.76685
811.2157, 84.51581
811.6978, 84.30816
812.1799, 84.38750
812.6620, 84.56945
813.1442, 84.64580
813.6263, 84.45251
814.1084, 84.35469
814.5905, 84.36111
815.0726, 84.47588
815.5547, 84.76095
816.0369, 85.23717
816.5190, 85.54150
817.0011, 85.63334
817.4832, 85.58944
817.9653, 85.47168
818.4474, 85.28605
818.9296, 84.99044
819.4117, 84.48561
819.8938, 84.20956
820.3759, 84.48299
820.8580, 85.02425
821.3401, 85.59625
821.8223, 86.29558
822.3044, 86.75906
822.7865, 86.95055
823.2686, 86.97930
823.7507, 86.96987
824.2328, 86.90293
824.7150, 86.58647
825.1971, 85.97557
825.6792, 85.41740
826.1613, 85.37137
826.6434, 85.47368
827.1255, 85.22819
827.6077, 84.35460
828.0898, 83.93903
828.5719, 84.72401
829.0540, 85.66014
829.5361, 86.05976
830.0182, 85.77910
830.5004, 85.78004
830.9825, 86.12048
831.4646, 86.45816
831.9467, 86.37023
832.4288, 86.07409
832.9109, 86.10974
833.3931, 86.52232
833.8752, 86.82456
834.3573, 86.54280
834.8394, 86.16640
835.3215, 86.07381
835.8036, 86.38511
836.2858, 86.55458
836.7679, 86.56017
837.2500, 86.46501
837.7321, 86.19578
838.2142, 85.80238
838.6964, 85.94789
839.1785, 86.63198
839.6606, 87.27303
840.1427, 87.47474
840.6248, 87.40714
841.1069, 87.15435
841.5891, 86.74491
842.0712, 86.45616
842.5533, 86.49946
843.0354, 86.55693
843.5175, 86.47018
843.9996, 86.25739
844.4818, 86.20702
844.9639, 86.34563
845.4460, 86.47813
845.9281, 86.45261
846.4102, 86.37292
846.8923, 86.55949
847.3745, 86.92912
847.8566, 87.11081
848.3387, 86.72874
848.8208, 86.28041
849.3029, 85.93440
849.7850, 85.73527
850.2672, 85.85567
850.7493, 86.50795
851.2314, 87.03192
851.7135, 87.23290
852.1956, 87.19327
852.6777, 87.06559
853.1599, 86.87819
853.6420, 86.84153
854.1241, 87.18892
854.6062, 87.55009
855.0883, 87.61799
855.5704, 87.44118
856.0526, 87.11568
856.5347, 85.99344
857.0168, 85.64202
857.4989, 86.76669
857.9810, 88.48341
858.4631, 89.03557
858.9453, 88.36286
859.4274, 87.65216
859.9095, 87.10048
860.3916, 86.78613
860.8737, 87.05531
861.3558, 87.59246
861.8380, 87.73117
862.3201, 86.79853
862.8022, 86.39900
863.2843, 87.86138
863.7664, 89.77599
864.2485, 90.49948
864.7307, 89.58916
865.2128, 88.73190
865.6949, 87.88871
866.1770, 87.40867
866.6591, 88.04405
867.1412, 89.32638
867.6234, 89.84178
868.1055, 89.32346
868.5876, 88.66895
869.0697, 88.22020
869.5518, 88.07918
870.0339, 88.44341
870.5161, 89.63588
870.9982, 90.16168
871.4803, 89.69608
871.9624, 89.11948
872.4445, 89.07430
872.9266, 89.49253
873.4088, 89.64946
873.8909, 89.54982
874.3730, 89.52609
874.8551, 90.11301
875.3372, 90.67524
875.8193, 90.38186
876.3015, 89.28157
876.7836, 88.75908
877.2657, 89.72700
877.7478, 90.68434
878.2299, 91.20958
878.7120, 91.34602
879.1942, 91.21590
879.6763, 90.80885
880.1584, 90.56754
880.6405, 90.73086
881.1226, 91.15475
881.6047, 91.91101
882.0869, 92.78008
882.5690, 93.17082
883.0511, 92.22536
883.5332, 91.49142
884.0153, 91.52907
884.4974, 92.04470
884.9796, 92.51027
885.4617, 92.92725
885.9438, 93.34447
886.4259, 93.85059
886.9080, 94.17094
887.3901, 93.49561
887.8723, 92.37740
888.3544, 92.10176
888.8365, 93.42483
889.3186, 94.71768
889.8007, 95.27615
890.2828, 95.43240
890.7650, 95.52580
891.2471, 95.49115
891.7292, 95.58619
892.2113, 95.79354
892.6934, 96.19332
893.1755, 97.06181
893.6577, 98.16393
894.1398, 98.81477
894.6219, 98.93602
895.1040, 98.89635
895.5861, 98.72334
896.0682, 98.63898
896.5504, 98.85941
897.0325, 99.44359
897.5146, 99.84689
897.9967, 99.96873
898.4788, 100.1399
898.9609, 100.6189
899.4431, 101.2745
899.9252, 101.4823
900.4073, 101.3199
900.8894, 101.2943
901.3715, 101.8226
901.8536, 102.4851
902.3358, 102.9560
902.8179, 103.3062
903.3000, 103.8461
903.7821, 104.8515
904.2642, 105.5795
904.7463, 105.8235
905.2285, 105.7567
905.7106, 105.6567
906.1927, 105.5541
906.6748, 105.6461
907.1569, 106.0138
907.6390, 106.5399
908.1212, 107.4002
908.6033, 108.2483
909.0854, 108.6074
909.5675, 107.8856
910.0496, 107.4589
910.5317, 107.5273
911.0139, 107.6858
911.4960, 107.4622
911.9781, 106.9048
912.4602, 106.6493
912.9423, 106.7565
913.4244, 106.8665
913.9066, 106.6405
914.3887, 106.2904
914.8708, 106.0410
915.3529, 105.9242
915.8350, 105.7365
916.3171, 105.3921
916.7993, 105.0559
917.2813, 104.8720
917.7634, 104.7667
918.2455, 104.1518
918.7277, 103.0587
919.2098, 101.9963
919.6919, 101.1488
920.1740, 100.5479
920.6561, 100.3863
921.1382, 100.4997
921.6204, 100.4461
922.1025, 99.97075
922.5846, 99.47298
923.0667, 98.92461
923.5488, 98.45985
924.0309, 98.36754
924.5131, 98.63480
924.9952, 99.04468
925.4773, 99.67936
925.9594, 99.95724
926.4415, 98.65075
926.9236, 96.94341
927.4058, 96.42631
927.8879, 98.11827
928.3700, 99.08824
928.8521, 98.73149
929.3342, 97.90599
929.8163, 97.03201
930.2985, 96.12030
930.7806, 95.93988
931.2627, 96.50237
931.7448, 97.14819
932.2269, 97.54659
932.7090, 97.67993
933.1912, 97.42245
933.6733, 96.82816
934.1554, 96.32885
934.6375, 95.95091
935.1196, 95.77525
935.6017, 95.84779
936.0839, 96.12572
936.5660, 96.63042
937.0481, 97.31609
937.5302, 97.54710
938.0123, 96.92724
938.4944, 96.11705
938.9766, 95.55994
939.4587, 95.29147
939.9408, 95.35902
940.4229, 96.18355
940.9050, 96.74413
941.3871, 96.86674
941.8693, 96.89386
942.3514, 97.32048
942.8335, 98.05386
943.3156, 98.08774
943.7977, 97.31300
944.2798, 96.59879
944.7620, 96.65171
945.2441, 97.09138
945.7262, 97.77109
946.2083, 98.69057
946.6904, 98.96707
947.1725, 97.94261
947.6547, 97.41560
948.1368, 98.39771
948.6189, 100.2975
949.1010, 100.8583
949.5831, 100.3020
950.0652, 99.94299
950.5474, 100.4776
951.0295, 101.3388
951.5116, 102.3979
951.9937, 103.4552
952.4758, 104.0801
952.9579, 103.9607
953.4401, 104.0281
953.9222, 104.4012
954.4043, 104.8888
954.8864, 105.0911
955.3685, 105.1974
955.8506, 106.0555
956.3328, 107.8427
956.8149, 109.3657
957.2970, 109.6874
957.7791, 109.5524
958.2612, 109.3503
958.7433, 109.0755
959.2255, 109.4852
959.7076, 110.8064
960.1897, 112.1003
960.6718, 112.7901
961.1539, 113.2013
961.6360, 114.2384
962.1182, 115.7279
962.6003, 117.0623
963.0824, 117.9174
963.5645, 118.5722
964.0466, 118.9522
964.5287, 119.2773
965.0109, 119.9315
965.4930, 120.9906
965.9751, 122.1132
966.4572, 123.3288
966.9393, 124.3674
967.4214, 124.7393
967.9036, 124.7515
968.3857, 124.9413
968.8678, 125.4361
969.3499, 125.7375
969.8320, 125.3920
970.3141, 125.0697
970.7963, 125.1726
971.2784, 125.6630
971.7605, 125.8835
972.2426, 125.8263
972.7247, 125.6792
973.2068, 125.6134
973.6890, 125.4493
974.1711, 124.9063
974.6532, 124.0990
975.1353, 123.2775
975.6174, 122.1688
976.0995, 121.5966
976.5817, 122.0088
977.0638, 122.6189
977.5459, 122.1867
978.0280, 120.8226
978.5101, 119.7164
978.9922, 119.0331
979.4744, 118.7052
979.9565, 119.0019
980.4386, 119.4207
980.9207, 119.4907
981.4028, 119.1139
981.8849, 118.7716
982.3671, 118.6035
982.8492, 118.1895
983.3313, 117.0846
983.8134, 115.7276
984.2955, 115.8464
984.7776, 117.0212
985.2598, 117.5489
985.7419, 115.5747
986.2240, 113.9062
986.7061, 114.2246
987.1882, 115.6137
987.6703, 116.4975
988.1525, 116.6806
988.6346, 117.0221
989.1167, 117.6206
989.5988, 118.2730
990.0809, 118.6977
990.5630, 119.0378
991.0452, 119.5720
991.5273, 120.3313
992.0094, 121.0532
992.4915, 121.6089
992.9736, 122.1269
993.4557, 122.6354
993.9379, 123.1525
994.4200, 123.8049
994.9021, 124.5928
995.3842, 125.2583
995.8663, 125.7387
996.3484, 125.9876
996.8306, 125.6621
997.3127, 125.1543
997.7948, 125.0919
998.2769, 126.2297
998.7590, 126.8722
999.2411, 126.6938
999.7233, 126.4678
1000.205, 127.2332
1000.688, 128.6824
1001.170, 128.8492
1001.652, 127.7215
1002.134, 126.9112
1002.616, 127.8980
1003.098, 129.2033
1003.580, 129.9439
1004.062, 130.1348
1004.544, 130.0705
1005.027, 129.5010
1005.509, 129.7249
1005.991, 131.3474
1006.473, 133.4104
1006.955, 134.2606
1007.437, 134.4613
1007.919, 135.1709
1008.401, 136.8651
1008.883, 138.6046
1009.366, 139.8503
1009.848, 141.2491
1010.330, 143.3795
1010.812, 146.2683
1011.294, 148.3937
1011.776, 149.7763
1012.258, 151.3268
1012.740, 153.8041
1013.223, 156.6276
1013.705, 159.2849
1014.187, 161.8139
1014.669, 164.3654
1015.151, 166.9007
1015.633, 169.6302
1016.115, 172.5652
1016.597, 175.6835
1017.079, 179.0898
1017.562, 182.6489
1018.044, 185.8616
1018.526, 188.6472
1019.008, 191.0681
1019.490, 192.4247
1019.972, 194.0445
1020.454, 197.2163
1020.936, 201.8015
1021.419, 204.5108
1021.901, 205.1136
1022.383, 205.9805
1022.865, 208.6837
1023.347, 211.6527
1023.829, 212.8160
1024.311, 212.6641
1024.793, 212.1355
1025.275, 211.3568
1025.758, 210.4613
1026.240, 209.6993
1026.722, 208.5249
1027.204, 206.2563
1027.686, 203.0402
1028.168, 199.8648
1028.650, 196.8031
1029.132, 193.7166
1029.615, 190.7277
1030.097, 187.4748
1030.579, 183.4875
1031.061, 178.9913
1031.543, 175.1135
1032.025, 172.0443
1032.507, 168.7618
1032.989, 164.9733
1033.471, 161.0595
1033.953, 157.6357
1034.436, 154.4932
1034.918, 151.0623
1035.400, 146.9941
1035.882, 143.5413
1036.364, 141.4295
1036.846, 139.4823
1037.328, 136.9977
1037.810, 134.0634
1038.293, 131.7466
1038.775, 129.9622
1039.257, 128.2057
1039.739, 126.1517
1040.221, 124.0521
1040.703, 121.8483
1041.185, 119.7600
1041.667, 118.1905
1042.150, 117.2340
1042.632, 116.5516
1043.114, 116.1891
1043.596, 115.8470
1044.078, 115.2261
1044.560, 114.4096
1045.042, 113.4390
1045.524, 112.3501
1046.006, 111.4360
1046.489, 111.1834
1046.971, 110.6040
1047.453, 109.1059
1047.935, 107.2602
1048.417, 106.8385
1048.899, 107.6580
1049.381, 108.1832
1049.863, 107.9578
1050.345, 107.4973
1050.828, 107.1461
1051.310, 106.7903
1051.792, 106.2971
1052.274, 105.6386
1052.756, 105.0099
1053.238, 104.4164
1053.720, 103.8302
1054.202, 103.2189
1054.685, 102.6161
1055.167, 102.0481
1055.649, 101.5353
1056.131, 101.1298
1056.613, 100.9157
1057.095, 100.7437
1057.577, 100.6697
1058.059, 100.5310
1058.542, 100.0865
1059.024, 99.38954
1059.506, 98.72307
1059.988, 98.11949
1060.470, 97.76662
1060.952, 97.90883
1061.434, 98.23700
1061.916, 98.78873
1062.398, 99.37616
1062.880, 99.15755
1063.363, 97.95500
1063.845, 97.09538
1064.327, 96.99837
1064.809, 97.09223
1065.291, 96.48066
1065.773, 95.70189
1066.255, 95.59435
1066.737, 96.55857
1067.220, 97.04460
1067.702, 96.67155
1068.184, 96.27684
1068.666, 96.44342
1069.148, 96.84216
1069.630, 96.10124
1070.112, 94.57790
1070.594, 93.57083
1071.077, 94.07170
1071.559, 94.63876
1072.041, 94.64861
1072.523, 94.49509
1073.005, 94.59946
1073.487, 94.99178
1073.969, 95.29671
1074.451, 95.50489
1074.933, 95.50417
1075.416, 94.98311
1075.898, 94.40678
1076.380, 94.20277
1076.862, 94.31242
1077.344, 94.41441
1077.826, 94.41924
1078.308, 94.64224
1078.790, 95.24001
1079.272, 95.76562
1079.755, 95.30177
1080.237, 94.44728
1080.719, 94.40141
1081.201, 95.39905
1081.683, 96.10258
1082.165, 95.94392
1082.647, 95.51276
1083.129, 94.82804
1083.611, 94.11397
1084.094, 94.32138
1084.576, 95.25241
1085.058, 95.81133
1085.540, 95.46761
1086.022, 95.09722
1086.504, 95.21777
1086.986, 95.56945
1087.468, 95.90886
1087.951, 96.22614
1088.433, 96.55260
1088.915, 96.88116
1089.397, 97.33109
1089.879, 98.31952
1090.361, 99.17250
1090.843, 98.90895
1091.325, 98.01225
1091.807, 97.53862
1092.290, 97.84509
1092.772, 98.26839
1093.254, 98.91419
1093.736, 99.30191
1094.218, 98.53885
1094.700, 97.32671
1095.182, 97.28532
1095.664, 98.34933
1096.146, 99.23756
1096.629, 99.36946
1097.111, 99.31383
1097.593, 99.20004
1098.075, 99.03188
1098.557, 98.74832
1099.039, 98.39653
1099.521, 98.31267
1100.003, 98.59549
1100.486, 98.75158
1100.968, 98.39191
1101.450, 97.83555
1101.932, 97.30917
1102.414, 96.79344
1102.896, 96.01885
1103.378, 94.97054
1103.860, 94.17201
1104.343, 93.83083
1104.825, 93.77813
1105.307, 94.20795
1105.789, 94.63451
1106.271, 94.34748
1106.753, 92.84559
1107.235, 92.18523
1107.717, 92.57280
1108.199, 93.06302
1108.682, 93.08813
1109.164, 92.86098
1109.646, 92.74037
1110.128, 92.67451
1110.610, 92.53584
1111.092, 92.36299
1111.574, 91.93057
1112.056, 90.97944
1112.538, 90.18684
1113.021, 90.39560
1113.503, 91.28744
1113.985, 91.72961
1114.467, 91.69109
1114.949, 91.33183
1115.431, 90.13166
1115.913, 89.36509
1116.395, 89.80172
1116.878, 90.72133
1117.360, 90.96759
1117.842, 90.57542
1118.324, 90.15987
1118.806, 89.78856
1119.288, 89.56355
1119.770, 89.74733
1120.252, 89.94244
1120.734, 89.73158
1121.217, 89.24828
1121.699, 89.31841
1122.181, 90.05803
1122.663, 90.20290
1123.145, 89.25334
1123.627, 88.20412
1124.109, 88.26779
1124.591, 88.78148
1125.073, 88.97981
1125.556, 88.68617
1126.038, 88.65788
1126.520, 89.03765
1127.002, 89.25657
1127.484, 89.05553
1127.966, 88.59479
1128.448, 87.79601
1128.930, 87.03545
1129.413, 87.10747
1129.895, 88.87933
1130.377, 89.88261
1130.859, 89.65546
1131.341, 89.13461
1131.823, 88.85018
1132.305, 88.76295
1132.787, 88.84592
1133.270, 89.02528
1133.752, 89.04398
1134.234, 88.81680
1134.716, 88.34933
1135.198, 87.29646
1135.680, 86.38708
1136.162, 86.50234
1136.644, 87.48692
1137.126, 87.86841
1137.609, 87.67943
1138.091, 87.78203
1138.573, 89.40703
1139.055, 90.67133
1139.537, 90.30705
1140.019, 89.11939
1140.501, 88.19633
1140.983, 87.54185
1141.465, 87.25755
1141.948, 87.36723
1142.430, 87.46896
1142.912, 87.11864
1143.394, 86.74644
1143.876, 86.73653
1144.358, 86.99847
1144.840, 87.04416
1145.322, 86.80732
1145.805, 86.91592
1146.287, 87.58182
1146.769, 88.16134
1147.251, 87.73612
1147.733, 87.02448
1148.215, 86.79694
1148.697, 87.15451
1149.179, 87.44148
1149.661, 87.64473
1150.144, 87.79500
1150.626, 87.91440
1151.108, 87.95409
1151.590, 87.85814
1152.072, 87.62621
1152.554, 87.18299
1153.036, 86.39381
1153.518, 86.03876
1154.000, 86.29247
1154.483, 86.63364
1154.965, 86.83884
1155.447, 86.96484
1155.929, 87.14861
1156.411, 87.33405
1156.893, 87.39242
1157.375, 87.21696
1157.857, 87.09218
1158.340, 87.13478
1158.822, 87.08932
1159.304, 86.72111
1159.786, 86.16733
1160.268, 85.78869
1160.750, 85.59045
1161.232, 85.59023
1161.714, 85.92029
1162.197, 86.28262
1162.679, 86.71245
1163.161, 87.03548
1163.643, 86.97646
1164.125, 86.65276
1164.607, 86.83479
1165.089, 87.43761
1165.571, 87.90662
1166.053, 88.16920
1166.536, 87.94827
1167.018, 86.55013
1167.500, 85.15530
1167.982, 85.41823
1168.464, 87.09841
1168.946, 87.56978
1169.428, 86.76985
1169.910, 86.05186
1170.392, 86.53642
1170.875, 87.01838
1171.357, 86.79221
1171.839, 86.23643
1172.321, 85.95654
1172.803, 85.94228
1173.285, 85.75620
1173.767, 85.34254
1174.249, 85.10533
1174.732, 85.40071
1175.214, 85.90490
1175.696, 86.51158
1176.178, 87.14500
1176.660, 87.72543
1177.142, 88.25706
1177.624, 88.18197
1178.106, 87.32254
1178.589, 86.55233
1179.071, 86.84560
1179.553, 87.33400
1180.035, 87.26658
1180.517, 86.76028
1180.999, 86.54206
1181.481, 86.63924
1181.963, 86.64272
1182.445, 86.43279
1182.927, 86.19183
1183.410, 86.04026
1183.892, 85.98022
1184.374, 86.04871
1184.856, 86.23562
1185.338, 86.42711
1185.820, 86.64735
1186.302, 86.59785
1186.784, 86.09003
1187.267, 85.53980
1187.749, 85.28562
1188.231, 85.28240
1188.713, 85.54176
1189.195, 86.07880
1189.677, 86.56152
1190.159, 87.02311
1190.641, 87.11881
1191.124, 86.48431
1191.606, 85.85326
1192.088, 86.38813
1192.570, 87.28676
1193.052, 87.40009
1193.534, 86.36193
1194.016, 85.95596
1194.498, 86.26962
1194.980, 86.70715
1195.463, 87.11519
1195.945, 87.29140
1196.427, 86.63203
1196.909, 85.72795
1197.391, 85.53304
1197.873, 86.38926
1198.355, 87.19398
1198.837, 87.97493
1199.319, 88.56234
1199.802, 88.98271
1200.284, 89.01396
1200.766, 87.94597
1201.248, 86.42412
1201.730, 85.65359
1202.212, 86.15771
1202.694, 86.51480
1203.176, 86.74297
1203.658, 86.73714
1204.141, 86.10352
1204.623, 85.44962
1205.105, 85.70351
1205.587, 86.48255
1206.069, 86.91078
1206.551, 86.66630
1207.033, 86.65727
1207.515, 86.95023
1207.998, 87.24507
1208.480, 87.24434
1208.962, 87.15529
1209.444, 87.30177
1209.926, 87.56036
1210.408, 87.57405
1210.890, 87.26413
1211.372, 86.76606
1211.854, 85.98550
1212.337, 85.53597
1212.819, 86.33641
1213.301, 87.45043
1213.783, 87.85307
1214.265, 87.63209
1214.747, 87.16012
1215.229, 86.23875
1215.711, 85.90857
1216.193, 86.32971
1216.676, 86.90842
1217.158, 87.11667
1217.640, 87.17132
1218.122, 87.33873
1218.604, 87.56412
1219.086, 87.55678
1219.568, 87.12232
1220.050, 87.28535
1220.533, 88.30049
1221.015, 89.03328
1221.497, 87.77535
1221.979, 86.18275
1222.461, 86.18191
1222.943, 87.38813
1223.425, 87.61311
1223.907, 86.38506
1224.390, 86.09105
1224.872, 87.17736
1225.354, 88.31471
1225.836, 88.03038
1226.318, 87.37490
1226.800, 87.44048
1227.282, 88.06421
1227.764, 88.09544
1228.246, 87.37578
1228.729, 87.00926
1229.211, 87.19524
1229.693, 87.52061
1230.175, 87.84851
1230.657, 87.94024
1231.139, 87.37154
1231.621, 86.34984
1232.103, 85.85861
1232.585, 85.95095
1233.068, 86.08643
1233.550, 86.17540
1234.032, 86.31801
1234.514, 86.50725
1234.996, 86.87159
1235.478, 87.77842
1235.960, 88.94112
1236.442, 89.28038
1236.925, 88.77865
1237.407, 88.11905
1237.889, 87.38021
1238.371, 86.87247
1238.853, 87.21345
1239.335, 87.53863
1239.817, 86.99504
1240.299, 85.99470
1240.781, 85.71013
1241.264, 86.10974
1241.746, 86.70587
1242.228, 87.45633
1242.710, 87.90708
1243.192, 87.55171
1243.674, 86.98283
1244.156, 86.44920
1244.638, 86.01439
1245.120, 85.75694
1245.603, 85.71431
1246.085, 86.26802
1246.567, 87.55840
1247.049, 88.67239
1247.531, 89.24586
1248.013, 89.28905
1248.495, 88.60391
1248.977, 87.63631
1249.460, 87.71672
1249.942, 88.51445
1250.424, 88.52666
1250.906, 87.42668
1251.388, 86.60982
1251.870, 87.02133
1252.352, 87.49126
1252.834, 87.60063
1253.317, 87.53965
1253.799, 87.80064
1254.281, 88.20421
1254.763, 88.16241
1255.245, 87.54073
1255.727, 87.29230
1256.209, 88.07214
1256.691, 88.75948
1257.173, 89.08923
1257.656, 89.08856
1258.138, 88.53532
1258.620, 87.79076
1259.102, 87.61113
1259.584, 88.13789
1260.066, 88.46350
1260.548, 88.35043
1261.030, 88.29488
1261.512, 88.45433
1261.995, 88.67481
1262.477, 88.75188
1262.959, 88.73885
1263.441, 88.73262
1263.923, 88.74046
1264.405, 88.54899
1264.887, 88.06517
1265.369, 87.69604
1265.852, 87.53290
1266.334, 87.55194
1266.816, 87.92018
1267.298, 88.31578
1267.780, 88.34297
1268.262, 87.99682
1268.744, 87.76891
1269.226, 87.66600
1269.708, 87.63533
1270.191, 87.68218
1270.673, 87.70970
1271.155, 87.52764
1271.637, 87.37337
1272.119, 87.48951
1272.601, 87.81163
1273.083, 88.16097
1273.565, 88.52855
1274.047, 88.65171
1274.530, 88.44368
1275.012, 88.29134
1275.494, 88.57744
1275.976, 88.88774
1276.458, 89.03967
1276.940, 89.02129
1277.422, 88.65232
1277.904, 88.05575
1278.387, 87.91683
1278.869, 88.37941
1279.351, 88.79116
1279.833, 88.91970
##END=



