##NAMES=Guanajuatite
##RRUFFID=R080140
##IDEAL CHEMISTRY=Bi^3+^_2_Se^2-^_3_
##LOCALITY=Falun, Dalarna, Sweden
##OWNER=RRUFF
##SOURCE=James Shigley
##DESCRIPTION=Compact mass of silver flattened crystals, exhibiting metallic luster
##STATUS=The identification of this mineral has been confirmed only by single crystal X-ray diffraction.
##URL=rruff.info/R080140
90.52570, 0.0000000E+00
91.00781, 7.341677
91.48993, 7.489994
91.97205, 7.549527
92.45416, 7.497172
92.93628, 7.357665
93.41840, 7.154249
93.90051, 6.838447
94.38263, 6.550561
94.86475, 6.575209
95.34686, 6.909480
95.82898, 7.274832
96.31110, 7.440766
96.79321, 7.424615
97.27533, 7.395841
97.75745, 7.383497
98.23956, 7.387812
98.72168, 7.397296
99.20380, 7.397510
99.68591, 7.447405
100.1680, 7.662041
100.6501, 8.095011
101.1323, 8.414385
101.6144, 8.453107
102.0965, 8.167959
102.5786, 8.129995
103.0607, 8.369260
103.5428, 8.827834
104.0250, 9.436852
104.5071, 10.25184
104.9892, 11.11674
105.4713, 12.00244
105.9534, 13.05409
106.4355, 13.78943
106.9177, 13.97439
107.3998, 13.83268
107.8819, 14.08384
108.3640, 15.05193
108.8461, 16.14977
109.3282, 17.12081
109.8104, 17.86221
110.2925, 18.57403
110.7746, 19.28164
111.2567, 19.97236
111.7388, 20.57385
112.2209, 20.63183
112.7031, 20.83085
113.1852, 21.64767
113.6673, 24.00921
114.1494, 26.19682
114.6315, 27.62371
115.1136, 28.25805
115.5958, 29.04068
116.0779, 30.49605
116.5600, 32.18890
117.0421, 33.62518
117.5242, 34.31006
118.0063, 34.95293
118.4885, 35.95573
118.9706, 37.39553
119.4527, 38.96604
119.9348, 40.50406
120.4169, 42.04877
120.8990, 43.69871
121.3812, 45.81954
121.8633, 47.91035
122.3454, 49.48967
122.8275, 50.48669
123.3096, 50.99561
123.7917, 50.85847
124.2739, 50.21894
124.7560, 49.60437
125.2381, 49.24778
125.7202, 49.15559
126.2023, 49.33974
126.6844, 49.80339
127.1666, 50.54110
127.6487, 51.71898
128.1308, 53.31042
128.6129, 54.79585
129.0950, 55.70570
129.5771, 56.15554
130.0593, 56.55912
130.5414, 57.02788
131.0235, 57.52782
131.5056, 57.84357
131.9877, 57.73547
132.4698, 57.47337
132.9520, 57.70535
133.4341, 58.40412
133.9162, 59.12655
134.3983, 59.73199
134.8804, 60.23327
135.3625, 60.65715
135.8447, 60.92442
136.3268, 61.31196
136.8089, 62.37859
137.2910, 64.28397
137.7731, 65.93936
138.2552, 66.97632
138.7374, 67.38316
139.2195, 67.25954
139.7016, 66.47894
140.1837, 65.29789
140.6658, 64.20366
141.1479, 63.10925
141.6301, 62.25904
142.1122, 61.81304
142.5943, 61.97255
143.0764, 61.94280
143.5585, 61.53822
144.0406, 60.94326
144.5228, 60.82943
145.0049, 61.42670
145.4870, 62.20992
145.9691, 62.92318
146.4512, 63.82495
146.9333, 64.23798
147.4155, 63.84401
147.8976, 62.77135
148.3797, 62.26875
148.8618, 62.67205
149.3439, 63.39319
149.8260, 64.05109
150.3082, 64.64872
150.7903, 65.18702
151.2724, 65.66673
151.7545, 66.08428
152.2366, 66.47666
152.7188, 66.87045
153.2009, 67.22652
153.6830, 67.50864
154.1651, 68.06211
154.6472, 68.20365
155.1293, 67.53978
155.6115, 65.91727
156.0936, 64.74199
156.5757, 64.45369
157.0578, 64.65402
157.5399, 64.91410
158.0220, 65.26679
158.5042, 65.55483
158.9863, 65.69032
159.4684, 65.63322
159.9505, 65.60559
160.4326, 65.62112
160.9147, 65.71776
161.3969, 65.95177
161.8790, 66.63065
162.3611, 67.24566
162.8432, 67.52846
163.3253, 67.41304
163.8074, 67.05341
164.2896, 66.26043
164.7717, 65.26891
165.2538, 64.54915
165.7359, 64.40359
166.2180, 64.55338
166.7001, 64.83572
167.1823, 65.30905
167.6644, 65.70065
168.1465, 65.79131
168.6286, 65.65295
169.1107, 65.48796
169.5928, 65.54452
170.0750, 65.57494
170.5571, 65.27869
171.0392, 64.41727
171.5213, 63.50706
172.0034, 62.95837
172.4855, 62.73008
172.9677, 62.65062
173.4498, 62.77539
173.9319, 62.93935
174.4140, 62.87936
174.8961, 62.36359
175.3782, 61.78511
175.8604, 61.61990
176.3425, 61.82524
176.8246, 62.04963
177.3067, 62.05285
177.7888, 61.88503
178.2709, 61.64058
178.7531, 61.28555
179.2352, 60.91340
179.7173, 60.70116
180.1994, 60.64083
180.6815, 60.55869
181.1636, 60.21469
181.6458, 59.70930
182.1279, 59.35940
182.6100, 59.34650
183.0921, 59.51658
183.5742, 59.55666
184.0563, 59.46226
184.5385, 59.31575
185.0206, 59.17308
185.5027, 59.03860
185.9848, 58.94363
186.4669, 58.92813
186.9490, 58.95589
187.4312, 58.93556
187.9133, 58.87265
188.3954, 58.72717
188.8775, 58.38342
189.3596, 57.86956
189.8417, 57.43892
190.3239, 57.17906
190.8060, 57.08123
191.2881, 57.16147
191.7702, 57.45580
192.2523, 57.78548
192.7344, 57.90959
193.2166, 57.82820
193.6987, 57.72668
194.1808, 57.65621
194.6629, 57.62032
195.1450, 57.68108
195.6271, 57.87403
196.1093, 58.07355
196.5914, 58.03381
197.0735, 57.72694
197.5556, 57.52212
198.0377, 57.64074
198.5198, 58.08651
199.0020, 58.39304
199.4841, 58.55708
199.9662, 58.58685
200.4483, 58.44700
200.9304, 58.10184
201.4125, 57.80199
201.8947, 57.67999
202.3768, 57.75228
202.8589, 57.79937
203.3410, 57.83099
203.8231, 57.82349
204.3052, 57.70079
204.7874, 57.42291
205.2695, 57.19650
205.7516, 57.12465
206.2337, 57.22707
206.7158, 57.36363
207.1979, 57.56411
207.6801, 57.76881
208.1622, 57.80809
208.6443, 57.59859
209.1264, 57.48107
209.6085, 57.62713
210.0906, 58.08500
210.5728, 58.61570
211.0549, 59.29309
211.5370, 59.98300
212.0191, 60.31953
212.5012, 60.17134
212.9833, 60.00245
213.4655, 60.07697
213.9476, 60.52608
214.4297, 60.68791
214.9118, 60.35202
215.3939, 59.82471
215.8760, 59.94841
216.3581, 61.04582
216.8403, 62.12706
217.3224, 62.65645
217.8045, 62.39284
218.2866, 62.33970
218.7687, 62.58337
219.2508, 63.02260
219.7330, 63.39154
220.2151, 63.69356
220.6972, 63.91473
221.1793, 64.00887
221.6614, 63.85834
222.1435, 63.91429
222.6257, 64.28632
223.1078, 64.83757
223.5899, 65.17391
224.0720, 65.14436
224.5541, 65.14433
225.0362, 64.78132
225.5184, 65.80441
226.0005, 66.45206
226.4826, 66.74313
226.9647, 65.68714
227.4468, 66.31122
227.9289, 66.22572
228.4111, 66.08629
228.8932, 66.87275
229.3753, 65.87937
229.8574, 66.59892
230.3395, 66.59846
230.8216, 66.88976
231.3038, 66.46723
231.7859, 66.23129
232.2680, 66.65755
232.7501, 66.67688
233.2322, 66.00109
233.7143, 65.92586
234.1965, 65.56430
234.6786, 65.06780
235.1607, 64.90150
235.6428, 65.38184
236.1249, 65.72987
236.6070, 65.55363
237.0892, 64.49616
237.5713, 63.71220
238.0534, 63.32777
238.5355, 63.18335
239.0176, 62.85653
239.4997, 62.19479
239.9819, 61.56230
240.4640, 61.12722
240.9461, 60.97485
241.4282, 60.81764
241.9103, 60.68689
242.3924, 60.54211
242.8746, 60.26865
243.3567, 59.75941
243.8388, 59.28630
244.3209, 58.98798
244.8030, 59.00977
245.2851, 58.80693
245.7673, 58.21453
246.2494, 57.46558
246.7315, 57.11644
247.2136, 57.52176
247.6957, 57.76274
248.1778, 57.41706
248.6600, 56.19722
249.1421, 55.26415
249.6242, 54.64143
250.1063, 54.28411
250.5884, 54.13367
251.0705, 54.30429
251.5527, 54.48922
252.0348, 54.61287
252.5169, 54.73380
252.9990, 54.54700
253.4811, 53.86339
253.9632, 52.99159
254.4454, 52.52302
254.9275, 52.69256
255.4096, 52.80814
255.8917, 52.60505
256.3738, 51.98696
256.8560, 51.50275
257.3381, 51.18942
257.8202, 50.97511
258.3023, 50.76585
258.7844, 50.61538
259.2665, 50.35390
259.7487, 49.86980
260.2308, 49.10036
260.7129, 48.58997
261.1950, 48.45788
261.6771, 48.45571
262.1592, 48.25294
262.6414, 47.81620
263.1235, 47.25951
263.6056, 46.56040
264.0877, 45.68863
264.5698, 45.06549
265.0519, 44.77915
265.5341, 44.62217
266.0162, 44.36295
266.4983, 43.99841
266.9804, 43.53702
267.4625, 42.91722
267.9446, 42.14951
268.4268, 41.62705
268.9089, 41.45263
269.3910, 41.35979
269.8731, 41.05675
270.3552, 40.48787
270.8373, 39.94292
271.3195, 39.49821
271.8016, 39.13971
272.2837, 38.66880
272.7658, 38.00846
273.2479, 37.39596
273.7300, 37.10404
274.2122, 37.20716
274.6943, 37.16463
275.1764, 36.82831
275.6585, 36.26285
276.1406, 35.79058
276.6227, 35.40854
277.1049, 35.12995
277.5870, 35.01102
278.0691, 35.07197
278.5512, 35.05329
279.0333, 34.88929
279.5154, 34.63011
279.9976, 34.47203
280.4797, 34.44420
280.9618, 34.36386
281.4439, 34.05598
281.9260, 33.51863
282.4081, 33.03975
282.8903, 32.64561
283.3724, 32.34061
283.8545, 32.17022
284.3366, 32.14715
284.8187, 32.12286
285.3008, 31.97079
285.7830, 31.70638
286.2651, 31.54025
286.7472, 31.51327
287.2293, 31.54682
287.7114, 31.49949
288.1935, 31.37168
288.6757, 31.22118
289.1578, 31.07838
289.6399, 30.93975
290.1220, 30.80402
290.6041, 30.67852
291.0862, 30.52870
291.5684, 30.29007
292.0505, 29.96934
292.5326, 29.64294
293.0147, 29.29607
293.4968, 28.96942
293.9789, 28.80069
294.4611, 28.81166
294.9432, 28.87931
295.4253, 28.85551
295.9074, 28.76269
296.3895, 28.69824
296.8716, 28.78077
297.3538, 28.90145
297.8359, 28.81269
298.3180, 28.50705
298.8001, 28.14490
299.2822, 27.84140
299.7643, 27.59326
300.2465, 27.39411
300.7286, 27.21688
301.2107, 27.10344
301.6928, 27.16893
302.1749, 27.39946
302.6570, 27.59010
303.1392, 27.52509
303.6213, 27.31637
304.1034, 27.15902
304.5855, 27.12925
305.0676, 27.14707
305.5497, 27.14776
306.0319, 27.12957
306.5140, 27.08329
306.9961, 26.95781
307.4782, 26.81770
307.9603, 26.74139
308.4424, 26.76220
308.9246, 26.82280
309.4067, 26.97359
309.8888, 27.14540
310.3709, 27.14133
310.8530, 26.59460
311.3351, 25.96837
311.8173, 25.69273
312.2994, 25.92537
312.7815, 26.22235
313.2636, 26.36007
313.7457, 26.37484
314.2278, 26.33047
314.7100, 26.25355
315.1921, 26.12609
315.6742, 25.89093
316.1563, 25.50880
316.6384, 25.24025
317.1205, 25.33992
317.6027, 25.58302
318.0848, 25.68423
318.5669, 25.41959
319.0490, 25.11655
319.5311, 24.87233
320.0132, 24.69125
320.4954, 24.62129
320.9775, 24.80712
321.4596, 25.04719
321.9417, 25.16758
322.4238, 25.03219
322.9059, 24.87850
323.3881, 24.73143
323.8702, 24.59834
324.3523, 24.53429
324.8344, 24.69807
325.3165, 24.83460
325.7986, 24.79491
326.2808, 24.26418
326.7629, 23.91464
327.2450, 23.88682
327.7271, 24.09806
328.2092, 24.22188
328.6913, 24.25793
329.1735, 24.20392
329.6556, 24.04105
330.1377, 23.62981
330.6198, 23.37887
331.1019, 23.38349
331.5840, 23.51994
332.0662, 23.55021
332.5483, 23.39576
333.0304, 23.24552
333.5125, 23.15483
333.9946, 23.12346
334.4767, 23.15978
334.9589, 23.33680
335.4410, 23.50972
335.9231, 23.45242
336.4052, 23.02446
336.8873, 22.74595
337.3694, 22.80300
337.8515, 23.16833
338.3336, 23.34529
338.8158, 23.27389
339.2979, 23.14272
339.7800, 23.16171
340.2621, 23.37595
340.7442, 23.40101
341.2263, 23.08179
341.7085, 22.57220
342.1906, 22.45602
342.6727, 22.78964
343.1548, 23.15729
343.6369, 23.26858
344.1190, 23.13708
344.6012, 22.99679
345.0833, 22.87025
345.5654, 22.74931
346.0475, 22.59924
346.5296, 22.42506
347.0117, 22.30189
347.4939, 22.33319
347.9760, 22.45281
348.4581, 22.41871
348.9402, 22.19523
349.4223, 21.95735
349.9044, 21.91030
350.3866, 22.01427
350.8687, 22.13133
351.3508, 22.22952
351.8329, 22.29729
352.3150, 22.28846
352.7971, 22.20617
353.2793, 22.15462
353.7614, 22.30282
354.2435, 22.51868
354.7256, 22.57297
355.2077, 22.27793
355.6898, 21.95159
356.1720, 21.93580
356.6541, 22.15531
357.1362, 22.28708
357.6183, 22.00137
358.1004, 21.62176
358.5826, 21.47445
359.0647, 21.72972
359.5468, 21.93807
360.0289, 21.75970
360.5110, 21.37005
360.9931, 21.10224
361.4753, 21.19342
361.9574, 21.35662
362.4395, 21.46719
362.9216, 21.51644
363.4037, 21.49164
363.8858, 21.33270
364.3680, 21.12016
364.8501, 20.93811
365.3322, 20.79801
365.8143, 20.69910
366.2964, 20.66201
366.7785, 20.68457
367.2607, 20.68173
367.7428, 20.58808
368.2249, 20.50501
368.7070, 20.49635
369.1891, 20.70899
369.6712, 20.79805
370.1534, 20.66489
370.6355, 20.39840
371.1176, 20.29150
371.5997, 20.52631
372.0818, 20.68306
372.5639, 20.53892
373.0461, 19.89676
373.5282, 19.62353
374.0103, 19.86519
374.4924, 20.33277
374.9745, 20.58643
375.4566, 20.57813
375.9388, 20.50848
376.4209, 20.40940
376.9030, 20.28631
377.3851, 20.26806
377.8672, 20.39270
378.3493, 20.50349
378.8315, 20.41844
379.3136, 20.13284
379.7957, 19.90129
380.2778, 19.77773
380.7599, 19.72744
381.2420, 19.64058
381.7242, 19.51852
382.2063, 19.47111
382.6884, 19.64803
383.1705, 19.96964
383.6526, 20.14004
384.1347, 20.11047
384.6169, 20.01005
385.0990, 19.97644
385.5811, 20.00168
386.0632, 20.06306
386.5453, 20.21984
387.0274, 20.37499
387.5096, 20.36494
387.9917, 20.19027
388.4738, 20.01324
388.9559, 19.97153
389.4380, 20.00305
389.9201, 20.02547
390.4023, 19.99833
390.8844, 19.97211
391.3665, 20.00653
391.8486, 20.07803
392.3307, 20.09824
392.8128, 20.02960
393.2950, 19.89169
393.7771, 19.65591
394.2592, 19.21548
394.7413, 18.95392
395.2234, 19.14582
395.7055, 19.56550
396.1877, 19.86418
396.6698, 19.93032
397.1519, 19.89710
397.6340, 19.75694
398.1161, 19.48747
398.5982, 19.33150
399.0804, 19.41583
399.5625, 19.55260
400.0446, 19.60666
400.5267, 19.52643
401.0088, 19.43753
401.4909, 19.33285
401.9731, 19.22627
402.4552, 19.18382
402.9373, 19.25118
403.4194, 19.30852
403.9015, 19.29782
404.3836, 19.20629
404.8658, 19.09237
405.3479, 18.94691
405.8300, 18.79245
406.3121, 18.63998
406.7942, 18.47650
407.2763, 18.41053
407.7585, 18.52125
408.2406, 18.76378
408.7227, 18.88651
409.2048, 18.88390
409.6869, 18.80653
410.1690, 18.63127
410.6512, 18.39812
411.1333, 18.31508
411.6154, 18.46865
412.0975, 18.70170
412.5796, 18.75469
413.0617, 18.66314
413.5439, 18.60500
414.0260, 18.72988
414.5081, 18.93145
414.9902, 19.07092
415.4723, 19.14025
415.9544, 19.13611
416.4366, 19.05401
416.9187, 18.89691
417.4008, 18.67010
417.8829, 18.15006
418.3650, 17.75265
418.8471, 17.84563
419.3293, 18.33849
419.8114, 18.69390
420.2935, 18.55732
420.7756, 18.28185
421.2577, 18.09478
421.7398, 18.01265
422.2220, 18.05386
422.7041, 18.36582
423.1862, 18.78340
423.6683, 19.01125
424.1504, 18.80398
424.6325, 18.61505
425.1147, 18.59292
425.5968, 18.76796
426.0789, 18.82679
426.5610, 18.65767
427.0431, 18.47374
427.5252, 18.47125
428.0074, 18.78476
428.4895, 18.96054
428.9716, 18.91410
429.4537, 18.70765
429.9358, 18.52517
430.4179, 18.36357
430.9001, 18.23741
431.3822, 18.14885
431.8643, 18.09741
432.3464, 18.13695
432.8285, 18.29574
433.3106, 18.45398
433.7928, 18.40111
434.2749, 18.17208
434.7570, 18.07920
435.2391, 18.32059
435.7212, 18.67630
436.2033, 18.66311
436.6855, 18.31428
437.1676, 17.96222
437.6497, 17.83048
438.1318, 17.85176
438.6139, 17.97519
439.0960, 18.25328
439.5782, 18.40819
440.0603, 18.01077
440.5424, 17.34224
441.0245, 16.93391
441.5066, 17.19751
441.9887, 17.62920
442.4709, 18.00034
442.9530, 18.29662
443.4351, 18.45683
443.9172, 18.34995
444.3993, 18.15981
444.8814, 18.01897
445.3636, 17.94181
445.8457, 17.92394
446.3278, 18.03574
446.8099, 18.20676
447.2920, 18.26217
447.7741, 18.05552
448.2563, 17.89592
448.7384, 17.92801
449.2205, 18.20913
449.7026, 18.20297
450.1847, 17.73918
450.6668, 17.20335
451.1490, 16.95885
451.6311, 17.06576
452.1132, 17.24489
452.5953, 17.49575
453.0774, 17.76495
453.5595, 17.92731
454.0417, 17.98145
454.5238, 17.94138
455.0059, 17.72866
455.4880, 17.40308
455.9701, 17.31058
456.4522, 17.48971
456.9344, 17.71527
457.4165, 17.74238
457.8986, 17.62066
458.3807, 17.48198
458.8628, 17.33439
459.3449, 17.22598
459.8271, 17.21637
460.3092, 17.29565
460.7913, 17.41952
461.2734, 17.67291
461.7555, 17.89247
462.2376, 17.90808
462.7198, 17.65058
463.2019, 17.40561
463.6840, 17.31655
464.1661, 17.31220
464.6482, 17.30641
465.1303, 17.29968
465.6125, 17.26484
466.0946, 17.15167
466.5767, 16.97716
467.0588, 16.90819
467.5409, 17.11066
468.0230, 17.28494
468.5052, 17.27403
468.9873, 16.91621
469.4694, 16.79347
469.9515, 17.03336
470.4336, 17.39760
470.9157, 17.54068
471.3979, 17.40193
471.8800, 17.24024
472.3621, 17.09370
472.8442, 16.97892
473.3263, 17.00824
473.8084, 17.20374
474.2906, 17.37201
474.7727, 17.31271
475.2548, 17.08734
475.7369, 17.03124
476.2190, 17.21856
476.7011, 17.41465
477.1833, 17.24045
477.6654, 16.83573
478.1475, 16.58585
478.6296, 16.78522
479.1117, 17.12324
479.5938, 17.33472
480.0760, 17.41910
480.5581, 17.36987
481.0402, 16.91740
481.5223, 16.48960
482.0044, 16.49953
482.4865, 17.23144
482.9687, 17.82788
483.4508, 17.91942
483.9329, 17.72333
484.4150, 17.54922
484.8971, 17.52302
485.3792, 17.44923
485.8614, 17.22320
486.3435, 16.86378
486.8256, 16.66973
487.3077, 16.75461
487.7898, 16.87325
488.2719, 16.88993
488.7541, 16.76214
489.2362, 16.66326
489.7183, 16.58372
490.2004, 16.54720
490.6825, 16.62991
491.1646, 16.85365
491.6468, 16.96571
492.1289, 16.84282
492.6110, 16.58230
493.0931, 16.47894
493.5752, 16.53058
494.0573, 16.59052
494.5395, 16.54863
495.0216, 16.43991
495.5037, 16.31182
495.9858, 16.15692
496.4679, 16.07089
496.9500, 16.21443
497.4322, 16.47616
497.9143, 16.66880
498.3964, 16.66377
498.8785, 16.61899
499.3606, 16.59090
499.8427, 16.58837
500.3249, 16.65130
500.8070, 16.96709
501.2891, 17.21675
501.7712, 17.18729
502.2533, 16.69861
502.7354, 16.38844
503.2176, 16.46808
503.6997, 16.66501
504.1818, 16.70241
504.6639, 16.49306
505.1460, 16.28002
505.6281, 16.07362
506.1103, 15.89124
506.5924, 15.83202
507.0745, 15.93590
507.5566, 16.02128
508.0387, 15.96354
508.5208, 15.77394
509.0030, 15.68527
509.4851, 15.70484
509.9672, 15.78481
510.4493, 15.91176
510.9314, 16.06311
511.4135, 16.15661
511.8957, 16.15163
512.3778, 16.11455
512.8599, 16.12464
513.3420, 16.16697
513.8242, 16.19731
514.3063, 16.19205
514.7884, 16.16689
515.2705, 16.12955
515.7526, 16.08073
516.2347, 16.03267
516.7169, 15.93638
517.1990, 15.87422
517.6811, 15.91551
518.1632, 16.29074
518.6453, 16.47034
519.1274, 16.24561
519.6096, 15.81947
520.0917, 15.56447
520.5738, 15.55854
521.0559, 15.59774
521.5380, 15.65138
522.0201, 15.71564
522.5023, 15.69438
522.9844, 15.53571
523.4665, 15.44033
523.9486, 15.65347
524.4307, 16.14912
524.9128, 16.30395
525.3950, 16.00650
525.8771, 15.58037
526.3592, 15.45388
526.8413, 15.56486
527.3234, 15.68605
527.8055, 15.75206
528.2877, 15.76973
528.7698, 15.71557
529.2519, 15.60956
529.7340, 15.53486
530.2161, 15.55464
530.6982, 15.61284
531.1804, 15.68720
531.6625, 15.78679
532.1446, 15.82060
532.6267, 15.68837
533.1088, 15.51091
533.5909, 15.40161
534.0731, 15.43301
534.5552, 15.46150
535.0373, 15.48232
535.5194, 15.49259
536.0015, 15.48402
536.4836, 15.44948
536.9658, 15.41110
537.4479, 15.38084
537.9300, 15.35733
538.4121, 15.28768
538.8942, 15.15202
539.3763, 15.05504
539.8585, 15.12707
540.3406, 15.33165
540.8227, 15.44800
541.3048, 15.43298
541.7869, 15.38372
542.2690, 15.44534
542.7512, 15.56939
543.2333, 15.63357
543.7154, 15.52172
544.1975, 15.38415
544.6796, 15.37196
545.1617, 15.45137
545.6439, 15.47391
546.1260, 15.30000
546.6081, 15.10387
547.0902, 15.00067
547.5723, 15.03707
548.0544, 15.02557
548.5366, 14.84976
549.0187, 14.66672
549.5008, 14.61847
549.9829, 14.79904
550.4650, 14.94969
550.9471, 15.07588
551.4293, 15.14554
551.9114, 15.02595
552.3935, 14.64567
552.8756, 14.43343
553.3577, 14.66750
553.8398, 15.20160
554.3220, 15.28100
554.8041, 14.89050
555.2862, 14.49718
555.7683, 14.52914
556.2504, 14.80646
556.7325, 14.95534
557.2147, 14.90794
557.6968, 14.83474
558.1789, 14.92442
558.6610, 15.06947
559.1431, 15.11051
559.6252, 14.83189
560.1074, 14.60140
560.5895, 14.60619
561.0716, 14.78287
561.5537, 14.91827
562.0358, 14.96372
562.5179, 14.96845
563.0001, 14.94994
563.4822, 14.90991
563.9643, 14.82632
564.4464, 14.65157
564.9285, 14.50031
565.4106, 14.47954
565.8928, 14.61976
566.3749, 14.67714
566.8570, 14.60981
567.3391, 14.50708
567.8212, 14.51528
568.3033, 14.62015
568.7855, 14.71548
569.2676, 14.75886
569.7497, 14.78035
570.2318, 14.85626
570.7139, 14.96129
571.1960, 14.99112
571.6782, 14.80671
572.1603, 14.57303
572.6424, 14.41690
573.1245, 14.34935
573.6066, 14.33760
574.0887, 14.40000
574.5709, 14.49418
575.0530, 14.58728
575.5351, 14.66902
576.0172, 14.76301
576.4993, 14.91639
576.9814, 15.06100
577.4636, 15.06100
577.9457, 14.82846
578.4278, 14.69488
578.9099, 14.78777
579.3920, 15.02395
579.8741, 15.05490
580.3563, 14.86378
580.8384, 14.69207
581.3205, 14.77009
581.8026, 14.97457
582.2847, 14.86248
582.7668, 14.41320
583.2490, 14.06028
583.7311, 14.34630
584.2131, 14.87770
584.6953, 15.11693
585.1774, 14.80771
585.6595, 14.50158
586.1416, 14.53892
586.6237, 14.74812
587.1058, 14.86942
587.5880, 14.73258
588.0701, 14.62218
588.5522, 14.63289
589.0343, 14.73165
589.5164, 14.75884
589.9985, 14.66179
590.4807, 14.58210
590.9628, 14.58543
591.4449, 14.67375
591.9270, 14.74197
592.4091, 14.79059
592.8912, 14.81656
593.3734, 14.81322
593.8555, 14.78359
594.3376, 14.74174
594.8197, 14.68915
595.3018, 14.62767
595.7839, 14.54872
596.2661, 14.46382
596.7482, 14.39573
597.2303, 14.38189
597.7124, 14.35804
598.1945, 14.28938
598.6766, 14.18142
599.1588, 14.04936
599.6409, 13.80080
600.1230, 13.62161
600.6051, 13.59693
601.0872, 13.73388
601.5693, 13.91546
602.0515, 14.22162
602.5336, 14.46103
603.0157, 14.48869
603.4978, 14.25780
603.9799, 14.08856
604.4620, 13.97798
604.9442, 13.95743
605.4263, 14.14578
605.9084, 14.49367
606.3905, 14.68740
606.8726, 14.61410
607.3547, 14.43979
607.8369, 14.32744
608.3190, 14.27633
608.8011, 14.28170
609.2832, 14.43116
609.7653, 14.55987
610.2474, 14.55536
610.7296, 14.42843
611.2117, 14.28344
611.6938, 14.01462
612.1759, 13.84681
612.6580, 13.94728
613.1401, 14.43115
613.6223, 14.65835
614.1044, 14.50317
614.5865, 14.25872
615.0686, 14.19847
615.5507, 14.35276
616.0328, 14.41768
616.5150, 14.34630
616.9971, 14.21968
617.4792, 14.13754
617.9613, 14.10102
618.4434, 14.11942
618.9255, 14.22394
619.4077, 14.35024
619.8898, 14.43709
620.3719, 14.48647
620.8540, 14.50615
621.3361, 14.47560
621.8182, 14.43717
622.3004, 14.41804
622.7825, 14.41909
623.2646, 14.40723
623.7467, 14.37933
624.2288, 14.33297
624.7109, 14.24788
625.1931, 14.06900
625.6752, 14.06717
626.1573, 14.33735
626.6394, 14.62618
627.1215, 14.61044
627.6036, 14.28330
628.0858, 14.12888
628.5679, 14.24998
629.0500, 14.49542
629.5321, 14.69885
630.0142, 14.84500
630.4963, 14.87638
630.9785, 14.71564
631.4606, 14.48686
631.9427, 14.22266
632.4248, 13.96677
632.9069, 13.85847
633.3890, 14.14815
633.8712, 14.42555
634.3533, 14.47434
634.8354, 14.26393
635.3175, 14.14554
635.7996, 14.15744
636.2817, 14.23224
636.7639, 14.35260
637.2460, 14.54111
637.7281, 14.65267
638.2102, 14.67900
638.6923, 14.65360
639.1744, 14.59541
639.6566, 14.51183
640.1387, 14.43326
640.6208, 14.35223
641.1029, 14.32294
641.5850, 14.49227
642.0671, 14.75296
642.5493, 14.89362
643.0314, 14.69740
643.5135, 14.48392
643.9956, 14.41555
644.4777, 14.46190
644.9598, 14.52519
645.4420, 14.63620
645.9241, 14.70486
646.4062, 14.68500
646.8883, 14.58261
647.3704, 14.53363
647.8525, 14.55438
648.3347, 14.59367
648.8168, 14.62481
649.2989, 14.64825
649.7810, 14.66461
650.2631, 14.67262
650.7452, 14.68289
651.2274, 14.75841
651.7095, 14.83474
652.1916, 14.71797
652.6737, 14.29287
653.1558, 13.99841
653.6379, 14.36543
654.1201, 14.98616
654.6022, 15.32530
655.0843, 14.95853
655.5664, 14.60285
656.0485, 14.38153
656.5306, 14.28832
657.0128, 14.31219
657.4949, 14.57014
657.9770, 14.71293
658.4591, 14.58838
658.9412, 14.29232
659.4233, 14.29755
659.9055, 14.63503
660.3876, 14.93389
660.8697, 14.93762
661.3518, 14.76484
661.8339, 14.72647
662.3160, 14.81429
662.7982, 14.87419
663.2803, 14.71093
663.7624, 14.51688
664.2445, 14.50364
664.7266, 14.73018
665.2087, 14.93166
665.6909, 15.06462
666.1730, 15.10882
666.6551, 15.03627
667.1372, 14.71945
667.6193, 14.51451
668.1014, 14.44575
668.5836, 14.46716
669.0657, 14.54320
669.5478, 14.68264
670.0299, 14.75674
670.5120, 14.71888
670.9941, 14.63919
671.4763, 14.64782
671.9584, 14.72491
672.4405, 14.79277
672.9226, 14.79977
673.4047, 14.79700
673.8868, 14.83845
674.3690, 14.90978
674.8511, 14.96140
675.3332, 14.99717
675.8153, 14.98762
676.2974, 14.88122
676.7795, 14.67174
677.2617, 14.58331
677.7438, 14.64398
678.2259, 14.78298
678.7080, 15.00988
679.1901, 15.34165
679.6722, 15.46560
680.1544, 15.36206
680.6365, 15.17904
681.1186, 14.98522
681.6007, 14.82340
682.0828, 14.82543
682.5649, 15.03297
683.0471, 15.26909
683.5292, 15.43522
684.0113, 15.52330
684.4934, 15.51592
684.9755, 15.36073
685.4576, 15.18427
685.9398, 14.91754
686.4219, 14.67990
686.9040, 14.68124
687.3861, 15.15446
687.8682, 15.37539
688.3503, 15.11762
688.8325, 14.62085
689.3146, 14.55933
689.7967, 14.93962
690.2788, 15.26349
690.7609, 15.28554
691.2430, 15.15765
691.7252, 15.19419
692.2073, 15.34543
692.6894, 15.38478
693.1715, 14.94648
693.6536, 14.53560
694.1357, 14.61690
694.6179, 15.18254
695.1000, 15.55152
695.5821, 15.41534
696.0642, 15.16628
696.5463, 14.95732
697.0284, 14.77317
697.5106, 14.75304
697.9927, 14.95337
698.4748, 15.18651
698.9569, 15.29462
699.4390, 15.29201
699.9211, 15.30089
700.4033, 15.33704
700.8854, 15.33037
701.3675, 15.15311
701.8496, 14.90329
702.3317, 14.72704
702.8138, 14.64999
703.2960, 14.67830
703.7781, 14.99246
704.2602, 15.34602
704.7423, 15.43714
705.2244, 14.83997
705.7065, 14.46784
706.1887, 14.44113
706.6708, 14.63914
707.1529, 14.88657
707.6350, 15.21594
708.1171, 15.38127
708.5992, 15.26457
709.0814, 15.01303
709.5635, 14.93656
710.0456, 15.00461
710.5277, 15.07271
711.0098, 15.06820
711.4919, 15.03331
711.9741, 14.99758
712.4562, 14.96164
712.9383, 14.92546
713.4204, 14.80486
713.9025, 14.76433
714.3846, 14.96215
714.8668, 15.37745
715.3489, 15.51278
715.8310, 15.21422
716.3131, 14.94624
716.7952, 14.98371
717.2773, 15.29802
717.7595, 15.50085
718.2416, 15.59063
718.7237, 15.57055
719.2058, 15.29686
719.6879, 14.96899
720.1700, 14.96958
720.6522, 15.35523
721.1343, 15.70264
721.6164, 15.75822
722.0985, 15.67790
722.5806, 15.58051
723.0627, 15.45584
723.5449, 15.38066
724.0270, 15.36289
724.5091, 15.38884
724.9912, 15.46619
725.4733, 15.61929
725.9554, 15.67038
726.4376, 15.58269
726.9197, 15.45616
727.4018, 15.44009
727.8839, 15.49949
728.3660, 15.52507
728.8481, 15.48684
729.3303, 15.41108
729.8124, 15.21122
730.2945, 15.01713
730.7766, 15.02914
731.2587, 15.65623
731.7408, 16.08670
732.2230, 16.00222
732.7051, 15.63741
733.1872, 15.40454
733.6693, 15.32474
734.1514, 15.32858
734.6335, 15.42406
735.1157, 15.57113
735.5978, 15.67889
736.0799, 15.74757
736.5620, 15.77831
737.0441, 15.76583
737.5262, 15.72044
738.0084, 15.61945
738.4905, 15.48894
738.9726, 15.41759
739.4547, 15.45550
739.9368, 15.54939
740.4189, 15.72259
740.9011, 15.96142
741.3832, 16.06884
741.8653, 15.96667
742.3474, 15.87827
742.8295, 15.92326
743.3116, 16.07226
743.7938, 16.04520
744.2759, 15.83519
744.7580, 15.67288
745.2401, 15.78103
745.7222, 16.01163
746.2043, 16.15165
746.6865, 16.19284
747.1686, 16.17505
747.6507, 16.05434
748.1328, 15.93376
748.6149, 15.89606
749.0970, 15.97839
749.5792, 15.99696
750.0613, 15.88821
750.5434, 15.78884
751.0255, 15.81045
751.5076, 15.97269
751.9897, 15.99559
752.4719, 15.85139
752.9540, 15.70931
753.4361, 15.75977
753.9182, 15.91899
754.4003, 16.03638
754.8824, 15.89326
755.3646, 16.21373
755.8467, 16.40497
756.3288, 16.47392
756.8109, 16.05430
757.2930, 16.26557
757.7751, 16.22400
758.2573, 16.17207
758.7394, 16.47212
759.2215, 16.12357
759.7036, 16.41805
760.1857, 16.45583
760.6678, 16.61110
761.1500, 16.51198
761.6321, 16.20951
762.1142, 16.48454
762.5963, 16.63034
763.0784, 16.65385
763.5605, 16.18880
764.0427, 16.35461
764.5248, 16.26761
765.0069, 16.17025
765.4890, 16.35264
765.9711, 16.41941
766.4532, 15.99762
766.9354, 16.20671
767.4175, 16.16296
767.8996, 16.10885
768.3817, 16.40673
768.8638, 16.05600
769.3459, 16.34829
769.8281, 16.38391
770.3102, 16.53699
770.7923, 16.43570
771.2744, 16.41297
771.7565, 16.64471
772.2386, 16.73555
772.7208, 16.60498
773.2029, 16.76553
773.6850, 16.40592
774.1671, 16.50276
774.6492, 16.79654
775.1313, 16.66582
775.6135, 16.63465
776.0956, 16.42520
776.5777, 16.29121
777.0598, 16.31179
777.5419, 16.42618
778.0240, 16.55736
778.5062, 16.69403
778.9883, 16.80171
779.4704, 16.88301
779.9525, 16.91076
780.4346, 16.83743
780.9167, 16.69813
781.3989, 16.57845
781.8810, 16.46276
782.3631, 16.41444
782.8452, 16.48229
783.3273, 16.61289
783.8094, 16.63109
784.2916, 16.52261
784.7737, 16.45118
785.2558, 16.49430
785.7379, 16.58616
786.2200, 16.59224
786.7021, 16.53913
787.1843, 16.51584
787.6664, 16.59632
788.1485, 16.68834
788.6306, 16.74781
789.1127, 16.77777
789.5948, 16.78950
790.0770, 16.77815
790.5591, 16.75263
791.0412, 16.67773
791.5233, 16.60125
792.0054, 16.77829
792.4875, 17.21633
792.9697, 17.46433
793.4518, 17.16294
793.9339, 16.69316
794.4160, 16.72462
794.8981, 17.12060
795.3802, 17.42621
795.8624, 17.34791
796.3445, 17.20575
796.8266, 17.14349
797.3087, 17.14674
797.7908, 17.11774
798.2729, 17.05412
798.7551, 16.95255
799.2372, 16.77168
799.7193, 16.56801
800.2014, 16.57871
800.6835, 16.78888
801.1656, 16.99333
801.6478, 17.07288
802.1299, 17.10168
802.6120, 17.18353
803.0941, 17.29172
803.5762, 17.34190
804.0583, 17.23943
804.5405, 17.13370
805.0226, 17.07360
805.5047, 17.05527
805.9868, 17.07511
806.4689, 17.15304
806.9510, 17.20536
807.4332, 17.19815
807.9153, 17.14944
808.3974, 17.10194
808.8795, 17.05713
809.3616, 17.02311
809.8438, 16.98381
810.3259, 16.97498
810.8080, 17.06412
811.2901, 17.21323
811.7722, 17.30032
812.2543, 17.23217
812.7365, 17.16455
813.2186, 17.09842
813.7007, 17.06618
814.1828, 17.23752
814.6649, 17.65532
815.1470, 17.94123
815.6292, 17.92377
816.1113, 17.72168
816.5934, 17.51310
817.0755, 17.30203
817.5576, 17.10552
818.0397, 16.86517
818.5219, 16.70832
819.0040, 16.73353
819.4861, 16.89847
819.9682, 17.06737
820.4503, 17.25561
820.9324, 17.40235
821.4146, 17.48159
821.8967, 17.51911
822.3788, 17.59126
822.8609, 17.69267
823.3430, 17.74601
823.8251, 17.71106
824.3073, 17.63001
824.7894, 17.51596
825.2715, 17.39798
825.7536, 17.33395
826.2357, 17.41921
826.7178, 17.47813
827.2000, 17.41287
827.6821, 17.30069
828.1642, 17.30523
828.6463, 17.48618
829.1284, 17.55532
829.6105, 17.41310
830.0927, 17.20201
830.5748, 17.21070
831.0569, 17.37597
831.5390, 17.47340
832.0211, 17.37717
832.5032, 17.27405
832.9854, 17.30117
833.4675, 17.40587
833.9496, 17.50841
834.4317, 17.64269
834.9138, 17.69801
835.3959, 17.62552
835.8781, 17.51009
836.3602, 17.51362
836.8423, 17.63508
837.3244, 17.60067
837.8065, 17.30401
838.2886, 17.02170
838.7708, 17.13865
839.2529, 17.47548
839.7350, 17.74824
840.2171, 17.90546
840.6992, 17.93638
841.1813, 17.67492
841.6635, 17.38039
842.1456, 17.34933
842.6277, 17.72877
843.1098, 17.90072
843.5919, 17.78837
844.0740, 17.58405
844.5562, 17.52465
845.0383, 17.56130
845.5204, 17.53746
846.0025, 17.41818
846.4846, 17.31838
846.9667, 17.32620
847.4489, 17.38994
847.9310, 17.47122
848.4131, 17.59676
848.8952, 17.64396
849.3773, 17.58025
849.8594, 17.48216
850.3416, 17.39120
850.8237, 17.30855
851.3058, 17.28492
851.7879, 17.32298
852.2700, 17.41015
852.7521, 17.64577
853.2343, 17.86383
853.7164, 17.79678
854.1985, 17.40616
854.6806, 17.15576
855.1627, 17.39124
855.6448, 17.62682
856.1270, 17.58963
856.6091, 17.27130
857.0912, 17.11677
857.5733, 17.15416
858.0554, 17.20358
858.5375, 17.13723
859.0197, 17.00578
859.5018, 16.90852
859.9839, 16.84698
860.4660, 16.82187
860.9481, 16.81463
861.4302, 16.86193
861.9124, 17.04183
862.3945, 17.32730
862.8766, 17.45468
863.3587, 17.38421
863.8408, 17.23349
864.3229, 16.99710
864.8051, 16.73952
865.2872, 16.68364
865.7693, 16.80256
866.2514, 16.94302
866.7335, 17.08398
867.2156, 17.16287
867.6978, 17.08143
868.1799, 16.90294
868.6620, 16.77065
869.1441, 16.75399
869.6262, 16.73890
870.1083, 16.70082
870.5905, 16.66365
871.0726, 16.70442
871.5547, 16.81942
872.0368, 16.82686
872.5189, 16.65043
873.0010, 16.43863
873.4832, 16.35540
873.9653, 16.35457
874.4474, 16.36227
874.9295, 16.36520
875.4116, 16.36126
875.8937, 16.32249
876.3759, 16.29496
876.8580, 16.34262
877.3401, 16.49700
877.8222, 16.52800
878.3043, 16.39639
878.7864, 16.24377
879.2686, 16.25146
879.7507, 16.33466
880.2328, 16.33299
880.7149, 16.21694
881.1970, 16.08549
881.6791, 15.95257
882.1613, 15.84979
882.6434, 15.81191
883.1255, 15.85325
883.6076, 15.83912
884.0897, 15.75563
884.5718, 15.66232
885.0540, 15.57042
885.5361, 15.50273
886.0182, 15.58995
886.5003, 15.80440
886.9824, 15.92281
887.4645, 15.67370
887.9467, 15.40709
888.4288, 15.40036
888.9109, 15.62238
889.3930, 15.62408
889.8751, 15.24189
890.3572, 14.97794
890.8394, 15.04401
891.3215, 15.29632
891.8036, 15.30664
892.2857, 15.11890
892.7678, 14.97591
893.2499, 15.07336
893.7321, 15.14846
894.2142, 14.88742
894.6963, 14.48529
895.1784, 14.32235
895.6605, 14.75534
896.1426, 15.00003
896.6248, 14.93144
897.1069, 14.71845
897.5890, 14.61842
898.0711, 14.61655
898.5532, 14.57870
899.0353, 14.48022
899.5175, 14.34069
899.9996, 14.06226
900.4817, 13.80872
900.9638, 13.80365
901.4459, 14.21004
901.9280, 14.49994
902.4102, 14.59406
902.8923, 14.59099
903.3744, 14.54152
903.8565, 14.44405
904.3386, 14.34772
904.8207, 14.25234
905.3029, 14.20432
905.7850, 14.34093
906.2671, 14.48029
906.7492, 14.37032
907.2313, 14.02243
907.7134, 13.76045
908.1956, 13.71731
908.6777, 13.74138
909.1598, 13.80837
909.6419, 13.90105
910.1240, 13.91747
910.6061, 13.85595
911.0883, 13.81894
911.5704, 13.82507
912.0525, 13.90978
912.5346, 14.27689
913.0167, 14.74296
913.4988, 14.91002
913.9810, 14.29219
914.4631, 13.79908
914.9452, 13.66960
915.4273, 13.72017
915.9094, 13.69960
916.3915, 13.60241
916.8737, 13.50081
917.3558, 13.39643
917.8379, 13.32828
918.3200, 13.37105
918.8021, 13.46643
919.2842, 13.52102
919.7664, 13.50072
920.2485, 13.51537
920.7306, 13.64600
921.2127, 13.78220
921.6948, 13.87579
922.1769, 13.93319
922.6591, 13.80859
923.1412, 13.47698
923.6233, 13.20956
924.1054, 13.28929
924.5875, 13.49297
925.0696, 13.47471
925.5518, 13.27104
926.0339, 13.12926
926.5160, 13.22851
926.9981, 13.31674
927.4802, 13.30932
927.9623, 13.23029
928.4445, 13.10999
928.9266, 12.93139
929.4087, 12.95527
929.8908, 13.34698
930.3729, 13.79634
930.8550, 13.87648
931.3372, 13.71429
931.8193, 13.52904
932.3014, 13.34388
932.7835, 13.21305
933.2656, 13.16328
933.7477, 13.16152
934.2299, 13.20966
934.7120, 13.32731
935.1941, 13.24540
935.6762, 12.91995
936.1583, 12.66558
936.6404, 12.91246
937.1226, 13.33623
937.6047, 13.48971
938.0868, 13.33173
938.5689, 13.17103
939.0510, 13.06427
939.5331, 13.02097
940.0153, 13.04282
940.4974, 13.12985
940.9795, 13.33652
941.4616, 13.66825
941.9437, 13.84987
942.4258, 13.67090
942.9080, 13.37208
943.3901, 13.22667
943.8722, 13.18581
944.3543, 13.14466
944.8364, 13.02586
945.3185, 12.97338
945.8007, 13.07805
946.2828, 13.19039
946.7649, 13.04964
947.2470, 12.66681
947.7291, 12.51878
948.2112, 12.70189
948.6934, 12.87467
949.1755, 12.56273
949.6576, 12.15059
950.1397, 12.11137
950.6218, 12.59330
951.1039, 12.90413
951.5861, 12.86067
952.0682, 12.77346
952.5503, 12.80469
953.0324, 12.92675
953.5145, 12.92111
953.9966, 12.80087
954.4788, 12.72472
954.9609, 12.93234
955.4430, 13.08533
955.9251, 12.75476
956.4072, 12.15946
956.8893, 11.89714
957.3715, 12.25148
957.8536, 12.61849
958.3357, 12.97445
958.8178, 13.23103
959.2999, 13.15750
959.7820, 12.83869
960.2642, 12.67738
960.7463, 12.76893
961.2284, 12.90091
961.7105, 12.94497
962.1926, 12.94262
962.6747, 12.92571
963.1569, 12.89340
963.6390, 12.86724
964.1211, 12.84854
964.6032, 12.83181
965.0853, 12.81388
965.5674, 12.79573
966.0496, 12.79094
966.5317, 12.79257
967.0138, 12.76657
967.4959, 12.54538
967.9780, 12.45049
968.4601, 12.85983
968.9423, 13.46335
969.4244, 13.49931
969.9065, 12.78578
970.3886, 12.28745
970.8707, 12.19038
971.3528, 12.28188
971.8350, 12.28720
972.3171, 12.27032
972.7992, 12.36315
973.2813, 12.61845
973.7634, 12.85495
974.2455, 13.07347
974.7277, 13.18482
975.2098, 13.10973
975.6919, 12.84507
976.1740, 12.60101
976.6561, 12.37152
977.1382, 12.29475
977.6204, 12.63786
978.1025, 13.05023
978.5846, 13.08488
979.0667, 12.83459
979.5488, 12.58045
980.0309, 12.30239
980.5131, 12.18660
980.9952, 12.32085
981.4773, 12.56556
981.9594, 12.69521
982.4415, 12.72052
982.9236, 12.72272
983.4058, 12.70823
983.8879, 12.72153
984.3700, 12.83439
984.8521, 12.97064
985.3342, 13.07198
985.8163, 13.13805
986.2985, 13.10186
986.7806, 12.93777
987.2627, 12.72484
987.7448, 12.44043
988.2269, 12.16229
988.7090, 12.17621
989.1912, 12.42617
989.6733, 12.67773
990.1554, 12.86712
990.6375, 12.97279
991.1196, 12.95713
991.6017, 12.85553
992.0839, 12.70088
992.5660, 12.43802
993.0481, 12.40242
993.5302, 12.67733
994.0123, 13.00139
994.4944, 13.09678
994.9766, 13.03756
995.4587, 12.91395
995.9408, 12.73519
996.4229, 12.56044
996.9050, 12.29211
997.3871, 12.17187
997.8693, 12.38350
998.3514, 12.83471
998.8335, 12.90716
999.3156, 12.62416
999.7977, 12.39205
1000.280, 12.40288
1000.762, 12.52743
1001.244, 12.74131
1001.726, 12.96084
1002.208, 13.04162
1002.690, 12.81813
1003.173, 12.69550
1003.655, 12.69879
1004.137, 12.77761
1004.619, 12.93137
1005.101, 13.11814
1005.583, 13.14588
1006.065, 13.01299
1006.547, 12.93181
1007.029, 13.16034
1007.512, 13.35296
1007.994, 13.23605
1008.476, 12.89677
1008.958, 12.71916
1009.440, 12.71494
1009.922, 12.81820
1010.404, 13.05605
1010.886, 13.28987
1011.369, 13.31604
1011.851, 13.20688
1012.333, 13.07686
1012.815, 12.92044
1013.297, 12.82972
1013.779, 12.85802
1014.261, 12.90720
1014.743, 12.90361
1015.225, 12.85196
1015.708, 12.84056
1016.190, 12.86874
1016.672, 12.92463
1017.154, 13.08068
1017.636, 13.18637
1018.118, 13.05938
1018.600, 12.79037
1019.082, 12.68457
1019.565, 12.81711
1020.047, 12.95435
1020.529, 13.07366
1021.011, 13.15024
1021.493, 13.14776
1021.975, 13.07895
1022.457, 12.94205
1022.939, 12.72011
1023.421, 12.58250
1023.904, 12.67045
1024.386, 12.80011
1024.868, 12.88702
1025.350, 12.93181
1025.832, 12.91928
1026.314, 12.85063
1026.796, 12.82140
1027.278, 12.89195
1027.760, 13.00133
1028.243, 13.09936
1028.725, 13.19092
1029.207, 13.28537
1029.689, 13.47678
1030.171, 13.49293
1030.653, 13.26682
1031.135, 12.99991
1031.617, 12.89549
1032.100, 12.90867
1032.582, 12.90141
1033.064, 12.86963
1033.546, 12.86044
1034.028, 12.96730
1034.510, 13.02945
1034.992, 12.90493
1035.474, 12.68910
1035.957, 12.67826
1036.439, 12.88476
1036.921, 13.08044
1037.403, 13.22043
1037.885, 13.30501
1038.367, 13.29132
1038.849, 13.24308
1039.331, 13.24984
1039.813, 13.35456
1040.296, 13.39805
1040.778, 13.39456
1041.260, 13.27959
1041.742, 12.92669
1042.224, 12.46640
1042.706, 12.39642
1043.188, 12.63834
1043.670, 12.88536
1044.152, 12.96989
1044.635, 13.05061
1045.117, 13.26778
1045.599, 13.47131
1046.081, 13.43929
1046.563, 13.12729
1047.045, 12.93344
1047.527, 12.88666
1048.009, 12.91232
1048.492, 12.98896
1048.974, 13.07368
1049.456, 13.11735
1049.938, 13.12104
1050.420, 13.13240
1050.902, 13.18588
1051.384, 13.18425
1051.866, 13.07563
1052.349, 12.94229
1052.831, 12.98430
1053.313, 13.12861
1053.795, 13.13931
1054.277, 12.89610
1054.759, 12.78118
1055.241, 13.17213
1055.723, 13.57107
1056.205, 13.63332
1056.688, 13.36926
1057.170, 13.17569
1057.652, 13.05249
1058.134, 13.05748
1058.616, 13.41181
1059.098, 13.69813
1059.580, 13.36930
1060.062, 12.73187
1060.544, 12.36940
1061.027, 12.48917
1061.509, 12.64496
1061.991, 12.85709
1062.473, 12.99860
1062.955, 12.86843
1063.437, 12.60059
1063.919, 12.50728
1064.401, 12.58411
1064.884, 12.63087
1065.366, 12.53362
1065.848, 12.41769
1066.330, 12.28395
1066.812, 12.18531
1067.294, 12.30986
1067.776, 12.62186
1068.258, 12.70992
1068.740, 12.44224
1069.223, 12.20693
1069.705, 12.40452
1070.187, 12.70129
1070.669, 12.79067
1071.151, 12.64580
1071.633, 12.57538
1072.115, 12.59512
1072.597, 12.60604
1073.079, 12.54186
1073.562, 12.47459
1074.044, 12.54022
1074.526, 12.67705
1075.008, 12.77149
1075.490, 12.76892
1075.972, 12.75850
1076.454, 12.75533
1076.936, 12.73673
1077.419, 12.67554
1077.901, 12.58248
1078.383, 12.48994
1078.865, 12.40477
1079.347, 12.37320
1079.829, 12.52785
1080.311, 12.62328
1080.793, 12.44046
1081.275, 12.17647
1081.758, 12.15891
1082.240, 12.40199
1082.722, 12.66807
1083.204, 12.94678
1083.686, 13.07547
1084.168, 12.80261
1084.650, 12.39726
1085.132, 12.05317
1085.615, 11.80155
1086.097, 11.76477
1086.579, 12.03153
1087.061, 12.23081
1087.543, 12.23263
1088.025, 12.16551
1088.507, 12.28543
1088.989, 12.46809
1089.471, 12.45669
1089.953, 12.10899
1090.436, 11.89514
1090.918, 11.96675
1091.400, 12.13447
1091.882, 12.40243
1092.364, 12.01306
1092.846, 12.23131
1093.328, 12.32030
1093.810, 12.28701
1094.293, 11.76502
1094.775, 11.87403
1095.257, 11.73024
1095.739, 12.15279
1096.221, 12.07137
1096.703, 11.95310
1097.185, 11.97983
1097.667, 12.16040
1098.150, 12.28391
1098.632, 12.07687
1099.114, 11.84636
1099.596, 11.91887
1100.078, 12.18764
1100.560, 12.26918
1101.042, 12.03070
1101.524, 11.95981
1102.006, 12.15386
1102.489, 12.40614
1102.971, 12.52603
1103.453, 12.53129
1103.935, 12.38356
1104.417, 12.09040
1104.899, 11.96050
1105.381, 12.22037
1105.863, 12.41967
1106.345, 12.42038
1106.828, 12.31966
1107.310, 12.35256
1107.792, 12.45826
1108.274, 12.43220
1108.756, 12.19544
1109.238, 11.97415
1109.720, 11.83161
1110.202, 11.79263
1110.685, 11.91460
1111.167, 12.15833
1111.649, 12.20008
1112.131, 12.05843
1112.613, 11.91247
1113.095, 11.81634
1113.577, 11.78175
1114.059, 11.82387
1114.542, 11.93293
1115.024, 12.12054
1115.506, 12.43979
1115.988, 12.54983
1116.470, 12.43729
1116.952, 12.24995
1117.434, 12.03647
1117.916, 11.84128
1118.398, 11.70480
1118.880, 11.62578
1119.363, 11.60642
1119.845, 11.68552
1120.327, 11.74147
1120.809, 11.77388
1121.291, 11.75842
1121.773, 11.62808
1122.255, 11.45285
1122.737, 11.35145
1123.220, 11.32528
1123.702, 11.33362
1124.184, 11.40764
1124.666, 11.45364
1125.148, 11.44748
1125.630, 11.41741
1126.112, 11.37826
1126.594, 11.35465
1127.077, 11.49339
1127.559, 11.82753
1128.041, 11.94773
1128.523, 11.10594
1129.005, 11.40851
1129.487, 11.58185
1129.969, 11.63289
1130.451, 11.19538
1130.933, 11.38874
1131.416, 11.32929
1131.898, 11.25945
1132.380, 11.54160
1132.862, 11.17515
1133.344, 11.45172
1133.826, 11.67072
1134.308, 11.82929
1134.790, 11.89872
1135.272, 11.87794
1135.755, 11.78785
1136.237, 11.59356
1136.719, 11.41038
1137.201, 11.33331
1137.683, 11.33945
1138.165, 11.43133
1138.647, 11.66506
1139.129, 11.67277
1139.612, 11.41298
1140.094, 11.20543
1140.576, 11.32105
1141.058, 11.54426
1141.540, 11.61069
1142.022, 11.57379
1142.504, 11.54959
1142.986, 11.62306
1143.469, 11.56915
1143.951, 11.33767
1144.433, 11.11432
1144.915, 11.05252
1145.397, 11.11051
1145.879, 11.24830
1146.361, 11.44199
1146.843, 11.60595
1147.325, 11.75171
1147.807, 11.80487
1148.290, 11.74997
1148.772, 11.61408
1149.254, 11.33839
1149.736, 11.02707
1150.218, 10.98836
1150.700, 11.22070
1151.182, 11.42756
1151.664, 11.53404
1152.147, 11.50891
1152.629, 11.27829
1153.111, 10.99450
1153.593, 10.96565
1154.075, 11.13682
1154.557, 11.30222
1155.039, 11.43308
1155.521, 11.50322
1156.004, 11.44860
1156.486, 11.38466
1156.968, 11.39478
1157.450, 11.42535
1157.932, 11.23665
1158.414, 10.88008
1158.896, 10.74361
1159.378, 10.95459
1159.860, 11.23645
1160.343, 11.49271
1160.825, 11.67224
1161.307, 11.74010
1161.789, 11.70628
1162.271, 11.61741
1162.753, 11.47609
1163.235, 11.34442
1163.717, 11.24812
1164.199, 11.15776
1164.682, 11.01980
1165.164, 10.89995
1165.646, 10.87528
1166.128, 10.95055
1166.610, 10.98901
1167.092, 10.98756
1167.574, 11.03032
1168.056, 11.22160
1168.539, 11.38012
1169.021, 11.20249
1169.503, 10.95659
1169.985, 11.08144
1170.467, 11.75400
1170.949, 11.99918
1171.431, 11.77674
1171.913, 11.47658
1172.396, 11.32674
1172.878, 11.24573
1173.360, 11.10597
1173.842, 10.98242
1174.324, 11.03892
1174.806, 11.37372
1175.288, 11.64882
1175.770, 11.86897
1176.252, 11.95797
1176.734, 11.77609
1177.217, 11.48810
1177.699, 11.23976
1178.181, 11.05705
1178.663, 11.02485
1179.145, 11.24018
1179.627, 11.38208
1180.109, 11.42311
1180.591, 11.40751
1181.074, 11.37027
1181.556, 11.30698
1182.038, 11.17910
1182.520, 11.01084
1183.002, 10.92169
1183.484, 10.95579
1183.966, 11.01764
1184.448, 11.11255
1184.931, 11.18215
1185.413, 11.11917
1185.895, 11.00780
1186.377, 11.01006
1186.859, 11.11542
1187.341, 11.13753
1187.823, 10.95681
1188.305, 10.86823
1188.787, 10.94739
1189.270, 11.08713
1189.752, 11.19095
1190.234, 11.22966
1190.716, 11.07639
1191.198, 10.73341
1191.680, 10.63649
1192.162, 11.06828
1192.644, 11.37765
1193.126, 11.38101
1193.609, 11.25245
1194.091, 11.24657
1194.573, 11.32241
1195.055, 11.43501
1195.537, 11.58373
1196.019, 11.61917
1196.501, 11.45169
1196.983, 11.27111
1197.466, 11.12137
1197.948, 11.00509
1198.430, 10.92184
1198.912, 10.87416
1199.394, 10.86742
1199.876, 10.90293
1200.358, 10.98204
1200.840, 11.14331
1201.323, 11.28056
1201.805, 11.36527
1202.287, 11.38979
1202.769, 11.29329
1203.251, 11.13362
1203.733, 11.02650
1204.215, 10.98956
1204.697, 11.05281
1205.179, 11.29844
1205.661, 11.48452
1206.144, 11.47583
1206.626, 11.37186
1207.108, 11.44574
1207.590, 11.59009
1208.072, 11.54179
1208.554, 11.13082
1209.036, 10.87439
1209.518, 10.87723
1210.001, 10.97881
1210.483, 11.14398
1210.965, 11.31287
1211.447, 11.30482
1211.929, 11.19014
1212.411, 11.12618
1212.893, 11.18462
1213.375, 11.22554
1213.858, 11.24188
1214.340, 11.21499
1214.822, 11.06788
1215.304, 10.92150
1215.786, 11.20550
1216.268, 11.69792
1216.750, 11.87435
1217.232, 11.34790
1217.714, 11.00546
1218.197, 10.95326
1218.679, 11.00402
1219.161, 11.06369
1219.643, 11.12562
1220.125, 11.20275
1220.607, 11.26854
1221.089, 11.25705
1221.571, 11.03152
1222.053, 10.97226
1222.536, 11.16751
1223.018, 11.34171
1223.500, 11.26228
1223.982, 11.06873
1224.464, 11.02393
1224.946, 11.08646
1225.428, 11.16328
1225.910, 11.30829
1226.393, 11.29673
1226.875, 11.05824
1227.357, 10.87100
1227.839, 11.03643
1228.321, 11.32196
1228.803, 11.25464
1229.285, 11.01253
1229.767, 11.02129
1230.250, 11.73329
1230.732, 11.92900
1231.214, 11.46657
1231.696, 10.98763
1232.178, 11.06502
1232.660, 11.36313
1233.142, 11.44098
1233.624, 11.37231
1234.106, 11.32996
1234.589, 11.30631
1235.071, 11.42618
1235.553, 11.72888
1236.035, 11.97794
1236.517, 11.92701
1236.999, 11.77403
1237.481, 11.76747
1237.963, 11.83014
1238.445, 11.75963
1238.928, 11.45649
1239.410, 11.34347
1239.892, 11.45013
1240.374, 11.59986
1240.856, 11.70495
1241.338, 11.74795
1241.820, 11.66468
1242.302, 11.52168
1242.785, 11.47075
1243.267, 11.55492
1243.749, 11.49202
1244.231, 11.26298
1244.713, 11.09360
1245.195, 11.22148
1245.677, 11.39656
1246.159, 11.43951
1246.641, 11.39486
1247.124, 11.35114
1247.606, 11.30782
1248.088, 11.26501
1248.570, 11.22380
1249.052, 11.21648
1249.534, 11.25994
1250.016, 11.34913
1250.498, 11.55074
1250.980, 11.75303
1251.463, 11.80863
1251.945, 11.71817
1252.427, 11.54371
1252.909, 11.30253
1253.391, 11.15394
1253.873, 11.29765
1254.355, 11.43522
1254.837, 11.40465
1255.320, 11.33085
1255.802, 11.37441
1256.284, 11.50565
1256.766, 11.52196
1257.248, 11.42965
1257.730, 11.33551
1258.212, 11.29156
1258.694, 11.25308
1259.177, 11.17051
1259.659, 11.13871
1260.141, 11.30325
1260.623, 11.59540
1261.105, 11.82707
1261.587, 11.97515
1262.069, 11.97352
1262.551, 11.59655
1263.033, 11.37383
1263.516, 11.42788
1263.998, 11.52143
1264.480, 11.34393
1264.962, 11.07324
1265.444, 11.13567
1265.926, 11.44553
1266.408, 11.65287
1266.890, 11.58216
1267.372, 11.56335
1267.855, 11.62697
1268.337, 11.70033
1268.819, 11.72273
1269.301, 11.71566
1269.783, 11.69511
1270.265, 11.67091
1270.747, 11.67881
1271.229, 11.77617
1271.712, 11.69436
1272.194, 11.38935
1272.676, 11.14977
1273.158, 11.30562
1273.640, 11.52920
1274.122, 11.45336
1274.604, 11.24628
1275.086, 11.26226
1275.568, 11.56422
1276.051, 11.69428
1276.533, 11.63962
1277.015, 11.56347
1277.497, 11.60647
1277.979, 11.62585
1278.461, 11.48956
1278.943, 11.30731
1279.425, 11.19533
1279.907, 11.15370
1280.390, 11.28885
1280.872, 11.57053
1281.354, 11.74453
1281.836, 11.51981
1282.318, 11.36378
1282.800, 11.51499
1283.282, 11.71781
1283.764, 11.74794
1284.247, 11.64123
1284.729, 11.53071
1285.211, 11.43918
1285.693, 11.45001
1286.175, 11.76945
1286.657, 11.91308
1287.139, 11.74340
1287.621, 11.57729
1288.104, 11.74808
1288.586, 12.04197
1289.068, 11.94666
1289.550, 11.61806
1290.032, 11.41896
1290.514, 11.55244
1290.996, 11.60981
1291.478, 11.57426
1291.960, 11.53245
1292.443, 11.53595
1292.925, 11.56667
1293.407, 11.63012
1293.889, 11.69427
1294.371, 11.69582
1294.853, 11.61697
1295.335, 11.57463
1295.817, 11.56872
1296.299, 11.59292
1296.782, 11.68023
1297.264, 11.73801
1297.746, 11.62033
1298.228, 11.50125
1298.710, 11.59524
1299.192, 11.87729
1299.674, 11.85644
1300.156, 11.58432
1300.639, 11.39420
1301.121, 11.44678
1301.603, 11.53866
1302.085, 11.62033
1302.567, 11.67213
1303.049, 11.68449
1303.531, 11.65525
##END=



