##NAMES=Guanacoite
##RRUFFID=R060811
##IDEAL CHEMISTRY=Cu^2+^_2_Mg_3_(As^5+^O_4_)_2_(OH)_4_&#183;4H_2_O
##LOCALITY=Guanaco mine, Tal Tal, Chile
##OWNER=RRUFF
##SOURCE=Bob Jenkins
##DESCRIPTION=Tufts of light blue acicular crystals
##STATUS=The identification of this mineral has been confirmed only by single crystal X-ray diffraction.
##URL=rruff.info/R060811
115.255, 1009.348
115.737, 1052.173
116.219, 1077.481
116.702, 1089.665
117.184, 1103.617
117.666, 1127.663
118.148, 1154.967
118.630, 1179.644
119.112, 1193.837
119.594, 1210.157
120.076, 1238.135
120.559, 1277.002
121.041, 1313.941
121.523, 1336.674
122.005, 1353.476
122.487, 1376.647
122.969, 1417.109
123.451, 1463.580
123.933, 1506.943
124.415, 1547.292
124.898, 1580.847
125.380, 1601.333
125.862, 1611.534
126.344, 1619.756
126.826, 1628.737
127.308, 1639.069
127.790, 1651.334
128.272, 1664.769
128.755, 1681.671
129.237, 1706.099
129.719, 1737.716
130.201, 1772.525
130.683, 1808.046
131.165, 1844.203
131.647, 1882.724
132.129, 1924.631
132.611, 1968.191
133.094, 2010.737
133.576, 2053.108
134.058, 2088.440
134.540, 2109.834
135.022, 2117.348
135.504, 2113.901
135.986, 2095.833
136.468, 2065.223
136.951, 2043.620
137.433, 2031.918
137.915, 2027.562
138.397, 2026.273
138.879, 2027.043
139.361, 2035.203
139.843, 2055.672
140.325, 2092.316
140.807, 2119.097
141.290, 2129.800
141.772, 2134.867
142.254, 2159.409
142.736, 2211.639
143.218, 2268.458
143.700, 2320.203
144.182, 2365.998
144.664, 2407.252
145.146, 2441.914
145.629, 2471.448
146.111, 2502.319
146.593, 2535.186
147.075, 2568.660
147.557, 2600.878
148.039, 2629.318
148.521, 2660.407
149.003, 2694.632
149.486, 2731.805
149.968, 2772.965
150.450, 2825.891
150.932, 2879.621
151.414, 2924.655
151.896, 2957.014
152.378, 2986.153
152.860, 3015.016
153.342, 3045.534
153.824, 3068.253
154.307, 3090.992
154.789, 3103.539
155.271, 3092.879
155.753, 3051.593
156.235, 2991.626
156.717, 2914.093
157.199, 2811.654
157.682, 2709.347
158.164, 2606.109
158.646, 2506.589
159.128, 2419.411
159.610, 2343.137
160.092, 2283.173
160.574, 2244.659
161.056, 2235.984
161.538, 2235.829
162.020, 2235.932
162.503, 2238.204
162.985, 2248.957
163.467, 2273.335
163.949, 2305.820
164.431, 2342.189
164.913, 2380.687
165.395, 2423.515
165.877, 2472.886
166.360, 2528.259
166.842, 2585.961
167.324, 2642.314
167.806, 2700.406
168.288, 2764.404
168.770, 2841.869
169.252, 2921.583
169.734, 2997.042
170.217, 3067.621
170.699, 3133.385
171.181, 3196.732
171.663, 3254.686
172.145, 3303.548
172.627, 3336.648
173.109, 3362.304
173.591, 3389.843
174.073, 3420.040
174.555, 3448.228
175.038, 3469.007
175.520, 3484.280
176.002, 3498.164
176.484, 3522.153
176.966, 3543.206
177.448, 3541.452
177.930, 3512.891
178.413, 3469.388
178.895, 3420.575
179.377, 3366.284
179.859, 3308.791
180.341, 3245.337
180.823, 3178.698
181.305, 3116.004
181.787, 3057.838
182.269, 3003.315
182.751, 2950.243
183.234, 2899.078
183.716, 2849.516
184.198, 2799.667
184.680, 2751.290
185.162, 2711.213
185.644, 2682.500
186.126, 2659.994
186.608, 2630.773
187.091, 2595.019
187.573, 2563.966
188.055, 2551.586
188.537, 2554.624
189.019, 2552.464
189.501, 2537.694
189.983, 2515.948
190.465, 2500.729
190.947, 2491.561
191.430, 2493.201
191.912, 2518.295
192.394, 2564.522
192.876, 2600.337
193.358, 2613.420
193.840, 2608.906
194.322, 2608.860
194.804, 2613.692
195.286, 2621.608
195.769, 2631.979
196.251, 2645.208
196.733, 2656.060
197.215, 2662.830
197.697, 2665.742
198.179, 2664.966
198.661, 2658.045
199.143, 2653.495
199.626, 2663.055
200.108, 2687.603
200.590, 2720.853
201.072, 2759.280
201.554, 2802.629
202.036, 2861.322
202.518, 2937.318
203.000, 3025.450
203.482, 3118.946
203.965, 3218.712
204.447, 3319.797
204.929, 3417.379
205.411, 3510.361
205.893, 3611.752
206.375, 3723.390
206.857, 3841.420
207.339, 3959.422
207.822, 4078.767
208.304, 4194.239
208.786, 4299.692
209.268, 4392.055
209.750, 4494.573
210.232, 4614.711
210.714, 4741.546
211.196, 4851.661
211.678, 4946.728
212.161, 5022.199
212.643, 5077.166
213.125, 5115.739
213.607, 5119.393
214.089, 5080.388
214.571, 5007.624
215.053, 4928.030
215.535, 4835.943
216.018, 4748.894
216.500, 4679.680
216.982, 4637.601
217.464, 4586.980
217.946, 4517.067
218.428, 4436.196
218.910, 4382.393
219.392, 4366.221
219.874, 4360.540
220.357, 4348.115
220.839, 4328.279
221.321, 4303.817
221.803, 4274.872
222.285, 4241.749
222.767, 4205.078
223.249, 4169.867
223.731, 4124.943
224.214, 4063.418
224.696, 3984.496
225.178, 3888.156
225.660, 3765.823
226.142, 3621.418
226.624, 3492.159
227.106, 3386.775
227.588, 3287.300
228.070, 3180.516
228.553, 3060.418
229.035, 2941.347
229.517, 2821.024
229.999, 2698.946
230.481, 2597.830
230.963, 2524.379
231.445, 2464.566
231.927, 2408.440
232.410, 2360.161
232.892, 2307.103
233.374, 2243.165
233.856, 2168.181
234.338, 2109.026
234.820, 2070.593
235.302, 2042.567
235.784, 2014.782
236.266, 1984.240
236.749, 1959.613
237.231, 1943.785
237.713, 1936.944
238.195, 1932.233
238.677, 1931.795
239.159, 1931.523
239.641, 1926.334
240.123, 1909.954
240.605, 1898.548
241.088, 1896.437
241.570, 1932.295
242.052, 1958.937
242.534, 1976.857
243.016, 1959.937
243.498, 1988.007
243.980, 1998.046
244.462, 2007.345
244.945, 2041.747
245.427, 2029.892
245.909, 2061.437
246.391, 2053.763
246.873, 2063.166
247.355, 2072.258
247.837, 2079.616
248.319, 2089.217
248.801, 2102.780
249.284, 2120.584
249.766, 2137.325
250.248, 2155.074
250.730, 2170.009
251.212, 2176.209
251.694, 2166.306
252.176, 2162.248
252.658, 2170.715
253.141, 2193.024
253.623, 2212.109
254.105, 2222.543
254.587, 2235.071
255.069, 2263.932
255.551, 2316.638
256.033, 2370.637
256.515, 2420.600
256.997, 2466.322
257.480, 2513.187
257.962, 2559.546
258.444, 2609.697
258.926, 2668.130
259.408, 2735.915
259.890, 2810.333
260.372, 2889.453
260.854, 2974.010
261.336, 3067.911
261.819, 3176.166
262.301, 3289.733
262.783, 3393.279
263.265, 3478.549
263.747, 3577.636
264.229, 3703.325
264.711, 3855.806
265.193, 4004.138
265.676, 4144.616
266.158, 4281.541
266.640, 4421.198
267.122, 4563.363
267.604, 4705.425
268.086, 4845.626
268.568, 4985.218
269.050, 5123.380
269.532, 5259.844
270.015, 5392.718
270.497, 5517.674
270.979, 5634.400
271.461, 5743.885
271.943, 5847.193
272.425, 5943.662
272.907, 6025.862
273.389, 6092.871
273.871, 6144.749
274.354, 6184.540
274.836, 6215.738
275.318, 6216.758
275.800, 6180.208
276.282, 6107.610
276.764, 6014.900
277.246, 5900.922
277.728, 5765.797
278.211, 5602.153
278.693, 5407.143
279.175, 5209.091
279.657, 5008.147
280.139, 4809.083
280.621, 4642.416
281.103, 4511.439
281.585, 4399.686
282.068, 4286.970
282.550, 4173.382
283.032, 4075.305
283.514, 3998.674
283.996, 3940.238
284.478, 3886.185
284.960, 3835.708
285.442, 3794.321
285.924, 3768.693
286.406, 3758.066
286.889, 3757.507
287.371, 3769.261
287.853, 3788.467
288.335, 3800.423
288.817, 3804.594
289.299, 3808.555
289.781, 3819.756
290.263, 3836.875
290.746, 3853.915
291.228, 3873.586
291.710, 3888.607
292.192, 3875.970
292.674, 3836.039
293.156, 3798.816
293.638, 3790.469
294.120, 3805.067
294.603, 3821.472
295.085, 3838.173
295.567, 3851.501
296.049, 3850.602
296.531, 3837.182
297.013, 3828.114
297.495, 3834.797
297.977, 3854.938
298.459, 3883.646
298.942, 3920.219
299.424, 3964.259
299.906, 4017.486
300.388, 4078.358
300.870, 4142.017
301.352, 4197.198
301.834, 4253.749
302.316, 4326.714
302.798, 4420.407
303.281, 4526.946
303.763, 4648.720
304.245, 4779.148
304.727, 4901.322
305.209, 4990.517
305.691, 5070.333
306.173, 5169.194
306.655, 5293.323
307.138, 5430.344
307.620, 5576.895
308.102, 5729.874
308.584, 5878.729
309.066, 6014.159
309.548, 6145.947
310.030, 6285.875
310.512, 6437.207
310.994, 6581.268
311.477, 6692.357
311.959, 6787.914
312.441, 6898.010
312.923, 7066.972
313.405, 7231.909
313.887, 7341.235
314.369, 7388.229
314.851, 7435.377
315.333, 7534.481
315.816, 7645.991
316.298, 7720.231
316.780, 7725.418
317.262, 7703.160
317.744, 7678.769
318.226, 7654.140
318.708, 7591.880
319.190, 7472.618
319.672, 7312.531
320.155, 7126.812
320.637, 6903.260
321.119, 6669.065
321.601, 6430.612
322.083, 6187.379
322.565, 5946.611
323.047, 5693.763
323.530, 5452.887
324.012, 5240.703
324.494, 5079.142
324.976, 4924.820
325.458, 4765.379
325.940, 4605.405
326.422, 4468.286
326.904, 4372.483
327.386, 4288.205
327.868, 4199.989
328.351, 4085.844
328.833, 3994.613
329.315, 3934.871
329.797, 3899.582
330.279, 3862.886
330.761, 3824.767
331.243, 3785.189
331.725, 3743.911
332.208, 3696.498
332.690, 3656.110
333.172, 3624.867
333.654, 3599.980
334.136, 3576.068
334.618, 3555.862
335.100, 3531.445
335.582, 3496.101
336.065, 3443.001
336.547, 3411.240
337.029, 3408.292
337.511, 3418.527
337.993, 3415.853
338.475, 3394.794
338.957, 3379.253
339.439, 3377.164
339.921, 3388.523
340.404, 3402.347
340.886, 3417.210
341.368, 3438.191
341.850, 3472.886
342.332, 3521.859
342.814, 3573.456
343.296, 3621.658
343.778, 3670.147
344.260, 3733.273
344.743, 3812.389
345.225, 3901.932
345.707, 4003.346
346.189, 4114.245
346.671, 4213.373
347.153, 4290.616
347.635, 4360.310
348.117, 4451.171
348.599, 4563.606
349.082, 4690.205
349.564, 4829.575
350.046, 4978.999
350.528, 5111.230
351.010, 5184.565
351.492, 5320.683
351.974, 5446.917
352.457, 5573.173
352.939, 5699.397
353.421, 5825.620
353.903, 5951.852
354.385, 6078.076
354.867, 6204.304
355.349, 6230.300
355.831, 6262.680
356.313, 6299.453
356.796, 6337.075
357.278, 6377.396
357.760, 6415.354
358.242, 6444.001
358.724, 6462.055
359.206, 6486.360
359.688, 6529.073
360.170, 6582.397
360.652, 6637.072
361.135, 6680.677
361.617, 6733.160
362.099, 6804.139
362.581, 6893.128
363.063, 6991.583
363.545, 7093.432
364.027, 7205.308
364.509, 7332.118
364.991, 7480.018
365.474, 7637.924
365.956, 7814.005
366.438, 8002.458
366.920, 8169.309
367.402, 8285.122
367.884, 8399.845
368.366, 8536.922
368.848, 8718.559
369.331, 8891.141
369.813, 9043.989
370.295, 9187.636
370.777, 9342.782
371.259, 9532.075
371.741, 9703.795
372.223, 9840.396
372.705, 9934.540
373.188, 10022.040
373.670, 10092.910
374.152, 10164.840
374.634, 10267.270
375.116, 10415.160
375.598, 10546.320
376.080, 10640.140
376.562, 10698.870
377.044, 10771.920
377.526, 10866.290
378.009, 10954.990
378.491, 11016.610
378.973, 11050.680
379.455, 11059.560
379.937, 11036.550
380.419, 10994.610
380.901, 10971.230
381.384, 10967.340
381.866, 10962.800
382.348, 10941.740
382.830, 10908.040
383.312, 10877.210
383.794, 10852.680
384.276, 10827.450
384.758, 10783.820
385.240, 10727.420
385.723, 10683.750
386.205, 10670.010
386.687, 10675.540
387.169, 10676.840
387.651, 10669.460
388.133, 10690.130
388.615, 10798.350
389.097, 10953.380
389.579, 11082.440
390.062, 11143.880
390.544, 11180.060
391.026, 11127.175
391.508, 11074.285
391.990, 11021.399
392.472, 10968.510
392.954, 10915.623
393.436, 10862.733
393.918, 10809.837
394.401, 10756.947
394.883, 10704.060
395.365, 10618.390
395.847, 10528.180
396.329, 10425.580
396.811, 10298.360
397.293, 10136.450
397.775, 9923.234
398.258, 9712.951
398.740, 9512.545
399.222, 9317.135
399.704, 9118.839
400.186, 8913.188
400.668, 8709.705
401.150, 8508.148
401.632, 8306.502
402.114, 8121.389
402.597, 7958.300
403.079, 7804.361
403.561, 7646.499
404.043, 7478.335
404.525, 7324.276
405.007, 7189.228
405.489, 7070.011
405.971, 6958.037
406.453, 6851.042
406.936, 6754.705
407.418, 6671.469
407.900, 6601.023
408.382, 6550.808
408.864, 6526.677
409.346, 6510.665
409.828, 6468.572
410.310, 6402.045
410.793, 6341.120
411.275, 6299.778
411.757, 6274.251
412.239, 6255.649
412.721, 6243.823
413.203, 6237.688
413.685, 6245.420
414.167, 6257.822
414.650, 6254.390
415.132, 6217.739
415.614, 6171.934
416.096, 6141.028
416.578, 6123.012
417.060, 6108.257
417.542, 6099.942
418.024, 6087.659
418.506, 6060.779
418.988, 6011.724
419.471, 5959.686
419.953, 5910.020
420.435, 5863.958
420.917, 5822.613
421.399, 5787.185
421.881, 5756.609
422.363, 5729.312
422.845, 5704.247
423.328, 5689.152
423.810, 5683.234
424.292, 5688.979
424.774, 5709.106
425.256, 5747.556
425.738, 5795.590
426.220, 5851.577
426.702, 5915.682
427.185, 5993.249
427.667, 6090.953
428.149, 6192.327
428.631, 6278.213
429.113, 6323.670
429.595, 6434.684
430.077, 6607.093
430.559, 6762.411
431.041, 6917.731
431.524, 7073.073
432.006, 7228.394
432.488, 7383.705
432.970, 7539.026
433.452, 7694.337
433.934, 7849.659
434.416, 8004.964
434.898, 8100.267
435.380, 8250.195
435.863, 8386.636
436.345, 8487.086
436.827, 8571.146
437.309, 8673.158
437.791, 8788.148
438.273, 8886.661
438.755, 8944.992
439.237, 8977.810
439.720, 9004.234
440.202, 9029.301
440.684, 9038.384
441.166, 9023.327
441.648, 8984.949
442.130, 8924.539
442.612, 8832.309
443.094, 8726.490
443.576, 8622.866
444.059, 8521.243
444.541, 8391.055
445.023, 8205.104
445.505, 7998.766
445.987, 7795.036
446.469, 7600.907
446.951, 7408.276
447.433, 7218.935
447.915, 7030.915
448.398, 6836.491
448.880, 6626.208
449.362, 6424.320
449.844, 6238.031
450.326, 6070.985
450.808, 5908.820
451.290, 5748.522
451.772, 5596.726
452.254, 5461.309
452.737, 5344.381
453.219, 5228.171
453.701, 5105.818
454.183, 4981.541
454.665, 4877.166
455.147, 4792.701
455.629, 4715.933
456.112, 4636.933
456.594, 4557.902
457.076, 4483.238
457.558, 4414.648
458.040, 4351.607
458.522, 4293.716
459.004, 4241.599
459.486, 4198.783
459.968, 4175.181
460.451, 4156.170
460.933, 4124.883
461.415, 4081.753
461.897, 4040.034
462.379, 4002.460
462.861, 3972.209
463.343, 3952.749
463.825, 3957.879
464.307, 3956.500
464.790, 3926.945
465.272, 3882.215
465.754, 3855.897
466.236, 3873.380
466.718, 3893.985
467.200, 3899.868
467.682, 3881.857
468.164, 3880.805
468.647, 3906.889
469.129, 3942.938
469.611, 3969.897
470.093, 3977.646
470.575, 3999.340
471.057, 4041.917
471.539, 4102.171
472.021, 4166.349
472.503, 4233.334
472.986, 4308.452
473.468, 4397.741
473.950, 4500.506
474.432, 4593.460
474.914, 4671.176
475.396, 4754.696
475.878, 4872.244
476.360, 5020.270
476.842, 5183.392
477.325, 5361.672
477.807, 5546.101
478.289, 5715.351
478.771, 5873.131
479.253, 6047.870
479.735, 6261.294
480.217, 6500.993
480.699, 6755.469
481.181, 7021.204
481.664, 7297.784
482.146, 7584.327
482.628, 7879.999
483.110, 8188.542
483.592, 8521.244
484.074, 8856.327
484.556, 9188.072
485.039, 9509.862
485.521, 9833.255
486.003, 10169.510
486.485, 10499.510
486.967, 10812.600
487.449, 11102.000
487.931, 11382.110
488.413, 11661.000
488.895, 11928.150
489.378, 12161.580
489.860, 12361.060
490.342, 12537.110
490.824, 12706.830
491.306, 12865.810
491.788, 12942.720
492.270, 12934.110
492.752, 12866.880
493.234, 12774.720
493.717, 12649.240
494.199, 12444.550
494.681, 12135.210
495.163, 11772.040
495.645, 11410.520
496.127, 11048.200
496.609, 10671.590
497.091, 10264.830
497.573, 9847.273
498.056, 9430.157
498.538, 9018.010
499.020, 8607.305
499.502, 8191.847
499.984, 7782.398
500.466, 7392.631
500.948, 7032.761
501.430, 6690.764
501.913, 6364.806
502.395, 6058.042
502.877, 5774.249
503.359, 5528.767
503.841, 5294.434
504.323, 5059.099
504.805, 4823.455
505.287, 4600.323
505.770, 4389.732
506.252, 4191.660
506.734, 4007.176
507.216, 3834.790
507.698, 3686.490
508.180, 3570.264
508.662, 3473.532
509.144, 3363.989
509.626, 3241.796
510.108, 3123.175
510.591, 3016.797
511.073, 2920.826
511.555, 2831.065
512.037, 2747.099
512.519, 2669.119
513.001, 2596.013
513.483, 2528.306
513.966, 2466.738
514.448, 2411.054
514.930, 2362.154
515.412, 2327.344
515.894, 2300.342
516.376, 2264.648
516.858, 2205.647
517.340, 2143.355
517.822, 2085.110
518.305, 2030.444
518.787, 1985.622
519.269, 1960.333
519.751, 1939.852
520.233, 1912.353
520.715, 1875.377
521.197, 1836.832
521.679, 1795.607
522.161, 1754.008
522.644, 1719.221
523.126, 1693.113
523.608, 1667.737
524.090, 1638.200
524.572, 1605.599
525.054, 1580.393
525.536, 1563.156
526.018, 1547.367
526.500, 1526.677
526.983, 1502.437
527.465, 1477.892
527.947, 1453.422
528.429, 1429.412
528.911, 1401.967
529.393, 1374.573
529.875, 1355.443
530.357, 1359.204
530.839, 1364.416
531.322, 1355.980
531.804, 1332.908
532.286, 1309.126
532.768, 1285.563
533.250, 1265.292
533.732, 1250.831
534.214, 1244.624
534.696, 1241.503
535.179, 1247.190
535.661, 1253.994
536.143, 1245.785
536.625, 1213.720
537.107, 1185.806
537.589, 1170.817
538.071, 1167.644
538.553, 1166.373
539.036, 1168.253
539.518, 1166.290
540.000, 1148.871
540.482, 1120.567
540.964, 1109.341
541.446, 1121.569
541.928, 1138.664
542.410, 1137.069
542.892, 1122.236
543.375, 1107.544
543.857, 1098.525
544.339, 1092.443
544.821, 1087.857
545.303, 1084.539
545.785, 1081.563
546.267, 1081.840
546.749, 1079.906
547.231, 1070.452
547.714, 1047.468
548.196, 1033.235
548.678, 1038.819
549.160, 1050.739
549.642, 1054.466
550.124, 1044.202
550.606, 1035.853
551.088, 1032.287
551.570, 1031.966
552.053, 1028.770
552.535, 1021.602
553.017, 1016.050
553.499, 1017.243
553.981, 1023.783
554.463, 1021.477
554.945, 1009.412
555.427, 996.078
555.909, 991.158
556.392, 991.489
556.874, 990.044
557.356, 984.810
557.838, 978.056
558.320, 969.370
558.802, 960.704
559.284, 956.524
559.766, 962.872
560.249, 970.520
560.731, 976.068
561.213, 979.277
561.695, 978.398
562.177, 968.146
562.659, 957.360
563.141, 951.330
563.623, 953.568
564.106, 953.152
564.588, 947.394
565.070, 941.312
565.552, 944.446
566.034, 960.309
566.516, 967.287
566.998, 956.574
567.480, 935.503
567.963, 926.492
568.445, 929.217
568.927, 934.852
569.409, 939.781
569.891, 943.278
570.373, 943.179
570.855, 939.093
571.337, 935.349
571.819, 935.394
572.302, 937.619
572.784, 940.343
573.266, 945.468
573.748, 947.623
574.230, 943.072
574.712, 934.222
575.194, 926.417
575.676, 918.383
576.158, 913.931
576.641, 915.166
577.123, 922.048
577.605, 926.663
578.087, 928.083
578.569, 928.970
579.051, 931.785
579.533, 936.849
580.015, 937.902
580.497, 933.767
580.980, 928.149
581.462, 927.361
581.944, 929.802
582.426, 927.688
582.908, 913.601
583.390, 899.819
583.872, 905.175
584.354, 924.469
584.836, 939.661
585.319, 939.104
585.801, 932.953
586.283, 926.834
586.765, 921.075
587.247, 917.635
587.729, 919.545
588.211, 922.333
588.693, 922.580
589.176, 916.580
589.658, 914.047
590.140, 915.935
590.622, 920.779
591.104, 926.501
591.586, 933.501
592.068, 939.838
592.550, 945.658
593.032, 950.109
593.515, 949.250
593.997, 943.188
594.479, 937.227
594.961, 935.945
595.443, 936.697
595.925, 934.317
596.407, 928.263
596.890, 923.200
597.372, 923.857
597.854, 926.773
598.336, 927.871
598.818, 921.984
599.300, 920.497
599.782, 930.602
600.264, 946.827
600.746, 958.655
601.229, 965.759
601.711, 967.519
602.193, 960.935
602.675, 947.841
603.157, 942.891
603.639, 948.716
604.121, 954.961
604.603, 953.288
605.085, 944.813
605.568, 946.405
606.050, 959.883
606.532, 974.101
607.014, 975.052
607.496, 968.275
607.978, 966.240
608.460, 974.664
608.942, 983.508
609.424, 984.346
609.907, 979.830
610.389, 975.153
610.871, 971.158
611.353, 968.261
611.835, 967.954
612.317, 969.855
612.799, 968.104
613.281, 957.976
613.763, 949.341
614.246, 946.194
614.728, 948.673
615.210, 958.040
615.692, 977.989
616.174, 995.622
616.656, 993.288
617.138, 973.414
617.620, 960.090
618.103, 957.934
618.585, 962.426
619.067, 970.425
619.549, 980.323
620.031, 987.950
620.513, 992.153
620.995, 992.872
621.477, 988.383
621.959, 979.740
622.442, 972.105
622.924, 967.638
623.406, 964.213
623.888, 960.413
624.370, 955.430
624.852, 953.854
625.334, 957.904
625.816, 962.832
626.299, 964.664
626.781, 962.892
627.263, 961.139
627.745, 959.615
628.227, 958.416
628.709, 958.572
629.191, 959.579
629.673, 957.964
630.156, 949.285
630.638, 941.125
631.120, 946.438
631.602, 961.063
632.084, 970.754
632.566, 961.346
633.048, 950.297
633.530, 949.769
634.012, 961.148
634.495, 969.092
634.977, 968.685
635.459, 965.419
635.941, 959.746
636.423, 952.026
636.905, 959.278
637.387, 962.895
637.869, 963.073
638.351, 949.514
638.834, 953.694
639.316, 950.765
639.798, 951.356
640.280, 961.802
640.762, 961.110
641.244, 952.239
641.726, 945.375
642.208, 945.678
642.690, 950.096
643.173, 960.058
643.655, 973.767
644.137, 979.605
644.619, 962.917
645.101, 945.395
645.583, 939.104
646.065, 948.076
646.547, 956.577
647.029, 966.103
647.512, 973.386
647.994, 974.856
648.476, 969.149
648.958, 964.593
649.440, 961.600
649.922, 960.428
650.404, 962.341
650.886, 966.751
651.369, 970.502
651.851, 971.971
652.333, 973.128
652.815, 976.227
653.297, 980.880
653.779, 986.106
654.261, 991.607
654.743, 997.400
655.226, 1004.479
655.708, 1012.817
656.190, 1017.946
656.672, 1017.534
657.154, 1015.313
657.636, 1011.819
658.118, 1005.522
658.600, 1006.745
659.083, 1018.447
659.565, 1030.958
660.047, 1032.960
660.529, 1025.714
661.011, 1020.729
661.493, 1019.635
661.975, 1021.990
662.457, 1030.161
662.939, 1041.236
663.422, 1049.042
663.904, 1048.100
664.386, 1046.411
664.868, 1048.270
665.350, 1052.918
665.832, 1058.156
666.314, 1064.109
666.796, 1069.952
667.278, 1076.978
667.761, 1084.838
668.243, 1083.865
668.725, 1068.895
669.207, 1056.789
669.689, 1059.290
670.171, 1075.426
670.653, 1090.667
671.135, 1105.184
671.617, 1115.307
672.100, 1112.131
672.582, 1103.177
673.064, 1104.027
673.546, 1121.799
674.028, 1136.605
674.510, 1129.625
674.992, 1114.050
675.474, 1107.073
675.956, 1120.537
676.439, 1134.547
676.921, 1147.992
677.403, 1159.313
677.885, 1164.294
678.367, 1159.755
678.849, 1156.789
679.331, 1159.706
679.813, 1166.488
680.296, 1166.978
680.778, 1161.116
681.260, 1158.238
681.742, 1165.367
682.224, 1178.945
682.706, 1196.461
683.188, 1217.463
683.670, 1230.263
684.153, 1218.745
684.635, 1201.542
685.117, 1193.180
685.599, 1197.552
686.081, 1206.554
686.563, 1225.759
687.045, 1244.879
687.527, 1254.669
688.010, 1251.214
688.492, 1249.344
688.974, 1250.493
689.456, 1253.478
689.938, 1254.932
690.420, 1255.424
690.902, 1261.831
691.384, 1279.837
691.866, 1300.090
692.349, 1309.700
692.831, 1311.272
693.313, 1312.172
693.795, 1315.727
694.277, 1319.822
694.759, 1321.548
695.241, 1321.621
695.723, 1327.639
696.205, 1349.222
696.688, 1367.921
697.170, 1375.647
697.652, 1371.401
698.134, 1371.946
698.616, 1378.369
699.098, 1386.079
699.580, 1389.460
700.062, 1390.528
700.544, 1399.957
701.027, 1419.459
701.509, 1440.041
701.991, 1455.346
702.473, 1465.816
702.955, 1471.219
703.437, 1467.578
703.919, 1466.740
704.401, 1477.525
704.883, 1492.456
705.366, 1499.982
705.848, 1489.085
706.330, 1487.386
706.812, 1501.524
707.294, 1524.674
707.776, 1540.143
708.258, 1547.035
708.740, 1556.599
709.222, 1575.917
709.705, 1598.054
710.187, 1603.969
710.669, 1597.316
711.151, 1597.349
711.633, 1622.469
712.115, 1653.187
712.597, 1673.577
713.080, 1683.486
713.562, 1693.491
714.044, 1706.190
714.526, 1720.082
715.008, 1734.405
715.490, 1749.129
715.972, 1763.409
716.454, 1775.847
716.936, 1790.544
717.419, 1811.942
717.901, 1839.485
718.383, 1864.928
718.865, 1887.529
719.347, 1910.179
719.829, 1940.777
720.311, 1972.628
720.793, 1993.923
721.276, 1994.204
721.758, 1998.932
722.240, 2027.412
722.722, 2065.634
723.204, 2093.163
723.686, 2094.589
724.168, 2103.091
724.650, 2123.544
725.132, 2151.934
725.615, 2181.295
726.097, 2212.221
726.579, 2238.368
727.061, 2255.693
727.543, 2269.614
728.025, 2293.306
728.507, 2324.513
728.989, 2354.013
729.471, 2379.489
729.954, 2398.783
730.436, 2406.781
730.918, 2405.194
731.400, 2406.456
731.882, 2413.287
732.364, 2424.584
732.846, 2441.256
733.328, 2463.866
733.810, 2481.943
734.293, 2495.635
734.775, 2503.857
735.257, 2503.662
735.739, 2496.529
736.221, 2491.375
736.703, 2488.592
737.185, 2487.192
737.667, 2484.215
738.149, 2483.089
738.632, 2489.764
739.114, 2508.378
739.596, 2523.364
740.078, 2531.332
740.560, 2531.444
741.042, 2521.692
741.524, 2490.886
742.006, 2472.808
742.489, 2474.641
742.971, 2481.727
743.453, 2471.067
743.935, 2442.848
744.417, 2418.472
744.899, 2402.570
745.381, 2392.380
745.863, 2385.145
746.346, 2380.416
746.828, 2377.357
747.310, 2378.613
747.792, 2378.397
748.274, 2372.897
748.756, 2363.817
749.238, 2356.089
749.720, 2358.638
750.203, 2351.370
750.685, 2329.084
751.167, 2312.907
751.649, 2314.242
752.131, 2311.326
752.613, 2304.389
753.095, 2281.379
753.577, 2279.123
754.059, 2268.549
754.542, 2257.635
755.024, 2253.719
755.506, 2259.422
755.988, 2259.495
756.470, 2255.728
756.952, 2248.188
757.434, 2237.057
757.916, 2212.805
758.398, 2194.913
758.881, 2194.907
759.363, 2215.325
759.845, 2220.927
760.327, 2208.494
760.809, 2195.445
761.291, 2196.676
761.773, 2208.477
762.255, 2220.574
762.737, 2232.292
763.220, 2244.978
763.702, 2261.193
764.184, 2278.010
764.666, 2292.114
765.148, 2300.109
765.630, 2312.390
766.112, 2322.694
766.594, 2343.831
767.076, 2390.943
767.559, 2474.978
768.041, 2539.501
768.523, 2577.460
769.005, 2604.202
769.487, 2634.499
769.969, 2670.094
770.451, 2718.291
770.933, 2784.965
771.416, 2852.183
771.898, 2900.925
772.380, 2941.708
772.862, 2990.081
773.344, 3049.593
773.826, 3118.281
774.308, 3200.686
774.790, 3289.958
775.273, 3375.034
775.755, 3453.815
776.237, 3537.657
776.719, 3628.879
777.201, 3725.348
777.683, 3820.427
778.165, 3915.371
778.647, 4013.847
779.130, 4121.247
779.612, 4228.794
780.094, 4326.644
780.576, 4417.894
781.058, 4511.375
781.540, 4621.552
782.022, 4719.707
782.504, 4795.006
782.986, 4853.210
783.468, 4919.589
783.951, 4998.573
784.433, 5068.110
784.915, 5119.045
785.397, 5157.599
785.879, 5205.025
786.361, 5256.803
786.843, 5288.097
787.325, 5279.379
787.807, 5248.895
788.290, 5207.093
788.772, 5155.010
789.254, 5093.823
789.736, 5008.972
790.218, 4931.583
790.700, 4877.349
791.182, 4842.749
791.664, 4789.303
792.146, 4714.452
792.629, 4631.216
793.111, 4543.212
793.593, 4452.676
794.075, 4362.156
794.557, 4272.538
795.039, 4184.017
795.521, 4091.999
796.003, 4007.595
796.486, 3942.347
796.968, 3898.838
797.450, 3847.362
797.932, 3770.953
798.414, 3701.941
798.896, 3659.409
799.378, 3644.094
799.860, 3610.838
800.343, 3557.358
800.825, 3505.797
801.307, 3474.428
801.789, 3455.901
802.271, 3434.052
802.753, 3407.779
803.235, 3391.447
803.717, 3400.670
804.200, 3416.914
804.682, 3426.246
805.164, 3423.682
805.646, 3429.362
806.128, 3448.236
806.610, 3468.099
807.092, 3477.674
807.574, 3477.558
808.056, 3489.373
808.539, 3514.073
809.021, 3543.779
809.503, 3567.717
809.985, 3593.771
810.467, 3634.683
810.949, 3694.190
811.431, 3752.856
811.913, 3795.682
812.395, 3839.607
812.878, 3897.853
813.360, 3974.569
813.842, 4051.553
814.324, 4128.285
814.806, 4206.779
815.288, 4287.762
815.770, 4371.981
816.252, 4468.560
816.734, 4578.921
817.217, 4693.907
817.699, 4808.431
818.181, 4921.502
818.663, 5033.305
819.145, 5140.111
819.627, 5258.289
820.109, 5389.633
820.591, 5534.350
821.073, 5696.461
821.556, 5879.802
822.038, 6054.774
822.520, 6217.908
823.002, 6379.164
823.484, 6553.037
823.966, 6733.057
824.448, 6907.083
824.930, 7072.770
825.413, 7239.177
825.895, 7416.986
826.377, 7595.028
826.859, 7766.969
827.341, 7939.839
827.823, 8082.483
828.305, 8186.603
828.787, 8269.384
829.269, 8342.198
829.752, 8406.025
830.234, 8470.684
830.716, 8540.130
831.198, 8593.974
831.680, 8602.279
832.162, 8586.836
832.644, 8576.637
833.127, 8577.686
833.609, 8582.003
834.091, 8593.755
834.573, 8602.709
835.055, 8598.725
835.537, 8570.719
836.019, 8564.422
836.501, 8583.475
836.983, 8613.863
837.466, 8641.666
837.948, 8668.568
838.430, 8693.992
838.912, 8715.752
839.394, 8761.069
839.876, 8873.419
840.358, 9005.947
840.840, 9113.854
841.322, 9178.670
841.805, 9247.035
842.287, 9316.178
842.769, 9396.160
843.251, 9497.048
843.733, 9619.751
844.215, 9736.840
844.697, 9845.891
845.179, 9962.578
845.661, 10108.740
846.144, 10270.380
846.626, 10422.150
847.108, 10556.640
847.590, 10713.850
848.072, 10931.080
848.554, 11162.430
849.036, 11372.690
849.518, 11553.780
850.000, 11752.460
850.483, 11966.960
850.965, 12204.850
851.447, 12477.590
851.929, 12779.280
852.411, 13093.890
852.893, 13421.860
853.375, 13759.010
853.857, 14076.500
854.340, 14420.260
854.822, 14839.540
855.304, 15352.670
855.786, 15863.980
856.268, 16341.420
856.750, 16834.900
857.232, 17375.000
857.714, 17956.199
858.196, 18540.301
858.679, 19128.670
859.161, 19740.420
859.643, 20425.100
860.125, 21125.961
860.607, 21778.570
861.089, 22384.721
861.571, 23029.029
862.054, 23789.100
862.536, 24556.590
863.018, 25299.820
863.500, 26014.900
863.982, 26677.779
864.464, 27281.340
864.946, 27860.199
865.428, 28456.301
865.910, 29027.920
866.393, 29499.760
866.875, 29867.949
867.357, 30135.580
867.839, 30345.311
868.321, 30409.500
868.803, 30268.580
869.285, 29918.699
869.767, 29461.471
870.249, 28890.990
870.732, 28218.150
871.214, 27438.881
871.696, 26563.250
872.178, 25581.850
872.660, 24514.189
873.142, 23497.170
873.624, 22589.730
874.106, 21760.051
874.588, 20995.770
875.071, 20290.029
875.553, 19600.990
876.035, 18894.141
876.517, 18239.160
876.999, 17665.830
877.481, 17149.520
877.963, 16622.570
878.445, 16085.350
878.927, 15563.160
879.410, 15076.350
879.892, 14600.320
880.374, 14105.350
880.856, 13600.870
881.338, 13105.410
881.820, 12628.810
882.302, 12156.470
882.784, 11679.520
883.266, 11211.130
883.749, 10774.090
884.231, 10369.760
884.713, 9991.371
885.195, 9641.478
885.677, 9304.497
886.159, 8944.354
886.641, 8579.385
887.123, 8240.051
887.606, 7938.505
888.088, 7653.836
888.570, 7373.425
889.052, 7110.846
889.534, 6882.636
890.016, 6701.548
890.498, 6517.348
890.980, 6324.928
891.463, 6133.351
891.945, 5948.794
892.427, 5773.768
892.909, 5613.405
893.391, 5468.327
893.873, 5326.086
894.355, 5172.138
894.837, 5017.328
895.320, 4871.387
895.802, 4733.523
896.284, 4609.875
896.766, 4507.883
897.248, 4403.899
897.730, 4277.322
898.212, 4134.192
898.694, 3990.996
899.176, 3849.871
899.659, 3722.980
900.141, 3632.186
900.623, 3550.870
901.105, 3456.876
901.587, 3349.529
902.069, 3252.583
902.551, 3170.472
903.033, 3093.637
903.515, 3020.791
903.998, 2949.747
904.480, 2870.546
904.962, 2784.022
905.444, 2702.385
905.926, 2631.772
906.408, 2569.590
906.890, 2518.137
907.372, 2473.046
907.854, 2420.941
908.337, 2344.367
908.819, 2278.670
909.301, 2237.625
909.783, 2207.712
910.265, 2154.003
910.747, 2077.206
911.229, 2015.613
911.711, 1983.639
912.193, 1960.549
912.676, 1924.947
913.158, 1880.808
913.640, 1834.076
914.122, 1777.563
914.604, 1732.576
915.086, 1706.490
915.568, 1689.279
916.050, 1672.681
916.533, 1657.152
917.015, 1633.711
917.497, 1600.568
917.979, 1565.440
918.461, 1535.510
918.943, 1508.844
919.425, 1482.218
919.907, 1454.343
920.390, 1430.875
920.872, 1414.796
921.354, 1402.415
921.836, 1392.524
922.318, 1385.248
922.800, 1377.248
923.282, 1368.782
923.764, 1356.237
924.247, 1334.519
924.729, 1308.801
925.211, 1284.235
925.693, 1261.669
926.175, 1245.744
926.657, 1248.415
927.139, 1246.655
927.621, 1228.718
928.103, 1199.949
928.586, 1180.658
929.068, 1171.238
929.550, 1168.012
930.032, 1172.681
930.514, 1178.577
930.996, 1174.853
931.478, 1164.630
931.960, 1155.247
932.442, 1154.004
932.925, 1148.087
933.407, 1130.974
933.889, 1109.221
934.371, 1088.936
934.853, 1069.074
935.335, 1062.658
935.817, 1074.618
936.299, 1087.501
936.781, 1077.123
937.264, 1055.169
937.746, 1041.470
938.228, 1043.108
938.710, 1039.137
939.192, 1013.745
939.674, 988.006
940.156, 975.532
940.638, 977.830
941.120, 978.622
941.603, 977.550
942.085, 978.472
942.567, 992.134
943.049, 1005.072
943.531, 992.641
944.013, 958.087
944.495, 933.738
944.977, 938.379
945.460, 948.503
945.942, 959.144
946.424, 968.273
946.906, 964.563
947.388, 947.416
947.870, 934.279
948.352, 933.756
948.834, 937.047
949.317, 931.626
949.799, 921.801
950.281, 915.933
950.763, 924.856
951.245, 926.968
951.727, 913.377
952.209, 896.563
952.691, 893.789
953.173, 905.491
953.656, 911.455
954.138, 908.934
954.620, 902.481
955.102, 892.708
955.584, 883.583
956.066, 880.549
956.548, 885.573
957.030, 889.467
957.513, 888.802
957.995, 889.110
958.477, 895.449
958.959, 906.465
959.441, 903.038
959.923, 885.751
960.405, 871.391
960.887, 872.208
961.369, 879.157
961.852, 886.155
962.334, 892.496
962.816, 896.483
963.298, 900.366
963.780, 897.113
964.262, 881.868
964.744, 862.372
965.226, 855.634
965.708, 859.999
966.191, 866.947
966.673, 875.798
967.155, 882.189
967.637, 882.074
968.119, 877.811
968.601, 871.413
969.083, 857.395
969.565, 855.377
970.047, 870.152
970.530, 886.232
971.012, 890.397
971.494, 884.901
971.976, 875.385
972.458, 862.485
972.940, 854.513
973.422, 859.292
973.904, 867.971
974.386, 875.795
974.869, 882.658
975.351, 890.041
975.833, 899.256
976.315, 903.729
976.797, 899.098
977.279, 890.614
977.761, 887.838
978.244, 889.438
978.726, 891.915
979.208, 895.268
979.690, 897.388
980.172, 897.327
980.654, 895.723
981.136, 893.207
981.618, 889.657
982.100, 885.657
982.583, 881.005
983.065, 877.490
983.547, 878.613
984.029, 881.281
984.511, 880.262
984.993, 874.680
985.475, 872.008
985.957, 877.225
986.440, 883.015
986.922, 886.826
987.404, 888.783
987.886, 889.362
988.368, 888.619
988.850, 887.806
989.332, 887.373
989.814, 887.317
990.296, 886.466
990.779, 886.147
991.261, 889.399
991.743, 901.670
992.225, 909.171
992.707, 908.711
993.189, 906.257
993.671, 911.972
994.153, 923.156
994.635, 928.303
995.118, 925.305
995.600, 919.272
996.082, 908.654
996.564, 900.228
997.046, 901.931
997.528, 915.313
998.010, 918.242
998.492, 907.248
998.974, 898.547
999.457, 904.526
999.939, 916.345
1000.421, 912.210
1000.903, 897.234
1001.385, 888.204
1001.867, 900.661
1002.349, 910.890
1002.831, 911.193
1003.314, 904.756
1003.796, 893.701
1004.278, 877.134
1004.760, 869.814
1005.242, 875.376
1005.724, 882.580
1006.206, 879.032
1006.688, 870.656
1007.170, 865.033
1007.653, 864.242
1008.135, 860.022
1008.617, 847.510
1009.099, 837.621
1009.581, 837.245
1010.063, 844.062
1010.545, 846.343
1011.027, 844.457
1011.510, 840.510
1011.992, 835.362
1012.474, 828.813
1012.956, 818.137
1013.438, 806.447
1013.920, 801.247
1014.402, 805.455
1014.884, 808.206
1015.366, 808.951
1015.849, 805.795
1016.331, 790.808
1016.813, 771.788
1017.295, 766.442
1017.777, 779.524
1018.259, 787.855
1018.741, 773.435
1019.223, 760.794
1019.706, 765.174
1020.188, 784.541
1020.670, 788.158
1021.152, 775.950
1021.634, 764.115
1022.116, 761.343
1022.598, 762.562
1023.080, 763.478
1023.562, 764.454
1024.045, 766.305
1024.527, 769.903
1025.009, 773.475
1025.491, 777.695
1025.973, 780.294
1026.455, 777.166
1026.937, 770.009
1027.419, 764.763
1027.901, 762.276
1028.384, 759.677
1028.866, 752.560
1029.348, 747.265
1029.830, 749.570
1030.312, 758.396
1030.794, 761.486
1031.276, 757.718
1031.758, 758.261
1032.240, 773.915
1032.723, 788.540
1033.205, 770.671
1033.687, 736.958
1034.169, 719.178
1034.651, 741.878
1035.133, 761.204
1035.615, 774.876
1036.097, 782.250
1036.580, 779.317
1037.062, 768.457
1037.544, 767.626
1038.026, 777.849
1038.508, 782.853
1038.990, 759.549
1039.472, 737.341
1039.954, 741.886
1040.437, 768.883
1040.919, 781.286
1041.401, 775.965
1041.883, 770.196
1042.365, 769.061
1042.847, 770.407
1043.329, 773.929
1043.811, 776.694
1044.293, 772.261
1044.776, 752.361
1045.258, 740.438
1045.740, 744.176
1046.222, 752.977
1046.704, 761.506
1047.186, 769.349
1047.668, 768.465
1048.150, 759.379
1048.632, 749.758
1049.115, 744.047
1049.597, 740.219
1050.079, 737.463
1050.561, 735.545
1051.043, 733.123
1051.525, 728.809
1052.007, 730.202
1052.489, 741.023
1052.972, 751.297
1053.454, 742.595
1053.936, 725.678
1054.418, 721.052
1054.900, 736.220
1055.382, 742.768
1055.864, 723.181
1056.346, 705.042
1056.828, 702.815
1057.311, 713.476
1057.793, 718.487
1058.275, 718.399
1058.757, 717.544
1059.239, 720.879
1059.721, 721.200
1060.203, 708.837
1060.685, 692.291
1061.167, 687.311
1061.650, 699.097
1062.132, 704.981
1062.614, 702.729
1063.096, 697.640
1063.578, 691.498
1064.060, 687.710
1064.542, 695.252
1065.024, 713.698
1065.507, 722.060
1065.989, 701.089
1066.471, 686.612
1066.953, 690.682
1067.435, 705.815
1067.917, 711.662
1068.399, 710.235
1068.881, 711.355
1069.364, 720.311
1069.846, 726.193
1070.328, 716.034
1070.810, 704.020
1071.292, 705.641
1071.774, 725.009
1072.256, 728.536
1072.738, 714.453
1073.220, 700.287
1073.703, 699.216
1074.185, 704.108
1074.667, 709.703
1075.149, 714.394
1075.631, 713.225
1076.113, 698.765
1076.595, 689.232
1077.077, 688.759
1077.559, 690.472
1078.042, 682.660
1078.524, 669.780
1079.006, 665.271
1079.488, 671.324
1079.970, 677.360
1080.452, 682.058
1080.934, 680.713
1081.416, 668.347
1081.898, 648.470
1082.381, 640.698
1082.863, 644.747
1083.345, 647.426
1083.827, 643.310
1084.309, 637.009
1084.791, 633.157
1085.273, 629.245
1085.755, 621.059
1086.238, 604.050
1086.720, 596.361
1087.202, 600.315
1087.684, 605.054
1088.166, 601.606
1088.648, 593.813
1089.130, 586.989
1089.612, 581.759
1090.094, 579.989
1090.577, 587.837
1091.059, 591.891
1091.541, 589.359
1092.023, 582.441
1092.505, 571.665
1092.987, 558.998
1093.469, 555.209
1093.951, 562.574
1094.433, 566.996
1094.916, 554.739
1095.398, 540.892
1095.880, 534.577
1096.362, 535.263
1096.844, 541.213
1097.326, 552.724
1097.808, 562.306
1098.290, 568.233
1098.773, 569.063
1099.255, 557.394
1099.737, 542.292
1100.219, 536.473
1100.701, 547.112
1101.183, 553.785
1101.665, 556.022
1102.147, 555.907
1102.630, 555.883
1103.112, 554.149
1103.594, 544.172
1104.076, 528.779
1104.558, 518.182
1105.040, 519.281
1105.522, 522.153
1106.004, 526.183
1106.486, 529.517
1106.969, 528.934
1107.451, 525.227
1107.933, 521.799
1108.415, 519.051
1108.897, 517.308
1109.379, 520.015
1109.861, 520.553
1110.343, 512.468
1110.825, 499.262
1111.308, 495.284
1111.790, 500.712
1112.272, 507.024
1112.754, 512.929
1113.236, 515.693
1113.718, 508.252
1114.200, 498.709
1114.682, 497.839
1115.165, 510.026
1115.647, 512.295
1116.129, 502.188
1116.611, 491.983
1117.093, 487.476
1117.575, 488.214
1118.057, 497.034
1118.539, 510.185
1119.021, 518.885
1119.504, 518.430
1119.986, 515.675
1120.468, 509.706
1120.950, 504.158
1121.432, 504.357
1121.914, 507.810
1122.396, 505.946
1122.878, 498.987
1123.360, 493.568
1123.843, 496.888
1124.325, 497.333
1124.807, 488.070
1125.289, 475.600
1125.771, 473.423
1126.253, 480.586
1126.735, 490.747
1127.217, 504.051
1127.700, 510.358
1128.182, 494.300
1128.664, 474.855
1129.146, 466.146
1129.628, 467.451
1130.110, 472.625
1130.592, 482.139
1131.074, 486.376
1131.557, 479.208
1132.039, 470.130
1132.521, 468.681
1133.003, 471.981
1133.485, 477.131
1133.967, 485.855
1134.449, 489.003
1134.931, 485.739
1135.413, 480.550
1135.896, 474.289
1136.378, 469.405
1136.860, 472.679
1137.342, 480.447
1137.824, 482.913
1138.306, 471.280
1138.788, 462.353
1139.270, 456.305
1139.752, 455.116
1140.235, 465.655
1140.717, 481.349
1141.199, 484.380
1141.681, 474.865
1142.163, 465.948
1142.645, 462.288
1143.127, 461.799
1143.609, 464.988
1144.092, 469.613
1144.574, 471.687
1145.056, 471.367
1145.538, 468.580
1146.020, 462.991
1146.502, 458.337
1146.984, 457.464
1147.466, 457.856
1147.948, 458.834
1148.431, 459.786
1148.913, 454.836
1149.395, 444.776
1149.877, 443.625
1150.359, 460.437
1150.841, 477.548
1151.323, 481.311
1151.805, 479.037
1152.287, 478.673
1152.770, 481.109
1153.252, 477.615
1153.734, 467.506
1154.216, 461.340
1154.698, 469.938
1155.180, 480.729
1155.662, 481.871
1156.144, 476.489
1156.626, 470.039
1157.109, 462.099
1157.591, 455.887
1158.073, 451.383
1158.555, 449.471
1159.037, 451.658
1159.519, 456.390
1160.001, 464.861
1160.483, 474.729
1160.966, 475.403
1161.448, 457.947
1161.930, 447.517
1162.412, 449.052
1162.894, 453.785
1163.376, 450.418
1163.858, 442.826
1164.340, 437.667
1164.823, 435.540
1165.305, 434.049
1165.787, 432.987
1166.269, 431.726
1166.751, 429.684
1167.233, 428.022
1167.715, 430.569
1168.197, 435.044
1168.679, 434.339
1169.161, 425.161
1169.644, 421.765
1170.126, 437.175
1170.608, 449.078
1171.090, 445.482
1171.572, 432.806
1172.054, 434.777
1172.536, 447.281
1173.018, 454.783
1173.501, 449.659
1173.983, 443.987
1174.465, 440.493
1174.947, 440.272
1175.429, 447.203
1175.911, 459.295
1176.393, 453.667
1176.875, 433.529
1177.358, 418.474
1177.840, 421.250
1178.322, 428.709
1178.804, 438.534
1179.286, 447.721
1179.768, 453.214
1180.250, 454.975
1180.732, 452.458
1181.214, 445.896
1181.697, 440.667
1182.179, 439.531
1182.661, 441.470
1183.143, 450.347
1183.625, 460.009
1184.107, 458.316
1184.589, 444.666
1185.071, 433.818
1185.553, 427.181
1186.036, 425.487
1186.518, 431.787
1187.000, 441.184
1187.482, 453.295
1187.964, 465.227
1188.446, 465.806
1188.928, 453.741
1189.410, 447.521
1189.893, 451.658
1190.375, 456.749
1190.857, 454.012
1191.339, 448.089
1191.821, 441.952
1192.303, 436.133
1192.785, 434.362
1193.267, 437.212
1193.750, 438.597
1194.232, 435.813
1194.714, 433.290
1195.196, 437.903
1195.678, 443.971
1196.160, 444.287
1196.642, 437.480
1197.124, 434.796
1197.606, 437.143
1198.089, 436.439
1198.571, 426.195
1199.053, 416.031
1199.535, 418.204
1200.017, 427.057
1200.499, 435.376
1200.981, 443.545
1201.463, 445.399
1201.945, 440.068
1202.428, 433.612
1202.910, 429.822
1203.392, 426.738
1203.874, 419.605
1204.356, 411.998
1204.838, 411.445
1205.320, 422.101
1205.802, 431.263
1206.285, 438.977
1206.767, 444.024
1207.249, 444.836
1207.731, 442.823
1208.213, 437.595
1208.695, 431.007
1209.177, 428.472
1209.659, 431.277
1210.141, 436.077
1210.624, 443.290
1211.106, 449.327
1211.588, 449.358
1212.070, 447.392
1212.552, 450.403
1213.034, 456.487
1213.516, 453.980
1213.998, 436.347
1214.480, 428.480
1214.963, 435.398
1215.445, 445.883
1215.927, 449.183
1216.409, 447.778
1216.891, 442.903
1217.373, 435.406
1217.855, 431.943
1218.337, 433.874
1218.820, 437.114
1219.302, 441.994
1219.784, 443.889
1220.266, 432.559
1220.748, 417.582
1221.230, 410.993
1221.712, 414.408
1222.194, 419.960
1222.677, 429.120
1223.159, 432.530
1223.641, 425.131
1224.123, 417.180
1224.605, 425.953
1225.087, 439.908
1225.569, 442.541
1226.051, 429.267
1226.533, 427.199
1227.016, 439.676
1227.498, 451.019
1227.980, 455.890
1228.462, 455.942
1228.944, 450.995
1229.426, 443.675
1229.908, 436.630
1230.390, 429.399
1230.872, 429.136
1231.355, 437.325
1231.837, 444.402
1232.319, 445.626
1232.801, 443.871
1233.283, 441.020
1233.765, 438.085
1234.247, 436.659
1234.729, 437.164
1235.212, 437.620
1235.694, 437.835
1236.176, 439.604
1236.658, 446.978
1237.140, 452.777
1237.622, 442.498
1238.104, 428.368
1238.586, 432.669
1239.068, 464.762
1239.551, 475.691
1240.033, 464.031
1240.515, 447.568
1240.997, 433.655
1241.479, 424.124
1241.961, 422.326
1242.443, 425.425
1242.925, 429.052
1243.407, 433.981
1243.890, 432.473
1244.372, 424.033
1244.854, 418.107
1245.336, 422.186
1245.818, 430.693
1246.300, 445.374
1246.782, 459.038
1247.264, 457.405
1247.746, 438.284
1248.229, 428.318
1248.711, 429.022
1249.193, 433.115
1249.675, 436.567
1250.157, 440.613
1250.639, 428.258
1251.121, 447.862
1251.603, 459.709
1252.086, 464.218
1252.568, 439.394
1253.050, 452.443
1253.532, 450.314
1254.014, 455.699
1254.496, 454.560
1254.978, 447.828
1255.460, 438.864
1255.943, 436.008
1256.425, 438.367
1256.907, 438.118
1257.389, 434.492
1257.871, 430.652
1258.353, 424.171
1258.835, 423.722
1259.317, 436.587
1259.799, 453.291
1260.281, 454.571
1260.764, 444.338
1261.246, 438.633
1261.728, 439.391
1262.210, 440.349
1262.692, 438.480
1263.174, 436.216
1263.656, 433.342
1264.138, 431.853
1264.621, 438.636
1265.103, 449.071
1265.585, 449.037
1266.067, 436.516
1266.549, 428.085
1267.031, 431.584
1267.513, 436.557
1267.995, 441.336
1268.478, 444.756
1268.960, 441.775
1269.442, 437.257
1269.924, 442.341
1270.406, 459.226
1270.888, 469.493
1271.370, 469.120
1271.852, 466.564
1272.334, 463.531
1272.817, 460.912
1273.299, 463.521
1273.781, 465.404
1274.263, 454.862
1274.745, 429.604
1275.227, 419.776
1275.709, 430.168
1276.191, 438.885
1276.673, 440.224
1277.156, 435.470
1277.638, 417.334
1278.120, 399.872
1278.602, 400.800
1279.084, 420.695
1279.566, 437.517
1280.048, 451.528
1280.530, 460.572
1281.013, 463.700
1281.495, 463.000
1281.977, 459.657
1282.459, 453.852
1282.941, 443.732
1283.423, 430.850
1283.905, 427.478
1284.387, 432.846
1284.870, 436.075
1285.352, 432.520
1285.834, 430.809
1286.316, 439.898
1286.798, 449.099
1287.280, 451.338
1287.762, 448.282
1288.244, 446.036
1288.726, 444.803
1289.208, 445.599
1289.691, 449.407
1290.173, 452.825
1290.655, 456.402
1291.137, 456.668
1291.619, 450.948
1292.101, 441.575
1292.583, 432.816
1293.065, 426.216
1293.548, 426.460
1294.030, 437.621
1294.512, 444.298
##END=



