##NAMES=Guilleminite
##RRUFFID=R090007
##IDEAL CHEMISTRY=Ba(U^6+^O_2_)_3_(Se^4+^O_3_)_2_O_2_&#183;3H_2_O
##LOCALITY=Musonoi mine, Kolwezi, Katanga, Democratic Republic of the Congo
##OWNER=RRUFF
##SOURCE=William W. Pinch
##DESCRIPTION=Yellow transparent thin tabular crystals removed from the structure type specimen of Cooper & Hawthorne (1995) study
##STATUS=The identification of this mineral has been confirmed by single-crystal X-ray diffraction.
##URL=rruff.info/R090007
90.92609, 0.0000000E+00
91.40820, 147.4161
91.89032, 147.5415
92.37244, 147.2882
92.85455, 146.7729
93.33667, 146.6914
93.81879, 147.9158
94.30090, 150.0233
94.78302, 151.7071
95.26514, 152.4169
95.74725, 152.7411
96.22937, 154.1995
96.71149, 156.8763
97.19360, 159.5840
97.67572, 160.7253
98.15784, 160.3206
98.63995, 160.9961
99.12207, 163.6597
99.60419, 168.1063
100.0863, 172.6771
100.5684, 177.2382
101.0505, 182.2175
101.5327, 187.8925
102.0148, 193.7592
102.4969, 201.9171
102.9790, 213.3069
103.4611, 228.1369
103.9432, 244.3746
104.4253, 261.2487
104.9075, 279.8886
105.3896, 302.1406
105.8717, 329.2396
106.3538, 358.5791
106.8359, 389.6139
107.3180, 420.9330
107.8002, 455.8218
108.2823, 493.1480
108.7644, 533.7249
109.2465, 582.2462
109.7286, 639.9691
110.2107, 704.1206
110.6929, 774.5944
111.1750, 844.3442
111.6571, 927.3538
112.1392, 1025.502
112.6213, 1138.329
113.1034, 1264.006
113.5856, 1413.139
114.0677, 1571.090
114.5498, 1726.078
115.0319, 1873.152
115.5140, 2020.962
115.9961, 2174.408
116.4783, 2333.307
116.9604, 2482.781
117.4425, 2618.698
117.9246, 2743.675
118.4067, 2859.655
118.8888, 2959.040
119.3710, 3057.071
119.8531, 3161.834
120.3352, 3273.543
120.8173, 3390.796
121.2994, 3509.063
121.7815, 3631.547
122.2637, 3764.409
122.7458, 3907.493
123.2279, 4062.454
123.7100, 4232.396
124.1921, 4419.515
124.6742, 4613.795
125.1564, 4807.994
125.6385, 5002.221
126.1206, 5197.669
126.6027, 5397.686
127.0848, 5597.465
127.5669, 5786.794
128.0491, 5963.305
128.5312, 6130.675
129.0133, 6294.840
129.4954, 6454.108
129.9775, 6606.567
130.4596, 6750.370
130.9418, 6885.021
131.4239, 7013.623
131.9060, 7135.721
132.3881, 7253.380
132.8702, 7368.527
133.3523, 7481.585
133.8345, 7593.732
134.3166, 7705.267
134.7987, 7817.185
135.2808, 7929.643
135.7629, 8043.655
136.2450, 8160.036
136.7272, 8278.978
137.2093, 8400.710
137.6914, 8526.295
138.1735, 8657.840
138.6556, 8795.326
139.1377, 8934.905
139.6199, 9077.063
140.1020, 9220.575
140.5841, 9367.112
141.0662, 9515.709
141.5483, 9666.300
142.0304, 9819.824
142.5126, 9978.111
142.9947, 10127.96
143.4768, 10232.65
143.9589, 10268.03
144.4410, 10298.57
144.9231, 10324.47
145.4053, 10346.21
145.8874, 10364.92
146.3695, 10380.98
146.8516, 10393.99
147.3337, 10403.44
147.8158, 10408.53
148.2980, 10413.35
148.7801, 10419.57
149.2622, 10425.49
149.7443, 10427.35
150.2264, 10419.82
150.7085, 10413.17
151.1907, 10411.20
151.6728, 10419.20
152.1549, 10422.70
152.6370, 10413.06
153.1191, 10397.94
153.6012, 10396.90
154.0834, 10426.00
154.5655, 10457.52
155.0476, 10479.96
155.5297, 10486.57
156.0118, 10490.61
156.4939, 10488.97
156.9761, 10484.85
157.4582, 10489.26
157.9403, 10517.39
158.4224, 10546.48
158.9045, 10563.23
159.3866, 10555.05
159.8688, 10545.91
160.3509, 10541.67
160.8330, 10541.78
161.3151, 10543.45
161.7972, 10544.21
162.2793, 10547.06
162.7615, 10554.40
163.2436, 10578.54
163.7257, 10596.32
164.2078, 10593.88
164.6899, 10573.90
165.1720, 10555.37
165.6541, 10548.71
166.1363, 10547.36
166.6184, 10544.83
167.1005, 10534.47
167.5826, 10525.58
168.0647, 10526.42
168.5468, 10536.05
169.0290, 10542.91
169.5111, 10535.82
169.9932, 10522.62
170.4753, 10513.64
170.9574, 10517.99
171.4395, 10525.07
171.9217, 10524.90
172.4038, 10517.52
172.8859, 10510.88
173.3680, 10511.51
173.8501, 10517.14
174.3322, 10523.66
174.8144, 10528.79
175.2965, 10534.33
175.7786, 10543.05
176.2607, 10555.16
176.7428, 10567.03
177.2249, 10573.12
177.7071, 10576.05
178.1892, 10582.49
178.6713, 10600.26
179.1534, 10621.90
179.6355, 10633.51
180.1176, 10633.72
180.5998, 10632.50
181.0819, 10643.88
181.5640, 10663.67
182.0461, 10677.46
182.5282, 10671.98
183.0103, 10656.02
183.4925, 10651.05
183.9746, 10659.18
184.4567, 10671.33
184.9388, 10676.25
185.4209, 10675.08
185.9030, 10674.11
186.3852, 10678.00
186.8673, 10684.90
187.3494, 10688.27
187.8315, 10687.81
188.3136, 10684.43
188.7957, 10676.68
189.2779, 10665.27
189.7600, 10658.03
190.2421, 10661.13
190.7242, 10672.73
191.2063, 10682.67
191.6884, 10690.42
192.1706, 10696.31
192.6527, 10699.84
193.1348, 10700.78
193.6169, 10703.28
194.0990, 10711.29
194.5811, 10724.00
195.0633, 10730.88
195.5454, 10730.30
196.0275, 10725.80
196.5096, 10722.92
196.9917, 10721.48
197.4738, 10723.17
197.9560, 10731.53
198.4381, 10746.69
198.9202, 10754.39
199.4023, 10751.86
199.8844, 10745.20
200.3665, 10747.39
200.8487, 10760.05
201.3308, 10773.03
201.8129, 10781.17
202.2950, 10784.22
202.7771, 10786.17
203.2592, 10785.97
203.7414, 10786.01
204.2235, 10793.38
204.7056, 10810.58
205.1877, 10824.67
205.6698, 10827.21
206.1519, 10815.73
206.6341, 10807.50
207.1162, 10802.56
207.5983, 10801.39
208.0804, 10806.97
208.5625, 10821.89
209.0446, 10835.20
209.5268, 10840.81
210.0089, 10836.90
210.4910, 10833.98
210.9731, 10832.00
211.4552, 10831.55
211.9373, 10833.97
212.4195, 10839.62
212.9016, 10847.53
213.3837, 10859.29
213.8658, 10878.81
214.3479, 10886.94
214.8300, 10878.33
215.3121, 10861.04
215.7943, 10855.68
216.2764, 10866.84
216.7585, 10880.00
217.2406, 10889.04
217.7227, 10893.23
218.2048, 10894.46
218.6870, 10891.17
219.1691, 10885.43
219.6512, 10882.67
220.1333, 10884.95
220.6154, 10886.15
221.0975, 10883.37
221.5797, 10875.07
222.0618, 10867.52
222.5439, 10861.33
223.0260, 10855.88
223.5081, 10849.91
223.9902, 10845.19
224.4724, 10837.54
224.9545, 10824.71
225.4366, 10803.52
225.9187, 10786.98
226.4008, 10778.05
226.8829, 10772.46
227.3651, 10759.96
227.8472, 10734.56
228.3293, 10711.95
228.8114, 10699.04
229.2935, 10699.97
229.7757, 10697.58
230.2578, 10691.18
230.7399, 10681.57
231.2220, 10669.08
231.7041, 10648.16
232.1862, 10633.09
232.6684, 10630.51
233.1505, 10645.89
233.6326, 10655.52
234.1147, 10657.60
234.5968, 10654.85
235.0789, 10651.88
235.5611, 10648.05
236.0432, 10645.23
236.5253, 10644.91
237.0074, 10649.22
237.4895, 10648.31
237.9716, 10639.82
238.4538, 10627.68
238.9359, 10617.97
239.4180, 10610.42
239.9001, 10605.71
240.3822, 10604.43
240.8643, 10607.23
241.3465, 10610.63
241.8286, 10614.98
242.3107, 10619.64
242.7928, 10624.05
243.2749, 10629.78
243.7570, 10632.23
244.2392, 10628.57
244.7213, 10616.71
245.2034, 10611.88
245.6855, 10619.05
246.1676, 10629.13
246.6497, 10629.99
247.1319, 10615.59
247.6140, 10603.27
248.0961, 10597.43
248.5782, 10598.71
249.0603, 10601.79
249.5424, 10607.48
250.0246, 10614.44
250.5067, 10621.45
250.9888, 10629.17
251.4709, 10635.70
251.9530, 10640.28
252.4351, 10642.77
252.9173, 10645.59
253.3994, 10649.42
253.8815, 10652.39
254.3636, 10652.04
254.8457, 10645.41
255.3278, 10641.40
255.8100, 10642.61
256.2921, 10648.75
256.7742, 10651.11
257.2563, 10647.58
257.7384, 10643.04
258.2205, 10642.62
258.7026, 10650.13
259.1848, 10651.89
259.6669, 10642.30
260.1490, 10623.88
260.6311, 10620.00
261.1132, 10639.40
261.5953, 10659.56
262.0775, 10661.76
262.5596, 10637.83
263.0417, 10620.72
263.5238, 10617.05
264.0059, 10623.02
264.4880, 10618.67
264.9702, 10598.43
265.4523, 10578.37
265.9344, 10569.36
266.4165, 10574.35
266.8986, 10579.47
267.3807, 10585.05
267.8629, 10589.50
268.3450, 10587.35
268.8271, 10577.12
269.3092, 10564.22
269.7913, 10550.81
270.2734, 10536.67
270.7556, 10524.55
271.2377, 10514.60
271.7198, 10507.09
272.2019, 10502.43
272.6840, 10500.96
273.1661, 10501.96
273.6483, 10506.93
274.1304, 10517.17
274.6125, 10519.48
275.0946, 10510.25
275.5767, 10497.24
276.0588, 10495.12
276.5410, 10505.53
277.0231, 10516.80
277.5052, 10522.83
277.9873, 10523.26
278.4694, 10528.15
278.9515, 10538.56
279.4337, 10550.40
279.9158, 10557.60
280.3979, 10559.63
280.8800, 10561.48
281.3621, 10565.73
281.8442, 10571.87
282.3264, 10574.54
282.8085, 10574.08
283.2906, 10569.89
283.7727, 10558.80
284.2548, 10540.85
284.7369, 10527.61
285.2191, 10524.60
285.7012, 10528.86
286.1833, 10526.80
286.6654, 10517.55
287.1475, 10508.01
287.6296, 10506.13
288.1118, 10510.99
288.5939, 10513.57
289.0760, 10511.58
289.5581, 10505.98
290.0402, 10497.39
290.5223, 10485.52
291.0045, 10476.22
291.4866, 10478.49
291.9687, 10488.68
292.4508, 10488.72
292.9329, 10473.16
293.4150, 10449.65
293.8972, 10428.90
294.3793, 10411.05
294.8614, 10396.88
295.3435, 10389.40
295.8256, 10386.31
296.3077, 10381.09
296.7899, 10372.79
297.2720, 10363.12
297.7541, 10352.60
298.2362, 10342.09
298.7183, 10335.31
299.2004, 10339.87
299.6826, 10348.33
300.1647, 10344.96
300.6468, 10327.05
301.1289, 10306.47
301.6110, 10293.60
302.0931, 10287.38
302.5753, 10284.83
303.0574, 10288.86
303.5395, 10293.90
304.0216, 10292.30
304.5037, 10283.85
304.9858, 10272.47
305.4680, 10259.96
305.9501, 10247.08
306.4322, 10235.14
306.9143, 10224.48
307.3964, 10215.18
307.8785, 10206.21
308.3607, 10198.01
308.8428, 10193.61
309.3249, 10199.96
309.8070, 10209.52
310.2891, 10212.82
310.7712, 10202.06
311.2534, 10190.83
311.7355, 10188.45
312.2176, 10193.35
312.6997, 10200.09
313.1818, 10211.39
313.6639, 10219.89
314.1461, 10218.10
314.6282, 10198.85
315.1103, 10181.30
315.5924, 10177.22
316.0745, 10181.76
316.5566, 10184.81
317.0388, 10181.50
317.5209, 10176.24
318.0030, 10172.71
318.4851, 10173.18
318.9672, 10168.17
319.4493, 10145.63
319.9315, 10118.20
320.4136, 10102.39
320.8957, 10115.43
321.3778, 10129.73
321.8599, 10135.43
322.3420, 10131.39
322.8242, 10125.42
323.3063, 10115.33
323.7884, 10105.81
324.2705, 10100.91
324.7526, 10105.96
325.2347, 10110.73
325.7169, 10114.49
326.1990, 10117.01
326.6811, 10115.07
327.1632, 10102.95
327.6453, 10090.05
328.1274, 10081.60
328.6096, 10082.78
329.0917, 10082.05
329.5738, 10077.84
330.0559, 10071.44
330.5380, 10067.01
331.0201, 10067.93
331.5023, 10067.21
331.9844, 10061.30
332.4665, 10046.29
332.9486, 10036.04
333.4307, 10033.16
333.9128, 10033.66
334.3950, 10030.10
334.8771, 10017.90
335.3592, 10010.43
335.8413, 10014.90
336.3234, 10033.84
336.8055, 10037.53
337.2877, 10019.25
337.7698, 9994.901
338.2519, 9982.671
338.7340, 9986.149
339.2161, 9987.920
339.6982, 9983.063
340.1803, 9973.264
340.6624, 9970.392
341.1446, 9976.572
341.6267, 9982.706
342.1088, 9980.311
342.5909, 9969.016
343.0730, 9961.797
343.5551, 9961.960
344.0373, 9965.320
344.5194, 9961.432
345.0015, 9949.908
345.4836, 9938.056
345.9657, 9930.290
346.4478, 9925.979
346.9300, 9921.911
347.4121, 9917.944
347.8942, 9914.066
348.3763, 9908.799
348.8584, 9902.975
349.3405, 9900.911
349.8227, 9908.401
350.3048, 9920.401
350.7869, 9926.245
351.2690, 9925.978
351.7511, 9922.400
352.2332, 9915.565
352.7154, 9907.447
353.1975, 9902.069
353.6796, 9899.892
354.1617, 9901.691
354.6438, 9911.078
355.1259, 9926.386
355.6081, 9939.258
356.0902, 9944.979
356.5723, 9944.799
357.0544, 9938.906
357.5365, 9924.280
358.0186, 9910.842
358.5008, 9908.506
358.9829, 9912.342
359.4650, 9911.879
359.9471, 9895.393
360.4292, 9878.138
360.9113, 9872.143
361.3935, 9880.744
361.8756, 9885.495
362.3577, 9876.092
362.8398, 9860.100
363.3219, 9846.107
363.8040, 9839.971
364.2862, 9833.150
364.7683, 9823.743
365.2504, 9811.659
365.7325, 9796.305
366.2146, 9771.108
366.6967, 9746.770
367.1789, 9729.932
367.6610, 9727.174
368.1431, 9724.995
368.6252, 9723.064
369.1073, 9721.089
369.5894, 9718.236
370.0716, 9713.564
370.5537, 9708.911
371.0358, 9705.143
371.5179, 9703.226
372.0000, 9698.762
372.4821, 9689.287
372.9643, 9678.869
373.4464, 9673.442
373.9285, 9675.741
374.4106, 9676.953
374.8927, 9674.193
375.3748, 9667.596
375.8570, 9664.307
376.3391, 9665.600
376.8212, 9667.168
377.3033, 9664.616
377.7854, 9657.055
378.2675, 9651.909
378.7497, 9650.269
379.2318, 9651.538
379.7139, 9656.638
380.1960, 9666.385
380.6781, 9670.751
381.1602, 9659.775
381.6424, 9636.662
382.1245, 9622.427
382.6066, 9619.251
383.0887, 9619.857
383.5708, 9615.711
384.0529, 9607.455
384.5351, 9597.592
385.0172, 9585.080
385.4993, 9572.729
385.9814, 9565.264
386.4635, 9562.605
386.9456, 9562.343
387.4278, 9563.464
387.9099, 9565.445
388.3920, 9567.805
388.8741, 9571.416
389.3562, 9573.377
389.8383, 9567.938
390.3205, 9558.176
390.8026, 9553.045
391.2847, 9564.767
391.7668, 9578.021
392.2489, 9580.383
392.7310, 9568.799
393.2132, 9554.338
393.6953, 9539.857
394.1774, 9526.529
394.6595, 9515.696
395.1416, 9504.807
395.6237, 9499.584
396.1059, 9506.713
396.5880, 9525.036
397.0701, 9535.432
397.5522, 9528.263
398.0343, 9515.876
398.5164, 9505.455
398.9986, 9493.692
399.4807, 9489.268
399.9628, 9499.216
400.4449, 9516.228
400.9270, 9522.843
401.4091, 9509.393
401.8913, 9498.158
402.3734, 9497.635
402.8555, 9510.764
403.3376, 9517.305
403.8197, 9513.619
404.3018, 9507.479
404.7840, 9507.920
405.2661, 9517.322
405.7482, 9524.529
406.2303, 9526.635
406.7124, 9524.974
407.1945, 9524.846
407.6767, 9525.829
408.1588, 9529.783
408.6409, 9538.920
409.1230, 9552.813
409.6051, 9566.760
410.0872, 9580.747
410.5694, 9593.905
411.0515, 9604.832
411.5336, 9613.717
412.0157, 9621.108
412.4978, 9624.024
412.9799, 9626.729
413.4621, 9639.730
413.9442, 9663.018
414.4263, 9686.729
414.9084, 9704.180
415.3905, 9716.710
415.8727, 9725.740
416.3548, 9727.974
416.8369, 9733.262
417.3190, 9753.677
417.8011, 9784.155
418.2832, 9811.620
418.7654, 9824.126
419.2475, 9834.706
419.7296, 9852.497
420.2117, 9879.518
420.6938, 9907.424
421.1759, 9932.185
421.6581, 9956.189
422.1402, 9982.311
422.6223, 10015.56
423.1044, 10046.00
423.5865, 10069.32
424.0686, 10086.40
424.5508, 10105.42
425.0329, 10130.66
425.5150, 10154.99
425.9971, 10175.39
426.4792, 10191.66
426.9613, 10204.53
427.4435, 10213.33
427.9256, 10219.21
428.4077, 10223.58
428.8898, 10225.57
429.3719, 10228.53
429.8540, 10235.12
430.3362, 10244.58
430.8183, 10245.38
431.3004, 10236.65
431.7825, 10221.68
432.2646, 10200.80
432.7467, 10174.03
433.2289, 10151.23
433.7110, 10134.61
434.1931, 10121.58
434.6752, 10110.46
435.1573, 10100.50
435.6394, 10084.34
436.1216, 10054.31
436.6036, 10015.82
437.0858, 9982.362
437.5679, 9954.186
438.0500, 9924.819
438.5321, 9886.921
439.0142, 9844.292
439.4963, 9803.521
439.9785, 9767.926
440.4606, 9732.896
440.9427, 9695.424
441.4248, 9655.935
441.9069, 9615.922
442.3890, 9573.993
442.8712, 9533.527
443.3533, 9497.482
443.8354, 9467.196
444.3175, 9436.234
444.7996, 9399.308
445.2817, 9362.245
445.7639, 9330.814
446.2460, 9310.104
446.7281, 9290.316
447.2102, 9269.774
447.6923, 9248.463
448.1744, 9227.826
448.6566, 9205.851
449.1387, 9186.274
449.6208, 9171.298
450.1029, 9163.098
450.5850, 9152.178
451.0671, 9137.657
451.5493, 9121.440
452.0314, 9105.929
452.5135, 9091.106
452.9956, 9078.166
453.4777, 9068.672
453.9598, 9061.342
454.4420, 9049.813
454.9241, 9033.941
455.4062, 9016.532
455.8883, 8997.497
456.3704, 8978.229
456.8525, 8965.842
457.3347, 8961.970
457.8168, 8962.736
458.2989, 8966.045
458.7810, 8970.601
459.2631, 8972.436
459.7452, 8968.891
460.2274, 8962.352
460.7095, 8954.307
461.1916, 8945.035
461.6737, 8937.392
462.1558, 8933.208
462.6379, 8931.281
463.1201, 8930.740
463.6022, 8932.071
464.0843, 8933.012
464.5664, 8931.128
465.0485, 8928.443
465.5306, 8928.218
466.0128, 8933.917
466.4949, 8939.376
466.9770, 8942.965
467.4591, 8944.599
467.9412, 8944.909
468.4233, 8943.749
468.9055, 8941.548
469.3876, 8938.302
469.8697, 8932.600
470.3518, 8929.554
470.8339, 8930.861
471.3160, 8933.928
471.7982, 8933.680
472.2803, 8929.502
472.7624, 8924.728
473.2445, 8920.711
473.7266, 8917.047
474.2087, 8911.929
474.6909, 8905.445
475.1730, 8896.269
475.6551, 8880.821
476.1372, 8861.055
476.6193, 8846.006
477.1014, 8838.004
477.5836, 8831.967
478.0657, 8822.908
478.5478, 8810.822
479.0299, 8796.060
479.5120, 8778.770
479.9941, 8758.684
480.4763, 8732.395
480.9584, 8701.042
481.4405, 8676.168
481.9226, 8672.014
482.4047, 8672.482
482.8868, 8663.877
483.3690, 8638.795
483.8511, 8614.698
484.3332, 8597.290
484.8153, 8583.918
485.2974, 8569.850
485.7795, 8554.191
486.2617, 8538.260
486.7438, 8521.455
487.2259, 8503.809
487.7080, 8489.729
488.1901, 8480.704
488.6722, 8473.209
489.1544, 8465.435
489.6365, 8457.929
490.1186, 8447.960
490.6007, 8434.225
491.0828, 8419.810
491.5649, 8409.682
492.0471, 8404.085
492.5292, 8398.671
493.0113, 8391.606
493.4934, 8383.924
493.9755, 8379.324
494.4576, 8377.576
494.9398, 8374.420
495.4219, 8366.670
495.9040, 8355.239
496.3861, 8340.623
496.8682, 8321.520
497.3503, 8305.665
497.8325, 8304.678
498.3146, 8309.986
498.7967, 8308.273
499.2788, 8286.250
499.7609, 8263.783
500.2430, 8253.253
500.7252, 8251.767
501.2073, 8245.580
501.6894, 8222.412
502.1715, 8200.646
502.6536, 8190.077
503.1357, 8197.228
503.6179, 8199.787
504.1000, 8195.493
504.5821, 8187.492
505.0642, 8178.255
505.5463, 8165.522
506.0284, 8156.571
506.5106, 8153.942
506.9927, 8155.141
507.4748, 8151.799
507.9569, 8142.997
508.4390, 8133.454
508.9211, 8124.452
509.4033, 8116.243
509.8854, 8112.425
510.3675, 8113.485
510.8496, 8114.570
511.3317, 8109.915
511.8138, 8101.464
512.2960, 8094.657
512.7781, 8091.026
513.2602, 8088.655
513.7423, 8087.538
514.2244, 8086.259
514.7065, 8081.303
515.1887, 8065.908
515.6708, 8050.306
516.1529, 8041.827
516.6350, 8040.534
517.1171, 8040.241
517.5992, 8041.268
518.0814, 8040.972
518.5635, 8037.502
519.0456, 8028.619
519.5277, 8019.810
520.0098, 8009.608
520.4919, 8000.369
520.9741, 7996.384
521.4562, 8002.194
521.9383, 8003.825
522.4204, 7996.143
522.9025, 7981.277
523.3846, 7974.041
523.8668, 7976.203
524.3489, 7978.411
524.8310, 7973.658
525.3131, 7962.931
525.7952, 7955.739
526.2773, 7952.848
526.7595, 7951.044
527.2416, 7947.815
527.7237, 7942.903
528.2058, 7935.363
528.6879, 7924.270
529.1700, 7911.696
529.6522, 7897.171
530.1343, 7882.637
530.6164, 7873.142
531.0985, 7877.073
531.5806, 7882.480
532.0627, 7881.276
532.5449, 7872.489
533.0270, 7865.086
533.5091, 7863.088
533.9912, 7862.366
534.4733, 7860.025
534.9554, 7855.486
535.4376, 7849.240
535.9197, 7838.302
536.4018, 7826.975
536.8839, 7824.266
537.3660, 7834.532
537.8481, 7841.224
538.3303, 7839.125
538.8124, 7829.819
539.2945, 7822.127
539.7766, 7816.335
540.2587, 7809.830
540.7408, 7798.955
541.2230, 7785.674
541.7051, 7778.854
542.1872, 7779.907
542.6693, 7781.430
543.1514, 7774.461
543.6335, 7763.057
544.1157, 7754.509
544.5978, 7752.023
545.0799, 7751.810
545.5620, 7751.324
546.0441, 7751.134
546.5262, 7752.620
547.0084, 7761.727
547.4905, 7767.638
547.9726, 7764.114
548.4547, 7749.949
548.9368, 7738.083
549.4189, 7728.817
549.9011, 7722.671
550.3832, 7720.424
550.8653, 7724.755
551.3474, 7726.308
551.8295, 7724.090
552.3116, 7719.910
552.7938, 7716.774
553.2759, 7714.948
553.7580, 7711.070
554.2401, 7703.376
554.7222, 7693.817
555.2043, 7687.889
555.6865, 7685.323
556.1686, 7682.201
556.6507, 7676.200
557.1328, 7668.251
557.6149, 7658.733
558.0970, 7647.732
558.5792, 7638.444
559.0613, 7634.124
559.5434, 7632.394
560.0255, 7631.008
560.5076, 7629.981
560.9897, 7628.420
561.4719, 7625.560
561.9540, 7622.065
562.4361, 7619.078
562.9182, 7616.794
563.4003, 7614.900
563.8824, 7614.403
564.3646, 7614.567
564.8467, 7609.384
565.3288, 7594.876
565.8109, 7582.905
566.2930, 7581.429
566.7751, 7590.981
567.2573, 7593.478
567.7394, 7587.888
568.2215, 7579.750
568.7036, 7575.501
569.1857, 7573.691
569.6678, 7567.866
570.1500, 7554.895
570.6321, 7542.174
571.1142, 7541.327
571.5963, 7547.400
572.0784, 7549.193
572.5605, 7538.855
573.0427, 7525.409
573.5248, 7513.202
574.0069, 7502.495
574.4890, 7492.967
574.9711, 7485.414
575.4532, 7478.647
575.9354, 7472.187
576.4175, 7465.940
576.8996, 7460.445
577.3817, 7455.894
577.8638, 7451.970
578.3459, 7448.409
578.8281, 7445.371
579.3102, 7442.069
579.7923, 7438.409
580.2744, 7434.294
580.7565, 7429.259
581.2386, 7423.346
581.7208, 7418.248
582.2029, 7415.860
582.6850, 7413.693
583.1671, 7406.664
583.6492, 7395.368
584.1313, 7383.348
584.6134, 7369.612
585.0955, 7358.131
585.5776, 7354.000
586.0598, 7358.481
586.5419, 7362.356
587.0240, 7364.741
587.5061, 7363.252
587.9882, 7355.716
588.4703, 7332.296
588.9525, 7316.116
589.4346, 7310.758
589.9167, 7311.784
590.3988, 7312.771
590.8809, 7314.895
591.3630, 7313.267
591.8452, 7305.329
592.3273, 7293.118
592.8094, 7284.337
593.2915, 7278.985
593.7736, 7276.014
594.2557, 7278.031
594.7379, 7281.638
595.2200, 7276.271
595.7021, 7261.828
596.1842, 7246.560
596.6663, 7235.595
597.1484, 7228.293
597.6306, 7224.899
598.1127, 7227.712
598.5948, 7228.028
599.0769, 7218.021
599.5590, 7204.616
600.0411, 7196.465
600.5233, 7202.345
601.0054, 7205.658
601.4875, 7204.193
601.9696, 7198.370
602.4517, 7188.515
602.9338, 7171.342
603.4160, 7157.144
603.8981, 7150.216
604.3802, 7149.743
604.8623, 7147.063
605.3444, 7141.667
605.8265, 7137.780
606.3087, 7141.207
606.7908, 7148.501
607.2729, 7148.719
607.7550, 7140.100
608.2371, 7131.261
608.7192, 7130.460
609.2014, 7134.011
609.6835, 7137.181
610.1656, 7140.504
610.6477, 7139.919
611.1298, 7129.130
611.6119, 7113.988
612.0941, 7104.748
612.5762, 7110.099
613.0583, 7114.167
613.5404, 7113.700
614.0225, 7109.280
614.5046, 7103.478
614.9868, 7095.228
615.4689, 7088.102
615.9510, 7083.698
616.4331, 7081.961
616.9152, 7082.178
617.3973, 7084.700
617.8795, 7086.043
618.3616, 7082.216
618.8437, 7074.956
619.3258, 7068.542
619.8079, 7063.720
620.2900, 7058.930
620.7722, 7052.370
621.2543, 7045.153
621.7364, 7038.915
622.2185, 7034.349
622.7006, 7030.604
623.1827, 7027.801
623.6649, 7025.595
624.1470, 7023.090
624.6291, 7018.589
625.1112, 7015.735
625.5933, 7016.042
626.0754, 7018.856
626.5576, 7019.791
627.0397, 7018.770
627.5218, 7015.831
628.0039, 7009.832
628.4860, 7001.319
628.9681, 6995.006
629.4503, 6990.866
629.9324, 6989.323
630.4145, 6994.204
630.8966, 7001.073
631.3787, 7001.594
631.8608, 6993.337
632.3430, 6983.185
632.8251, 6974.475
633.3072, 6967.156
633.7893, 6961.002
634.2714, 6957.362
634.7535, 6953.345
635.2357, 6947.851
635.7178, 6941.596
636.1999, 6935.884
636.6820, 6929.021
637.1641, 6925.970
637.6462, 6929.424
638.1284, 6937.600
638.6105, 6941.333
639.0926, 6940.343
639.5747, 6936.965
640.0568, 6930.080
640.5389, 6921.951
641.0211, 6921.217
641.5032, 6927.799
641.9853, 6933.334
642.4674, 6931.517
642.9495, 6925.112
643.4316, 6916.191
643.9138, 6904.185
644.3959, 6894.277
644.8780, 6891.399
645.3601, 6890.678
645.8422, 6887.371
646.3243, 6875.743
646.8065, 6868.590
647.2886, 6868.485
647.7707, 6871.886
648.2528, 6872.908
648.7349, 6871.672
649.2170, 6866.725
649.6992, 6855.129
650.1813, 6841.698
650.6634, 6842.063
651.1455, 6854.600
651.6276, 6863.063
652.1097, 6853.294
652.5919, 6837.248
653.0740, 6829.709
653.5561, 6830.435
654.0382, 6835.246
654.5203, 6848.675
655.0024, 6860.221
655.4846, 6861.065
655.9667, 6847.013
656.4488, 6837.866
656.9309, 6840.934
657.4130, 6846.185
657.8951, 6847.178
658.3773, 6842.991
658.8594, 6836.523
659.3415, 6826.657
659.8236, 6816.661
660.3057, 6812.249
660.7878, 6812.769
661.2700, 6810.240
661.7521, 6802.110
662.2342, 6791.991
662.7163, 6782.541
663.1984, 6774.852
663.6805, 6771.444
664.1627, 6777.979
664.6448, 6785.107
665.1269, 6788.573
665.6090, 6788.399
666.0911, 6784.745
666.5732, 6769.966
667.0554, 6759.814
667.5375, 6762.144
668.0196, 6776.699
668.5017, 6781.163
668.9838, 6771.471
669.4659, 6761.190
669.9481, 6759.401
670.4302, 6765.370
670.9123, 6767.537
671.3944, 6765.653
671.8765, 6760.782
672.3586, 6751.263
672.8408, 6740.175
673.3229, 6733.145
673.8050, 6731.614
674.2871, 6731.694
674.7692, 6731.814
675.2513, 6731.833
675.7335, 6731.627
676.2156, 6734.356
676.6977, 6732.978
677.1798, 6724.358
677.6619, 6712.239
678.1440, 6701.397
678.6262, 6690.687
679.1083, 6684.728
679.5904, 6685.398
680.0725, 6690.438
680.5546, 6695.017
681.0367, 6699.037
681.5189, 6701.328
682.0010, 6699.996
682.4831, 6697.368
682.9652, 6696.827
683.4473, 6698.111
683.9294, 6700.177
684.4116, 6705.077
684.8937, 6708.378
685.3758, 6706.490
685.8579, 6699.026
686.3400, 6692.189
686.8221, 6687.026
687.3043, 6682.920
687.7864, 6679.538
688.2685, 6676.725
688.7506, 6676.232
689.2327, 6678.983
689.7148, 6681.701
690.1970, 6680.028
690.6791, 6675.038
691.1612, 6674.474
691.6433, 6679.892
692.1254, 6685.764
692.6075, 6688.071
693.0897, 6686.690
693.5718, 6680.876
694.0539, 6667.160
694.5360, 6655.226
695.0181, 6649.618
695.5002, 6648.449
695.9824, 6648.589
696.4645, 6649.265
696.9466, 6651.954
697.4287, 6657.843
697.9108, 6665.475
698.3929, 6671.650
698.8751, 6676.716
699.3572, 6678.360
699.8393, 6674.269
700.3214, 6667.542
700.8035, 6666.206
701.2856, 6669.427
701.7678, 6672.473
702.2499, 6671.746
702.7320, 6670.144
703.2141, 6669.813
703.6962, 6670.831
704.1783, 6673.466
704.6605, 6679.340
705.1426, 6685.389
705.6247, 6690.180
706.1068, 6693.614
706.5889, 6695.689
707.0710, 6695.395
707.5532, 6695.333
708.0353, 6697.181
708.5174, 6700.956
708.9995, 6705.759
709.4816, 6711.810
709.9637, 6717.792
710.4459, 6724.135
710.9280, 6729.288
711.4101, 6727.870
711.8922, 6716.715
712.3743, 6711.590
712.8564, 6729.745
713.3386, 6755.967
713.8207, 6774.390
714.3028, 6774.827
714.7849, 6777.025
715.2670, 6782.294
715.7491, 6790.081
716.2313, 6799.872
716.7134, 6811.519
717.1955, 6825.003
717.6776, 6840.727
718.1597, 6857.357
718.6418, 6871.547
719.1240, 6884.068
719.6061, 6899.842
720.0882, 6923.743
720.5703, 6947.488
721.0524, 6962.612
721.5345, 6970.780
722.0167, 6976.027
722.4988, 6973.796
722.9809, 6975.410
723.4630, 6987.823
723.9451, 7008.612
724.4272, 7024.917
724.9094, 7034.410
725.3915, 7044.030
725.8736, 7055.958
726.3557, 7070.056
726.8378, 7086.833
727.3199, 7106.544
727.8021, 7124.326
728.2842, 7136.857
728.7663, 7145.632
729.2484, 7152.742
729.7305, 7158.072
730.2126, 7161.070
730.6948, 7160.717
731.1769, 7158.186
731.6590, 7153.274
732.1411, 7145.129
732.6232, 7139.718
733.1053, 7139.840
733.5875, 7139.767
734.0696, 7136.970
734.5517, 7131.910
735.0338, 7119.943
735.5159, 7100.081
735.9980, 7077.647
736.4802, 7057.164
736.9623, 7038.231
737.4444, 7020.621
737.9265, 7004.625
738.4086, 6987.163
738.8907, 6963.357
739.3729, 6938.034
739.8550, 6917.005
740.3371, 6904.405
740.8192, 6889.685
741.3013, 6868.626
741.7834, 6846.117
742.2656, 6827.407
742.7477, 6814.517
743.2298, 6796.990
743.7119, 6771.780
744.1940, 6745.938
744.6761, 6732.606
745.1583, 6728.888
745.6404, 6720.669
746.1225, 6702.756
746.6046, 6682.764
747.0867, 6666.290
747.5688, 6653.275
748.0510, 6643.780
748.5331, 6645.433
749.0152, 6641.811
749.4973, 6624.124
749.9794, 6599.235
750.4615, 6580.498
750.9437, 6568.965
751.4258, 6561.970
751.9079, 6560.646
752.3900, 6562.001
752.8721, 6557.967
753.3542, 6549.117
753.8364, 6540.258
754.3185, 6533.402
754.8006, 6527.595
755.2827, 6521.863
755.7648, 6516.277
756.2469, 6511.269
756.7291, 6506.991
757.2112, 6503.296
757.6933, 6499.889
758.1754, 6496.919
758.6575, 6495.245
759.1396, 6495.934
759.6218, 6495.575
760.1039, 6492.024
760.5860, 6486.664
761.0681, 6486.356
761.5502, 6491.000
762.0323, 6495.595
762.5145, 6496.337
762.9966, 6495.983
763.4787, 6498.060
763.9608, 6502.505
764.4429, 6508.280
764.9250, 6520.557
765.4072, 6529.051
765.8893, 6524.617
766.3714, 6506.319
766.8535, 6500.322
767.3356, 6511.946
767.8177, 6526.328
768.2999, 6536.088
768.7820, 6541.728
769.2641, 6550.290
769.7462, 6561.795
770.2283, 6570.260
770.7104, 6565.742
771.1926, 6558.088
771.6747, 6562.871
772.1568, 6580.542
772.6389, 6597.721
773.1210, 6607.245
773.6031, 6614.865
774.0853, 6623.515
774.5674, 6633.178
775.0495, 6646.372
775.5316, 6665.122
776.0137, 6684.220
776.4958, 6698.123
776.9780, 6707.574
777.4601, 6729.608
777.9422, 6765.200
778.4243, 6803.207
778.9064, 6831.867
779.3885, 6858.692
779.8707, 6894.505
780.3528, 6940.892
780.8349, 6991.281
781.3170, 7040.730
781.7991, 7093.884
782.2812, 7154.950
782.7633, 7226.446
783.2454, 7296.661
783.7275, 7363.353
784.2097, 7430.261
784.6918, 7495.216
785.1739, 7559.852
785.6560, 7650.985
786.1381, 7772.716
786.6202, 7896.604
787.1024, 7989.796
787.5845, 8073.612
788.0666, 8172.707
788.5487, 8293.052
789.0308, 8423.303
789.5129, 8569.445
789.9951, 8718.703
790.4772, 8859.472
790.9593, 8990.346
791.4414, 9121.959
791.9235, 9259.540
792.4056, 9389.802
792.8878, 9504.307
793.3699, 9601.912
793.8520, 9680.223
794.3341, 9739.971
794.8162, 9778.144
795.2983, 9786.564
795.7805, 9776.432
796.2626, 9759.869
796.7447, 9739.178
797.2268, 9712.584
797.7089, 9672.791
798.1910, 9631.600
798.6732, 9596.978
799.1553, 9566.646
799.6374, 9550.221
800.1195, 9548.459
800.6016, 9559.146
801.0837, 9585.864
801.5659, 9623.333
802.0480, 9655.569
802.5301, 9679.856
803.0122, 9700.469
803.4943, 9716.862
803.9764, 9733.295
804.4586, 9754.923
804.9407, 9787.126
805.4228, 9813.408
805.9049, 9838.687
806.3870, 9851.514
806.8691, 9841.071
807.3513, 9805.283
807.8334, 9764.320
808.3155, 9719.979
808.7976, 9666.001
809.2797, 9593.630
809.7618, 9507.027
810.2440, 9414.357
810.7261, 9315.787
811.2082, 9215.670
811.6903, 9113.615
812.1724, 9012.483
812.6545, 8916.229
813.1367, 8826.290
813.6188, 8735.611
814.1009, 8641.854
814.5830, 8552.748
815.0651, 8475.476
815.5472, 8409.782
816.0294, 8353.133
816.5115, 8306.715
816.9936, 8260.454
817.4757, 8200.028
817.9578, 8137.598
818.4399, 8091.276
818.9221, 8068.185
819.4042, 8038.794
819.8863, 7990.840
820.3684, 7934.749
820.8505, 7879.515
821.3326, 7829.817
821.8148, 7758.376
822.2969, 7662.042
822.7790, 7554.573
823.2611, 7443.299
823.7432, 7331.360
824.2253, 7230.751
824.7075, 7142.807
825.1896, 7061.499
825.6717, 6980.310
826.1538, 6905.370
826.6359, 6843.837
827.1180, 6799.836
827.6002, 6753.462
828.0823, 6698.442
828.5644, 6646.464
829.0465, 6604.698
829.5286, 6573.849
830.0107, 6547.927
830.4929, 6527.633
830.9750, 6507.818
831.4571, 6482.667
831.9392, 6456.547
832.4213, 6437.192
832.9034, 6425.099
833.3856, 6413.560
833.8677, 6395.720
834.3498, 6380.911
834.8319, 6377.205
835.3140, 6385.236
835.7961, 6384.036
836.2783, 6369.836
836.7604, 6356.524
837.2425, 6353.777
837.7246, 6358.121
838.2067, 6354.587
838.6888, 6343.786
839.1710, 6332.679
839.6531, 6322.473
840.1352, 6316.328
840.6173, 6321.959
841.0994, 6337.266
841.5815, 6340.341
842.0637, 6311.625
842.5458, 6288.765
843.0279, 6286.805
843.5100, 6300.835
843.9921, 6298.129
844.4742, 6278.016
844.9564, 6259.392
845.4385, 6253.553
845.9206, 6253.842
846.4027, 6250.265
846.8848, 6244.217
847.3669, 6240.190
847.8491, 6241.663
848.3312, 6244.292
848.8133, 6247.436
849.2954, 6250.511
849.7775, 6251.379
850.2596, 6249.360
850.7418, 6246.849
851.2239, 6242.958
851.7060, 6240.618
852.1881, 6248.386
852.6702, 6263.917
853.1523, 6278.081
853.6345, 6286.986
854.1166, 6293.215
854.5987, 6296.859
855.0808, 6299.136
855.5629, 6302.615
856.0450, 6308.584
856.5272, 6314.603
857.0093, 6321.466
857.4914, 6327.277
857.9735, 6326.784
858.4556, 6320.663
858.9377, 6320.562
859.4199, 6330.594
859.9020, 6343.050
860.3841, 6348.613
860.8662, 6351.562
861.3483, 6358.406
861.8304, 6373.050
862.3126, 6387.792
862.7947, 6403.373
863.2768, 6416.348
863.7589, 6422.591
864.2410, 6420.509
864.7231, 6419.147
865.2053, 6418.471
865.6874, 6420.115
866.1695, 6429.375
866.6516, 6441.263
867.1337, 6445.452
867.6158, 6439.759
868.0980, 6431.236
868.5801, 6419.721
869.0622, 6409.564
869.5443, 6405.725
870.0264, 6411.039
870.5085, 6408.567
870.9907, 6396.229
871.4728, 6382.241
871.9549, 6373.347
872.4370, 6368.052
872.9191, 6359.106
873.4012, 6346.646
873.8834, 6335.911
874.3655, 6335.495
874.8476, 6334.146
875.3297, 6321.345
875.8118, 6296.896
876.2939, 6276.813
876.7761, 6264.078
877.2582, 6252.856
877.7403, 6240.901
878.2224, 6228.585
878.7045, 6218.944
879.1866, 6211.669
879.6688, 6203.487
880.1509, 6193.650
880.6330, 6181.306
881.1151, 6162.663
881.5972, 6140.582
882.0793, 6123.555
882.5615, 6117.686
883.0436, 6112.725
883.5257, 6107.025
884.0078, 6100.681
884.4899, 6093.727
884.9720, 6086.164
885.4542, 6078.698
885.9363, 6071.380
886.4184, 6064.585
886.9005, 6059.380
887.3826, 6054.871
887.8647, 6049.472
888.3469, 6042.099
888.8290, 6034.753
889.3111, 6027.272
889.7932, 6020.628
890.2753, 6015.952
890.7574, 6013.699
891.2396, 6011.112
891.7217, 6008.022
892.2038, 6004.192
892.6859, 5998.574
893.1680, 5992.184
893.6501, 5986.962
894.1323, 5983.124
894.6144, 5980.557
895.0965, 5980.897
895.5786, 5981.212
896.0607, 5978.710
896.5428, 5972.707
897.0250, 5971.659
897.5071, 5978.039
897.9892, 5981.384
898.4713, 5972.048
898.9534, 5955.109
899.4355, 5944.176
899.9177, 5939.103
900.3998, 5937.777
900.8819, 5943.595
901.3640, 5948.433
901.8461, 5946.212
902.3282, 5938.030
902.8104, 5932.982
903.2925, 5933.917
903.7746, 5930.414
904.2567, 5916.780
904.7388, 5899.806
905.2209, 5899.132
905.7031, 5910.173
906.1852, 5913.811
906.6673, 5897.216
907.1494, 5879.742
907.6315, 5875.968
908.1136, 5879.327
908.5958, 5879.474
909.0779, 5874.619
909.5600, 5867.403
910.0421, 5855.904
910.5242, 5845.856
911.0063, 5847.017
911.4885, 5856.687
911.9706, 5859.864
912.4527, 5853.699
912.9348, 5847.443
913.4169, 5850.173
913.8990, 5854.938
914.3812, 5854.625
914.8633, 5846.156
915.3454, 5842.538
915.8275, 5846.834
916.3096, 5851.058
916.7917, 5849.250
917.2739, 5842.812
917.7560, 5842.635
918.2381, 5848.120
918.7202, 5852.648
919.2023, 5851.263
919.6844, 5847.704
920.1666, 5844.630
920.6487, 5841.973
921.1308, 5838.876
921.6129, 5836.457
922.0950, 5831.642
922.5771, 5823.206
923.0593, 5812.601
923.5414, 5802.677
924.0235, 5793.760
924.5056, 5787.075
924.9877, 5783.484
925.4698, 5781.712
925.9520, 5782.896
926.4341, 5784.470
926.9162, 5782.792
927.3983, 5771.662
927.8804, 5765.641
928.3625, 5766.403
928.8447, 5770.047
929.3268, 5773.836
929.8089, 5777.298
930.2910, 5776.165
930.7731, 5769.784
931.2552, 5763.789
931.7374, 5762.102
932.2195, 5763.018
932.7016, 5765.953
933.1837, 5771.058
933.6658, 5773.688
934.1479, 5773.727
934.6301, 5770.951
935.1122, 5764.007
935.5943, 5754.487
936.0764, 5748.544
936.5585, 5746.170
937.0406, 5747.482
937.5228, 5757.834
938.0049, 5767.031
938.4870, 5765.684
938.9691, 5757.554
939.4512, 5751.695
939.9333, 5751.744
940.4155, 5749.196
940.8976, 5741.070
941.3797, 5732.794
941.8618, 5735.237
942.3439, 5745.755
942.8260, 5751.539
943.3082, 5749.938
943.7903, 5744.985
944.2724, 5734.458
944.7545, 5725.394
945.2366, 5725.782
945.7188, 5741.688
946.2009, 5748.638
946.6830, 5744.410
947.1651, 5736.388
947.6472, 5728.537
948.1293, 5720.956
948.6115, 5713.380
949.0936, 5706.059
949.5757, 5700.228
950.0578, 5697.561
950.5399, 5695.961
951.0220, 5692.931
951.5042, 5689.876
951.9863, 5693.233
952.4684, 5708.450
952.9505, 5715.048
953.4326, 5706.214
953.9147, 5690.427
954.3969, 5681.387
954.8790, 5677.746
955.3611, 5675.849
955.8432, 5674.813
956.3253, 5674.972
956.8074, 5677.552
957.2896, 5680.659
957.7717, 5682.856
958.2538, 5685.000
958.7359, 5680.958
959.2180, 5668.539
959.7001, 5658.632
960.1823, 5664.176
960.6644, 5677.100
961.1465, 5680.757
961.6286, 5675.249
962.1107, 5667.341
962.5928, 5656.832
963.0750, 5648.163
963.5571, 5643.736
964.0392, 5642.653
964.5213, 5642.922
965.0034, 5645.386
965.4855, 5642.095
965.9677, 5628.665
966.4498, 5612.829
966.9319, 5605.062
967.4140, 5602.908
967.8961, 5602.328
968.3782, 5603.425
968.8604, 5603.851
969.3425, 5604.696
969.8246, 5603.319
970.3067, 5595.745
970.7888, 5581.585
971.2709, 5573.875
971.7531, 5573.163
972.2352, 5574.750
972.7173, 5574.442
973.1994, 5574.654
973.6815, 5580.555
974.1636, 5591.100
974.6458, 5593.082
975.1279, 5574.576
975.6100, 5561.480
976.0921, 5562.547
976.5742, 5572.480
977.0563, 5577.257
977.5385, 5577.480
978.0206, 5576.411
978.5027, 5574.701
978.9848, 5573.167
979.4669, 5574.215
979.9490, 5575.124
980.4311, 5572.085
980.9132, 5561.976
981.3953, 5554.141
981.8774, 5548.724
982.3596, 5545.369
982.8417, 5545.561
983.3238, 5547.403
983.8059, 5543.937
984.2880, 5535.394
984.7701, 5528.919
985.2523, 5531.306
985.7344, 5534.149
986.2165, 5532.929
986.6986, 5528.270
987.1807, 5522.419
987.6628, 5515.065
988.1450, 5508.473
988.6271, 5503.240
989.1092, 5499.280
989.5913, 5497.070
990.0734, 5495.946
990.5555, 5494.953
991.0377, 5495.547
991.5198, 5492.573
992.0019, 5479.207
992.4840, 5467.337
992.9661, 5467.618
993.4482, 5480.628
993.9304, 5488.014
994.4125, 5489.543
994.8946, 5487.697
995.3767, 5481.079
995.8588, 5474.446
996.3409, 5473.341
996.8231, 5476.810
997.3052, 5477.750
997.7873, 5472.450
998.2694, 5469.360
998.7515, 5470.718
999.2336, 5474.595
999.7158, 5477.769
1000.198, 5480.148
1000.680, 5482.031
1001.162, 5484.622
1001.644, 5482.651
1002.126, 5467.099
1002.608, 5449.274
1003.091, 5440.518
1003.573, 5443.114
1004.055, 5441.640
1004.537, 5435.372
1005.019, 5428.593
1005.501, 5423.341
1005.983, 5419.928
1006.465, 5419.741
1006.948, 5421.933
1007.430, 5423.236
1007.912, 5424.234
1008.394, 5421.524
1008.876, 5411.695
1009.358, 5399.802
1009.840, 5396.022
1010.322, 5400.040
1010.804, 5400.349
1011.287, 5394.440
1011.769, 5388.008
1012.251, 5385.769
1012.733, 5386.126
1013.215, 5388.636
1013.697, 5394.220
1014.179, 5393.844
1014.661, 5383.958
1015.143, 5375.610
1015.626, 5375.591
1016.108, 5380.419
1016.590, 5378.817
1017.072, 5372.540
1017.554, 5368.013
1018.036, 5370.905
1018.518, 5373.085
1019.000, 5369.958
1019.483, 5364.734
1019.965, 5361.723
1020.447, 5361.168
1020.929, 5361.508
1021.411, 5362.769
1021.893, 5363.704
1022.375, 5364.106
1022.857, 5362.868
1023.339, 5357.907
1023.822, 5349.230
1024.304, 5340.718
1024.786, 5333.073
1025.268, 5326.231
1025.750, 5320.272
1026.232, 5315.268
1026.714, 5310.539
1027.196, 5306.717
1027.679, 5307.383
1028.161, 5315.805
1028.643, 5324.073
1029.125, 5328.603
1029.607, 5329.320
1030.089, 5325.165
1030.571, 5313.685
1031.053, 5307.909
1031.536, 5308.740
1032.018, 5310.351
1032.500, 5308.802
1032.982, 5305.013
1033.464, 5299.298
1033.946, 5292.454
1034.428, 5287.494
1034.910, 5286.260
1035.392, 5286.464
1035.875, 5288.887
1036.357, 5291.267
1036.839, 5288.954
1037.321, 5282.542
1037.803, 5277.604
1038.285, 5275.321
1038.767, 5272.359
1039.249, 5262.665
1039.731, 5253.644
1040.214, 5254.171
1040.696, 5265.572
1041.178, 5264.415
1041.660, 5246.560
1042.142, 5231.614
1042.624, 5229.307
1043.106, 5233.570
1043.588, 5234.414
1044.071, 5232.938
1044.553, 5231.667
1045.035, 5231.999
1045.517, 5231.938
1045.999, 5232.151
1046.481, 5230.853
1046.963, 5225.535
1047.445, 5216.549
1047.927, 5209.401
1048.410, 5204.235
1048.892, 5201.143
1049.374, 5201.498
1049.856, 5202.704
1050.338, 5203.705
1050.820, 5203.970
1051.302, 5201.957
1051.784, 5197.399
1052.266, 5191.083
1052.749, 5182.487
1053.231, 5174.077
1053.713, 5170.315
1054.195, 5168.755
1054.677, 5164.462
1055.159, 5155.563
1055.641, 5150.127
1056.123, 5153.892
1056.606, 5157.516
1057.088, 5156.573
1057.570, 5151.972
1058.052, 5148.881
1058.534, 5147.002
1059.016, 5144.343
1059.498, 5139.476
1059.980, 5134.228
1060.463, 5128.807
1060.945, 5124.157
1061.427, 5121.409
1061.909, 5120.414
1062.391, 5122.578
1062.873, 5128.544
1063.355, 5133.985
1063.837, 5135.712
1064.319, 5134.239
1064.802, 5129.343
1065.284, 5121.566
1065.766, 5113.810
1066.248, 5105.114
1066.730, 5098.966
1067.212, 5096.105
1067.694, 5095.914
1068.176, 5100.189
1068.658, 5106.437
1069.141, 5103.427
1069.623, 5087.585
1070.105, 5073.882
1070.587, 5074.741
1071.069, 5077.429
1071.551, 5072.235
1072.033, 5060.070
1072.515, 5054.691
1072.998, 5056.410
1073.480, 5057.690
1073.962, 5054.443
1074.444, 5050.438
1074.926, 5050.691
1075.408, 5052.577
1075.890, 5051.858
1076.372, 5044.470
1076.854, 5041.591
1077.337, 5045.230
1077.819, 5048.007
1078.301, 5040.957
1078.783, 5029.433
1079.265, 5028.469
1079.747, 5035.931
1080.229, 5039.205
1080.711, 5029.021
1081.193, 5018.377
1081.676, 5009.521
1082.158, 5003.155
1082.640, 5001.596
1083.122, 5004.263
1083.604, 5006.021
1084.086, 5006.161
1084.568, 5004.846
1085.050, 5000.849
1085.532, 4996.565
1086.015, 4994.828
1086.497, 4995.057
1086.979, 4990.451
1087.461, 4980.073
1087.943, 4971.837
1088.425, 4969.325
1088.907, 4968.137
1089.389, 4962.591
1089.872, 4954.693
1090.354, 4946.849
1090.836, 4938.112
1091.318, 4934.538
1091.800, 4938.617
1092.282, 4942.753
1092.764, 4942.102
1093.246, 4937.918
1093.729, 4933.991
1094.211, 4929.872
1094.693, 4924.292
1095.175, 4912.358
1095.657, 4904.263
1096.139, 4903.858
1096.621, 4907.475
1097.103, 4913.131
1097.585, 4920.519
1098.068, 4920.941
1098.550, 4914.068
1099.032, 4905.669
1099.514, 4898.016
1099.996, 4892.100
1100.478, 4889.216
1100.960, 4888.726
1101.442, 4888.153
1101.924, 4887.560
1102.407, 4886.708
1102.889, 4885.619
1103.371, 4883.875
1103.853, 4880.305
1104.335, 4876.135
1104.817, 4872.685
1105.299, 4870.101
1105.781, 4868.132
1106.264, 4867.235
1106.746, 4865.509
1107.228, 4862.021
1107.710, 4857.442
1108.192, 4852.108
1108.674, 4846.892
1109.156, 4843.909
1109.638, 4845.086
1110.120, 4845.513
1110.603, 4844.134
1111.085, 4841.558
1111.567, 4837.928
1112.049, 4833.399
1112.531, 4828.752
1113.013, 4823.978
1113.495, 4818.562
1113.977, 4811.864
1114.459, 4804.874
1114.942, 4796.279
1115.424, 4788.775
1115.906, 4786.877
1116.388, 4791.481
1116.870, 4791.250
1117.352, 4785.416
1117.834, 4780.059
1118.316, 4782.191
1118.799, 4784.911
1119.281, 4782.496
1119.763, 4775.457
1120.245, 4766.766
1120.727, 4754.764
1121.209, 4748.273
1121.691, 4749.424
1122.173, 4753.593
1122.656, 4758.551
1123.138, 4761.348
1123.620, 4756.283
1124.102, 4742.414
1124.584, 4732.349
1125.066, 4729.187
1125.548, 4725.959
1126.030, 4719.445
1126.512, 4713.218
1126.995, 4717.757
1127.477, 4727.740
1127.959, 4729.849
1128.441, 4718.464
1128.923, 4708.540
1129.405, 4706.009
1129.887, 4704.562
1130.369, 4700.923
1130.851, 4695.836
1131.334, 4692.335
1131.816, 4690.412
1132.298, 4690.116
1132.780, 4692.667
1133.262, 4694.807
1133.744, 4695.744
1134.226, 4694.835
1134.708, 4691.736
1135.191, 4686.471
1135.673, 4675.827
1136.155, 4660.022
1136.637, 4648.588
1137.119, 4651.229
1137.601, 4656.700
1138.083, 4659.326
1138.565, 4658.500
1139.047, 4653.243
1139.530, 4642.385
1140.012, 4634.106
1140.494, 4629.357
1140.976, 4625.084
1141.458, 4616.150
1141.940, 4608.241
1142.422, 4609.659
1142.904, 4618.340
1143.386, 4620.736
1143.869, 4613.492
1144.351, 4608.519
1144.833, 4608.843
1145.315, 4608.856
1145.797, 4598.480
1146.279, 4584.770
1146.761, 4578.739
1147.243, 4581.901
1147.726, 4583.101
1148.208, 4579.934
1148.690, 4576.469
1149.172, 4573.644
1149.654, 4571.586
1150.136, 4570.307
1150.618, 4569.996
1151.100, 4572.003
1151.583, 4578.081
1152.065, 4579.235
1152.547, 4569.758
1153.029, 4559.759
1153.511, 4554.122
1153.993, 4551.252
1154.475, 4544.744
1154.957, 4536.218
1155.439, 4531.465
1155.922, 4535.272
1156.404, 4537.568
1156.886, 4533.960
1157.368, 4528.260
1157.850, 4522.269
1158.332, 4516.185
1158.814, 4511.595
1159.296, 4508.446
1159.778, 4506.306
1160.261, 4507.149
1160.743, 4506.298
1161.225, 4498.729
1161.707, 4490.220
1162.189, 4487.570
1162.671, 4490.923
1163.153, 4491.125
1163.635, 4487.963
1164.118, 4483.523
1164.600, 4479.104
1165.082, 4474.014
1165.564, 4466.530
1166.046, 4458.687
1166.528, 4454.613
1167.010, 4454.840
1167.492, 4453.986
1167.974, 4451.569
1168.457, 4448.583
1168.939, 4446.567
1169.421, 4443.682
1169.903, 4436.833
1170.385, 4427.641
1170.867, 4423.601
1171.349, 4425.888
1171.831, 4426.219
1172.313, 4423.282
1172.796, 4417.804
1173.278, 4407.332
1173.760, 4397.094
1174.242, 4393.276
1174.724, 4396.073
1175.206, 4396.019
1175.688, 4391.946
1176.170, 4390.654
1176.653, 4395.286
1177.135, 4399.044
1177.617, 4392.096
1178.099, 4379.947
1178.581, 4367.923
1179.063, 4356.418
1179.545, 4352.724
1180.027, 4359.312
1180.510, 4364.938
1180.992, 4364.928
1181.474, 4362.793
1181.956, 4365.333
1182.438, 4368.672
1182.920, 4366.152
1183.402, 4354.342
1183.884, 4345.371
1184.366, 4340.696
1184.849, 4336.333
1185.331, 4330.292
1185.813, 4323.430
1186.295, 4316.299
1186.777, 4309.853
1187.259, 4305.979
1187.741, 4306.075
1188.223, 4307.532
1188.705, 4311.964
1189.188, 4313.364
1189.670, 4305.615
1190.152, 4293.531
1190.634, 4286.359
1191.116, 4283.221
1191.598, 4282.057
1192.080, 4285.433
1192.562, 4285.079
1193.045, 4278.618
1193.527, 4272.592
1194.009, 4274.884
1194.491, 4280.593
1194.973, 4276.647
1195.455, 4265.726
1195.937, 4257.243
1196.419, 4256.493
1196.901, 4255.899
1197.384, 4255.267
1197.866, 4253.243
1198.348, 4246.356
1198.830, 4237.722
1199.312, 4235.905
1199.794, 4239.944
1200.276, 4243.509
1200.758, 4247.300
1201.240, 4245.319
1201.723, 4235.282
1202.205, 4222.181
1202.687, 4211.129
1203.169, 4202.100
1203.651, 4194.837
1204.133, 4189.517
1204.615, 4187.126
1205.097, 4191.453
1205.580, 4194.010
1206.062, 4192.907
1206.544, 4189.808
1207.026, 4186.601
1207.508, 4183.383
1207.990, 4181.149
1208.472, 4179.798
1208.954, 4176.236
1209.437, 4165.281
1209.919, 4157.485
1210.401, 4156.080
1210.883, 4157.552
1211.365, 4155.946
1211.847, 4152.554
1212.329, 4150.956
1212.811, 4151.752
1213.293, 4150.394
1213.776, 4141.451
1214.258, 4135.992
1214.740, 4138.795
1215.222, 4144.059
1215.704, 4138.908
1216.186, 4127.745
1216.668, 4120.960
1217.150, 4120.696
1217.632, 4120.458
1218.115, 4118.670
1218.597, 4116.201
1219.079, 4113.351
1219.561, 4109.883
1220.043, 4103.706
1220.525, 4096.805
1221.007, 4094.439
1221.489, 4098.893
1221.972, 4100.103
1222.454, 4094.119
1222.936, 4087.892
1223.418, 4083.930
1223.900, 4081.349
1224.382, 4079.069
1224.864, 4076.474
1225.346, 4072.226
1225.828, 4065.835
1226.311, 4058.241
1226.793, 4047.852
1227.275, 4040.452
1227.757, 4040.072
1228.239, 4042.677
1228.721, 4039.908
1229.203, 4033.678
1229.685, 4027.668
1230.167, 4022.488
1230.650, 4018.965
1231.132, 4017.837
1231.614, 4016.450
1232.096, 4012.884
1232.578, 4008.823
1233.060, 4008.536
1233.542, 4009.919
1234.024, 4008.695
1234.507, 4001.589
1234.989, 3998.211
1235.471, 4000.132
1235.953, 4001.971
1236.435, 4000.976
1236.917, 3997.727
1237.399, 3992.882
1237.881, 3986.602
1238.364, 3978.898
1238.846, 3966.917
1239.328, 3961.961
1239.810, 3966.275
1240.292, 3968.802
1240.774, 3959.272
1241.256, 3947.636
1241.738, 3950.007
1242.220, 3959.202
1242.703, 3961.889
1243.185, 3953.159
1243.667, 3946.902
1244.149, 3943.391
1244.631, 3940.631
1245.113, 3936.376
1245.595, 3933.113
1246.077, 3935.327
1246.559, 3939.869
1247.042, 3941.250
1247.524, 3938.970
1248.006, 3933.641
1248.488, 3924.944
1248.970, 3917.426
1249.452, 3916.936
1249.934, 3916.257
1250.416, 3907.027
1250.899, 3894.698
1251.381, 3888.063
1251.863, 3888.596
1252.345, 3888.421
1252.827, 3887.529
1253.309, 3884.518
1253.791, 3874.799
1254.273, 3866.576
1254.755, 3869.341
1255.238, 3874.555
1255.720, 3868.742
1256.202, 3851.038
1256.684, 3843.850
1257.166, 3847.004
1257.648, 3850.250
1258.130, 3845.704
1258.612, 3841.421
1259.094, 3843.920
1259.577, 3847.150
1260.059, 3843.667
1260.541, 3834.273
1261.023, 3829.150
1261.505, 3828.275
1261.987, 3828.942
1262.469, 3833.777
1262.951, 3834.312
1263.434, 3824.244
1263.916, 3812.912
1264.398, 3810.118
1264.880, 3813.958
1265.362, 3817.462
1265.844, 3819.887
1266.326, 3818.940
1266.808, 3808.585
1267.291, 3802.107
1267.773, 3802.737
1268.255, 3805.673
1268.737, 3807.697
1269.219, 3807.879
1269.701, 3802.396
1270.183, 3792.715
1270.665, 3784.634
1271.147, 3781.771
1271.630, 3777.988
1272.112, 3772.693
1272.594, 3767.194
1273.076, 3762.843
1273.558, 3759.021
1274.040, 3753.573
1274.522, 3747.675
1275.004, 3745.292
1275.486, 3748.638
1275.969, 3751.671
1276.451, 3754.579
1276.933, 3754.044
1277.415, 3743.473
1277.897, 3731.214
1278.379, 3727.948
1278.861, 3729.705
1279.343, 3725.185
1279.825, 3710.559
1280.308, 3708.754
1280.790, 3721.579
1281.272, 3732.593
1281.754, 3729.204
1282.236, 3719.838
1282.718, 3705.664
1283.200, 3691.784
1283.682, 3686.798
1284.165, 3691.006
1284.647, 3692.247
1285.129, 3690.183
1285.611, 3687.893
1286.093, 3686.467
1286.575, 3686.257
1287.057, 3689.619
1287.539, 3692.380
1288.021, 3689.085
1288.504, 3681.012
1288.986, 3674.934
1289.468, 3670.964
1289.950, 3667.977
1290.432, 3667.555
1290.914, 3664.712
1291.396, 3656.697
1291.878, 3649.459
1292.360, 3651.202
1292.843, 3657.119
1293.325, 3653.906
1293.807, 3643.915
1294.289, 3636.398
1294.771, 3634.937
1295.253, 3636.289
1295.735, 3641.856
1296.217, 3644.993
1296.700, 3636.138
1297.182, 3624.273
1297.664, 3623.236
1298.146, 3628.785
1298.628, 3630.241
1299.110, 3626.295
1299.592, 3622.029
1300.074, 3617.545
1300.557, 3612.045
1301.039, 3603.521
1301.521, 3595.076
1302.003, 3588.589
1302.485, 3584.645
1302.967, 3584.229
1303.449, 3589.418
##END=



