##NAMES=Gustavite
##RRUFFID=R110011
##IDEAL CHEMISTRY=Ag^1+^Pb^2+^Bi^3+^_3_S^2-^_6_
##LOCALITY=Rotgulden, Salzburg, Austria
##OWNER=RRUFF
##SOURCE=William Pinch
##DESCRIPTION=Black bladed reticulated crystals associated with arsenopyrite, siderite and pyrrhotite
##STATUS=The identification of this mineral has been confirmed by single-crystal X-ray diffraction.
##URL=rruff.info/R110011
118.9371, 39.13850
119.4192, 39.22214
119.9013, 39.12262
120.3834, 38.81704
120.8655, 38.38806
121.3477, 38.15841
121.8298, 38.28091
122.3119, 38.70558
122.7940, 39.44333
123.2761, 41.29258
123.7582, 42.74263
124.2404, 42.18304
124.7225, 39.74287
125.2046, 37.00680
125.6867, 34.80615
126.1688, 33.19194
126.6509, 32.28265
127.1331, 32.41909
127.6152, 33.18580
128.0973, 34.02162
128.5794, 34.92694
129.0615, 35.89671
129.5436, 37.18273
130.0258, 38.63439
130.5079, 39.56981
130.9900, 39.38258
131.4721, 38.41740
131.9542, 37.73853
132.4363, 37.41840
132.9185, 37.26902
133.4006, 36.77071
133.8827, 35.92767
134.3648, 35.73442
134.8469, 37.54747
135.3290, 41.11027
135.8112, 42.38988
136.2933, 40.47906
136.7754, 36.88337
137.2575, 35.00817
137.7396, 35.06044
138.2217, 35.89751
138.7039, 37.12389
139.1860, 38.91595
139.6681, 39.78407
140.1502, 39.29923
140.6323, 37.81581
141.1144, 36.75889
141.5966, 36.02009
142.0787, 35.92118
142.5608, 36.97174
143.0429, 39.86693
143.5250, 41.92494
144.0071, 42.61246
144.4893, 41.97265
144.9714, 41.14586
145.4535, 39.81921
145.9356, 38.61721
146.4177, 38.18803
146.8998, 39.00415
147.3820, 39.83070
147.8641, 40.37615
148.3462, 40.54216
148.8283, 41.12159
149.3104, 42.66562
149.7925, 44.36751
150.2747, 45.29059
150.7568, 43.98832
151.2389, 43.37539
151.7210, 44.24673
152.2031, 47.11802
152.6852, 49.80001
153.1674, 52.39703
153.6495, 54.77592
154.1316, 56.76366
154.6137, 57.65189
155.0958, 58.74414
155.5779, 60.39477
156.0601, 62.55895
156.5422, 65.43635
157.0243, 69.61389
157.5064, 74.49214
157.9885, 78.91010
158.4706, 82.27760
158.9528, 85.37814
159.4349, 88.55978
159.9170, 91.88731
160.3991, 95.27885
160.8812, 98.85416
161.3633, 102.4958
161.8455, 105.8953
162.3276, 108.9139
162.8097, 111.6571
163.2918, 114.2265
163.7739, 116.4197
164.2560, 118.7107
164.7382, 121.1822
165.2203, 123.8814
165.7024, 126.9882
166.1845, 131.1185
166.6666, 135.4749
167.1487, 139.2992
167.6309, 142.2779
168.1130, 144.8394
168.5951, 146.9959
169.0772, 148.8348
169.5593, 150.8302
170.0414, 153.5633
170.5236, 156.5347
171.0057, 159.0820
171.4878, 160.0683
171.9699, 161.2964
172.4520, 164.4913
172.9341, 169.5452
173.4163, 174.9836
173.8984, 179.8291
174.3805, 184.3769
174.8626, 188.9688
175.3447, 193.9928
175.8268, 199.0792
176.3090, 203.9929
176.7911, 208.6951
177.2732, 212.8420
177.7553, 215.0119
178.2374, 215.3912
178.7195, 215.4235
179.2017, 215.2455
179.6838, 215.2837
180.1659, 216.4752
180.6480, 218.9111
181.1301, 221.3563
181.6122, 222.2381
182.0944, 222.0604
182.5765, 222.4544
183.0586, 224.7776
183.5407, 228.0554
184.0228, 230.3331
184.5049, 231.5195
184.9871, 231.9831
185.4692, 232.0907
185.9513, 231.8309
186.4334, 231.1199
186.9155, 229.4780
187.3976, 227.2976
187.8798, 226.0105
188.3619, 225.8036
188.8440, 225.9301
189.3261, 225.2232
189.8082, 223.7512
190.2903, 222.5230
190.7725, 222.4522
191.2546, 223.2266
191.7367, 222.7177
192.2188, 220.4161
192.7009, 217.8777
193.1830, 218.2049
193.6652, 221.4034
194.1473, 224.3560
194.6294, 225.2729
195.1115, 224.2921
195.5936, 222.9832
196.0757, 221.3133
196.5579, 219.5643
197.0400, 218.1512
197.5221, 217.0434
198.0042, 216.5289
198.4863, 217.0710
198.9684, 218.6857
199.4506, 219.7605
199.9327, 220.1397
200.4148, 219.9870
200.8969, 219.5551
201.3790, 218.7936
201.8611, 218.0131
202.3433, 217.4120
202.8254, 217.0105
203.3075, 216.5176
203.7896, 215.8318
204.2717, 215.1145
204.7538, 214.8530
205.2360, 215.1516
205.7181, 215.5008
206.2002, 215.5686
206.6823, 215.2959
207.1644, 215.1229
207.6465, 215.1397
208.1287, 215.2427
208.6108, 215.0556
209.0929, 214.4355
209.5750, 213.9109
210.0571, 214.0206
210.5392, 215.0900
211.0214, 215.1506
211.5035, 213.5482
211.9856, 210.9878
212.4677, 210.1336
212.9498, 211.7772
213.4319, 213.3641
213.9140, 212.9668
214.3962, 209.5806
214.8783, 207.9621
215.3604, 209.1873
215.8425, 212.3878
216.3246, 213.9838
216.8067, 213.5298
217.2889, 212.3692
217.7710, 211.1327
218.2531, 209.5081
218.7352, 208.7869
219.2173, 209.4353
219.6994, 211.0689
220.1816, 211.8642
220.6637, 211.6646
221.1458, 210.9230
221.6279, 209.9037
222.1100, 208.5757
222.5921, 206.9838
223.0743, 204.8925
223.5564, 202.5280
224.0385, 200.9702
224.5206, 200.7795
225.0027, 200.5725
225.4848, 199.3320
225.9670, 196.2268
226.4491, 194.2089
226.9312, 194.0085
227.4133, 195.1165
227.8954, 194.9937
228.3775, 193.1616
228.8597, 190.8123
229.3418, 188.6044
229.8239, 186.4245
230.3060, 184.6793
230.7881, 183.6113
231.2702, 183.0229
231.7524, 181.9866
232.2345, 180.2077
232.7166, 178.4085
233.1987, 177.0687
233.6808, 176.4967
234.1629, 175.6937
234.6451, 174.5415
235.1272, 173.1015
235.6093, 171.6175
236.0914, 170.0654
236.5735, 168.5040
237.0556, 167.0324
237.5378, 165.9688
238.0199, 164.2503
238.5020, 161.4062
238.9841, 157.8484
239.4662, 155.3492
239.9483, 154.1681
240.4305, 153.6917
240.9126, 153.7448
241.3947, 154.9792
241.8768, 155.2973
242.3589, 154.3775
242.8410, 152.5035
243.3232, 150.5836
243.8053, 148.4538
244.2874, 146.5137
244.7695, 145.0007
245.2516, 144.0568
245.7337, 143.2016
246.2159, 142.4972
246.6980, 141.8539
247.1801, 141.0088
247.6622, 139.9216
248.1443, 138.6761
248.6264, 137.2565
249.1086, 135.3808
249.5907, 133.9931
250.0728, 133.2159
250.5549, 132.9052
251.0370, 132.7006
251.5191, 132.6595
252.0013, 132.6388
252.4834, 132.6867
252.9655, 133.1878
253.4476, 132.6490
253.9297, 130.3816
254.4118, 127.3860
254.8940, 125.9979
255.3761, 127.0941
255.8582, 128.2452
256.3403, 128.4126
256.8224, 127.2865
257.3046, 126.1693
257.7867, 124.9709
258.2688, 123.8442
258.7509, 123.1397
259.2330, 123.0437
259.7151, 122.9981
260.1973, 122.7700
260.6794, 122.2910
261.1615, 121.9495
261.6436, 121.7630
262.1257, 121.7027
262.6078, 121.6850
263.0900, 121.6052
263.5721, 121.8438
264.0542, 122.7751
264.5363, 124.6876
265.0184, 125.2941
265.5005, 124.0721
265.9827, 122.1810
266.4648, 121.3403
266.9469, 121.9176
267.4290, 122.4967
267.9111, 122.6106
268.3932, 122.2185
268.8754, 122.0149
269.3575, 122.0449
269.8396, 122.1882
270.3217, 122.2544
270.8038, 122.1691
271.2859, 122.2887
271.7681, 122.7665
272.2502, 123.5836
272.7323, 124.3123
273.2144, 124.9371
273.6965, 125.4773
274.1786, 125.9804
274.6608, 126.4828
275.1429, 126.7465
275.6250, 126.5737
276.1071, 126.0734
276.5892, 126.1832
277.0714, 127.0827
277.5535, 128.0753
278.0356, 128.4833
278.5177, 128.2569
278.9998, 127.9268
279.4819, 127.5008
279.9641, 127.0702
280.4462, 127.2159
280.9283, 128.1056
281.4104, 128.8489
281.8925, 128.4664
282.3746, 126.9355
282.8568, 126.0479
283.3389, 126.3330
283.8210, 127.2638
284.3031, 127.3421
284.7852, 126.5051
285.2673, 125.3736
285.7495, 124.4552
286.2316, 123.7069
286.7137, 122.4523
287.1958, 120.4483
287.6779, 118.1346
288.1600, 116.5443
288.6422, 115.6902
289.1243, 114.6899
289.6064, 112.7936
290.0885, 110.2033
290.5706, 108.1522
291.0527, 106.8964
291.5349, 105.8460
292.0170, 103.8143
292.4991, 100.9256
292.9812, 98.38490
293.4633, 97.02847
293.9454, 96.56612
294.4276, 96.17872
294.9097, 95.85949
295.3918, 95.46774
295.8739, 94.76809
296.3560, 93.82022
296.8381, 92.87025
297.3203, 92.11332
297.8024, 91.43184
298.2845, 90.52522
298.7666, 89.36311
299.2487, 88.19530
299.7308, 87.22617
300.2130, 86.43425
300.6951, 85.76894
301.1772, 85.09788
301.6593, 84.59517
302.1414, 84.62302
302.6235, 85.16983
303.1057, 85.76609
303.5878, 86.17394
304.0699, 86.33923
304.5520, 86.12592
305.0341, 85.20573
305.5162, 84.15569
305.9984, 83.78799
306.4805, 83.97436
306.9626, 83.80952
307.4447, 82.04529
307.9268, 79.75635
308.4089, 78.48005
308.8911, 79.26701
309.3732, 80.15054
309.8553, 79.31095
310.3374, 77.18557
310.8195, 75.22801
311.3016, 74.44395
311.7838, 74.12530
312.2659, 73.63593
312.7480, 72.80939
313.2301, 71.91330
313.7122, 70.96265
314.1943, 70.04659
314.6765, 69.37527
315.1586, 69.33630
315.6407, 69.36597
316.1228, 69.00660
316.6049, 68.05058
317.0870, 67.36662
317.5692, 67.55085
318.0513, 68.19629
318.5334, 68.73473
319.0155, 69.22243
319.4976, 69.36030
319.9797, 68.80897
320.4619, 67.47007
320.9440, 66.45124
321.4261, 66.42835
321.9082, 66.73568
322.3903, 66.74359
322.8724, 66.10046
323.3546, 65.36304
323.8367, 64.47652
324.3188, 63.47083
324.8009, 63.00106
325.2830, 63.74229
325.7651, 64.70561
326.2473, 65.25050
326.7294, 65.27628
327.2115, 64.93448
327.6936, 63.94239
328.1757, 62.49087
328.6578, 61.48117
329.1400, 61.12505
329.6221, 61.04320
330.1042, 61.09656
330.5863, 61.50109
331.0684, 61.67793
331.5505, 61.47839
332.0327, 61.07688
332.5148, 60.89611
332.9969, 61.32230
333.4790, 61.43390
333.9611, 60.74215
334.4432, 58.81934
334.9254, 57.87638
335.4075, 58.43833
335.8896, 59.54338
336.3717, 59.73899
336.8538, 58.44107
337.3359, 57.67462
337.8180, 58.26786
338.3001, 60.18317
338.7823, 60.99643
339.2644, 60.36103
339.7465, 59.29801
340.2286, 58.79315
340.7107, 58.93782
341.1928, 59.15869
341.6750, 59.44859
342.1571, 59.70565
342.6392, 59.33884
343.1213, 58.19613
343.6034, 57.22344
344.0855, 57.42995
344.5677, 58.73811
345.0498, 59.09695
345.5319, 57.99411
346.0140, 56.27497
346.4961, 55.56356
346.9782, 55.83054
347.4604, 56.33559
347.9425, 56.73982
348.4246, 57.05578
348.9067, 57.25384
349.3888, 57.29135
349.8709, 57.41585
350.3531, 58.17296
350.8352, 59.34376
351.3173, 60.11321
351.7994, 59.83546
352.2815, 59.03982
352.7636, 58.66494
353.2458, 58.71027
353.7279, 58.70128
354.2100, 57.98159
354.6921, 56.97021
355.1742, 56.43494
355.6563, 57.01761
356.1385, 57.73066
356.6206, 57.53951
357.1027, 56.59470
357.5848, 55.65819
358.0669, 55.01805
358.5490, 54.67775
359.0312, 54.70966
359.5133, 55.31646
359.9954, 55.86214
360.4775, 55.91841
360.9596, 55.64775
361.4417, 55.39491
361.9239, 55.31133
362.4060, 55.27431
362.8881, 55.20708
363.3702, 55.08662
363.8523, 55.01887
364.3344, 54.97717
364.8166, 55.02746
365.2987, 55.24697
365.7808, 56.23045
366.2629, 56.80243
366.7450, 56.39995
367.2271, 55.02721
367.7093, 54.03167
368.1914, 53.72707
368.6735, 53.74665
369.1556, 53.85823
369.6377, 54.40769
370.1198, 54.58757
370.6020, 54.05086
371.0841, 53.07663
371.5662, 52.70549
372.0483, 53.39579
372.5304, 54.13527
373.0125, 54.51396
373.4947, 54.43382
373.9768, 54.22103
374.4589, 53.68342
374.9410, 53.16442
375.4231, 53.34169
375.9052, 54.58175
376.3874, 55.49518
376.8695, 55.62389
377.3516, 54.98327
377.8337, 54.14471
378.3158, 52.96553
378.7979, 51.95073
379.2801, 51.79063
379.7622, 52.53820
380.2443, 52.91087
380.7264, 52.52288
381.2085, 51.71982
381.6906, 51.47647
382.1728, 51.80237
382.6549, 52.17564
383.1370, 52.09320
383.6191, 51.72986
384.1012, 51.89659
384.5833, 52.81366
385.0655, 53.79888
385.5476, 53.70770
386.0297, 52.83929
386.5118, 52.28799
386.9939, 53.01955
387.4760, 54.20182
387.9582, 54.55373
388.4403, 54.04638
388.9224, 53.37664
389.4045, 53.10323
389.8866, 53.03067
390.3687, 52.88231
390.8509, 52.55545
391.3330, 52.14247
391.8151, 51.66611
392.2972, 51.14494
392.7793, 50.64529
393.2614, 50.09182
393.7436, 49.64285
394.2257, 49.38773
394.7078, 49.32384
395.1899, 49.51001
395.6720, 49.97909
396.1541, 50.70842
396.6363, 51.66188
397.1184, 53.73559
397.6005, 55.18957
398.0826, 55.19970
398.5647, 53.53559
399.0468, 52.10359
399.5290, 50.92390
400.0111, 50.13889
400.4932, 49.87005
400.9753, 50.65050
401.4574, 51.22297
401.9395, 51.31716
402.4217, 51.08386
402.9038, 51.29104
403.3859, 52.35907
403.8680, 53.25154
404.3501, 53.42485
404.8322, 52.66834
405.3144, 51.85968
405.7965, 50.84533
406.2786, 49.97086
406.7607, 49.99028
407.2428, 51.12733
407.7249, 51.90140
408.2071, 51.54738
408.6892, 50.34978
409.1713, 50.36989
409.6534, 51.81260
410.1355, 53.28289
410.6176, 53.29413
411.0998, 52.10613
411.5819, 51.24854
412.0640, 51.09125
412.5461, 51.26896
413.0282, 51.13884
413.5103, 50.76980
413.9925, 50.56324
414.4746, 50.88826
414.9567, 51.47951
415.4388, 51.92158
415.9209, 52.17648
416.4030, 52.36843
416.8852, 52.68400
417.3673, 52.99626
417.8494, 53.10146
418.3315, 52.85390
418.8136, 52.43314
419.2957, 51.79976
419.7779, 51.02186
420.2600, 50.49415
420.7421, 50.67717
421.2242, 51.01383
421.7063, 51.05463
422.1884, 50.40706
422.6706, 50.05562
423.1527, 50.42535
423.6348, 51.22923
424.1169, 51.92486
424.5990, 52.61413
425.0811, 53.01900
425.5633, 53.01883
426.0454, 52.57806
426.5275, 51.97901
427.0096, 50.85785
427.4917, 49.85866
427.9738, 49.56796
428.4560, 50.44335
428.9381, 51.08120
429.4202, 51.36920
429.9023, 51.30064
430.3844, 50.73997
430.8665, 49.47695
431.3487, 48.32981
431.8308, 47.65893
432.3129, 47.46576
432.7950, 47.81179
433.2771, 48.83775
433.7592, 50.03100
434.2414, 50.83254
434.7235, 51.24487
435.2056, 51.24291
435.6877, 50.56865
436.1698, 49.65131
436.6519, 49.55380
437.1341, 50.23039
437.6162, 50.83407
438.0983, 50.54649
438.5804, 49.81266
439.0625, 49.44010
439.5446, 49.64326
440.0268, 49.94263
440.5089, 49.95830
440.9910, 49.75265
441.4731, 49.45552
441.9552, 48.75891
442.4373, 48.27542
442.9195, 48.65324
443.4016, 49.87107
443.8837, 50.67980
444.3658, 50.23595
444.8479, 49.35619
445.3300, 48.66669
445.8122, 47.97226
446.2943, 47.88325
446.7764, 49.08159
447.2585, 50.97860
447.7406, 52.06683
448.2227, 51.76991
448.7049, 51.11385
449.1870, 50.22588
449.6691, 48.97648
450.1512, 48.34748
450.6333, 48.59347
451.1154, 49.18925
451.5976, 49.72748
452.0797, 50.31868
452.5618, 50.40841
453.0439, 49.66230
453.5260, 48.49118
454.0081, 48.31414
454.4903, 49.31072
454.9724, 50.12907
455.4545, 49.83498
455.9366, 48.61107
456.4187, 47.68773
456.9008, 47.09872
457.3830, 46.86968
457.8651, 47.32113
458.3472, 48.21615
458.8293, 48.75460
459.3114, 48.53948
459.7935, 47.98763
460.2757, 47.43042
460.7578, 46.92894
461.2399, 46.77428
461.7220, 47.65563
462.2041, 48.68995
462.6862, 48.93224
463.1684, 48.08232
463.6505, 47.19647
464.1326, 46.58902
464.6147, 46.33748
465.0968, 46.53996
465.5789, 48.09845
466.0611, 49.22803
466.5432, 49.11817
467.0253, 47.89314
467.5074, 47.06291
467.9895, 46.96110
468.4716, 47.16535
468.9538, 47.49932
469.4359, 48.02958
469.9180, 48.55777
470.4001, 49.25133
470.8822, 49.83098
471.3643, 49.81596
471.8465, 48.99015
472.3286, 48.18044
472.8107, 47.53072
473.2928, 47.06961
473.7749, 47.04221
474.2570, 47.54317
474.7392, 47.97917
475.2213, 47.79076
475.7034, 47.08615
476.1855, 46.57961
476.6676, 46.33045
477.1497, 46.34330
477.6319, 46.88229
478.1140, 47.74226
478.5961, 48.23994
479.0782, 47.63417
479.5603, 46.78551
480.0424, 46.93448
480.5246, 47.93250
481.0067, 48.56925
481.4888, 47.41061
481.9709, 45.92606
482.4530, 45.56818
482.9352, 47.18034
483.4173, 48.51050
483.8994, 48.47562
484.3815, 47.64249
484.8636, 46.87606
485.3457, 46.05094
485.8279, 45.64279
486.3100, 46.09003
486.7921, 47.38884
487.2742, 47.93440
487.7563, 47.13035
488.2384, 46.18504
488.7206, 45.80257
489.2027, 46.27305
489.6848, 46.51520
490.1669, 46.44101
490.6490, 46.21751
491.1311, 46.10547
491.6133, 46.11953
492.0954, 46.13810
492.5775, 46.05963
493.0596, 45.97475
493.5417, 46.44878
494.0238, 47.49544
494.5060, 48.15950
494.9881, 47.25859
495.4702, 45.45337
495.9523, 44.45012
496.4344, 44.58423
496.9165, 45.02406
497.3987, 44.88801
497.8808, 44.46756
498.3629, 44.31553
498.8450, 45.27497
499.3271, 46.06067
499.8092, 45.47168
500.2914, 43.79409
500.7735, 42.65710
501.2556, 42.98441
501.7377, 43.80680
502.2198, 44.65028
502.7019, 45.66552
503.1841, 46.17645
503.6662, 45.53455
504.1483, 44.58221
504.6304, 44.34782
505.1125, 45.62457
505.5946, 46.29737
506.0768, 45.68978
506.5589, 44.19120
507.0410, 43.98009
507.5231, 45.64095
508.0052, 46.94509
508.4873, 46.25590
508.9695, 43.55438
509.4516, 42.56471
509.9337, 43.59016
510.4158, 45.15015
510.8979, 45.59694
511.3800, 45.11218
511.8622, 44.45602
512.3443, 43.72594
512.8264, 43.07207
513.3085, 42.59785
513.7906, 42.34019
514.2728, 42.43171
514.7549, 43.48507
515.2370, 44.57045
515.7191, 44.61289
516.2012, 43.46196
516.6833, 42.83050
517.1655, 44.29761
517.6476, 46.21184
518.1297, 47.15326
518.6118, 45.87724
519.0939, 44.79881
519.5760, 44.49431
520.0582, 44.62769
520.5403, 44.36956
521.0224, 43.39029
521.5045, 42.47870
521.9866, 41.81551
522.4688, 41.39934
522.9509, 41.19914
523.4330, 41.19905
523.9151, 41.44400
524.3972, 42.16857
524.8793, 43.38947
525.3615, 43.92270
525.8436, 43.50210
526.3257, 42.82410
526.8078, 43.15437
527.2899, 44.23693
527.7720, 44.81848
528.2542, 43.94684
528.7363, 42.66324
529.2184, 42.49831
529.7005, 43.26507
530.1826, 43.93569
530.6647, 43.80196
531.1469, 43.34445
531.6290, 42.96614
532.1111, 42.74450
532.5932, 42.50652
533.0753, 42.16543
533.5574, 41.78198
534.0396, 41.42485
534.5217, 41.00542
535.0038, 40.72899
535.4859, 40.69686
535.9680, 40.83072
536.4501, 40.87273
536.9323, 40.72518
537.4144, 40.65033
537.8965, 40.74076
538.3786, 40.99658
538.8607, 41.43199
539.3428, 42.15882
539.8250, 42.70757
540.3071, 42.42272
540.7892, 41.42491
541.2713, 40.91846
541.7534, 41.21547
542.2355, 41.70001
542.7177, 41.29018
543.1998, 40.30392
543.6819, 39.76671
544.1640, 40.65868
544.6461, 41.86045
545.1282, 42.43812
545.6104, 42.41546
546.0925, 41.98878
546.5746, 40.57346
547.0567, 39.27399
547.5388, 38.93895
548.0209, 40.01994
548.5031, 40.94121
548.9852, 41.30684
549.4673, 41.39282
549.9494, 41.50730
550.4315, 41.96607
550.9136, 41.94109
551.3958, 41.07150
551.8779, 39.72859
552.3600, 39.05997
552.8421, 39.19249
553.3242, 39.53965
553.8063, 39.90400
554.2885, 40.28270
554.7706, 40.69719
555.2527, 41.16305
555.7348, 41.50216
556.2169, 41.51723
556.6990, 41.28656
557.1812, 40.96693
557.6633, 40.53717
558.1454, 40.20441
558.6275, 40.31721
559.1096, 40.64587
559.5917, 40.78743
560.0739, 40.45906
560.5560, 40.01757
561.0381, 39.51396
561.5202, 39.01184
562.0023, 38.75816
562.4844, 39.02416
562.9666, 39.37276
563.4487, 39.59624
563.9308, 39.64211
564.4129, 39.84263
564.8950, 40.56697
565.3771, 41.04090
565.8593, 40.45265
566.3414, 38.41730
566.8235, 36.92863
567.3056, 36.14079
567.7877, 36.01772
568.2698, 36.81136
568.7520, 38.45381
569.2341, 39.66421
569.7162, 39.76815
570.1983, 39.27800
570.6804, 39.11018
571.1625, 39.22453
571.6447, 39.33128
572.1268, 39.26099
572.6089, 39.08109
573.0910, 38.77850
573.5731, 38.30539
574.0552, 38.07256
574.5374, 38.63897
575.0195, 39.34611
575.5016, 39.58067
575.9837, 38.81206
576.4658, 38.07548
576.9479, 37.43609
577.4301, 36.88879
577.9122, 36.40337
578.3943, 35.88300
578.8764, 35.60823
579.3585, 35.66497
579.8406, 36.03344
580.3228, 36.72456
580.8049, 37.83337
581.2870, 38.64744
581.7691, 38.36120
582.2512, 37.33108
582.7333, 37.16474
583.2155, 38.03944
583.6975, 38.92743
584.1796, 38.84147
584.6617, 38.12730
585.1439, 37.32073
585.6260, 36.42737
586.1081, 35.73310
586.5902, 35.44978
587.0723, 35.48501
587.5544, 35.66145
588.0366, 35.98334
588.5187, 36.38197
589.0008, 36.88959
589.4829, 37.49292
589.9650, 37.97241
590.4471, 38.26251
590.9293, 38.51373
591.4114, 38.82292
591.8935, 39.22926
592.3756, 39.42149
592.8577, 39.38826
593.3398, 39.16950
593.8220, 38.63718
594.3041, 37.87105
594.7862, 37.59153
595.2683, 38.09258
595.7504, 38.68650
596.2325, 38.35326
596.7147, 37.38820
597.1968, 36.56692
597.6789, 36.18852
598.1610, 36.10601
598.6431, 36.49458
599.1252, 37.18275
599.6074, 37.40014
600.0895, 36.02068
600.5716, 34.83130
601.0537, 34.87166
601.5358, 36.58968
602.0179, 37.73561
602.5001, 38.10793
602.9822, 38.07827
603.4643, 37.84969
603.9464, 37.31139
604.4285, 37.02070
604.9106, 37.05659
605.3928, 37.26081
605.8749, 37.38119
606.3570, 37.43090
606.8391, 37.60279
607.3212, 38.08509
607.8033, 38.55388
608.2855, 38.45363
608.7676, 37.89380
609.2497, 37.27366
609.7318, 36.61008
610.2139, 36.12711
610.6960, 36.12721
611.1782, 36.60036
611.6603, 36.94923
612.1424, 36.70668
612.6245, 36.46449
613.1066, 36.68371
613.5887, 37.97974
614.0709, 38.31841
614.5530, 37.00093
615.0351, 35.35775
615.5172, 34.86082
615.9993, 35.80413
616.4814, 36.51432
616.9636, 36.66206
617.4457, 36.59955
617.9278, 37.19247
618.4099, 38.34474
618.8920, 39.06819
619.3741, 38.71307
619.8563, 37.87873
620.3384, 37.42974
620.8205, 37.30000
621.3026, 37.16010
621.7847, 36.91694
622.2668, 36.51929
622.7490, 35.70248
623.2311, 34.34771
623.7132, 33.74669
624.1953, 35.15667
624.6774, 36.81615
625.1595, 37.45507
625.6417, 36.25487
626.1238, 35.65178
626.6059, 35.95712
627.0880, 36.52625
627.5701, 36.34627
628.0522, 35.28379
628.5344, 34.88872
629.0165, 35.80344
629.4986, 37.08397
629.9807, 36.52698
630.4628, 34.49484
630.9449, 32.96106
631.4271, 33.26249
631.9092, 34.31059
632.3913, 35.07884
632.8734, 35.57108
633.3555, 35.85646
633.8376, 35.89702
634.3198, 35.80314
634.8019, 35.59761
635.2840, 35.23841
635.7661, 35.00716
636.2482, 35.05857
636.7303, 35.13939
637.2125, 35.01280
637.6946, 34.41462
638.1767, 34.45517
638.6588, 35.37120
639.1409, 36.59304
639.6230, 37.44987
640.1052, 37.93499
640.5873, 37.72926
641.0694, 36.45686
641.5515, 34.97133
642.0336, 34.62859
642.5157, 35.16274
642.9979, 35.79772
643.4800, 36.34749
643.9621, 36.69566
644.4442, 36.59414
644.9263, 36.14217
645.4084, 35.91126
645.8906, 36.53314
646.3727, 37.02722
646.8548, 36.79961
647.3369, 35.70488
647.8190, 35.02332
648.3011, 34.79067
648.7833, 34.92727
649.2654, 35.55415
649.7475, 36.76192
650.2296, 37.36629
650.7117, 37.24747
651.1938, 36.75036
651.6760, 36.07536
652.1581, 35.34917
652.6402, 35.05568
653.1223, 35.54376
653.6044, 36.02662
654.0865, 35.61014
654.5687, 34.70154
655.0508, 34.08424
655.5329, 34.26676
656.0150, 34.56257
656.4971, 34.72648
656.9792, 34.78716
657.4614, 34.94073
657.9435, 35.47621
658.4256, 35.69928
658.9077, 35.22082
659.3898, 34.09083
659.8719, 33.61897
660.3541, 33.90843
660.8362, 34.37064
661.3183, 34.69864
661.8004, 34.86877
662.2825, 34.61144
662.7646, 33.86795
663.2468, 33.48135
663.7289, 34.76114
664.2110, 36.62427
664.6931, 37.60912
665.1752, 37.14941
665.6573, 36.45126
666.1395, 35.74555
666.6216, 35.20923
667.1037, 35.06001
667.5858, 35.87899
668.0679, 36.37627
668.5500, 36.32685
669.0322, 35.95477
669.5143, 35.74483
669.9964, 35.72401
670.4785, 35.71497
670.9606, 35.61724
671.4427, 35.52725
671.9249, 35.84254
672.4070, 36.49792
672.8891, 36.95619
673.3712, 36.71484
673.8533, 36.21151
674.3354, 35.92619
674.8176, 35.86023
675.2997, 35.87482
675.7818, 36.14975
676.2639, 36.29447
676.7460, 35.90308
677.2281, 34.61232
677.7103, 34.17301
678.1924, 35.45499
678.6745, 36.77296
679.1566, 36.67620
679.6387, 34.64455
680.1208, 33.83670
680.6030, 34.69828
681.0851, 36.03081
681.5672, 36.17704
682.0493, 35.44520
682.5314, 35.28653
683.0135, 36.35351
683.4957, 37.38076
683.9778, 36.70945
684.4599, 35.07158
684.9420, 33.87144
685.4241, 33.80744
685.9063, 34.07000
686.3884, 34.63714
686.8705, 35.32831
687.3526, 35.52264
687.8347, 34.80190
688.3168, 34.14679
688.7990, 33.73661
689.2811, 33.59561
689.7632, 34.10265
690.2453, 35.38290
690.7274, 36.43964
691.2095, 36.60286
691.6917, 36.09661
692.1738, 35.43764
692.6559, 34.65478
693.1380, 34.08278
693.6201, 33.96362
694.1022, 34.17760
694.5844, 34.76718
695.0665, 35.84401
695.5486, 36.50825
696.0307, 35.98396
696.5128, 35.22382
696.9949, 34.99769
697.4771, 35.66645
697.9592, 36.17266
698.4413, 36.60648
698.9234, 36.75550
699.4055, 36.15232
699.8876, 34.77538
700.3698, 33.93333
700.8519, 33.96365
701.3340, 34.32104
701.8161, 34.37481
702.2982, 34.15208
702.7803, 33.69041
703.2625, 32.60443
703.7446, 31.77357
704.2267, 31.98880
704.7088, 32.88471
705.1909, 33.66268
705.6730, 33.88985
706.1552, 34.22678
706.6373, 35.00144
707.1194, 36.03819
707.6015, 36.49679
708.0836, 36.25238
708.5657, 35.78407
709.0479, 35.21889
709.5300, 34.59248
710.0121, 33.92300
710.4942, 33.22835
710.9763, 32.96981
711.4584, 33.92747
711.9406, 35.24342
712.4227, 35.81167
712.9048, 35.59084
713.3869, 35.22361
713.8690, 34.73265
714.3511, 34.41700
714.8333, 34.59353
715.3154, 35.65321
715.7975, 35.95129
716.2796, 34.97696
716.7617, 33.86211
717.2438, 33.48776
717.7260, 33.90887
718.2081, 34.65441
718.6902, 35.83259
719.1723, 36.75508
719.6544, 36.40092
720.1365, 35.15743
720.6187, 33.89731
721.1008, 32.64170
721.5829, 31.90420
722.0650, 32.55563
722.5471, 33.78511
723.0292, 34.51861
723.5114, 33.78453
723.9935, 33.33321
724.4756, 33.55108
724.9577, 34.16173
725.4398, 34.74276
725.9219, 35.30218
726.4041, 35.79963
726.8862, 36.23741
727.3683, 36.59676
727.8504, 36.91123
728.3325, 37.14060
728.8146, 36.96552
729.2968, 35.70726
729.7789, 34.43161
730.2610, 34.73838
730.7431, 36.12349
731.2252, 36.91550
731.7073, 35.44796
732.1895, 34.15140
732.6716, 34.30188
733.1537, 35.81649
733.6358, 36.81501
734.1179, 37.25468
734.6000, 37.24568
735.0822, 36.65319
735.5643, 35.57730
736.0464, 35.15807
736.5285, 35.43066
737.0106, 35.66126
737.4927, 35.02882
737.9749, 34.11936
738.4570, 34.07289
738.9391, 34.91972
739.4212, 35.71127
739.9033, 35.84266
740.3854, 35.74096
740.8676, 35.72519
741.3497, 35.89646
741.8318, 35.87074
742.3139, 35.41283
742.7960, 34.99346
743.2781, 34.98732
743.7603, 35.48535
744.2424, 35.68827
744.7245, 35.50023
745.2066, 35.33498
745.6887, 35.72329
746.1708, 36.47054
746.6530, 37.18802
747.1351, 37.91264
747.6172, 38.05748
748.0993, 36.41816
748.5814, 34.30092
749.0635, 33.21769
749.5457, 34.34801
750.0278, 35.16974
750.5099, 35.25304
750.9920, 34.94172
751.4741, 34.49489
751.9562, 33.74442
752.4384, 33.70422
752.9205, 34.74826
753.4026, 36.04395
753.8847, 36.06720
754.3668, 35.13800
754.8489, 34.57316
755.3311, 34.95698
755.8132, 35.49241
756.2953, 35.42234
756.7774, 35.02404
757.2595, 34.78554
757.7416, 35.19088
758.2238, 35.37918
758.7059, 34.96688
759.1880, 34.25494
759.6701, 33.84462
760.1522, 33.75290
760.6343, 33.91415
761.1165, 34.36568
761.5986, 35.00811
762.0807, 35.80346
762.5628, 36.65545
763.0449, 36.98906
763.5270, 36.11872
764.0092, 34.98610
764.4913, 34.40955
764.9734, 34.29292
765.4555, 34.32452
765.9376, 34.52452
766.4197, 34.71596
766.9019, 34.74127
767.3840, 34.68281
767.8661, 35.01609
768.3482, 35.95294
768.8303, 36.66480
769.3124, 36.83680
769.7946, 36.52239
770.2767, 35.74311
770.7588, 34.55619
771.2409, 33.49559
771.7230, 32.65609
772.2051, 32.26013
772.6873, 32.80194
773.1694, 34.13896
773.6515, 35.19876
774.1336, 35.63663
774.6157, 35.68333
775.0978, 35.22308
775.5800, 34.29876
776.0621, 34.11603
776.5442, 34.96938
777.0263, 35.72978
777.5084, 35.76470
777.9905, 35.18987
778.4727, 34.32852
778.9548, 33.21623
779.4369, 32.49147
779.9190, 33.10734
780.4011, 34.00644
780.8832, 33.99091
781.3654, 32.99772
781.8475, 32.33046
782.3296, 32.63765
782.8117, 33.17201
783.2938, 33.53963
783.7759, 33.70834
784.2581, 34.13826
784.7402, 34.94246
785.2223, 35.64607
785.7044, 36.01161
786.1865, 36.01526
786.6686, 35.25925
787.1508, 33.75117
787.6329, 32.75240
788.1150, 33.88415
788.5971, 35.54018
789.0792, 36.07392
789.5613, 35.18872
790.0435, 34.41613
790.5256, 34.24303
791.0077, 34.16633
791.4898, 33.87008
791.9719, 33.27084
792.4540, 33.12072
792.9362, 33.51599
793.4183, 33.97050
793.9004, 33.98078
794.3825, 33.73616
794.8646, 33.83484
795.3467, 34.32486
795.8289, 34.75460
796.3110, 34.74295
796.7931, 34.56182
797.2752, 34.46397
797.7573, 34.54716
798.2394, 34.39552
798.7216, 33.69698
799.2037, 33.04779
799.6858, 32.86649
800.1679, 33.23013
800.6500, 33.43755
801.1321, 33.46042
801.6143, 33.52288
802.0964, 33.88240
802.5785, 34.41003
803.0606, 34.97948
803.5427, 35.59972
804.0248, 35.79420
804.5070, 34.52807
804.9891, 33.24898
805.4712, 33.26156
805.9533, 35.47045
806.4354, 36.41542
806.9175, 35.48487
807.3997, 34.15783
807.8818, 33.46879
808.3639, 33.41230
808.8460, 33.59615
809.3281, 34.03848
809.8102, 34.33672
810.2924, 33.83282
810.7745, 33.09664
811.2566, 32.98709
811.7387, 33.68259
812.2208, 34.33252
812.7029, 34.44151
813.1851, 34.49366
813.6672, 34.91204
814.1493, 35.92575
814.6314, 36.25894
815.1135, 35.70391
815.5956, 34.97967
816.0778, 34.67658
816.5599, 34.70531
817.0420, 34.63308
817.5241, 34.43291
818.0062, 34.32790
818.4883, 34.57832
818.9705, 34.95467
819.4526, 35.29680
819.9347, 35.61534
820.4168, 35.63521
820.8989, 34.88902
821.3810, 34.20872
821.8632, 34.09433
822.3453, 34.64309
822.8274, 34.70933
823.3095, 34.20599
823.7916, 33.75019
824.2737, 34.07588
824.7559, 34.73323
825.2380, 34.61634
825.7201, 33.69604
826.2022, 33.09259
826.6843, 33.69502
827.1664, 34.68628
827.6486, 35.76001
828.1307, 37.02605
828.6128, 36.99809
829.0949, 34.82103
829.5770, 32.83301
830.0591, 32.53029
830.5413, 33.71639
831.0234, 34.01408
831.5055, 33.43624
831.9876, 32.97497
832.4697, 33.62698
832.9518, 34.58431
833.4340, 34.95550
833.9161, 34.71792
834.3982, 34.40147
834.8803, 33.92674
835.3624, 33.68723
835.8445, 33.98116
836.3267, 34.76617
836.8088, 34.97935
837.2909, 34.49994
837.7730, 33.99454
838.2551, 33.78697
838.7372, 33.83535
839.2194, 34.15058
839.7015, 34.67428
840.1836, 35.06775
840.6657, 35.07753
841.1478, 34.94855
841.6299, 34.80672
842.1121, 34.65580
842.5942, 34.46776
843.0763, 34.16358
843.5584, 33.97364
844.0405, 34.07508
844.5226, 34.31215
845.0048, 33.84042
845.4869, 32.73185
845.9690, 32.10605
846.4511, 33.02523
846.9332, 34.29192
847.4153, 34.61699
847.8975, 34.22236
848.3796, 33.73548
848.8617, 33.23222
849.3438, 32.82447
849.8259, 32.44368
850.3080, 32.20032
850.7902, 32.50328
851.2723, 33.47419
851.7544, 34.27603
852.2365, 34.75840
852.7186, 34.81038
853.2007, 33.62220
853.6829, 31.82117
854.1650, 31.14444
854.6471, 33.36583
855.1292, 35.44818
855.6113, 35.81909
856.0934, 35.09692
856.5756, 34.38918
857.0577, 33.51418
857.5398, 33.21437
858.0219, 33.74849
858.5040, 34.60213
858.9861, 35.00541
859.4683, 34.99552
859.9504, 34.71098
860.4325, 34.11594
860.9146, 33.48869
861.3967, 32.90808
861.8788, 32.52626
862.3610, 32.56067
862.8431, 33.49429
863.3252, 34.06686
863.8073, 34.05429
864.2894, 33.78180
864.7715, 33.48140
865.2537, 33.13732
865.7358, 33.18127
866.2179, 33.70583
866.7000, 34.21284
867.1821, 34.07617
867.6642, 33.65333
868.1464, 33.44627
868.6285, 33.53852
869.1106, 33.78777
869.5927, 34.55926
870.0748, 35.11412
870.5569, 34.88702
871.0391, 33.70923
871.5212, 32.85465
872.0033, 32.28004
872.4854, 32.22983
872.9675, 33.44490
873.4496, 35.19617
873.9318, 35.44270
874.4139, 34.25351
874.8960, 33.21597
875.3781, 33.56617
875.8602, 34.10256
876.3423, 33.97817
876.8245, 33.16670
877.3066, 32.87489
877.7887, 33.33932
878.2708, 33.79215
878.7529, 33.92735
879.2350, 33.81924
879.7172, 33.66707
880.1993, 33.48491
880.6814, 33.34636
881.1635, 33.43622
881.6456, 33.45526
882.1277, 32.92968
882.6099, 32.13604
883.0920, 31.91054
883.5741, 33.05569
884.0562, 33.86851
884.5383, 34.01443
885.0204, 33.73924
885.5026, 33.62059
885.9847, 33.63041
886.4668, 33.26010
886.9489, 32.09500
887.4310, 31.11819
887.9131, 31.73460
888.3953, 33.16107
888.8774, 34.22575
889.3595, 34.48552
889.8416, 34.52497
890.3237, 34.31645
890.8058, 34.02792
891.2880, 33.81328
891.7701, 33.67340
892.2522, 33.61968
892.7343, 33.65544
893.2164, 33.75816
893.6985, 34.04075
894.1807, 34.31701
894.6628, 34.24537
895.1449, 33.70821
895.6270, 33.31879
896.1091, 33.32381
896.5912, 33.52827
897.0734, 33.83266
897.5555, 34.24467
898.0376, 34.62172
898.5197, 34.94833
899.0018, 35.31913
899.4839, 36.06746
899.9661, 36.79303
900.4482, 36.52100
900.9303, 35.40319
901.4124, 34.50745
901.8945, 34.33574
902.3766, 34.51952
902.8588, 35.24206
903.3409, 36.23824
903.8230, 36.22153
904.3051, 34.87678
904.7872, 33.74485
905.2693, 33.31873
905.7515, 33.40803
906.2336, 33.83171
906.7157, 34.45162
907.1978, 34.86235
907.6799, 34.68710
908.1620, 34.53098
908.6442, 34.78894
909.1263, 35.19862
909.6084, 35.33946
910.0905, 35.19292
910.5726, 34.70230
911.0547, 33.63668
911.5369, 32.75500
912.0190, 33.52043
912.5011, 35.25842
912.9832, 35.89245
913.4653, 34.90171
913.9474, 33.92133
914.4296, 34.27057
914.9117, 34.88994
915.3938, 34.77662
915.8759, 33.57506
916.3580, 32.96438
916.8401, 33.09591
917.3223, 33.44287
917.8044, 33.74766
918.2865, 33.97043
918.7686, 33.76737
919.2507, 33.22314
919.7328, 33.10755
920.2150, 34.54214
920.6971, 35.97874
921.1792, 36.38908
921.6613, 35.84792
922.1434, 35.33679
922.6255, 34.84914
923.1077, 34.46868
923.5898, 34.21834
924.0719, 34.09129
924.5540, 34.12176
925.0361, 34.26860
925.5182, 34.35259
926.0004, 34.21307
926.4825, 34.14714
926.9646, 34.64387
927.4467, 35.22767
927.9288, 35.11040
928.4109, 33.61971
928.8931, 32.78342
929.3752, 32.84307
929.8573, 33.28119
930.3394, 33.53660
930.8215, 33.67780
931.3036, 34.06102
931.7858, 34.76029
932.2679, 35.19099
932.7500, 34.58463
933.2321, 33.82404
933.7142, 33.62032
934.1964, 34.12176
934.6785, 34.52208
935.1606, 34.85290
935.6427, 34.99306
936.1248, 34.79924
936.6069, 34.38562
937.0891, 34.15358
937.5712, 34.07032
938.0533, 33.98803
938.5354, 33.71203
939.0175, 33.52639
939.4996, 33.53979
939.9818, 33.77918
940.4639, 34.37955
940.9460, 35.74318
941.4281, 36.31110
941.9102, 35.58854
942.3923, 34.36882
942.8745, 33.98815
943.3566, 34.17008
943.8387, 34.05696
944.3208, 33.30322
944.8029, 32.76328
945.2850, 33.21345
945.7672, 33.91862
946.2493, 34.10544
946.7314, 33.47585
947.2135, 33.56052
947.6956, 34.56347
948.1777, 35.58400
948.6599, 35.94520
949.1420, 35.78626
949.6241, 35.24445
950.1062, 34.40100
950.5883, 33.80807
951.0704, 33.79680
951.5526, 34.07650
952.0347, 34.93024
952.5168, 35.99282
952.9989, 35.62849
953.4810, 33.38717
953.9631, 31.90545
954.4453, 32.13141
954.9274, 33.14402
955.4095, 33.49618
955.8916, 33.45297
956.3737, 33.61339
956.8558, 34.36429
957.3380, 34.96697
957.8201, 35.18814
958.3022, 35.13023
958.7843, 34.78324
959.2664, 33.99509
959.7485, 33.90162
960.2307, 34.62486
960.7128, 35.37584
961.1949, 35.36576
961.6770, 34.99241
962.1591, 34.87225
962.6412, 35.01995
963.1234, 34.94587
963.6055, 33.75402
964.0876, 33.17325
964.5697, 34.19864
965.0518, 36.25979
965.5339, 36.69092
966.0161, 35.49083
966.4982, 34.24546
966.9803, 33.44444
967.4624, 33.05877
967.9445, 33.51539
968.4266, 34.25472
968.9088, 34.34417
969.3909, 32.47243
969.8730, 31.50081
970.3551, 31.96656
970.8372, 32.89547
971.3193, 33.31924
971.8015, 33.28102
972.2836, 33.13892
972.7657, 32.91309
973.2478, 32.86851
973.7299, 33.40194
974.2120, 34.06239
974.6942, 34.53984
975.1763, 34.79726
975.6584, 34.70516
976.1405, 33.99668
976.6226, 33.53230
977.1047, 33.71342
977.5869, 34.27864
978.0690, 34.58985
978.5511, 34.65901
979.0332, 34.53056
979.5153, 34.06459
979.9974, 33.63291
980.4796, 33.38457
980.9617, 33.31680
981.4438, 33.44105
981.9259, 33.87655
982.4080, 34.10788
982.8901, 34.07344
983.3723, 33.98381
983.8544, 34.09515
984.3365, 34.28630
984.8186, 34.32531
985.3007, 34.19440
985.7828, 34.00761
986.2650, 33.64711
986.7471, 33.43115
987.2292, 33.62890
987.7113, 34.09045
988.1934, 33.90926
988.6755, 33.04998
989.1577, 32.38111
989.6398, 32.29580
990.1219, 32.46051
990.6040, 32.55752
991.0861, 32.60299
991.5682, 32.62217
992.0504, 32.51089
992.5325, 32.56842
993.0146, 32.97364
993.4967, 33.34077
993.9788, 33.26571
994.4609, 32.79977
994.9431, 32.20167
995.4252, 31.49012
995.9073, 31.38193
996.3894, 33.28474
996.8715, 35.24700
997.3536, 35.58308
997.8358, 34.36480
998.3179, 33.83939
998.8000, 34.39433
999.2821, 34.70380
999.7642, 34.23347
1000.246, 33.51686
1000.728, 33.78266
1001.211, 34.67667
1001.693, 35.28288
1002.175, 35.25067
1002.657, 35.05396
1003.139, 34.81185
1003.621, 34.55103
1004.103, 34.29374
1004.585, 34.03432
1005.068, 33.72314
1005.550, 33.31636
1006.032, 33.26158
1006.514, 34.12164
1006.996, 35.38108
1007.478, 36.73030
1007.960, 37.99780
1008.442, 38.41670
1008.924, 36.92544
1009.407, 35.64313
1009.889, 34.96934
1010.371, 34.74618
1010.853, 34.72443
1011.335, 34.87468
1011.817, 35.05282
1012.299, 35.29006
1012.781, 35.27816
1013.263, 34.42480
1013.746, 33.43940
1014.228, 33.04512
1014.710, 33.39298
1015.192, 33.81741
1015.674, 34.41020
1016.156, 34.76697
1016.638, 34.41282
1017.120, 33.76415
1017.603, 33.69809
1018.085, 34.13390
1018.567, 34.79081
1019.049, 36.46169
1019.531, 37.16907
1020.013, 35.35331
1020.495, 32.91697
1020.977, 33.02105
1021.459, 35.75216
1021.942, 37.06316
1022.424, 36.32738
1022.906, 35.08013
1023.388, 34.47014
1023.870, 34.25094
1024.352, 34.31128
1024.834, 34.67125
1025.316, 34.58774
1025.799, 33.65930
1026.281, 33.04901
1026.763, 33.30201
1027.245, 34.11362
1027.727, 34.99129
1028.209, 35.77598
1028.691, 35.86982
1029.173, 34.29469
1029.656, 33.17364
1030.138, 34.02559
1030.620, 35.50290
1031.102, 36.14394
1031.584, 35.76133
1032.066, 35.59211
1032.548, 35.67308
1033.030, 35.84687
1033.512, 36.18154
1033.995, 36.40296
1034.477, 36.06416
1034.959, 35.24830
1035.441, 34.56674
1035.923, 34.26174
1036.405, 33.90325
1036.887, 33.24686
1037.369, 32.68132
1037.851, 33.29857
1038.334, 34.70237
1038.816, 35.27304
1039.298, 34.42924
1039.780, 33.73726
1040.262, 34.59117
1040.744, 35.65546
1041.226, 35.80634
1041.708, 34.97783
1042.191, 34.33986
1042.673, 33.91293
1043.155, 33.42006
1043.637, 32.40967
1044.119, 31.50212
1044.601, 31.65910
1045.083, 32.58128
1045.565, 33.57424
1046.047, 34.87842
1046.530, 35.55045
1047.012, 35.29978
1047.494, 34.72254
1047.976, 34.41806
1048.458, 34.35961
1048.940, 34.55379
1049.422, 34.98541
1049.904, 35.15954
1050.386, 34.18064
1050.869, 33.39403
1051.351, 34.05786
1051.833, 35.66370
1052.315, 35.99683
1052.797, 34.86311
1053.279, 33.92063
1053.761, 33.62540
1054.243, 33.63775
1054.726, 33.54339
1055.208, 33.47147
1055.690, 33.66131
1056.172, 34.35306
1056.654, 34.63383
1057.136, 34.18980
1057.618, 33.79090
1058.100, 33.95862
1058.583, 34.53123
1059.065, 34.86289
1059.547, 35.00734
1060.029, 35.21507
1060.511, 36.22682
1060.993, 36.61864
1061.475, 34.94954
1061.957, 32.73940
1062.439, 32.21095
1062.922, 33.61193
1063.404, 34.45087
1063.886, 34.49529
1064.368, 34.31173
1064.850, 34.34620
1065.332, 34.44817
1065.814, 34.41564
1066.296, 34.26111
1066.778, 34.34987
1067.261, 34.95705
1067.743, 35.23198
1068.225, 34.87567
1068.707, 34.21446
1069.189, 33.81434
1069.671, 33.59520
1070.153, 33.30560
1070.635, 32.75112
1071.118, 32.64639
1071.600, 33.53628
1072.082, 34.75991
1072.564, 36.20586
1073.046, 37.75660
1073.528, 37.74818
1074.010, 36.29248
1074.492, 34.98693
1074.974, 35.03719
1075.457, 35.15295
1075.939, 33.87273
1076.421, 32.18924
1076.903, 31.89109
1077.385, 33.65217
1077.867, 34.89373
1078.349, 35.44092
1078.831, 35.71355
1079.313, 36.20958
1079.796, 36.61810
1080.278, 36.24815
1080.760, 35.22340
1081.242, 34.59741
1081.724, 35.06225
1082.206, 35.48676
1082.688, 35.60964
1083.170, 35.62553
1083.652, 36.09232
1084.135, 36.78250
1084.617, 36.61184
1085.099, 35.21638
1085.581, 34.21571
1086.063, 35.16817
1086.545, 36.25243
1087.027, 36.11504
1087.509, 34.95210
1087.992, 35.06804
1088.474, 36.48174
1088.956, 37.54958
1089.438, 37.57975
1089.920, 37.03465
1090.402, 35.90379
1090.884, 34.68623
1091.366, 34.11738
1091.849, 34.59039
1092.331, 34.91532
1092.813, 35.10838
1093.295, 35.09805
1093.777, 34.68960
1094.259, 34.11101
1094.741, 33.57990
1095.223, 33.22515
1095.705, 33.47237
1096.188, 35.70201
1096.670, 36.75393
1097.152, 35.54108
1097.634, 33.76870
1098.116, 33.93682
1098.598, 35.53239
1099.080, 36.02160
1099.562, 35.18846
1100.044, 34.31857
1100.527, 34.06857
1101.009, 34.13961
1101.491, 34.55493
1101.973, 35.12215
1102.455, 35.10314
1102.937, 34.48777
1103.419, 34.40922
1103.901, 35.29285
1104.384, 36.19533
1104.866, 36.12482
1105.348, 35.65702
1105.830, 35.37646
1106.312, 35.38415
1106.794, 35.09693
1107.276, 34.30884
1107.758, 34.10480
1108.240, 35.38517
1108.723, 37.02563
1109.205, 37.08136
1109.687, 36.21282
1110.169, 35.68670
1110.651, 35.86498
1111.133, 36.51944
1111.615, 38.18908
1112.097, 39.30442
1112.579, 38.11494
1113.062, 35.44172
1113.544, 34.27065
1114.026, 34.35674
1114.508, 34.44153
1114.990, 33.41179
1115.472, 32.95017
1115.954, 34.24147
1116.436, 35.81193
1116.919, 35.32259
1117.401, 33.00897
1117.883, 32.51980
1118.365, 34.17549
1118.847, 35.87169
1119.329, 36.20713
1119.811, 35.98025
1120.293, 35.41787
1120.776, 34.73568
1121.258, 34.66689
1121.740, 35.29713
1122.222, 35.65807
1122.704, 35.49164
1123.186, 35.25111
1123.668, 35.46477
1124.150, 35.81120
1124.632, 35.95048
1125.115, 35.82046
1125.597, 35.63704
1126.079, 35.33063
1126.561, 35.22160
1127.043, 35.46907
1127.525, 35.91990
1128.007, 36.57516
1128.489, 37.17360
1128.971, 37.19491
1129.454, 36.18431
1129.936, 35.49900
1130.418, 35.33526
1130.900, 35.36948
1131.382, 35.46877
1131.864, 35.58997
1132.346, 35.62503
1132.828, 35.56991
1133.311, 35.41149
1133.793, 35.09293
1134.275, 34.71849
1134.757, 34.07063
1135.239, 33.62807
1135.721, 34.03370
1136.203, 35.14211
1136.685, 35.62402
1137.167, 35.51117
1137.650, 35.54129
1138.132, 37.03912
1138.614, 37.82644
1139.096, 35.78783
1139.578, 32.83547
1140.060, 32.23887
1140.542, 34.05488
1141.024, 35.12986
1141.506, 35.09752
1141.989, 35.04634
1142.471, 36.23846
1142.953, 37.40498
1143.435, 37.39303
1143.917, 36.44721
1144.399, 36.04155
1144.881, 36.31274
1145.363, 36.10301
1145.846, 35.01498
1146.328, 34.02906
1146.810, 34.71441
1147.292, 35.76919
1147.774, 35.48902
1148.256, 36.02503
1148.738, 36.68096
1149.220, 35.65240
1149.703, 36.98486
1150.185, 35.67842
1150.667, 33.61320
1151.149, 33.65432
1151.631, 34.81086
1152.113, 35.45016
1152.595, 34.94554
1153.077, 35.07093
1153.559, 36.40609
1154.042, 37.23118
1154.524, 36.28251
1155.006, 34.52697
1155.488, 34.08783
1155.970, 34.59876
1156.452, 35.20796
1156.934, 35.84735
1157.416, 36.16914
1157.898, 36.11843
1158.381, 35.82404
1158.863, 35.23553
1159.345, 34.48754
1159.827, 34.18835
1160.309, 34.24538
1160.791, 34.29075
1161.273, 34.12627
1161.755, 33.96331
1162.238, 33.80956
1162.720, 33.72662
1163.202, 33.73482
1163.684, 33.86260
1164.166, 34.55201
1164.648, 35.70695
1165.130, 36.25096
1165.612, 34.69512
1166.094, 33.41448
1166.577, 33.74349
1167.059, 34.72921
1167.541, 34.78996
1168.023, 34.03273
1168.505, 33.88146
1168.987, 34.48466
1169.469, 35.16100
1169.951, 35.42990
1170.433, 35.63560
1170.916, 36.08004
1171.398, 36.59935
1171.880, 36.68596
1172.362, 36.34871
1172.844, 36.34430
1173.326, 36.88145
1173.808, 37.23354
1174.290, 36.41219
1174.773, 35.48191
1175.255, 35.47235
1175.737, 36.15528
1176.219, 36.08849
1176.701, 35.20194
1177.183, 35.23524
1177.665, 37.01270
1178.147, 38.57951
1178.630, 37.60738
1179.112, 35.83394
1179.594, 34.85555
1180.076, 34.76623
1180.558, 35.28514
1181.040, 36.50303
1181.522, 37.53281
1182.004, 38.16600
1182.486, 38.19269
1182.969, 36.70471
1183.451, 34.85771
1183.933, 34.14304
1184.415, 34.88863
1184.897, 35.59029
1185.379, 36.30933
1185.861, 36.58972
1186.343, 35.89432
1186.825, 35.05211
1187.308, 35.12255
1187.790, 35.68529
1188.272, 36.08937
1188.754, 36.19242
1189.236, 36.25511
1189.718, 36.24354
1190.200, 36.36871
1190.682, 37.13329
1191.165, 37.80912
1191.647, 37.15684
1192.129, 35.76989
1192.611, 34.83227
1193.093, 34.55985
1193.575, 34.82471
1194.057, 35.75911
1194.539, 36.68927
1195.021, 37.07103
1195.504, 37.15303
1195.986, 37.28850
1196.468, 37.20304
1196.950, 37.28911
1197.432, 36.73604
1197.914, 36.24184
1198.396, 35.78224
1198.878, 35.57779
1199.360, 36.12767
1199.843, 36.88271
1200.325, 37.03291
1200.807, 36.66008
1201.289, 36.17177
1201.771, 35.28076
1202.253, 35.17788
1202.735, 36.17470
1203.217, 37.40452
1203.700, 38.05878
1204.182, 38.24179
1204.664, 37.85892
1205.146, 37.05318
1205.628, 36.78608
1206.110, 37.73767
1206.592, 37.90368
1207.074, 36.73487
1207.557, 35.37227
1208.039, 35.33596
1208.521, 35.96870
1209.003, 36.26621
1209.485, 36.18243
1209.967, 36.56629
1210.449, 37.99880
1210.931, 38.70471
1211.413, 38.18828
1211.896, 37.16426
1212.378, 36.23064
1212.860, 35.59892
1213.342, 35.79871
1213.824, 36.88182
1214.306, 37.44546
1214.788, 37.08147
1215.270, 37.00254
1215.752, 37.65972
1216.235, 38.40108
1216.717, 38.30880
1217.199, 37.68955
1217.681, 36.89553
1218.163, 35.94649
1218.645, 35.25135
1219.127, 34.84594
1219.609, 34.59968
1220.092, 34.41474
1220.574, 34.49333
1221.056, 35.44952
1221.538, 36.70827
1222.020, 37.39827
1222.502, 37.28065
1222.984, 37.31248
1223.466, 37.59513
1223.948, 37.85996
1224.431, 38.12938
1224.913, 38.08553
1225.395, 36.58389
1225.877, 34.80779
1226.359, 34.60820
1226.841, 36.80189
1227.323, 37.80827
1227.805, 37.35237
1228.287, 36.69966
1228.770, 36.25338
1229.252, 36.10027
1229.734, 36.62761
1230.216, 37.39080
1230.698, 37.69829
1231.180, 38.19018
1231.662, 37.53721
1232.144, 38.69020
1232.627, 39.47421
1233.109, 39.25599
1233.591, 38.50058
1234.073, 37.22924
1234.555, 36.03663
1235.037, 35.91064
1235.519, 37.21153
1236.001, 37.60517
1236.484, 36.97601
1236.966, 36.46516
1237.448, 36.78845
1237.930, 37.25874
1238.412, 37.21480
1238.894, 36.87319
1239.376, 36.47161
1239.858, 35.98008
1240.340, 35.74195
1240.823, 35.75426
1241.305, 36.17444
1241.787, 37.43528
1242.269, 38.63533
1242.751, 39.06516
1243.233, 38.92006
1243.715, 38.35592
1244.197, 37.30654
1244.679, 36.76709
1245.162, 36.72898
1245.644, 36.96966
1246.126, 37.75488
1246.608, 38.26836
1247.090, 37.51197
1247.572, 36.49546
1248.054, 36.48783
1248.536, 37.54944
1249.019, 37.74769
1249.501, 37.16417
1249.983, 36.67572
1250.465, 36.79771
1250.947, 37.10120
1251.429, 37.56170
1251.911, 37.94420
1252.393, 37.91980
1252.875, 37.53157
1253.358, 37.81518
1253.840, 38.63973
1254.322, 39.14349
1254.804, 38.45267
1255.286, 37.91613
1255.768, 38.14824
1256.250, 38.55902
1256.732, 38.51365
1257.214, 38.18661
1257.697, 38.98590
1258.179, 40.59641
1258.661, 41.54217
1259.143, 40.50031
1259.625, 39.67830
1260.107, 39.59037
1260.589, 39.67370
1261.071, 39.59996
1261.554, 39.28668
1262.036, 38.00008
1262.518, 36.20058
1263.000, 35.40662
1263.482, 36.97648
1263.964, 38.48067
1264.446, 39.84629
1264.928, 40.77521
1265.411, 40.71916
1265.893, 40.20494
1266.375, 40.42534
1266.857, 41.03767
1267.339, 41.07360
1267.821, 39.47136
1268.303, 38.88496
1268.785, 39.60315
1269.267, 40.45383
1269.750, 40.45293
1270.232, 40.08842
1270.714, 40.09800
1271.196, 40.22486
1271.678, 39.77710
1272.160, 38.34065
1272.642, 37.50497
1273.124, 37.32708
1273.606, 37.61506
1274.089, 38.77053
1274.571, 39.80809
1275.053, 39.51224
1275.535, 38.60494
1276.017, 38.45620
1276.499, 39.29192
1276.981, 39.40968
1277.463, 38.78927
1277.946, 38.34915
1278.428, 38.88178
1278.910, 39.57121
1279.392, 40.06863
1279.874, 40.32948
1280.356, 40.29118
1280.838, 39.96013
1281.320, 39.44697
1281.802, 38.80130
1282.285, 38.39268
1282.767, 38.64376
1283.249, 38.87635
1283.731, 38.77662
1284.213, 38.63424
1284.695, 38.76949
1285.177, 39.08342
1285.659, 38.96714
1286.141, 38.56365
1286.624, 38.47464
1287.106, 39.41866
1287.588, 40.05700
1288.070, 40.44054
1288.552, 40.08374
1289.034, 37.59702
1289.516, 34.52688
1289.998, 35.02016
1290.481, 37.80340
1290.963, 39.57737
1291.445, 38.89142
1291.927, 37.79288
1292.409, 36.01006
1292.891, 34.91927
1293.373, 36.28970
1293.855, 38.27533
1294.338, 38.19215
1294.820, 37.10443
1295.302, 37.13491
1295.784, 38.80289
1296.266, 39.99718
1296.748, 40.71659
1297.230, 40.97373
1297.712, 40.45303
1298.194, 39.84979
1298.677, 39.67320
1299.159, 39.76693
1299.641, 40.01534
1300.123, 40.43679
1300.605, 40.01337
1301.087, 38.86848
1301.569, 38.13755
1302.051, 38.89227
1302.533, 39.38860
1303.016, 39.04210
##END=



