##NAMES=Gustavite
##RRUFFID=R100203
##IDEAL CHEMISTRY=Ag^1+^Pb^2+^Bi^3+^_3_S^2-^_6_
##LOCALITY=Level 390, Vein 14, Mina Herminia, Julcani District, Huancavelica, Peru
##OWNER=RRUFF
##SOURCE=William W Pinch
##DESCRIPTION=Elongated black metallic crystals with striations, on a matrix of tetrahedrite, R100204.
##STATUS=The identification of this mineral is confirmed by single-crystal X-ray diffraction and chemical analysis.
##URL=rruff.info/R100203
##MEASURED CHEMISTRY=Ag_1.02_Pb_0.96_Bi_1.86_Sb_1.17_(S_5.97_As_0.03_)_Î£=6.00_
169.6203, 111.7537
170.1024, 112.6243
170.5845, 112.4086
171.0666, 112.4749
171.5487, 114.2083
172.0309, 117.4395
172.5130, 119.8727
172.9951, 119.0338
173.4772, 116.5097
173.9593, 114.7654
174.4414, 115.3324
174.9236, 116.8242
175.4057, 117.6892
175.8878, 117.9190
176.3699, 118.2374
176.8520, 119.6389
177.3341, 121.5978
177.8163, 122.9709
178.2984, 122.8659
178.7805, 122.0272
179.2626, 121.5207
179.7447, 121.3829
180.2268, 121.4048
180.7090, 121.3320
181.1911, 121.2363
181.6732, 121.3493
182.1553, 121.7599
182.6374, 122.4504
183.1195, 123.5694
183.6017, 125.2444
184.0838, 126.7100
184.5659, 126.6856
185.0480, 125.4984
185.5301, 124.8159
186.0123, 126.0866
186.4944, 128.5482
186.9765, 129.6124
187.4586, 129.0072
187.9407, 127.7444
188.4228, 127.0192
188.9050, 126.8203
189.3871, 127.0873
189.8692, 128.0726
190.3513, 129.5872
190.8334, 130.7273
191.3155, 131.4500
191.7977, 131.7837
192.2798, 131.5980
192.7619, 130.8959
193.2440, 130.2964
193.7261, 130.2292
194.2082, 130.6357
194.6904, 130.7887
195.1725, 130.6047
195.6546, 130.2526
196.1367, 129.9844
196.6188, 129.7876
197.1009, 129.7910
197.5831, 130.2425
198.0652, 131.1424
198.5473, 131.4924
199.0294, 131.0717
199.5115, 130.3109
199.9937, 130.0890
200.4758, 130.4514
200.9579, 131.0422
201.4400, 131.8136
201.9221, 132.8099
202.4042, 133.2712
202.8864, 132.9314
203.3685, 132.2569
203.8506, 132.5952
204.3327, 134.2898
204.8148, 135.5935
205.2969, 135.2277
205.7791, 132.8446
206.2612, 131.3743
206.7433, 131.1609
207.2254, 131.8145
207.7075, 132.3881
208.1896, 132.8698
208.6718, 133.3118
209.1539, 133.8249
209.6360, 134.5026
210.1181, 134.7171
210.6002, 134.2665
211.0823, 133.4296
211.5645, 133.0398
212.0466, 133.2823
212.5287, 133.5378
213.0108, 133.4086
213.4929, 132.7252
213.9750, 132.3601
214.4572, 132.5015
214.9393, 132.9351
215.4214, 132.9580
215.9035, 132.3121
216.3856, 131.7783
216.8678, 131.9013
217.3499, 133.0418
217.8320, 133.6053
218.3141, 133.2672
218.7962, 132.3710
219.2783, 132.0678
219.7605, 132.7016
220.2426, 133.2980
220.7247, 133.2577
221.2068, 132.2274
221.6889, 131.5907
222.1710, 131.5675
222.6532, 131.9394
223.1353, 131.9992
223.6174, 131.5712
224.0995, 131.1301
224.5816, 130.9009
225.0637, 130.8946
225.5459, 131.1275
226.0280, 131.8894
226.5101, 132.8306
226.9922, 132.7222
227.4743, 130.7935
227.9564, 129.0275
228.4386, 128.4809
228.9207, 129.8814
229.4028, 130.7617
229.8849, 131.0339
230.3670, 130.7770
230.8492, 130.1027
231.3313, 128.5051
231.8134, 127.2625
232.2955, 127.0687
232.7776, 128.6377
233.2597, 129.6039
233.7419, 129.8325
234.2240, 129.4883
234.7061, 128.9449
235.1882, 128.0231
235.6703, 127.1817
236.1524, 126.5917
236.6346, 126.2387
237.1167, 126.2063
237.5988, 126.6390
238.0809, 127.3376
238.5630, 127.9027
239.0451, 128.5625
239.5273, 128.7295
240.0094, 128.0007
240.4915, 125.6836
240.9736, 124.2960
241.4557, 124.1507
241.9378, 124.7790
242.4200, 125.2395
242.9021, 125.5375
243.3842, 125.6626
243.8663, 125.6089
244.3484, 125.3668
244.8306, 124.9633
245.3127, 124.3564
245.7948, 123.6154
246.2769, 122.8188
246.7590, 121.7606
247.2411, 121.0111
247.7233, 120.7939
248.2054, 121.2107
248.6875, 121.8517
249.1696, 123.0521
249.6517, 124.2506
250.1338, 124.4159
250.6160, 122.8876
251.0981, 121.5143
251.5802, 120.9205
252.0623, 121.2585
252.5444, 121.5782
253.0265, 121.9025
253.5087, 122.1888
253.9908, 122.4028
254.4729, 122.6547
254.9550, 122.6143
255.4371, 122.1254
255.9192, 121.1305
256.4014, 120.1541
256.8835, 119.0249
257.3656, 118.0847
257.8477, 117.7971
258.3298, 118.4827
258.8120, 119.0954
259.2941, 119.3199
259.7762, 119.1180
260.2583, 119.2582
260.7404, 120.0485
261.2225, 120.7972
261.7047, 120.5904
262.1868, 118.8008
262.6689, 117.7384
263.1510, 118.2130
263.6331, 120.1531
264.1152, 120.9421
264.5974, 120.0303
265.0795, 118.8063
265.5616, 118.7660
266.0437, 120.4174
266.5258, 121.5484
267.0079, 121.6124
267.4901, 120.7538
267.9722, 120.3003
268.4543, 120.4595
268.9364, 120.6058
269.4185, 120.0676
269.9006, 118.5534
270.3828, 117.6632
270.8649, 117.7842
271.3470, 118.6957
271.8291, 119.4157
272.3112, 119.9904
272.7933, 120.2633
273.2755, 120.0346
273.7576, 119.2236
274.2397, 118.4512
274.7218, 117.7669
275.2039, 117.1818
275.6860, 116.7522
276.1682, 116.4970
276.6503, 116.3104
277.1324, 116.1085
277.6145, 115.8845
278.0966, 115.7832
278.5787, 115.8235
279.0609, 115.9895
279.5430, 116.3667
280.0251, 117.0339
280.5072, 117.4317
280.9893, 117.1917
281.4715, 116.3211
281.9536, 115.2793
282.4357, 113.9513
282.9178, 112.7159
283.3999, 112.3580
283.8820, 112.9222
284.3642, 113.5204
284.8463, 113.8795
285.3284, 113.9723
285.8105, 113.3820
286.2926, 111.9479
286.7747, 110.3251
287.2569, 109.4919
287.7390, 109.4178
288.2211, 109.3178
288.7032, 108.8637
289.1853, 108.1228
289.6674, 107.4119
290.1496, 106.7463
290.6317, 106.0008
291.1138, 104.7658
291.5959, 103.1768
292.0780, 102.2424
292.5602, 102.6829
293.0423, 103.8501
293.5244, 104.0157
294.0065, 103.1477
294.4886, 101.9973
294.9707, 101.1337
295.4529, 100.5236
295.9350, 100.0683
296.4171, 99.76388
296.8992, 99.56996
297.3813, 99.48251
297.8634, 99.48736
298.3456, 99.41525
298.8277, 99.14702
299.3098, 98.70782
299.7919, 98.07840
300.2740, 97.09407
300.7561, 96.21574
301.2383, 96.27901
301.7204, 97.09207
302.2025, 97.77926
302.6846, 97.63924
303.1667, 97.07061
303.6488, 96.71443
304.1310, 96.75317
304.6131, 96.75356
305.0952, 96.14076
305.5773, 95.12248
306.0594, 94.26363
306.5415, 94.10844
307.0237, 94.13631
307.5058, 93.72275
307.9879, 92.75235
308.4700, 91.75396
308.9521, 91.02321
309.4343, 90.54868
309.9164, 90.28786
310.3985, 90.53842
310.8806, 90.77782
311.3627, 90.64233
311.8448, 90.11359
312.3270, 89.26779
312.8091, 87.54578
313.2912, 85.72327
313.7733, 84.71654
314.2554, 85.65995
314.7375, 86.80136
315.2197, 87.37666
315.7018, 87.39388
316.1839, 86.94957
316.6660, 85.37410
317.1481, 83.72276
317.6302, 82.91304
318.1124, 84.07742
318.5945, 84.96281
319.0766, 84.40800
319.5587, 82.87131
320.0408, 81.93507
320.5229, 82.91634
321.0051, 84.05831
321.4872, 84.29945
321.9693, 82.78857
322.4514, 81.66617
322.9335, 81.72647
323.4156, 82.43566
323.8978, 82.76498
324.3799, 82.41283
324.8620, 81.76176
325.3441, 80.86707
325.8262, 79.59895
326.3083, 78.53898
326.7905, 77.69432
327.2726, 77.09045
327.7547, 76.76762
328.2368, 77.10796
328.7189, 77.32533
329.2010, 77.11581
329.6832, 76.39202
330.1653, 76.24529
330.6474, 77.20588
331.1295, 78.36147
331.6116, 78.96235
332.0938, 78.58837
332.5759, 78.33776
333.0580, 78.47176
333.5401, 78.89524
334.0222, 78.86805
334.5043, 78.18494
334.9865, 77.33473
335.4686, 76.56377
335.9507, 75.80762
336.4328, 75.30839
336.9149, 75.10985
337.3970, 75.15649
337.8792, 75.34509
338.3613, 75.75478
338.8434, 76.09177
339.3255, 76.18610
339.8076, 75.99151
340.2898, 75.92991
340.7719, 76.03796
341.2540, 76.21697
341.7361, 76.36143
342.2182, 76.48146
342.7003, 76.45499
343.1825, 76.22269
343.6646, 75.80107
344.1467, 75.23878
344.6288, 74.47948
345.1109, 73.83753
345.5930, 73.69582
346.0752, 74.01140
346.5573, 74.35142
347.0394, 74.68918
347.5215, 74.92146
348.0036, 74.75825
348.4857, 74.20634
348.9679, 73.57340
349.4500, 72.81664
349.9321, 72.13670
350.4142, 72.23759
350.8963, 73.43980
351.3784, 74.89480
351.8606, 75.59061
352.3427, 75.60836
352.8248, 75.24969
353.3069, 74.14848
353.7890, 72.97944
354.2711, 72.84521
354.7533, 73.93694
355.2354, 75.07585
355.7175, 75.24887
356.1996, 74.77181
356.6817, 74.19508
357.1638, 73.61655
357.6460, 73.12273
358.1281, 72.71506
358.6102, 72.40831
359.0923, 72.35946
359.5744, 73.09959
360.0565, 73.94749
360.5387, 74.21456
361.0208, 73.22808
361.5029, 72.22912
361.9850, 71.76267
362.4671, 71.72071
362.9492, 71.78245
363.4314, 71.89027
363.9135, 72.03285
364.3956, 72.17992
364.8777, 72.24878
365.3598, 72.51686
365.8419, 73.46350
366.3241, 74.55338
366.8062, 74.97475
367.2883, 73.87870
367.7704, 72.81339
368.2526, 72.18642
368.7347, 72.06413
369.2168, 72.06340
369.6989, 72.29900
370.1810, 72.57481
370.6631, 72.73289
371.1453, 72.72951
371.6274, 72.67841
372.1095, 72.65206
372.5916, 72.60874
373.0737, 72.21705
373.5558, 71.11624
374.0380, 70.19656
374.5201, 70.08125
375.0022, 71.20568
375.4843, 71.59180
375.9664, 70.78641
376.4485, 69.55437
376.9307, 69.58843
377.4128, 71.22985
377.8949, 72.68565
378.3770, 73.16131
378.8591, 72.70699
379.3412, 72.29166
379.8234, 71.90430
380.3055, 71.60665
380.7876, 71.53316
381.2697, 71.66772
381.7518, 71.71211
382.2339, 71.50278
382.7161, 71.21984
383.1982, 71.44880
383.6803, 72.16412
384.1624, 72.66456
384.6445, 72.09071
385.1266, 70.90878
385.6088, 70.32629
386.0909, 70.61804
386.5730, 71.24515
387.0551, 71.74536
387.5372, 72.09444
388.0193, 72.22758
388.5015, 71.89592
388.9836, 71.44176
389.4657, 71.30721
389.9478, 71.52784
390.4299, 71.64345
390.9120, 71.09134
391.3942, 70.32818
391.8763, 69.92858
392.3584, 70.46319
392.8405, 71.05163
393.3226, 71.17501
393.8047, 70.93907
394.2869, 70.82706
394.7690, 71.29678
395.2511, 71.76551
395.7332, 71.85950
396.2154, 71.38368
396.6975, 70.82113
397.1796, 69.91970
397.6617, 69.04545
398.1438, 68.82453
398.6259, 69.94938
399.1081, 71.13419
399.5902, 72.12144
400.0723, 72.94144
400.5544, 73.32077
401.0365, 73.00359
401.5186, 72.43240
402.0008, 71.94510
402.4829, 71.44509
402.9650, 71.21555
403.4471, 71.38520
403.9292, 71.84838
404.4113, 72.16323
404.8935, 72.31200
405.3756, 72.35972
405.8577, 72.32249
406.3398, 72.18996
406.8219, 72.05201
407.3040, 71.90115
407.7862, 71.76316
408.2683, 71.72012
408.7504, 71.77982
409.2325, 71.69770
409.7146, 71.26694
410.1967, 70.66285
410.6789, 70.50511
411.1610, 70.80800
411.6431, 71.20072
412.1252, 71.36081
412.6073, 71.35505
413.0894, 71.40013
413.5716, 71.60001
414.0537, 71.72424
414.5358, 71.37173
415.0179, 70.67667
415.5000, 70.06625
415.9821, 69.79721
416.4643, 69.72232
416.9464, 69.69676
417.4285, 69.70735
417.9106, 69.79729
418.3927, 70.07711
418.8748, 70.42355
419.3570, 70.68577
419.8391, 70.76834
420.3212, 70.80293
420.8033, 70.84245
421.2854, 70.88161
421.7675, 70.89454
422.2497, 70.79813
422.7318, 70.73128
423.2139, 70.77150
423.6960, 70.95698
424.1781, 71.18696
424.6602, 71.71297
425.1424, 72.20728
425.6245, 72.15362
426.1066, 70.69070
426.5887, 69.79604
427.0709, 70.24329
427.5530, 72.03053
428.0351, 72.56260
428.5172, 71.02261
428.9993, 69.35115
429.4814, 69.11087
429.9636, 70.83765
430.4457, 71.88277
430.9278, 71.86246
431.4099, 71.21163
431.8920, 70.88100
432.3741, 70.91158
432.8563, 70.91556
433.3384, 70.54641
433.8205, 69.93192
434.3026, 70.10754
434.7847, 71.16451
435.2668, 72.28267
435.7490, 72.60112
436.2311, 72.27744
436.7132, 71.81094
437.1953, 71.17502
437.6774, 70.67968
438.1595, 70.95473
438.6417, 71.81125
439.1238, 72.46652
439.6059, 72.25381
440.0880, 71.70013
440.5701, 71.33114
441.0522, 71.20604
441.5344, 71.25307
442.0165, 71.65246
442.4986, 72.12467
442.9807, 72.32420
443.4628, 71.70004
443.9449, 71.20969
444.4271, 71.39890
444.9092, 72.12593
445.3913, 72.56691
445.8734, 72.25956
446.3555, 71.80576
446.8376, 71.51187
447.3198, 71.54665
447.8019, 71.44209
448.2840, 70.96606
448.7661, 70.43959
449.2482, 70.36083
449.7303, 71.19653
450.2125, 71.66604
450.6946, 71.31174
451.1767, 70.22468
451.6588, 69.81541
452.1409, 70.26475
452.6230, 70.96349
453.1052, 71.52112
453.5873, 71.94009
454.0694, 72.28260
454.5515, 72.60653
455.0337, 72.74728
455.5158, 72.17799
455.9979, 70.96480
456.4800, 70.17714
456.9621, 70.64298
457.4442, 71.73563
457.9264, 71.84316
458.4085, 71.00150
458.8906, 70.14439
459.3727, 70.14896
459.8548, 70.61386
460.3369, 70.87321
460.8191, 70.69479
461.3012, 70.50277
461.7833, 70.68724
462.2654, 71.10966
462.7475, 71.48013
463.2296, 71.87204
463.7118, 72.01795
464.1939, 71.55781
464.6760, 70.45701
465.1581, 69.76627
465.6402, 70.20213
466.1223, 70.93469
466.6045, 71.37627
467.0866, 70.99073
467.5687, 70.87611
468.0508, 71.40701
468.5329, 72.21589
469.0150, 72.45368
469.4972, 71.66573
469.9793, 70.99786
470.4614, 70.88322
470.9435, 71.36470
471.4256, 71.50302
471.9077, 71.16399
472.3899, 70.75216
472.8720, 70.66494
473.3541, 70.93732
473.8362, 71.14669
474.3183, 71.29530
474.8004, 71.26134
475.2826, 70.54810
475.7647, 69.22648
476.2468, 68.30813
476.7289, 68.39079
477.2110, 69.22643
477.6931, 70.60257
478.1753, 72.51368
478.6574, 73.87661
479.1395, 73.28883
479.6216, 71.72496
480.1037, 70.64767
480.5858, 70.62955
481.0680, 70.80360
481.5501, 70.54613
482.0322, 70.04417
482.5143, 69.68922
482.9964, 69.55782
483.4786, 69.67549
483.9607, 70.17410
484.4428, 71.09118
484.9249, 71.82359
485.4070, 72.24049
485.8892, 72.43704
486.3713, 72.46974
486.8534, 72.27034
487.3355, 72.01089
487.8176, 71.59799
488.2997, 71.16011
488.7819, 71.01780
489.2640, 71.38857
489.7461, 71.53957
490.2282, 71.08852
490.7103, 70.09624
491.1924, 69.70385
491.6746, 69.96398
492.1567, 70.58902
492.6388, 71.59010
493.1209, 72.87621
493.6030, 73.50023
494.0851, 73.26445
494.5673, 72.56237
495.0494, 71.67700
495.5315, 70.73701
496.0136, 70.23836
496.4957, 70.75103
496.9778, 71.61842
497.4600, 72.24895
497.9421, 72.62132
498.4242, 72.62881
498.9063, 71.95749
499.3884, 71.03873
499.8705, 70.15488
500.3527, 69.17253
500.8348, 68.72227
501.3169, 69.75583
501.7990, 71.26984
502.2811, 71.85131
502.7632, 69.92287
503.2454, 68.45846
503.7275, 68.33891
504.2096, 69.42068
504.6917, 70.13075
505.1738, 70.37055
505.6559, 70.36755
506.1381, 70.23988
506.6202, 70.01427
507.1023, 69.43981
507.5844, 68.25616
508.0665, 67.19221
508.5486, 67.49567
509.0308, 69.20793
509.5129, 70.57882
509.9950, 71.14541
510.4771, 71.11320
510.9592, 70.68742
511.4413, 69.93183
511.9235, 69.44389
512.4056, 70.00258
512.8877, 70.91537
513.3698, 70.98466
513.8519, 70.06068
514.3340, 69.24875
514.8162, 69.68732
515.2983, 70.58120
515.7804, 70.95618
516.2625, 70.01671
516.7446, 69.15501
517.2267, 68.90209
517.7089, 69.14251
518.1910, 69.60036
518.6731, 70.83473
519.1552, 71.70074
519.6373, 71.61585
520.1194, 70.46752
520.6016, 69.64654
521.0837, 69.24995
521.5658, 69.07985
522.0479, 68.99522
522.5300, 68.97034
523.0121, 69.15239
523.4943, 69.62827
523.9764, 70.21058
524.4585, 70.57290
524.9406, 70.70679
525.4227, 70.73499
525.9048, 70.61485
526.3870, 70.46093
526.8691, 70.62110
527.3513, 71.07590
527.8334, 71.51392
528.3155, 71.82188
528.7976, 71.93701
529.2797, 71.72438
529.7618, 71.13058
530.2440, 70.44302
530.7261, 69.50887
531.2082, 68.71555
531.6903, 68.57468
532.1724, 70.40102
532.6545, 71.68462
533.1367, 71.08945
533.6188, 69.20683
534.1009, 68.13882
534.5830, 68.92294
535.0651, 69.88427
535.5472, 70.52839
536.0294, 70.84768
536.5115, 70.91027
536.9936, 70.57430
537.4757, 70.18060
537.9578, 70.00968
538.4399, 70.08382
538.9221, 70.25256
539.4042, 70.54147
539.8863, 70.85092
540.3684, 71.00333
540.8505, 71.00655
541.3326, 70.95843
541.8148, 70.95054
542.2969, 70.88570
542.7790, 70.41631
543.2611, 69.62087
543.7432, 69.10316
544.2253, 69.69732
544.7075, 70.55094
545.1896, 70.68690
545.6717, 69.84168
546.1538, 69.02957
546.6359, 68.52196
547.1180, 68.39930
547.6002, 68.75626
548.0823, 70.20211
548.5644, 71.45326
549.0465, 72.46297
549.5286, 73.12486
550.0107, 73.09310
550.4929, 71.87008
550.9750, 70.68890
551.4571, 69.86678
551.9392, 69.40244
552.4213, 69.47942
552.9034, 70.23465
553.3856, 71.09985
553.8677, 71.77792
554.3498, 72.23739
554.8319, 71.88570
555.3140, 70.44859
555.7961, 68.99174
556.2783, 69.25327
556.7604, 70.66340
557.2425, 71.59203
557.7246, 71.09527
558.2067, 70.21748
558.6888, 69.98486
559.1710, 70.23396
559.6531, 70.41496
560.1352, 70.17617
560.6173, 69.85576
561.0994, 69.63463
561.5815, 69.52939
562.0637, 69.50723
562.5458, 69.47031
563.0279, 69.57771
563.5100, 69.96890
563.9921, 71.08352
564.4742, 71.68890
564.9564, 71.60909
565.4385, 71.12524
565.9206, 70.62017
566.4027, 70.03164
566.8848, 69.79129
567.3669, 70.20020
567.8491, 70.95411
568.3312, 70.93766
568.8133, 70.18217
569.2954, 69.49768
569.7775, 69.68279
570.2596, 70.21878
570.7418, 70.00280
571.2239, 68.94328
571.7060, 68.00050
572.1881, 67.94709
572.6702, 68.38634
573.1523, 68.91599
573.6345, 69.57868
574.1166, 70.05235
574.5987, 70.06631
575.0808, 69.83936
575.5629, 69.73471
576.0450, 69.91845
576.5272, 70.11101
577.0093, 70.25083
577.4914, 70.35045
577.9735, 70.52652
578.4556, 70.88026
578.9377, 71.09910
579.4199, 70.98616
579.9020, 70.53651
580.3841, 70.12241
580.8662, 69.73573
581.3483, 69.43668
581.8304, 69.24854
582.3126, 69.19657
582.7947, 69.43569
583.2768, 70.09731
583.7589, 70.74100
584.2410, 70.84189
584.7231, 70.58395
585.2053, 70.33159
585.6874, 69.93914
586.1696, 69.86883
586.6517, 70.72950
587.1338, 72.23887
587.6159, 73.15186
588.0980, 72.88976
588.5801, 72.18703
589.0623, 71.14980
589.5444, 69.63010
590.0265, 68.85050
590.5086, 69.08289
590.9907, 69.70824
591.4728, 70.39236
591.9550, 71.23103
592.4371, 71.37679
592.9192, 70.58003
593.4013, 69.52576
593.8834, 69.27168
594.3655, 69.70433
594.8477, 70.11818
595.3298, 70.32307
595.8119, 70.34849
596.2940, 70.10886
596.7761, 69.69504
597.2582, 69.40433
597.7404, 69.50145
598.2225, 69.69389
598.7046, 69.82961
599.1867, 69.89359
599.6688, 69.79418
600.1509, 69.15788
600.6331, 68.59726
601.1152, 68.57753
601.5973, 69.59813
602.0794, 69.96381
602.5615, 69.32704
603.0436, 68.36479
603.5258, 67.79591
604.0079, 67.63016
604.4900, 67.86095
604.9721, 68.61558
605.4542, 69.57674
605.9363, 70.14814
606.4185, 70.34216
606.9006, 70.29394
607.3827, 69.90480
607.8648, 69.40849
608.3469, 69.07809
608.8290, 68.92482
609.3112, 69.02970
609.7933, 69.84185
610.2754, 70.64719
610.7575, 70.77171
611.2396, 70.01907
611.7217, 69.56860
612.2039, 70.14662
612.6860, 70.89977
613.1681, 71.17461
613.6502, 70.70439
614.1323, 70.15938
614.6144, 69.37177
615.0966, 68.66814
615.5787, 68.59403
616.0608, 69.26139
616.5429, 69.88089
617.0250, 70.33742
617.5071, 70.56296
617.9893, 70.18172
618.4714, 69.29169
618.9535, 68.66537
619.4356, 68.82828
619.9177, 69.40665
620.3998, 70.06776
620.8820, 70.77071
621.3641, 71.22768
621.8462, 71.08247
622.3283, 70.76911
622.8104, 70.61251
623.2925, 70.70017
623.7747, 70.74780
624.2568, 70.65334
624.7389, 70.52882
625.2210, 70.45873
625.7031, 70.43230
626.1852, 70.49693
626.6674, 70.70748
627.1495, 70.94836
627.6316, 71.01656
628.1137, 70.90624
628.5958, 70.76109
629.0779, 70.59982
629.5601, 70.45452
630.0422, 70.38005
630.5243, 70.37676
631.0064, 70.44050
631.4885, 70.60117
631.9706, 70.80730
632.4528, 71.16700
632.9349, 71.62724
633.4170, 71.66013
633.8991, 70.37922
634.3812, 69.09507
634.8633, 68.65989
635.3455, 69.50401
635.8276, 70.12270
636.3097, 70.42036
636.7918, 70.52974
637.2739, 70.50947
637.7560, 70.27385
638.2382, 70.29019
638.7203, 70.68202
639.2024, 71.16678
639.6845, 71.27376
640.1666, 71.04861
640.6487, 70.88134
641.1309, 70.93736
641.6130, 71.03548
642.0951, 70.81734
642.5772, 70.41977
643.0594, 70.24007
643.5415, 70.77654
644.0236, 71.32116
644.5057, 71.38026
644.9879, 71.00041
645.4700, 70.73914
645.9521, 70.92860
646.4342, 71.07893
646.9163, 70.95478
647.3984, 70.50216
647.8806, 70.14205
648.3627, 69.88264
648.8448, 69.69884
649.3269, 69.48868
649.8090, 69.25603
650.2911, 69.56562
650.7733, 70.58852
651.2554, 71.59779
651.7375, 71.77032
652.2196, 71.25828
652.7017, 70.34756
653.1838, 68.79400
653.6660, 67.50417
654.1481, 67.25679
654.6302, 67.74561
655.1123, 68.43192
655.5944, 69.20541
656.0765, 70.07561
656.5587, 71.40501
657.0408, 72.91969
657.5229, 73.33092
658.0050, 71.84797
658.4871, 70.59995
658.9692, 70.43454
659.4514, 71.23052
659.9335, 71.62642
660.4156, 71.58652
660.8977, 71.43554
661.3798, 71.33810
661.8619, 71.31436
662.3441, 71.54091
662.8262, 72.04122
663.3083, 72.28483
663.7904, 71.50087
664.2725, 70.40150
664.7546, 69.76788
665.2368, 69.82787
665.7189, 70.17136
666.2010, 71.12644
666.6831, 72.08983
667.1652, 72.32776
667.6473, 71.18728
668.1295, 70.38855
668.6116, 70.12284
669.0937, 70.20235
669.5758, 70.30635
670.0579, 70.44485
670.5400, 70.51969
671.0222, 70.50928
671.5043, 70.40789
671.9864, 70.12804
672.4685, 69.71557
672.9506, 69.40047
673.4327, 69.24354
673.9149, 69.29131
674.3970, 69.79510
674.8791, 70.65187
675.3612, 71.13138
675.8433, 70.39725
676.3254, 69.67722
676.8076, 69.72290
677.2897, 70.75019
677.7718, 71.38316
678.2539, 71.49289
678.7360, 71.38390
679.2181, 71.21693
679.7003, 70.98351
680.1824, 70.77933
680.6645, 70.58413
681.1466, 70.52428
681.6287, 70.87485
682.1108, 71.47263
682.5930, 71.81065
683.0751, 71.71207
683.5572, 71.61247
684.0393, 72.05184
684.5214, 72.67354
685.0035, 72.97063
685.4857, 72.44096
685.9678, 71.96003
686.4499, 71.82272
686.9320, 71.87287
687.4141, 71.73965
687.8962, 71.21463
688.3784, 70.91121
688.8605, 71.01665
689.3426, 71.41780
689.8247, 71.75992
690.3068, 72.04766
690.7889, 72.24319
691.2711, 72.33840
691.7532, 72.32649
692.2353, 72.16403
692.7174, 71.86668
693.1995, 71.52309
693.6816, 70.80197
694.1638, 70.34032
694.6459, 70.95310
695.1280, 72.75886
695.6101, 73.80411
696.0922, 72.81817
696.5743, 71.60047
697.0565, 71.19385
697.5386, 71.91916
698.0207, 72.02871
698.5028, 71.29029
698.9849, 70.43063
699.4670, 70.09139
699.9492, 70.24777
700.4313, 70.76704
700.9135, 71.71988
701.3956, 72.53569
701.8777, 72.36292
702.3598, 71.67725
702.8419, 71.31365
703.3240, 71.65298
703.8062, 72.03871
704.2883, 72.19620
704.7704, 72.16862
705.2525, 72.01682
705.7346, 71.67699
706.2167, 71.29289
706.6989, 70.78468
707.1810, 70.28343
707.6631, 70.10046
708.1452, 70.27531
708.6273, 70.55807
709.1094, 70.88419
709.5916, 71.26405
710.0737, 71.85186
710.5558, 72.56497
711.0379, 73.00008
711.5200, 72.58068
712.0021, 72.05555
712.4843, 72.28652
712.9664, 73.09159
713.4485, 73.47926
713.9306, 72.61452
714.4127, 71.66633
714.8948, 71.18410
715.3770, 71.17367
715.8591, 71.16911
716.3412, 71.12846
716.8233, 71.17631
717.3054, 71.43434
717.7875, 71.89170
718.2697, 72.23875
718.7518, 72.48547
719.2339, 72.53334
719.7160, 72.07584
720.1981, 71.44717
720.6802, 71.21559
721.1624, 71.47850
721.6445, 71.82796
722.1266, 72.09905
722.6087, 72.30481
723.0908, 72.45499
723.5729, 72.55923
724.0551, 72.57185
724.5372, 72.35400
725.0193, 72.17043
725.5014, 72.40759
725.9835, 73.22252
726.4656, 73.42032
726.9478, 72.73977
727.4299, 71.78526
727.9120, 71.44043
728.3941, 71.54153
728.8762, 71.58372
729.3583, 71.39133
729.8405, 71.17342
730.3226, 71.04261
730.8047, 71.01707
731.2868, 71.13012
731.7689, 71.60419
732.2510, 71.96886
732.7332, 72.07671
733.2153, 72.01553
733.6974, 71.89524
734.1795, 71.56141
734.6616, 71.67632
735.1437, 72.67654
735.6259, 73.98428
736.1080, 73.77569
736.5901, 72.24454
737.0722, 71.11292
737.5543, 71.51799
738.0364, 72.51237
738.5186, 73.24325
739.0007, 73.65907
739.4828, 73.60379
739.9649, 72.40684
740.4470, 71.30017
740.9291, 70.81199
741.4113, 70.95574
741.8934, 71.37917
742.3755, 72.34379
742.8576, 73.11876
743.3397, 73.38880
743.8218, 73.20396
744.3040, 72.90684
744.7861, 72.49571
745.2682, 72.14957
745.7503, 72.01248
746.2324, 72.00978
746.7145, 72.04974
747.1967, 72.12328
747.6788, 72.17911
748.1609, 72.06519
748.6430, 72.01835
749.1251, 72.20291
749.6072, 72.67043
750.0894, 73.24419
750.5715, 74.23724
751.0536, 74.91368
751.5357, 74.65133
752.0178, 73.33535
752.4999, 72.50801
752.9821, 72.21354
753.4642, 72.09881
753.9463, 71.88480
754.4284, 71.59982
754.9105, 71.16743
755.3926, 70.51603
755.8748, 70.32675
756.3569, 71.57085
756.8390, 73.15587
757.3211, 74.09171
757.8032, 73.88054
758.2853, 73.74253
758.7675, 73.85369
759.2496, 73.96409
759.7318, 73.79482
760.2139, 73.28426
760.6960, 73.01505
761.1781, 73.08469
761.6602, 73.22540
762.1423, 72.94596
762.6245, 72.49718
763.1066, 72.58524
763.5887, 73.54854
764.0708, 74.43039
764.5529, 74.39761
765.0350, 73.96758
765.5172, 73.75343
765.9993, 74.25614
766.4814, 74.46459
766.9635, 74.07282
767.4456, 73.55550
767.9277, 73.66721
768.4099, 74.58527
768.8920, 74.86925
769.3741, 74.13279
769.8562, 73.07928
770.3383, 72.73389
770.8204, 72.90744
771.3026, 73.10128
771.7847, 73.19388
772.2668, 73.20457
772.7489, 73.07236
773.2310, 72.88753
773.7131, 72.79298
774.1953, 73.07748
774.6774, 73.10355
775.1595, 72.64926
775.6416, 71.99961
776.1237, 71.67004
776.6058, 71.68343
777.0880, 71.87075
777.5701, 72.25680
778.0522, 72.67345
778.5343, 72.71490
779.0164, 72.53921
779.4985, 72.61455
779.9807, 73.30047
780.4628, 74.08118
780.9449, 74.85340
781.4270, 75.46593
781.9091, 75.62315
782.3912, 74.86463
782.8734, 74.11653
783.3555, 73.38400
783.8376, 72.79600
784.3197, 72.73421
784.8018, 73.23482
785.2839, 73.86736
785.7661, 74.60394
786.2482, 75.24506
786.7303, 75.40781
787.2124, 75.18678
787.6945, 74.85629
788.1766, 74.37313
788.6588, 73.98330
789.1409, 73.83007
789.6230, 73.86289
790.1051, 73.94150
790.5872, 74.16332
791.0693, 74.25264
791.5515, 74.14240
792.0336, 73.87063
792.5157, 73.46223
792.9978, 72.91573
793.4799, 72.61024
793.9620, 72.75214
794.4442, 73.12962
794.9263, 73.50524
795.4084, 73.86411
795.8905, 74.16957
796.3726, 74.56747
796.8547, 74.73752
797.3369, 74.33424
797.8190, 73.57340
798.3011, 73.21365
798.7832, 73.47119
799.2653, 73.70590
799.7474, 73.73093
800.2296, 73.65428
800.7117, 73.82394
801.1938, 74.21361
801.6759, 74.54598
802.1580, 74.76320
802.6401, 74.80335
803.1223, 74.32494
803.6044, 73.60090
804.0865, 73.34687
804.5686, 74.46677
805.0507, 75.39066
805.5328, 75.53323
806.0150, 75.11942
806.4971, 74.70075
806.9792, 74.29180
807.4613, 73.79570
807.9434, 73.05341
808.4255, 72.35266
808.9077, 72.48621
809.3898, 73.28958
809.8719, 74.02320
810.3540, 74.25392
810.8361, 74.40012
811.3182, 75.08365
811.8004, 75.92061
812.2825, 76.02030
812.7646, 73.88369
813.2467, 72.57422
813.7288, 72.96033
814.2109, 74.40316
814.6931, 75.36607
815.1752, 75.85345
815.6573, 75.85513
816.1394, 75.24885
816.6215, 74.35903
817.1037, 73.54646
817.5858, 72.89050
818.0679, 72.57947
818.5500, 72.79861
819.0322, 73.27090
819.5143, 74.17281
819.9964, 75.18393
820.4785, 75.57406
820.9606, 74.88887
821.4427, 74.39493
821.9249, 74.33692
822.4070, 74.50791
822.8891, 74.45495
823.3712, 74.20674
823.8533, 74.10229
824.3354, 74.30717
824.8176, 74.54618
825.2997, 74.33095
825.7818, 73.96913
826.2639, 73.99100
826.7460, 75.25289
827.2281, 76.09376
827.7103, 75.78315
828.1924, 75.01804
828.6745, 74.74655
829.1566, 75.15563
829.6387, 75.28576
830.1208, 74.93105
830.6030, 74.40531
831.0851, 74.11327
831.5672, 74.04658
832.0493, 74.24371
832.5314, 74.84868
833.0135, 75.35538
833.4957, 75.23203
833.9778, 74.88937
834.4599, 74.80849
834.9420, 75.67680
835.4241, 75.89281
835.9063, 75.07258
836.3884, 74.06044
836.8705, 73.92607
837.3526, 74.64452
837.8347, 75.32789
838.3168, 75.90233
838.7990, 76.27905
839.2811, 76.25358
839.7632, 76.02824
840.2453, 75.90503
840.7274, 76.00818
841.2095, 75.98195
841.6917, 75.53516
842.1738, 75.03162
842.6559, 74.71594
843.1380, 74.53834
843.6201, 74.83455
844.1022, 75.76371
844.5844, 76.61827
845.0665, 76.51115
845.5486, 75.82742
846.0307, 75.76885
846.5128, 76.46060
846.9949, 76.91866
847.4771, 76.17833
847.9592, 75.16218
848.4413, 74.53664
848.9234, 74.40910
849.4055, 74.60658
849.8876, 75.39277
850.3698, 76.04864
850.8519, 76.04591
851.3340, 75.45592
851.8161, 75.19597
852.2982, 75.26411
852.7803, 75.47313
853.2625, 75.75454
853.7446, 76.05978
854.2267, 76.48633
854.7088, 76.98409
855.1909, 77.02892
855.6730, 75.76364
856.1552, 74.74197
856.6373, 74.66878
857.1194, 75.40177
857.6015, 75.73074
858.0836, 75.60368
858.5657, 75.49733
859.0479, 75.73424
859.5300, 76.07093
860.0121, 75.95856
860.4942, 75.51731
860.9763, 75.16639
861.4584, 74.94955
861.9406, 75.04910
862.4227, 76.01038
862.9048, 77.38412
863.3869, 77.60657
863.8690, 76.15463
864.3511, 74.81270
864.8333, 73.89423
865.3154, 73.42705
865.7975, 73.62217
866.2796, 74.33840
866.7617, 74.97861
867.2438, 75.40943
867.7260, 75.57668
868.2081, 75.12775
868.6902, 74.48182
869.1723, 74.28394
869.6544, 75.44158
870.1365, 75.90902
870.6187, 75.25394
871.1008, 74.24257
871.5829, 73.91547
872.0650, 74.24752
872.5471, 74.79868
873.0292, 75.56963
873.5114, 76.20020
873.9935, 76.30852
874.4756, 76.06141
874.9577, 75.59289
875.4399, 74.75626
875.9220, 74.25615
876.4041, 74.50791
876.8862, 74.96159
877.3683, 75.35986
877.8505, 75.76476
878.3326, 75.54247
878.8147, 74.59789
879.2968, 73.72324
879.7789, 73.67774
880.2610, 74.13367
880.7432, 74.62044
881.2253, 75.09803
881.7074, 75.51550
882.1895, 76.00343
882.6716, 76.28109
883.1537, 76.02562
883.6359, 75.29174
884.1180, 75.12653
884.6001, 75.66076
885.0822, 76.22403
885.5643, 76.61999
886.0464, 76.75236
886.5286, 76.07854
887.0107, 74.84543
887.4928, 74.06628
887.9749, 74.58067
888.4570, 75.39412
888.9391, 76.22361
889.4213, 76.95455
889.9034, 77.26437
890.3855, 76.95073
890.8676, 76.71689
891.3497, 76.79743
891.8318, 76.88978
892.3140, 76.29808
892.7961, 75.18996
893.2782, 74.16037
893.7603, 73.22520
894.2424, 72.82207
894.7245, 73.99330
895.2067, 75.58053
895.6888, 76.15150
896.1709, 74.24586
896.6530, 73.33488
897.1351, 73.71601
897.6172, 74.63844
898.0994, 75.55696
898.5815, 76.40039
899.0636, 76.45722
899.5457, 75.61961
900.0278, 74.72707
900.5099, 74.25932
900.9921, 74.18994
901.4742, 74.62157
901.9563, 75.65193
902.4384, 76.41523
902.9205, 76.90742
903.4026, 76.97050
903.8848, 76.31566
904.3669, 75.09770
904.8490, 74.73146
905.3311, 75.18543
905.8132, 75.55942
906.2953, 75.02979
906.7775, 74.37084
907.2596, 74.45754
907.7417, 75.09135
908.2238, 75.54624
908.7059, 75.38563
909.1880, 75.33215
909.6702, 75.67575
910.1523, 76.13002
910.6344, 75.83202
911.1165, 74.80628
911.5986, 74.26371
912.0807, 74.65504
912.5629, 75.35353
913.0450, 75.79159
913.5271, 76.01601
914.0092, 76.09525
914.4913, 76.00291
914.9734, 75.83973
915.4556, 75.66891
915.9377, 75.39268
916.4198, 74.76927
916.9019, 73.74059
917.3840, 73.52083
917.8661, 74.24177
918.3483, 75.11695
918.8304, 75.59035
919.3125, 75.72578
919.7946, 75.36011
920.2767, 74.47562
920.7589, 74.21680
921.2410, 76.03732
921.7231, 77.35881
922.2052, 76.85838
922.6873, 74.84940
923.1694, 74.25877
923.6516, 75.13097
924.1337, 75.99570
924.6158, 76.10472
925.0979, 75.81200
925.5800, 75.41533
926.0621, 74.99571
926.5443, 74.75146
927.0264, 75.04953
927.5085, 75.14136
927.9906, 74.71806
928.4727, 74.12485
928.9548, 73.93002
929.4370, 74.14199
929.9191, 74.55101
930.4012, 75.16482
930.8833, 75.76286
931.3654, 76.12792
931.8475, 76.30648
932.3297, 76.30135
932.8118, 75.98734
933.2939, 75.97568
933.7761, 77.02714
934.2582, 77.79037
934.7403, 77.23772
935.2224, 75.31387
935.7045, 74.40821
936.1866, 74.53732
936.6688, 75.01662
937.1509, 75.55862
937.6330, 76.05576
938.1151, 76.40932
938.5972, 76.61562
939.0793, 76.65746
939.5615, 76.36127
940.0436, 76.10280
940.5257, 75.96861
941.0078, 75.93982
941.4899, 76.03242
941.9720, 76.23653
942.4542, 76.27829
942.9363, 76.07004
943.4184, 75.69274
943.9005, 74.87154
944.3826, 74.07829
944.8647, 74.00680
945.3469, 75.46822
945.8290, 76.41240
946.3111, 76.48689
946.7932, 76.25980
947.2753, 76.21129
947.7574, 76.32693
948.2396, 76.26099
948.7217, 76.00018
949.2038, 75.84464
949.6859, 76.24090
950.1680, 76.69039
950.6501, 76.72649
951.1323, 76.34216
951.6144, 75.92008
952.0965, 75.48194
952.5786, 75.05998
953.0607, 74.62089
953.5428, 74.23384
954.0250, 74.09565
954.5071, 74.19836
954.9892, 74.53910
955.4713, 75.35539
955.9534, 75.99463
956.4355, 75.72210
956.9177, 75.05234
957.3998, 74.73933
957.8819, 75.12852
958.3640, 75.38935
958.8461, 75.47851
959.3282, 75.49424
959.8104, 75.43785
960.2925, 75.39268
960.7746, 75.81425
961.2567, 76.73421
961.7388, 77.33259
962.2209, 76.82548
962.7031, 76.03671
963.1852, 75.32452
963.6673, 74.75663
964.1494, 75.03265
964.6315, 76.45725
965.1136, 77.67684
965.5958, 78.21683
966.0779, 78.19307
966.5600, 77.53547
967.0421, 76.51577
967.5242, 75.90621
968.0063, 76.42314
968.4885, 76.82088
968.9706, 76.35513
969.4527, 75.67288
969.9348, 75.55805
970.4169, 76.10787
970.8990, 76.91262
971.3812, 78.06330
971.8633, 78.81296
972.3454, 77.91183
972.8275, 76.36932
973.3096, 75.70367
973.7917, 76.05280
974.2739, 76.51057
974.7560, 76.86446
975.2381, 77.14629
975.7202, 77.37711
976.2023, 77.54921
976.6844, 77.62578
977.1666, 77.60808
977.6487, 77.54869
978.1308, 77.59773
978.6129, 77.41664
979.0950, 76.16991
979.5771, 74.57812
980.0593, 73.81406
980.5414, 75.11761
981.0235, 75.87405
981.5056, 75.74126
981.9877, 75.38811
982.4698, 75.56534
982.9520, 76.15687
983.4341, 76.36874
983.9162, 76.15459
984.3983, 75.97955
984.8804, 76.35720
985.3625, 76.74905
985.8447, 76.71671
986.3268, 76.25819
986.8089, 75.88879
987.2910, 75.58956
987.7731, 75.44919
988.2552, 75.52522
988.7374, 75.73959
989.2195, 76.00855
989.7016, 76.28088
990.1837, 76.39857
990.6658, 76.17818
991.1479, 76.05643
991.6301, 76.49808
992.1122, 76.93040
992.5944, 76.71362
993.0765, 75.63514
993.5586, 75.09689
994.0407, 75.13670
994.5228, 75.51711
995.0049, 76.41984
995.4871, 77.32034
995.9692, 77.39470
996.4513, 76.73481
996.9334, 76.19503
997.4155, 76.00764
997.8976, 76.05718
998.3798, 76.49069
998.8619, 77.01746
999.3440, 76.65105
999.8261, 75.55247
1000.308, 75.42607
1000.790, 77.04808
1001.272, 78.61655
1001.755, 78.53906
1002.237, 77.66011
1002.719, 76.79626
1003.201, 75.89026
1003.683, 75.62259
1004.165, 76.20249
1004.647, 76.89071
1005.129, 77.17600
1005.612, 77.20864
1006.094, 77.44643
1006.576, 77.84815
1007.058, 78.22629
1007.540, 78.63953
1008.022, 78.83466
1008.504, 78.62504
1008.986, 78.16204
1009.468, 77.57454
1009.951, 76.78810
1010.433, 76.61686
1010.915, 77.29666
1011.397, 78.07568
1011.879, 78.15592
1012.361, 77.80673
1012.843, 77.22771
1013.325, 76.37905
1013.807, 75.97219
1014.290, 76.35168
1014.772, 76.84750
1015.254, 77.23526
1015.736, 77.49310
1016.218, 77.42445
1016.700, 77.10629
1017.182, 76.99800
1017.664, 77.61807
1018.147, 78.10266
1018.629, 77.62797
1019.111, 76.77868
1019.593, 76.47767
1020.075, 77.00152
1020.557, 77.30176
1021.039, 77.30193
1021.521, 77.21093
1022.003, 77.14497
1022.486, 77.15936
1022.968, 77.43368
1023.450, 77.94254
1023.932, 78.31574
1024.414, 78.50172
1024.896, 78.38967
1025.378, 77.84074
1025.860, 77.04018
1026.343, 76.40054
1026.825, 75.95227
1027.307, 76.09243
1027.789, 77.13000
1028.271, 78.13669
1028.753, 78.20360
1029.235, 77.82786
1029.717, 77.55338
1030.199, 77.49777
1030.682, 77.33988
1031.164, 76.98145
1031.646, 76.79388
1032.128, 77.15494
1032.610, 77.80228
1033.092, 77.99861
1033.574, 77.86421
1034.056, 77.83432
1034.539, 78.37282
1035.021, 78.71699
1035.503, 78.45757
1035.985, 77.98766
1036.467, 77.84321
1036.949, 78.03494
1037.431, 78.16020
1037.913, 78.17430
1038.396, 78.11907
1038.878, 78.04839
1039.360, 77.91439
1039.842, 77.62009
1040.324, 77.16357
1040.806, 76.81969
1041.288, 76.49277
1041.770, 76.57763
1042.252, 77.42303
1042.734, 78.45113
1043.217, 78.20757
1043.699, 77.19212
1044.181, 76.76806
1044.663, 77.63679
1045.145, 78.44680
1045.627, 78.87859
1046.109, 78.85684
1046.591, 78.09544
1047.074, 76.52660
1047.556, 76.21713
1048.038, 77.16904
1048.520, 78.05226
1049.002, 77.79538
1049.484, 77.24584
1049.966, 77.04345
1050.448, 77.14597
1050.931, 77.44066
1051.413, 78.22136
1051.895, 78.40163
1052.377, 77.63305
1052.859, 76.80158
1053.341, 77.23234
1053.823, 78.35415
1054.305, 78.84527
1054.787, 78.55107
1055.270, 78.25450
1055.752, 78.32055
1056.234, 78.45315
1056.716, 78.61699
1057.198, 78.72330
1057.680, 78.27982
1058.162, 77.33517
1058.644, 76.64778
1059.126, 76.46729
1059.609, 76.60635
1060.091, 77.22100
1060.573, 77.88545
1061.055, 78.02200
1061.537, 77.32250
1062.019, 77.16367
1062.501, 77.61669
1062.983, 78.35741
1063.466, 79.57197
1063.948, 80.71414
1064.430, 80.53506
1064.912, 79.40221
1065.394, 78.41228
1065.876, 77.81471
1066.358, 77.70041
1066.840, 78.40791
1067.323, 79.18134
1067.805, 78.91005
1068.287, 77.78109
1068.769, 77.11131
1069.251, 77.00515
1069.733, 77.25926
1070.215, 78.29033
1070.697, 79.12585
1071.179, 78.82266
1071.661, 77.71468
1072.144, 77.27803
1072.626, 77.61613
1073.108, 77.94595
1073.590, 78.06165
1074.072, 78.11024
1074.554, 78.31510
1075.036, 78.54539
1075.518, 78.63331
1076.001, 78.54301
1076.483, 78.29568
1076.965, 77.70098
1077.447, 77.37772
1077.929, 77.82460
1078.411, 78.66932
1078.893, 78.79995
1079.375, 78.38480
1079.858, 77.96121
1080.340, 77.51575
1080.822, 77.42240
1081.304, 78.17113
1081.786, 79.06377
1082.268, 79.47453
1082.750, 79.39259
1083.232, 79.18996
1083.714, 78.87524
1084.197, 78.55249
1084.679, 78.28690
1085.161, 78.05110
1085.643, 77.72816
1086.125, 77.42981
1086.607, 77.51052
1087.089, 78.13802
1087.571, 78.56240
1088.054, 78.65586
1088.536, 78.59505
1089.018, 78.60725
1089.500, 78.58743
1089.982, 78.23100
1090.464, 77.49727
1090.946, 77.33613
1091.428, 78.39551
1091.911, 79.28683
1092.393, 79.57938
1092.875, 79.43642
1093.357, 78.97376
1093.839, 78.40340
1094.321, 78.47725
1094.803, 79.66541
1095.285, 80.66586
1095.767, 80.86006
1096.250, 80.62183
1096.732, 80.04578
1097.214, 79.18301
1097.696, 79.21529
1098.178, 80.08465
1098.660, 80.58237
1099.142, 79.78077
1099.624, 78.73997
1100.106, 78.06013
1100.589, 77.75433
1101.071, 77.89617
1101.553, 78.74781
1102.035, 78.99768
1102.517, 78.48409
1102.999, 78.14975
1103.481, 79.45334
1103.963, 80.96643
1104.446, 80.18383
1104.928, 77.76464
1105.410, 76.69222
1105.892, 78.82425
1106.374, 80.31699
1106.856, 80.59869
1107.338, 80.21519
1107.820, 79.66950
1108.302, 79.09660
1108.785, 78.86776
1109.267, 79.02525
1109.749, 79.10983
1110.231, 78.55779
1110.713, 78.38145
1111.195, 79.26891
1111.677, 80.57471
1112.159, 80.14979
1112.641, 78.34779
1113.124, 77.46394
1113.606, 78.25199
1114.088, 79.24406
1114.570, 79.54643
1115.052, 79.57114
1115.534, 79.62333
1116.016, 79.70918
1116.498, 79.77666
1116.981, 79.83176
1117.463, 79.66338
1117.945, 78.99375
1118.427, 78.35706
1118.909, 78.36138
1119.391, 78.70507
1119.873, 78.94006
1120.355, 78.86216
1120.838, 79.23978
1121.320, 80.23110
1121.802, 80.99194
1122.284, 80.80574
1122.766, 80.10824
1123.248, 79.31529
1123.730, 78.56674
1124.212, 78.21743
1124.694, 78.78399
1125.177, 79.15649
1125.659, 79.21977
1126.141, 79.15190
1126.623, 79.08456
1127.105, 79.04623
1127.587, 79.16996
1128.069, 79.42721
1128.551, 79.56544
1129.033, 79.20291
1129.516, 79.07201
1129.998, 79.52013
1130.480, 80.13869
1130.962, 80.21162
1131.444, 79.82765
1131.926, 79.36149
1132.408, 78.84943
1132.890, 78.63961
1133.373, 79.19702
1133.855, 79.88579
1134.337, 80.41078
1134.819, 80.76514
1135.301, 80.92005
1135.783, 80.87562
1136.265, 80.58559
1136.747, 79.96812
1137.229, 79.38600
1137.712, 79.13919
1138.194, 79.07370
1138.676, 79.05163
1139.158, 79.06129
1139.640, 79.25294
1140.122, 79.65107
1140.604, 80.01850
1141.086, 80.31968
1141.569, 80.44112
1142.051, 80.12235
1142.533, 79.61453
1143.015, 79.25240
1143.497, 79.11968
1143.979, 79.03823
1144.461, 79.02512
1144.943, 78.99837
1145.426, 78.94668
1145.908, 78.81929
1146.390, 78.17691
1146.872, 77.45676
1147.354, 77.57280
1147.836, 80.08268
1148.318, 81.36084
1148.800, 81.03310
1149.282, 80.15622
1149.765, 79.36205
1150.247, 78.77322
1150.729, 78.86633
1151.211, 79.46056
1151.693, 79.78560
1152.175, 79.07613
1152.657, 78.78139
1153.139, 79.36771
1153.621, 80.07211
1154.104, 79.80785
1154.586, 78.92268
1155.068, 78.59698
1155.550, 78.87293
1156.032, 79.30593
1156.514, 79.87839
1156.996, 80.32545
1157.478, 80.60945
1157.961, 80.70072
1158.443, 80.46402
1158.925, 79.96446
1159.407, 79.50800
1159.889, 79.13283
1160.371, 79.03967
1160.853, 79.72719
1161.335, 80.31728
1161.818, 80.12339
1162.300, 79.58496
1162.782, 80.41704
1163.264, 82.40504
1163.746, 82.68516
1164.228, 80.30740
1164.710, 78.19267
1165.192, 79.05344
1165.674, 80.47518
1166.156, 80.53529
1166.639, 79.50039
1167.121, 79.19571
1167.603, 79.62136
1168.085, 80.32072
1168.567, 81.32584
1169.049, 82.04296
1169.531, 81.71243
1170.013, 81.00870
1170.496, 80.54505
1170.978, 80.34042
1171.460, 80.51241
1171.942, 81.08995
1172.424, 81.53230
1172.906, 81.62989
1173.388, 81.43205
1173.870, 80.84071
1174.353, 80.05528
1174.835, 79.25187
1175.317, 78.30423
1175.799, 78.19656
1176.281, 79.03098
1176.763, 79.88966
1177.245, 80.28001
1177.727, 80.41142
1178.209, 80.47932
1178.692, 80.47330
1179.174, 80.35816
1179.656, 80.05190
1180.138, 79.85755
1180.620, 79.77502
1181.102, 79.79444
1181.584, 80.01700
1182.066, 80.25362
1182.548, 80.19666
1183.031, 79.97285
1183.513, 79.88995
1183.995, 80.08459
1184.477, 80.23110
1184.959, 80.33818
1185.441, 80.31569
1185.923, 80.07627
1186.405, 79.66804
1186.888, 78.93871
1187.370, 78.07845
1187.852, 77.78520
1188.334, 78.48006
1188.816, 79.11992
1189.298, 79.62160
1189.780, 80.01367
1190.262, 80.28914
1190.745, 80.49118
1191.227, 80.74546
1191.709, 81.00821
1192.191, 81.00632
1192.673, 80.46098
1193.155, 80.12601
1193.637, 80.17791
1194.119, 80.25249
1194.601, 79.69931
1195.084, 78.98612
1195.566, 78.97439
1196.048, 79.65224
1196.530, 80.15568
1197.012, 80.22837
1197.494, 80.30669
1197.976, 80.48421
1198.458, 80.66683
1198.941, 80.66663
1199.423, 80.60283
1199.905, 80.71496
1200.387, 81.02116
1200.869, 81.21253
1201.351, 81.08842
1201.833, 81.19043
1202.315, 81.82043
1202.797, 82.38403
1203.280, 81.59235
1203.762, 80.19297
1204.244, 79.51376
1204.726, 79.78600
1205.208, 80.12846
1205.690, 80.48433
1206.172, 80.67587
1206.654, 80.58369
1207.136, 80.42461
1207.619, 80.62914
1208.101, 81.01902
1208.583, 81.31413
1209.065, 81.47682
1209.547, 81.41015
1210.029, 80.95327
1210.511, 80.63374
1210.993, 80.73232
1211.476, 80.91476
1211.958, 80.39169
1212.440, 79.56535
1212.922, 79.15896
1213.404, 79.34447
1213.886, 79.87026
1214.368, 81.00317
1214.850, 81.68576
1215.333, 81.31392
1215.815, 80.49226
1216.297, 80.30633
1216.779, 80.48409
1217.261, 80.53965
1217.743, 80.34941
1218.225, 80.07785
1218.707, 79.65135
1219.189, 79.38839
1219.672, 79.42834
1220.154, 79.73016
1220.636, 80.46220
1221.118, 81.32066
1221.600, 81.73454
1222.082, 81.39198
1222.564, 81.12463
1223.046, 80.96529
1223.528, 80.90433
1224.011, 80.97904
1224.493, 81.09846
1224.975, 81.05770
1225.457, 81.19297
1225.939, 81.33817
1226.421, 81.38754
1226.903, 81.63402
1227.385, 81.76283
1227.868, 81.76679
1228.350, 81.81712
1228.832, 81.27528
1229.314, 81.71617
1229.796, 81.42234
1230.278, 81.32729
1230.760, 81.50790
1231.242, 81.14128
1231.724, 81.52954
1232.207, 81.98307
1232.689, 82.13339
1233.171, 82.08119
1233.653, 81.87380
1234.135, 81.58865
1234.617, 81.35960
1235.099, 81.23989
1235.581, 80.99775
1236.063, 80.58559
1236.546, 80.40324
1237.028, 80.83691
1237.510, 81.48255
1237.992, 82.14769
1238.474, 82.64547
1238.956, 82.55223
1239.438, 81.58472
1239.920, 81.39952
1240.403, 82.07191
1240.885, 82.51149
1241.367, 81.44740
1241.849, 80.44475
1242.331, 81.31702
1242.813, 82.91651
1243.295, 83.44795
1243.777, 82.60125
1244.260, 82.31266
1244.742, 82.57820
1245.224, 82.77063
1245.706, 82.39919
1246.188, 81.93105
1246.670, 81.52928
1247.152, 81.32178
1247.634, 81.56985
1248.116, 82.36123
1248.599, 82.18047
1249.081, 81.10456
1249.563, 80.35346
1250.045, 80.94627
1250.527, 81.73060
1251.009, 82.23121
1251.491, 82.51244
1251.973, 82.62199
1252.455, 82.56314
1252.938, 82.41834
1253.420, 82.18834
1253.902, 81.87503
1254.384, 81.30882
1254.866, 80.87890
1255.348, 80.73154
1255.830, 80.77213
1256.313, 80.91605
1256.795, 81.18222
1257.277, 81.83161
1257.759, 82.75932
1258.241, 83.42262
1258.723, 83.65263
1259.205, 83.41606
1259.687, 82.40945
1260.169, 81.46169
1260.651, 81.37516
1261.134, 81.91539
1261.616, 82.61665
1262.098, 83.29457
1262.580, 83.37157
1263.062, 81.64366
1263.544, 80.90801
1264.026, 81.71950
1264.508, 82.76819
1264.991, 82.87369
1265.473, 82.50686
1265.955, 82.63636
1266.437, 83.05468
1266.919, 83.18604
1267.401, 82.56065
1267.883, 82.23477
1268.365, 82.24402
1268.848, 82.47573
1269.330, 83.01867
1269.812, 83.59593
1270.294, 83.88707
1270.776, 83.93303
1271.258, 83.78333
1271.740, 83.31515
1272.222, 83.13219
1272.704, 83.26517
1273.187, 83.47137
1273.669, 83.72486
1274.151, 83.83654
1274.633, 83.51921
1275.115, 82.99950
1275.597, 82.63614
1276.079, 82.45630
1276.561, 82.30595
1277.043, 82.18645
1277.526, 82.13528
1278.008, 82.29982
1278.490, 82.40024
1278.972, 82.05899
1279.454, 81.73580
1279.936, 82.04346
1280.418, 82.93592
1280.900, 82.90699
1281.383, 82.13348
1281.865, 81.75972
1282.347, 82.88882
1282.829, 83.73225
1283.311, 83.38398
1283.793, 82.92091
1284.275, 83.42709
1284.757, 84.45569
1285.240, 83.72720
1285.722, 81.84731
1286.204, 80.82394
1286.686, 82.09200
1287.168, 83.08715
1287.650, 83.49707
1288.132, 83.63532
1288.614, 83.60468
1289.096, 83.52211
1289.578, 83.70957
1290.061, 84.01101
1290.543, 84.08516
1291.025, 83.62835
1291.507, 83.55798
1291.989, 84.01038
1292.471, 84.18452
1292.953, 83.36216
1293.435, 82.35596
1293.918, 82.22081
1294.400, 82.49422
1294.882, 82.41808
1295.364, 81.85408
1295.846, 82.06274
1296.328, 83.06685
1296.810, 83.59550
1297.292, 82.68394
1297.775, 81.74874
1298.257, 82.20805
1298.739, 82.89037
1299.221, 82.51582
1299.703, 82.89120
1300.185, 83.22843
1300.667, 82.75377
1301.149, 83.58817
1301.631, 83.20891
1302.114, 82.58743
1302.596, 82.08669
##END=



