##NAMES=Guyanaite
##RRUFFID=R070444
##IDEAL CHEMISTRY=Cr^3+^O(OH)
##LOCALITY=Merume river, Kamakusa, Mazaruni District, Guyana
##OWNER=RRUFF
##SOURCE=Michael Scott
##DESCRIPTION=Black alluvial grains, a mixture of guyanaite, bracewellite, eskolaite and quartz, colloquially known as merumite
##STATUS=The identification of this mineral has been confirmed only by X-ray diffraction
##URL=rruff.info/R070444
163.4554, 8124.497
163.9376, 8148.109
164.4197, 8159.439
164.9018, 8196.507
165.3839, 8271.957
165.8660, 8337.091
166.3481, 8356.874
166.8303, 8346.855
167.3124, 8329.364
167.7945, 8298.566
168.2766, 8270.628
168.7587, 8289.292
169.2408, 8379.437
169.7230, 8459.809
170.2051, 8477.680
170.6872, 8460.028
171.1693, 8447.647
171.6514, 8461.176
172.1335, 8491.057
172.6157, 8515.092
173.0978, 8535.701
173.5799, 8544.409
174.0620, 8527.222
174.5441, 8499.209
175.0262, 8482.302
175.5084, 8487.811
175.9905, 8510.745
176.4726, 8538.882
176.9547, 8576.035
177.4368, 8611.397
177.9189, 8642.852
178.4010, 8669.839
178.8832, 8691.230
179.3653, 8706.280
179.8474, 8715.839
180.3295, 8721.310
180.8116, 8716.882
181.2937, 8719.153
181.7759, 8734.196
182.2580, 8757.396
182.7401, 8783.854
183.2222, 8812.118
183.7043, 8840.717
184.1864, 8865.901
184.6686, 8888.834
185.1507, 8905.238
185.6328, 8907.451
186.1149, 8905.896
186.5970, 8913.810
187.0791, 8938.597
187.5613, 8972.771
188.0434, 8996.920
188.5255, 9006.638
189.0076, 9012.628
189.4897, 9014.794
189.9718, 9016.090
190.4540, 9019.962
190.9361, 9028.085
191.4182, 9038.445
191.9003, 9045.668
192.3824, 9045.953
192.8645, 9050.119
193.3467, 9065.788
193.8288, 9082.901
194.3109, 9088.142
194.7930, 9075.913
195.2751, 9059.298
195.7572, 9068.113
196.2394, 9118.470
196.7215, 9165.349
197.2036, 9212.096
197.6857, 9248.839
198.1678, 9264.073
198.6499, 9254.446
199.1321, 9230.385
199.6142, 9210.015
200.0963, 9191.709
200.5784, 9181.246
201.0605, 9177.081
201.5426, 9180.331
202.0248, 9195.979
202.5069, 9224.218
202.9890, 9254.675
203.4711, 9270.271
203.9532, 9264.946
204.4353, 9257.493
204.9175, 9251.334
205.3996, 9242.136
205.8817, 9222.927
206.3638, 9194.109
206.8459, 9166.522
207.3280, 9156.674
207.8102, 9174.272
208.2923, 9185.314
208.7744, 9191.548
209.2565, 9190.752
209.7386, 9176.868
210.2207, 9151.830
210.7029, 9126.641
211.1850, 9114.924
211.6671, 9120.970
212.1492, 9125.175
212.6313, 9121.688
213.1134, 9121.367
213.5956, 9130.453
214.0777, 9148.331
214.5598, 9170.401
215.0419, 9193.789
215.5240, 9220.146
216.0061, 9235.925
216.4883, 9233.185
216.9704, 9227.479
217.4525, 9223.632
217.9346, 9221.773
218.4167, 9219.945
218.8988, 9216.119
219.3810, 9210.146
219.8631, 9207.654
220.3452, 9207.070
220.8273, 9211.902
221.3094, 9230.018
221.7915, 9254.358
222.2737, 9271.137
222.7558, 9269.657
223.2379, 9251.842
223.7200, 9238.530
224.2021, 9230.543
224.6842, 9226.844
225.1664, 9235.962
225.6485, 9247.538
226.1306, 9242.880
226.6127, 9208.403
227.0948, 9156.161
227.5770, 9138.810
228.0591, 9195.886
228.5412, 9235.485
229.0233, 9230.398
229.5054, 9204.898
229.9875, 9187.668
230.4697, 9191.847
230.9518, 9207.810
231.4339, 9211.169
231.9160, 9192.152
232.3981, 9176.868
232.8802, 9169.404
233.3624, 9166.124
233.8445, 9162.824
234.3266, 9158.323
234.8087, 9156.280
235.2908, 9165.488
235.7729, 9196.579
236.2551, 9213.160
236.7372, 9197.042
237.2193, 9177.857
237.7014, 9177.973
238.1835, 9200.407
238.6656, 9228.838
239.1478, 9243.751
239.6299, 9242.938
240.1120, 9236.363
240.5941, 9206.009
241.0762, 9184.966
241.5583, 9200.340
242.0405, 9246.132
242.5226, 9287.522
243.0047, 9282.167
243.4868, 9223.272
243.9689, 9200.369
244.4510, 9264.458
244.9332, 9317.338
245.4153, 9317.964
245.8974, 9276.463
246.3795, 9224.259
246.8616, 9179.638
247.3437, 9142.882
247.8259, 9118.566
248.3080, 9106.879
248.7901, 9109.363
249.2722, 9137.937
249.7543, 9177.594
250.2364, 9203.242
250.7186, 9198.361
251.2007, 9174.360
251.6828, 9165.611
252.1649, 9181.883
252.6470, 9193.558
253.1291, 9183.478
253.6113, 9167.463
254.0934, 9163.460
254.5755, 9179.111
255.0576, 9204.446
255.5397, 9226.424
256.0219, 9247.039
256.5040, 9256.211
256.9861, 9241.395
257.4682, 9219.289
257.9503, 9198.736
258.4324, 9181.347
258.9146, 9171.743
259.3967, 9179.276
259.8788, 9205.026
260.3609, 9222.805
260.8430, 9222.141
261.3251, 9216.640
261.8073, 9216.710
262.2894, 9222.395
262.7715, 9226.979
263.2536, 9225.220
263.7357, 9218.004
264.2178, 9208.795
264.7000, 9191.276
265.1821, 9182.848
265.6642, 9204.580
266.1463, 9246.950
266.6284, 9277.648
267.1105, 9273.568
267.5927, 9248.959
268.0748, 9233.589
268.5569, 9229.688
269.0390, 9230.045
269.5211, 9230.010
270.0032, 9230.882
270.4854, 9235.717
270.9675, 9248.643
271.4496, 9263.113
271.9317, 9271.987
272.4138, 9275.185
272.8959, 9275.301
273.3781, 9271.107
273.8602, 9265.800
274.3423, 9266.539
274.8244, 9279.775
275.3065, 9287.887
275.7886, 9267.449
276.2708, 9228.431
276.7529, 9215.889
277.2350, 9256.042
277.7171, 9315.917
278.1992, 9338.820
278.6813, 9319.458
279.1635, 9298.430
279.6456, 9284.856
280.1277, 9280.279
280.6098, 9257.937
281.0919, 9308.098
281.5740, 9340.064
282.0562, 9354.805
282.5383, 9301.248
283.0204, 9335.472
283.5025, 9334.268
283.9846, 9331.439
284.4667, 9377.509
284.9489, 9332.971
285.4310, 9377.905
285.9131, 9386.874
286.3952, 9412.043
286.8773, 9401.567
287.3594, 9401.869
287.8416, 9437.472
288.3237, 9453.250
288.8058, 9437.979
289.2879, 9463.120
289.7700, 9415.561
290.2521, 9431.464
290.7343, 9474.647
291.2164, 9460.269
291.6985, 9485.168
292.1806, 9494.863
292.6627, 9436.087
293.1448, 9475.258
293.6270, 9481.794
294.1091, 9483.765
294.5912, 9483.266
295.0733, 9474.315
295.5554, 9474.992
296.0375, 9496.687
296.5197, 9519.072
297.0018, 9524.434
297.4839, 9513.051
297.9660, 9500.244
298.4481, 9502.014
298.9302, 9520.387
299.4124, 9539.778
299.8945, 9564.662
300.3766, 9586.088
300.8587, 9599.087
301.3408, 9606.244
301.8229, 9614.116
302.3050, 9628.126
302.7871, 9645.172
303.2693, 9647.816
303.7514, 9617.939
304.2335, 9600.701
304.7156, 9611.521
305.1977, 9635.554
305.6798, 9658.427
306.1620, 9674.979
306.6441, 9685.746
307.1262, 9691.450
307.6083, 9691.919
308.0904, 9687.823
308.5725, 9664.763
309.0547, 9647.474
309.5368, 9658.356
310.0189, 9696.619
310.5010, 9732.800
310.9831, 9737.879
311.4652, 9714.972
311.9474, 9698.017
312.4295, 9690.429
312.9116, 9687.854
313.3937, 9685.612
313.8758, 9685.351
314.3579, 9692.001
314.8401, 9716.358
315.3222, 9745.230
315.8043, 9753.713
316.2864, 9739.244
316.7685, 9719.039
317.2506, 9696.428
317.7328, 9676.046
318.2149, 9666.252
318.6970, 9672.063
319.1791, 9681.616
319.6612, 9683.676
320.1433, 9681.100
320.6255, 9689.180
321.1076, 9718.218
321.5897, 9751.909
322.0718, 9762.276
322.5539, 9746.926
323.0360, 9731.284
323.5182, 9718.104
324.0003, 9710.433
324.4824, 9714.508
324.9645, 9731.323
325.4466, 9751.656
325.9287, 9768.375
326.4109, 9781.195
326.8930, 9784.496
327.3751, 9767.780
327.8572, 9751.550
328.3393, 9748.756
328.8214, 9756.416
329.3036, 9763.508
329.7857, 9763.125
330.2678, 9758.006
330.7499, 9760.632
331.2320, 9782.351
331.7141, 9797.783
332.1963, 9802.040
332.6784, 9799.813
333.1605, 9794.434
333.6426, 9787.449
334.1247, 9781.835
334.6068, 9784.304
335.0890, 9805.393
335.5711, 9804.957
336.0532, 9763.054
336.5353, 9719.942
337.0174, 9692.692
337.4995, 9682.649
337.9817, 9686.282
338.4638, 9704.781
338.9459, 9735.116
339.4280, 9748.615
339.9101, 9730.484
340.3922, 9716.970
340.8744, 9726.572
341.3565, 9743.574
341.8386, 9746.274
342.3207, 9724.815
342.8028, 9694.777
343.2849, 9677.496
343.7671, 9673.332
344.2492, 9680.533
344.7313, 9716.393
345.2134, 9749.071
345.6955, 9749.466
346.1776, 9716.979
346.6598, 9681.948
347.1419, 9659.628
347.6240, 9649.379
348.1061, 9651.414
348.5882, 9668.591
349.0703, 9689.395
349.5525, 9705.735
350.0346, 9718.593
350.5167, 9730.448
350.9988, 9746.349
351.4809, 9757.782
351.9630, 9755.589
352.4452, 9741.802
352.9273, 9727.178
353.4094, 9716.921
353.8915, 9708.767
354.3736, 9695.909
354.8557, 9674.155
355.3379, 9657.425
355.8200, 9648.730
356.3021, 9646.731
356.7842, 9654.103
357.2663, 9670.336
357.7484, 9683.646
358.2306, 9680.398
358.7127, 9657.559
359.1948, 9633.713
359.6769, 9603.349
360.1590, 9577.590
360.6411, 9561.252
361.1233, 9553.441
361.6054, 9550.706
362.0875, 9550.651
362.5696, 9555.396
363.0517, 9575.011
363.5338, 9634.720
364.0160, 9667.392
364.4981, 9645.216
364.9802, 9608.470
365.4623, 9592.571
365.9444, 9604.207
366.4265, 9622.094
366.9087, 9620.398
367.3908, 9597.456
367.8729, 9582.124
368.3550, 9573.800
368.8371, 9576.262
369.3192, 9598.358
369.8014, 9631.815
370.2835, 9656.754
370.7656, 9660.532
371.2477, 9653.275
371.7298, 9653.458
372.2119, 9662.498
372.6941, 9664.655
373.1762, 9645.869
373.6583, 9621.030
374.1404, 9614.194
374.6225, 9631.361
375.1046, 9647.457
375.5868, 9644.958
376.0689, 9632.934
376.5510, 9631.100
377.0331, 9644.462
377.5152, 9660.449
377.9973, 9667.257
378.4795, 9663.806
378.9616, 9654.689
379.4437, 9626.554
379.9258, 9604.813
380.4079, 9612.629
380.8900, 9640.323
381.3722, 9659.326
381.8543, 9653.492
382.3364, 9630.904
382.8185, 9615.869
383.3006, 9616.106
383.7827, 9614.394
384.2649, 9603.111
384.7470, 9594.431
385.2291, 9601.217
385.7112, 9623.681
386.1933, 9649.589
386.6754, 9667.300
387.1576, 9676.725
387.6397, 9677.800
388.1218, 9656.521
388.6039, 9643.337
389.0860, 9651.202
389.5681, 9672.582
390.0503, 9696.729
390.5324, 9720.835
391.0145, 9741.100
391.4966, 9748.802
391.9787, 9742.026
392.4608, 9741.014
392.9430, 9755.336
393.4251, 9773.727
393.9072, 9784.338
394.3893, 9787.171
394.8714, 9791.939
395.3535, 9805.038
395.8357, 9822.521
396.3178, 9838.066
396.7999, 9851.052
397.2820, 9863.582
397.7641, 9879.225
398.2462, 9895.381
398.7284, 9900.793
399.2105, 9887.503
399.6926, 9872.657
400.1747, 9857.955
400.6568, 9847.190
401.1389, 9848.097
401.6211, 9863.304
402.1032, 9886.097
402.5853, 9908.429
403.0674, 9935.971
403.5495, 9943.526
404.0316, 9911.026
404.5138, 9880.089
404.9959, 9878.066
405.4780, 9895.832
405.9601, 9905.221
406.4422, 9886.236
406.9243, 9850.662
407.4065, 9843.169
407.8886, 9882.476
408.3707, 9911.483
408.8528, 9909.293
409.3349, 9899.979
409.8170, 9903.582
410.2992, 9922.675
410.7813, 9943.152
411.2634, 9952.428
411.7455, 9952.495
412.2276, 9952.925
412.7097, 9953.938
413.1919, 9956.216
413.6740, 9957.436
414.1561, 9960.470
414.6382, 9973.146
415.1203, 10010.10
415.6024, 10041.04
416.0846, 10034.52
416.5667, 10002.76
417.0488, 9985.484
417.5309, 9998.147
418.0130, 10023.05
418.4951, 10034.45
418.9773, 10028.77
419.4594, 10020.16
419.9415, 10007.53
420.4236, 9993.356
420.9057, 9970.401
421.3878, 9946.022
421.8700, 9942.850
422.3521, 9977.753
422.8342, 10040.43
423.3163, 10087.31
423.7984, 10123.78
424.2805, 10133.60
424.7627, 10089.04
425.2448, 10037.31
425.7269, 10019.64
426.2090, 10040.03
426.6911, 10069.92
427.1732, 10082.99
427.6554, 10080.73
428.1375, 10077.34
428.6196, 10065.49
429.1017, 10066.97
429.5838, 10105.23
430.0659, 10160.38
430.5481, 10202.94
431.0302, 10223.72
431.5123, 10235.58
431.9944, 10251.10
432.4765, 10266.88
432.9586, 10266.45
433.4408, 10240.78
433.9229, 10214.30
434.4050, 10217.18
434.8871, 10252.46
435.3692, 10288.75
435.8513, 10328.25
436.3335, 10364.86
436.8156, 10392.97
437.2977, 10415.14
437.7798, 10440.87
438.2619, 10475.90
438.7440, 10511.21
439.2262, 10520.42
439.7083, 10464.97
440.1904, 10453.71
440.6725, 10532.82
441.1546, 10614.93
441.6367, 10632.47
442.1189, 10595.86
442.6010, 10569.05
443.0831, 10608.59
443.5652, 10692.07
444.0473, 10727.94
444.5294, 10698.42
445.0116, 10671.07
445.4937, 10672.44
445.9758, 10688.43
446.4579, 10710.54
446.9400, 10739.80
447.4221, 10758.37
447.9043, 10744.33
448.3864, 10714.00
448.8685, 10703.87
449.3506, 10719.87
449.8327, 10739.98
450.3148, 10747.74
450.7970, 10744.04
451.2791, 10741.13
451.7612, 10736.96
452.2433, 10735.85
452.7254, 10747.51
453.2076, 10760.11
453.6897, 10756.22
454.1718, 10731.17
454.6539, 10693.94
455.1360, 10653.44
455.6181, 10606.11
456.1003, 10575.89
456.5824, 10579.02
457.0645, 10583.63
457.5466, 10584.61
458.0287, 10579.71
458.5108, 10565.45
458.9930, 10539.43
459.4751, 10508.13
459.9572, 10478.52
460.4393, 10450.66
460.9214, 10429.42
461.4035, 10416.62
461.8857, 10409.78
462.3678, 10410.99
462.8499, 10417.75
463.3320, 10415.75
463.8141, 10362.84
464.2962, 10401.68
464.7784, 10422.51
465.2605, 10426.29
465.7426, 10361.95
466.2247, 10385.58
466.7068, 10373.95
467.1889, 10360.87
467.6711, 10396.87
468.1532, 10342.44
468.6353, 10377.66
469.1174, 10377.10
469.5995, 10392.91
470.0816, 10373.26
470.5638, 10364.56
471.0459, 10391.34
471.5280, 10398.47
472.0101, 10374.74
472.4922, 10391.59
472.9743, 10335.92
473.4565, 10343.90
473.9386, 10379.33
474.4207, 10357.37
474.9028, 10374.88
475.3849, 10377.35
475.8670, 10299.07
476.3492, 10275.76
476.8313, 10285.70
477.3134, 10329.58
477.7955, 10360.68
478.2776, 10350.84
478.7597, 10317.45
479.2419, 10302.91
479.7240, 10312.67
480.2061, 10324.02
480.6882, 10332.21
481.1703, 10340.48
481.6524, 10354.73
482.1346, 10373.22
482.6167, 10385.26
483.0988, 10381.55
483.5809, 10366.30
484.0630, 10363.26
484.5451, 10380.99
485.0273, 10397.27
485.5094, 10414.53
485.9915, 10425.44
486.4736, 10419.99
486.9557, 10399.35
487.4378, 10379.30
487.9200, 10370.03
488.4021, 10370.91
488.8842, 10385.08
489.3663, 10416.71
489.8484, 10436.09
490.3305, 10417.53
490.8127, 10382.73
491.2948, 10379.24
491.7769, 10420.50
492.2590, 10453.63
492.7411, 10454.05
493.2232, 10440.68
493.7054, 10433.09
494.1875, 10433.82
494.6696, 10439.66
495.1517, 10450.35
495.6338, 10462.60
496.1159, 10454.39
496.5981, 10401.58
497.0802, 10361.99
497.5623, 10347.12
498.0444, 10342.85
498.5265, 10341.72
499.0086, 10340.47
499.4908, 10317.90
499.9729, 10339.58
500.4550, 10350.79
500.9371, 10352.10
501.4192, 10312.95
501.9013, 10326.78
502.3835, 10319.83
502.8656, 10312.32
503.3477, 10334.52
503.8298, 10302.89
504.3119, 10325.26
504.7940, 10326.52
505.2762, 10337.90
505.7583, 10328.37
506.2404, 10325.71
506.7225, 10344.61
507.2046, 10352.07
507.6867, 10341.36
508.1689, 10355.28
508.6510, 10326.08
509.1331, 10335.31
509.6152, 10340.76
510.0973, 10344.59
510.5794, 10345.34
511.0616, 10343.68
511.5437, 10341.28
512.0258, 10337.86
512.5079, 10335.50
512.9901, 10342.71
513.4722, 10362.23
513.9543, 10373.98
514.4364, 10367.21
514.9185, 10352.27
515.4006, 10341.81
515.8828, 10335.77
516.3649, 10334.01
516.8470, 10340.18
517.3291, 10347.87
517.8112, 10349.12
518.2933, 10345.87
518.7755, 10348.37
519.2576, 10362.93
519.7397, 10382.51
520.2218, 10389.15
520.7039, 10368.04
521.1860, 10362.60
521.6682, 10390.38
522.1503, 10415.53
522.6324, 10414.71
523.1145, 10395.27
523.5966, 10379.33
524.0787, 10379.52
524.5609, 10386.63
525.0430, 10383.07
525.5251, 10368.97
526.0072, 10364.48
526.4893, 10375.19
526.9714, 10395.63
527.4536, 10425.19
527.9357, 10462.30
528.4178, 10490.00
528.8999, 10498.57
529.3820, 10504.40
529.8641, 10518.07
530.3463, 10535.84
530.8284, 10551.33
531.3105, 10562.20
531.7926, 10566.20
532.2747, 10559.06
532.7568, 10538.45
533.2390, 10520.82
533.7211, 10498.07
534.2032, 10488.40
534.6853, 10501.60
535.1674, 10529.24
535.6495, 10564.61
536.1317, 10607.83
536.6138, 10640.06
537.0959, 10632.67
537.5780, 10599.78
538.0601, 10592.06
538.5422, 10619.11
539.0244, 10641.44
539.5065, 10623.64
539.9886, 10578.56
540.4707, 10570.41
540.9528, 10627.99
541.4349, 10678.49
541.9171, 10700.51
542.3992, 10713.26
542.8813, 10738.75
543.3634, 10776.16
543.8455, 10805.35
544.3276, 10808.59
544.8098, 10792.39
545.2919, 10785.56
545.7740, 10791.11
546.2561, 10797.65
546.7382, 10796.52
547.2203, 10800.02
547.7025, 10822.20
548.1846, 10861.33
548.6666, 10895.11
549.1487, 10911.23
549.6309, 10918.77
550.1130, 10922.05
550.5951, 10924.18
551.0772, 10938.90
551.5593, 10973.35
552.0414, 11015.18
552.5236, 11044.07
553.0057, 11054.68
553.4878, 11070.66
553.9699, 11092.50
554.4520, 11118.42
554.9341, 11150.15
555.4163, 11184.75
555.8984, 11219.99
556.3805, 11255.48
556.8626, 11283.96
557.3447, 11287.49
557.8268, 11271.51
558.3090, 11285.55
558.7911, 11343.79
559.2732, 11401.09
559.7553, 11423.07
560.2374, 11421.88
560.7195, 11438.41
561.2017, 11487.22
561.6838, 11528.85
562.1659, 11546.69
562.6480, 11553.86
563.1301, 11560.64
563.6122, 11570.32
564.0944, 11587.07
564.5765, 11614.71
565.0586, 11650.74
565.5407, 11687.38
566.0228, 11730.31
566.5049, 11759.32
566.9871, 11753.34
567.4692, 11746.54
567.9513, 11763.96
568.4334, 11801.25
568.9155, 11833.78
569.3976, 11845.81
569.8798, 11853.58
570.3619, 11878.12
570.8440, 11912.98
571.3261, 11932.96
571.8082, 11929.03
572.2903, 11922.29
572.7725, 11939.90
573.2546, 11986.03
573.7367, 12017.61
574.2188, 12026.00
574.7009, 12031.34
575.1830, 12038.45
575.6652, 12045.19
576.1473, 12048.69
576.6294, 12048.42
577.1115, 12046.56
577.5936, 12044.35
578.0757, 12042.15
578.5579, 12041.38
579.0400, 12042.25
579.5221, 12043.69
580.0042, 12047.98
580.4863, 12050.11
580.9684, 12036.17
581.4506, 11998.73
581.9327, 11978.29
582.4148, 11999.47
582.8969, 12022.21
583.3790, 12019.96
583.8611, 11998.05
584.3433, 11971.33
584.8254, 11946.66
585.3075, 11922.71
585.7896, 11895.24
586.2717, 11863.21
586.7538, 11841.31
587.2360, 11832.58
587.7181, 11829.98
588.2002, 11839.78
588.6823, 11850.33
589.1644, 11839.75
589.6465, 11797.44
590.1287, 11754.33
590.6108, 11723.65
591.0929, 11701.37
591.5750, 11684.46
592.0571, 11671.49
592.5392, 11658.80
593.0214, 11643.87
593.5035, 11628.00
593.9856, 11614.14
594.4677, 11598.79
594.9498, 11593.95
595.4319, 11613.85
595.9141, 11632.57
596.3962, 11638.62
596.8783, 11633.06
597.3604, 11619.24
597.8425, 11594.55
598.3246, 11569.65
598.8068, 11551.48
599.2889, 11540.78
599.7710, 11544.50
600.2531, 11564.07
600.7352, 11576.25
601.2173, 11558.19
601.6995, 11515.36
602.1816, 11492.55
602.6637, 11503.71
603.1458, 11516.79
603.6279, 11531.53
604.1100, 11545.63
604.5922, 11559.69
605.0743, 11571.99
605.5564, 11576.96
606.0385, 11569.06
606.5206, 11555.36
607.0027, 11545.39
607.4849, 11539.00
607.9670, 11536.53
608.4491, 11539.44
608.9312, 11540.31
609.4133, 11529.03
609.8954, 11505.54
610.3776, 11496.92
610.8597, 11512.41
611.3418, 11529.51
611.8239, 11546.22
612.3060, 11560.11
612.7881, 11569.28
613.2703, 11573.30
613.7524, 11571.33
614.2345, 11558.43
614.7166, 11542.64
615.1987, 11548.72
615.6808, 11578.11
616.1630, 11595.59
616.6451, 11587.17
617.1272, 11570.07
617.6093, 11561.00
618.0914, 11560.18
618.5735, 11568.85
619.0557, 11607.55
619.5378, 11632.09
620.0199, 11610.02
620.5020, 11571.80
620.9841, 11557.48
621.4662, 11573.14
621.9484, 11594.97
622.4305, 11602.49
622.9126, 11598.64
623.3947, 11594.64
623.8768, 11590.83
624.3589, 11584.75
624.8411, 11575.21
625.3232, 11563.54
625.8053, 11551.21
626.2874, 11538.24
626.7695, 11524.41
627.2516, 11499.74
627.7338, 11485.03
628.2159, 11504.39
628.6980, 11535.01
629.1801, 11539.32
629.6622, 11511.30
630.1443, 11479.97
630.6265, 11475.71
631.1086, 11492.22
631.5907, 11490.75
632.0728, 11463.50
632.5549, 11450.09
633.0370, 11476.66
633.5192, 11508.33
634.0013, 11498.44
634.4834, 11449.90
634.9655, 11422.06
635.4476, 11447.74
635.9297, 11474.99
636.4119, 11464.90
636.8940, 11440.87
637.3761, 11448.90
637.8582, 11495.28
638.3403, 11534.70
638.8224, 11516.65
639.3046, 11453.23
639.7867, 11421.19
640.2688, 11429.26
640.7509, 11438.03
641.2330, 11442.21
641.7151, 11436.66
642.1973, 11409.97
642.6794, 11364.57
643.1615, 11332.59
643.6436, 11333.38
644.1257, 11335.63
644.6078, 11312.66
645.0900, 11283.78
645.5721, 11284.33
646.0542, 11318.38
646.5363, 11354.88
647.0184, 11365.77
647.5005, 11354.54
647.9827, 11332.95
648.4648, 11294.83
648.9469, 11272.56
649.4290, 11281.80
649.9111, 11301.89
650.3932, 11317.10
650.8754, 11326.94
651.3575, 11326.88
651.8396, 11315.25
652.3217, 11294.61
652.8038, 11251.75
653.2859, 11207.50
653.7681, 11191.23
654.2502, 11205.93
654.7323, 11235.49
655.2144, 11271.85
655.6965, 11306.51
656.1786, 11303.52
656.6608, 11253.61
657.1429, 11225.29
657.6250, 11245.53
658.1071, 11272.93
658.5892, 11265.24
659.0714, 11231.30
659.5535, 11210.60
660.0356, 11213.18
660.5177, 11221.29
660.9998, 11244.33
661.4819, 11260.10
661.9641, 11231.00
662.4462, 11166.90
662.9283, 11121.73
663.4104, 11134.29
663.8925, 11179.15
664.3746, 11206.29
664.8568, 11215.73
665.3389, 11200.21
665.8210, 11141.76
666.3031, 11099.08
666.7852, 11129.33
667.2673, 11212.17
667.7495, 11256.44
668.2316, 11237.48
668.7137, 11220.37
669.1958, 11221.88
669.6779, 11226.29
670.1600, 11218.04
670.6422, 11201.68
671.1243, 11194.44
671.6064, 11206.04
672.0885, 11220.94
672.5706, 11208.53
673.0527, 11175.77
673.5349, 11179.23
674.0170, 11231.04
674.4991, 11279.10
674.9812, 11292.60
675.4633, 11281.39
675.9454, 11270.07
676.4276, 11257.68
676.9097, 11247.22
677.3918, 11239.83
677.8739, 11233.30
678.3560, 11223.06
678.8381, 11214.08
679.3203, 11214.21
679.8024, 11225.96
680.2845, 11246.00
680.7666, 11279.59
681.2487, 11316.99
681.7308, 11336.12
682.2130, 11336.02
682.6951, 11314.89
683.1772, 11266.64
683.6593, 11214.02
684.1414, 11193.25
684.6235, 11210.90
685.1057, 11226.05
685.5878, 11221.54
686.0699, 11235.58
686.5520, 11307.72
687.0341, 11384.47
687.5162, 11399.07
687.9984, 11349.16
688.4805, 11308.31
688.9626, 11334.34
689.4447, 11378.36
689.9268, 11382.12
690.4089, 11357.39
690.8911, 11338.83
691.3732, 11336.03
691.8553, 11340.23
692.3374, 11342.29
692.8195, 11343.41
693.3016, 11356.80
693.7838, 11396.43
694.2659, 11417.19
694.7480, 11396.48
695.2301, 11366.97
695.7122, 11350.47
696.1943, 11344.16
696.6765, 11335.44
697.1586, 11316.53
697.6407, 11301.58
698.1228, 11296.43
698.6049, 11300.53
699.0870, 11321.70
699.5692, 11353.68
700.0513, 11369.83
700.5334, 11352.27
701.0155, 11317.52
701.4976, 11301.38
701.9797, 11305.08
702.4619, 11298.64
702.9440, 11274.51
703.4261, 11253.08
703.9082, 11250.60
704.3903, 11257.33
704.8724, 11246.94
705.3546, 11206.62
705.8367, 11186.95
706.3188, 11224.77
706.8009, 11255.17
707.2830, 11230.72
707.7651, 11174.84
708.2473, 11127.35
708.7294, 11100.77
709.2115, 11086.97
709.6936, 11085.34
710.1757, 11088.87
710.6578, 11077.07
711.1400, 11050.74
711.6221, 11028.27
712.1042, 11016.81
712.5863, 11008.95
713.0684, 10995.80
713.5505, 10977.18
714.0327, 10956.53
714.5148, 10923.39
714.9969, 10903.06
715.4790, 10918.45
715.9611, 10933.02
716.4432, 10907.61
716.9254, 10851.05
717.4075, 10813.00
717.8896, 10825.55
718.3717, 10845.77
718.8538, 10841.41
719.3359, 10820.74
719.8181, 10794.39
720.3002, 10765.71
720.7823, 10738.77
721.2644, 10715.65
721.7465, 10699.57
722.2286, 10705.01
722.7108, 10739.32
723.1929, 10741.75
723.6750, 10694.29
724.1571, 10641.02
724.6392, 10604.77
725.1213, 10580.13
725.6035, 10554.12
726.0856, 10523.47
726.5677, 10503.55
727.0498, 10509.22
727.5319, 10514.02
728.0140, 10503.36
728.4962, 10480.62
728.9783, 10449.29
729.4604, 10411.87
729.9425, 10378.61
730.4246, 10358.64
730.9067, 10349.67
731.3889, 10351.96
731.8710, 10363.33
732.3531, 10361.11
732.8352, 10337.24
733.3173, 10308.03
733.7994, 10291.48
734.2816, 10285.78
734.7637, 10265.07
735.2458, 10209.90
735.7279, 10172.29
736.2100, 10168.80
736.6921, 10173.71
737.1743, 10173.99
737.6564, 10169.66
738.1385, 10163.11
738.6206, 10154.40
739.1027, 10144.94
739.5848, 10142.55
740.0670, 10135.15
740.5491, 10100.93
741.0312, 10048.01
741.5133, 10005.90
741.9954, 9988.771
742.4775, 9983.131
742.9597, 9970.241
743.4418, 9950.805
743.9239, 9934.811
744.4060, 9923.035
744.8881, 9911.179
745.3702, 9898.325
745.8524, 9883.192
746.3345, 9863.162
746.8166, 9837.247
747.2987, 9815.292
747.7808, 9803.797
748.2629, 9787.417
748.7451, 9755.294
749.2272, 9722.067
749.7093, 9695.838
750.1914, 9680.328
750.6735, 9685.718
751.1556, 9731.456
751.6378, 9771.842
752.1199, 9756.714
752.6020, 9709.105
753.0841, 9668.831
753.5662, 9641.476
754.0483, 9622.620
754.5305, 9610.448
755.0126, 9600.600
755.4947, 9581.931
755.9768, 9552.075
756.4589, 9537.706
756.9410, 9545.566
757.4232, 9553.428
757.9053, 9555.206
758.3874, 9549.094
758.8695, 9529.401
759.3516, 9494.770
759.8337, 9464.436
760.3159, 9438.679
760.7980, 9418.918
761.2801, 9411.380
761.7622, 9406.390
762.2443, 9393.649
762.7264, 9372.703
763.2086, 9349.226
763.6907, 9324.758
764.1728, 9302.188
764.6549, 9284.565
765.1370, 9271.409
765.6191, 9261.603
766.1013, 9254.958
766.5834, 9251.799
767.0655, 9252.786
767.5476, 9255.300
768.0297, 9256.429
768.5118, 9259.403
768.9940, 9237.217
769.4761, 9169.932
769.9582, 9119.970
770.4403, 9125.331
770.9224, 9155.505
771.4045, 9166.872
771.8867, 9158.252
772.3688, 9148.856
772.8509, 9135.161
773.3330, 9127.845
773.8151, 9143.139
774.2972, 9158.875
774.7794, 9144.704
775.2615, 9105.152
775.7436, 9076.836
776.2257, 9087.880
776.7078, 9101.119
777.1899, 9062.320
777.6721, 8996.934
778.1542, 8964.063
778.6363, 8968.910
779.1184, 8990.638
779.6005, 9019.665
780.0826, 9043.991
780.5648, 9035.119
781.0469, 8987.217
781.5290, 8968.270
782.0111, 8991.748
782.4932, 9008.830
782.9753, 9004.723
783.4575, 8981.735
783.9396, 8929.581
784.4217, 8846.582
784.9038, 8807.957
785.3859, 8858.045
785.8680, 8899.729
786.3502, 8895.532
786.8323, 8881.335
787.3144, 8898.255
787.7965, 8934.680
788.2786, 8940.402
788.7607, 8884.657
789.2429, 8825.122
789.7250, 8816.517
790.2071, 8832.282
790.6892, 8827.092
791.1713, 8803.872
791.6534, 8795.075
792.1356, 8814.665
792.6177, 8838.061
793.0998, 8828.692
793.5819, 8791.013
794.0640, 8770.665
794.5461, 8770.100
795.0283, 8770.893
795.5104, 8767.289
795.9925, 8764.735
796.4746, 8770.565
796.9567, 8783.260
797.4388, 8786.279
797.9210, 8767.956
798.4031, 8756.653
798.8852, 8762.783
799.3673, 8767.128
799.8494, 8755.188
800.3315, 8734.523
800.8137, 8721.762
801.2958, 8722.567
801.7779, 8718.090
802.2600, 8656.957
802.7421, 8702.113
803.2242, 8725.690
803.7064, 8728.847
804.1885, 8650.427
804.6706, 8677.347
805.1527, 8662.051
805.6348, 8645.024
806.1169, 8686.771
806.5991, 8620.215
807.0812, 8661.030
807.5633, 8658.984
808.0454, 8676.555
808.5275, 8651.648
809.0096, 8639.862
809.4918, 8670.564
809.9739, 8677.741
810.4560, 8647.945
810.9381, 8666.763
811.4202, 8598.723
811.9023, 8606.901
812.3845, 8647.964
812.8666, 8620.304
813.3487, 8639.897
813.8308, 8641.494
814.3129, 8561.301
814.7950, 8622.582
815.2772, 8643.406
815.7593, 8631.578
816.2414, 8604.427
816.7235, 8565.188
817.2056, 8525.593
817.6877, 8514.749
818.1699, 8550.567
818.6520, 8590.159
819.1341, 8597.262
819.6162, 8584.825
820.0983, 8569.934
820.5804, 8554.079
821.0626, 8535.128
821.5447, 8512.579
822.0268, 8494.531
822.5089, 8490.770
822.9910, 8498.297
823.4731, 8506.460
823.9553, 8515.754
824.4374, 8514.084
824.9195, 8495.637
825.4016, 8479.469
825.8837, 8481.452
826.3658, 8495.544
826.8480, 8500.536
827.3301, 8486.481
827.8122, 8486.697
828.2943, 8524.562
828.7764, 8547.804
829.2585, 8525.520
829.7407, 8486.064
830.2228, 8463.535
830.7049, 8459.951
831.1870, 8454.421
831.6691, 8432.449
832.1512, 8419.224
832.6334, 8429.465
833.1155, 8450.888
833.5976, 8479.108
834.0797, 8506.654
834.5618, 8516.127
835.0439, 8497.755
835.5261, 8471.216
836.0082, 8449.848
836.4903, 8434.729
836.9724, 8430.366
837.4545, 8434.055
837.9366, 8435.592
838.4188, 8431.680
838.9009, 8428.020
839.3830, 8431.610
839.8651, 8439.413
840.3472, 8441.604
840.8293, 8438.258
841.3115, 8420.770
841.7936, 8382.220
842.2757, 8358.097
842.7578, 8378.394
843.2399, 8421.760
843.7220, 8432.074
844.2042, 8393.458
844.6863, 8376.078
845.1684, 8403.322
845.6505, 8416.925
846.1326, 8374.067
846.6147, 8324.777
847.0969, 8325.035
847.5790, 8370.740
848.0611, 8401.276
848.5432, 8401.508
849.0253, 8395.132
849.5074, 8385.923
849.9896, 8374.827
850.4717, 8357.970
850.9538, 8340.742
851.4359, 8336.465
851.9180, 8350.158
852.4001, 8361.478
852.8823, 8351.355
853.3644, 8337.047
853.8465, 8337.197
854.3286, 8347.246
854.8107, 8356.658
855.2928, 8363.487
855.7750, 8374.627
856.2571, 8399.152
856.7392, 8418.875
857.2213, 8390.831
857.7034, 8328.440
858.1855, 8290.867
858.6677, 8283.650
859.1498, 8293.390
859.6319, 8315.688
860.1140, 8338.970
860.5961, 8345.635
861.0782, 8336.419
861.5604, 8334.181
862.0425, 8342.248
862.5246, 8344.022
863.0067, 8334.493
863.4888, 8320.208
863.9709, 8304.122
864.4531, 8287.864
864.9352, 8277.598
865.4173, 8275.063
865.8994, 8274.899
866.3815, 8277.613
866.8636, 8281.988
867.3458, 8291.423
867.8279, 8299.885
868.3100, 8298.578
868.7921, 8287.939
869.2742, 8280.995
869.7563, 8285.592
870.2385, 8288.601
870.7206, 8286.099
871.2027, 8278.968
871.6848, 8264.861
872.1669, 8247.473
872.6490, 8234.725
873.1312, 8229.360
873.6133, 8225.695
874.0954, 8212.734
874.5775, 8204.965
875.0596, 8232.533
875.5417, 8273.860
876.0239, 8277.153
876.5060, 8238.878
876.9881, 8202.998
877.4702, 8199.050
877.9523, 8213.659
878.4344, 8233.014
878.9166, 8252.541
879.3987, 8251.509
879.8808, 8230.306
880.3629, 8209.419
880.8450, 8197.060
881.3271, 8189.877
881.8093, 8183.324
882.2914, 8178.684
882.7735, 8187.699
883.2556, 8214.007
883.7377, 8224.584
884.2198, 8209.468
884.7020, 8193.987
885.1841, 8197.564
885.6662, 8207.503
886.1483, 8191.595
886.6304, 8134.939
887.1125, 8122.730
887.5947, 8201.222
888.0768, 8249.071
888.5589, 8208.445
889.0410, 8147.661
889.5231, 8119.124
890.0052, 8120.169
890.4874, 8140.058
890.9695, 8209.580
891.4516, 8240.703
891.9337, 8185.229
892.4158, 8128.109
892.8979, 8120.290
893.3801, 8134.782
893.8622, 8127.388
894.3443, 8094.975
894.8264, 8080.852
895.3085, 8125.272
895.7906, 8164.404
896.2728, 8155.961
896.7549, 8131.543
897.2370, 8122.068
897.7191, 8126.225
898.2012, 8130.042
898.6833, 8128.486
899.1655, 8130.472
899.6476, 8155.842
900.1297, 8178.544
900.6118, 8156.016
901.0939, 8108.844
901.5760, 8080.818
902.0582, 8078.404
902.5403, 8084.189
903.0224, 8087.762
903.5045, 8091.638
903.9866, 8099.886
904.4688, 8111.370
904.9509, 8126.804
905.4330, 8143.682
905.9151, 8140.832
906.3972, 8111.627
906.8793, 8081.067
907.3615, 8073.424
907.8436, 8082.590
908.3257, 8090.406
908.8078, 8096.884
909.2899, 8099.654
909.7720, 8098.662
910.2542, 8090.285
910.7363, 8069.419
911.2184, 8050.886
911.7005, 8057.939
912.1826, 8090.208
912.6647, 8116.331
913.1469, 8138.547
913.6290, 8147.021
914.1111, 8135.868
914.5932, 8117.845
915.0753, 8095.818
915.5574, 8076.164
916.0396, 8075.232
916.5217, 8100.709
917.0038, 8116.274
917.4859, 8125.207
917.9680, 8119.503
918.4501, 8077.838
918.9323, 8037.629
919.4144, 8036.080
919.8965, 8061.343
920.3786, 8067.854
920.8607, 8042.502
921.3428, 8020.029
921.8250, 7998.665
922.3071, 7988.950
922.7892, 8001.163
923.2713, 8024.064
923.7534, 8047.107
924.2355, 8068.420
924.7177, 8086.019
925.1998, 8103.966
925.6819, 8110.560
926.1640, 8084.142
926.6461, 8060.306
927.1282, 8078.240
927.6104, 8115.068
928.0925, 8130.711
928.5746, 8116.309
929.0567, 8086.606
929.5388, 8027.131
930.0209, 7981.637
930.5031, 7996.096
930.9852, 8034.261
931.4673, 8057.857
931.9494, 8062.542
932.4315, 8046.577
932.9136, 8010.106
933.3958, 7984.974
933.8779, 8012.965
934.3600, 8056.118
934.8421, 8059.979
935.3242, 8043.196
935.8063, 8049.048
936.2885, 8077.490
936.7706, 8092.597
937.2527, 8074.465
937.7348, 8050.047
938.2169, 8059.758
938.6990, 8084.582
939.1812, 8074.431
939.6633, 8038.754
940.1454, 8019.114
940.6275, 8023.771
941.1096, 8034.331
941.5917, 8039.151
942.0739, 8035.274
942.5560, 8010.003
943.0381, 7970.166
943.5202, 7952.861
944.0023, 7958.397
944.4844, 7970.510
944.9666, 7984.351
945.4487, 7998.856
945.9308, 8014.165
946.4129, 8026.721
946.8950, 8023.543
947.3771, 8004.738
947.8593, 7995.505
948.3414, 7998.419
948.8235, 8000.029
949.3056, 7995.703
949.7877, 7984.139
950.2698, 7960.077
950.7520, 7930.186
951.2341, 7936.415
951.7162, 7988.243
952.1983, 8012.902
952.6804, 7998.604
953.1625, 7973.305
953.6447, 7944.137
954.1268, 7922.573
954.6089, 7924.832
955.0910, 7950.106
955.5731, 7984.710
956.0552, 8043.386
956.5374, 8062.168
957.0195, 8014.043
957.5016, 7965.345
957.9837, 7952.437
958.4658, 7959.262
958.9479, 7960.503
959.4301, 7955.708
959.9122, 7952.146
960.3943, 7954.055
960.8764, 7947.896
961.3585, 7920.148
961.8406, 7900.028
962.3228, 7912.626
962.8049, 7941.122
963.2870, 7950.615
963.7691, 7935.095
964.2512, 7932.900
964.7333, 7960.521
965.2155, 7977.484
965.6976, 7968.966
966.1797, 7955.645
966.6618, 7946.331
967.1439, 7942.874
967.6260, 7953.748
968.1082, 7989.307
968.5903, 7998.006
969.0724, 7950.565
969.5545, 7911.960
970.0366, 7898.651
970.5187, 7899.784
971.0009, 7914.777
971.4830, 7936.365
971.9651, 7945.346
972.4472, 7934.730
972.9293, 7930.354
973.4114, 7948.145
973.8936, 7956.892
974.3757, 7933.911
974.8578, 7907.072
975.3399, 7903.801
975.8220, 7917.659
976.3041, 7924.753
976.7863, 7919.585
977.2684, 7913.436
977.7505, 7897.594
978.2326, 7894.934
978.7147, 7933.178
979.1968, 7975.683
979.6790, 7986.412
980.1611, 7968.629
980.6432, 7941.470
981.1253, 7900.104
981.6074, 7877.799
982.0895, 7898.816
982.5717, 7924.451
983.0538, 7943.982
983.5359, 7951.269
984.0180, 7932.075
984.5001, 7894.911
984.9822, 7871.938
985.4644, 7873.455
985.9465, 7884.055
986.4286, 7912.916
986.9107, 7932.707
987.3928, 7916.546
987.8749, 7889.933
988.3571, 7886.600
988.8392, 7902.920
989.3213, 7907.556
989.8034, 7885.341
990.2855, 7867.884
990.7676, 7872.464
991.2498, 7881.282
991.7319, 7890.779
992.2140, 7892.693
992.6961, 7870.400
993.1782, 7830.438
993.6603, 7803.642
994.1425, 7800.096
994.6246, 7811.229
995.1067, 7848.513
995.5888, 7882.856
996.0709, 7891.158
996.5530, 7886.783
997.0352, 7889.526
997.5173, 7898.073
997.9994, 7893.402
998.4815, 7861.308
998.9636, 7838.867
999.4457, 7845.272
999.9279, 7864.988
1000.410, 7904.695
1000.892, 7939.924
1001.374, 7930.575
1001.856, 7885.701
1002.338, 7860.664
1002.821, 7883.131
1003.303, 7899.957
1003.785, 7874.184
1004.267, 7847.224
1004.749, 7850.711
1005.231, 7867.890
1005.713, 7876.405
1006.195, 7876.096
1006.677, 7879.183
1007.160, 7889.459
1007.642, 7904.331
1008.124, 7938.345
1008.606, 7959.179
1009.088, 7931.044
1009.570, 7887.592
1010.052, 7871.021
1010.534, 7879.221
1011.017, 7884.930
1011.499, 7880.802
1011.981, 7869.878
1012.463, 7839.014
1012.945, 7818.167
1013.427, 7838.715
1013.909, 7869.685
1014.391, 7871.125
1014.873, 7850.099
1015.356, 7845.146
1015.838, 7872.336
1016.320, 7891.695
1016.802, 7882.643
1017.284, 7867.974
1017.766, 7862.422
1018.248, 7855.689
1018.730, 7831.548
1019.213, 7796.873
1019.695, 7774.071
1020.177, 7769.495
1020.659, 7770.740
1021.141, 7775.705
1021.623, 7783.190
1022.105, 7792.643
1022.587, 7804.378
1023.069, 7823.806
1023.552, 7844.799
1024.034, 7851.777
1024.516, 7840.100
1024.998, 7826.136
1025.480, 7805.629
1025.962, 7794.697
1026.444, 7811.986
1026.926, 7829.713
1027.409, 7813.827
1027.891, 7784.629
1028.373, 7796.069
1028.855, 7863.943
1029.337, 7893.711
1029.819, 7834.531
1030.301, 7782.083
1030.783, 7754.229
1031.266, 7748.854
1031.748, 7778.215
1032.230, 7822.920
1032.712, 7849.806
1033.194, 7855.567
1033.676, 7856.895
1034.158, 7864.125
1034.640, 7854.277
1035.122, 7798.139
1035.604, 7751.680
1036.087, 7749.310
1036.569, 7773.832
1037.051, 7810.513
1037.533, 7860.395
1038.015, 7867.066
1038.497, 7780.288
1038.979, 7731.422
1039.461, 7750.915
1039.944, 7779.772
1040.426, 7799.954
1040.908, 7809.981
1041.390, 7806.406
1041.872, 7790.182
1042.354, 7771.092
1042.836, 7744.357
1043.318, 7724.940
1043.800, 7708.399
1044.283, 7710.069
1044.765, 7749.014
1045.247, 7788.876
1045.729, 7786.865
1046.211, 7755.867
1046.693, 7760.010
1047.175, 7821.809
1047.657, 7837.466
1048.140, 7786.050
1048.622, 7749.062
1049.104, 7753.776
1049.586, 7773.587
1050.068, 7789.447
1050.550, 7799.442
1051.032, 7796.420
1051.514, 7778.277
1051.996, 7770.917
1052.479, 7778.317
1052.961, 7766.323
1053.443, 7720.473
1053.925, 7693.308
1054.407, 7725.644
1054.889, 7778.984
1055.371, 7777.431
1055.853, 7727.684
1056.335, 7711.892
1056.818, 7729.822
1057.300, 7747.442
1057.782, 7758.973
1058.264, 7770.555
1058.746, 7786.315
1059.228, 7791.967
1059.710, 7761.330
1060.192, 7711.433
1060.675, 7708.021
1061.157, 7740.179
1061.639, 7741.774
1062.121, 7710.885
1062.603, 7699.422
1063.085, 7726.820
1063.567, 7761.484
1064.049, 7774.464
1064.531, 7772.446
1065.014, 7764.775
1065.496, 7752.621
1065.978, 7733.162
1066.460, 7712.065
1066.942, 7711.596
1067.424, 7734.413
1067.906, 7754.523
1068.388, 7753.444
1068.870, 7745.313
1069.353, 7746.959
1069.835, 7750.806
1070.317, 7744.024
1070.799, 7732.021
1071.281, 7726.938
1071.763, 7729.269
1072.245, 7731.826
1072.727, 7732.087
1073.210, 7726.805
1073.692, 7702.653
1074.174, 7683.722
1074.656, 7705.738
1075.138, 7733.332
1075.620, 7708.634
1076.102, 7653.227
1076.584, 7641.059
1077.067, 7693.284
1077.549, 7732.094
1078.031, 7712.421
1078.513, 7686.885
1078.995, 7669.629
1079.477, 7665.181
1079.959, 7686.076
1080.441, 7717.375
1080.923, 7737.037
1081.406, 7742.357
1081.888, 7737.539
1082.370, 7717.716
1082.852, 7696.358
1083.334, 7668.693
1083.816, 7648.094
1084.298, 7636.713
1084.780, 7638.495
1085.262, 7669.662
1085.745, 7719.622
1086.227, 7735.438
1086.709, 7700.699
1087.191, 7674.847
1087.673, 7656.947
1088.155, 7651.488
1088.637, 7668.553
1089.119, 7680.924
1089.602, 7663.828
1090.084, 7634.366
1090.566, 7631.043
1091.048, 7655.022
1091.530, 7672.941
1092.012, 7685.631
1092.494, 7683.486
1092.976, 7662.199
1093.458, 7645.128
1093.941, 7644.820
1094.423, 7649.434
1094.905, 7642.840
1095.387, 7629.968
1095.869, 7633.126
1096.351, 7648.670
1096.833, 7643.619
1097.315, 7618.385
1097.797, 7604.291
1098.280, 7610.959
1098.762, 7622.766
1099.244, 7627.896
1099.726, 7629.005
1100.208, 7631.369
1100.690, 7632.033
1101.172, 7617.605
1101.654, 7598.262
1102.137, 7606.284
1102.619, 7639.044
1103.101, 7658.350
1103.583, 7645.333
1104.065, 7632.487
1104.547, 7657.818
1105.029, 7683.473
1105.511, 7667.215
1105.994, 7636.630
1106.476, 7623.874
1106.958, 7626.133
1107.440, 7630.171
1107.922, 7632.822
1108.404, 7635.745
1108.886, 7642.139
1109.368, 7645.103
1109.850, 7641.331
1110.333, 7634.184
1110.815, 7616.182
1111.297, 7602.599
1111.779, 7623.541
1112.261, 7668.471
1112.743, 7676.923
1113.225, 7622.282
1113.707, 7584.186
1114.189, 7574.131
1114.672, 7566.066
1115.154, 7549.610
1115.636, 7540.503
1116.118, 7553.199
1116.600, 7576.096
1117.082, 7586.922
1117.564, 7585.607
1118.046, 7592.371
1118.529, 7610.827
1119.011, 7615.108
1119.493, 7599.838
1119.975, 7583.818
1120.457, 7573.276
1120.939, 7578.911
1121.421, 7617.404
1121.903, 7666.376
1122.385, 7655.163
1122.868, 7600.175
1123.350, 7596.925
1123.832, 7636.221
1124.314, 7641.146
1124.796, 7598.822
1125.278, 7556.678
1125.760, 7541.246
1126.242, 7543.743
1126.724, 7564.601
1127.207, 7589.029
1127.689, 7598.850
1128.171, 7596.590
1128.653, 7576.257
1129.135, 7550.074
1129.617, 7551.344
1130.099, 7585.486
1130.581, 7613.443
1131.064, 7618.420
1131.546, 7607.616
1132.028, 7560.675
1132.510, 7525.925
1132.992, 7553.978
1133.474, 7600.253
1133.956, 7607.354
1134.438, 7582.023
1134.921, 7570.416
1135.403, 7585.101
1135.885, 7589.248
1136.367, 7566.194
1136.849, 7553.258
1137.331, 7562.486
1137.813, 7574.842
1138.295, 7580.108
1138.777, 7581.917
1139.260, 7586.892
1139.742, 7593.599
1140.224, 7586.583
1140.706, 7563.101
1141.188, 7547.323
1141.670, 7541.415
1142.152, 7533.586
1142.634, 7519.301
1143.116, 7518.610
1143.599, 7550.023
1144.081, 7589.105
1144.563, 7590.942
1145.045, 7566.758
1145.527, 7543.308
1146.009, 7524.772
1146.491, 7528.954
1146.973, 7550.759
1147.456, 7559.000
1147.938, 7543.180
1148.420, 7530.246
1148.902, 7542.342
1149.384, 7561.556
1149.866, 7577.317
1150.348, 7587.397
1150.830, 7590.186
1151.313, 7585.356
1151.795, 7567.359
1152.277, 7541.043
1152.759, 7525.319
1153.241, 7525.431
1153.723, 7533.764
1154.205, 7563.142
1154.687, 7580.285
1155.169, 7567.202
1155.651, 7547.593
1156.134, 7534.672
1156.616, 7525.350
1157.098, 7515.733
1157.580, 7505.737
1158.062, 7491.177
1158.544, 7464.175
1159.026, 7475.950
1159.508, 7539.582
1159.991, 7576.381
1160.473, 7560.690
1160.955, 7531.113
1161.437, 7514.722
1161.919, 7505.245
1162.401, 7490.229
1162.883, 7473.882
1163.365, 7468.301
1163.848, 7473.860
1164.330, 7499.962
1164.812, 7539.076
1165.294, 7560.003
1165.776, 7554.133
1166.258, 7541.945
1166.740, 7536.811
1167.222, 7530.549
1167.704, 7510.068
1168.187, 7492.053
1168.669, 7498.227
1169.151, 7510.913
1169.633, 7503.985
1170.115, 7483.699
1170.597, 7475.162
1171.079, 7484.209
1171.561, 7492.829
1172.043, 7498.881
1172.526, 7503.153
1173.008, 7514.949
1173.490, 7510.079
1173.972, 7458.225
1174.454, 7414.122
1174.936, 7442.288
1175.418, 7518.527
1175.900, 7559.069
1176.383, 7561.745
1176.865, 7557.996
1177.347, 7547.716
1177.829, 7533.196
1178.311, 7515.114
1178.793, 7503.514
1179.275, 7503.285
1179.757, 7505.656
1180.240, 7502.770
1180.722, 7494.368
1181.204, 7473.516
1181.686, 7451.142
1182.168, 7444.789
1182.650, 7452.990
1183.132, 7477.273
1183.614, 7510.442
1184.096, 7528.366
1184.578, 7521.184
1185.061, 7506.345
1185.543, 7477.904
1186.025, 7462.505
1186.507, 7489.995
1186.989, 7514.492
1187.471, 7487.274
1187.953, 7448.787
1188.435, 7468.063
1188.918, 7531.318
1189.400, 7550.424
1189.882, 7511.414
1190.364, 7474.795
1190.846, 7435.820
1191.328, 7423.174
1191.810, 7446.698
1192.292, 7473.227
1192.775, 7484.214
1193.257, 7486.853
1193.739, 7489.261
1194.221, 7491.432
1194.703, 7490.622
1195.185, 7490.582
1195.667, 7509.863
1196.149, 7537.161
1196.631, 7531.737
1197.114, 7494.998
1197.596, 7475.628
1198.078, 7497.583
1198.560, 7512.219
1199.042, 7473.550
1199.524, 7439.002
1200.006, 7449.917
1200.488, 7468.899
1200.970, 7458.652
1201.453, 7441.995
1201.935, 7465.653
1202.417, 7521.325
1202.899, 7531.877
1203.381, 7475.941
1203.863, 7442.268
1204.345, 7433.533
1204.827, 7441.656
1205.310, 7470.458
1205.792, 7490.349
1206.274, 7484.436
1206.756, 7469.103
1207.238, 7463.159
1207.720, 7463.351
1208.202, 7464.049
1208.684, 7463.313
1209.167, 7451.902
1209.649, 7434.784
1210.131, 7430.284
1210.613, 7436.962
1211.095, 7431.167
1211.577, 7402.971
1212.059, 7388.514
1212.541, 7426.833
1213.023, 7461.898
1213.505, 7461.004
1213.988, 7449.919
1214.470, 7446.417
1214.952, 7443.172
1215.434, 7425.484
1215.916, 7399.509
1216.398, 7388.666
1216.880, 7394.837
1217.362, 7405.397
1217.845, 7421.246
1218.327, 7440.205
1218.809, 7464.487
1219.291, 7471.671
1219.773, 7451.279
1220.255, 7426.756
1220.737, 7419.316
1221.219, 7420.953
1221.702, 7416.538
1222.184, 7411.583
1222.666, 7421.139
1223.148, 7437.340
1223.630, 7443.313
1224.112, 7440.278
1224.594, 7438.872
1225.076, 7441.507
1225.558, 7397.505
1226.041, 7436.851
1226.523, 7458.184
1227.005, 7462.465
1227.487, 7398.631
1227.969, 7422.755
1228.451, 7411.629
1228.933, 7399.059
1229.415, 7435.562
1229.897, 7381.635
1230.380, 7417.357
1230.862, 7417.294
1231.344, 7433.611
1231.826, 7414.461
1232.308, 7406.266
1232.790, 7433.548
1233.272, 7441.187
1233.754, 7417.953
1234.237, 7435.307
1234.719, 7380.142
1235.201, 7388.617
1235.683, 7424.550
1236.165, 7403.100
1236.647, 7421.106
1237.129, 7424.085
1237.611, 7387.542
1238.094, 7380.975
1238.576, 7378.292
1239.058, 7379.335
1239.540, 7385.840
1240.022, 7388.653
1240.504, 7390.620
1240.986, 7379.941
1241.468, 7342.663
1241.950, 7328.456
1242.432, 7365.423
1242.915, 7405.868
1243.397, 7409.480
1243.879, 7376.148
##END=



