##NAMES=Gyrolite
##RRUFFID=R060163
##IDEAL CHEMISTRY=NaCa_16_(Si_23_Al)O_60_(OH)_8_&#183;14H_2_O
##LOCALITY=Bombay, India
##OWNER=RRUFF
##SOURCE=Marcus Origlieri
##DESCRIPTION=Spherical aggregate of thin pseudohexagonal blades
##STATUS=The identification of this mineral has been confirmed by X-ray diffraction and chemical analysis
##URL=rruff.info/R060163
##MEASURED CHEMISTRY=(Ca_15.50_[box]_0.50_)_Σ=16_(Si_23.00_Al_1.00_)O_60_(OH)_6_·14H_2_O
92.02539, 275.7219
92.50751, 278.7713
92.98962, 282.2108
93.47174, 281.4991
93.95386, 279.5733
94.43597, 277.2419
94.91809, 275.5399
95.40021, 274.1427
95.88232, 270.7081
96.36444, 263.8833
96.84656, 256.9592
97.32867, 250.7075
97.81078, 245.1734
98.29290, 240.3034
98.77502, 235.8911
99.25713, 231.5232
99.73925, 227.8761
100.2214, 225.6253
100.7035, 223.3717
101.1856, 220.2856
101.6677, 216.3834
102.1498, 212.3709
102.6320, 209.0285
103.1141, 206.2154
103.5962, 204.7268
104.0783, 205.0966
104.5604, 206.5073
105.0425, 208.0949
105.5247, 209.6015
106.0068, 211.2141
106.4889, 213.4990
106.9710, 216.7644
107.4531, 219.1411
107.9352, 219.7292
108.4173, 218.6782
108.8995, 216.7464
109.3816, 213.6081
109.8637, 210.0635
110.3458, 207.0253
110.8279, 204.6582
111.3100, 202.4575
111.7922, 199.7576
112.2743, 196.3845
112.7564, 193.1032
113.2385, 190.2597
113.7206, 187.5409
114.2027, 184.6008
114.6849, 181.2559
115.1670, 177.7156
115.6491, 174.7928
116.1312, 172.9458
116.6133, 171.2265
117.0954, 169.4316
117.5776, 167.6495
118.0597, 165.9595
118.5418, 164.3614
119.0239, 162.8410
119.5060, 162.3625
119.9881, 163.6480
120.4703, 165.0625
120.9524, 165.8901
121.4345, 166.1783
121.9166, 166.5054
122.3987, 167.5719
122.8808, 169.5432
123.3630, 170.2140
123.8451, 168.5047
124.3272, 166.0447
124.8093, 164.5078
125.2914, 164.2429
125.7735, 164.3110
126.2557, 163.3939
126.7378, 161.7310
127.2199, 160.6136
127.7020, 161.0486
128.1841, 162.4992
128.6662, 163.1958
129.1483, 162.4862
129.6305, 161.3716
130.1126, 160.6350
130.5947, 160.2593
131.0768, 159.9804
131.5589, 159.4930
132.0410, 158.7305
132.5232, 158.3141
133.0053, 158.5605
133.4874, 159.0223
133.9695, 159.4336
134.4516, 159.7637
134.9337, 160.2314
135.4159, 161.2619
135.8980, 163.4626
136.3801, 165.0675
136.8622, 165.6259
137.3443, 165.8494
137.8264, 166.4348
138.3086, 167.6346
138.7907, 169.0655
139.2728, 169.6431
139.7549, 168.0642
140.2370, 167.1036
140.7191, 167.3702
141.2013, 168.3149
141.6834, 169.1027
142.1655, 169.2684
142.6476, 168.9996
143.1297, 169.1345
143.6118, 169.9368
144.0939, 170.7714
144.5761, 171.5376
145.0582, 172.1824
145.5403, 172.4373
146.0224, 171.9863
146.5045, 171.0426
146.9866, 170.3569
147.4688, 170.3651
147.9509, 170.3038
148.4330, 169.3291
148.9151, 167.3132
149.3972, 165.1685
149.8793, 163.3743
150.3615, 161.7845
150.8436, 160.2577
151.3257, 158.8436
151.8078, 157.4165
152.2899, 155.6365
152.7720, 153.1434
153.2542, 150.9204
153.7363, 149.3333
154.2184, 148.2165
154.7005, 147.3026
155.1826, 146.4171
155.6647, 145.5842
156.1469, 145.0962
156.6290, 145.5493
157.1111, 145.7734
157.5932, 145.2147
158.0753, 144.1606
158.5574, 143.2706
159.0396, 143.1624
159.5217, 143.9795
160.0038, 144.2439
160.4859, 143.6483
160.9680, 142.8656
161.4501, 142.1436
161.9323, 141.4995
162.4144, 140.8137
162.8965, 139.9418
163.3786, 138.7769
163.8607, 137.9251
164.3428, 137.1699
164.8250, 136.8332
165.3071, 137.4019
165.7892, 138.8976
166.2713, 140.5308
166.7534, 141.2884
167.2355, 141.0147
167.7177, 140.9929
168.1998, 141.7079
168.6819, 142.6260
169.1640, 143.0002
169.6461, 142.6054
170.1282, 141.9331
170.6104, 141.6616
171.0925, 141.7417
171.5746, 141.5680
172.0567, 140.8026
172.5388, 139.5908
173.0209, 138.3093
173.5031, 136.8745
173.9852, 135.6181
174.4673, 134.9034
174.9494, 134.6732
175.4315, 134.3624
175.9136, 133.5141
176.3958, 132.1458
176.8779, 130.8295
177.3600, 129.8505
177.8421, 128.7506
178.3242, 127.0857
178.8063, 124.9126
179.2885, 122.8568
179.7706, 121.6549
180.2527, 121.5402
180.7348, 121.2640
181.2169, 120.5986
181.6990, 119.8597
182.1812, 119.1777
182.6633, 118.5855
183.1454, 118.0790
183.6275, 117.6554
184.1096, 117.3386
184.5917, 117.0646
185.0738, 116.9553
185.5560, 116.8020
186.0381, 116.3285
186.5202, 115.5150
187.0023, 114.7102
187.4844, 114.5387
187.9665, 115.7304
188.4487, 116.4068
188.9308, 116.1170
189.4129, 115.5545
189.8950, 115.3833
190.3771, 115.8204
190.8592, 116.5749
191.3414, 117.0690
191.8235, 116.9813
192.3056, 117.2435
192.7877, 118.1713
193.2698, 119.4416
193.7519, 120.6185
194.2341, 121.5371
194.7162, 122.3542
195.1983, 123.3739
195.6804, 124.5372
196.1625, 125.9468
196.6446, 127.8757
197.1268, 130.0797
197.6089, 132.0172
198.0910, 133.4961
198.5731, 134.6315
199.0552, 135.5007
199.5373, 135.9869
200.0195, 136.8143
200.5016, 138.5076
200.9837, 140.9399
201.4658, 143.4983
201.9479, 146.3097
202.4300, 148.8511
202.9122, 150.4727
203.3943, 151.0892
203.8764, 151.5886
204.3585, 152.7816
204.8406, 154.6650
205.3227, 156.2650
205.8048, 157.2726
206.2870, 157.9328
206.7691, 158.3823
207.2512, 158.6383
207.7333, 158.7387
208.2154, 158.7630
208.6975, 158.7518
209.1797, 158.4182
209.6618, 157.1109
210.1439, 155.8699
210.6260, 155.4695
211.1081, 155.9725
211.5902, 156.6214
212.0724, 156.3459
212.5545, 154.7439
213.0366, 153.4374
213.5187, 153.1788
214.0008, 152.7856
214.4829, 151.5756
214.9651, 149.4005
215.4472, 146.4943
215.9293, 143.0213
216.4114, 138.1577
216.8935, 134.5130
217.3756, 132.8729
217.8578, 131.6687
218.3399, 129.8426
218.8220, 127.1630
219.3041, 124.0432
219.7862, 121.0973
220.2683, 118.2275
220.7505, 115.8059
221.2326, 114.0517
221.7147, 112.5459
222.1968, 110.8975
222.6789, 109.0372
223.1610, 107.2622
223.6432, 106.0276
224.1253, 105.6569
224.6074, 105.2318
225.0895, 104.9174
225.5716, 104.4608
226.0537, 103.4890
226.5358, 101.9368
227.0180, 100.3004
227.5001, 99.29946
227.9822, 99.17068
228.4643, 98.98542
228.9464, 98.37878
229.4285, 97.83499
229.9107, 97.92779
230.3928, 98.79245
230.8749, 100.0583
231.3570, 101.3987
231.8391, 102.8684
232.3212, 103.8820
232.8034, 103.9206
233.2855, 103.6124
233.7676, 103.8295
234.2497, 104.7920
234.7318, 105.8928
235.2139, 106.3165
235.6961, 106.1618
236.1782, 106.3010
236.6603, 107.0085
237.1424, 108.1237
237.6245, 109.4422
238.1066, 110.9768
238.5888, 112.6163
239.0709, 114.4451
239.5530, 116.3548
240.0351, 117.9387
240.5172, 118.8115
240.9993, 119.3177
241.4815, 120.1472
241.9636, 121.4632
242.4457, 122.7905
242.9278, 123.7991
243.4099, 124.5682
243.8920, 125.2213
244.3742, 125.7358
244.8563, 126.1779
245.3384, 126.7425
245.8205, 127.5446
246.3026, 128.2000
246.7847, 128.3245
247.2668, 128.1936
247.7490, 128.2746
248.2311, 128.9446
248.7132, 129.8812
249.1953, 130.1983
249.6774, 129.4704
250.1595, 128.9946
250.6417, 129.4505
251.1238, 130.4074
251.6059, 131.3399
252.0880, 132.0145
252.5701, 132.5159
253.0522, 133.0489
253.5344, 133.5774
254.0165, 134.2138
254.4986, 135.1948
254.9807, 136.2087
255.4628, 136.8128
255.9449, 136.7374
256.4271, 136.4285
256.9092, 137.0302
257.3913, 139.2182
257.8734, 141.0399
258.3555, 141.9660
258.8376, 142.4781
259.3198, 142.9318
259.8019, 143.4584
260.2840, 144.1674
260.7661, 145.3737
261.2482, 147.5938
261.7303, 149.3055
262.2125, 150.1983
262.6946, 150.6992
263.1767, 151.0994
263.6588, 151.5080
264.1409, 151.9362
264.6230, 152.4184
265.1052, 153.0171
265.5873, 153.5422
266.0694, 153.6938
266.5515, 153.9629
267.0336, 154.7822
267.5157, 156.2124
267.9979, 157.9199
268.4800, 159.3975
268.9621, 160.4331
269.4442, 161.6978
269.9263, 162.7475
270.4084, 164.2902
270.8906, 166.9353
271.3727, 170.6749
271.8548, 174.9504
272.3369, 179.1956
272.8190, 183.6516
273.3011, 187.0953
273.7833, 188.6331
274.2654, 190.1052
274.7475, 192.5074
275.2296, 195.8786
275.7117, 199.7229
276.1938, 203.6200
276.6760, 207.6684
277.1581, 211.1454
277.6402, 213.7398
278.1223, 216.2043
278.6044, 219.1268
279.0865, 222.3095
279.5686, 225.0285
280.0508, 226.6801
280.5329, 227.2441
281.0150, 227.5936
281.4971, 227.8776
281.9792, 227.8499
282.4613, 227.8123
282.9435, 227.4137
283.4256, 225.8617
283.9077, 222.6016
284.3898, 217.7473
284.8719, 212.4706
285.3540, 206.2705
285.8362, 200.2508
286.3183, 194.7827
286.8004, 189.6862
287.2825, 184.5537
287.7646, 179.1264
288.2467, 173.6505
288.7289, 168.9410
289.2110, 165.2790
289.6931, 161.9731
290.1752, 158.8789
290.6573, 156.1145
291.1394, 153.8977
291.6216, 152.3180
292.1037, 151.2443
292.5858, 150.4088
293.0679, 149.7009
293.5500, 149.4602
294.0321, 150.0722
294.5143, 151.0191
294.9964, 151.7112
295.4785, 151.9926
295.9606, 152.1288
296.4427, 152.5449
296.9248, 153.4935
297.4070, 153.8850
297.8891, 153.6259
298.3712, 152.8281
298.8533, 151.5933
299.3354, 149.9398
299.8175, 147.7664
300.2997, 144.8439
300.7818, 140.9964
301.2639, 137.6598
301.7460, 135.4343
302.2281, 133.2644
302.7102, 130.2695
303.1924, 126.5178
303.6745, 122.7534
304.1566, 119.4295
304.6387, 116.6091
305.1208, 114.4691
305.6029, 113.4798
306.0851, 112.6296
306.5672, 111.4067
307.0493, 109.8948
307.5314, 108.3877
308.0135, 107.0102
308.4956, 105.8003
308.9778, 104.9513
309.4599, 104.7767
309.9420, 104.5047
310.4241, 103.7648
310.9062, 102.7662
311.3883, 101.9660
311.8705, 101.5927
312.3526, 101.3914
312.8347, 100.7564
313.3168, 99.46624
313.7989, 98.33707
314.2810, 97.59096
314.7632, 97.07420
315.2453, 96.64137
315.7274, 96.26528
316.2095, 95.80579
316.6916, 95.02225
317.1737, 93.80611
317.6559, 92.73997
318.1380, 91.79555
318.6201, 91.06444
319.1022, 90.66953
319.5843, 90.61497
320.0664, 90.78642
320.5485, 91.21560
321.0306, 91.92004
321.5128, 91.85538
321.9949, 90.03122
322.4770, 88.29213
322.9591, 88.08474
323.4412, 89.17208
323.9233, 90.12373
324.4055, 89.92947
324.8876, 88.78703
325.3697, 88.19212
325.8518, 88.45760
326.3339, 88.83189
326.8160, 89.13512
327.2982, 89.33947
327.7803, 89.37327
328.2624, 89.18002
328.7445, 88.85232
329.2266, 88.63386
329.7087, 88.52244
330.1909, 88.50095
330.6730, 88.55229
331.1551, 88.69804
331.6372, 88.99030
332.1193, 89.44576
332.6014, 89.97897
333.0836, 90.46702
333.5657, 90.87019
334.0478, 91.35497
334.5299, 91.77761
335.0120, 92.37663
335.4941, 93.48596
335.9763, 95.08073
336.4584, 96.69406
336.9405, 97.84060
337.4226, 98.46288
337.9047, 99.43539
338.3868, 100.8567
338.8690, 102.4965
339.3511, 104.1783
339.8332, 105.9710
340.3153, 108.1733
340.7974, 111.0766
341.2795, 114.4708
341.7617, 116.9229
342.2438, 117.7809
342.7259, 118.6175
343.2080, 119.7044
343.6901, 121.0073
344.1722, 122.5197
344.6544, 124.2411
345.1365, 126.0127
345.6186, 127.4915
346.1007, 128.3767
346.5828, 129.4157
347.0649, 130.6607
347.5471, 132.0252
348.0292, 133.5418
348.5113, 135.1618
348.9934, 136.6347
349.4755, 137.5737
349.9576, 137.7146
350.4398, 138.4713
350.9219, 140.2039
351.4040, 142.1174
351.8861, 144.1180
352.3682, 145.9714
352.8503, 147.1968
353.3325, 147.3899
353.8146, 146.6026
354.2967, 145.6173
354.7788, 144.7852
355.2609, 143.3620
355.7430, 140.9082
356.2252, 137.8412
356.7073, 134.7134
357.1894, 131.7908
357.6715, 128.9699
358.1536, 125.9609
358.6357, 122.7463
359.1179, 119.3399
359.5999, 115.2579
360.0821, 111.2994
360.5642, 108.2202
361.0463, 106.1068
361.5284, 104.4322
362.0105, 102.5077
362.4926, 100.1859
362.9748, 98.19505
363.4569, 96.32535
363.9390, 94.95448
364.4211, 94.67794
364.9032, 95.09555
365.3853, 95.16942
365.8675, 94.00209
366.3496, 91.78687
366.8317, 90.40848
367.3138, 90.66113
367.7959, 90.78562
368.2780, 90.29484
368.7602, 89.50273
369.2423, 88.86327
369.7244, 88.58653
370.2065, 88.38085
370.6886, 87.60981
371.1707, 85.99688
371.6529, 84.51205
372.1350, 83.05633
372.6171, 81.92358
373.0992, 81.55816
373.5813, 81.90654
374.0634, 82.18494
374.5456, 81.44964
375.0277, 79.64118
375.5098, 78.16202
375.9919, 77.15980
376.4740, 76.40205
376.9561, 75.90050
377.4383, 75.54443
377.9204, 75.10094
378.4025, 74.38361
378.8846, 73.51433
379.3667, 72.83167
379.8488, 72.37456
380.3310, 72.00773
380.8131, 71.67931
381.2952, 71.40867
381.7773, 71.22387
382.2594, 71.13454
382.7415, 71.12004
383.2237, 71.18502
383.7058, 71.32887
384.1879, 71.45478
384.6700, 71.59592
385.1521, 71.64320
385.6342, 71.35520
386.1164, 70.77966
386.5985, 70.53420
387.0806, 71.26204
387.5627, 72.53812
388.0448, 73.32650
388.5269, 73.46419
389.0091, 73.37952
389.4912, 73.31335
389.9733, 73.25921
390.4554, 73.19962
390.9375, 73.06264
391.4196, 72.98196
391.9018, 73.02818
392.3839, 73.21303
392.8660, 73.68163
393.3481, 74.62963
393.8302, 75.77728
394.3123, 76.56043
394.7945, 76.88866
395.2766, 77.19510
395.7587, 77.77401
396.2408, 78.40908
396.7229, 78.57920
397.2050, 78.11230
397.6872, 77.73243
398.1693, 78.36318
398.6514, 80.12283
399.1335, 81.45174
399.6156, 82.14252
400.0977, 82.50771
400.5798, 82.68983
401.0620, 82.72921
401.5441, 82.75240
402.0262, 82.89097
402.5083, 83.03394
402.9904, 82.58479
403.4725, 81.10477
403.9547, 79.67286
404.4368, 78.58058
404.9189, 77.61136
405.4010, 76.45995
405.8831, 75.04426
406.3652, 73.56465
406.8474, 72.32151
407.3295, 71.41833
407.8116, 70.48811
408.2937, 69.44923
408.7758, 68.46152
409.2579, 67.61329
409.7401, 66.89569
410.2222, 66.23693
410.7043, 65.56507
411.1864, 64.90675
411.6685, 64.47337
412.1506, 64.49468
412.6328, 64.47202
413.1149, 64.34140
413.5970, 64.12669
414.0791, 63.79780
414.5612, 63.35695
415.0433, 62.96892
415.5255, 62.95526
416.0076, 63.49422
416.4897, 63.78938
416.9718, 63.37647
417.4539, 63.06503
417.9360, 63.40456
418.4182, 64.23240
418.9003, 64.91334
419.3824, 64.94222
419.8645, 64.46321
420.3466, 64.09389
420.8287, 63.79607
421.3109, 63.70128
421.7930, 64.01746
422.2751, 64.48571
422.7572, 64.79239
423.2393, 64.82040
423.7214, 64.82219
424.2036, 65.07901
424.6857, 65.58244
425.1678, 66.17116
425.6499, 67.06364
426.1320, 67.68996
426.6141, 67.21464
427.0963, 65.82738
427.5784, 65.05891
428.0605, 66.07809
428.5426, 67.89299
429.0247, 69.00172
429.5068, 69.31451
429.9890, 69.26313
430.4711, 68.86320
430.9532, 68.36680
431.4353, 68.51726
431.9174, 69.75879
432.3995, 70.99165
432.8817, 71.60294
433.3638, 71.81159
433.8459, 72.10696
434.3280, 72.65366
434.8101, 73.22303
435.2922, 73.49306
435.7744, 73.39444
436.2565, 73.22536
436.7386, 72.80813
437.2207, 72.47165
437.7028, 72.60265
438.1849, 73.07455
438.6671, 72.98766
439.1492, 73.62782
439.6313, 74.03635
440.1134, 74.22572
440.5955, 73.53944
441.0776, 73.98387
441.5598, 73.97518
442.0418, 73.94787
442.5240, 74.55145
443.0061, 73.99254
443.4882, 74.58610
443.9703, 74.37286
444.4524, 75.25073
444.9345, 75.89700
445.4167, 76.32413
445.8988, 75.87559
446.3809, 76.55772
446.8630, 76.78675
447.3451, 76.99717
447.8272, 77.83848
448.3094, 78.77908
448.7915, 79.84864
449.2736, 80.76274
449.7557, 81.33111
450.2378, 80.95237
450.7199, 80.58244
451.2021, 81.06091
451.6842, 82.42981
452.1663, 83.81068
452.6484, 84.47744
453.1305, 84.56644
453.6126, 84.62878
454.0948, 84.66024
454.5769, 84.75782
455.0590, 85.15471
455.5411, 85.64446
456.0232, 85.81368
456.5053, 85.35328
456.9875, 84.84946
457.4696, 84.96899
457.9517, 85.53115
458.4338, 85.67004
458.9159, 85.02274
459.3980, 83.98061
459.8802, 83.05849
460.3623, 82.23629
460.8444, 81.59776
461.3265, 81.13139
461.8086, 80.87649
462.2907, 81.09874
462.7729, 81.67484
463.2550, 81.87910
463.7371, 81.13254
464.2192, 79.65450
464.7013, 78.69596
465.1834, 78.96860
465.6656, 78.81839
466.1477, 77.83907
466.6298, 76.40445
467.1119, 74.77527
467.5940, 73.07310
468.0761, 71.55139
468.5583, 70.54208
469.0404, 70.12009
469.5225, 69.68069
470.0046, 69.27623
470.4867, 68.79771
470.9688, 68.26133
471.4510, 67.61658
471.9331, 66.69530
472.4152, 65.37067
472.8973, 64.03580
473.3794, 63.52547
473.8615, 64.04984
474.3437, 64.50779
474.8258, 64.82368
475.3079, 64.89949
475.7900, 64.48662
476.2721, 63.69746
476.7542, 63.09616
477.2364, 63.13866
477.7185, 63.59118
478.2006, 64.04914
478.6827, 64.58476
479.1648, 64.63578
479.6469, 63.49731
480.1291, 61.87271
480.6112, 61.03695
481.0933, 61.21885
481.5754, 61.69697
482.0575, 62.40355
482.5396, 63.09294
483.0217, 63.27684
483.5038, 62.84962
483.9860, 62.08559
484.4681, 61.00508
484.9502, 61.54102
485.4323, 61.84533
485.9144, 61.93047
486.3965, 61.13997
486.8787, 61.48018
487.3608, 61.36725
487.8429, 61.23574
488.3250, 61.73509
488.8071, 61.07196
489.2892, 61.56130
489.7714, 61.59060
490.2535, 61.56923
490.7356, 62.19049
491.2177, 62.55449
491.6998, 62.23240
492.1819, 61.43743
492.6641, 60.70708
493.1462, 60.39054
493.6283, 60.34874
494.1104, 60.19119
494.5925, 59.39363
495.0746, 59.78306
495.5568, 59.94083
496.0389, 59.87945
496.5210, 58.94244
497.0031, 59.13613
497.4852, 58.87669
497.9673, 58.59866
498.4495, 58.95146
498.9316, 58.14180
499.4137, 58.52522
499.8958, 58.56218
500.3779, 58.98479
500.8600, 59.50289
501.3422, 59.48912
501.8243, 58.64984
502.3064, 57.85252
502.7885, 57.60495
503.2706, 57.66905
503.7527, 57.67461
504.2349, 57.54496
504.7170, 57.18638
505.1991, 56.45750
505.6812, 55.32494
506.1633, 54.37541
506.6454, 53.91429
507.1276, 53.27895
507.6097, 51.88610
508.0918, 50.25740
508.5739, 49.33892
509.0560, 49.45459
509.5381, 49.90662
510.0203, 49.55096
510.5024, 48.10124
510.9845, 46.82344
511.4666, 45.63629
511.9487, 44.70702
512.4308, 44.27950
512.9130, 44.13778
513.3951, 43.80324
513.8772, 42.94611
514.3593, 42.04161
514.8414, 42.16083
515.3235, 43.50624
515.8057, 44.31865
516.2878, 43.96271
516.7699, 43.15986
517.2520, 42.37907
517.7341, 41.66513
518.2162, 41.26107
518.6984, 41.46164
519.1805, 41.91586
519.6626, 42.26999
520.1447, 42.50203
520.6268, 42.41755
521.1089, 41.81796
521.5911, 40.96985
522.0732, 40.53170
522.5553, 40.65713
523.0374, 40.65360
523.5195, 40.12321
524.0016, 39.61477
524.4838, 39.75283
524.9659, 40.45302
525.4480, 41.07806
525.9301, 41.15298
526.4122, 40.79277
526.8943, 40.59679
527.3765, 40.83580
527.8586, 40.84720
528.3407, 40.31936
528.8228, 39.73182
529.3049, 39.44133
529.7870, 39.50246
530.2692, 39.80882
530.7513, 40.39436
531.2334, 41.16027
531.7155, 41.46755
532.1976, 41.11272
532.6797, 40.77147
533.1619, 40.78551
533.6440, 40.92994
534.1261, 41.00782
534.6082, 40.99712
535.0903, 40.86591
535.5724, 40.41484
536.0546, 39.86375
536.5367, 39.66856
537.0188, 39.88805
537.5009, 40.45722
537.9830, 41.53529
538.4651, 42.92307
538.9473, 43.53981
539.4294, 42.67562
539.9115, 42.01052
540.3936, 42.11733
540.8757, 42.62814
541.3578, 43.10765
541.8400, 43.46336
542.3221, 43.84862
542.8042, 44.42951
543.2863, 45.21012
543.7684, 45.93258
544.2505, 46.62175
544.7326, 47.20912
545.2147, 47.61279
545.6968, 47.94192
546.1790, 48.28746
546.6611, 48.67966
547.1432, 49.14923
547.6253, 49.70946
548.1074, 50.36638
548.5895, 51.21446
549.0717, 52.40708
549.5538, 53.46488
550.0359, 53.88972
550.5180, 54.04802
551.0001, 54.50055
551.4822, 55.40229
551.9644, 56.44117
552.4465, 57.25648
552.9286, 58.10487
553.4107, 59.63807
553.8928, 61.99477
554.3749, 64.50806
554.8571, 66.58873
555.3392, 68.25343
555.8213, 69.94770
556.3034, 71.46049
556.7855, 73.24976
557.2676, 75.47097
557.7498, 78.02588
558.2319, 80.84412
558.7140, 83.88448
559.1961, 86.96978
559.6782, 89.91932
560.1603, 92.71422
560.6425, 95.58730
561.1246, 98.47307
561.6067, 101.5142
562.0888, 104.4209
562.5709, 107.6453
563.0530, 111.8301
563.5352, 117.1390
564.0173, 122.8470
564.4994, 128.2626
564.9815, 133.5774
565.4636, 139.4523
565.9457, 146.0281
566.4279, 152.8519
566.9100, 159.3770
567.3921, 165.9997
567.8742, 173.9692
568.3563, 184.0566
568.8384, 194.1808
569.3206, 203.7666
569.8027, 212.9317
570.2848, 222.0339
570.7669, 230.9968
571.2490, 239.5364
571.7311, 247.5148
572.2133, 254.7626
572.6954, 259.1043
573.1775, 259.9955
573.6596, 258.4491
574.1417, 254.4332
574.6238, 248.2817
575.1060, 239.8226
575.5881, 229.2829
576.0702, 217.8859
576.5523, 206.3881
577.0344, 194.8546
577.5165, 183.3636
577.9987, 171.7419
578.4808, 160.9239
578.9629, 150.9680
579.4450, 142.4748
579.9271, 136.2787
580.4092, 132.6098
580.8914, 129.6826
581.3735, 126.6895
581.8556, 124.1862
582.3377, 122.9758
582.8198, 122.9439
583.3019, 123.1350
583.7841, 122.9618
584.2662, 122.7425
584.7483, 123.3619
585.2304, 125.3586
585.7125, 127.3617
586.1946, 129.0665
586.6768, 131.0513
587.1589, 133.5692
587.6410, 136.6767
588.1231, 140.4378
588.6052, 144.9337
589.0873, 149.9504
589.5695, 155.0119
590.0516, 160.1088
590.5337, 165.3504
591.0158, 170.5664
591.4979, 176.2166
591.9800, 182.6319
592.4622, 189.7226
592.9443, 197.1247
593.4264, 204.7383
593.9085, 212.5877
594.3906, 220.7934
594.8727, 229.1763
595.3549, 237.3591
595.8370, 245.2099
596.3191, 252.6678
596.8012, 259.6855
597.2833, 266.2640
597.7654, 272.4456
598.2476, 279.4433
598.7297, 284.7239
599.2118, 287.2689
599.6939, 287.7667
600.1760, 287.1117
600.6581, 285.5702
601.1403, 282.8925
601.6224, 278.6788
602.1045, 272.9461
602.5866, 266.4579
603.0687, 259.1925
603.5508, 251.2690
604.0330, 242.4998
604.5151, 233.2030
604.9972, 223.7653
605.4793, 214.0728
605.9614, 204.8060
606.4435, 196.3892
606.9257, 188.4990
607.4078, 180.6794
607.8899, 172.9338
608.3720, 165.5783
608.8541, 158.8696
609.3362, 152.6886
609.8184, 146.5863
610.3005, 140.1004
610.7826, 134.4738
611.2647, 130.1857
611.7468, 126.3059
612.2289, 122.2571
612.7111, 118.1005
613.1932, 114.1233
613.6753, 110.4301
614.1574, 107.1774
614.6395, 104.7577
615.1216, 103.2200
615.6038, 101.7109
616.0859, 100.1329
616.5680, 98.44998
617.0501, 96.49521
617.5322, 94.37813
618.0143, 92.50478
618.4965, 91.04811
618.9786, 89.75459
619.4607, 88.43046
619.9428, 87.17546
620.4249, 86.18623
620.9070, 85.50546
621.3892, 85.03051
621.8713, 84.70932
622.3534, 84.53413
622.8355, 84.00656
623.3176, 82.66489
623.7997, 81.56174
624.2819, 80.89011
624.7640, 80.49635
625.2461, 80.23106
625.7282, 80.08670
626.2103, 80.18111
626.6924, 80.66823
627.1745, 81.43542
627.6566, 82.37586
628.1387, 83.54455
628.6208, 84.02851
629.1030, 83.10698
629.5851, 81.78703
630.0672, 81.81237
630.5493, 83.28139
631.0314, 84.01782
631.5135, 83.03520
631.9957, 81.86652
632.4778, 81.63950
632.9599, 81.93892
633.4420, 81.81104
633.9241, 80.89951
634.4063, 79.57442
634.8884, 78.35447
635.3705, 77.26693
635.8526, 76.00387
636.3347, 74.45025
636.8168, 72.88674
637.2990, 71.60120
637.7811, 70.27328
638.2632, 68.37949
638.7453, 65.78448
639.2274, 63.34367
639.7095, 61.71184
640.1917, 60.61753
640.6738, 59.62237
641.1559, 58.69234
641.6380, 57.74360
642.1201, 56.70341
642.6022, 55.66609
643.0844, 54.84799
643.5665, 54.39452
644.0486, 53.87384
644.5307, 53.27053
645.0128, 52.61727
645.4949, 51.78287
645.9771, 50.93755
646.4592, 50.48281
646.9413, 50.61296
647.4234, 50.81268
647.9055, 50.17719
648.3876, 48.73272
648.8698, 47.87158
649.3519, 47.91895
649.8340, 48.06605
650.3161, 47.82908
650.7982, 47.34768
651.2803, 46.86911
651.7625, 46.32204
652.2446, 46.00645
652.7267, 46.15691
653.2088, 46.52618
653.6909, 47.02823
654.1730, 47.52765
654.6552, 47.57226
655.1373, 46.85421
655.6194, 45.66037
656.1015, 44.69611
656.5836, 43.95121
657.0657, 43.47097
657.5479, 43.34174
658.0300, 43.41380
658.5121, 43.83818
658.9942, 44.38697
659.4763, 44.61738
659.9584, 44.34954
660.4406, 43.84660
660.9227, 43.25480
661.4048, 42.62037
661.8869, 42.05085
662.3690, 41.56327
662.8511, 41.14059
663.3333, 40.76720
663.8154, 40.44875
664.2975, 40.21246
664.7796, 40.01949
665.2617, 39.96952
665.7438, 40.12737
666.2260, 40.37468
666.7081, 40.82317
667.1902, 41.28611
667.6723, 41.28926
668.1544, 40.52063
668.6365, 39.48359
669.1187, 38.98152
669.6008, 38.99149
670.0829, 39.00007
670.5650, 38.96021
671.0471, 38.84764
671.5292, 38.59221
672.0114, 38.25084
672.4935, 38.04303
672.9756, 38.13049
673.4577, 38.07407
673.9398, 37.47178
674.4219, 36.85570
674.9041, 36.88186
675.3862, 37.43473
675.8683, 37.85519
676.3504, 37.73225
676.8325, 37.24892
677.3146, 36.72761
677.7968, 36.03893
678.2789, 36.00433
678.7610, 37.39080
679.2431, 38.56844
679.7252, 38.27533
680.2073, 37.14858
680.6895, 36.51569
681.1716, 36.85380
681.6537, 37.19206
682.1358, 36.04904
682.6179, 36.86518
683.1000, 37.33389
683.5822, 37.47384
684.0643, 36.30033
684.5464, 36.82287
685.0285, 36.66571
685.5106, 36.48068
685.9927, 37.24193
686.4749, 36.25947
686.9570, 37.00571
687.4391, 37.06189
687.9212, 37.43389
688.4033, 37.12199
688.8854, 37.02133
689.3676, 37.60479
689.8497, 37.80944
690.3318, 37.41882
690.8139, 37.28120
691.2960, 37.53905
691.7781, 37.98639
692.2603, 38.54642
692.7424, 39.19446
693.2245, 39.89277
693.7066, 40.55264
694.1887, 41.19067
694.6708, 41.75179
695.1530, 42.18474
695.6351, 42.59613
696.1172, 43.09069
696.5993, 43.58619
697.0814, 43.90207
697.5635, 43.96659
698.0457, 44.01863
698.5278, 44.22977
699.0099, 44.62392
699.4920, 45.43056
699.9741, 46.70033
700.4562, 47.65237
700.9384, 47.79401
701.4205, 47.47097
701.9026, 47.37229
702.3847, 47.47806
702.8668, 47.90010
703.3489, 49.14252
703.8311, 50.18053
704.3132, 50.43967
704.7953, 50.17915
705.2774, 49.81243
705.7595, 49.48146
706.2416, 49.14093
706.7238, 48.80724
707.2059, 48.43549
707.6880, 47.81702
708.1701, 46.94153
708.6522, 45.85838
709.1343, 44.49203
709.6164, 43.03149
710.0985, 41.72466
710.5806, 40.54544
711.0627, 39.67652
711.5449, 39.41868
712.0270, 39.15419
712.5091, 38.40020
712.9912, 37.54275
713.4733, 37.24773
713.9554, 37.60331
714.4376, 37.96514
714.9197, 37.69680
715.4018, 36.94611
715.8839, 36.20449
716.3660, 35.43247
716.8481, 35.02120
717.3303, 35.26588
717.8124, 35.68640
718.2945, 35.70092
718.7766, 35.34516
719.2587, 35.12181
719.7408, 35.41542
720.2230, 35.44429
720.7051, 34.51387
721.1872, 33.37324
721.6693, 33.01997
722.1514, 33.47781
722.6335, 33.93834
723.1157, 33.77816
723.5978, 33.21209
724.0799, 32.77318
724.5620, 32.45449
725.0441, 31.67939
725.5262, 32.46673
726.0084, 32.90663
726.4905, 33.01777
726.9726, 31.81545
727.4547, 32.30919
727.9368, 32.12322
728.4189, 31.90938
728.9011, 32.64183
729.3832, 31.63055
729.8653, 32.34799
730.3474, 32.37536
730.8295, 32.71856
731.3116, 32.37785
731.7938, 32.24839
732.2759, 32.80304
732.7580, 32.97889
733.2401, 32.55946
733.7222, 32.92273
734.2043, 31.88756
734.6865, 32.07955
735.1686, 32.80099
735.6507, 32.41595
736.1328, 32.79173
736.6149, 32.87774
737.0970, 31.64691
737.5792, 32.70620
738.0613, 32.77510
738.5434, 31.82706
739.0255, 32.80788
739.5076, 32.00004
739.9897, 31.83064
740.4719, 32.14172
740.9540, 31.95192
741.4361, 32.55180
741.9182, 32.39093
742.4003, 32.16208
742.8824, 32.22986
743.3646, 31.45709
743.8467, 32.24371
744.3288, 32.11139
744.8109, 32.20174
745.2930, 32.42636
745.7751, 32.67765
746.2573, 33.01133
746.7394, 33.29219
747.2215, 33.29830
747.7036, 33.05202
748.1857, 32.83048
748.6678, 32.83788
749.1500, 33.01086
749.6321, 32.34964
750.1142, 33.16346
750.5963, 33.62985
751.0784, 33.76748
751.5605, 32.59164
752.0427, 33.11187
752.5248, 32.95238
753.0069, 32.76503
753.4890, 33.52397
753.9711, 32.53917
754.4532, 33.28310
754.9354, 33.33695
755.4175, 33.70663
755.8996, 33.39242
756.3817, 33.28943
756.8638, 33.66825
757.3459, 33.97750
757.8281, 34.44556
758.3102, 34.97700
758.7923, 35.10601
759.2744, 34.77992
759.7565, 34.59172
760.2386, 34.84044
760.7208, 35.36245
761.2029, 35.89180
761.6850, 36.43743
762.1671, 36.95807
762.6492, 37.54115
763.1313, 37.99511
763.6135, 38.08751
764.0956, 38.12273
764.5777, 38.46912
765.0598, 39.14922
765.5419, 39.85751
766.0240, 40.40583
766.5062, 40.86203
766.9883, 41.30920
767.4704, 41.74870
767.9525, 42.15081
768.4346, 42.50614
768.9167, 42.93771
769.3989, 43.58492
769.8810, 44.38709
770.3631, 44.94362
770.8452, 44.93053
771.3273, 45.55978
771.8094, 45.94558
772.2916, 46.10039
772.7737, 45.36770
773.2558, 45.75389
773.7379, 45.67511
774.2200, 45.56591
774.7021, 46.07574
775.1843, 45.41125
775.6664, 45.88741
776.1485, 45.89168
776.6306, 46.09467
777.1127, 45.46480
777.5948, 45.59839
778.0770, 45.50026
778.5591, 45.18310
779.0412, 43.99025
779.5233, 43.92810
780.0054, 43.41287
780.4875, 42.87901
780.9697, 42.97590
781.4518, 41.91046
781.9339, 41.99744
782.4160, 41.62437
782.8981, 41.46191
783.3802, 40.18167
783.8624, 39.21988
784.3445, 38.70730
784.8266, 38.41302
785.3087, 38.00073
785.7908, 37.47048
786.2729, 37.11534
786.7551, 37.16644
787.2372, 37.35724
787.7193, 37.04058
788.2014, 36.22735
788.6835, 35.87440
789.1656, 36.25286
789.6478, 36.48577
790.1299, 35.92936
790.6120, 34.93995
791.0941, 34.40029
791.5762, 34.48586
792.0583, 34.46395
792.5404, 34.30639
793.0225, 34.02211
793.5046, 33.39499
793.9868, 32.75035
794.4689, 32.57354
794.9510, 32.92774
795.4331, 33.35241
795.9152, 33.49328
796.3973, 33.49701
796.8795, 33.69655
797.3616, 34.00304
797.8437, 33.83179
798.3258, 33.00957
798.8079, 32.39608
799.2900, 32.84826
799.7722, 34.09718
800.2543, 34.61105
800.7364, 34.03123
801.2185, 33.45401
801.7006, 32.91610
802.1827, 32.44189
802.6649, 32.01033
803.1470, 31.66477
803.6291, 31.49113
804.1112, 31.51639
804.5933, 31.65814
805.0754, 32.01313
805.5576, 32.35661
806.0397, 32.39655
806.5218, 32.24542
807.0039, 32.20966
807.4860, 32.38954
807.9681, 32.63792
808.4503, 32.80834
808.9324, 32.90202
809.4145, 32.94873
809.8966, 32.97620
810.3787, 32.72840
810.8608, 31.93378
811.3430, 31.23346
811.8251, 31.32906
812.3072, 32.07720
812.7893, 32.44518
813.2714, 32.16058
813.7535, 31.90759
814.2357, 31.66401
814.7178, 31.58934
815.1999, 32.04892
815.6820, 32.70628
816.1641, 32.77890
816.6462, 31.98103
817.1284, 31.22642
817.6105, 31.56933
818.0926, 32.43955
818.5747, 32.61824
819.0568, 32.20472
819.5389, 32.17835
820.0211, 32.91342
820.5032, 33.61345
820.9853, 33.27819
821.4674, 32.00895
821.9495, 31.39917
822.4316, 31.70946
822.9138, 32.11034
823.3959, 32.68941
823.8780, 33.08735
824.3601, 32.87783
824.8422, 32.32123
825.3243, 32.14206
825.8065, 32.67716
826.2886, 33.06363
826.7707, 32.59625
827.2528, 32.15714
827.7349, 32.83905
828.2170, 33.36219
828.6992, 33.65371
829.1813, 33.72606
829.6634, 32.92276
830.1455, 33.25018
830.6276, 33.12445
831.1097, 32.98014
831.5919, 33.27340
832.0740, 33.37565
832.5561, 32.90984
833.0382, 32.33054
833.5203, 32.06026
834.0024, 32.06417
834.4846, 32.06927
834.9667, 32.03531
835.4488, 32.06990
835.9309, 32.28458
836.4130, 32.45429
836.8951, 32.40663
837.3773, 32.25129
837.8594, 32.21658
838.3415, 32.37526
838.8236, 32.45174
839.3057, 31.73401
839.7878, 32.54505
840.2700, 33.00866
840.7521, 33.14349
841.2342, 31.96488
841.7163, 32.48232
842.1984, 32.32006
842.6805, 32.12992
843.1627, 32.88608
843.6448, 31.89850
844.1269, 32.63964
844.6090, 32.69072
845.0911, 33.05762
845.5732, 32.74062
846.0554, 32.63486
846.5375, 33.21321
847.0196, 32.92824
847.5017, 32.96202
847.9838, 33.13578
848.4659, 33.98186
848.9481, 34.34749
849.4302, 33.24009
849.9123, 31.72913
850.3944, 31.15808
850.8765, 31.64816
851.3586, 32.23298
851.8408, 32.51215
852.3229, 32.60918
852.8050, 32.57048
853.2871, 32.44878
853.7692, 32.30993
854.2513, 32.17881
854.7335, 32.11066
855.2156, 32.15154
855.6977, 32.20042
856.1798, 32.05273
856.6619, 31.71474
857.1440, 31.32718
857.6262, 30.83375
858.1083, 30.65611
858.5904, 31.08854
859.0725, 31.75635
859.5546, 32.20477
860.0367, 32.44921
860.5189, 32.26874
861.0010, 31.23549
861.4831, 30.37615
861.9652, 29.92281
862.4473, 29.63368
862.9294, 29.20802
863.4116, 28.79489
863.8937, 28.92660
864.3758, 29.99079
864.8579, 30.84082
865.3400, 30.52487
865.8221, 29.79031
866.3043, 29.42346
866.7864, 29.38293
867.2685, 29.41265
867.7506, 29.41687
868.2327, 29.40191
868.7148, 29.34703
869.1970, 29.29598
869.6791, 29.47372
870.1612, 29.87975
870.6433, 29.97239
871.1254, 29.55601
871.6075, 29.22503
872.0897, 29.51864
872.5718, 30.16699
873.0539, 30.24953
873.5360, 29.23724
874.0181, 28.87350
874.5002, 29.89157
874.9823, 30.71894
875.4644, 30.64853
875.9465, 30.24341
876.4286, 30.21144
876.9108, 30.58463
877.3929, 30.74941
877.8750, 30.34013
878.3571, 29.85332
878.8392, 29.57252
879.3214, 29.36082
879.8035, 28.95428
880.2856, 28.44543
880.7677, 28.22964
881.2498, 28.51984
881.7319, 28.99986
882.2141, 29.48353
882.6962, 29.80958
883.1783, 29.29420
883.6604, 28.00840
884.1425, 26.90029
884.6246, 26.28884
885.1068, 26.19048
885.5889, 26.71956
886.0710, 27.75572
886.5531, 28.32603
887.0352, 28.29309
887.5173, 28.20454
887.9995, 28.24901
888.4816, 28.07796
888.9637, 27.18902
889.4458, 26.01915
889.9279, 25.45296
890.4100, 25.60630
890.8922, 25.95477
891.3743, 26.66011
891.8564, 27.27260
892.3385, 27.70159
892.8206, 27.85439
893.3027, 27.45204
893.7849, 26.63069
894.2670, 26.05926
894.7491, 26.12939
895.2312, 26.43714
895.7133, 26.77315
896.1954, 27.01977
896.6776, 26.83360
897.1597, 26.34017
897.6418, 26.17912
898.1239, 26.61630
898.6060, 27.10027
899.0881, 26.83862
899.5703, 26.03689
900.0524, 25.91403
900.5345, 26.52613
901.0166, 26.59854
901.4987, 25.64805
901.9808, 24.87860
902.4630, 25.42335
902.9451, 26.77639
903.4272, 27.11132
903.9093, 25.78292
904.3914, 24.93761
904.8735, 24.87643
905.3557, 24.92928
905.8378, 24.80580
906.3199, 24.71336
906.8020, 24.93125
907.2841, 25.44989
907.7662, 25.90891
908.2484, 26.19124
908.7305, 26.43683
909.2126, 26.80130
909.6947, 27.06987
910.1768, 27.05435
910.6589, 26.76800
911.1411, 26.19037
911.6232, 25.30139
912.1053, 24.63214
912.5874, 24.83335
913.0695, 25.41571
913.5516, 25.59753
914.0338, 25.50327
914.5159, 25.60476
914.9980, 25.99562
915.4801, 26.40196
915.9622, 26.62751
916.4443, 26.66952
916.9265, 26.47292
917.4086, 26.03827
917.8907, 25.66462
918.3728, 25.35374
918.8549, 25.21894
919.3370, 25.35081
919.8192, 25.59999
920.3013, 25.77674
920.7834, 25.88254
921.2655, 25.87748
921.7476, 25.45904
922.2297, 24.63992
922.7119, 25.34669
923.1940, 25.82177
923.6761, 26.07769
924.1582, 25.45797
924.6403, 25.96895
925.1224, 25.11073
925.6046, 24.20733
926.0867, 23.93495
926.5688, 23.93147
927.0509, 24.12412
927.5330, 24.40475
928.0151, 24.74754
928.4973, 25.07971
928.9794, 25.16245
929.4615, 24.79130
929.9436, 24.38490
930.4257, 24.31421
930.9078, 24.43137
931.3900, 24.53300
931.8721, 24.61737
932.3542, 24.76830
932.8363, 25.00385
933.3184, 25.19609
933.8005, 25.20960
934.2827, 25.09410
934.7648, 24.95218
935.2469, 24.79295
935.7290, 24.73699
936.2111, 24.81211
936.6932, 24.74948
937.1754, 24.32095
937.6575, 23.91325
938.1396, 24.36571
938.6217, 25.81629
939.1038, 26.28149
939.5859, 25.24357
940.0681, 24.63976
940.5502, 25.25735
941.0323, 26.03284
941.5144, 25.98570
941.9965, 25.34837
942.4786, 25.12746
942.9608, 25.63995
943.4429, 25.89259
943.9250, 25.60266
944.4071, 25.33356
944.8892, 25.36072
945.3713, 25.49732
945.8535, 25.48954
946.3356, 25.34890
946.8177, 25.35270
947.2998, 25.89196
947.7819, 26.13195
948.2640, 25.29343
948.7462, 24.29145
949.2283, 24.01052
949.7104, 24.25156
950.1925, 24.47042
950.6746, 24.49632
951.1567, 24.43363
951.6389, 24.23162
952.1210, 24.10178
952.6031, 24.29938
953.0852, 24.78345
953.5673, 25.69600
954.0494, 26.87919
954.5316, 27.47662
955.0137, 27.01122
955.4958, 26.15957
955.9779, 26.02591
956.4600, 26.37574
956.9421, 25.83205
957.4242, 24.44074
957.9063, 23.67606
958.3884, 23.94830
958.8705, 24.54333
959.3527, 24.91754
959.8348, 25.12139
960.3169, 25.31758
960.7990, 25.55685
961.2811, 25.44751
961.7632, 24.74519
962.2454, 24.38333
962.7275, 24.86779
963.2096, 25.61115
963.6917, 25.98194
964.1738, 26.01365
964.6559, 26.08464
965.1381, 26.30521
965.6202, 26.38501
966.1023, 26.22254
966.5844, 26.02886
967.0665, 25.93333
967.5486, 25.83827
968.0308, 25.48554
968.5129, 24.87304
968.9950, 24.73764
969.4771, 25.98427
969.9592, 26.73111
970.4413, 25.69424
970.9235, 24.49384
971.4056, 24.60235
971.8877, 25.52674
972.3698, 26.05916
972.8519, 25.87660
973.3340, 25.65614
973.8162, 25.88151
974.2983, 26.11761
974.7804, 25.91357
975.2625, 25.54938
975.7446, 25.38980
976.2267, 25.47525
976.7089, 25.77770
977.1910, 26.30165
977.6731, 26.71047
978.1552, 26.70704
978.6373, 26.32772
979.1194, 25.26717
979.6016, 23.90698
980.0837, 23.60126
980.5658, 24.50811
981.0479, 25.41846
981.5300, 25.49506
982.0121, 25.22641
982.4943, 25.56580
982.9764, 26.35200
983.4585, 26.54898
983.9406, 26.15271
984.4227, 26.11675
984.9048, 26.76508
985.3870, 27.52278
985.8691, 27.86932
986.3512, 27.91284
986.8333, 28.01350
987.3154, 28.19095
987.7975, 28.21240
988.2797, 27.97230
988.7618, 27.99938
989.2439, 28.65975
989.7260, 29.33725
990.2081, 29.26281
990.6902, 28.53378
991.1724, 28.05602
991.6545, 27.77135
992.1366, 27.91049
992.6187, 28.94976
993.1008, 29.71746
993.5829, 29.56516
994.0651, 28.92449
994.5472, 28.22075
995.0293, 27.44420
995.5114, 27.23929
995.9935, 28.21896
996.4756, 28.88653
996.9578, 28.66618
997.4399, 28.49051
997.9220, 29.05822
998.4041, 29.93016
998.8862, 30.32619
999.3683, 30.14863
999.8505, 30.18789
1000.333, 30.72027
1000.815, 31.39229
1001.297, 32.36898
1001.779, 33.16674
1002.261, 33.10728
1002.743, 32.64165
1003.225, 32.80930
1003.707, 33.87378
1004.190, 34.73537
1004.672, 34.66940
1005.154, 34.41949
1005.636, 34.27970
1006.118, 34.37727
1006.600, 35.02085
1007.082, 36.00732
1007.564, 36.75854
1008.046, 37.06411
1008.529, 37.26484
1009.011, 37.58695
1009.493, 37.97512
1009.975, 38.30249
1010.457, 38.68031
1010.939, 39.40707
1011.421, 40.40688
1011.903, 41.25024
1012.385, 41.72164
1012.868, 42.06680
1013.350, 42.56642
1013.832, 43.11471
1014.314, 43.35217
1014.796, 43.48765
1015.278, 44.22412
1015.760, 45.61452
1016.242, 47.14293
1016.725, 48.52898
1017.207, 49.61080
1017.689, 49.89257
1018.171, 49.70684
1018.653, 50.27319
1019.135, 51.52332
1019.617, 52.92478
1020.099, 54.35786
1020.581, 56.01849
1021.064, 58.09072
1021.546, 60.19518
1022.028, 61.46907
1022.510, 62.02177
1022.992, 63.35526
1023.474, 65.49876
1023.956, 67.21424
1024.438, 68.14029
1024.921, 69.12309
1025.403, 70.86453
1025.885, 72.92445
1026.367, 74.14395
1026.849, 74.42934
1027.331, 75.36569
1027.813, 77.06023
1028.295, 78.88670
1028.777, 80.79687
1029.260, 82.35754
1029.742, 83.11945
1030.224, 83.39265
1030.706, 84.03829
1031.188, 85.13377
1031.670, 86.21964
1032.152, 87.34992
1032.634, 88.31443
1033.116, 89.01892
1033.599, 89.60522
1034.081, 90.16070
1034.563, 90.70763
1035.045, 91.33083
1035.527, 92.08791
1036.009, 92.75832
1036.491, 93.62802
1036.973, 93.81395
1037.456, 92.44199
1037.938, 91.11996
1038.420, 91.58652
1038.902, 93.10143
1039.384, 93.08178
1039.866, 90.84996
1040.348, 88.98643
1040.830, 87.67651
1041.313, 86.47995
1041.795, 85.12807
1042.277, 83.98977
1042.759, 83.44163
1043.241, 83.34305
1043.723, 83.31811
1044.205, 83.56328
1044.687, 83.30720
1045.169, 81.46936
1045.651, 80.50408
1046.134, 82.19832
1046.616, 84.06702
1047.098, 83.51083
1047.580, 81.51991
1048.062, 81.25805
1048.544, 83.61218
1049.026, 85.50959
1049.508, 85.92412
1049.991, 86.63720
1050.473, 88.31252
1050.955, 90.46349
1051.437, 92.98210
1051.919, 95.59598
1052.401, 97.56563
1052.883, 98.45503
1053.365, 100.1776
1053.848, 104.0251
1054.330, 107.6419
1054.812, 110.0389
1055.294, 111.9097
1055.776, 113.7968
1056.258, 115.6838
1056.740, 117.4292
1057.222, 119.0454
1057.704, 120.2649
1058.187, 121.5255
1058.669, 121.7200
1059.151, 119.8910
1059.633, 117.2130
1060.115, 114.5797
1060.597, 111.9587
1061.079, 109.0458
1061.561, 105.7604
1062.043, 102.3687
1062.526, 98.88126
1063.008, 95.39188
1063.490, 91.75194
1063.972, 88.27464
1064.454, 85.28384
1064.936, 82.66762
1065.418, 80.25918
1065.900, 78.01865
1066.383, 75.50433
1066.865, 72.02634
1067.347, 68.90334
1067.829, 66.96809
1068.311, 65.44833
1068.793, 64.00456
1069.275, 62.35322
1069.757, 59.83399
1070.240, 56.39598
1070.722, 53.62074
1071.204, 52.68316
1071.686, 51.87153
1072.168, 50.32490
1072.650, 48.62867
1073.132, 47.29729
1073.614, 46.14082
1074.096, 44.64516
1074.578, 42.79919
1075.061, 41.35578
1075.543, 40.95741
1076.025, 40.49046
1076.507, 39.24158
1076.989, 37.89012
1077.471, 36.91522
1077.953, 36.22532
1078.435, 35.69355
1078.918, 35.25329
1079.400, 34.71990
1079.882, 33.98042
1080.364, 33.22240
1080.846, 32.59834
1081.328, 31.91845
1081.810, 30.89818
1082.292, 29.82130
1082.774, 29.09116
1083.257, 28.70457
1083.739, 28.40577
1084.221, 28.23429
1084.703, 27.75334
1085.185, 26.16466
1085.667, 24.86664
1086.149, 25.20361
1086.631, 26.04814
1087.114, 25.94668
1087.596, 25.06896
1088.078, 24.62438
1088.560, 25.11095
1089.042, 25.29142
1089.524, 24.39722
1090.006, 23.35594
1090.488, 22.30618
1090.970, 21.68700
1091.453, 22.39042
1091.935, 23.79415
1092.417, 24.18013
1092.899, 23.03822
1093.381, 22.16162
1093.863, 22.44153
1094.345, 22.83971
1094.827, 23.04817
1095.309, 23.02138
1095.792, 22.53376
1096.274, 21.86507
1096.756, 21.52876
1097.238, 21.61441
1097.720, 21.81818
1098.202, 22.13336
1098.684, 22.43045
1099.166, 22.82243
1099.649, 23.02368
1100.131, 22.75860
1100.613, 22.21694
1101.095, 21.55958
1101.577, 20.85920
1102.059, 20.56056
1102.541, 21.11153
1103.023, 21.51517
1103.505, 21.50880
1103.988, 21.33135
1104.470, 20.91431
1104.952, 20.53281
1105.434, 20.56431
1105.916, 20.93534
1106.398, 21.17693
1106.880, 21.17056
1107.362, 21.14940
1107.844, 21.06465
1108.327, 21.07948
1108.809, 21.47025
1109.291, 21.80241
1109.773, 21.59265
1110.255, 21.01762
1110.737, 20.63737
1111.219, 20.55709
1111.701, 20.40496
1112.184, 19.89567
1112.666, 19.67632
1113.148, 20.28421
1113.630, 20.82168
1114.112, 20.41599
1114.594, 19.65313
1115.076, 19.71037
1115.558, 20.70425
1116.041, 21.34618
1116.523, 21.52135
1117.005, 21.53343
1117.487, 21.35999
1117.969, 21.08520
1118.451, 20.49708
1118.933, 20.06940
1119.415, 20.53036
1119.897, 21.77649
1120.380, 22.71848
1120.862, 23.49944
1121.344, 23.55255
1121.826, 22.45339
1122.308, 21.46657
1122.790, 20.88955
1123.272, 20.86843
1123.754, 21.75447
1124.236, 23.16378
1124.719, 23.76870
1125.201, 23.43696
1125.683, 22.93291
1126.165, 22.10891
1126.647, 21.71927
1127.129, 22.03975
1127.611, 22.51288
1128.093, 22.78036
1128.576, 22.91210
1129.058, 23.03826
1129.540, 23.15538
1130.022, 23.18340
1130.504, 23.11261
1130.986, 23.07640
1131.468, 23.10272
1131.950, 23.07813
1132.432, 22.94651
1132.915, 22.73799
1133.397, 22.45688
1133.879, 22.17353
1134.361, 22.30129
1134.843, 22.75629
1135.325, 22.32142
1135.807, 20.98498
1136.289, 20.18051
1136.771, 20.36301
1137.254, 20.83623
1137.736, 21.06850
1138.218, 21.11351
1138.700, 21.03141
1139.182, 20.85093
1139.664, 20.71902
1140.146, 20.58195
1140.628, 20.05146
1141.111, 19.16888
1141.593, 18.71182
1142.075, 19.09297
1142.557, 19.74473
1143.039, 20.10558
1143.521, 20.25225
1144.003, 20.18281
1144.485, 20.05256
1144.968, 20.35110
1145.450, 20.88738
1145.932, 20.76169
1146.414, 19.80033
1146.896, 19.23507
1147.378, 20.24397
1147.860, 21.34580
1148.342, 20.91735
1148.824, 19.95547
1149.307, 19.38272
1149.789, 19.27708
1150.271, 19.84430
1150.753, 20.88306
1151.235, 21.56247
1151.717, 21.51410
1152.199, 21.21724
1152.681, 20.65121
1153.163, 20.27181
1153.646, 20.74301
1154.128, 21.26002
1154.610, 20.75056
1155.092, 19.64966
1155.574, 19.09108
1156.056, 19.29700
1156.538, 19.70013
1157.020, 20.42876
1157.503, 20.91226
1157.985, 20.86603
1158.467, 20.66353
1158.949, 20.33542
1159.431, 20.10699
1159.913, 20.41587
1160.395, 21.16366
1160.877, 21.43920
1161.359, 20.94265
1161.842, 20.46473
1162.324, 19.68183
1162.806, 19.44992
1163.288, 20.48819
1163.770, 21.50736
1164.252, 21.47781
1164.734, 20.80278
1165.216, 20.31897
1165.698, 20.01465
1166.181, 20.13684
1166.663, 20.86742
1167.145, 21.35482
1167.627, 21.48421
1168.109, 21.34079
1168.591, 20.91996
1169.073, 20.38332
1169.555, 19.88842
1170.037, 19.46672
1170.520, 19.28277
1171.002, 19.32837
1171.484, 19.20845
1171.966, 18.91312
1172.448, 18.73802
1172.930, 18.76181
1173.412, 18.91875
1173.894, 19.17516
1174.377, 19.44473
1174.859, 19.68503
1175.341, 19.80057
1175.823, 19.36189
1176.305, 18.60560
1176.787, 18.26522
1177.269, 18.35342
1177.751, 18.52246
1178.234, 18.62824
1178.716, 18.58994
1179.198, 18.22608
1179.680, 17.95483
1180.162, 18.45563
1180.644, 19.13587
1181.126, 19.34243
1181.608, 19.11402
1182.090, 18.27091
1182.573, 17.13449
1183.055, 16.94112
1183.537, 18.33174
1184.019, 19.36228
1184.501, 18.68746
1184.983, 17.78272
1185.465, 17.26002
1185.947, 17.06058
1186.429, 17.33013
1186.912, 17.77075
1187.394, 17.75511
1187.876, 17.26250
1188.358, 17.25975
1188.840, 18.66095
1189.322, 19.34432
1189.804, 18.43902
1190.286, 17.64643
1190.769, 17.69884
1191.251, 17.92881
1191.733, 17.64613
1192.215, 17.18857
1192.697, 17.53680
1193.179, 18.86390
1193.661, 19.43154
1194.143, 18.96772
1194.625, 18.78673
1195.108, 19.15492
1195.590, 19.51596
1196.072, 19.60775
1196.554, 19.57905
1197.036, 19.64201
1197.518, 19.64322
1198.000, 18.82730
1198.482, 17.38861
1198.964, 17.36975
1199.447, 18.60593
1199.929, 18.81101
1200.411, 17.59472
1200.893, 16.73045
1201.375, 17.25558
1201.857, 18.13487
1202.339, 18.10621
1202.821, 17.72694
1203.304, 18.05870
1203.786, 18.61712
1204.268, 18.34074
1204.750, 17.56458
1205.232, 17.51131
1205.714, 18.30448
1206.196, 18.65530
1206.678, 17.72750
1207.161, 16.80790
1207.643, 16.56814
1208.125, 16.76285
1208.607, 17.60392
1209.089, 18.47027
1209.571, 18.58920
1210.053, 18.24879
1210.535, 18.28316
1211.017, 18.83890
1211.500, 19.16516
1211.982, 19.11712
1212.464, 18.88711
1212.946, 18.04782
1213.428, 17.64911
1213.910, 18.46118
1214.392, 19.42284
1214.874, 19.50945
1215.356, 18.96537
1215.839, 18.51498
1216.321, 18.16092
1216.803, 17.87187
1217.285, 17.64319
1217.767, 17.51530
1218.249, 17.49887
1218.731, 17.56269
1219.213, 17.69885
1219.696, 17.84153
1220.178, 17.91817
1220.660, 17.94953
1221.142, 18.01638
1221.624, 18.07198
1222.106, 17.94631
1222.588, 17.66445
1223.070, 17.21831
1223.552, 16.71149
1224.035, 16.66464
1224.517, 17.32348
1224.999, 17.94076
1225.481, 17.75341
1225.963, 17.39312
1226.445, 17.46132
1226.927, 17.63138
1227.409, 17.65900
1227.891, 17.47906
1228.374, 16.77995
1228.856, 15.76390
1229.338, 15.57783
1229.820, 16.91796
1230.302, 17.73890
1230.784, 17.02059
1231.266, 16.48179
1231.748, 17.26527
1232.231, 17.92279
1232.713, 18.38664
1233.195, 18.61888
1233.677, 18.63193
1234.159, 17.76934
1234.641, 18.03747
1235.123, 17.85245
1235.605, 17.80630
1236.088, 16.68628
1236.570, 16.11658
1237.052, 16.71611
1237.534, 17.36312
1238.016, 17.32561
1238.498, 17.07785
1238.980, 17.27226
1239.462, 17.78827
1239.944, 18.50701
1240.427, 19.22283
1240.909, 19.17120
1241.391, 18.56070
1241.873, 18.29592
1242.355, 18.51466
1242.837, 18.55721
1243.319, 18.03079
1243.801, 17.58756
1244.283, 17.92473
1244.766, 18.29160
1245.248, 18.02774
1245.730, 17.59022
1246.212, 17.42664
1246.694, 17.44046
1247.176, 17.36440
1247.658, 17.19845
1248.140, 17.26082
1248.622, 17.82491
1249.105, 18.13306
1249.587, 17.95512
1250.069, 17.82806
1250.551, 17.92398
1251.033, 17.99797
1251.515, 17.85057
1251.997, 17.68694
1252.479, 17.86065
1252.962, 18.26660
1253.444, 18.24688
1253.926, 17.81343
1254.408, 17.74949
1254.890, 18.03596
1255.372, 17.38340
1255.854, 17.98283
1256.336, 18.35064
1256.818, 18.49925
1257.301, 17.77239
1257.783, 18.17607
1258.265, 18.12664
1258.747, 18.05861
1259.229, 18.62145
1259.711, 18.02181
1260.193, 17.71415
1260.675, 17.13554
1261.157, 16.62016
1261.640, 16.42708
1262.122, 16.72013
1262.604, 16.90989
1263.086, 16.42196
1263.568, 16.76023
1264.050, 16.86684
1264.532, 16.75433
1265.014, 15.76615
1265.497, 18.28140
1265.979, 18.88908
1266.461, 18.28681
1266.943, 17.71583
1267.425, 17.13287
1267.907, 16.96393
1268.389, 17.24586
1268.871, 17.64251
1269.354, 18.10379
1269.836, 17.99298
1270.318, 17.00837
1270.800, 16.05016
1271.282, 15.97032
1271.764, 16.49508
1272.246, 17.50602
1272.728, 18.59600
1273.210, 19.11674
1273.693, 19.12825
1274.175, 18.50790
1274.657, 17.58858
1275.139, 17.34977
1275.621, 18.01677
1276.103, 18.42384
1276.585, 17.75176
1277.067, 17.29608
1277.549, 17.82522
1278.032, 18.23542
1278.514, 17.61310
1278.996, 17.02910
1279.478, 17.69969
1279.960, 18.83965
1280.442, 18.82916
1280.924, 17.71889
1281.406, 17.16081
1281.889, 17.21769
1282.371, 17.40874
1282.853, 17.71383
1283.335, 17.85244
1283.817, 17.74867
1284.299, 17.69962
1284.781, 17.90598
1285.263, 18.08178
1285.745, 17.93301
1286.228, 17.45806
##END=



