##NAMES=Gysinite-(Nd)
##RRUFFID=R100062
##IDEAL CHEMISTRY=Pb^2+^Nd^3+^(CO_3_)_2_(OH)&#183;H_2_O
##LOCALITY=Kasompi, 70 km west of Kambove, Katanga, Congo
##OWNER=RRUFF
##SOURCE=William W Pinch
##DESCRIPTION=Pink glassy granular crystals associated with green malachite
##STATUS=The identification of this mineral has been confirmed by single-crystal X-ray diffraction.
##URL=rruff.info/R100062
90.49219, 35.55470
90.97430, 35.59544
91.45642, 35.61110
91.93854, 35.51732
92.42065, 35.42371
92.90277, 35.63399
93.38489, 36.27871
93.86700, 36.73446
94.34912, 35.86798
94.83124, 33.92169
95.31335, 32.31509
95.79547, 32.16988
96.27759, 33.16029
96.75970, 33.93569
97.24182, 34.27580
97.72394, 34.35639
98.20605, 34.59715
98.68817, 35.02883
99.17029, 35.37417
99.65240, 35.34893
100.1345, 34.92177
100.6166, 34.58165
101.0988, 34.42351
101.5809, 34.43478
102.0630, 34.50116
102.5451, 34.62444
103.0272, 34.80046
103.5093, 35.02902
103.9915, 35.31087
104.4736, 35.64588
104.9557, 36.09904
105.4378, 36.75422
105.9199, 37.02586
106.4020, 36.68523
106.8842, 36.07471
107.3663, 35.80473
107.8484, 36.23057
108.3305, 36.58779
108.8126, 36.58724
109.2947, 35.83225
109.7769, 35.37983
110.2590, 35.43542
110.7411, 35.82946
111.2232, 36.03344
111.7053, 35.67371
112.1874, 35.37862
112.6696, 35.43335
113.1517, 36.28962
113.6338, 37.03964
114.1159, 37.54906
114.5980, 37.83587
115.0801, 38.04964
115.5623, 38.09956
116.0444, 38.14676
116.5265, 38.31503
117.0086, 38.75096
117.4907, 39.21553
117.9728, 39.78988
118.4550, 40.48692
118.9371, 40.70221
119.4192, 39.73624
119.9013, 38.22705
120.3834, 37.00268
120.8655, 36.25652
121.3477, 36.00414
121.8298, 36.42727
122.3119, 37.65592
122.7940, 38.88888
123.2761, 39.41293
123.7582, 39.50250
124.2404, 39.76878
124.7225, 40.39937
125.2046, 41.44082
125.6867, 43.03804
126.1688, 45.38497
126.6509, 47.88437
127.1331, 49.72813
127.6152, 51.06569
128.0973, 52.63971
128.5794, 55.00389
129.0615, 57.98338
129.5436, 61.08144
130.0258, 63.95071
130.5079, 67.15650
130.9900, 71.89059
131.4721, 78.11143
131.9542, 85.09644
132.4363, 92.05618
132.9185, 99.11848
133.4006, 107.1633
133.8827, 116.5257
134.3648, 126.9696
134.8469, 138.1246
135.3290, 149.8512
135.8112, 162.9646
136.2933, 178.2475
136.7754, 195.7995
137.2575, 214.8985
137.7396, 235.4937
138.2217, 257.2336
138.7039, 280.6492
139.1860, 306.1231
139.6681, 332.7381
140.1502, 360.0301
140.6323, 388.1982
141.1144, 415.4881
141.5966, 441.2363
142.0787, 465.1158
142.5608, 488.3319
143.0429, 511.0246
143.5250, 532.9319
144.0071, 553.0266
144.4893, 569.9105
144.9714, 586.9718
145.4535, 605.3909
145.9356, 625.2998
146.4177, 646.6920
146.8998, 669.6509
147.3820, 694.1390
147.8641, 720.9948
148.3462, 749.3231
148.8283, 780.5128
149.3104, 815.7761
149.7925, 857.7842
150.2747, 900.1822
150.7568, 942.1166
151.2389, 983.6240
151.7210, 1025.172
152.2031, 1068.167
152.6852, 1109.933
153.1674, 1149.281
153.6495, 1184.970
154.1316, 1219.092
154.6137, 1252.685
155.0958, 1285.807
155.5779, 1314.943
156.0601, 1336.609
156.5422, 1355.562
157.0243, 1375.608
157.5064, 1400.217
157.9885, 1423.406
158.4706, 1442.586
158.9528, 1457.053
159.4349, 1472.836
159.9170, 1492.027
160.3991, 1513.189
160.8812, 1534.660
161.3633, 1555.522
161.8455, 1576.945
162.3276, 1599.384
162.8097, 1622.492
163.2918, 1647.078
163.7739, 1673.620
164.2560, 1699.798
164.7382, 1714.195
165.2203, 1724.906
165.7024, 1736.624
166.1845, 1750.343
166.6666, 1766.996
167.1487, 1783.119
167.6309, 1797.147
168.1130, 1809.502
168.5951, 1820.795
169.0772, 1831.025
169.5593, 1840.653
170.0414, 1850.215
170.5236, 1860.221
171.0057, 1869.288
171.4878, 1876.120
171.9699, 1881.229
172.4520, 1886.033
172.9341, 1892.234
173.4163, 1898.306
173.8984, 1902.199
174.3805, 1902.518
174.8626, 1902.122
175.3447, 1903.780
175.8268, 1907.151
176.3090, 1910.760
176.7911, 1913.588
177.2732, 1915.952
177.7553, 1918.328
178.2374, 1920.781
178.7195, 1923.332
179.2017, 1926.049
179.6838, 1928.932
180.1659, 1931.815
180.6480, 1934.426
181.1301, 1936.944
181.6122, 1939.906
182.0944, 1943.802
182.5765, 1947.962
183.0586, 1951.272
183.5407, 1953.688
184.0228, 1955.876
184.5049, 1958.060
184.9871, 1960.400
185.4692, 1963.486
185.9513, 1968.456
186.4334, 1973.954
186.9155, 1976.245
187.3976, 1975.069
187.8798, 1973.621
188.3619, 1975.964
188.8440, 1981.429
189.3261, 1985.497
189.8082, 1985.835
190.2903, 1983.645
190.7725, 1983.258
191.2546, 1984.800
191.7367, 1987.438
192.2188, 1990.919
192.7009, 1995.169
193.1830, 1998.111
193.6652, 1998.208
194.1473, 1996.072
194.6294, 1995.755
195.1115, 1997.553
195.5936, 2000.150
196.0757, 2001.401
196.5579, 2001.214
197.0400, 2002.301
197.5221, 2006.721
198.0042, 2014.108
198.4863, 2018.481
198.9684, 2019.012
199.4506, 2018.350
199.9327, 2020.659
200.4148, 2026.264
200.8969, 2031.872
201.3790, 2035.710
201.8611, 2037.630
202.3433, 2041.810
202.8254, 2049.017
203.3075, 2057.216
203.7896, 2062.449
204.2717, 2064.070
204.7538, 2065.992
205.2360, 2070.272
205.7181, 2077.294
206.2002, 2082.737
206.6823, 2086.048
207.1644, 2088.429
207.6465, 2092.179
208.1287, 2097.547
208.6108, 2103.317
209.0929, 2109.399
209.5750, 2116.272
210.0571, 2120.742
210.5392, 2121.606
211.0214, 2121.283
211.5035, 2125.624
211.9856, 2136.723
212.4677, 2146.709
212.9498, 2151.170
213.4319, 2148.013
213.9141, 2148.330
214.3962, 2153.391
214.8783, 2161.217
215.3604, 2167.070
215.8425, 2170.271
216.3246, 2173.056
216.8067, 2176.360
217.2889, 2180.104
217.7710, 2184.458
218.2531, 2189.788
218.7352, 2195.464
219.2173, 2200.148
219.6994, 2203.700
220.1816, 2206.479
220.6637, 2208.455
221.1458, 2208.977
221.6279, 2210.709
222.1100, 2214.254
222.5921, 2218.856
223.0743, 2222.708
223.5564, 2225.899
224.0385, 2228.264
224.5206, 2229.815
225.0027, 2230.962
225.4848, 2230.179
225.9670, 2226.125
226.4491, 2220.608
226.9312, 2218.646
227.4133, 2222.366
227.8954, 2226.213
228.3775, 2227.236
228.8597, 2223.408
229.3418, 2221.782
229.8239, 2223.416
230.3060, 2226.932
230.7881, 2228.318
231.2702, 2225.921
231.7524, 2223.766
232.2345, 2224.041
232.7166, 2228.985
233.1987, 2230.838
233.6808, 2228.040
234.1629, 2222.541
234.6451, 2219.781
235.1272, 2222.060
235.6093, 2223.788
236.0914, 2222.412
236.5735, 2216.621
237.0556, 2210.815
237.5378, 2204.472
238.0199, 2198.359
238.5020, 2194.515
238.9841, 2194.027
239.4662, 2194.219
239.9483, 2194.047
240.4305, 2193.586
240.9126, 2192.554
241.3947, 2190.750
241.8768, 2188.391
242.3589, 2186.024
242.8410, 2183.618
243.3232, 2181.154
243.8053, 2178.704
244.2874, 2176.566
244.7695, 2173.628
245.2516, 2169.827
245.7337, 2165.234
246.2159, 2159.856
246.6980, 2152.945
247.1801, 2146.455
247.6622, 2141.234
248.1443, 2137.907
248.6264, 2134.083
249.1086, 2129.420
249.5907, 2124.434
250.0728, 2120.275
250.5549, 2117.551
251.0370, 2114.612
251.5191, 2110.659
252.0013, 2105.186
252.4834, 2100.447
252.9655, 2096.783
253.4476, 2093.636
253.9297, 2090.041
254.4118, 2085.969
254.8940, 2081.515
255.3761, 2076.735
255.8582, 2071.655
256.3403, 2065.997
256.8224, 2059.542
257.3046, 2052.696
257.7867, 2046.279
258.2688, 2040.396
258.7509, 2034.692
259.2330, 2029.205
259.7151, 2024.023
260.1973, 2018.454
260.6794, 2012.222
261.1615, 2006.045
261.6436, 2001.202
262.1257, 1998.077
262.6078, 1995.272
263.0900, 1992.529
263.5721, 1989.871
264.0542, 1986.514
264.5363, 1981.832
265.0184, 1977.104
265.5005, 1974.066
265.9827, 1973.423
266.4648, 1972.369
266.9469, 1969.824
267.4290, 1965.725
267.9111, 1962.965
268.3932, 1962.125
268.8754, 1961.734
269.3575, 1959.994
269.8396, 1956.452
270.3217, 1953.255
270.8038, 1951.313
271.2859, 1950.480
271.7681, 1947.549
272.2502, 1941.563
272.7323, 1935.493
273.2144, 1932.830
273.6965, 1934.200
274.1786, 1935.500
274.6608, 1935.848
275.1429, 1935.383
275.6250, 1935.279
276.1071, 1935.842
276.5892, 1935.917
277.0714, 1933.964
277.5535, 1929.641
278.0356, 1926.538
278.5177, 1925.709
278.9998, 1926.523
279.4819, 1926.093
279.9641, 1924.060
280.4462, 1922.350
280.9283, 1923.181
281.4104, 1926.693
281.8925, 1928.281
282.3746, 1926.605
282.8568, 1923.049
283.3389, 1921.540
283.8210, 1922.218
284.3031, 1923.746
284.7852, 1925.290
285.2673, 1926.827
285.7495, 1928.629
286.2316, 1930.822
286.7137, 1933.071
287.1958, 1934.536
287.6779, 1935.164
288.1600, 1935.849
288.6422, 1937.383
289.1243, 1939.584
289.6064, 1940.969
290.0885, 1941.195
290.5706, 1941.180
291.0527, 1943.171
291.5349, 1946.964
292.0170, 1949.295
292.4991, 1946.961
292.9812, 1941.514
293.4633, 1938.667
293.9454, 1938.917
294.4276, 1940.913
294.9097, 1943.763
295.3918, 1947.176
295.8739, 1949.508
296.3560, 1949.164
296.8381, 1947.224
297.3203, 1946.146
297.8024, 1945.989
298.2845, 1946.455
298.7666, 1947.359
299.2487, 1948.642
299.7308, 1950.189
300.2130, 1952.598
300.6951, 1954.998
301.1772, 1955.609
301.6593, 1954.452
302.1414, 1953.298
302.6235, 1953.615
303.1057, 1955.092
303.5878, 1957.126
304.0699, 1960.170
304.5520, 1963.210
305.0341, 1964.849
305.5162, 1965.232
305.9984, 1965.580
306.4805, 1966.839
306.9626, 1968.570
307.4447, 1970.102
307.9268, 1971.049
308.4089, 1971.987
308.8911, 1973.093
309.3732, 1974.486
309.8553, 1976.725
310.3374, 1980.933
310.8195, 1985.764
311.3016, 1989.794
311.7838, 1992.471
312.2659, 1994.855
312.7480, 1998.035
313.2301, 2001.483
313.7122, 2003.941
314.1943, 2003.825
314.6765, 2003.211
315.1586, 2003.568
315.6407, 2005.253
316.1228, 2007.448
316.6049, 2010.411
317.0870, 2013.550
317.5692, 2015.846
318.0513, 2015.600
318.5334, 2015.496
319.0155, 2017.333
319.4976, 2021.680
319.9797, 2024.696
320.4619, 2024.215
320.9440, 2021.999
321.4261, 2020.041
321.9082, 2018.413
322.3903, 2017.446
322.8724, 2017.794
323.3546, 2019.505
323.8367, 2020.082
324.3188, 2017.950
324.8009, 2015.156
325.2830, 2013.299
325.7651, 2013.198
326.2473, 2013.418
326.7294, 2013.989
327.2115, 2014.869
327.6936, 2015.568
328.1757, 2015.794
328.6578, 2016.061
329.1400, 2016.616
329.6221, 2017.285
330.1042, 2018.485
330.5863, 2021.001
331.0684, 2024.049
331.5505, 2025.232
332.0327, 2022.926
332.5148, 2020.606
332.9969, 2019.550
333.4790, 2019.966
333.9611, 2021.081
334.4432, 2023.284
334.9254, 2025.943
335.4075, 2027.988
335.8896, 2029.342
336.3717, 2030.262
336.8538, 2030.611
337.3359, 2030.271
337.8180, 2030.813
338.3001, 2032.259
338.7823, 2034.586
339.2644, 2038.089
339.7465, 2043.259
340.2286, 2047.619
340.7107, 2050.633
341.1928, 2052.347
341.6750, 2052.236
342.1571, 2049.578
342.6392, 2047.683
343.1213, 2050.347
343.6034, 2057.629
344.0855, 2062.598
344.5677, 2063.574
345.0498, 2062.060
345.5319, 2061.290
346.0140, 2061.253
346.4961, 2062.208
346.9782, 2065.333
347.4604, 2069.946
347.9425, 2071.906
348.4246, 2070.108
348.9067, 2067.945
349.3888, 2071.309
349.8709, 2079.238
350.3531, 2086.269
350.8352, 2089.463
351.3173, 2089.957
351.7994, 2089.361
352.2815, 2087.602
352.7636, 2086.357
353.2458, 2087.288
353.7279, 2089.929
354.2100, 2093.273
354.6921, 2096.894
355.1742, 2101.011
355.6563, 2106.706
356.1385, 2113.686
356.6206, 2119.367
357.1027, 2120.357
357.5848, 2119.618
358.0669, 2120.780
358.5490, 2125.868
359.0312, 2131.433
359.5133, 2135.081
359.9954, 2137.382
360.4775, 2140.188
360.9596, 2144.776
361.4417, 2149.893
361.9239, 2154.814
362.4060, 2159.518
362.8881, 2163.719
363.3702, 2167.480
363.8523, 2170.634
364.3344, 2172.923
364.8166, 2172.299
365.2987, 2172.590
365.7808, 2175.977
366.2629, 2183.128
366.7450, 2188.682
367.2271, 2189.980
367.7093, 2190.260
368.1914, 2192.367
368.6735, 2200.632
369.1556, 2206.263
369.6377, 2206.210
370.1198, 2201.402
370.6020, 2199.946
371.0841, 2204.224
371.5662, 2209.656
372.0483, 2213.787
372.5304, 2216.061
373.0125, 2218.187
373.4947, 2220.585
373.9768, 2222.690
374.4589, 2222.818
374.9410, 2219.508
375.4231, 2217.241
375.9052, 2218.207
376.3874, 2223.035
376.8695, 2226.207
377.3516, 2227.603
377.8337, 2227.614
378.3158, 2226.212
378.7979, 2223.065
379.2801, 2221.135
379.7622, 2221.811
380.2443, 2224.264
380.7264, 2224.696
381.2085, 2222.935
381.6906, 2220.228
382.1728, 2217.444
382.6549, 2214.549
383.1370, 2211.424
383.6191, 2207.746
384.1012, 2204.285
384.5833, 2203.037
385.0655, 2203.608
385.5476, 2203.085
386.0297, 2198.228
386.5118, 2191.509
386.9939, 2187.605
387.4760, 2187.184
387.9582, 2187.756
388.4403, 2187.220
388.9224, 2185.939
389.4045, 2184.673
389.8866, 2184.788
390.3687, 2184.322
390.8509, 2180.825
391.3330, 2174.604
391.8151, 2168.988
392.2972, 2166.684
392.7793, 2165.634
393.2614, 2163.784
393.7436, 2159.756
394.2257, 2156.100
394.7078, 2154.164
395.1899, 2153.478
395.6720, 2152.801
396.1541, 2152.598
396.6363, 2151.667
397.1184, 2149.099
397.6005, 2143.961
398.0826, 2139.920
398.5647, 2138.184
399.0468, 2137.626
399.5290, 2136.879
400.0111, 2135.454
400.4932, 2134.274
400.9753, 2133.530
401.4574, 2133.213
401.9395, 2133.077
402.4217, 2133.896
402.9038, 2134.048
403.3859, 2131.894
403.8680, 2124.789
404.3501, 2121.982
404.8322, 2125.930
405.3144, 2133.685
405.7965, 2137.181
406.2786, 2135.522
406.7607, 2132.644
407.2428, 2129.595
407.7249, 2126.291
408.2071, 2126.031
408.6892, 2129.612
409.1713, 2133.849
409.6534, 2134.297
410.1355, 2131.153
410.6176, 2128.522
411.0998, 2127.682
411.5819, 2128.073
412.0640, 2128.599
412.5461, 2129.241
413.0282, 2129.629
413.5103, 2129.153
413.9925, 2128.255
414.4746, 2127.924
414.9567, 2128.462
415.4388, 2129.181
415.9209, 2129.746
416.4030, 2129.963
416.8852, 2129.362
417.3673, 2126.464
417.8494, 2123.470
418.3315, 2122.524
418.8136, 2123.775
419.2957, 2124.938
419.7779, 2124.546
420.2600, 2123.511
420.7421, 2122.760
421.2242, 2122.551
421.7063, 2122.692
422.1884, 2123.483
422.6706, 2124.680
423.1527, 2125.356
423.6348, 2125.020
424.1169, 2124.369
424.5990, 2123.689
425.0811, 2122.947
425.5633, 2122.361
426.0454, 2121.793
426.5275, 2121.459
427.0096, 2121.680
427.4917, 2122.969
427.9738, 2124.019
428.4560, 2124.347
428.9381, 2124.016
429.4202, 2124.658
429.9023, 2126.850
430.3844, 2128.896
430.8665, 2129.152
431.3487, 2127.087
431.8308, 2126.548
432.3129, 2128.253
432.7950, 2131.079
433.2771, 2132.487
433.7592, 2132.378
434.2414, 2132.665
434.7235, 2134.544
435.2056, 2137.560
435.6877, 2140.017
436.1698, 2141.898
436.6519, 2143.195
437.1341, 2143.895
437.6162, 2143.981
438.0983, 2143.325
438.5804, 2141.460
439.0625, 2139.488
439.5446, 2138.272
440.0268, 2137.936
440.5089, 2138.904
440.9910, 2143.419
441.4731, 2148.207
441.9552, 2150.263
442.4373, 2148.929
442.9195, 2146.584
443.4016, 2143.289
443.8837, 2140.049
444.3658, 2138.081
444.8479, 2138.778
445.3300, 2139.773
445.8122, 2140.341
446.2943, 2140.516
446.7764, 2140.831
447.2585, 2141.238
447.7406, 2141.884
448.2227, 2142.888
448.7049, 2144.574
449.1870, 2145.959
449.6691, 2146.911
450.1512, 2147.618
450.6333, 2148.359
451.1154, 2149.167
451.5976, 2149.947
452.0797, 2150.718
452.5618, 2151.459
453.0439, 2151.744
453.5260, 2151.367
454.0081, 2151.143
454.4903, 2151.873
454.9724, 2153.533
455.4545, 2155.024
455.9366, 2156.221
456.4187, 2157.160
456.9008, 2157.668
457.3830, 2157.837
457.8651, 2158.310
458.3472, 2159.897
458.8293, 2161.846
459.3114, 2162.728
459.7935, 2162.536
460.2757, 2162.072
460.7578, 2161.312
461.2399, 2160.876
461.7220, 2161.828
462.2041, 2165.482
462.6862, 2168.797
463.1684, 2168.986
463.6505, 2167.301
464.1326, 2166.652
464.6147, 2168.897
465.0968, 2171.878
465.5789, 2174.769
466.0611, 2177.603
466.5432, 2179.431
467.0253, 2179.066
467.5074, 2178.103
467.9895, 2177.876
468.4716, 2179.670
468.9538, 2180.628
469.4359, 2180.264
469.9180, 2178.967
470.4001, 2177.938
470.8822, 2177.300
471.3643, 2176.797
471.8465, 2176.286
472.3286, 2175.746
472.8107, 2175.923
473.2928, 2177.168
473.7749, 2178.377
474.2570, 2177.826
474.7392, 2175.554
475.2213, 2174.557
475.7034, 2175.824
476.1855, 2178.331
476.6676, 2180.027
477.1497, 2180.976
477.6319, 2181.778
478.1140, 2182.804
478.5961, 2183.891
479.0782, 2184.647
479.5603, 2184.989
480.0424, 2185.544
480.5246, 2187.656
481.0067, 2190.062
481.4888, 2190.875
481.9709, 2187.029
482.4530, 2184.273
482.9352, 2187.109
483.4173, 2193.706
483.8994, 2198.286
484.3815, 2197.610
484.8636, 2195.524
485.3457, 2193.280
485.8279, 2190.244
486.3100, 2189.878
486.7921, 2195.896
487.2742, 2202.837
487.7563, 2205.735
488.2384, 2201.077
488.7206, 2198.542
489.2027, 2200.086
489.6848, 2204.396
490.1669, 2206.898
490.6490, 2207.455
491.1311, 2206.594
491.6133, 2203.661
492.0954, 2198.726
492.5775, 2196.991
493.0596, 2198.932
493.5417, 2202.184
494.0238, 2204.310
494.5060, 2205.536
494.9881, 2206.917
495.4702, 2208.937
495.9523, 2210.852
496.4344, 2211.018
496.9165, 2209.960
497.3987, 2209.656
497.8808, 2211.933
498.3629, 2215.040
498.8450, 2217.156
499.3271, 2218.098
499.8092, 2219.263
500.2914, 2222.583
500.7735, 2225.884
501.2556, 2227.145
501.7377, 2222.820
502.2198, 2220.022
502.7019, 2221.981
503.1841, 2226.666
503.6662, 2228.535
504.1483, 2222.846
504.6304, 2218.942
505.1125, 2220.274
505.5946, 2227.451
506.0768, 2232.020
506.5589, 2233.139
507.0410, 2232.905
507.5231, 2232.946
508.0052, 2233.358
508.4873, 2233.633
508.9695, 2233.849
509.4516, 2233.720
509.9337, 2232.031
510.4158, 2228.922
510.8979, 2227.169
511.3800, 2228.828
511.8622, 2232.374
512.3443, 2234.388
512.8264, 2234.901
513.3085, 2235.039
513.7906, 2235.388
514.2728, 2235.956
514.7549, 2236.809
515.2370, 2238.059
515.7191, 2239.300
516.2012, 2240.738
516.6833, 2241.913
517.1655, 2242.144
517.6476, 2239.063
518.1297, 2237.168
518.6118, 2238.905
519.0939, 2243.906
519.5760, 2247.603
520.0582, 2249.103
520.5403, 2249.453
521.0224, 2248.833
521.5045, 2246.512
521.9866, 2245.345
522.4688, 2245.628
522.9509, 2246.702
523.4330, 2248.056
523.9151, 2249.924
524.3972, 2250.485
524.8793, 2248.631
525.3615, 2245.811
525.8436, 2246.448
526.3257, 2250.488
526.8078, 2254.178
527.2899, 2255.141
527.7720, 2254.247
528.2542, 2253.276
528.7363, 2252.314
529.2184, 2251.531
529.7005, 2250.677
530.1826, 2250.241
530.6647, 2251.067
531.1469, 2254.404
531.6290, 2257.344
532.1111, 2257.028
532.5932, 2255.208
533.0753, 2255.459
533.5574, 2262.248
534.0396, 2267.955
534.5217, 2269.145
535.0038, 2265.349
535.4859, 2263.402
535.9680, 2265.352
536.4501, 2267.302
536.9323, 2266.677
537.4144, 2261.640
537.8965, 2259.189
538.3786, 2259.831
538.8607, 2262.574
539.3428, 2266.901
539.8250, 2273.171
540.3071, 2276.636
540.7892, 2274.974
541.2713, 2270.445
541.7534, 2268.645
542.2355, 2269.372
542.7177, 2270.368
543.1998, 2269.642
543.6819, 2268.494
544.1640, 2269.396
544.6461, 2272.642
545.1282, 2275.429
545.6104, 2274.957
546.0925, 2273.241
546.5746, 2272.562
547.0567, 2274.264
547.5388, 2276.049
548.0209, 2277.040
548.5031, 2277.551
548.9852, 2278.306
549.4673, 2280.156
549.9494, 2281.442
550.4315, 2281.445
550.9136, 2280.175
551.3958, 2279.789
551.8779, 2280.395
552.3600, 2281.725
552.8421, 2284.032
553.3242, 2287.577
553.8063, 2289.449
554.2885, 2289.216
554.7706, 2288.175
555.2527, 2287.882
555.7348, 2288.285
556.2169, 2289.117
556.6990, 2290.478
557.1812, 2291.983
557.6633, 2293.271
558.1454, 2294.279
558.6275, 2294.765
559.1096, 2294.410
559.5917, 2293.604
560.0739, 2292.191
560.5560, 2290.138
561.0381, 2289.408
561.5202, 2291.838
562.0023, 2295.277
562.4844, 2298.146
562.9666, 2299.999
563.4487, 2301.579
563.9308, 2302.667
564.4129, 2303.603
564.8950, 2304.991
565.3771, 2307.219
565.8593, 2308.904
566.3414, 2309.546
566.8235, 2309.396
567.3056, 2309.823
567.7877, 2310.947
568.2698, 2311.644
568.7520, 2310.835
569.2341, 2309.000
569.7162, 2307.912
570.1983, 2307.647
570.6804, 2308.020
571.1625, 2309.863
571.6447, 2312.000
572.1268, 2312.259
572.6089, 2309.147
573.0910, 2306.250
573.5731, 2306.534
574.0552, 2308.516
574.5374, 2309.602
575.0195, 2307.328
575.5016, 2305.703
575.9837, 2306.239
576.4658, 2308.842
576.9479, 2311.798
577.4301, 2316.803
577.9122, 2320.071
578.3943, 2319.221
578.8764, 2312.942
579.3585, 2310.174
579.8406, 2311.644
580.3228, 2314.990
580.8049, 2318.496
581.2870, 2322.043
581.7691, 2323.355
582.2512, 2321.134
582.7333, 2318.561
583.2155, 2321.368
583.6976, 2327.933
584.1797, 2333.370
584.6617, 2334.505
585.1439, 2334.051
585.6260, 2333.614
586.1081, 2333.441
586.5902, 2334.792
587.0723, 2340.773
587.5544, 2346.462
588.0366, 2348.827
588.5187, 2346.739
589.0008, 2344.852
589.4829, 2344.002
589.9650, 2343.409
590.4471, 2342.479
590.9293, 2340.981
591.4114, 2339.727
591.8935, 2338.685
592.3756, 2338.028
592.8577, 2338.157
593.3398, 2339.109
593.8220, 2340.312
594.3041, 2341.818
594.7862, 2343.270
595.2683, 2343.447
595.7504, 2342.559
596.2325, 2342.150
596.7147, 2343.982
597.1968, 2346.404
597.6789, 2347.338
598.1610, 2346.622
598.6431, 2346.003
599.1252, 2346.559
599.6074, 2347.601
600.0895, 2348.643
600.5716, 2350.136
601.0537, 2350.718
601.5358, 2349.440
602.0179, 2347.436
602.5001, 2345.976
602.9822, 2344.327
603.4643, 2344.874
603.9464, 2348.881
604.4285, 2354.968
604.9106, 2358.663
605.3928, 2359.711
605.8749, 2360.104
606.3570, 2360.326
606.8391, 2360.650
607.3212, 2362.385
607.8033, 2365.445
608.2855, 2368.266
608.7676, 2369.126
609.2497, 2369.228
609.7318, 2370.353
610.2139, 2373.120
610.6960, 2375.193
611.1782, 2374.851
611.6603, 2373.356
612.1424, 2372.044
612.6245, 2369.945
613.1066, 2369.623
613.5887, 2373.412
614.0709, 2378.804
614.5530, 2380.577
615.0351, 2376.917
615.5172, 2373.481
615.9993, 2371.871
616.4814, 2371.726
616.9636, 2370.611
617.4457, 2368.350
617.9278, 2367.288
618.4099, 2369.961
618.8920, 2374.907
619.3741, 2378.182
619.8563, 2379.664
620.3384, 2380.316
620.8205, 2380.630
621.3026, 2380.688
621.7847, 2380.549
622.2668, 2380.116
622.7490, 2379.729
623.2311, 2379.249
623.7132, 2378.979
624.1953, 2379.309
624.6774, 2380.390
625.1595, 2382.031
625.6417, 2384.886
626.1238, 2388.183
626.6059, 2389.458
627.0880, 2387.924
627.5701, 2386.878
628.0522, 2387.902
628.5344, 2390.381
629.0165, 2390.579
629.4986, 2388.426
629.9807, 2387.161
630.4628, 2389.901
630.9449, 2394.874
631.4271, 2399.105
631.9092, 2402.371
632.3913, 2404.488
632.8734, 2404.450
633.3555, 2403.589
633.8376, 2403.286
634.3198, 2404.075
634.8019, 2404.936
635.2840, 2405.512
635.7661, 2406.007
636.2482, 2406.701
636.7303, 2407.316
637.2125, 2408.697
637.6946, 2411.750
638.1767, 2415.320
638.6588, 2415.680
639.1409, 2412.325
639.6230, 2409.493
640.1052, 2409.157
640.5873, 2410.521
641.0694, 2411.380
641.5515, 2411.778
642.0336, 2411.730
642.5157, 2410.621
642.9979, 2409.470
643.4800, 2409.451
643.9621, 2410.704
644.4442, 2412.678
644.9263, 2415.972
645.4084, 2419.365
645.8906, 2421.858
646.3727, 2423.155
646.8548, 2423.640
647.3369, 2422.636
647.8190, 2421.234
648.3011, 2420.627
648.7833, 2420.688
649.2654, 2421.761
649.7475, 2423.970
650.2296, 2427.065
650.7117, 2431.293
651.1938, 2436.471
651.6760, 2440.066
652.1581, 2440.010
652.6402, 2438.657
653.1223, 2440.161
653.6044, 2443.756
654.0865, 2446.222
654.5687, 2444.471
655.0508, 2442.033
655.5329, 2441.503
656.0150, 2443.160
656.4971, 2443.960
656.9792, 2441.436
657.4614, 2439.360
657.9435, 2440.042
658.4256, 2444.739
658.9077, 2447.540
659.3898, 2447.599
659.8719, 2447.197
660.3541, 2449.306
660.8362, 2453.777
661.3183, 2456.177
661.8004, 2455.677
662.2825, 2453.396
662.7646, 2449.181
663.2468, 2444.345
663.7289, 2442.232
664.2110, 2445.860
664.6931, 2450.358
665.1752, 2452.144
665.6573, 2452.231
666.1395, 2453.028
666.6216, 2457.399
667.1037, 2460.428
667.5858, 2459.309
668.0679, 2454.895
668.5500, 2453.129
669.0322, 2454.798
669.5143, 2457.569
669.9964, 2461.071
670.4785, 2465.110
670.9606, 2466.121
671.4427, 2463.787
671.9249, 2461.301
672.4070, 2460.821
672.8891, 2462.103
673.3712, 2465.232
673.8533, 2470.427
674.3354, 2474.949
674.8176, 2475.893
675.2997, 2475.633
675.7818, 2476.849
676.2639, 2481.841
676.7460, 2485.176
677.2281, 2484.082
677.7103, 2481.345
678.1924, 2480.263
678.6745, 2481.153
679.1566, 2483.242
679.6387, 2487.039
680.1208, 2491.430
680.6030, 2493.855
681.0851, 2494.274
681.5672, 2494.607
682.0493, 2495.305
682.5314, 2496.498
683.0135, 2498.698
683.4957, 2501.664
683.9778, 2504.414
684.4599, 2506.497
684.9420, 2508.104
685.4241, 2508.790
685.9063, 2508.741
686.3884, 2510.274
686.8705, 2515.354
687.3526, 2520.964
687.8347, 2525.868
688.3168, 2530.008
688.7990, 2534.161
689.2811, 2538.666
689.7632, 2542.692
690.2453, 2545.289
690.7274, 2546.627
691.2095, 2548.362
691.6917, 2550.510
692.1738, 2553.647
692.6559, 2559.259
693.1380, 2565.968
693.6201, 2571.171
694.1022, 2573.561
694.5844, 2576.243
695.0665, 2581.064
695.5486, 2587.118
696.0307, 2593.277
696.5128, 2600.488
696.9949, 2606.104
697.4771, 2609.467
697.9592, 2611.322
698.4413, 2613.378
698.9234, 2616.286
699.4055, 2616.711
699.8876, 2613.190
700.3698, 2607.193
700.8519, 2602.708
701.3340, 2599.410
701.8161, 2595.147
702.2982, 2588.349
702.7803, 2580.355
703.2625, 2572.046
703.7446, 2563.629
704.2267, 2556.229
704.7088, 2549.915
705.1909, 2545.024
705.6730, 2542.258
706.1552, 2541.835
706.6373, 2540.713
707.1194, 2538.326
707.6015, 2535.956
708.0836, 2533.998
708.5657, 2532.351
709.0479, 2532.652
709.5300, 2535.034
710.0121, 2538.191
710.4942, 2540.907
710.9763, 2543.436
711.4584, 2546.596
711.9406, 2550.522
712.4227, 2554.464
712.9048, 2558.112
713.3869, 2561.400
713.8690, 2564.274
714.3511, 2566.653
714.8333, 2568.784
715.3154, 2570.271
715.7975, 2571.853
716.2796, 2574.605
716.7617, 2579.503
717.2438, 2582.772
717.7260, 2583.612
718.2081, 2583.292
718.6902, 2583.785
719.1723, 2585.071
719.6544, 2586.927
720.1365, 2589.606
720.6187, 2592.287
721.1008, 2593.949
721.5829, 2594.833
722.0650, 2595.579
722.5471, 2596.330
723.0292, 2597.026
723.5114, 2597.573
723.9935, 2597.959
724.4756, 2598.358
724.9577, 2599.728
725.4398, 2599.494
725.9219, 2596.432
726.4041, 2591.106
726.8862, 2586.769
727.3683, 2583.433
727.8504, 2580.552
728.3325, 2578.756
728.8146, 2576.906
729.2968, 2571.823
729.7789, 2563.913
730.2610, 2556.751
730.7431, 2552.664
731.2252, 2550.138
731.7073, 2548.045
732.1895, 2546.220
732.6716, 2545.544
733.1537, 2548.203
733.6358, 2550.113
734.1179, 2548.642
734.6000, 2542.647
735.0822, 2540.177
735.5643, 2542.015
736.0464, 2544.531
736.5285, 2544.178
737.0106, 2541.721
737.4927, 2540.055
737.9749, 2539.524
738.4570, 2539.478
738.9391, 2539.809
739.4212, 2540.167
739.9033, 2540.179
740.3854, 2539.860
740.8676, 2539.134
741.3497, 2537.558
741.8318, 2535.866
742.3139, 2534.778
742.7960, 2534.503
743.2781, 2534.188
743.7603, 2533.400
744.2424, 2533.093
744.7245, 2535.289
745.2066, 2539.542
745.6887, 2542.586
746.1708, 2543.484
746.6530, 2543.195
747.1351, 2542.062
747.6172, 2540.644
748.0993, 2539.972
748.5814, 2541.100
749.0635, 2542.233
749.5457, 2543.229
750.0278, 2543.764
750.5099, 2543.040
750.9920, 2539.929
751.4741, 2537.852
751.9562, 2537.555
752.4384, 2538.641
752.9205, 2540.689
753.4026, 2543.667
753.8847, 2545.122
754.3668, 2543.345
754.8489, 2540.405
755.3311, 2539.046
755.8132, 2538.992
756.2953, 2539.470
756.7774, 2540.576
757.2595, 2541.664
757.7416, 2542.611
758.2238, 2543.313
758.7059, 2543.266
759.1880, 2541.173
759.6701, 2540.415
760.1522, 2542.381
760.6343, 2546.478
761.1165, 2549.917
761.5986, 2552.690
762.0807, 2554.384
762.5628, 2553.874
763.0449, 2552.512
763.5270, 2552.966
764.0092, 2554.876
764.4913, 2556.352
764.9734, 2555.352
765.4555, 2554.445
765.9376, 2555.819
766.4197, 2559.567
766.9019, 2561.164
767.3840, 2559.120
767.8661, 2556.811
768.3482, 2555.821
768.8303, 2556.070
769.3124, 2555.315
769.7946, 2553.475
770.2767, 2551.797
770.7588, 2550.617
771.2409, 2550.395
771.7230, 2552.710
772.2051, 2557.433
772.6873, 2561.313
773.1694, 2562.040
773.6515, 2561.522
774.1336, 2560.799
774.6157, 2559.835
775.0978, 2559.472
775.5800, 2559.888
776.0621, 2560.649
776.5442, 2561.692
777.0263, 2563.056
777.5084, 2563.370
777.9905, 2562.516
778.4727, 2561.686
778.9548, 2562.405
779.4369, 2563.677
779.9190, 2563.644
780.4011, 2562.088
780.8832, 2560.331
781.3654, 2558.488
781.8475, 2557.247
782.3296, 2557.308
782.8117, 2559.390
783.2938, 2560.888
783.7759, 2561.618
784.2581, 2562.091
784.7402, 2562.495
785.2223, 2562.839
785.7044, 2564.293
786.1865, 2567.031
786.6686, 2569.551
787.1508, 2570.105
787.6329, 2569.580
788.1150, 2569.230
788.5971, 2569.163
789.0792, 2569.586
789.5613, 2570.263
790.0435, 2571.615
790.5256, 2574.266
791.0077, 2579.356
791.4898, 2582.278
791.9719, 2581.876
792.4540, 2581.166
792.9362, 2583.883
793.4183, 2589.537
793.9004, 2591.529
794.3825, 2589.196
794.8646, 2584.965
795.3467, 2579.358
795.8289, 2574.055
796.3110, 2571.496
796.7931, 2572.426
797.2752, 2574.556
797.7573, 2578.231
798.2394, 2582.057
798.7216, 2584.940
799.2037, 2586.903
799.6858, 2587.817
800.1679, 2587.391
800.6500, 2586.549
801.1321, 2585.810
801.6143, 2585.344
802.0964, 2586.402
802.5785, 2589.270
803.0606, 2591.919
803.5427, 2593.010
804.0248, 2592.614
804.5070, 2590.289
804.9891, 2584.571
805.4712, 2581.249
805.9533, 2582.942
806.4354, 2586.496
806.9175, 2590.079
807.3997, 2594.150
807.8818, 2596.097
808.3639, 2595.460
808.8460, 2594.271
809.3281, 2595.167
809.8102, 2597.115
810.2924, 2597.152
810.7745, 2594.703
811.2566, 2592.142
811.7387, 2590.531
812.2208, 2589.960
812.7029, 2590.542
813.1851, 2592.421
813.6672, 2595.257
814.1493, 2600.146
814.6314, 2604.553
815.1135, 2605.995
815.5956, 2604.297
816.0778, 2603.934
816.5599, 2605.239
817.0420, 2606.493
817.5241, 2605.374
818.0062, 2603.378
818.4883, 2602.843
818.9705, 2604.185
819.4526, 2606.194
819.9347, 2609.221
820.4168, 2612.032
820.8989, 2613.486
821.3810, 2613.023
821.8632, 2613.783
822.3453, 2616.582
822.8274, 2618.832
823.3095, 2617.863
823.7916, 2614.334
824.2737, 2612.126
824.7559, 2611.425
825.2380, 2610.458
825.7201, 2606.454
826.2022, 2602.320
826.6843, 2601.531
827.1664, 2604.936
827.6486, 2607.289
828.1307, 2606.594
828.6128, 2605.282
829.0949, 2604.091
829.5770, 2602.896
830.0591, 2604.604
830.5413, 2609.795
831.0234, 2614.283
831.5055, 2613.981
831.9876, 2611.099
832.4697, 2609.939
832.9518, 2610.597
833.4340, 2611.615
833.9161, 2612.685
834.3982, 2613.352
834.8803, 2613.046
835.3624, 2611.633
835.8445, 2611.077
836.3267, 2611.702
836.8088, 2612.579
837.2909, 2613.353
837.7730, 2614.039
838.2551, 2614.654
838.7372, 2615.219
839.2194, 2615.680
839.7015, 2616.279
840.1836, 2616.614
840.6657, 2615.962
841.1478, 2614.556
841.6299, 2613.759
842.1121, 2614.663
842.5942, 2615.540
843.0763, 2615.690
843.5584, 2615.277
844.0405, 2615.054
844.5226, 2614.825
845.0048, 2615.953
845.4869, 2619.597
845.9690, 2624.444
846.4511, 2628.099
846.9332, 2630.735
847.4153, 2632.918
847.8975, 2635.108
848.3796, 2636.698
848.8617, 2637.126
849.3438, 2636.695
849.8259, 2636.438
850.3080, 2636.384
850.7902, 2636.563
851.2723, 2636.892
851.7544, 2637.644
852.2365, 2640.194
852.7186, 2644.047
853.2007, 2645.954
853.6829, 2643.517
854.1650, 2640.746
854.6471, 2641.455
855.1292, 2644.173
855.6113, 2646.432
856.0934, 2646.796
856.5756, 2647.649
857.0577, 2649.520
857.5398, 2651.742
858.0219, 2653.308
858.5040, 2654.152
858.9861, 2655.124
859.4683, 2656.173
859.9504, 2658.036
860.4325, 2662.525
860.9146, 2668.188
861.3967, 2672.367
861.8788, 2673.779
862.3610, 2675.344
862.8431, 2678.183
863.3252, 2681.642
863.8073, 2685.252
864.2894, 2689.759
864.7715, 2691.761
865.2537, 2690.408
865.7358, 2689.200
866.2179, 2692.560
866.7000, 2698.781
867.1821, 2703.011
867.6642, 2704.758
868.1464, 2706.235
868.6285, 2709.421
869.1106, 2712.624
869.5927, 2714.584
870.0748, 2715.015
870.5569, 2715.007
871.0391, 2714.938
871.5212, 2713.671
872.0033, 2710.063
872.4854, 2704.435
872.9675, 2699.839
873.4496, 2696.085
873.9318, 2691.684
874.4139, 2683.817
874.8960, 2676.148
875.3781, 2672.885
875.8602, 2673.394
876.3423, 2672.183
876.8245, 2665.244
877.3066, 2659.709
877.7887, 2657.989
878.2708, 2659.093
878.7529, 2659.059
879.2350, 2657.928
879.7172, 2655.926
880.1993, 2652.355
880.6814, 2649.001
881.1635, 2649.233
881.6456, 2651.501
882.1277, 2652.163
882.6099, 2647.138
883.0920, 2643.631
883.5741, 2645.254
884.0562, 2648.805
884.5383, 2648.800
885.0204, 2644.460
885.5026, 2641.612
885.9847, 2641.514
886.4668, 2642.540
886.9489, 2642.070
887.4310, 2641.120
887.9131, 2642.014
888.3953, 2646.077
888.8774, 2649.808
889.3595, 2652.219
889.8416, 2653.174
890.3237, 2652.283
890.8058, 2648.075
891.2880, 2646.536
891.7701, 2648.125
892.2522, 2650.954
892.7343, 2653.639
893.2164, 2656.184
893.6985, 2658.836
894.1807, 2661.583
894.6628, 2663.487
895.1449, 2663.873
895.6270, 2663.238
896.1091, 2661.528
896.5912, 2658.650
897.0734, 2656.628
897.5555, 2655.558
898.0376, 2655.128
898.5197, 2655.329
899.0018, 2656.017
899.4839, 2656.780
899.9661, 2657.599
900.4482, 2658.341
900.9303, 2658.809
901.4124, 2659.334
901.8945, 2660.432
902.3766, 2661.820
902.8588, 2662.484
903.3409, 2661.587
903.8230, 2661.493
904.3051, 2662.991
904.7872, 2665.106
905.2693, 2665.970
905.7515, 2665.682
906.2336, 2664.819
906.7157, 2663.364
907.1978, 2661.789
907.6799, 2659.401
908.1620, 2657.594
908.6442, 2658.230
909.1263, 2664.746
909.6084, 2668.070
910.0905, 2666.532
910.5726, 2663.814
911.0547, 2663.174
911.5369, 2664.493
912.0190, 2666.537
912.5011, 2669.313
912.9832, 2671.016
913.4653, 2668.630
913.9474, 2665.521
914.4296, 2665.315
914.9117, 2668.483
915.3938, 2670.485
915.8759, 2669.531
916.3580, 2668.784
916.8401, 2669.492
917.3223, 2671.406
917.8044, 2673.402
918.2865, 2675.427
918.7686, 2677.231
919.2507, 2678.489
919.7328, 2679.612
920.2150, 2681.646
920.6971, 2683.853
921.1792, 2684.447
921.6613, 2681.605
922.1434, 2678.793
922.6255, 2675.903
923.1077, 2673.875
923.5898, 2675.113
924.0719, 2679.363
924.5540, 2681.888
925.0361, 2681.360
925.5182, 2680.486
926.0004, 2682.414
926.4825, 2685.325
926.9646, 2686.840
927.4467, 2685.555
927.9288, 2685.583
928.4109, 2688.448
928.8931, 2691.297
929.3752, 2691.801
929.8573, 2690.029
930.3394, 2690.180
930.8215, 2692.273
931.3036, 2693.593
931.7858, 2691.645
932.2679, 2688.405
932.7500, 2685.192
933.2321, 2682.338
933.7142, 2680.909
934.1964, 2683.041
934.6785, 2684.101
935.1606, 2682.216
935.6427, 2678.887
936.1248, 2679.166
936.6069, 2682.716
937.0891, 2685.244
937.5712, 2684.397
938.0533, 2683.729
938.5354, 2688.164
939.0175, 2694.501
939.4996, 2697.977
939.9818, 2694.178
940.4639, 2692.331
940.9460, 2693.480
941.4281, 2695.684
941.9102, 2697.137
942.3923, 2697.889
942.8745, 2698.306
943.3566, 2698.412
943.8387, 2698.565
944.3208, 2699.036
944.8029, 2699.708
945.2850, 2700.442
945.7672, 2701.225
946.2493, 2702.511
946.7314, 2705.173
947.2135, 2706.716
947.6956, 2705.581
948.1777, 2702.869
948.6599, 2702.848
949.1420, 2705.116
949.6241, 2707.425
950.1062, 2708.837
950.5883, 2709.803
951.0704, 2709.930
951.5526, 2709.989
952.0347, 2711.626
952.5168, 2716.752
952.9989, 2719.630
953.4810, 2719.363
953.9631, 2717.676
954.4453, 2716.365
954.9274, 2715.426
955.4095, 2714.552
955.8916, 2713.616
956.3737, 2714.094
956.8558, 2719.215
957.3380, 2724.363
957.8201, 2725.622
958.3022, 2722.532
958.7843, 2720.461
959.2664, 2719.367
959.7485, 2719.442
960.2307, 2721.530
960.7128, 2724.341
961.1949, 2724.498
961.6770, 2722.631
962.1591, 2720.964
962.6412, 2720.962
963.1234, 2720.927
963.6055, 2719.686
964.0876, 2718.242
964.5697, 2718.693
965.0518, 2722.050
965.5339, 2722.353
966.0161, 2718.263
966.4982, 2713.376
966.9803, 2710.782
967.4624, 2710.740
967.9445, 2715.065
968.4266, 2724.890
968.9088, 2731.397
969.3909, 2728.764
969.8730, 2724.198
970.3551, 2720.896
970.8372, 2718.899
971.3193, 2718.880
971.8015, 2720.847
972.2836, 2723.670
972.7657, 2727.702
973.2478, 2731.354
973.7299, 2732.072
974.2120, 2730.956
974.6942, 2730.762
975.1763, 2733.641
975.6584, 2735.669
976.1405, 2735.835
976.6226, 2735.548
977.1047, 2737.465
977.5869, 2741.243
978.0690, 2742.004
978.5511, 2738.617
979.0332, 2736.478
979.5153, 2742.130
979.9974, 2749.813
980.4796, 2754.418
980.9617, 2755.065
981.4438, 2754.161
981.9259, 2750.597
982.4080, 2748.164
982.8901, 2749.250
983.3723, 2752.391
983.8544, 2752.333
984.3365, 2749.984
984.8186, 2749.140
985.3007, 2753.183
985.7828, 2757.461
986.2650, 2760.174
986.7471, 2761.458
987.2292, 2761.414
987.7113, 2759.055
988.1934, 2759.276
988.6755, 2763.109
989.1577, 2767.042
989.6398, 2767.043
990.1219, 2764.503
990.6040, 2761.030
991.0861, 2756.790
991.5682, 2754.465
992.0504, 2758.102
992.5325, 2760.772
993.0146, 2758.577
993.4967, 2752.848
993.9788, 2751.413
994.4609, 2754.290
994.9431, 2755.657
995.4252, 2751.956
995.9073, 2747.552
996.3894, 2747.643
996.8715, 2750.180
997.3536, 2751.770
997.8358, 2750.524
998.3179, 2749.719
998.8000, 2749.135
999.2821, 2749.431
999.7642, 2751.608
1000.246, 2755.296
1000.728, 2758.825
1001.211, 2762.062
1001.693, 2763.940
1002.175, 2762.191
1002.657, 2760.224
1003.139, 2760.608
1003.621, 2762.983
1004.103, 2764.175
1004.585, 2763.906
1005.068, 2763.341
1005.550, 2762.494
1006.032, 2762.144
1006.514, 2764.287
1006.996, 2767.725
1007.478, 2770.008
1007.960, 2770.013
1008.442, 2769.973
1008.924, 2770.240
1009.407, 2771.056
1009.889, 2773.107
1010.371, 2776.503
1010.853, 2776.832
1011.335, 2774.058
1011.817, 2771.493
1012.299, 2771.567
1012.781, 2772.663
1013.263, 2773.413
1013.746, 2773.935
1014.228, 2774.827
1014.710, 2776.797
1015.192, 2777.976
1015.674, 2777.989
1016.156, 2777.265
1016.638, 2775.883
1017.120, 2774.316
1017.603, 2774.200
1018.085, 2775.929
1018.567, 2777.996
1019.049, 2780.222
1019.531, 2781.813
1020.013, 2782.032
1020.495, 2780.945
1020.977, 2780.131
1021.459, 2779.576
1021.942, 2779.341
1022.424, 2779.471
1022.906, 2779.931
1023.388, 2781.165
1023.870, 2782.628
1024.352, 2783.242
1024.834, 2781.733
1025.316, 2780.803
1025.799, 2780.941
1026.281, 2781.457
1026.763, 2781.431
1027.245, 2781.090
1027.727, 2782.306
1028.209, 2785.095
1028.691, 2787.042
1029.173, 2785.796
1029.656, 2783.746
1030.138, 2781.519
1030.620, 2779.728
1031.102, 2781.276
1031.584, 2787.302
1032.066, 2791.838
1032.548, 2793.138
1033.030, 2792.953
1033.512, 2793.364
1033.995, 2794.246
1034.477, 2795.518
1034.959, 2797.380
1035.441, 2798.718
1035.923, 2799.389
1036.405, 2799.291
1036.887, 2798.015
1037.369, 2795.812
1037.851, 2795.418
1038.334, 2796.545
1038.816, 2796.185
1039.298, 2790.243
1039.780, 2784.732
1040.262, 2784.848
1040.744, 2787.967
1041.226, 2788.587
1041.708, 2785.191
1042.191, 2783.355
1042.673, 2783.664
1043.155, 2784.800
1043.637, 2785.520
1044.119, 2786.055
1044.601, 2786.448
1045.083, 2786.781
1045.565, 2788.399
1046.047, 2795.217
1046.530, 2798.899
1047.012, 2794.975
1047.494, 2787.289
1047.976, 2787.192
1048.458, 2793.813
1048.940, 2800.449
1049.422, 2805.912
1049.904, 2808.878
1050.386, 2806.060
1050.869, 2801.679
1051.351, 2800.044
1051.833, 2801.601
1052.315, 2804.479
1052.797, 2809.068
1053.279, 2813.145
1053.761, 2814.317
1054.243, 2814.926
1054.726, 2820.612
1055.208, 2829.058
1055.690, 2834.170
1056.172, 2829.350
1056.654, 2827.220
1057.136, 2830.234
1057.618, 2835.500
1058.100, 2840.494
1058.583, 2844.965
1059.065, 2845.912
1059.547, 2843.257
1060.029, 2843.026
1060.511, 2851.954
1060.993, 2862.223
1061.475, 2868.830
1061.957, 2872.580
1062.439, 2876.888
1062.922, 2881.406
1063.404, 2889.248
1063.886, 2902.072
1064.368, 2915.659
1064.850, 2924.385
1065.332, 2930.922
1065.814, 2938.431
1066.296, 2946.857
1066.778, 2959.334
1067.261, 2978.307
1067.743, 2996.908
1068.225, 3010.349
1068.707, 3021.451
1069.189, 3040.059
1069.671, 3064.415
1070.153, 3088.034
1070.635, 3106.594
1071.118, 3125.667
1071.600, 3146.730
1072.082, 3169.509
1072.564, 3194.120
1073.046, 3220.618
1073.528, 3245.340
1074.010, 3267.886
1074.492, 3291.174
1074.974, 3317.937
1075.457, 3345.635
1075.939, 3372.152
1076.421, 3397.498
1076.903, 3422.881
1077.385, 3448.330
1077.867, 3473.142
1078.349, 3496.714
1078.831, 3520.469
1079.313, 3547.648
1079.796, 3575.849
1080.278, 3600.857
1080.760, 3622.270
1081.242, 3641.072
1081.724, 3659.214
1082.206, 3672.830
1082.688, 3681.461
1083.170, 3683.705
1083.652, 3673.972
1084.135, 3653.224
1084.617, 3627.202
1085.099, 3599.369
1085.581, 3562.579
1086.063, 3508.353
1086.545, 3446.076
1087.027, 3382.742
1087.509, 3318.618
1087.992, 3254.666
1088.474, 3190.489
1088.956, 3132.955
1089.438, 3088.180
1089.920, 3050.483
1090.402, 3013.445
1090.884, 2978.393
1091.366, 2948.243
1091.849, 2921.889
1092.331, 2903.721
1092.813, 2895.461
1093.295, 2891.066
1093.777, 2885.479
1094.259, 2879.005
1094.741, 2871.453
1095.223, 2863.208
1095.705, 2856.825
1096.188, 2855.032
1096.670, 2853.374
1097.152, 2850.933
1097.634, 2847.911
1098.116, 2844.203
1098.598, 2840.111
1099.080, 2836.949
1099.562, 2834.875
1100.044, 2834.646
1100.527, 2839.054
1101.009, 2843.449
1101.491, 2844.352
1101.973, 2842.391
1102.455, 2841.334
1102.937, 2841.188
1103.419, 2840.790
1103.901, 2839.654
1104.384, 2838.259
1104.866, 2835.986
1105.348, 2834.321
1105.830, 2835.506
1106.312, 2840.956
1106.794, 2844.124
1107.276, 2844.601
1107.758, 2844.113
1108.240, 2843.239
1108.723, 2842.363
1109.205, 2841.907
1109.687, 2842.016
1110.169, 2842.994
1110.651, 2846.307
1111.133, 2848.579
1111.615, 2849.702
1112.097, 2849.687
1112.579, 2847.980
1113.062, 2845.199
1113.544, 2843.526
1114.026, 2842.948
1114.508, 2842.926
1114.990, 2844.275
1115.472, 2844.768
1115.954, 2842.421
1116.436, 2839.655
1116.919, 2840.854
1117.401, 2845.656
1117.883, 2848.064
1118.365, 2847.340
1118.847, 2845.841
1119.329, 2843.991
1119.811, 2843.159
1120.293, 2845.392
1120.776, 2849.548
1121.258, 2850.858
1121.740, 2848.968
1122.222, 2847.459
1122.704, 2847.289
1123.186, 2847.175
1123.668, 2845.591
1124.150, 2843.438
1124.632, 2841.657
1125.115, 2840.433
1125.597, 2839.264
1126.079, 2837.841
1126.561, 2837.698
1127.043, 2839.802
1127.525, 2842.990
1128.007, 2845.914
1128.489, 2848.370
1128.971, 2850.070
1129.454, 2851.321
1129.936, 2850.347
1130.418, 2845.402
1130.900, 2841.495
1131.382, 2842.634
1131.864, 2846.507
1132.346, 2845.290
1132.828, 2840.805
1133.311, 2838.875
1133.793, 2844.720
1134.275, 2849.394
1134.757, 2850.618
1135.239, 2850.355
1135.721, 2850.112
1136.203, 2849.841
1136.685, 2848.841
1137.167, 2847.251
1137.650, 2846.429
1138.132, 2847.265
1138.614, 2848.934
1139.096, 2852.563
1139.578, 2856.000
1140.060, 2855.776
1140.542, 2851.838
1141.024, 2848.524
1141.506, 2846.185
1141.989, 2844.809
1142.471, 2844.664
1142.953, 2845.219
1143.435, 2846.900
1143.917, 2848.922
1144.399, 2848.444
1144.881, 2844.914
1145.363, 2843.476
1145.846, 2845.327
1146.328, 2847.597
1146.810, 2847.158
1147.292, 2845.905
1147.774, 2845.433
1148.256, 2845.973
1148.738, 2847.562
1149.220, 2850.423
1149.703, 2853.664
1150.185, 2857.561
1150.667, 2860.215
1151.149, 2856.959
1151.631, 2851.970
1152.113, 2851.511
1152.595, 2857.365
1153.077, 2861.706
1153.559, 2864.141
1154.042, 2864.464
1154.524, 2861.504
1155.006, 2857.930
1155.488, 2860.007
1155.970, 2864.811
1156.452, 2866.298
1156.934, 2861.402
1157.416, 2858.114
1157.898, 2857.965
1158.381, 2858.370
1158.863, 2857.992
1159.345, 2857.103
1159.827, 2856.644
1160.309, 2856.348
1160.791, 2855.460
1161.273, 2853.795
1161.755, 2851.344
1162.238, 2846.585
1162.720, 2843.254
1163.202, 2845.117
1163.684, 2850.950
1164.166, 2854.483
1164.648, 2855.961
1165.130, 2856.332
1165.612, 2854.967
1166.094, 2853.874
1166.577, 2853.317
1167.059, 2853.519
1167.541, 2854.982
1168.023, 2857.494
1168.505, 2859.753
1168.987, 2861.606
1169.469, 2862.463
1169.951, 2860.242
1170.433, 2858.879
1170.916, 2861.607
1171.398, 2865.274
1171.880, 2865.683
1172.362, 2863.018
1172.844, 2860.074
1173.326, 2857.138
1173.808, 2854.876
1174.290, 2853.630
1174.773, 2853.445
1175.255, 2855.357
1175.737, 2858.058
1176.219, 2859.271
1176.701, 2859.026
1177.183, 2856.310
1177.665, 2850.766
1178.147, 2846.637
1178.630, 2849.347
1179.112, 2852.742
1179.594, 2851.458
1180.076, 2847.297
1180.558, 2846.614
1181.040, 2849.573
1181.522, 2852.488
1182.004, 2854.720
1182.486, 2856.169
1182.969, 2855.986
1183.451, 2855.545
1183.933, 2856.336
1184.415, 2858.026
1184.897, 2858.087
1185.379, 2856.344
1185.861, 2854.535
1186.343, 2852.901
1186.825, 2852.268
1187.308, 2855.426
1187.790, 2858.613
1188.272, 2857.186
1188.754, 2851.243
1189.236, 2848.789
1189.718, 2850.253
1190.200, 2851.958
1190.682, 2852.964
1191.165, 2853.235
1191.647, 2852.095
1192.129, 2850.613
1192.611, 2849.750
1193.093, 2849.570
1193.575, 2851.177
1194.057, 2855.013
1194.539, 2856.824
1195.021, 2853.590
1195.504, 2850.345
1195.986, 2854.048
1196.468, 2860.439
1196.950, 2863.978
1197.432, 2863.724
1197.914, 2863.322
1198.396, 2862.799
1198.878, 2861.740
1199.360, 2859.552
1199.843, 2857.384
1200.325, 2856.878
1200.807, 2857.187
1201.289, 2857.071
1201.771, 2856.229
1202.253, 2856.087
1202.735, 2856.831
1203.217, 2857.345
1203.700, 2856.806
1204.182, 2856.015
1204.664, 2856.179
1205.146, 2856.618
1205.628, 2856.035
1206.110, 2853.618
1206.592, 2852.475
1207.074, 2852.621
1207.557, 2853.662
1208.039, 2856.289
1208.521, 2858.697
1209.003, 2857.233
1209.485, 2854.587
1209.967, 2856.304
1210.449, 2866.063
1210.931, 2869.999
1211.413, 2867.437
1211.896, 2863.338
1212.378, 2859.926
1212.860, 2857.838
1213.342, 2858.825
1213.824, 2861.451
1214.306, 2862.667
1214.788, 2861.702
1215.270, 2861.628
1215.752, 2862.696
1216.235, 2863.263
1216.717, 2862.185
1217.199, 2859.958
1217.681, 2856.021
1218.163, 2851.567
1218.645, 2849.538
1219.127, 2850.883
1219.609, 2851.006
1220.092, 2849.614
1220.574, 2848.054
1221.056, 2847.149
1221.538, 2846.781
1222.020, 2847.082
1222.502, 2847.779
1222.984, 2848.146
1223.466, 2847.877
1223.948, 2848.844
1224.431, 2851.263
1224.913, 2853.378
1225.395, 2854.265
1225.877, 2853.779
1226.359, 2850.678
1226.841, 2846.372
1227.323, 2844.243
1227.805, 2844.600
1228.287, 2845.327
1228.770, 2846.305
1229.252, 2847.081
1229.734, 2847.206
1230.216, 2847.046
1230.698, 2846.518
1231.180, 2845.989
1231.662, 2846.387
1232.144, 2847.809
1232.627, 2848.310
1233.109, 2847.688
1233.591, 2847.359
1234.073, 2849.492
1234.555, 2851.175
1235.037, 2850.018
1235.519, 2847.276
1236.001, 2845.013
1236.484, 2843.270
1236.966, 2843.504
1237.448, 2845.839
1237.930, 2846.389
1238.412, 2839.183
1238.894, 2833.003
1239.376, 2834.495
1239.858, 2839.338
1240.340, 2840.344
1240.823, 2837.950
1241.305, 2838.150
1241.787, 2841.366
1242.269, 2843.148
1242.751, 2838.042
1243.233, 2834.131
1243.715, 2836.086
1244.197, 2840.209
1244.679, 2840.268
1245.162, 2837.261
1245.644, 2836.848
1246.126, 2839.357
1246.608, 2841.272
1247.090, 2839.135
1247.572, 2838.355
1248.054, 2841.464
1248.536, 2845.458
1249.019, 2844.809
1249.501, 2841.265
1249.983, 2840.774
1250.465, 2843.581
1250.947, 2846.207
1251.429, 2848.112
1251.911, 2847.999
1252.393, 2844.882
1252.875, 2841.032
1253.358, 2839.479
1253.840, 2839.536
1254.322, 2840.322
1254.804, 2841.489
1255.286, 2840.867
1255.768, 2836.949
1256.250, 2832.518
1256.732, 2827.390
1257.214, 2823.587
1257.697, 2824.592
1258.179, 2828.059
1258.661, 2831.319
1259.143, 2833.767
1259.625, 2832.332
1260.107, 2824.071
1260.589, 2819.599
1261.071, 2820.967
1261.554, 2824.122
1262.036, 2825.694
1262.518, 2825.905
1263.000, 2824.620
1263.482, 2822.101
1263.964, 2819.478
1264.446, 2816.447
1264.928, 2814.925
1265.411, 2815.268
1265.893, 2816.115
1266.375, 2815.934
1266.857, 2815.967
1267.339, 2817.548
1267.821, 2820.210
1268.303, 2822.711
1268.785, 2825.218
1269.267, 2825.005
1269.750, 2821.708
1270.232, 2818.126
1270.714, 2816.406
1271.196, 2815.012
1271.678, 2813.065
1272.160, 2810.790
1272.642, 2807.906
1273.124, 2804.673
1273.606, 2805.281
1274.089, 2809.809
1274.571, 2813.543
1275.053, 2814.449
1275.535, 2812.884
1276.017, 2808.035
1276.499, 2802.128
1276.981, 2797.577
1277.463, 2794.480
1277.946, 2793.687
1278.428, 2794.935
1278.910, 2796.061
1279.392, 2796.011
1279.874, 2795.944
1280.356, 2796.527
1280.838, 2796.240
1281.320, 2792.219
1281.802, 2786.581
1282.285, 2784.054
1282.767, 2784.099
1283.249, 2783.595
1283.731, 2781.301
1284.213, 2779.238
1284.695, 2777.531
1285.177, 2776.248
1285.659, 2775.498
1286.141, 2775.201
1286.624, 2775.897
1287.106, 2776.918
1287.588, 2776.315
1288.070, 2773.754
1288.552, 2770.636
1289.034, 2766.948
1289.516, 2763.966
1289.998, 2763.332
1290.481, 2763.121
1290.963, 2761.713
1291.445, 2759.674
1291.927, 2757.896
1292.409, 2756.318
1292.891, 2755.945
1293.373, 2756.685
1293.855, 2756.691
1294.338, 2754.129
1294.820, 2751.409
1295.302, 2749.000
1295.784, 2747.623
1296.266, 2748.741
1296.748, 2751.771
1297.230, 2751.900
1297.712, 2749.994
1298.194, 2749.391
1298.677, 2752.964
1299.159, 2754.356
1299.641, 2751.741
1300.123, 2748.582
1300.605, 2747.990
1301.087, 2748.306
1301.569, 2744.805
1302.051, 2738.508
1302.533, 2731.808
1303.016, 2723.083
##END=



