##NAMES=Haiweeite
##RRUFFID=R061051
##IDEAL CHEMISTRY=Ca(U^6+^O_2_)_2_Si_5_O_12_(OH)_2_&#183;6H_2_O
##LOCALITY=Teofoli Otoni, Minas Gerais, Brazil
##OWNER=RRUFF
##SOURCE=Michael Scott
##DESCRIPTION=Spherical aggregates of yellow acicular crystals with albite, uranophane, calcite, quartz, and muscovite
##STATUS=The identification of this mineral has been confirmed by single-crystal X-ray diffraction.
##URL=rruff.info/R061051
145.6288, 44226.36
146.1110, 44589.11
146.5931, 44899.54
147.0752, 45151.00
147.5573, 45382.98
148.0394, 45593.62
148.5215, 45782.16
149.0037, 45950.90
149.4858, 46101.27
149.9679, 46227.63
150.4500, 46330.96
150.9321, 46416.86
151.4142, 46470.73
151.8964, 46469.74
152.3785, 46440.05
152.8606, 46437.66
153.3427, 46510.76
153.8248, 46583.27
154.3069, 46623.31
154.7890, 46581.93
155.2712, 46575.87
155.7533, 46624.96
156.2354, 46724.54
156.7175, 46853.72
157.1996, 47022.60
157.6817, 47212.47
158.1639, 47411.56
158.6460, 47615.84
159.1281, 47826.76
159.6102, 48049.80
160.0923, 48280.67
160.5744, 48495.06
161.0566, 48668.28
161.5387, 48822.87
162.0208, 48979.02
162.5029, 49136.73
162.9850, 49298.10
163.4671, 49475.81
163.9493, 49669.05
164.4314, 49831.62
164.9135, 49915.20
165.3956, 49961.01
165.8777, 50022.86
166.3598, 50159.10
166.8420, 50296.64
167.3241, 50391.80
167.8062, 50442.50
168.2883, 50455.01
168.7704, 50395.79
169.2525, 50304.32
169.7346, 50253.96
170.2168, 50317.44
170.6989, 50422.90
171.1810, 50499.63
171.6631, 50529.64
172.1452, 50560.49
172.6273, 50646.51
173.1095, 50768.99
173.5916, 50875.35
174.0737, 50914.41
174.5558, 50924.60
175.0379, 50959.32
175.5201, 51034.58
176.0022, 51123.96
176.4843, 51191.47
176.9664, 51242.15
177.4485, 51306.13
177.9306, 51420.49
178.4128, 51560.86
178.8949, 51679.13
179.3770, 51748.25
179.8591, 51806.70
180.3412, 51918.88
180.8233, 52082.75
181.3055, 52250.54
181.7876, 52380.33
182.2697, 52482.54
182.7518, 52593.07
183.2339, 52724.79
183.7160, 52868.63
184.1982, 53002.36
184.6803, 53125.13
185.1624, 53245.58
185.6445, 53371.05
186.1266, 53500.45
186.6087, 53638.08
187.0908, 53804.18
187.5730, 53977.50
188.0551, 54078.63
188.5372, 54101.70
189.0193, 54089.16
189.5014, 54087.60
189.9835, 54095.99
190.4657, 54099.23
190.9478, 54094.77
191.4299, 54081.82
191.9120, 54052.26
192.3941, 54004.63
192.8762, 53946.99
193.3584, 53889.80
193.8405, 53833.81
194.3226, 53776.06
194.8047, 53717.31
195.2868, 53657.79
195.7689, 53594.92
196.2511, 53530.85
196.7332, 53459.96
197.2153, 53358.33
197.6974, 53219.15
198.1795, 53111.15
198.6616, 53084.88
199.1438, 53144.05
199.6259, 53189.01
200.1080, 53223.32
200.5901, 53232.27
201.0722, 53160.94
201.5543, 52987.16
202.0364, 52833.41
202.5186, 52782.52
203.0007, 52846.32
203.4828, 52891.71
203.9649, 52900.22
204.4470, 52885.79
204.9291, 52894.36
205.4113, 52930.80
205.8934, 52967.91
206.3755, 52987.13
206.8576, 52984.66
207.3397, 52982.41
207.8218, 52992.40
208.3040, 53002.53
208.7861, 52952.43
209.2682, 52819.56
209.7503, 52684.51
210.2324, 52610.92
210.7145, 52617.81
211.1967, 52624.39
211.6788, 52625.08
212.1609, 52620.41
212.6430, 52605.56
213.1251, 52580.70
213.6072, 52549.42
214.0894, 52509.76
214.5715, 52452.48
215.0536, 52413.58
215.5357, 52395.71
216.0178, 52398.32
216.4999, 52430.58
216.9820, 52499.58
217.4642, 52582.20
217.9463, 52660.26
218.4284, 52731.42
218.9105, 52795.83
219.3926, 52855.12
219.8747, 52907.86
220.3569, 52940.53
220.8390, 52951.05
221.3211, 52944.63
221.8032, 52923.74
222.2853, 52881.04
222.7674, 52844.75
223.2496, 52820.93
223.7317, 52810.63
224.2138, 52816.51
224.6959, 52851.65
225.1780, 52892.26
225.6601, 52907.78
226.1423, 52868.50
226.6244, 52866.49
227.1065, 52936.70
227.5886, 53089.84
228.0707, 53191.22
228.5528, 53217.16
229.0350, 53210.56
229.5171, 53223.02
229.9992, 53267.96
230.4813, 53303.97
230.9634, 53316.44
231.4455, 53299.90
231.9276, 53301.11
232.4098, 53329.71
232.8919, 53368.73
233.3740, 53394.30
233.8561, 53395.16
234.3382, 53405.10
234.8203, 53444.84
235.3025, 53529.98
235.7846, 53549.94
236.2667, 53467.65
236.7488, 53348.61
237.2309, 53282.30
237.7130, 53289.13
238.1952, 53316.97
238.6773, 53359.36
239.1594, 53424.13
239.6415, 53462.58
240.1236, 53458.48
240.6057, 53440.05
241.0879, 53454.41
241.5700, 53542.73
242.0521, 53593.08
242.5342, 53552.75
243.0163, 53382.71
243.4984, 53307.61
243.9806, 53363.86
244.4627, 53489.34
244.9448, 53594.22
245.4269, 53677.84
245.9090, 53736.42
246.3911, 53763.00
246.8732, 53747.04
247.3554, 53736.85
247.8375, 53731.51
248.3196, 53730.15
248.8017, 53733.24
249.2838, 53745.61
249.7659, 53754.48
250.2481, 53759.80
250.7302, 53766.90
251.2123, 53753.50
251.6944, 53716.61
252.1765, 53666.27
252.6586, 53612.71
253.1408, 53544.95
253.6229, 53501.50
254.1050, 53505.15
254.5871, 53574.40
255.0692, 53604.19
255.5513, 53579.32
256.0334, 53528.46
256.5156, 53489.84
256.9977, 53452.76
257.4798, 53448.56
257.9619, 53495.02
258.4440, 53605.14
258.9261, 53686.02
259.4083, 53718.16
259.8904, 53735.31
260.3725, 53793.64
260.8546, 53915.33
261.3367, 54026.01
261.8188, 54101.10
262.3010, 54136.75
262.7831, 54157.11
263.2652, 54156.20
263.7473, 54144.62
264.2294, 54137.64
264.7115, 54136.22
265.1937, 54136.64
265.6758, 54145.02
266.1579, 54165.85
266.6400, 54142.16
267.1221, 54054.06
267.6042, 53948.48
268.0864, 53900.29
268.5685, 53932.53
269.0506, 53952.29
269.5327, 53927.22
270.0148, 53855.32
270.4969, 53796.37
270.9791, 53758.26
271.4612, 53723.16
271.9433, 53659.44
272.4254, 53554.98
272.9075, 53477.51
273.3896, 53453.76
273.8718, 53483.72
274.3539, 53516.16
274.8360, 53550.30
275.3181, 53588.65
275.8002, 53637.07
276.2823, 53697.47
276.7645, 53751.71
277.2466, 53792.66
277.7287, 53820.59
278.2108, 53854.36
278.6929, 53900.10
279.1750, 53932.51
279.6572, 53908.05
280.1393, 53819.26
280.6214, 53754.92
281.1035, 53744.28
281.5856, 53779.68
282.0677, 53821.32
282.5499, 53873.18
283.0320, 53914.52
283.5141, 53911.90
283.9962, 53865.11
284.4783, 53840.46
284.9604, 53869.13
285.4425, 53933.57
285.9247, 53952.71
286.4068, 53922.19
286.8889, 53881.00
287.3710, 53871.04
287.8531, 53889.33
288.3352, 53895.71
288.8174, 53875.56
289.2995, 53838.93
289.7816, 53808.56
290.2637, 53784.02
290.7458, 53776.17
291.2279, 53809.78
291.7101, 53874.25
292.1922, 53911.96
292.6743, 53894.80
293.1564, 53855.34
293.6385, 53872.68
294.1206, 53945.86
294.6028, 54011.92
295.0849, 54009.86
295.5670, 53960.96
296.0491, 53931.30
296.5312, 53940.43
297.0133, 53971.80
297.4955, 53995.79
297.9776, 54015.72
298.4597, 54054.69
298.9418, 54139.34
299.4239, 54254.64
299.9060, 54369.76
300.3882, 54479.76
300.8703, 54582.23
301.3524, 54664.17
301.8345, 54728.90
302.3166, 54797.19
302.7987, 54890.88
303.2809, 54990.89
303.7630, 55070.93
304.2451, 55122.30
304.7272, 55155.14
305.2093, 55160.70
305.6914, 55149.88
306.1736, 55158.68
306.6557, 55241.37
307.1378, 55338.76
307.6199, 55391.29
308.1020, 55394.42
308.5841, 55347.52
309.0663, 55219.00
309.5484, 55040.82
310.0305, 54883.84
310.5126, 54803.50
310.9947, 54744.23
311.4768, 54663.38
311.9590, 54555.38
312.4411, 54440.09
312.9232, 54320.20
313.4053, 54202.60
313.8874, 54100.09
314.3695, 54036.28
314.8517, 53972.30
315.3337, 53878.31
315.8159, 53749.35
316.2980, 53634.08
316.7801, 53556.79
317.2622, 53503.11
317.7443, 53455.74
318.2264, 53422.28
318.7086, 53384.35
319.1907, 53323.83
319.6728, 53241.11
320.1549, 53188.51
320.6370, 53211.40
321.1191, 53256.69
321.6013, 53279.26
322.0834, 53243.31
322.5655, 53208.64
323.0476, 53193.79
323.5297, 53195.27
324.0118, 53180.05
324.4940, 53093.49
324.9761, 53018.12
325.4582, 53005.17
325.9403, 53163.91
326.4224, 53264.91
326.9045, 53261.24
327.3867, 53172.11
327.8688, 53101.16
328.3509, 53012.90
328.8330, 52972.96
329.3151, 53015.70
329.7972, 53275.61
330.2794, 53417.16
330.7615, 53382.75
331.2436, 53234.75
331.7257, 53143.21
332.2078, 53138.50
332.6899, 53151.52
333.1721, 53154.75
333.6542, 53137.58
334.1363, 53146.91
334.6184, 53209.77
335.1005, 53283.53
335.5826, 53282.63
336.0648, 53160.70
336.5469, 53065.93
337.0290, 53059.71
337.5111, 53156.71
337.9932, 53201.41
338.4753, 53172.55
338.9575, 53120.72
339.4396, 53117.02
339.9217, 53174.73
340.4038, 53210.68
340.8859, 53192.75
341.3680, 53128.55
341.8502, 53089.67
342.3323, 53081.74
342.8144, 53083.78
343.2965, 53076.35
343.7786, 53060.46
344.2607, 53047.81
344.7429, 53045.68
345.2250, 53048.97
345.7071, 53027.40
346.1892, 52978.79
346.6713, 52958.02
347.1534, 53037.05
347.6355, 53189.23
348.1176, 53289.21
348.5998, 53300.32
349.0819, 53272.36
349.5640, 53289.06
350.0461, 53343.45
350.5282, 53390.37
351.0103, 53385.15
351.4925, 53353.68
351.9746, 53348.69
352.4567, 53380.77
352.9388, 53422.14
353.4209, 53446.31
353.9030, 53456.95
354.3852, 53464.13
354.8673, 53486.50
355.3494, 53503.21
355.8315, 53487.53
356.3136, 53436.88
356.7957, 53383.56
357.2779, 53339.39
357.7600, 53311.85
358.2421, 53311.80
358.7242, 53383.83
359.2063, 53453.06
359.6884, 53460.77
360.1706, 53408.69
360.6527, 53370.29
361.1348, 53374.08
361.6169, 53409.15
362.0990, 53465.11
362.5811, 53577.43
363.0633, 53669.61
363.5454, 53710.71
364.0275, 53707.61
364.5096, 53697.00
364.9917, 53674.59
365.4738, 53656.41
365.9560, 53652.25
366.4381, 53675.82
366.9202, 53696.70
367.4023, 53712.05
367.8844, 53724.02
368.3665, 53736.75
368.8487, 53754.60
369.3308, 53771.04
369.8129, 53783.53
370.2950, 53789.96
370.7771, 53798.29
371.2592, 53800.00
371.7414, 53807.97
372.2235, 53843.63
372.7056, 53931.95
373.1877, 54001.29
373.6698, 54022.46
374.1519, 53992.59
374.6341, 54000.76
375.1162, 54067.63
375.5983, 54136.09
376.0804, 54144.67
376.5625, 54077.24
377.0446, 54022.82
377.5267, 54001.63
378.0089, 54004.90
378.4910, 53999.91
378.9731, 53988.00
379.4552, 53966.45
379.9373, 53932.47
380.4194, 53887.41
380.9016, 53839.57
381.3837, 53788.46
381.8658, 53741.19
382.3479, 53704.89
382.8300, 53681.23
383.3121, 53679.05
383.7943, 53726.20
384.2764, 53796.84
384.7585, 53817.20
385.2406, 53775.70
385.7227, 53729.14
386.2048, 53752.95
386.6870, 53818.73
387.1691, 53860.91
387.6512, 53811.46
388.1333, 53743.39
388.6154, 53743.39
389.0975, 53807.39
389.5797, 53875.55
390.0618, 53928.37
390.5439, 53954.04
391.0260, 53935.38
391.5081, 53836.07
391.9902, 53734.27
392.4724, 53678.45
392.9545, 53659.05
393.4366, 53638.27
393.9187, 53576.71
394.4008, 53528.64
394.8829, 53535.41
395.3651, 53639.55
395.8472, 53715.05
396.3293, 53706.48
396.8114, 53653.79
397.2935, 53621.31
397.7756, 53649.63
398.2578, 53669.36
398.7399, 53645.84
399.2220, 53558.14
399.7041, 53525.92
400.1862, 53594.31
400.6683, 53688.98
401.1505, 53744.22
401.6326, 53741.79
402.1147, 53728.43
402.5968, 53700.54
403.0789, 53664.27
403.5610, 53665.75
404.0432, 53724.58
404.5253, 53787.68
405.0074, 53821.87
405.4895, 53821.85
405.9716, 53815.11
406.4537, 53792.30
406.9359, 53776.67
407.4180, 53830.97
407.9001, 53964.92
408.3822, 54081.19
408.8643, 54123.53
409.3464, 54102.88
409.8285, 54103.62
410.3106, 54127.75
410.7928, 54163.09
411.2749, 54197.77
411.7570, 54233.07
412.2391, 54272.85
412.7212, 54318.43
413.2033, 54369.79
413.6855, 54433.61
414.1676, 54506.80
414.6497, 54567.13
415.1318, 54580.44
415.6139, 54575.39
416.0960, 54595.45
416.5782, 54662.82
417.0603, 54723.56
417.5424, 54723.34
418.0245, 54683.59
418.5066, 54653.51
418.9887, 54671.08
419.4709, 54692.58
419.9530, 54690.07
420.4351, 54658.44
420.9172, 54623.96
421.3993, 54587.01
421.8814, 54557.58
422.3636, 54546.05
422.8457, 54564.67
423.3278, 54593.06
423.8099, 54647.93
424.2920, 54724.80
424.7741, 54745.73
425.2563, 54653.14
425.7384, 54549.33
426.2205, 54487.80
426.7026, 54492.38
427.1847, 54494.21
427.6668, 54485.75
428.1490, 54476.10
428.6311, 54487.71
429.1132, 54531.09
429.5953, 54568.27
430.0774, 54579.31
430.5595, 54562.79
431.0417, 54571.07
431.5238, 54611.21
432.0059, 54656.87
432.4880, 54671.86
432.9701, 54656.73
433.4522, 54666.16
433.9344, 54731.25
434.4165, 54814.64
434.8986, 54809.96
435.3807, 54722.12
435.8628, 54647.92
436.3449, 54677.72
436.8271, 54768.90
437.3092, 54828.49
437.7913, 54841.62
438.2734, 54832.87
438.7555, 54810.20
439.2376, 54783.36
439.7197, 54774.12
440.2018, 54806.24
440.6840, 54849.21
441.1661, 54872.14
441.6482, 54874.31
442.1303, 54893.77
442.6124, 54980.01
443.0945, 55076.93
443.5767, 55132.84
444.0588, 55109.66
444.5409, 55075.86
445.0230, 55028.58
445.5051, 54981.35
445.9872, 54977.07
446.4694, 55093.86
446.9515, 55193.81
447.4336, 55211.91
447.9157, 55100.00
448.3978, 55058.92
448.8799, 55141.09
449.3621, 55260.48
449.8442, 55307.57
450.3263, 55237.16
450.8084, 55199.01
451.2905, 55237.65
451.7726, 55335.85
452.2548, 55374.65
452.7369, 55333.95
453.2190, 55293.79
453.7011, 55318.66
454.1832, 55407.38
454.6653, 55483.03
455.1475, 55543.06
455.6296, 55578.39
456.1117, 55561.59
456.5938, 55500.15
457.0759, 55445.48
457.5580, 55419.93
458.0402, 55418.99
458.5223, 55440.93
459.0044, 55486.04
459.4865, 55532.47
459.9686, 55573.46
460.4507, 55602.73
460.9329, 55609.02
461.4150, 55572.10
461.8971, 55537.68
462.3792, 55533.83
462.8613, 55555.36
463.3434, 55588.19
463.8256, 55634.38
464.3077, 55683.80
464.7898, 55733.67
465.2719, 55785.56
465.7540, 55827.39
466.2361, 55833.18
466.7183, 55837.99
467.2004, 55877.95
467.6825, 56007.30
468.1646, 56107.65
468.6467, 56155.23
469.1288, 56158.17
469.6110, 56172.88
470.0930, 56210.15
470.5752, 56239.30
471.0573, 56237.43
471.5394, 56190.41
472.0215, 56173.45
472.5036, 56191.18
472.9857, 56231.34
473.4679, 56293.14
473.9500, 56377.69
474.4321, 56415.75
474.9142, 56366.14
475.3963, 56262.58
475.8784, 56196.45
476.3606, 56168.58
476.8427, 56158.00
477.3248, 56161.78
477.8069, 56171.29
478.2890, 56163.31
478.7711, 56125.91
479.2533, 56100.39
479.7354, 56134.07
480.2175, 56207.58
480.6996, 56279.98
481.1817, 56328.56
481.6638, 56370.93
482.1460, 56416.10
482.6281, 56462.65
483.1102, 56505.96
483.5923, 56530.71
484.0744, 56555.08
484.5565, 56592.16
485.0387, 56661.71
485.5208, 56716.16
486.0029, 56745.47
486.4850, 56755.91
486.9671, 56762.64
487.4492, 56776.04
487.9314, 56771.63
488.4135, 56736.89
488.8956, 56670.13
489.3777, 56623.26
489.8598, 56602.21
490.3419, 56594.98
490.8241, 56592.83
491.3062, 56597.48
491.7883, 56600.69
492.2704, 56596.34
492.7525, 56598.77
493.2346, 56656.48
493.7168, 56761.43
494.1989, 56835.80
494.6810, 56806.87
495.1631, 56723.63
495.6452, 56676.54
496.1273, 56669.46
496.6095, 56683.31
497.0916, 56723.70
497.5737, 56768.27
498.0558, 56784.50
498.5379, 56727.75
499.0201, 56685.18
499.5022, 56725.34
499.9843, 56821.84
500.4664, 56898.21
500.9485, 56911.87
501.4306, 56914.04
501.9127, 56930.52
502.3948, 56971.29
502.8770, 56993.95
503.3591, 56967.61
503.8412, 56937.79
504.3233, 56944.27
504.8054, 57005.27
505.2875, 57066.27
505.7697, 57120.37
506.2518, 57168.82
506.7339, 57219.44
507.2160, 57276.13
507.6981, 57317.74
508.1802, 57320.14
508.6624, 57287.48
509.1445, 57303.33
509.6266, 57375.26
510.1087, 57459.79
510.5908, 57511.36
511.0729, 57537.07
511.5551, 57560.62
512.0372, 57591.08
512.5193, 57620.61
513.0014, 57638.75
513.4835, 57647.84
513.9656, 57654.11
514.4478, 57650.89
514.9299, 57652.49
515.4120, 57667.99
515.8941, 57697.27
516.3762, 57742.13
516.8583, 57823.64
517.3405, 57909.07
517.8226, 57968.32
518.3047, 57949.39
518.7868, 57956.34
519.2689, 58029.08
519.7510, 58140.00
520.2332, 58204.94
520.7153, 58197.61
521.1974, 58181.25
521.6795, 58175.52
522.1616, 58180.80
522.6437, 58198.52
523.1259, 58232.75
523.6080, 58271.76
524.0901, 58306.53
524.5722, 58337.52
525.0543, 58356.28
525.5364, 58355.11
526.0186, 58352.55
526.5007, 58392.15
526.9828, 58464.52
527.4649, 58522.02
527.9470, 58537.65
528.4291, 58523.46
528.9113, 58480.60
529.3934, 58410.52
529.8755, 58362.14
530.3576, 58388.64
530.8397, 58442.17
531.3218, 58476.05
531.8040, 58470.22
532.2861, 58458.05
532.7682, 58460.98
533.2503, 58464.98
533.7324, 58442.36
534.2145, 58333.77
534.6967, 58258.99
535.1788, 58260.89
535.6609, 58341.64
536.1430, 58396.63
536.6251, 58426.61
537.1072, 58430.02
537.5894, 58386.77
538.0715, 58279.35
538.5536, 58252.59
539.0357, 58332.88
539.5178, 58464.29
539.9999, 58563.00
540.4821, 58630.01
540.9642, 58698.81
541.4463, 58796.71
541.9284, 58892.72
542.4105, 58912.41
542.8926, 58866.26
543.3748, 58835.81
543.8569, 58906.51
544.3390, 59005.44
544.8211, 59050.29
545.3032, 59017.59
545.7853, 58985.22
546.2675, 58998.82
546.7495, 59032.45
547.2316, 59055.44
547.7137, 59031.91
548.1959, 59030.22
548.6780, 59083.21
549.1601, 59176.60
549.6422, 59239.97
550.1243, 59271.68
550.6064, 59275.90
551.0886, 59241.48
551.5707, 59157.01
552.0528, 59136.11
552.5349, 59199.66
553.0170, 59277.62
553.4991, 59297.63
553.9813, 59261.58
554.4634, 59202.60
554.9455, 59109.59
555.4276, 59028.34
555.9097, 59060.82
556.3918, 59179.51
556.8740, 59276.57
557.3561, 59275.85
557.8382, 59239.57
558.3203, 59230.45
558.8024, 59249.47
559.2845, 59271.45
559.7667, 59267.03
560.2488, 59270.22
560.7309, 59313.29
561.2130, 59440.58
561.6951, 59531.04
562.1772, 59529.27
562.6594, 59486.66
563.1415, 59480.50
563.6236, 59528.55
564.1057, 59584.74
564.5878, 59642.89
565.0699, 59701.24
565.5521, 59755.23
566.0342, 59802.95
566.5163, 59851.27
566.9984, 59907.77
567.4805, 59970.78
567.9626, 60023.54
568.4448, 60065.98
568.9269, 60100.67
569.4090, 60128.50
569.8911, 60151.31
570.3732, 60174.11
570.8553, 60198.28
571.3375, 60222.94
571.8196, 60251.64
572.3017, 60280.12
572.7838, 60297.17
573.2659, 60299.76
573.7480, 60288.08
574.2302, 60243.10
574.7123, 60163.05
575.1944, 60136.52
575.6765, 60244.63
576.1586, 60360.98
576.6407, 60414.00
577.1229, 60368.74
577.6050, 60339.80
578.0871, 60331.77
578.5692, 60337.39
579.0513, 60345.44
579.5334, 60355.54
580.0156, 60375.26
580.4977, 60401.80
580.9798, 60443.61
581.4619, 60547.55
581.9440, 60703.55
582.4261, 60816.88
582.9083, 60780.18
583.3904, 60682.75
583.8725, 60651.08
584.3546, 60692.21
584.8367, 60761.88
585.3188, 60852.17
585.8010, 60946.10
586.2831, 61028.43
586.7652, 61102.60
587.2473, 61152.39
587.7294, 61160.47
588.2115, 61144.23
588.6937, 61135.83
589.1758, 61146.85
589.6579, 61152.32
590.1400, 61145.80
590.6221, 61129.29
591.1042, 61117.90
591.5864, 61115.09
592.0685, 61107.95
592.5506, 61075.94
593.0327, 61025.09
593.5148, 61033.93
593.9969, 61113.51
594.4791, 61195.35
594.9612, 61197.03
595.4433, 61149.03
595.9254, 61119.53
596.4075, 61138.26
596.8896, 61157.10
597.3718, 61124.89
597.8539, 61064.43
598.3360, 61022.05
598.8181, 61034.93
599.3002, 61051.39
599.7823, 61047.48
600.2645, 61023.45
600.7466, 61005.82
601.2287, 60963.77
601.7108, 60960.95
602.1929, 61035.37
602.6750, 61209.72
603.1572, 61371.74
603.6393, 61534.04
604.1214, 61662.13
604.6035, 61694.79
605.0856, 61635.32
605.5677, 61622.46
606.0499, 61697.32
606.5320, 61802.21
607.0141, 61844.59
607.4962, 61838.70
607.9783, 61833.54
608.4604, 61846.08
608.9425, 61874.58
609.4246, 61928.00
609.9067, 62001.68
610.3889, 62060.14
610.8710, 62075.59
611.3531, 62080.15
611.8352, 62094.07
612.3173, 62127.09
612.7994, 62148.57
613.2816, 62164.84
613.7637, 62165.63
614.2458, 62134.94
614.7279, 62054.02
615.2100, 62005.79
615.6921, 62001.84
616.1743, 62034.24
616.6564, 62106.89
617.1385, 62217.70
617.6206, 62287.80
618.1027, 62248.93
618.5848, 62171.35
619.0670, 62207.32
619.5491, 62337.23
620.0312, 62436.28
620.5133, 62374.99
620.9954, 62278.43
621.4775, 62264.20
621.9597, 62356.72
622.4418, 62443.86
622.9239, 62490.72
623.4060, 62512.23
623.8881, 62520.87
624.3702, 62518.33
624.8524, 62499.12
625.3345, 62448.73
625.8166, 62390.09
626.2987, 62370.06
626.7808, 62400.95
627.2629, 62415.02
627.7451, 62392.19
628.2272, 62341.70
628.7093, 62282.16
629.1914, 62215.24
629.6735, 62160.04
630.1556, 62151.43
630.6378, 62153.50
631.1199, 62109.42
631.6020, 62017.71
632.0841, 61923.81
632.5662, 61849.00
633.0483, 61789.32
633.5305, 61740.72
634.0126, 61701.93
634.4947, 61678.66
634.9768, 61709.00
635.4589, 61738.76
635.9410, 61698.29
636.4232, 61542.60
636.9053, 61406.04
637.3874, 61307.96
637.8695, 61238.48
638.3516, 61180.14
638.8337, 61134.18
639.3159, 61064.72
639.7980, 60942.99
640.2801, 60789.42
640.7622, 60649.24
641.2443, 60523.04
641.7264, 60426.21
642.2086, 60397.47
642.6907, 60388.95
643.1728, 60355.54
643.6549, 60292.10
644.1370, 60208.02
644.6191, 60069.14
645.1013, 59932.65
645.5834, 59848.87
646.0655, 59871.71
646.5476, 59884.39
647.0297, 59893.19
647.5118, 59884.72
647.9940, 59823.32
648.4761, 59684.17
648.9582, 59588.56
649.4403, 59577.94
649.9224, 59617.32
650.4045, 59620.68
650.8867, 59588.08
651.3688, 59531.81
651.8509, 59454.45
652.3330, 59359.71
652.8151, 59249.28
653.2972, 59126.42
653.7794, 59003.79
654.2615, 58868.51
654.7436, 58753.83
655.2257, 58696.73
655.7078, 58738.67
656.1899, 58731.51
656.6721, 58614.02
657.1542, 58466.03
657.6363, 58355.90
658.1184, 58291.12
658.6005, 58242.89
659.0826, 58217.45
659.5648, 58194.39
660.0469, 58127.28
660.5290, 58018.63
661.0111, 57928.02
661.4932, 57895.55
661.9753, 57875.15
662.4575, 57775.29
662.9396, 57620.07
663.4217, 57500.21
663.9038, 57512.76
664.3859, 57543.79
664.8680, 57500.82
665.3502, 57381.60
665.8323, 57302.06
666.3144, 57343.38
666.7965, 57388.12
667.2786, 57363.46
667.7607, 57227.35
668.2429, 57158.91
668.7250, 57178.36
669.2071, 57225.17
669.6892, 57241.10
670.1713, 57224.51
670.6534, 57185.43
671.1355, 57116.62
671.6176, 57046.23
672.0997, 57035.01
672.5818, 57055.45
673.0640, 57037.92
673.5461, 56932.07
674.0282, 56810.48
674.5103, 56715.48
674.9924, 56645.91
675.4745, 56594.30
675.9567, 56586.69
676.4388, 56574.73
676.9209, 56540.54
677.4030, 56487.25
677.8851, 56437.70
678.3672, 56387.84
678.8494, 56350.44
679.3315, 56332.75
679.8136, 56333.24
680.2957, 56336.89
680.7778, 56341.12
681.2599, 56349.39
681.7421, 56367.81
682.2242, 56389.85
682.7063, 56404.11
683.1884, 56407.70
683.6705, 56402.74
684.1526, 56388.44
684.6348, 56367.41
685.1169, 56342.83
685.5990, 56292.92
686.0811, 56269.14
686.5632, 56300.93
687.0453, 56360.79
687.5275, 56407.00
688.0096, 56453.04
688.4917, 56451.68
688.9738, 56370.21
689.4559, 56247.03
689.9380, 56220.53
690.4202, 56287.38
690.9023, 56341.83
691.3844, 56300.91
691.8665, 56220.21
692.3486, 56190.28
692.8307, 56205.90
693.3129, 56222.71
693.7950, 56200.11
694.2771, 56177.44
694.7592, 56193.83
695.2413, 56268.39
695.7234, 56297.35
696.2056, 56227.36
696.6877, 56137.22
697.1698, 56080.85
697.6519, 56077.49
698.1340, 56041.55
698.6161, 55960.02
699.0983, 55873.51
699.5804, 55849.83
700.0625, 55875.67
700.5446, 55855.77
701.0267, 55749.57
701.5089, 55640.29
701.9910, 55630.53
702.4731, 55685.71
702.9552, 55737.49
703.4373, 55770.63
703.9194, 55780.96
704.4016, 55759.05
704.8837, 55710.82
705.3658, 55657.07
705.8479, 55567.95
706.3300, 55517.30
706.8121, 55546.69
707.2943, 55637.87
707.7764, 55630.59
708.2585, 55508.38
708.7406, 55396.46
709.2227, 55385.55
709.7048, 55443.64
710.1870, 55492.10
710.6691, 55529.36
711.1512, 55532.98
711.6333, 55445.98
712.1154, 55342.23
712.5975, 55298.00
713.0797, 55334.20
713.5618, 55377.90
714.0439, 55416.51
714.5260, 55447.26
715.0081, 55467.38
715.4902, 55470.73
715.9724, 55475.43
716.4545, 55485.67
716.9366, 55489.57
717.4187, 55461.99
717.9008, 55405.11
718.3829, 55367.74
718.8651, 55360.01
719.3472, 55376.22
719.8293, 55424.63
720.3114, 55490.59
720.7935, 55542.23
721.2756, 55565.01
721.7578, 55571.13
722.2399, 55566.05
722.7220, 55548.98
723.2041, 55516.54
723.6862, 55426.85
724.1683, 55374.65
724.6505, 55400.14
725.1326, 55485.66
725.6147, 55513.11
726.0968, 55471.04
726.5789, 55429.49
727.0610, 55436.34
727.5432, 55471.97
728.0253, 55473.95
728.5074, 55444.52
728.9895, 55410.46
729.4716, 55379.75
729.9537, 55361.46
730.4359, 55375.91
730.9180, 55432.54
731.4001, 55458.00
731.8822, 55409.30
732.3643, 55339.32
732.8464, 55280.20
733.3285, 55223.79
733.8106, 55206.36
734.2927, 55242.80
734.7748, 55287.18
735.2570, 55287.07
735.7391, 55247.16
736.2212, 55207.17
736.7033, 55171.61
737.1854, 55142.43
737.6675, 55123.38
738.1497, 55112.50
738.6318, 55106.04
739.1139, 55101.35
739.5960, 55105.95
740.0781, 55120.10
740.5602, 55148.16
741.0424, 55201.69
741.5245, 55334.26
742.0066, 55400.10
742.4887, 55345.66
742.9708, 55228.77
743.4529, 55206.08
743.9351, 55279.26
744.4172, 55342.68
744.8993, 55335.57
745.3814, 55307.16
745.8635, 55350.62
746.3456, 55448.96
746.8278, 55543.64
747.3099, 55638.41
747.7920, 55686.03
748.2741, 55618.75
748.7562, 55450.88
749.2383, 55365.56
749.7205, 55470.92
750.2026, 55565.82
750.6847, 55574.01
751.1668, 55499.31
751.6489, 55441.67
752.1310, 55402.83
752.6132, 55381.73
753.0953, 55387.32
753.5774, 55409.34
754.0595, 55415.00
754.5416, 55402.28
755.0237, 55397.69
755.5059, 55421.08
755.9880, 55456.96
756.4701, 55483.71
756.9522, 55480.50
757.4343, 55528.70
757.9164, 55735.60
758.3986, 55919.07
758.8807, 55937.13
759.3628, 55732.13
759.8449, 55603.91
760.3270, 55572.10
760.8091, 55599.32
761.2913, 55679.57
761.7734, 55788.52
762.2555, 55826.74
762.7376, 55755.78
763.2197, 55695.09
763.7018, 55771.25
764.1840, 55911.15
764.6661, 56020.96
765.1482, 56034.79
765.6303, 56064.72
766.1124, 56142.83
766.5945, 56237.84
767.0767, 56296.16
767.5588, 56287.09
768.0409, 56343.97
768.5230, 56505.03
769.0051, 56714.29
769.4872, 56873.42
769.9694, 56990.67
770.4515, 57103.92
770.9336, 57239.57
771.4157, 57361.44
771.8978, 57428.82
772.3799, 57458.14
772.8621, 57487.16
773.3442, 57510.29
773.8263, 57558.08
774.3084, 57642.59
774.7905, 57759.64
775.2726, 57903.91
775.7548, 58093.20
776.2369, 58254.16
776.7190, 58341.50
777.2011, 58395.30
777.6832, 58542.96
778.1653, 58770.91
778.6475, 58985.79
779.1296, 59103.21
779.6117, 59205.91
780.0938, 59364.03
780.5759, 59572.13
781.0580, 59803.17
781.5402, 60073.55
782.0223, 60337.42
782.5044, 60571.61
782.9865, 60775.55
783.4686, 61003.39
783.9507, 61263.29
784.4329, 61522.07
784.9150, 61758.01
785.3971, 61982.65
785.8792, 62235.60
786.3613, 62517.59
786.8434, 62814.09
787.3256, 63135.66
787.8077, 63450.82
788.2898, 63724.79
788.7719, 63949.24
789.2540, 64200.29
789.7361, 64510.07
790.2183, 64836.64
790.7004, 65152.02
791.1825, 65452.99
791.6646, 65795.01
792.1467, 66190.84
792.6288, 66567.33
793.1110, 66825.47
793.5930, 67019.98
794.0751, 67342.69
794.5573, 67809.00
795.0394, 68265.97
795.5215, 68585.33
796.0036, 68841.87
796.4857, 69091.81
796.9678, 69327.18
797.4500, 69616.72
797.9321, 70044.55
798.4142, 70459.02
798.8963, 70737.48
799.3784, 70856.04
799.8605, 71033.88
800.3427, 71288.09
800.8248, 71555.64
801.3069, 71784.56
801.7890, 71978.16
802.2711, 72136.92
802.7532, 72253.31
803.2354, 72376.55
803.7175, 72609.84
804.1996, 72825.26
804.6817, 72897.00
805.1638, 72689.07
805.6459, 72555.76
806.1281, 72557.96
806.6102, 72563.97
807.0923, 72434.18
807.5744, 72168.88
808.0565, 71874.66
808.5386, 71564.43
809.0208, 71227.66
809.5029, 70862.81
809.9850, 70463.20
810.4671, 70021.20
810.9492, 69534.92
811.4313, 69010.49
811.9135, 68400.49
812.3956, 67778.90
812.8777, 67227.37
813.3598, 66770.27
813.8419, 66336.23
814.3240, 65933.31
814.8062, 65532.87
815.2883, 65079.60
815.7704, 64586.68
816.2525, 64108.71
816.7346, 63651.78
817.2167, 63229.79
817.6989, 62886.32
818.1810, 62576.14
818.6631, 62231.61
819.1452, 61775.54
819.6273, 61378.36
820.1094, 61111.79
820.5916, 60906.48
821.0737, 60695.80
821.5558, 60480.83
822.0379, 60264.23
822.5200, 60045.97
823.0021, 59831.49
823.4843, 59613.08
823.9664, 59403.14
824.4485, 59231.99
824.9306, 59110.73
825.4127, 59018.28
825.8948, 58955.32
826.3770, 58904.65
826.8591, 58844.22
827.3412, 58760.95
827.8233, 58678.32
828.3054, 58603.57
828.7875, 58522.34
829.2697, 58408.65
829.7518, 58260.76
830.2339, 58139.21
830.7160, 58057.31
831.1981, 57988.71
831.6802, 57918.58
832.1624, 57835.73
832.6445, 57716.50
833.1266, 57519.16
833.6087, 57352.93
834.0908, 57281.00
834.5729, 57251.75
835.0551, 57196.00
835.5372, 57091.36
836.0193, 57027.28
836.5014, 57025.45
836.9835, 57035.27
837.4656, 56977.43
837.9478, 56868.06
838.4299, 56772.47
838.9120, 56709.94
839.3941, 56641.77
839.8762, 56516.51
840.3583, 56375.04
840.8405, 56267.70
841.3226, 56252.05
841.8047, 56199.11
842.2868, 56072.61
842.7689, 55933.42
843.2510, 55861.88
843.7332, 55863.96
844.2153, 55827.52
844.6974, 55731.26
845.1795, 55623.44
845.6616, 55569.23
846.1437, 55541.33
846.6259, 55496.68
847.1080, 55427.28
847.5901, 55333.06
848.0722, 55186.50
848.5543, 55030.36
849.0364, 54908.14
849.5186, 54830.79
850.0007, 54763.58
850.4828, 54713.34
850.9649, 54658.29
851.4470, 54563.52
851.9291, 54442.82
852.4113, 54347.48
852.8934, 54286.66
853.3755, 54237.97
853.8576, 54185.46
854.3397, 54136.29
854.8218, 54097.70
855.3040, 54075.91
855.7860, 54052.13
856.2681, 54014.54
856.7502, 53986.36
857.2324, 53996.31
857.7145, 54045.23
858.1966, 54050.05
858.6787, 54002.66
859.1608, 53939.41
859.6429, 53881.84
860.1251, 53833.14
860.6072, 53801.50
861.0893, 53790.63
861.5714, 53766.05
862.0535, 53684.28
862.5356, 53609.35
863.0178, 53588.30
863.4999, 53635.70
863.9820, 53646.88
864.4641, 53621.54
864.9462, 53561.67
865.4283, 53438.84
865.9105, 53289.48
866.3926, 53208.90
866.8747, 53200.41
867.3568, 53203.04
867.8389, 53197.00
868.3210, 53176.02
868.8032, 53137.05
869.2853, 53079.79
869.7674, 52998.27
870.2495, 52865.94
870.7316, 52761.49
871.2137, 52731.61
871.6959, 52765.53
872.1780, 52816.77
872.6601, 52881.95
873.1422, 52911.59
873.6243, 52833.48
874.1064, 52734.47
874.5886, 52685.61
875.0707, 52686.51
875.5528, 52712.82
876.0349, 52815.45
876.5170, 52871.35
876.9991, 52826.44
877.4813, 52704.56
877.9634, 52632.08
878.4455, 52610.18
878.9276, 52596.90
879.4097, 52569.87
879.8918, 52542.99
880.3740, 52547.01
880.8561, 52569.14
881.3382, 52569.55
881.8203, 52512.94
882.3024, 52454.97
882.7845, 52414.05
883.2667, 52385.13
883.7488, 52347.26
884.2309, 52289.34
884.7130, 52284.00
885.1951, 52368.73
885.6772, 52484.45
886.1594, 52540.52
886.6415, 52546.67
887.1236, 52528.39
887.6057, 52485.78
888.0878, 52434.21
888.5699, 52349.18
889.0521, 52271.98
889.5342, 52276.74
890.0163, 52428.77
890.4984, 52495.95
890.9805, 52434.42
891.4626, 52326.04
891.9448, 52287.86
892.4269, 52302.54
892.9090, 52309.51
893.3911, 52290.60
893.8732, 52275.75
894.3553, 52288.07
894.8375, 52312.23
895.3196, 52333.06
895.8017, 52350.32
896.2838, 52357.96
896.7659, 52360.24
897.2480, 52345.59
897.7302, 52296.35
898.2123, 52219.41
898.6944, 52154.18
899.1765, 52105.71
899.6586, 52054.38
900.1407, 51985.85
900.6229, 51909.55
901.1050, 51825.24
901.5871, 51726.47
902.0692, 51683.12
902.5513, 51738.48
903.0334, 51796.79
903.5156, 51813.31
903.9977, 51789.40
904.4798, 51729.11
904.9619, 51632.64
905.4440, 51569.85
905.9261, 51612.42
906.4083, 51692.43
906.8904, 51754.00
907.3725, 51792.74
907.8546, 51802.42
908.3367, 51747.15
908.8188, 51701.11
909.3010, 51686.91
909.7831, 51698.05
910.2652, 51716.51
910.7473, 51742.82
911.2294, 51749.94
911.7115, 51714.16
912.1937, 51671.64
912.6758, 51672.96
913.1579, 51702.56
913.6400, 51727.04
914.1221, 51685.34
914.6042, 51702.07
915.0864, 51869.96
915.5685, 52067.61
916.0506, 52081.46
916.5327, 51888.84
917.0148, 51767.55
917.4969, 51770.54
917.9790, 51830.81
918.4611, 51884.65
918.9432, 51935.79
919.4254, 51991.08
919.9075, 52057.45
920.3896, 52115.16
920.8717, 52155.35
921.3538, 52185.00
921.8359, 52197.46
922.3181, 52176.52
922.8002, 52238.68
923.2823, 52394.93
923.7644, 52560.84
924.2465, 52658.40
924.7286, 52712.89
925.2108, 52755.08
925.6929, 52787.47
926.1750, 52822.75
926.6571, 52859.64
927.1392, 52907.75
927.6213, 52972.06
928.1035, 53051.55
928.5856, 53146.27
929.0677, 53259.78
929.5498, 53373.26
930.0319, 53493.20
930.5140, 53598.91
930.9962, 53637.42
931.4783, 53631.13
931.9604, 53650.65
932.4425, 53766.12
932.9246, 53867.34
933.4067, 53898.44
933.8889, 53896.93
934.3710, 53946.88
934.8531, 54060.89
935.3352, 54133.82
935.8173, 54132.78
936.2994, 54104.44
936.7816, 54138.26
937.2637, 54185.69
937.7458, 54145.99
938.2279, 53935.45
938.7100, 53761.02
939.1921, 53763.32
939.6743, 53783.14
940.1564, 53663.01
940.6385, 53358.97
941.1206, 53188.11
941.6027, 53180.21
942.0848, 53169.75
942.5670, 52980.04
943.0491, 52700.90
943.5312, 52457.15
944.0133, 52261.48
944.4954, 52069.01
944.9775, 51856.08
945.4597, 51649.78
945.9418, 51468.07
946.4239, 51307.58
946.9060, 51126.71
947.3881, 50921.79
947.8702, 50741.54
948.3524, 50617.70
948.8345, 50526.78
949.3166, 50453.04
949.7987, 50385.11
950.2808, 50293.18
950.7629, 50108.11
951.2451, 49972.59
951.7272, 49945.86
952.2093, 49968.03
952.6914, 49932.14
953.1735, 49835.15
953.6556, 49728.89
954.1378, 49618.13
954.6199, 49520.43
955.1020, 49453.70
955.5841, 49412.45
956.0662, 49398.58
956.5483, 49442.57
957.0305, 49425.14
957.5126, 49267.28
957.9947, 49107.16
958.4768, 49046.70
958.9589, 49086.77
959.4410, 49111.56
959.9232, 49120.74
960.4053, 49107.55
960.8874, 49057.05
961.3695, 48987.89
961.8516, 48901.45
962.3337, 48804.71
962.8159, 48756.26
963.2980, 48799.62
963.7801, 48846.22
964.2622, 48885.64
964.7443, 48904.17
965.2264, 48837.73
965.7086, 48699.66
966.1907, 48588.14
966.6728, 48547.68
967.1549, 48533.30
967.6370, 48518.87
968.1191, 48503.92
968.6013, 48487.73
969.0834, 48469.25
969.5655, 48453.15
970.0476, 48443.30
970.5297, 48428.81
971.0118, 48400.88
971.4940, 48357.90
971.9761, 48280.56
972.4582, 48163.40
972.9403, 48073.50
973.4224, 48074.89
973.9045, 48103.57
974.3867, 48106.12
974.8688, 48076.81
975.3509, 48095.53
975.8330, 48181.46
976.3151, 48252.42
976.7972, 48264.86
977.2794, 48234.50
977.7615, 48184.13
978.2436, 48120.96
978.7257, 48071.21
979.2078, 48061.18
979.6899, 48049.64
980.1720, 48010.04
980.6541, 47961.13
981.1362, 47937.86
981.6183, 47946.41
982.1005, 47947.72
982.5826, 47937.12
983.0647, 47917.33
983.5468, 47886.70
984.0289, 47851.75
984.5110, 47828.38
984.9932, 47827.13
985.4753, 47801.05
985.9574, 47663.54
986.4395, 47570.13
986.9216, 47638.29
987.4037, 47862.00
987.8859, 47913.11
988.3680, 47791.17
988.8501, 47657.50
989.3322, 47624.45
989.8143, 47621.15
990.2964, 47552.87
990.7786, 47450.31
991.2607, 47428.65
991.7428, 47629.45
992.2249, 47727.57
992.7070, 47638.02
993.1891, 47462.01
993.6713, 47377.31
994.1534, 47372.49
994.6355, 47407.35
995.1176, 47489.61
995.5997, 47543.27
996.0818, 47474.15
996.5640, 47373.70
997.0461, 47333.28
997.5282, 47375.17
998.0103, 47401.96
998.4924, 47401.39
998.9745, 47422.75
999.4567, 47540.57
999.9388, 47693.75
1000.421, 47710.93
1000.903, 47615.37
1001.385, 47539.80
1001.867, 47562.48
1002.349, 47605.17
1002.831, 47640.14
1003.314, 47670.71
1003.796, 47709.84
1004.278, 47760.00
1004.760, 47790.28
1005.242, 47788.45
1005.724, 47783.23
1006.206, 47816.05
1006.688, 47865.40
1007.171, 47900.68
1007.653, 47912.04
1008.135, 47920.88
1008.617, 47920.99
1009.099, 47932.96
1009.581, 47975.86
1010.063, 48046.72
1010.545, 48101.98
1011.027, 48143.21
1011.510, 48190.44
1011.992, 48272.96
1012.474, 48349.68
1012.956, 48381.68
1013.438, 48381.22
1013.920, 48405.99
1014.402, 48477.17
1014.884, 48514.23
1015.367, 48493.38
1015.849, 48448.55
1016.331, 48438.79
1016.813, 48446.75
1017.295, 48431.34
1017.777, 48378.04
1018.259, 48322.93
1018.741, 48299.67
1019.223, 48263.50
1019.706, 48174.20
1020.188, 48027.24
1020.670, 47943.45
1021.152, 47925.88
1021.634, 47906.29
1022.116, 47827.02
1022.598, 47731.71
1023.080, 47668.29
1023.563, 47628.25
1024.045, 47581.14
1024.527, 47502.51
1025.009, 47442.83
1025.491, 47418.30
1025.973, 47401.58
1026.455, 47349.03
1026.937, 47265.73
1027.419, 47168.03
1027.901, 47056.46
1028.384, 46952.11
1028.866, 46868.30
1029.348, 46800.09
1029.830, 46745.93
1030.312, 46706.84
1030.794, 46682.76
1031.276, 46681.09
1031.758, 46657.11
1032.241, 46566.24
1032.723, 46453.70
1033.205, 46383.65
1033.687, 46348.32
1034.169, 46323.89
1034.651, 46285.45
1035.133, 46284.52
1035.615, 46353.68
1036.098, 46432.63
1036.580, 46423.69
1037.062, 46339.62
1037.544, 46285.19
1038.026, 46274.09
1038.508, 46270.39
1038.990, 46243.42
1039.472, 46213.32
1039.954, 46198.95
1040.437, 46201.73
1040.919, 46196.02
1041.401, 46182.36
1041.883, 46163.84
1042.365, 46148.45
1042.847, 46124.06
1043.329, 46048.54
1043.811, 45948.94
1044.293, 45885.84
1044.776, 45940.01
1045.258, 45948.70
1045.740, 45852.02
1046.222, 45730.71
1046.704, 45659.95
1047.186, 45638.11
1047.668, 45625.61
1048.150, 45619.79
1048.633, 45627.33
1049.115, 45672.80
1049.597, 45716.65
1050.079, 45722.72
1050.561, 45694.37
1051.043, 45680.70
1051.525, 45687.74
1052.007, 45694.64
1052.490, 45697.92
1052.972, 45693.63
1053.454, 45655.18
1053.936, 45607.85
1054.418, 45608.36
1054.900, 45697.33
1055.382, 45760.14
1055.864, 45732.00
1056.346, 45701.31
1056.828, 45739.48
1057.311, 45838.63
1057.793, 45844.72
1058.275, 45762.07
1058.757, 45666.14
1059.239, 45579.45
1059.721, 45520.52
1060.203, 45536.54
1060.685, 45589.45
1061.168, 45566.59
1061.650, 45429.54
1062.132, 45347.76
1062.614, 45358.76
1063.096, 45386.45
1063.578, 45320.79
1064.060, 45214.48
1064.542, 45155.54
1065.025, 45159.93
1065.507, 45165.79
1065.989, 45161.20
1066.471, 45144.47
1066.953, 45100.43
1067.435, 45047.27
1067.917, 45083.80
1068.399, 45193.20
1068.881, 45268.02
1069.364, 45241.95
1069.846, 45203.58
1070.328, 45214.95
1070.810, 45241.53
1071.292, 45233.89
1071.774, 45170.73
1072.256, 45155.44
1072.738, 45196.57
1073.220, 45235.67
1073.703, 45219.20
1074.185, 45172.91
1074.667, 45120.30
1075.149, 45065.77
1075.631, 45029.39
1076.113, 45035.58
1076.595, 45032.11
1077.077, 45008.14
1077.559, 44974.26
1078.042, 44941.63
1078.524, 44916.01
1079.006, 44924.84
1079.488, 44987.73
1079.970, 45013.86
1080.452, 44917.94
1080.934, 44801.19
1081.416, 44728.02
1081.899, 44697.11
1082.381, 44673.60
1082.863, 44656.74
1083.345, 44681.61
1083.827, 44805.30
1084.309, 44929.16
1084.791, 44943.51
1085.273, 44898.30
1085.755, 44886.68
1086.238, 44941.47
1086.720, 44982.95
1087.202, 45012.19
1087.684, 45016.60
1088.166, 44975.63
1088.648, 44905.13
1089.130, 44814.07
1089.612, 44712.33
1090.094, 44668.29
1090.577, 44782.59
1091.059, 44868.24
1091.541, 44863.07
1092.023, 44809.66
1092.505, 44791.64
1092.987, 44807.23
1093.469, 44853.00
1093.951, 44936.42
1094.434, 45005.96
1094.916, 45013.58
1095.398, 45001.53
1095.880, 45000.45
1096.362, 45010.48
1096.844, 45045.11
1097.326, 45109.46
1097.808, 45122.62
1098.291, 44990.60
1098.773, 44848.43
1099.255, 44893.80
1099.737, 45032.84
1100.219, 45098.95
1100.701, 44998.61
1101.183, 44938.66
1101.665, 44932.31
1102.147, 44942.62
1102.630, 44937.36
1103.112, 44922.25
1103.594, 44895.57
1104.076, 44863.85
1104.558, 44871.17
1105.040, 44981.17
1105.522, 45076.39
1106.004, 45131.52
1106.486, 45146.89
1106.969, 45099.85
1107.451, 45006.33
1107.933, 44967.03
1108.415, 45010.70
1108.897, 45043.02
1109.379, 44988.00
1109.861, 44909.58
1110.343, 44855.49
1110.826, 44824.62
1111.308, 44777.36
1111.790, 44713.73
1112.272, 44648.69
1112.754, 44572.50
1113.236, 44523.50
1113.718, 44567.04
1114.200, 44652.71
1114.682, 44707.41
1115.165, 44711.79
1115.647, 44700.79
1116.129, 44667.33
1116.611, 44638.50
1117.093, 44654.73
1117.575, 44678.58
1118.057, 44629.12
1118.539, 44524.73
1119.021, 44439.88
1119.504, 44427.02
1119.986, 44397.00
1120.468, 44323.20
1120.950, 44248.52
1121.432, 44246.27
1121.914, 44293.87
1122.396, 44302.43
1122.878, 44262.53
1123.361, 44243.85
1123.843, 44337.13
1124.325, 44401.11
1124.807, 44349.26
1125.289, 44228.55
1125.771, 44189.84
1126.253, 44228.91
1126.735, 44308.25
1127.218, 44436.00
1127.700, 44535.03
1128.182, 44517.30
1128.664, 44458.04
1129.146, 44423.80
1129.628, 44415.75
1130.110, 44436.56
1130.592, 44489.68
1131.074, 44522.06
1131.557, 44486.97
1132.039, 44436.71
1132.521, 44447.14
1133.003, 44483.09
1133.485, 44478.85
1133.967, 44386.50
1134.449, 44344.20
1134.931, 44371.82
1135.413, 44397.29
1135.896, 44335.59
1136.378, 44243.08
1136.860, 44238.09
1137.342, 44299.17
1137.824, 44303.77
1138.306, 44118.86
1138.788, 44007.42
1139.270, 44025.83
1139.752, 44102.07
1140.235, 44132.79
1140.717, 44132.54
1141.199, 44147.36
1141.681, 44182.49
1142.163, 44206.62
1142.645, 44216.90
1143.127, 44194.08
1143.609, 44117.66
1144.092, 44013.57
1144.574, 43979.13
1145.056, 43999.00
1145.538, 43969.54
1146.020, 43841.61
1146.502, 43740.40
1146.984, 43782.73
1147.466, 43856.89
1147.948, 43873.29
1148.431, 43834.38
1148.913, 43831.37
1149.395, 43863.32
1149.877, 43894.58
1150.359, 43900.09
1150.841, 43905.14
1151.323, 43935.99
1151.805, 43973.28
1152.287, 43985.17
1152.770, 43951.67
1153.252, 43965.41
1153.734, 44031.80
1154.216, 44098.56
1154.698, 44118.36
1155.180, 44123.63
1155.662, 44159.61
1156.144, 44210.85
1156.627, 44221.50
1157.109, 44177.44
1157.591, 44124.08
1158.073, 44060.48
1158.555, 44011.92
1159.037, 44017.24
1159.519, 44047.35
1160.001, 44053.05
1160.484, 44034.48
1160.966, 44051.65
1161.448, 44155.48
1161.930, 44209.94
1162.412, 44169.94
1162.894, 44094.54
1163.376, 44093.78
1163.858, 44127.90
1164.340, 44099.18
1164.823, 43975.75
1165.305, 43922.70
1165.787, 44056.32
1166.269, 44161.24
1166.751, 44150.05
1167.233, 44060.63
1167.715, 43964.13
1168.197, 43874.36
1168.679, 43836.07
1169.162, 43877.11
1169.644, 43935.25
1170.126, 44021.77
1170.608, 44080.95
1171.090, 44064.18
1171.572, 43986.38
1172.054, 43940.77
1172.536, 43925.53
1173.019, 43933.89
1173.501, 43976.66
1173.983, 44022.83
1174.465, 44084.10
1174.947, 44123.47
1175.429, 44085.76
1175.911, 43975.59
1176.393, 43953.37
1176.875, 44018.27
1177.358, 44086.13
1177.840, 44106.73
1178.322, 44113.27
1178.804, 44120.24
1179.286, 44126.76
1179.768, 44128.59
1180.250, 44125.62
1180.732, 44136.16
1181.214, 44163.12
1181.697, 44172.56
1182.179, 44114.07
1182.661, 44049.66
1183.143, 44014.68
1183.625, 44011.02
1184.107, 44060.10
1184.589, 44169.67
1185.071, 44191.05
1185.554, 44080.35
1186.036, 43970.04
1186.518, 44019.42
1187.000, 44100.81
1187.482, 44082.68
1187.964, 43971.81
1188.446, 43930.27
1188.928, 43968.43
1189.411, 43985.48
1189.893, 43945.95
1190.375, 43887.96
1190.857, 43848.59
1191.339, 43817.29
1191.821, 43776.86
1192.303, 43721.13
1192.785, 43712.66
1193.267, 43760.04
1193.750, 43795.35
1194.232, 43779.53
1194.714, 43747.34
1195.196, 43738.04
1195.678, 43739.96
1196.160, 43733.86
1196.642, 43706.95
1197.124, 43709.05
1197.606, 43745.91
1198.089, 43780.07
1198.571, 43788.99
1199.053, 43780.26
1199.535, 43752.89
1200.017, 43717.75
1200.499, 43696.91
1200.981, 43691.16
1201.463, 43713.35
1201.945, 43772.98
1202.428, 43818.75
1202.910, 43786.63
1203.392, 43730.65
1203.874, 43726.31
1204.356, 43760.30
1204.838, 43779.16
1205.320, 43763.98
1205.802, 43760.72
1206.285, 43775.09
1206.767, 43794.24
1207.249, 43803.62
1207.731, 43810.12
1208.213, 43820.75
1208.695, 43836.67
1209.177, 43865.86
1209.659, 43928.90
1210.141, 43945.21
1210.624, 43883.70
1211.106, 43825.56
1211.588, 43909.15
1212.070, 44036.95
1212.552, 44063.19
1213.034, 43975.62
1213.516, 43898.80
1213.998, 43830.30
1214.480, 43821.02
1214.963, 43903.94
1215.445, 43999.86
1215.927, 43979.60
1216.409, 43905.34
1216.891, 43871.89
1217.373, 43898.70
1217.855, 43900.31
1218.337, 43862.40
1218.820, 43827.13
1219.302, 43812.42
1219.784, 43802.01
1220.266, 43752.83
1220.748, 43698.42
1221.230, 43701.83
1221.712, 43798.17
1222.194, 43822.92
1222.677, 43737.07
1223.159, 43681.55
1223.641, 43733.34
1224.123, 43829.09
1224.605, 43884.11
1225.087, 43907.16
1225.569, 43907.37
1226.051, 43865.46
1226.533, 43865.46
1227.016, 43920.42
1227.498, 43977.10
1227.980, 44013.61
1228.462, 44025.43
1228.944, 43983.70
1229.426, 43918.16
1229.908, 43884.61
1230.390, 43912.00
1230.872, 43936.65
1231.355, 43960.36
1231.837, 43975.91
1232.319, 43964.84
1232.801, 43952.86
1233.283, 43986.71
1233.765, 44044.38
1234.247, 44074.37
1234.729, 44052.17
1235.212, 44041.62
1235.694, 44042.75
1236.176, 44059.32
1236.658, 44119.93
1237.140, 44176.17
1237.622, 44147.86
1238.104, 44069.32
1238.586, 44048.26
1239.068, 44123.46
1239.551, 44142.11
1240.033, 44087.36
1240.515, 44024.03
1240.997, 44003.04
1241.479, 44007.79
1241.961, 44046.64
1242.443, 44096.61
1242.925, 44072.78
1243.407, 43940.80
1243.890, 43902.79
1244.372, 43988.27
1244.854, 44102.34
1245.336, 44174.25
1245.818, 44217.25
1246.300, 44224.85
1246.782, 44209.21
1247.264, 44223.98
1247.747, 44274.13
1248.229, 44302.98
1248.711, 44302.01
1249.193, 44276.48
1249.675, 44202.19
1250.157, 44131.67
1250.639, 44120.20
1251.121, 44149.94
1251.604, 44155.87
1252.086, 44139.02
1252.568, 44112.99
1253.050, 44081.53
1253.532, 44042.75
1254.014, 43955.91
1254.496, 43899.24
1254.978, 43946.54
1255.460, 44064.09
1255.943, 44158.68
1256.425, 44229.38
1256.907, 44279.13
1257.389, 44310.27
1257.871, 44304.30
1258.353, 44205.40
1258.835, 44107.31
1259.317, 44064.92
1259.799, 44065.35
1260.281, 44079.04
1260.764, 44099.39
1261.246, 44083.78
1261.728, 44016.59
1262.210, 43948.61
1262.692, 43911.39
1263.174, 43876.23
1263.656, 43819.23
1264.138, 43764.17
1264.621, 43805.93
1265.103, 43912.55
1265.585, 43971.38
1266.067, 43943.40
1266.549, 43909.21
1267.031, 43868.11
1267.513, 43865.70
1267.995, 43931.18
1268.478, 44037.44
1268.960, 44129.18
1269.442, 44205.38
1269.924, 44262.35
1270.406, 44292.66
1270.888, 44321.15
1271.370, 44354.54
1271.852, 44372.48
1272.334, 44347.60
1272.817, 44320.36
1273.299, 44396.41
1273.781, 44521.43
1274.263, 44598.42
1274.745, 44596.07
1275.227, 44559.67
1275.709, 44475.60
1276.191, 44423.66
1276.673, 44469.05
1277.156, 44534.35
1277.638, 44500.74
1278.120, 44417.01
1278.602, 44355.92
1279.084, 44333.25
1279.566, 44313.68
1280.048, 44297.50
1280.530, 44283.85
1281.013, 44265.00
1281.495, 44258.46
1281.977, 44305.02
1282.459, 44359.61
##END=



