##NAMES=Hanksite
##RRUFFID=R050291
##IDEAL CHEMISTRY=KNa_22_(S^6+^O_4_)_9_(CO_3_)_2_Cl
##LOCALITY=Searles Lake, Trona, San Bernardino County, California, USA
##OWNER=RRUFF
##SOURCE=Marcus Origlieri
##DESCRIPTION=Pale yellow hexagonal prism with pyramidal terminations
##STATUS=The identification of this mineral has been confirmed by X-ray diffraction and chemical analysis
##URL=rruff.info/R050291
##MEASURED CHEMISTRY=K_1.00_(Na_21.65_K_0.35_)_Î£=22_(S_1.00_O_4_)_9_(CO_3_)_2_Cl_1.00_
141.2172, 123.8290
141.6993, 123.4879
142.1814, 124.2022
142.6636, 125.6087
143.1457, 126.2751
143.6278, 125.3443
144.1099, 124.1951
144.5920, 124.0662
145.0741, 124.9611
145.5563, 126.0446
146.0384, 126.5507
146.5205, 126.3977
147.0026, 126.3626
147.4847, 126.8963
147.9668, 127.3793
148.4490, 127.3431
148.9311, 126.7254
149.4132, 125.9768
149.8953, 125.8211
150.3774, 126.6377
150.8595, 127.2962
151.3417, 127.3722
151.8238, 127.4569
152.3059, 128.2022
152.7880, 129.8126
153.2701, 131.7865
153.7522, 132.8332
154.2344, 132.1795
154.7165, 131.3363
155.1986, 129.7939
155.6807, 128.2326
156.1628, 127.6480
156.6449, 128.6127
157.1271, 130.6449
157.6092, 131.7574
158.0913, 131.5346
158.5734, 131.0825
159.0555, 130.4912
159.5376, 129.8706
160.0198, 129.5627
160.5019, 129.8974
160.9840, 130.6065
161.4661, 130.7153
161.9482, 129.8541
162.4303, 128.8158
162.9125, 127.9947
163.3946, 127.3934
163.8767, 127.1658
164.3588, 127.7347
164.8409, 128.6542
165.3230, 129.1795
165.8052, 129.1316
166.2873, 128.6880
166.7694, 127.9814
167.2515, 126.9019
167.7336, 125.9301
168.2157, 125.2731
168.6979, 124.8540
169.1800, 124.6270
169.6621, 124.6259
170.1442, 124.7677
170.6263, 124.8357
171.1084, 124.8836
171.5906, 124.7464
172.0727, 124.0720
172.5548, 123.2634
173.0369, 122.9309
173.5190, 123.5399
174.0011, 124.9381
174.4833, 125.8359
174.9654, 125.5721
175.4475, 125.4305
175.9296, 125.7790
176.4117, 126.4466
176.8938, 127.0786
177.3760, 127.3950
177.8581, 127.3828
178.3402, 127.5608
178.8223, 128.0099
179.3044, 128.5430
179.7865, 129.2915
180.2687, 130.1119
180.7508, 130.6120
181.2329, 130.3945
181.7150, 129.3657
182.1971, 128.7775
182.6792, 128.8782
183.1614, 129.1406
183.6435, 129.4525
184.1256, 129.7357
184.6077, 129.6485
185.0898, 128.7440
185.5719, 126.9629
186.0540, 125.6642
186.5362, 125.1429
187.0183, 124.9618
187.5004, 124.8677
187.9825, 124.8544
188.4646, 124.5872
188.9467, 123.4263
189.4289, 121.6446
189.9110, 120.3802
190.3931, 120.2247
190.8752, 120.6371
191.3573, 120.7856
191.8394, 120.5586
192.3216, 120.2159
192.8037, 119.9879
193.2858, 119.8106
193.7679, 119.5191
194.2500, 118.8589
194.7321, 118.0095
195.2143, 117.5582
195.6964, 117.6519
196.1785, 117.9748
196.6606, 118.4704
197.1427, 119.0342
197.6248, 119.4245
198.1070, 119.4069
198.5891, 119.0313
199.0712, 118.8028
199.5533, 118.7315
200.0354, 118.8235
200.5175, 119.3402
200.9997, 120.0359
201.4818, 120.3724
201.9639, 119.8003
202.4460, 118.2851
202.9281, 117.2533
203.4102, 116.9206
203.8924, 116.9289
204.3745, 117.2692
204.8566, 117.8876
205.3387, 118.7493
205.8208, 119.9292
206.3029, 121.5694
206.7851, 122.1810
207.2672, 120.7565
207.7493, 119.3661
208.2314, 118.8506
208.7135, 119.1360
209.1956, 119.6917
209.6778, 120.0618
210.1599, 120.2289
210.6420, 120.2990
211.1241, 119.8788
211.6062, 119.7112
212.0883, 120.4180
212.5705, 121.8584
213.0526, 123.2701
213.5347, 123.9813
214.0168, 123.8910
214.4989, 123.6908
214.9810, 123.2266
215.4632, 122.7799
215.9453, 122.6238
216.4274, 122.7412
216.9095, 122.7822
217.3916, 122.4211
217.8737, 121.6361
218.3559, 120.9187
218.8380, 119.9418
219.3201, 119.2456
219.8022, 119.5506
220.2843, 120.9085
220.7664, 122.2029
221.2486, 122.4436
221.7307, 121.8349
222.2128, 121.2875
222.6949, 120.8861
223.1770, 120.6243
223.6591, 120.5006
224.1413, 120.5153
224.6234, 120.6584
225.1055, 121.1161
225.5876, 121.6866
226.0697, 121.9671
226.5518, 121.6224
227.0340, 121.0474
227.5161, 120.8624
227.9982, 121.1709
228.4803, 121.5095
228.9624, 121.4778
229.4445, 121.3355
229.9267, 121.4850
230.4088, 122.2973
230.8909, 123.2946
231.3730, 123.4250
231.8551, 122.2672
232.3372, 121.3117
232.8194, 121.1580
233.3015, 121.5333
233.7836, 122.2696
234.2657, 123.4755
234.7478, 124.7225
235.2299, 124.8979
235.7121, 123.3053
236.1942, 122.0350
236.6763, 121.7627
237.1584, 122.0460
237.6405, 122.5002
238.1227, 122.9981
238.6048, 123.4436
239.0869, 123.5419
239.5690, 122.9463
240.0511, 122.6197
240.5332, 122.7027
241.0154, 123.1102
241.4975, 123.8410
241.9796, 124.8995
242.4617, 126.1097
242.9438, 127.0101
243.4259, 127.3985
243.9081, 127.7744
244.3902, 128.2982
244.8723, 128.7896
245.3544, 129.0313
245.8365, 128.9461
246.3186, 128.6927
246.8007, 128.6279
247.2829, 128.7954
247.7650, 129.1245
248.2471, 129.6881
248.7292, 130.3570
249.2113, 131.0854
249.6934, 131.8407
250.1756, 132.5012
250.6577, 132.8308
251.1398, 132.7410
251.6219, 132.3796
252.1040, 131.3612
252.5861, 130.2899
253.0683, 129.8224
253.5504, 130.1183
254.0325, 130.6694
254.5146, 130.6229
254.9967, 129.3941
255.4788, 128.6451
255.9610, 128.8116
256.4431, 129.2050
256.9252, 129.2563
257.4073, 128.8268
257.8894, 128.0850
258.3716, 127.2136
258.8537, 126.0609
259.3358, 125.2395
259.8179, 124.9646
260.3000, 124.8887
260.7821, 124.8210
261.2643, 124.7032
261.7464, 124.3508
262.2285, 123.4882
262.7106, 121.9416
263.1927, 120.7120
263.6748, 119.9005
264.1570, 119.3586
264.6391, 119.1514
265.1212, 119.2424
265.6033, 119.1138
266.0854, 118.0950
266.5675, 116.1577
267.0497, 115.0699
267.5318, 115.9410
268.0139, 116.9357
268.4960, 116.2455
268.9781, 113.8684
269.4602, 111.7111
269.9424, 111.4320
270.4245, 112.7485
270.9066, 113.1820
271.3887, 111.9364
271.8708, 110.3529
272.3529, 109.4130
272.8351, 109.0953
273.3172, 108.9934
273.7993, 109.0371
274.2814, 109.0561
274.7635, 108.5807
275.2456, 107.0157
275.7278, 105.6121
276.2099, 105.5176
276.6920, 106.5628
277.1741, 107.3469
277.6562, 107.1543
278.1383, 106.2951
278.6204, 105.4764
279.1025, 104.5512
279.5847, 103.9642
280.0668, 104.2385
280.5489, 105.2203
281.0310, 106.0051
281.5131, 106.3091
281.9952, 106.2042
282.4774, 105.8431
282.9595, 105.2005
283.4416, 104.4642
283.9237, 103.5447
284.4058, 102.5665
284.8879, 102.0930
285.3701, 102.4341
285.8522, 103.1115
286.3343, 103.7204
286.8164, 104.2590
287.2985, 104.5055
287.7806, 104.0145
288.2628, 103.0959
288.7449, 102.8859
289.2270, 103.9270
289.7091, 104.9875
290.1912, 104.8259
290.6733, 103.7725
291.1555, 103.0143
291.6376, 103.4756
292.1197, 104.5905
292.6018, 104.9393
293.0839, 104.1942
293.5660, 103.3023
294.0482, 102.9464
294.5303, 102.8899
295.0124, 102.6828
295.4945, 101.9093
295.9766, 101.0167
296.4587, 100.9435
296.9409, 101.9545
297.4230, 102.8773
297.9051, 102.9686
298.3872, 102.6638
298.8693, 102.4685
299.3514, 102.6079
299.8336, 102.7684
300.3157, 102.4496
300.7978, 101.5481
301.2799, 100.7779
301.7620, 100.4241
302.2441, 100.3304
302.7263, 100.3985
303.2084, 100.6226
303.6905, 100.9436
304.1726, 101.2646
304.6547, 101.5766
305.1368, 102.1291
305.6190, 103.4195
306.1011, 104.6072
306.5832, 105.0029
307.0653, 104.5759
307.5474, 103.8638
308.0295, 103.1238
308.5117, 102.3863
308.9938, 102.0748
309.4759, 102.7132
309.9580, 103.2253
310.4401, 102.7304
310.9222, 101.4582
311.4044, 100.3048
311.8865, 99.96161
312.3686, 100.2369
312.8507, 100.2490
313.3328, 99.79095
313.8149, 99.40991
314.2971, 99.35121
314.7792, 99.56412
315.2613, 100.0009
315.7434, 100.8248
316.2255, 101.7392
316.7076, 102.0200
317.1898, 101.4234
317.6719, 100.8731
318.1540, 100.9255
318.6361, 101.1836
319.1182, 101.1531
319.6003, 100.5776
320.0825, 99.97777
320.5646, 100.2151
321.0467, 101.4687
321.5288, 102.4108
322.0109, 102.2667
322.4930, 101.8515
322.9752, 101.8175
323.4573, 102.2713
323.9394, 102.8046
324.4215, 103.1719
324.9036, 103.3668
325.3857, 103.0233
325.8679, 101.4738
326.3500, 99.98296
326.8321, 99.53865
327.3142, 100.0257
327.7963, 100.6182
328.2784, 100.6579
328.7606, 100.3065
329.2427, 100.4189
329.7248, 101.3422
330.2069, 102.2063
330.6890, 102.5084
331.1711, 102.3773
331.6533, 102.0452
332.1354, 101.4381
332.6175, 100.7855
333.0996, 100.6258
333.5817, 101.1145
334.0638, 101.5924
334.5460, 101.5981
335.0281, 101.4513
335.5102, 101.5626
335.9923, 102.1574
336.4744, 102.7611
336.9565, 102.8248
337.4387, 102.3304
337.9208, 101.5631
338.4029, 100.0827
338.8850, 98.77478
339.3671, 98.66497
339.8492, 99.90871
340.3314, 101.2588
340.8135, 101.8801
341.2956, 101.8282
341.7777, 101.3291
342.2598, 100.0858
342.7419, 98.89117
343.2241, 98.31025
343.7062, 98.30489
344.1883, 98.79152
344.6704, 100.3189
345.1525, 102.2182
345.6346, 102.8156
346.1168, 101.6400
346.5989, 100.4111
347.0810, 100.7246
347.5631, 101.8215
348.0452, 102.3521
348.5273, 101.5288
349.0095, 100.3968
349.4916, 100.1900
349.9737, 100.9270
350.4558, 101.8037
350.9379, 102.7282
351.4200, 103.3840
351.9022, 103.2460
352.3843, 102.0295
352.8664, 100.7460
353.3485, 100.0409
353.8306, 99.82335
354.3127, 99.76107
354.7949, 99.81809
355.2770, 99.91054
355.7591, 99.92329
356.2412, 99.85833
356.7233, 99.80928
357.2054, 99.88350
357.6876, 99.97095
358.1697, 99.77541
358.6518, 99.19180
359.1339, 98.82522
359.6160, 99.47845
360.0981, 100.9011
360.5803, 101.7022
361.0624, 101.1583
361.5445, 100.3504
362.0266, 100.1997
362.5087, 100.6466
362.9908, 101.1204
363.4730, 101.3738
363.9551, 101.3820
364.4372, 101.0913
364.9193, 100.2065
365.4014, 99.53399
365.8835, 99.71822
366.3657, 100.3203
366.8478, 100.3608
367.3299, 99.44080
367.8120, 98.16855
368.2941, 97.47231
368.7762, 97.39716
369.2584, 97.62254
369.7405, 98.62831
370.2226, 99.61427
370.7047, 99.51977
371.1868, 98.30027
371.6689, 97.19530
372.1511, 97.38974
372.6332, 98.96278
373.1153, 100.0622
373.5974, 100.7034
374.0795, 100.9263
374.5616, 100.5771
375.0438, 99.81825
375.5259, 98.95677
376.0080, 98.11531
376.4901, 97.40569
376.9722, 97.25658
377.4543, 98.04054
377.9365, 98.88914
378.4186, 99.97526
378.9007, 100.9667
379.3828, 101.3976
379.8649, 101.1675
380.3470, 100.6723
380.8292, 100.4364
381.3113, 100.4506
381.7934, 100.8171
382.2755, 102.2782
382.7576, 103.4093
383.2397, 103.0316
383.7219, 101.4913
384.2040, 100.1476
384.6861, 100.1534
385.1682, 101.3788
385.6503, 101.7328
386.1324, 100.0252
386.6146, 98.73605
387.0967, 98.59794
387.5788, 99.02177
388.0609, 99.15827
388.5430, 98.65031
389.0251, 97.95158
389.5073, 98.05705
389.9894, 99.58195
390.4715, 100.6221
390.9536, 101.0151
391.4357, 101.0170
391.9178, 100.6113
392.4000, 99.90517
392.8821, 99.23323
393.3642, 98.90068
393.8463, 98.91154
394.3284, 99.15119
394.8105, 100.0792
395.2927, 100.6922
395.7748, 100.3080
396.2569, 99.45467
396.7390, 99.08377
397.2211, 99.79449
397.7032, 100.9881
398.1854, 101.2043
398.6675, 100.0305
399.1496, 99.13566
399.6317, 99.11589
400.1138, 99.47491
400.5959, 99.97591
401.0780, 100.5652
401.5602, 101.0265
402.0423, 101.0475
402.5244, 100.6814
403.0065, 100.5493
403.4886, 100.8747
403.9707, 101.2239
404.4529, 101.0404
404.9350, 100.5999
405.4171, 100.7313
405.8992, 102.6420
406.3813, 104.8913
406.8634, 104.8171
407.3456, 102.1353
407.8277, 99.73297
408.3098, 99.06541
408.7919, 99.55972
409.2740, 100.3162
409.7561, 101.5897
410.2383, 102.3218
410.7204, 101.2206
411.2025, 99.02766
411.6846, 98.03239
412.1667, 99.01904
412.6488, 100.7347
413.1310, 101.7660
413.6131, 102.1548
414.0952, 102.2439
414.5773, 101.8494
415.0594, 101.3427
415.5415, 100.9856
416.0237, 100.8151
416.5058, 100.9866
416.9879, 101.7929
417.4700, 102.9651
417.9521, 103.0374
418.4342, 100.8188
418.9164, 99.11900
419.3985, 98.94344
419.8806, 99.67735
420.3627, 100.5471
420.8448, 101.2987
421.3269, 101.8367
421.8091, 101.9638
422.2912, 101.3656
422.7733, 101.2888
423.2554, 102.1445
423.7375, 103.1182
424.2196, 103.7656
424.7018, 104.0929
425.1839, 104.3399
425.6660, 104.7147
426.1481, 105.1262
426.6302, 104.9130
427.1123, 102.7931
427.5945, 101.6557
428.0766, 102.5250
428.5587, 104.1816
429.0408, 105.4436
429.5229, 105.9424
430.0050, 106.0427
430.4872, 106.2416
430.9693, 106.5821
431.4514, 106.8376
431.9335, 106.6457
432.4156, 106.6988
432.8977, 107.3764
433.3799, 108.5394
433.8620, 109.8297
434.3441, 111.0787
434.8262, 112.2510
435.3083, 113.2625
435.7904, 114.1531
436.2726, 114.7563
436.7547, 114.5270
437.2368, 114.2433
437.7189, 114.7194
438.2010, 116.1488
438.6831, 117.6972
439.1653, 118.4212
439.6474, 118.5566
440.1295, 119.5414
440.6116, 122.0025
441.0937, 124.5501
441.5758, 125.5778
442.0580, 125.6330
442.5401, 126.4604
443.0222, 128.9584
443.5043, 132.1515
443.9864, 135.2800
444.4685, 138.3027
444.9507, 140.9161
445.4328, 142.6818
445.9149, 144.2589
446.3970, 147.1640
446.8791, 151.5396
447.3612, 156.4467
447.8434, 161.8268
448.3255, 167.5155
448.8076, 173.5173
449.2897, 179.8042
449.7718, 185.6917
450.2539, 190.2616
450.7361, 193.3979
451.2182, 198.6583
451.7003, 208.7959
452.1824, 217.7230
452.6645, 223.2076
453.1466, 226.0312
453.6288, 227.4374
454.1109, 227.9732
454.5930, 227.7772
455.0751, 227.0542
455.5572, 225.2829
456.0393, 224.0099
456.5215, 222.7658
457.0036, 222.3179
457.4857, 223.5844
457.9678, 226.1549
458.4499, 228.6433
458.9320, 229.8919
459.4142, 230.2014
459.8963, 231.5420
460.3784, 235.1753
460.8605, 237.5343
461.3426, 236.8154
461.8247, 235.0237
462.3069, 234.1327
462.7890, 234.6346
463.2711, 235.5288
463.7532, 235.8022
464.2353, 235.4995
464.7174, 235.2866
465.1996, 235.5219
465.6817, 235.3814
466.1638, 234.0648
466.6459, 231.9451
467.1280, 229.9338
467.6101, 228.4453
468.0923, 227.0956
468.5744, 225.6094
469.0565, 223.9507
469.5386, 221.9433
470.0207, 219.6746
470.5028, 216.8074
470.9850, 212.7604
471.4671, 207.5820
471.9492, 201.5046
472.4313, 193.9067
472.9134, 185.8047
473.3955, 178.1351
473.8777, 171.0415
474.3598, 164.4291
474.8419, 158.2953
475.3240, 152.6035
475.8061, 147.1376
476.2882, 141.7716
476.7704, 136.7252
477.2525, 131.6864
477.7346, 127.1618
478.2167, 123.9566
478.6988, 122.1962
479.1809, 121.1170
479.6631, 119.7555
480.1452, 118.0767
480.6273, 116.3311
481.1094, 114.3359
481.5915, 112.4696
482.0736, 110.8184
482.5558, 109.3916
483.0379, 108.1968
483.5200, 107.2416
484.0021, 106.4663
484.4842, 105.8068
484.9663, 105.3183
485.4485, 104.6654
485.9306, 103.4517
486.4127, 102.3455
486.8948, 101.8502
487.3769, 101.9023
487.8590, 102.0486
488.3412, 102.2449
488.8233, 102.2995
489.3054, 101.6526
489.7875, 100.2119
490.2696, 99.02098
490.7517, 98.79155
491.2339, 99.05967
491.7160, 98.83275
492.1981, 97.94211
492.6802, 97.05705
493.1623, 96.36410
493.6444, 95.88957
494.1266, 95.71831
494.6087, 95.85812
495.0908, 96.15009
495.5729, 96.50220
496.0550, 96.90779
496.5371, 97.07459
497.0193, 96.89197
497.5014, 96.64008
497.9835, 96.33043
498.4656, 96.02838
498.9477, 95.87318
499.4298, 95.89500
499.9120, 95.88818
500.3941, 95.50037
500.8762, 94.53119
501.3583, 93.97224
501.8404, 94.06319
502.3225, 94.32338
502.8047, 94.83804
503.2868, 95.36075
503.7689, 95.43755
504.2510, 94.79988
504.7331, 93.81717
505.2152, 93.12272
505.6974, 92.72544
506.1795, 92.56242
506.6616, 92.83095
507.1437, 93.13853
507.6258, 93.09413
508.1079, 92.78192
508.5901, 92.68484
509.0722, 93.46019
509.5543, 94.37620
510.0364, 94.13083
510.5185, 92.74106
511.0006, 91.60358
511.4828, 91.40147
511.9649, 91.82731
512.4470, 92.30960
512.9291, 92.97572
513.4112, 93.28978
513.8933, 92.79979
514.3754, 92.07790
514.8575, 91.68936
515.3397, 91.68639
515.8218, 91.91075
516.3039, 92.30011
516.7860, 92.78765
517.2681, 92.88593
517.7502, 91.97396
518.2324, 91.44862
518.7145, 91.86799
519.1966, 92.46737
519.6787, 92.43651
520.1608, 91.69903
520.6429, 90.85433
521.1251, 90.48555
521.6072, 90.58195
522.0893, 90.84588
522.5714, 91.55458
523.0535, 91.97818
523.5356, 91.77888
524.0178, 91.24120
524.4999, 90.64075
524.9820, 90.03294
525.4641, 89.50703
525.9462, 89.07536
526.4283, 88.77760
526.9105, 88.85100
527.3926, 89.43700
527.8747, 90.07108
528.3568, 90.37325
528.8389, 90.42584
529.3210, 90.52359
529.8032, 90.85589
530.2853, 91.05478
530.7674, 90.80598
531.2495, 90.30084
531.7316, 89.92703
532.2137, 89.79737
532.6959, 89.72200
533.1780, 89.40137
533.6601, 88.68489
534.1422, 88.70025
534.6243, 90.46471
535.1064, 91.73708
535.5886, 91.25456
536.0707, 89.85340
536.5528, 88.77748
537.0349, 88.53453
537.5170, 88.89655
537.9991, 89.71716
538.4813, 91.23906
538.9634, 91.94588
539.4455, 91.13993
539.9276, 90.17892
540.4097, 89.51622
540.8918, 89.18114
541.3740, 89.24133
541.8561, 89.87157
542.3382, 90.58982
542.8203, 90.83002
543.3024, 90.61769
543.7845, 90.10652
544.2667, 89.12828
544.7488, 88.26820
545.2309, 88.37526
545.7130, 89.32407
546.1951, 89.98055
546.6772, 90.09318
547.1594, 89.93896
547.6415, 89.44530
548.1236, 88.83505
548.6057, 88.72834
549.0878, 89.39754
549.5699, 90.29016
550.0521, 90.45227
550.5342, 89.50654
551.0163, 88.98138
551.4984, 89.28838
551.9805, 89.53300
552.4626, 89.14443
552.9448, 88.43508
553.4269, 88.07814
553.9090, 88.41421
554.3911, 89.01591
554.8732, 89.07042
555.3553, 88.46257
555.8375, 88.09922
556.3196, 88.16640
556.8017, 88.43462
557.2838, 88.96012
557.7659, 89.56549
558.2480, 89.72607
558.7302, 88.98315
559.2123, 88.04408
559.6944, 87.58405
560.1765, 87.54680
560.6586, 87.75707
561.1407, 88.23742
561.6229, 88.69090
562.1050, 88.69658
562.5871, 88.15691
563.0692, 87.85857
563.5513, 88.35001
564.0334, 88.54146
564.5156, 87.30543
564.9977, 85.49440
565.4798, 84.78423
565.9619, 85.82648
566.4440, 87.64337
566.9261, 88.69416
567.4083, 88.79774
567.8904, 88.86823
568.3725, 88.90749
568.8546, 88.90736
569.3367, 88.77914
569.8188, 88.63094
570.3010, 88.70848
570.7831, 89.16611
571.2652, 89.53883
571.7473, 89.04495
572.2294, 87.84281
572.7115, 87.31300
573.1937, 87.91997
573.6758, 88.61678
574.1579, 88.35583
574.6400, 87.42808
575.1221, 86.98297
575.6042, 87.50862
576.0864, 88.10505
576.5685, 88.40297
577.0506, 88.45739
577.5327, 88.29874
578.0148, 87.94983
578.4969, 87.56557
578.9791, 87.28459
579.4612, 87.09953
579.9433, 87.20786
580.4254, 88.10084
580.9075, 88.70926
581.3896, 88.57256
581.8718, 88.19482
582.3539, 88.17921
582.8360, 88.63669
583.3181, 89.13660
583.8002, 89.23090
584.2823, 88.97255
584.7645, 88.72380
585.2466, 88.43553
585.7287, 88.30573
586.2108, 88.60956
586.6929, 89.04790
587.1750, 89.11333
587.6572, 88.63560
588.1393, 88.37914
588.6214, 88.90483
589.1035, 89.74297
589.5856, 90.35707
590.0677, 90.67180
590.5499, 90.61186
591.0320, 90.04464
591.5141, 89.18949
591.9962, 88.87325
592.4783, 89.78329
592.9604, 90.27499
593.4426, 89.88915
593.9247, 89.44985
594.4068, 89.60598
594.8889, 90.25082
595.3710, 90.80574
595.8531, 90.82396
596.3353, 90.66460
596.8174, 91.39468
597.2995, 93.28886
597.7816, 94.42232
598.2637, 93.82800
598.7458, 92.90891
599.2280, 92.74725
599.7101, 93.29219
600.1922, 94.26955
600.6743, 96.20140
601.1564, 98.00522
601.6385, 98.44487
602.1207, 97.99263
602.6028, 98.10296
603.0849, 99.27544
603.5670, 100.9214
604.0491, 102.2771
604.5313, 103.2470
605.0134, 104.5283
605.4955, 106.3278
605.9776, 108.1605
606.4597, 109.8045
606.9418, 111.4278
607.4240, 113.1824
607.9061, 115.1266
608.3882, 117.3381
608.8703, 119.8242
609.3524, 122.5992
609.8345, 125.9903
610.3167, 130.1242
610.7988, 134.5502
611.2809, 138.9857
611.7630, 143.6204
612.2451, 148.6968
612.7272, 154.1922
613.2094, 160.2813
613.6915, 167.6967
614.1736, 175.4005
614.6557, 182.1290
615.1378, 187.8294
615.6199, 192.8522
616.1021, 197.4264
616.5842, 201.3823
617.0663, 204.0925
617.5484, 204.0276
618.0305, 205.3672
618.5126, 208.2891
618.9948, 212.3009
619.4769, 217.4151
619.9590, 223.3677
620.4411, 229.8991
620.9232, 237.1804
621.4053, 243.9388
621.8875, 248.0928
622.3696, 249.6660
622.8517, 250.2365
623.3338, 250.0849
623.8159, 248.8980
624.2980, 245.1498
624.7802, 240.0247
625.2623, 237.5424
625.7444, 238.3376
626.2265, 241.6250
626.7086, 247.2461
627.1907, 255.0504
627.6729, 265.5522
628.1550, 278.5144
628.6371, 291.9822
629.1192, 304.6403
629.6013, 316.1494
630.0834, 323.4029
630.5656, 326.7986
631.0477, 324.9346
631.5298, 315.9245
632.0119, 303.6403
632.4940, 290.3049
632.9761, 276.3264
633.4583, 261.6384
633.9404, 245.5683
634.4225, 229.2999
634.9046, 214.8564
635.3867, 202.0861
635.8688, 189.6169
636.3510, 176.7957
636.8331, 164.6350
637.3152, 154.4646
637.7973, 146.4499
638.2794, 138.4105
638.7615, 129.3529
639.2437, 121.3062
639.7258, 115.2941
640.2079, 110.6856
640.6900, 106.6871
641.1721, 103.0349
641.6542, 99.85035
642.1364, 97.31036
642.6185, 95.37395
643.1006, 93.56837
643.5827, 91.83440
644.0648, 90.37511
644.5469, 89.48471
645.0291, 88.77128
645.5112, 87.88554
645.9933, 86.80501
646.4754, 85.72038
646.9575, 84.67448
647.4396, 83.70409
647.9218, 82.85996
648.4039, 82.12859
648.8860, 81.44161
649.3681, 80.76396
649.8502, 80.14611
650.3323, 79.64313
650.8145, 79.21893
651.2966, 79.08566
651.7787, 79.75468
652.2608, 80.11372
652.7429, 79.34884
653.2250, 78.30020
653.7072, 78.18660
654.1893, 79.26973
654.6714, 80.43775
655.1535, 80.63222
655.6356, 80.07600
656.1177, 79.39537
656.5999, 78.55544
657.0820, 78.10306
657.5641, 78.50435
658.0462, 79.24205
658.5283, 79.23428
659.0104, 78.27769
659.4926, 77.75960
659.9747, 78.36119
660.4568, 78.99476
660.9389, 78.85123
661.4210, 78.23116
661.9031, 77.81174
662.3853, 77.85880
662.8674, 78.15584
663.3495, 78.44765
663.8316, 78.74245
664.3137, 78.92378
664.7958, 79.11198
665.2780, 78.96416
665.7601, 77.74995
666.2422, 76.39400
666.7243, 76.10442
667.2064, 77.12184
667.6885, 78.18263
668.1707, 78.89300
668.6528, 79.21203
669.1349, 78.86475
669.6170, 78.02704
670.0991, 77.41353
670.5812, 77.36476
671.0634, 77.64922
671.5455, 77.90300
672.0276, 78.18779
672.5097, 78.20030
672.9918, 77.60408
673.4739, 77.10207
673.9561, 76.92513
674.4382, 76.95671
674.9203, 77.19243
675.4024, 77.62535
675.8845, 77.64390
676.3666, 76.09260
676.8488, 73.95724
677.3309, 73.74676
677.8130, 75.53172
678.2951, 76.89476
678.7772, 76.60058
679.2593, 75.43101
679.7415, 74.75748
680.2236, 74.63937
680.7057, 74.91808
681.1878, 76.14106
681.6699, 77.16707
682.1520, 77.40885
682.6342, 77.15038
683.1163, 76.80660
683.5984, 76.51579
684.0805, 76.26366
684.5626, 75.99812
685.0447, 75.74739
685.5269, 75.64040
686.0090, 75.66147
686.4911, 75.96992
686.9732, 76.93824
687.4553, 77.95757
687.9374, 77.89922
688.4196, 76.65148
688.9017, 75.63423
689.3838, 74.96256
689.8659, 74.68047
690.3480, 75.10320
690.8301, 75.84849
691.3123, 76.15958
691.7944, 75.84381
692.2765, 75.60952
692.7586, 76.48301
693.2407, 78.32368
693.7228, 79.02026
694.2050, 78.17150
694.6871, 77.26298
695.1692, 76.68541
695.6513, 76.38950
696.1334, 76.33157
696.6155, 76.50877
697.0977, 76.80952
697.5798, 77.36031
698.0619, 77.87401
698.5440, 78.18377
699.0261, 78.28957
699.5082, 78.07076
699.9904, 77.53712
700.4725, 77.16336
700.9546, 77.52482
701.4367, 78.55647
701.9188, 79.28128
702.4009, 79.64185
702.8831, 79.80360
703.3652, 79.37192
703.8473, 79.08720
704.3294, 79.57626
704.8115, 80.77705
705.2936, 82.11798
705.7758, 83.46914
706.2579, 84.77338
706.7400, 85.84438
707.2221, 86.86317
707.7042, 88.55287
708.1863, 90.99848
708.6685, 92.90120
709.1505, 93.02348
709.6326, 91.56847
710.1147, 90.02296
710.5969, 88.37180
711.0790, 86.66365
711.5611, 85.00973
712.0432, 83.20717
712.5253, 80.75218
713.0074, 78.02453
713.4896, 76.20923
713.9717, 76.06784
714.4538, 76.40762
714.9359, 76.14170
715.4180, 75.56213
715.9001, 75.42866
716.3823, 75.83422
716.8644, 76.18437
717.3465, 76.06883
717.8286, 75.53163
718.3107, 74.64063
718.7928, 72.51118
719.2750, 71.74561
719.7571, 73.81010
720.2392, 75.77599
720.7213, 75.97612
721.2034, 75.06232
721.6855, 74.44026
722.1677, 74.62085
722.6498, 74.86829
723.1319, 74.33144
723.6140, 73.49462
724.0961, 73.57998
724.5782, 74.58615
725.0604, 75.14771
725.5425, 74.43800
726.0246, 73.12166
726.5067, 72.57304
726.9888, 73.09809
727.4709, 73.46399
727.9531, 73.58659
728.4352, 73.64935
728.9173, 73.59444
729.3994, 73.56966
729.8815, 73.85782
730.3636, 74.49950
730.8458, 74.96519
731.3279, 74.71714
731.8100, 74.14489
732.2921, 73.91560
732.7742, 73.98275
733.2563, 73.92464
733.7385, 73.57057
734.2206, 73.16869
734.7027, 73.08049
735.1848, 73.35297
735.6669, 73.22206
736.1490, 72.03888
736.6312, 71.29002
737.1133, 71.66841
737.5954, 72.23796
738.0775, 71.96839
738.5596, 70.99854
739.0417, 70.51833
739.5239, 71.45555
740.0060, 72.77843
740.4881, 73.37402
740.9702, 73.37138
741.4523, 73.00968
741.9344, 72.34454
742.4166, 71.89034
742.8987, 72.10939
743.3808, 72.86894
743.8629, 73.54016
744.3450, 74.40797
744.8271, 74.64845
745.3093, 73.77873
745.7914, 72.74173
746.2735, 71.74999
746.7556, 71.02370
747.2377, 71.03188
747.7198, 72.10356
748.2020, 73.14014
748.6841, 73.21156
749.1662, 72.73473
749.6483, 72.28673
750.1304, 71.96294
750.6125, 72.03443
751.0947, 72.69810
751.5768, 73.47267
752.0589, 73.42952
752.5410, 72.31801
753.0231, 71.58243
753.5052, 71.55733
753.9874, 71.46537
754.4695, 70.75319
754.9516, 70.04926
755.4337, 70.18295
755.9158, 71.20259
756.3979, 72.05985
756.8801, 71.99774
757.3622, 71.77928
757.8443, 72.35823
758.3264, 73.33456
758.8085, 73.69062
759.2906, 73.17953
759.7728, 72.29069
760.2549, 71.42106
760.7370, 70.64007
761.2191, 70.48267
761.7012, 71.29924
762.1833, 71.78862
762.6655, 71.49023
763.1476, 71.04787
763.6297, 70.85173
764.1118, 70.85867
764.5939, 70.96713
765.0760, 71.32113
765.5582, 71.43737
766.0403, 70.75039
766.5224, 69.92369
767.0045, 69.79822
767.4866, 70.26926
767.9688, 70.66714
768.4509, 70.65028
768.9330, 70.43034
769.4151, 70.38837
769.8972, 70.53825
770.3793, 70.43758
770.8615, 69.96547
771.3436, 69.54993
771.8257, 69.39610
772.3078, 69.38985
772.7899, 69.34341
773.2720, 69.24303
773.7542, 69.27406
774.2363, 69.37517
774.7184, 69.71491
775.2005, 70.64354
775.6826, 71.72807
776.1647, 72.40826
776.6469, 72.59573
777.1290, 72.54723
777.6111, 72.44374
778.0932, 72.25917
778.5753, 71.86180
779.0574, 71.26475
779.5396, 70.90020
780.0217, 70.91006
780.5038, 70.93098
780.9859, 70.62840
781.4680, 70.11601
781.9501, 69.89188
782.4323, 70.11523
782.9144, 70.35759
783.3965, 70.79594
783.8786, 71.05573
784.3607, 70.77179
784.8428, 70.20438
785.3250, 69.84171
785.8071, 69.83854
786.2892, 69.87548
786.7713, 69.74821
787.2534, 69.44884
787.7355, 68.77901
788.2177, 67.84090
788.6998, 67.39386
789.1819, 67.75280
789.6640, 68.32777
790.1461, 68.35606
790.6282, 67.84202
791.1104, 67.78695
791.5925, 68.41477
792.0746, 69.12926
792.5567, 70.17091
793.0388, 70.96973
793.5209, 70.98248
794.0031, 70.39464
794.4852, 69.86958
794.9673, 69.62510
795.4494, 69.43766
795.9315, 69.07021
796.4136, 68.73723
796.8958, 68.76250
797.3779, 69.11137
797.8600, 69.56675
798.3421, 70.02487
798.8242, 70.34603
799.3063, 70.26345
799.7885, 69.76369
800.2706, 69.16508
800.7527, 68.30824
801.2348, 67.86717
801.7169, 68.27088
802.1990, 69.07863
802.6812, 69.85512
803.1633, 70.61752
803.6454, 70.79633
804.1275, 69.66736
804.6096, 68.76675
805.0917, 68.91538
805.5739, 69.40154
806.0560, 69.42081
806.5381, 68.99943
807.0202, 68.73972
807.5023, 69.05434
807.9844, 69.49748
808.4666, 69.38966
808.9487, 68.87294
809.4308, 68.48915
809.9129, 68.30194
810.3950, 68.22472
810.8771, 68.22369
811.3593, 68.26309
811.8414, 68.26225
812.3235, 68.18352
812.8056, 68.20522
813.2877, 68.34657
813.7698, 68.56844
814.2520, 69.11121
814.7341, 69.56424
815.2162, 69.38161
815.6983, 68.59616
816.1804, 67.96315
816.6625, 67.83161
817.1447, 67.91486
817.6268, 68.07221
818.1089, 68.27567
818.5910, 68.46344
819.0731, 68.64220
819.5552, 68.93299
820.0374, 69.44576
820.5195, 69.95962
821.0016, 69.93259
821.4837, 69.34383
821.9658, 69.00797
822.4479, 69.06612
822.9301, 69.09238
823.4122, 68.84249
823.8943, 68.45852
824.3764, 68.13557
824.8585, 67.81762
825.3406, 67.86429
825.8228, 68.76952
826.3049, 69.45671
826.7870, 69.44423
827.2691, 69.10957
827.7512, 68.87273
828.2333, 68.74152
828.7155, 68.36305
829.1976, 67.20772
829.6797, 66.36266
830.1618, 67.75127
830.6439, 70.24332
831.1260, 70.89619
831.6082, 69.52614
832.0903, 68.08630
832.5724, 67.69188
833.0545, 67.90549
833.5366, 67.85115
834.0187, 67.44215
834.5009, 67.40484
834.9830, 67.97771
835.4651, 68.43852
835.9472, 68.43430
836.4293, 68.26230
836.9114, 68.27884
837.3936, 68.47000
837.8757, 68.54299
838.3578, 68.41497
838.8399, 68.20894
839.3220, 67.90137
839.8041, 67.58788
840.2863, 67.28133
840.7684, 67.05643
841.2505, 67.12289
841.7326, 67.61374
842.2147, 68.20432
842.6968, 68.66933
843.1790, 68.90120
843.6611, 68.35768
844.1432, 67.09492
844.6253, 66.27978
845.1074, 66.42969
845.5895, 67.07196
846.0717, 67.65180
846.5538, 68.16891
847.0359, 68.19855
847.5180, 67.30482
848.0001, 66.78223
848.4822, 67.20200
848.9644, 67.77531
849.4465, 67.97096
849.9286, 67.88155
850.4107, 67.82359
850.8928, 67.93607
851.3749, 67.88155
851.8571, 67.37078
852.3392, 66.79563
852.8213, 66.45118
853.3034, 66.30389
853.7855, 66.20960
854.2676, 66.13045
854.7498, 66.20080
855.2319, 66.71822
855.7140, 67.38896
856.1961, 67.33427
856.6782, 66.71092
857.1603, 66.77349
857.6425, 67.87413
858.1246, 69.01407
858.6067, 69.38255
859.0888, 69.10762
859.5709, 68.61491
860.0530, 67.68974
860.5352, 67.12251
861.0173, 67.16232
861.4994, 67.27377
861.9815, 67.34417
862.4636, 67.28297
862.9457, 66.87235
863.4279, 66.06731
863.9100, 65.50227
864.3921, 65.47025
864.8742, 65.56151
865.3563, 65.48495
865.8384, 65.45644
866.3206, 65.83475
866.8027, 66.55409
867.2848, 67.22478
867.7669, 67.66222
868.2490, 67.80007
868.7311, 67.30437
869.2133, 66.47281
869.6954, 66.30286
870.1775, 66.80222
870.6596, 66.99201
871.1417, 66.39483
871.6238, 65.59755
872.1060, 65.44417
872.5881, 65.92979
873.0702, 66.19454
873.5523, 66.09517
874.0344, 66.16839
874.5165, 66.88557
874.9987, 67.40850
875.4808, 66.66306
875.9629, 65.18211
876.4450, 64.60299
876.9271, 65.46747
877.4092, 66.27142
877.8914, 66.85742
878.3735, 67.15697
878.8556, 66.99544
879.3377, 66.58056
879.8198, 66.10101
880.3019, 65.65290
880.7841, 65.57883
881.2662, 66.55604
881.7483, 67.60789
882.2304, 67.27583
882.7125, 66.12187
883.1946, 65.39272
883.6768, 65.31456
884.1589, 65.82878
884.6410, 66.98375
885.1231, 68.15620
885.6052, 67.87074
886.0873, 66.07228
886.5695, 65.01826
887.0516, 64.82426
887.5337, 65.18820
888.0158, 66.27213
888.4979, 67.41599
888.9800, 67.77180
889.4622, 67.34221
889.9443, 67.11334
890.4264, 67.30573
890.9085, 67.37936
891.3906, 67.21725
891.8727, 66.98895
892.3549, 66.68740
892.8370, 66.42885
893.3191, 66.47417
893.8012, 66.92644
894.2833, 67.27800
894.7654, 67.18152
895.2476, 66.97739
895.7297, 66.95509
896.2118, 67.02559
896.6939, 66.98202
897.1760, 66.81749
897.6581, 66.77623
898.1403, 67.09953
898.6224, 67.42070
899.1045, 66.89113
899.5866, 65.80249
900.0687, 65.55824
900.5508, 66.26801
901.0330, 66.95022
901.5151, 67.14040
901.9972, 67.10452
902.4793, 67.25996
902.9614, 67.60737
903.4435, 67.52608
903.9257, 66.65733
904.4078, 66.34900
904.8899, 67.42981
905.3720, 68.43215
905.8541, 67.85332
906.3362, 66.33366
906.8184, 65.90746
907.3005, 67.17001
907.7826, 68.13925
908.2647, 68.62835
908.7468, 68.71187
909.2289, 68.05672
909.7111, 67.23132
910.1932, 67.06712
910.6753, 67.54498
911.1574, 67.68376
911.6395, 66.53339
912.1216, 65.58287
912.6038, 66.46181
913.0859, 68.04272
913.5680, 68.79667
914.0501, 68.68648
914.5322, 68.22498
915.0143, 67.64676
915.4965, 67.13712
915.9786, 66.87209
916.4607, 66.86452
916.9428, 67.33304
917.4249, 68.21708
917.9070, 68.59622
918.3892, 68.21259
918.8713, 67.68037
919.3534, 67.47940
919.8355, 67.50883
920.3176, 67.46901
920.7997, 67.34853
921.2819, 67.17165
921.7640, 66.76048
922.2461, 66.66289
922.7282, 67.45573
923.2103, 68.36862
923.6924, 68.30522
924.1746, 67.33247
924.6567, 66.71076
925.1388, 66.73834
925.6209, 66.77238
926.1030, 66.49635
926.5851, 66.38646
927.0673, 67.00365
927.5494, 67.93913
928.0315, 68.36876
928.5136, 68.07784
928.9957, 67.87286
929.4778, 68.28087
929.9600, 68.83858
930.4421, 69.36235
930.9242, 69.69156
931.4063, 69.46138
931.8884, 68.76768
932.3705, 68.14259
932.8527, 67.86372
933.3348, 67.90424
933.8169, 68.33298
934.2990, 69.02854
934.7811, 69.74522
935.2632, 70.43083
935.7454, 70.78505
936.2275, 70.70766
936.7096, 70.59161
937.1917, 70.87819
937.6738, 71.35472
938.1559, 71.03309
938.6381, 69.73476
939.1202, 69.26431
939.6023, 70.16144
940.0844, 70.60796
940.5665, 69.26564
941.0486, 67.53297
941.5308, 67.81580
942.0129, 70.39821
942.4950, 71.86072
942.9771, 71.47982
943.4592, 71.06996
943.9413, 70.89314
944.4235, 70.75433
944.9056, 70.38744
945.3877, 70.00099
945.8698, 70.08279
946.3519, 70.78139
946.8340, 71.54198
947.3162, 72.59253
947.7983, 73.24770
948.2804, 72.80550
948.7625, 71.99835
949.2446, 71.73199
949.7267, 71.95824
950.2089, 71.95770
950.6910, 71.31587
951.1731, 70.69971
951.6552, 70.64634
952.1373, 70.90312
952.6194, 71.27989
953.1016, 71.67492
953.5837, 71.86629
954.0658, 71.82390
954.5479, 71.83110
955.0300, 72.15518
955.5121, 72.59980
955.9943, 72.65866
956.4763, 72.51436
956.9584, 73.09256
957.4406, 74.41289
957.9227, 75.26631
958.4048, 75.06556
958.8869, 74.56696
959.3690, 74.79236
959.8511, 75.64188
960.3333, 76.21404
960.8154, 76.38939
961.2975, 77.28986
961.7796, 79.39465
962.2617, 81.23248
962.7438, 81.58616
963.2260, 81.35281
963.7081, 82.56700
964.1902, 85.67955
964.6723, 87.82033
965.1544, 88.22739
965.6365, 88.92248
966.1187, 90.56267
966.6008, 92.46269
967.0829, 93.88688
967.5650, 95.15649
968.0471, 97.26254
968.5292, 100.4320
969.0114, 103.9850
969.4935, 107.6658
969.9756, 111.9285
970.4577, 116.3790
970.9398, 121.9440
971.4219, 129.4953
971.9041, 139.1235
972.3862, 150.7405
972.8683, 164.6339
973.3504, 179.7027
973.8325, 195.7304
974.3146, 212.4646
974.7968, 229.6097
975.2789, 247.2540
975.7610, 265.5053
976.2431, 284.4031
976.7252, 304.2355
977.2073, 325.2283
977.6895, 346.9851
978.1716, 369.5049
978.6537, 392.2180
979.1358, 412.9190
979.6179, 433.0786
980.1000, 457.1750
980.5822, 487.1384
981.0643, 523.7209
981.5464, 566.8509
982.0285, 617.7823
982.5106, 678.0449
982.9927, 747.7528
983.4749, 826.4352
983.9570, 914.2953
984.4391, 1019.535
984.9212, 1146.058
985.4033, 1293.223
985.8854, 1463.627
986.3676, 1654.526
986.8497, 1841.876
987.3318, 2028.009
987.8139, 2181.708
988.2960, 2295.012
988.7781, 2387.279
989.2603, 2479.031
989.7424, 2545.459
990.2245, 2541.546
990.7066, 2471.441
991.1887, 2285.057
991.6708, 1931.221
992.1530, 1578.460
992.6351, 1240.327
993.1172, 949.5991
993.5993, 734.2299
994.0814, 583.3419
994.5635, 466.6568
995.0457, 391.0026
995.5278, 330.6381
996.0099, 290.7835
996.4920, 258.8639
996.9741, 234.3139
997.4562, 214.2829
997.9384, 196.9736
998.4205, 182.1672
998.9026, 169.7487
999.3847, 160.1152
999.8668, 151.9506
1000.349, 145.8883
1000.831, 140.2142
1001.313, 133.9171
1001.795, 127.7188
1002.277, 122.1808
1002.760, 117.5025
1003.242, 113.9855
1003.724, 112.0669
1004.206, 110.5383
1004.688, 109.0218
1005.170, 107.4962
1005.652, 106.0729
1006.134, 104.5532
1006.616, 102.5091
1007.099, 100.0057
1007.581, 97.67104
1008.063, 95.72740
1008.545, 94.24580
1009.027, 93.73484
1009.509, 93.36397
1009.991, 92.10803
1010.473, 90.18755
1010.956, 88.04250
1011.438, 85.90349
1011.920, 84.32137
1012.402, 83.82606
1012.884, 83.65055
1013.366, 82.91910
1013.848, 81.79737
1014.330, 80.41434
1014.812, 78.93456
1015.295, 77.85134
1015.777, 77.29436
1016.259, 76.95642
1016.741, 76.61402
1017.223, 76.23325
1017.705, 75.62907
1018.187, 74.94044
1018.669, 74.88644
1019.151, 75.36871
1019.634, 75.16722
1020.116, 73.84330
1020.598, 72.25877
1021.080, 71.22534
1021.562, 70.73330
1022.044, 70.95236
1022.526, 71.79310
1023.008, 72.27194
1023.491, 72.29283
1023.973, 72.42534
1024.455, 72.96056
1024.937, 73.15288
1025.419, 71.97621
1025.901, 69.88853
1026.383, 69.09431
1026.865, 69.68473
1027.348, 70.21635
1027.830, 70.57201
1028.312, 70.71333
1028.794, 70.59428
1029.276, 70.34517
1029.758, 70.12237
1030.240, 69.92062
1030.722, 69.74987
1031.204, 69.69816
1031.687, 69.20910
1032.169, 67.99252
1032.651, 67.05669
1033.133, 66.98649
1033.615, 67.22580
1034.097, 67.02876
1034.579, 66.43804
1035.061, 66.11420
1035.543, 66.07778
1036.026, 66.29443
1036.508, 67.02203
1036.990, 67.50748
1037.472, 67.26488
1037.954, 66.73570
1038.436, 66.48064
1038.918, 66.49163
1039.400, 66.52852
1039.883, 66.52193
1040.365, 66.68075
1040.847, 67.31960
1041.329, 67.71974
1041.811, 67.34384
1042.293, 66.70959
1042.775, 66.45416
1043.257, 66.57268
1043.740, 66.83371
1044.222, 67.87040
1044.704, 68.07161
1045.186, 66.41139
1045.668, 65.00017
1046.150, 64.97812
1046.632, 65.56206
1047.114, 65.81078
1047.596, 65.72766
1048.078, 65.81190
1048.561, 66.45951
1049.043, 66.73741
1049.525, 66.05335
1050.007, 65.53121
1050.489, 66.01045
1050.971, 66.74844
1051.453, 66.68349
1051.935, 65.90368
1052.418, 65.63394
1052.900, 66.35326
1053.382, 67.10570
1053.864, 67.82474
1054.346, 68.40843
1054.828, 68.69743
1055.310, 68.89510
1055.792, 69.32455
1056.275, 69.92604
1056.757, 70.18361
1057.239, 69.60966
1057.721, 69.46724
1058.203, 70.34713
1058.685, 71.46413
1059.167, 72.50973
1059.649, 73.46715
1060.131, 74.44685
1060.614, 75.37095
1061.096, 75.85586
1061.578, 75.54465
1062.060, 75.46426
1062.542, 76.14696
1063.024, 76.94521
1063.506, 77.41840
1063.988, 77.85922
1064.470, 78.56396
1064.953, 79.56682
1065.435, 80.71559
1065.917, 81.72679
1066.399, 83.80515
1066.881, 88.05487
1067.363, 92.78114
1067.845, 97.89540
1068.327, 102.2993
1068.810, 104.5568
1069.292, 105.0552
1069.774, 105.1440
1070.256, 104.9696
1070.738, 105.6881
1071.220, 107.3636
1071.702, 110.5843
1072.184, 116.0488
1072.667, 122.9451
1073.149, 130.6342
1073.631, 138.9306
1074.113, 147.5340
1074.595, 156.3024
1075.077, 165.8460
1075.559, 174.5712
1076.041, 186.3144
1076.523, 200.7982
1077.005, 221.3258
1077.488, 247.2416
1077.970, 282.9450
1078.452, 342.4248
1078.934, 428.8405
1079.416, 505.2923
1079.898, 581.9417
1080.380, 611.3843
1080.862, 546.2222
1081.344, 443.8358
1081.827, 336.6006
1082.309, 239.1744
1082.791, 170.6982
1083.273, 133.5940
1083.755, 111.3859
1084.237, 103.6331
1084.719, 99.78200
1085.201, 96.14492
1085.684, 93.18015
1086.166, 91.35053
1086.648, 90.39696
1087.130, 89.94059
1087.612, 89.91460
1088.094, 90.38435
1088.576, 91.45663
1089.058, 92.85801
1089.541, 94.78626
1090.023, 96.67628
1090.505, 98.00228
1090.987, 99.12946
1091.469, 100.3074
1091.951, 101.7561
1092.433, 104.3160
1092.915, 109.0589
1093.397, 112.4972
1093.880, 113.0472
1094.362, 112.1334
1094.844, 109.5634
1095.326, 106.7220
1095.808, 105.3020
1096.290, 104.9009
1096.772, 103.7595
1097.254, 101.2795
1097.736, 99.00751
1098.219, 96.72133
1098.701, 95.70507
1099.183, 97.48830
1099.665, 99.96384
1100.147, 101.0776
1100.629, 101.4311
1101.111, 102.6904
1101.593, 105.1900
1102.076, 107.8743
1102.558, 111.1479
1103.040, 113.6420
1103.522, 113.8352
1104.004, 114.2011
1104.486, 116.6243
1104.968, 120.3162
1105.450, 123.8592
1105.932, 127.1174
1106.415, 130.8442
1106.897, 135.4428
1107.379, 140.1097
1107.861, 144.4411
1108.343, 149.0809
1108.825, 154.2144
1109.307, 159.9616
1109.789, 166.4157
1110.271, 173.5708
1110.754, 181.6715
1111.236, 191.8656
1111.718, 200.7448
1112.200, 207.7765
1112.682, 213.7777
1113.164, 219.9376
1113.646, 224.4949
1114.128, 225.7970
1114.611, 224.2232
1115.093, 221.0981
1115.575, 216.6088
1116.057, 209.9464
1116.539, 199.5235
1117.021, 189.3017
1117.503, 179.5697
1117.985, 170.8014
1118.468, 163.1653
1118.950, 156.8275
1119.432, 152.1519
1119.914, 149.1853
1120.396, 147.3824
1120.878, 147.4096
1121.360, 147.2487
1121.842, 147.2670
1122.324, 145.9394
1122.807, 142.2196
1123.289, 137.1430
1123.771, 131.7800
1124.253, 126.2304
1124.735, 121.2193
1125.217, 116.5834
1125.699, 112.9667
1126.181, 110.5148
1126.663, 108.7124
1127.146, 107.3609
1127.628, 106.6592
1128.110, 106.7903
1128.592, 107.7221
1129.074, 109.4792
1129.556, 112.1467
1130.038, 114.6785
1130.520, 117.1031
1131.003, 119.2362
1131.485, 121.1031
1131.967, 122.2736
1132.449, 122.4688
1132.931, 121.8303
1133.413, 120.6640
1133.895, 118.8668
1134.377, 115.5427
1134.859, 110.7110
1135.342, 105.4228
1135.824, 99.84081
1136.306, 95.16904
1136.788, 91.94086
1137.270, 89.73835
1137.752, 88.32872
1138.234, 87.23680
1138.716, 85.02882
1139.198, 82.10020
1139.681, 80.12357
1140.163, 79.14235
1140.645, 78.93311
1141.127, 79.31415
1141.609, 79.30400
1142.091, 78.17918
1142.573, 76.68307
1143.055, 75.89965
1143.538, 75.47254
1144.020, 74.56448
1144.502, 73.43928
1144.984, 73.07960
1145.466, 73.30590
1145.948, 72.55598
1146.430, 70.19803
1146.912, 68.17879
1147.395, 68.57878
1147.877, 69.76860
1148.359, 70.02058
1148.841, 69.81585
1149.323, 69.70824
1149.805, 69.77034
1150.287, 69.95498
1150.769, 70.27315
1151.251, 70.91234
1151.734, 72.21169
1152.216, 73.23184
1152.698, 73.04763
1153.180, 72.63914
1153.662, 72.82601
1154.144, 73.27614
1154.626, 73.62495
1155.108, 73.76643
1155.590, 73.49608
1156.073, 72.64212
1156.555, 72.15234
1157.037, 72.66581
1157.519, 73.20123
1158.001, 73.02168
1158.483, 73.04504
1158.965, 74.47297
1159.447, 76.36212
1159.930, 76.81938
1160.412, 75.73064
1160.894, 75.47408
1161.376, 76.96165
1161.858, 78.25750
1162.340, 79.09457
1162.822, 79.85439
1163.304, 80.88515
1163.786, 81.69101
1164.269, 81.89542
1164.751, 81.47781
1165.233, 80.26254
1165.715, 77.92550
1166.197, 76.27325
1166.679, 75.56847
1167.161, 74.80344
1167.643, 73.72282
1168.125, 72.68304
1168.608, 71.87077
1169.090, 71.27685
1169.572, 70.93027
1170.054, 70.77183
1170.536, 70.28738
1171.018, 69.44363
1171.500, 69.10405
1171.982, 69.36460
1172.465, 69.37331
1172.947, 68.82536
1173.429, 68.12495
1173.911, 67.55911
1174.393, 67.28484
1174.875, 67.68736
1175.357, 68.62528
1175.839, 69.76801
1176.322, 70.95009
1176.804, 71.39463
1177.286, 71.10925
1177.768, 70.97667
1178.250, 71.38983
1178.732, 71.71471
1179.214, 71.09679
1179.696, 70.40181
1180.178, 70.97176
1180.661, 72.11265
1181.143, 72.77885
1181.625, 73.09065
1182.107, 73.47971
1182.589, 74.04839
1183.071, 74.71857
1183.553, 75.44698
1184.035, 76.28509
1184.517, 77.36711
1185.000, 78.44865
1185.482, 79.48701
1185.964, 80.32834
1186.446, 80.81255
1186.928, 80.96964
1187.410, 80.77940
1187.892, 80.22723
1188.374, 80.02626
1188.857, 81.06563
1189.339, 81.38522
1189.821, 80.41438
1190.303, 78.83523
1190.785, 76.23768
1191.267, 73.77705
1191.749, 72.87695
1192.231, 73.11488
1192.714, 72.79140
1193.196, 71.60444
1193.678, 71.06498
1194.160, 71.45971
1194.642, 71.73027
1195.124, 71.68634
1195.606, 71.42094
1196.088, 70.92696
1196.570, 70.38873
1197.052, 70.02384
1197.535, 69.87068
1198.017, 70.24096
1198.499, 71.11511
1198.981, 71.67562
1199.463, 71.86797
1199.945, 71.61888
1200.427, 70.93291
1200.909, 70.46442
1201.392, 70.68506
1201.874, 71.14793
1202.356, 71.14394
1202.838, 70.96128
1203.320, 71.27795
1203.802, 71.88607
1204.284, 72.48339
1204.766, 72.88932
1205.249, 72.58646
1205.731, 71.51825
1206.213, 70.61369
1206.695, 70.49251
1207.177, 70.60000
1207.659, 70.35821
1208.141, 70.32232
1208.623, 71.32268
1209.105, 72.57409
1209.588, 73.24268
1210.070, 73.22252
1210.552, 72.35002
1211.034, 70.40696
1211.516, 69.46441
1211.998, 70.87517
1212.480, 72.05413
1212.962, 72.19871
1213.444, 72.17432
1213.927, 72.55690
1214.409, 72.89925
1214.891, 72.53614
1215.373, 71.72398
1215.855, 71.68826
1216.337, 72.74972
1216.819, 73.12592
1217.301, 72.60751
1217.784, 72.18768
1218.266, 72.04327
1218.748, 72.13782
1219.230, 72.45498
1219.712, 73.02336
1220.194, 74.00005
1220.676, 75.08509
1221.158, 75.08415
1221.641, 74.28818
1222.123, 74.45500
1222.605, 75.40700
1223.087, 75.58965
1223.569, 74.73201
1224.051, 73.76162
1224.533, 73.18285
1225.015, 72.91399
1225.497, 73.02763
1225.979, 73.24996
1226.462, 73.11813
1226.944, 73.00702
1227.426, 73.48337
1227.908, 74.35326
1228.390, 75.21507
1228.872, 75.96120
1229.354, 76.53764
1229.836, 76.95729
1230.319, 77.12034
1230.801, 76.71031
1231.283, 76.40575
1231.765, 76.59801
1232.247, 76.90649
1232.729, 77.03951
1233.211, 77.08002
1233.693, 77.26170
1234.176, 77.56712
1234.658, 77.43707
1235.140, 76.67662
1235.622, 76.02955
1236.104, 75.43362
1236.586, 75.35204
1237.068, 76.03004
1237.550, 76.75845
1238.032, 77.04703
1238.515, 76.96926
1238.997, 76.51636
1239.479, 75.87543
1239.961, 75.94427
1240.443, 76.51917
1240.925, 76.59251
1241.407, 76.21387
1241.889, 76.12519
1242.371, 76.50011
1242.854, 76.85250
1243.336, 76.84489
1243.818, 76.95723
1244.300, 78.13957
1244.782, 79.13285
1245.264, 78.21217
1245.746, 76.78582
1246.228, 76.59695
1246.711, 77.26839
1247.193, 77.71831
1247.675, 77.80054
1248.157, 78.13657
1248.639, 79.20505
1249.121, 79.87287
1249.603, 79.81700
1250.085, 79.49750
1250.568, 78.90248
1251.050, 78.27911
1251.532, 77.67050
1252.014, 77.25584
1252.496, 77.39590
1252.978, 78.02352
1253.460, 78.36466
1253.942, 78.38214
1254.424, 78.57480
1254.906, 78.98399
1255.389, 79.12062
1255.871, 78.85902
1256.353, 79.03088
1256.835, 80.22231
1257.317, 81.33584
1257.799, 80.63684
1258.281, 79.25565
1258.763, 79.43491
1259.246, 80.29631
1259.728, 80.14891
1260.210, 79.35262
1260.692, 79.08978
1261.174, 79.49093
1261.656, 79.87617
1262.138, 79.99279
1262.620, 79.99665
1263.103, 79.88112
1263.585, 79.77315
1264.067, 79.51497
1264.549, 79.51241
1265.031, 80.51369
1265.513, 81.63051
1265.995, 81.40096
1266.477, 80.15376
1266.959, 79.67445
1267.442, 80.22398
1267.924, 80.40162
1268.406, 80.04482
1268.888, 80.19812
1269.370, 81.18111
1269.852, 81.62313
1270.334, 80.78426
1270.816, 79.70422
1271.298, 79.47978
1271.781, 79.79401
1272.263, 80.09445
1272.745, 80.38545
1273.227, 80.70763
1273.709, 81.01960
1274.191, 81.18436
1274.673, 81.23807
1275.155, 81.40136
1275.638, 81.73250
1276.120, 81.94423
1276.602, 81.84496
1277.084, 81.64993
1277.566, 81.40085
1278.048, 81.16508
1278.530, 80.93404
1279.012, 80.77889
1279.495, 80.79097
1279.977, 80.92899
1280.459, 81.08857
1280.941, 81.26394
1281.423, 81.47993
1281.905, 81.86979
1282.387, 81.75748
1282.869, 80.96570
1283.351, 80.49321
1283.833, 80.66508
1284.316, 80.90340
1284.798, 80.82012
1285.280, 80.54771
1285.762, 80.25076
1286.244, 79.96739
##END=



