##NAMES=Hannebachite
##RRUFFID=R060572
##IDEAL CHEMISTRY=(CaS^4+^O_3_)_2_&#183;H_2_O
##LOCALITY=Hannebacher Ley, near Hannebach, Eifel, Germany
##OWNER=RRUFF
##SOURCE=Michael Scott
##DESCRIPTION=Colorless thin bladed crystals
##STATUS=The identification of this mineral is confirmed by single-crystal X-ray diffraction and chemical analysis.
##URL=rruff.info/R060572
##MEASURED CHEMISTRY=2Ca_1.00_S_1.00_O_3_Â·H_2_O; trace amounts of Fe; H_2_O estimated by difference
152.378, 14176.910
152.860, 14135.750
153.342, 14154.130
153.824, 14196.290
154.306, 14249.580
154.788, 14335.380
155.270, 14404.690
155.752, 14441.030
156.234, 14453.740
156.717, 14480.700
157.199, 14535.480
157.681, 14604.160
158.163, 14677.750
158.645, 14752.620
159.127, 14833.950
159.609, 14925.730
160.091, 15026.670
160.574, 15125.980
161.056, 15210.760
161.538, 15294.620
162.020, 15389.870
162.502, 15495.880
162.984, 15616.040
163.466, 15761.000
163.948, 15931.830
164.430, 16088.740
164.913, 16205.330
165.395, 16296.650
165.877, 16385.010
166.359, 16483.699
166.841, 16579.410
167.323, 16658.039
167.805, 16714.420
168.287, 16779.910
168.770, 16902.869
169.252, 17049.391
169.734, 17155.789
170.216, 17169.561
170.698, 17140.119
171.180, 17114.070
171.662, 17101.090
172.144, 17083.551
172.626, 17048.529
173.109, 16997.160
173.591, 16933.609
174.073, 16857.279
174.555, 16770.789
175.037, 16673.801
175.519, 16559.900
176.001, 16446.330
176.483, 16350.100
176.965, 16270.140
177.448, 16206.360
177.930, 16177.190
178.412, 16162.220
178.894, 16118.800
179.376, 16019.220
179.858, 15904.730
180.340, 15839.310
180.822, 15821.570
181.305, 15816.120
181.787, 15796.260
182.269, 15765.610
182.751, 15733.840
183.233, 15697.120
183.715, 15664.460
184.197, 15663.160
184.679, 15694.950
185.161, 15727.560
185.644, 15728.000
186.126, 15700.230
186.608, 15665.080
187.090, 15623.070
187.572, 15579.650
188.054, 15551.630
188.536, 15539.850
189.018, 15539.320
189.501, 15554.170
189.983, 15581.800
190.465, 15592.740
190.947, 15567.170
191.429, 15511.030
191.911, 15461.220
192.393, 15417.160
192.875, 15381.740
193.357, 15363.970
193.840, 15364.790
194.322, 15361.190
194.804, 15337.070
195.286, 15294.270
195.768, 15267.410
196.250, 15260.790
196.732, 15264.560
197.214, 15259.530
197.697, 15244.010
198.179, 15233.780
198.661, 15236.020
199.143, 15250.950
199.625, 15281.660
200.107, 15338.720
200.589, 15401.170
201.071, 15412.130
201.553, 15359.350
202.036, 15307.840
202.518, 15298.250
203.000, 15335.350
203.482, 15369.440
203.964, 15393.440
204.446, 15412.780
204.928, 15447.080
205.410, 15501.170
205.893, 15554.130
206.375, 15592.240
206.857, 15614.520
207.339, 15624.550
207.821, 15618.580
208.303, 15600.660
208.785, 15589.580
209.267, 15587.110
209.749, 15587.590
210.232, 15590.750
210.714, 15602.160
211.196, 15595.600
211.678, 15563.980
212.160, 15511.160
212.642, 15462.170
213.124, 15417.040
213.606, 15376.610
214.089, 15342.840
214.571, 15317.660
215.053, 15293.570
215.535, 15267.450
216.017, 15240.000
216.499, 15225.470
216.981, 15231.560
217.463, 15238.510
217.945, 15227.880
218.428, 15196.060
218.910, 15153.160
219.392, 15094.000
219.874, 15018.270
220.356, 14968.430
220.838, 14954.260
221.320, 14954.290
221.802, 14947.930
222.285, 14933.770
222.767, 14916.640
223.249, 14896.980
223.731, 14874.670
224.213, 14855.120
224.695, 14838.770
225.177, 14825.510
225.659, 14816.510
226.141, 14818.670
226.624, 14812.080
227.106, 14786.460
227.588, 14738.200
228.070, 14714.250
228.552, 14723.380
229.034, 14749.120
229.516, 14772.080
229.998, 14790.910
230.480, 14808.410
230.963, 14824.850
231.445, 14839.840
231.927, 14854.170
232.409, 14867.250
232.891, 14879.680
233.373, 14893.120
233.855, 14911.220
234.337, 14923.690
234.820, 14924.460
235.302, 14908.640
235.784, 14910.410
236.266, 14940.250
236.748, 14980.560
237.230, 15006.730
237.712, 15013.910
238.194, 15015.560
238.676, 15013.050
239.159, 15003.370
239.641, 15005.220
240.123, 15023.290
240.605, 15050.010
241.087, 15073.740
241.569, 15090.280
242.051, 15111.700
242.533, 15143.530
243.016, 15190.330
243.498, 15228.280
243.980, 15254.340
244.462, 15273.290
244.944, 15292.890
245.426, 15316.090
245.908, 15333.740
246.390, 15337.240
246.872, 15315.220
247.355, 15326.680
247.837, 15392.600
248.319, 15477.280
248.801, 15520.790
249.283, 15498.820
249.765, 15476.440
250.247, 15476.690
250.729, 15508.390
251.212, 15524.060
251.694, 15513.850
252.176, 15494.990
252.658, 15496.980
253.140, 15533.510
253.622, 15568.200
254.104, 15591.680
254.586, 15604.680
255.068, 15604.400
255.551, 15584.330
256.033, 15557.130
256.515, 15542.800
256.997, 15544.240
257.479, 15553.700
257.961, 15569.990
258.443, 15594.770
258.925, 15619.460
259.408, 15647.030
259.890, 15671.630
260.372, 15671.570
260.854, 15658.754
261.336, 15706.010
261.818, 15738.686
262.300, 15757.561
262.782, 15721.311
263.264, 15756.244
263.746, 15762.649
264.229, 15767.887
264.711, 15812.840
265.193, 15784.608
265.675, 15828.930
266.157, 15844.290
266.639, 15872.904
267.121, 15872.816
267.603, 15881.596
268.086, 15919.086
268.568, 15940.677
269.050, 15937.285
269.532, 15966.742
270.014, 15937.508
270.496, 15959.778
270.978, 16004.269
271.460, 15992.450
271.943, 16025.360
272.425, 16043.980
272.907, 16056.810
273.389, 16065.990
273.871, 16071.620
274.353, 16074.400
274.835, 16071.370
275.317, 16071.640
275.799, 16092.020
276.282, 16137.600
276.764, 16171.850
277.246, 16176.420
277.728, 16154.180
278.210, 16160.190
278.692, 16204.570
279.174, 16250.330
279.656, 16242.950
280.138, 16175.960
280.621, 16128.850
281.103, 16131.810
281.585, 16176.800
282.067, 16209.010
282.549, 16227.250
283.031, 16236.280
283.513, 16242.320
283.995, 16245.290
284.478, 16237.870
284.960, 16213.090
285.442, 16176.710
285.924, 16129.211
286.406, 16155.062
286.888, 16163.108
287.370, 16154.306
287.852, 16078.189
288.335, 16088.994
288.817, 16064.967
289.299, 16039.510
289.781, 16062.549
290.263, 15996.226
290.745, 16018.492
291.227, 16005.396
291.709, 16008.487
292.191, 15969.290
292.674, 15984.330
293.156, 15983.670
293.638, 15970.780
294.120, 15946.110
294.602, 15940.740
295.084, 15920.841
295.566, 15917.398
296.048, 15909.964
296.530, 15898.748
297.013, 15872.427
297.495, 15865.611
297.977, 15852.780
298.459, 15857.670
298.941, 15875.190
299.423, 15897.090
299.905, 15902.330
300.387, 15879.820
300.870, 15852.570
301.352, 15847.280
301.834, 15862.020
302.316, 15887.070
302.798, 15925.680
303.280, 15967.060
303.762, 15992.660
304.244, 15992.600
304.727, 15990.130
305.209, 16007.100
305.691, 16039.780
306.173, 16078.470
306.655, 16129.640
307.137, 16177.190
307.619, 16200.790
308.101, 16194.120
308.583, 16175.920
309.065, 16151.010
309.548, 16125.320
310.030, 16112.060
310.512, 16129.140
310.994, 16155.240
311.476, 16176.020
311.958, 16191.450
312.440, 16195.420
312.922, 16170.880
313.405, 16134.640
313.887, 16113.310
314.369, 16134.230
314.851, 16160.800
315.333, 16172.430
315.815, 16166.910
316.297, 16154.290
316.779, 16123.400
317.262, 16092.880
317.744, 16084.170
318.226, 16135.090
318.708, 16181.950
319.190, 16194.610
319.672, 16171.520
320.154, 16153.450
320.636, 16153.020
321.118, 16162.950
321.601, 16176.850
322.083, 16206.390
322.565, 16226.670
323.047, 16226.550
323.529, 16207.370
324.011, 16191.560
324.493, 16172.400
324.975, 16163.340
325.457, 16173.030
325.940, 16217.630
326.422, 16263.400
326.904, 16310.210
327.386, 16356.830
327.868, 16393.500
328.350, 16417.090
328.832, 16433.279
329.314, 16444.820
329.797, 16457.660
330.279, 16456.090
330.761, 16423.750
331.243, 16377.550
331.725, 16368.880
332.207, 16429.971
332.689, 16488.920
333.171, 16515.311
333.654, 16496.051
334.136, 16478.801
334.618, 16463.779
335.100, 16451.100
335.582, 16438.400
336.064, 16419.010
336.546, 16415.830
337.028, 16445.420
337.510, 16515.221
337.992, 16550.520
338.475, 16537.939
338.957, 16509.340
339.439, 16508.789
339.921, 16542.170
340.403, 16572.010
340.885, 16583.141
341.367, 16578.320
341.849, 16592.600
342.332, 16632.400
342.814, 16669.641
343.296, 16667.180
343.778, 16625.730
344.260, 16599.980
344.742, 16608.070
345.224, 16639.480
345.706, 16664.891
346.189, 16685.131
346.671, 16697.500
347.153, 16695.330
347.635, 16682.471
348.117, 16674.461
348.599, 16674.061
349.081, 16680.090
349.563, 16688.801
350.045, 16700.641
350.528, 16721.189
351.010, 16763.461
351.492, 16814.641
351.974, 16848.100
352.456, 16856.369
352.938, 16857.850
353.420, 16874.699
353.902, 16901.029
354.384, 16921.381
354.867, 16920.359
355.349, 16912.359
355.831, 16914.711
356.313, 16930.430
356.795, 16944.510
357.277, 16942.381
357.759, 16932.990
358.241, 16930.010
358.724, 16949.699
359.206, 16970.250
359.688, 16975.650
360.170, 16965.910
360.652, 16959.199
361.134, 16971.230
361.616, 16987.061
362.098, 16992.670
362.581, 16956.520
363.063, 16936.619
363.545, 16965.539
364.027, 17033.270
364.509, 17081.119
364.991, 17061.570
365.473, 17038.891
365.955, 17052.850
366.437, 17162.670
366.919, 17234.230
367.402, 17231.270
367.884, 17178.939
368.366, 17144.770
368.848, 17144.061
369.330, 17151.930
369.812, 17160.449
370.294, 17167.270
370.776, 17182.240
371.259, 17210.750
371.741, 17244.711
372.223, 17271.539
372.705, 17285.039
373.187, 17302.330
373.669, 17330.520
374.151, 17370.840
374.633, 17397.520
375.116, 17403.570
375.598, 17405.699
376.080, 17423.289
376.562, 17461.619
377.044, 17488.770
377.526, 17494.689
378.008, 17484.779
378.490, 17484.600
378.973, 17496.061
379.455, 17507.939
379.937, 17510.260
380.419, 17504.109
380.901, 17503.461
381.383, 17510.439
381.865, 17524.270
382.347, 17548.211
382.829, 17581.400
383.311, 17608.471
383.794, 17617.641
384.276, 17615.061
384.758, 17611.619
385.240, 17605.920
385.722, 17612.600
386.204, 17662.539
386.686, 17738.359
387.168, 17796.520
387.651, 17794.609
388.133, 17777.930
388.615, 17804.189
389.097, 17871.689
389.579, 17932.480
390.061, 17943.000
390.543, 17930.650
391.025, 17929.211
391.508, 17966.961
391.990, 17996.570
392.472, 17972.730
392.954, 17913.279
393.436, 17885.660
393.918, 17959.240
394.400, 18047.330
394.882, 18094.061
395.364, 18072.971
395.847, 18050.289
396.329, 18039.090
396.811, 18037.439
397.293, 18041.461
397.775, 18041.039
398.257, 18055.170
398.739, 18099.689
399.221, 18189.619
399.703, 18240.320
400.186, 18220.340
400.668, 18178.869
401.150, 18162.051
401.632, 18186.510
402.114, 18207.529
402.596, 18212.080
403.078, 18204.670
403.560, 18226.250
404.043, 18291.980
404.525, 18360.840
405.007, 18406.850
405.489, 18426.500
405.971, 18440.051
406.453, 18444.740
406.935, 18448.900
407.417, 18474.061
407.900, 18522.279
408.382, 18569.939
408.864, 18608.350
409.346, 18637.211
409.828, 18646.801
410.310, 18632.221
410.792, 18622.350
411.274, 18656.301
411.756, 18725.740
412.238, 18796.051
412.721, 18852.420
413.203, 18904.811
413.685, 18972.830
414.167, 19055.020
414.649, 19136.980
415.131, 19211.141
415.613, 19278.529
416.095, 19340.520
416.578, 19400.580
417.060, 19449.510
417.542, 19466.990
418.024, 19467.029
418.506, 19484.539
418.988, 19547.061
419.470, 19623.340
419.952, 19695.910
420.435, 19764.279
420.917, 19823.830
421.399, 19862.859
421.881, 19896.830
422.363, 19943.260
422.845, 20025.480
423.327, 20100.840
423.809, 20149.840
424.291, 20174.359
424.774, 20224.820
425.256, 20330.100
425.738, 20440.900
426.220, 20528.279
426.702, 20554.680
427.184, 20605.645
427.666, 20718.238
428.148, 20815.863
428.630, 20899.332
429.113, 20926.260
429.595, 21026.199
430.077, 21096.883
430.559, 21166.375
431.041, 21276.594
431.523, 21338.900
432.005, 21387.340
432.487, 21455.211
432.970, 21542.279
433.452, 21620.000
433.934, 21676.961
434.416, 21722.891
434.898, 21787.961
435.380, 21871.820
435.862, 21946.930
436.344, 21996.520
436.827, 22022.730
437.309, 22023.199
437.791, 21989.551
438.273, 21958.760
438.755, 21975.910
439.237, 22025.170
439.719, 22069.561
440.201, 22093.141
440.683, 22103.221
441.165, 22100.420
441.648, 22084.650
442.130, 22072.779
442.612, 22077.971
443.094, 22088.400
443.576, 22093.391
444.058, 22091.971
444.540, 22082.270
445.022, 22066.770
445.505, 22042.990
445.987, 22003.250
446.469, 21921.570
446.951, 21844.939
447.433, 21795.881
447.915, 21791.779
448.397, 21768.391
448.879, 21708.420
449.362, 21640.260
449.844, 21604.330
450.326, 21622.260
450.808, 21623.490
451.290, 21585.480
451.772, 21515.199
452.254, 21472.439
452.736, 21464.561
453.218, 21461.490
453.701, 21440.070
454.183, 21400.730
454.665, 21359.061
455.147, 21314.631
455.629, 21273.340
456.111, 21253.279
456.593, 21250.600
457.075, 21234.689
457.557, 21178.811
458.040, 21103.131
458.522, 21037.971
459.004, 20983.320
459.486, 20955.211
459.968, 20917.672
460.450, 20921.389
460.932, 20915.092
461.414, 20899.314
461.897, 20845.680
462.379, 20840.270
462.861, 20823.529
463.343, 20827.750
463.825, 20866.359
464.307, 20907.039
464.789, 20927.580
465.271, 20916.490
465.754, 20920.689
466.236, 20967.891
466.718, 21027.369
467.200, 21065.930
467.682, 21038.510
468.164, 21041.340
468.646, 21102.189
469.128, 21211.990
469.610, 21285.980
470.093, 21300.631
470.575, 21314.520
471.057, 21359.250
471.539, 21438.850
472.021, 21530.051
472.503, 21636.779
472.985, 21748.420
473.467, 21854.150
473.949, 21953.270
474.432, 22030.449
474.914, 22065.711
475.396, 22079.250
475.878, 22139.641
476.360, 22246.900
476.842, 22353.109
477.324, 22400.189
477.806, 22421.180
478.289, 22484.430
478.771, 22616.619
479.253, 22760.539
479.735, 22864.439
480.217, 22940.971
480.699, 23017.250
481.181, 23098.381
481.663, 23189.650
482.146, 23301.010
482.628, 23432.971
483.110, 23559.551
483.592, 23669.760
484.074, 23771.221
484.556, 23868.330
485.038, 23963.570
485.520, 24050.990
486.002, 24118.439
486.484, 24176.330
486.967, 24256.580
487.449, 24394.689
487.931, 24503.789
488.413, 24544.289
488.895, 24506.439
489.377, 24502.020
489.859, 24548.811
490.341, 24597.039
490.824, 24595.811
491.306, 24544.029
491.788, 24474.100
492.270, 24387.270
492.752, 24294.330
493.234, 24224.590
493.716, 24177.000
494.198, 24118.881
494.681, 24026.980
495.163, 23912.840
495.645, 23798.971
496.127, 23685.160
496.609, 23571.369
497.091, 23452.471
497.573, 23334.439
498.055, 23223.631
498.537, 23111.949
499.020, 23021.199
499.502, 22975.789
499.984, 22963.350
500.466, 22941.779
500.948, 22891.090
501.430, 22833.461
501.912, 22771.311
502.394, 22692.619
502.876, 22655.539
503.359, 22682.971
503.841, 22743.240
504.323, 22807.311
504.805, 22870.590
505.287, 22947.230
505.769, 23038.199
506.251, 23143.779
506.733, 23268.539
507.216, 23417.789
507.698, 23569.850
508.180, 23702.820
508.662, 23819.670
509.144, 23985.090
509.626, 24204.539
510.108, 24447.730
510.590, 24685.160
511.073, 24916.529
511.555, 25138.221
512.037, 25340.641
512.519, 25545.641
513.001, 25779.369
513.483, 26038.330
513.965, 26305.311
514.447, 26567.119
514.929, 26835.650
515.412, 27124.949
515.894, 27440.131
516.376, 27751.311
516.858, 28018.000
517.340, 28283.811
517.822, 28590.600
518.304, 29111.881
518.786, 29484.840
519.268, 29617.100
519.751, 29550.910
520.233, 29425.199
520.715, 29223.061
521.197, 28984.199
521.679, 28719.520
522.161, 28427.109
522.643, 28114.900
523.125, 27780.570
523.607, 27428.320
524.090, 27050.480
524.572, 26649.289
525.054, 26273.250
525.536, 25931.410
526.018, 25614.381
526.500, 25302.721
526.982, 24999.859
527.464, 24732.250
527.947, 24538.381
528.429, 24380.109
528.911, 24203.631
529.393, 24007.789
529.875, 23819.461
530.357, 23662.180
530.839, 23520.439
531.321, 23381.090
531.804, 23237.631
532.286, 23097.660
532.768, 22972.250
533.250, 22852.830
533.732, 22725.359
534.214, 22552.420
534.696, 22407.721
535.178, 22324.109
535.661, 22308.141
536.143, 22243.891
536.625, 22106.230
537.107, 21959.260
537.589, 21847.670
538.071, 21776.199
538.553, 21717.400
539.035, 21671.600
539.517, 21632.439
540.000, 21583.850
540.482, 21527.689
540.964, 21487.080
541.446, 21481.660
541.928, 21491.539
542.410, 21475.551
542.892, 21436.471
543.374, 21402.811
543.856, 21392.689
544.339, 21398.461
544.821, 21415.561
545.303, 21448.490
545.785, 21471.471
546.267, 21462.400
546.749, 21438.920
547.231, 21424.010
547.713, 21452.859
548.195, 21458.811
548.678, 21410.990
549.160, 21321.320
549.642, 21258.580
550.124, 21236.260
550.606, 21223.590
551.088, 21206.539
551.570, 21182.381
552.052, 21175.580
552.534, 21193.609
553.017, 21212.430
553.499, 21195.330
553.981, 21145.391
554.463, 21126.391
554.945, 21162.920
555.427, 21217.020
555.909, 21215.619
556.391, 21171.971
556.874, 21140.850
557.356, 21176.301
557.838, 21224.580
558.320, 21221.070
558.802, 21165.160
559.284, 21115.109
559.766, 21100.150
560.248, 21106.801
560.731, 21127.961
561.213, 21186.689
561.695, 21217.109
562.177, 21168.650
562.659, 21093.510
563.141, 21080.961
563.623, 21182.070
564.105, 21269.301
564.588, 21313.420
565.070, 21320.529
565.552, 21338.221
566.034, 21372.830
566.516, 21394.949
566.998, 21375.641
567.480, 21319.631
567.962, 21289.490
568.444, 21289.359
568.927, 21303.980
569.409, 21323.109
569.891, 21343.939
570.373, 21358.650
570.855, 21364.369
571.337, 21364.551
571.819, 21361.311
572.301, 21355.119
572.783, 21346.980
573.266, 21341.699
573.748, 21330.961
574.230, 21302.801
574.712, 21254.340
575.194, 21228.580
575.676, 21261.699
576.158, 21298.670
576.640, 21304.240
577.122, 21249.051
577.605, 21226.410
578.087, 21251.080
578.569, 21295.891
579.051, 21318.340
579.533, 21315.789
580.015, 21308.170
580.497, 21286.910
580.979, 21275.029
581.461, 21367.180
581.944, 21552.301
582.426, 21692.461
582.908, 21662.570
583.390, 21548.369
583.872, 21471.680
584.354, 21442.221
584.836, 21432.400
585.318, 21451.061
585.801, 21466.770
586.283, 21443.590
586.765, 21306.039
587.247, 21223.320
587.729, 21285.670
588.211, 21425.689
588.693, 21503.410
589.175, 21472.891
589.657, 21435.590
590.140, 21413.320
590.622, 21404.400
591.104, 21385.820
591.586, 21348.619
592.068, 21329.471
592.550, 21363.461
593.032, 21445.230
593.515, 21502.180
593.997, 21529.381
594.479, 21547.930
594.961, 21591.289
595.443, 21643.000
595.925, 21661.570
596.407, 21618.109
596.889, 21567.029
597.371, 21542.189
597.854, 21543.330
598.336, 21569.881
598.818, 21664.711
599.300, 21744.449
599.782, 21766.920
600.264, 21730.551
600.746, 21700.980
601.228, 21680.289
601.710, 21669.730
602.193, 21672.119
602.675, 21693.289
603.157, 21703.869
603.639, 21697.289
604.121, 21691.900
604.603, 21718.061
605.085, 21774.150
605.567, 21807.971
606.049, 21796.961
606.532, 21776.551
607.014, 21817.750
607.496, 21903.150
607.978, 21970.760
608.460, 21972.650
608.942, 21952.711
609.424, 21946.289
609.906, 21953.580
610.388, 21963.301
610.871, 21971.439
611.353, 21979.650
611.835, 21988.750
612.317, 21999.029
612.799, 22009.900
613.281, 22024.211
613.763, 22037.109
614.245, 22043.740
614.728, 22043.961
615.210, 22038.840
615.692, 22026.859
616.174, 22012.311
616.656, 22004.289
617.138, 22002.961
617.620, 22004.051
618.102, 22007.730
618.584, 22011.961
619.067, 22006.900
619.549, 21995.141
620.031, 21996.619
620.513, 22045.430
620.995, 22100.510
621.477, 22118.170
621.959, 22083.881
622.442, 22058.900
622.924, 22070.090
623.406, 22096.420
623.888, 22118.859
624.370, 22135.539
624.852, 22147.930
625.334, 22156.289
625.816, 22159.949
626.298, 22155.090
626.781, 22138.039
627.263, 22128.760
627.745, 22132.330
628.227, 22148.520
628.709, 22187.270
629.191, 22246.551
629.673, 22288.289
630.155, 22265.029
630.638, 22218.770
631.120, 22212.109
631.602, 22249.471
632.084, 22298.561
632.566, 22366.320
633.048, 22421.641
633.530, 22431.711
634.012, 22347.750
634.494, 22298.461
634.977, 22331.711
635.459, 22403.609
635.941, 22456.699
636.423, 22483.910
636.905, 22504.770
637.387, 22516.199
637.869, 22525.900
638.351, 22567.350
638.833, 22643.760
639.316, 22701.199
639.798, 22696.949
640.280, 22657.910
640.762, 22651.801
641.244, 22678.010
641.726, 22724.859
642.208, 22801.289
642.690, 22885.189
643.172, 22956.939
643.655, 23015.230
644.137, 23056.350
644.619, 23058.600
645.101, 23054.520
645.583, 23075.490
646.065, 23141.000
646.547, 23214.199
647.029, 23307.711
647.511, 23400.961
647.994, 23447.311
648.476, 23433.500
648.958, 23428.391
649.440, 23453.420
649.922, 23497.910
650.404, 23531.740
650.886, 23554.891
651.369, 23576.430
651.851, 23616.480
652.333, 23649.820
652.815, 23634.881
653.297, 23571.480
653.779, 23504.160
654.261, 23469.340
654.743, 23434.090
655.225, 23368.760
655.708, 23246.721
656.190, 23153.359
656.672, 23115.250
657.154, 23101.199
657.636, 23083.971
658.118, 23066.490
658.600, 23036.510
659.082, 22987.270
659.565, 22931.381
660.047, 22901.971
660.529, 22897.070
661.011, 22874.641
661.493, 22807.340
661.975, 22723.221
662.457, 22667.230
662.939, 22635.150
663.421, 22608.090
663.904, 22580.160
664.386, 22550.520
664.868, 22514.900
665.350, 22472.910
665.832, 22445.990
666.314, 22451.141
666.796, 22464.910
667.278, 22473.650
667.760, 22476.109
668.243, 22474.400
668.725, 22462.070
669.207, 22454.250
669.689, 22470.039
670.171, 22508.381
670.653, 22550.721
671.135, 22598.971
671.617, 22633.820
672.099, 22621.381
672.582, 22573.211
673.064, 22519.891
673.546, 22466.170
674.028, 22420.760
674.510, 22393.631
674.992, 22381.350
675.474, 22371.670
675.956, 22360.500
676.439, 22354.090
676.921, 22360.391
677.403, 22379.891
677.885, 22384.779
678.367, 22372.961
678.849, 22352.811
679.331, 22319.510
679.813, 22272.789
680.295, 22275.369
680.778, 22333.381
681.260, 22392.699
681.742, 22379.660
682.224, 22330.000
682.706, 22324.641
683.188, 22390.529
683.670, 22458.551
684.153, 22483.520
684.635, 22480.010
685.117, 22466.721
685.599, 22422.699
686.081, 22399.600
686.563, 22424.740
687.045, 22474.250
687.527, 22499.131
688.009, 22488.119
688.492, 22481.939
688.974, 22492.039
689.456, 22515.699
689.938, 22545.439
690.420, 22581.410
690.902, 22610.020
691.384, 22625.369
691.866, 22627.311
692.348, 22603.211
692.831, 22556.400
693.313, 22530.029
693.795, 22571.910
694.277, 22629.090
694.759, 22662.600
695.241, 22662.881
695.723, 22656.199
696.205, 22640.070
696.688, 22622.461
697.170, 22608.301
697.652, 22596.570
698.134, 22596.320
698.616, 22617.211
699.098, 22632.109
699.580, 22585.830
700.062, 22492.090
700.544, 22438.381
701.027, 22459.340
701.509, 22504.051
701.991, 22514.740
702.473, 22504.270
702.955, 22500.471
703.437, 22525.051
703.919, 22548.400
704.401, 22549.090
704.883, 22534.910
705.366, 22545.150
705.848, 22609.189
706.330, 22658.631
706.812, 22661.830
707.294, 22625.939
707.776, 22642.420
708.258, 22720.020
708.740, 22794.430
709.222, 22817.410
709.705, 22804.961
710.187, 22806.461
710.669, 22823.600
711.151, 22835.789
711.633, 22816.350
712.115, 22790.730
712.597, 22786.980
713.080, 22817.391
713.562, 22841.699
714.044, 22848.529
714.526, 22844.051
715.008, 22832.859
715.490, 22804.029
715.972, 22793.000
716.454, 22804.590
716.936, 22829.141
717.419, 22848.070
717.901, 22862.410
718.383, 22901.551
718.865, 22985.971
719.347, 23071.590
719.829, 23085.199
720.311, 23052.920
720.793, 23038.920
721.276, 23104.750
721.758, 23164.891
722.240, 23179.740
722.722, 23153.650
723.204, 23103.811
723.686, 22993.330
724.168, 22908.330
724.650, 22880.029
725.132, 22900.980
725.615, 22894.650
726.097, 22854.510
726.579, 22818.779
727.061, 22810.170
727.543, 22822.910
728.025, 22847.260
728.507, 22882.109
728.989, 22905.590
729.471, 22895.010
729.954, 22869.711
730.436, 22845.039
730.918, 22821.779
731.400, 22808.301
731.882, 22821.080
732.364, 22835.029
732.846, 22831.029
733.328, 22796.381
733.810, 22775.080
734.293, 22767.949
734.775, 22771.980
735.257, 22786.711
735.739, 22810.680
736.221, 22835.570
736.703, 22863.010
737.185, 22879.480
737.667, 22857.510
738.149, 22816.020
738.632, 22787.650
739.114, 22780.051
739.596, 22792.600
740.078, 22843.650
740.560, 22913.119
741.042, 22956.990
741.524, 22958.689
742.006, 22961.391
742.489, 22975.391
742.971, 22995.061
743.453, 22998.689
743.935, 22985.279
744.417, 22979.811
744.899, 22985.580
745.381, 23010.160
745.863, 23088.631
746.346, 23205.301
746.828, 23289.840
747.310, 23272.811
747.792, 23237.520
748.274, 23238.869
748.756, 23277.369
749.238, 23298.410
749.720, 23292.859
750.203, 23272.039
750.685, 23239.330
751.167, 23195.641
751.649, 23138.859
752.131, 23063.910
752.613, 23008.070
753.095, 23017.670
753.577, 23066.490
754.059, 23079.189
754.542, 23049.930
755.024, 23035.490
755.506, 23096.359
755.988, 23179.650
756.470, 23235.930
756.952, 23248.859
757.434, 23257.410
757.916, 23273.449
758.398, 23281.240
758.881, 23261.990
759.363, 23199.570
759.845, 23178.910
760.327, 23216.160
760.809, 23264.740
761.291, 23257.520
761.773, 23212.449
762.255, 23198.580
762.737, 23246.131
763.220, 23285.391
763.702, 23224.580
764.184, 23128.090
764.666, 23085.289
765.148, 23195.600
765.630, 23271.289
766.112, 23250.570
766.594, 23187.369
767.076, 23163.990
767.559, 23186.721
768.041, 23227.650
768.523, 23286.131
769.005, 23350.119
769.487, 23397.949
769.969, 23429.359
770.451, 23445.631
770.933, 23436.051
771.416, 23422.100
771.898, 23424.461
772.380, 23437.779
772.862, 23448.320
773.344, 23443.670
773.826, 23444.869
774.308, 23470.689
774.790, 23510.141
775.273, 23506.711
775.755, 23442.330
776.237, 23398.350
776.719, 23415.150
777.201, 23472.070
777.683, 23505.820
778.165, 23518.590
778.647, 23524.301
779.130, 23535.619
779.612, 23540.990
780.094, 23521.869
780.576, 23481.699
781.058, 23455.330
781.540, 23446.539
782.022, 23406.412
782.504, 23483.434
782.986, 23532.018
783.469, 23553.691
783.951, 23467.861
784.433, 23520.852
784.915, 23518.211
785.397, 23513.287
785.879, 23585.814
786.361, 23515.621
786.843, 23586.922
787.325, 23601.740
787.808, 23642.412
788.290, 23627.102
788.772, 23629.084
789.254, 23687.061
789.736, 23714.033
790.218, 23692.279
790.700, 23734.596
791.182, 23662.443
791.664, 23700.039
792.147, 23772.539
792.629, 23843.189
793.111, 23852.939
793.593, 23824.641
794.075, 23830.230
794.557, 23878.260
795.039, 23925.670
795.521, 23943.760
796.003, 23944.359
796.486, 23937.289
796.968, 23921.160
797.450, 23906.529
797.932, 23899.859
798.414, 23890.939
798.896, 23864.910
799.378, 23814.631
799.860, 23812.449
800.343, 23872.471
800.825, 23938.980
801.307, 23942.830
801.789, 23908.289
802.271, 23886.980
802.753, 23889.420
803.235, 23901.750
803.717, 23921.920
804.200, 23943.850
804.682, 23961.570
805.164, 23968.471
805.646, 23980.100
806.128, 24003.990
806.610, 24023.920
807.092, 24017.289
807.574, 23983.789
808.057, 23958.520
808.539, 23945.920
809.021, 23943.830
809.503, 23956.449
809.985, 23976.150
810.467, 23989.170
810.949, 23987.100
811.431, 23988.631
811.913, 24013.900
812.396, 24041.461
812.878, 24040.381
813.360, 23973.500
813.842, 23962.119
814.324, 24036.561
814.806, 24132.391
815.288, 24148.680
815.770, 24098.230
816.252, 24071.090
816.735, 24093.500
817.217, 24124.170
817.699, 24110.520
818.181, 24081.869
818.663, 24081.109
819.145, 24156.301
819.627, 24211.811
820.109, 24223.939
820.591, 24209.260
821.074, 24180.869
821.556, 24130.961
822.038, 24106.109
822.520, 24118.010
823.002, 24145.830
823.484, 24156.211
823.966, 24156.500
824.448, 24169.250
824.930, 24203.779
825.413, 24245.260
825.895, 24296.920
826.377, 24344.109
826.859, 24366.471
827.341, 24327.330
827.823, 24304.750
828.305, 24301.980
828.787, 24317.461
829.270, 24364.119
829.752, 24441.699
830.234, 24466.369
830.716, 24407.660
831.198, 24329.070
831.680, 24304.801
832.162, 24320.510
832.644, 24352.859
833.127, 24421.801
833.609, 24464.029
834.091, 24421.961
834.573, 24355.980
835.055, 24356.320
835.537, 24461.689
836.019, 24532.211
836.501, 24546.920
836.984, 24533.279
837.466, 24533.100
837.948, 24541.080
838.430, 24530.891
838.912, 24485.600
839.394, 24448.680
839.876, 24473.330
840.358, 24521.760
840.841, 24543.730
841.323, 24483.730
841.805, 24457.711
842.287, 24493.811
842.769, 24548.289
843.251, 24556.670
843.733, 24513.600
844.215, 24510.410
844.697, 24566.689
845.180, 24640.330
845.662, 24688.830
846.144, 24715.461
846.626, 24723.820
847.108, 24706.750
847.590, 24690.211
848.072, 24671.850
848.554, 24666.721
849.036, 24695.641
849.519, 24789.779
850.001, 24835.260
850.483, 24815.881
850.965, 24770.400
851.447, 24741.789
851.929, 24728.410
852.411, 24725.051
852.893, 24733.039
853.375, 24741.689
853.858, 24737.410
854.340, 24732.320
854.822, 24741.109
855.304, 24782.539
855.786, 24802.510
856.268, 24777.230
856.750, 24754.359
857.232, 24792.051
857.714, 24893.141
858.197, 24922.029
858.679, 24858.250
859.161, 24798.650
859.643, 24858.430
860.125, 24972.670
860.607, 25055.779
861.089, 25091.750
861.571, 25100.561
862.054, 25065.789
862.536, 25022.369
863.018, 24991.939
863.500, 24969.680
863.982, 24988.500
864.464, 25059.811
864.946, 25130.410
865.428, 25150.801
865.911, 25136.770
866.393, 25126.430
866.875, 25122.789
867.357, 25125.000
867.839, 25143.270
868.321, 25159.480
868.803, 25161.119
869.285, 25145.730
869.768, 25121.430
870.250, 25078.779
870.732, 25046.590
871.214, 25043.869
871.696, 25067.279
872.178, 25096.820
872.660, 25132.160
873.142, 25161.881
873.624, 25171.961
874.107, 25177.279
874.589, 25195.750
875.071, 25226.000
875.553, 25241.230
876.035, 25208.029
876.517, 25189.461
876.999, 25217.891
877.481, 25280.369
877.963, 25265.840
878.446, 25169.311
878.928, 25115.590
879.410, 25217.029
879.892, 25371.410
880.374, 25442.770
880.856, 25443.350
881.338, 25416.760
881.820, 25336.170
882.302, 25281.641
882.785, 25301.410
883.267, 25367.811
883.749, 25389.010
884.231, 25349.699
884.713, 25344.400
885.195, 25417.131
885.677, 25517.160
886.159, 25545.689
886.641, 25522.859
887.124, 25502.631
887.606, 25499.100
888.088, 25513.260
888.570, 25560.080
889.052, 25622.020
889.534, 25665.680
890.016, 25692.141
890.498, 25691.980
890.981, 25651.520
891.463, 25607.199
891.945, 25627.289
892.427, 25695.359
892.909, 25750.020
893.391, 25770.461
893.873, 25790.590
894.355, 25841.920
894.838, 25901.359
895.320, 25943.449
895.802, 25958.369
896.284, 25960.410
896.766, 25942.820
897.248, 25920.711
897.730, 25907.180
898.212, 25902.070
898.695, 25907.561
899.177, 25925.180
899.659, 25938.580
900.141, 25927.039
900.623, 25909.609
901.105, 25907.340
901.587, 25928.061
902.069, 25940.350
902.551, 25933.109
903.034, 25929.949
903.516, 25952.311
903.998, 25998.090
904.480, 25998.350
904.962, 25952.881
905.444, 25914.119
905.926, 25921.000
906.408, 25951.369
906.890, 25994.869
907.373, 26045.910
907.855, 26066.340
908.337, 26007.359
908.819, 25956.820
909.301, 25941.480
909.783, 25956.051
910.265, 25981.949
910.747, 26019.980
911.229, 26040.779
911.712, 26017.010
912.194, 25984.490
912.676, 25987.381
913.158, 26018.070
913.640, 26057.430
914.122, 26112.740
914.604, 26158.170
915.086, 26187.160
915.568, 26202.830
916.051, 26206.391
916.533, 26195.770
917.015, 26197.039
917.497, 26218.641
917.979, 26245.330
918.461, 26255.350
918.943, 26257.760
919.425, 26268.221
919.908, 26294.699
920.390, 26322.529
920.872, 26342.680
921.354, 26366.881
921.836, 26404.051
922.318, 26454.039
922.800, 26523.289
923.282, 26616.010
923.765, 26701.619
924.247, 26746.600
924.729, 26766.801
925.211, 26776.539
925.693, 26775.600
926.175, 26808.260
926.657, 26951.010
927.139, 27077.230
927.622, 27109.391
928.104, 27049.760
928.586, 27025.650
929.068, 27039.090
929.550, 27077.180
930.032, 27158.211
930.514, 27246.539
930.996, 27269.801
931.478, 27244.570
931.961, 27233.990
932.443, 27283.801
932.925, 27334.971
933.407, 27358.221
933.889, 27368.949
934.371, 27409.881
934.853, 27488.869
935.335, 27544.770
935.817, 27553.449
936.300, 27551.199
936.782, 27588.670
937.264, 27656.211
937.746, 27738.881
938.228, 27852.010
938.710, 27940.311
939.192, 27953.350
939.674, 27954.750
940.156, 28011.471
940.639, 28138.570
941.121, 28239.369
941.603, 28305.170
942.085, 28365.340
942.567, 28446.721
943.049, 28542.961
943.531, 28652.000
944.013, 28775.840
944.495, 28875.340
944.978, 28889.840
945.460, 28920.510
945.942, 29024.400
946.424, 29199.260
946.906, 29350.100
947.388, 29475.051
947.870, 29599.301
948.352, 29731.590
948.835, 29876.199
949.317, 30032.199
949.799, 30204.061
950.281, 30404.141
950.763, 30675.131
951.245, 30927.869
951.727, 31116.070
952.209, 31284.029
952.692, 31536.670
953.174, 31875.270
953.656, 32207.820
954.138, 32513.801
954.620, 32802.961
955.102, 33088.219
955.584, 33363.340
956.066, 33611.980
956.549, 33789.340
957.031, 34036.738
957.513, 34404.762
957.995, 34821.871
958.477, 35252.160
958.959, 35697.270
959.441, 36063.340
959.923, 36343.180
960.405, 36621.922
960.888, 36937.672
961.370, 37311.250
961.852, 37809.359
962.334, 38424.480
962.816, 38917.930
963.298, 39171.160
963.780, 39395.590
964.262, 39649.738
964.744, 39923.988
965.227, 40205.551
965.709, 40489.359
966.191, 40723.590
966.673, 40900.441
967.155, 41004.602
967.637, 40986.770
968.119, 40898.301
968.601, 40834.379
969.083, 40897.012
969.566, 40825.430
970.048, 40568.852
970.530, 40234.301
971.012, 39962.250
971.494, 39731.941
971.976, 39469.949
972.458, 39160.410
972.940, 38846.699
973.422, 38518.539
973.905, 38227.391
974.387, 38037.570
974.869, 37968.211
975.351, 37840.699
975.833, 37634.711
976.315, 37438.949
976.797, 37300.969
977.279, 37206.680
977.762, 37123.281
978.244, 37050.031
978.726, 36983.141
979.208, 36936.289
979.690, 36879.602
980.172, 36761.969
980.654, 36634.762
981.136, 36570.895
981.619, 36579.480
982.101, 36570.484
982.583, 36544.836
983.065, 36452.707
983.547, 36445.270
984.029, 36461.012
984.511, 36477.922
984.993, 36477.211
985.476, 36488.629
985.958, 36525.109
986.440, 36575.172
986.922, 36627.820
987.404, 36682.680
987.886, 36768.180
988.368, 36884.449
988.850, 37052.020
989.332, 37276.711
989.815, 37568.480
990.297, 37957.398
990.779, 38426.090
991.261, 38891.410
991.743, 39263.219
992.225, 39744.141
992.707, 40397.711
993.189, 41158.398
993.672, 41896.090
994.154, 42622.359
994.636, 43427.172
995.118, 44335.211
995.600, 45331.230
996.082, 46451.801
996.564, 47643.859
997.046, 48831.090
997.528, 49985.129
998.011, 51252.781
998.493, 52656.422
998.975, 54087.469
999.457, 55439.988
999.939, 56753.602
1000.421, 58186.531
1000.903, 59733.559
1001.385, 61212.969
1001.867, 62662.199
1002.350, 63923.980
1002.832, 64946.172
1003.314, 65739.141
1003.796, 66380.961
1004.278, 66892.250
1004.760, 66955.633
1005.242, 66442.609
1005.724, 65545.141
1006.207, 64441.320
1006.689, 63133.699
1007.171, 61632.980
1007.653, 59839.949
1008.135, 58045.398
1008.617, 56261.691
1009.099, 54518.031
1009.581, 52828.590
1010.063, 51201.910
1010.546, 49649.078
1011.028, 48176.609
1011.510, 46781.559
1011.992, 45439.691
1012.474, 44174.711
1012.956, 42997.871
1013.438, 41908.051
1013.920, 40844.559
1014.403, 39795.289
1014.885, 38810.309
1015.367, 37895.250
1015.849, 37061.148
1016.331, 36344.480
1016.813, 35722.219
1017.295, 35138.070
1017.777, 34567.480
1018.259, 34060.289
1018.742, 33645.410
1019.224, 33300.121
1019.706, 33016.000
1020.188, 32803.359
1020.670, 32558.699
1021.152, 32279.080
1021.634, 32024.561
1022.116, 31871.131
1022.599, 31741.430
1023.081, 31521.939
1023.563, 31240.570
1024.045, 31045.279
1024.527, 31039.410
1025.009, 31002.359
1025.491, 30880.490
1025.973, 30722.939
1026.455, 30626.020
1026.938, 30576.990
1027.420, 30525.369
1027.902, 30461.320
1028.384, 30383.400
1028.866, 30270.410
1029.348, 30157.561
1029.830, 30076.240
1030.312, 30030.330
1030.794, 29989.529
1031.277, 29956.859
1031.759, 29919.920
1032.241, 29867.320
1032.723, 29808.789
1033.205, 29761.471
1033.687, 29722.561
1034.169, 29681.939
1034.651, 29619.449
1035.134, 29579.199
1035.616, 29572.740
1036.098, 29587.131
1036.580, 29615.471
1037.062, 29651.230
1037.544, 29631.449
1038.026, 29536.461
1038.508, 29453.070
1038.990, 29464.420
1039.473, 29504.990
1039.955, 29517.170
1040.437, 29492.750
1040.919, 29492.410
1041.401, 29529.789
1041.883, 29539.240
1042.365, 29467.820
1042.847, 29369.480
1043.329, 29354.131
1043.812, 29397.619
1044.294, 29438.131
1044.776, 29452.699
1045.258, 29462.609
1045.740, 29481.711
1046.222, 29491.660
1046.704, 29458.260
1047.186, 29385.090
1047.669, 29363.949
1048.151, 29315.730
1048.633, 29388.566
1049.115, 29432.016
1049.597, 29447.662
1050.079, 29352.217
1050.561, 29400.221
1051.043, 29390.736
1051.526, 29378.908
1052.008, 29447.104
1052.490, 29367.816
1052.972, 29426.891
1053.454, 29442.699
1053.936, 29534.230
1054.418, 29620.391
1054.900, 29683.699
1055.382, 29723.500
1055.865, 29720.500
1056.347, 29710.400
1056.829, 29721.670
1057.311, 29752.961
1057.793, 29766.500
1058.275, 29761.539
1058.757, 29736.590
1059.239, 29660.301
1059.721, 29591.340
1060.204, 29596.760
1060.686, 29648.320
1061.168, 29630.471
1061.650, 29505.510
1062.132, 29437.369
1062.614, 29471.711
1063.096, 29525.619
1063.578, 29469.820
1064.061, 29360.141
1064.543, 29294.289
1065.025, 29293.430
1065.507, 29300.250
1065.989, 29313.711
1066.471, 29312.270
1066.953, 29276.439
1067.435, 29218.039
1067.917, 29201.080
1068.400, 29221.529
1068.882, 29249.410
1069.364, 29275.039
1069.846, 29298.641
1070.328, 29324.471
1070.810, 29346.480
1071.292, 29351.570
1071.774, 29326.160
1072.256, 29331.381
1072.739, 29341.004
1073.221, 29426.670
1073.703, 29493.865
1074.185, 29543.568
1074.667, 29523.385
1075.149, 29593.443
1075.631, 29627.328
1076.114, 29659.832
1076.596, 29742.578
1077.078, 29732.568
1077.560, 29814.529
1078.042, 29853.039
1078.524, 29886.141
1079.006, 29945.311
1079.488, 30027.789
1079.970, 30126.260
1080.453, 30234.000
1080.935, 30361.500
1081.417, 30513.141
1081.899, 30689.180
1082.381, 30891.221
1082.863, 31122.570
1083.345, 31352.180
1083.827, 31534.270
1084.309, 31735.340
1084.792, 32058.641
1085.274, 32441.910
1085.756, 32744.029
1086.238, 32948.738
1086.720, 33066.621
1087.202, 33088.469
1087.684, 33051.422
1088.166, 32969.941
1088.649, 32867.078
1089.131, 32785.270
1089.613, 32727.891
1090.095, 32689.311
1090.577, 32640.721
1091.059, 32650.301
1091.541, 32763.811
1092.023, 32931.441
1092.505, 33036.109
1092.988, 33078.031
1093.470, 33045.480
1093.952, 32916.398
1094.434, 32780.301
1094.916, 32731.561
1095.398, 32676.631
1095.880, 32524.580
1096.362, 32266.811
1096.844, 32016.619
1097.327, 31771.660
1097.809, 31544.920
1098.291, 31348.410
1098.773, 31166.119
1099.255, 30963.529
1099.737, 30761.240
1100.219, 30604.980
1100.701, 30540.211
1101.184, 30455.430
1101.666, 30331.961
1102.148, 30219.561
1102.630, 30182.689
1103.112, 30190.090
1103.594, 30170.840
1104.076, 30122.221
1104.558, 30074.680
1105.041, 30032.881
1105.523, 30003.770
1106.005, 29987.619
1106.487, 29984.990
1106.969, 30011.609
1107.451, 30058.551
1107.933, 30064.740
1108.415, 30008.820
1108.897, 29946.471
1109.380, 29901.730
1109.862, 29876.789
1110.344, 29879.301
1110.826, 29908.539
1111.308, 29921.740
1111.790, 29918.971
1112.272, 29911.430
1112.754, 29904.020
1113.236, 29896.320
1113.719, 29886.539
1114.201, 29876.920
1114.683, 29870.180
1115.165, 29856.381
1115.647, 29872.910
1116.129, 29933.070
1116.611, 29979.961
1117.093, 29943.100
1117.576, 29868.961
1118.058, 29846.449
1118.540, 29867.910
1119.022, 29881.160
1119.504, 29839.711
1119.986, 29829.680
1120.468, 29882.619
1120.950, 29952.109
1121.432, 29961.689
1121.915, 29925.301
1122.397, 29891.010
1122.879, 29866.359
1123.361, 29842.619
1123.843, 29798.230
1124.325, 29773.721
1124.807, 29799.730
1125.289, 29860.340
1125.771, 29876.820
1126.254, 29852.350
1126.736, 29837.830
1127.218, 29851.551
1127.700, 29874.920
1128.182, 29891.199
1128.664, 29909.480
1129.146, 29939.490
1129.628, 29981.080
1130.111, 30029.811
1130.593, 30085.990
1131.075, 30134.230
1131.557, 30160.721
1132.039, 30176.039
1132.521, 30197.211
1133.003, 30215.170
1133.485, 30208.789
1133.968, 30150.420
1134.450, 30121.070
1134.932, 30129.400
1135.414, 30154.311
1135.896, 30197.010
1136.378, 30234.051
1136.860, 30209.670
1137.342, 30131.811
1137.824, 30069.109
1138.307, 30051.359
1138.789, 30043.420
1139.271, 30037.119
1139.753, 30041.029
1140.235, 30081.670
1140.717, 30143.090
1141.199, 30178.289
1141.681, 30176.770
1142.163, 30162.990
1142.646, 30128.471
1143.128, 30104.320
1143.610, 30109.439
1144.092, 30133.301
1144.574, 30138.080
1145.056, 30125.320
1145.538, 30101.320
1146.020, 30056.699
1146.503, 30034.311
1146.985, 30109.920
1147.467, 30182.109
1147.949, 30149.381
1148.431, 30004.971
1148.913, 29951.961
1149.395, 29989.289
1149.877, 30038.279
1150.359, 30063.600
1150.842, 30071.980
1151.324, 30048.160
1151.806, 30017.260
1152.288, 30022.199
1152.770, 30066.500
1153.252, 30139.961
1153.734, 30248.699
1154.216, 30329.641
1154.698, 30293.840
1155.181, 30229.699
1155.663, 30251.211
1156.145, 30336.240
1156.627, 30368.891
1157.109, 30314.961
1157.591, 30278.631
1158.073, 30275.689
1158.555, 30293.461
1159.038, 30337.369
1159.520, 30382.350
1160.002, 30376.410
1160.484, 30316.289
1160.966, 30293.490
1161.448, 30348.080
1161.930, 30392.490
1162.412, 30402.830
1162.895, 30389.180
1163.377, 30361.039
1163.859, 30326.250
1164.341, 30304.539
1164.823, 30304.711
1165.305, 30294.000
1165.787, 30245.750
1166.269, 30211.680
1166.751, 30218.010
1167.234, 30254.779
1167.716, 30306.340
1168.198, 30360.930
1168.680, 30376.150
1169.162, 30308.520
1169.644, 30256.090
1170.126, 30252.650
1170.608, 30276.010
1171.090, 30325.311
1171.573, 30392.830
1172.055, 30397.051
1172.537, 30347.869
1173.019, 30312.930
1173.501, 30326.430
1173.983, 30363.170
1174.465, 30430.721
1174.947, 30502.400
1175.430, 30555.520
1175.912, 30589.051
1176.394, 30575.230
1176.876, 30515.000
1177.358, 30467.510
1177.840, 30482.170
1178.322, 30514.510
1178.804, 30553.250
1179.286, 30587.520
1179.769, 30591.500
1180.251, 30564.070
1180.733, 30546.830
1181.215, 30543.910
1181.697, 30566.340
1182.179, 30674.939
1182.661, 30767.180
1183.143, 30724.980
1183.625, 30589.189
1184.108, 30562.961
1184.590, 30655.320
1185.072, 30740.750
1185.554, 30792.189
1186.036, 30810.439
1186.518, 30771.340
1187.000, 30716.570
1187.482, 30687.680
1187.965, 30687.250
1188.447, 30686.770
1188.929, 30687.080
1189.411, 30680.590
1189.893, 30659.170
1190.375, 30642.990
1190.857, 30661.461
1191.339, 30695.869
1191.822, 30726.279
1192.304, 30755.490
1192.786, 30749.811
1193.268, 30703.039
1193.750, 30661.529
1194.232, 30649.311
1194.714, 30655.670
1195.196, 30680.939
1195.678, 30710.711
1196.161, 30718.449
1196.643, 30690.199
1197.125, 30665.301
1197.607, 30641.381
1198.089, 30630.600
1198.571, 30642.561
1199.053, 30671.961
1199.535, 30723.730
1200.017, 30786.490
1200.500, 30832.340
1200.982, 30861.029
1201.464, 30861.660
1201.946, 30827.199
1202.428, 30791.881
1202.910, 30786.109
1203.392, 30800.391
1203.874, 30830.320
1204.357, 30870.221
1204.839, 30896.631
1205.321, 30895.051
1205.803, 30908.641
1206.285, 30945.980
1206.767, 30989.490
1207.249, 31017.430
1207.731, 31038.369
1208.214, 31065.869
1208.696, 31099.801
1209.178, 31122.990
1209.660, 31133.330
1210.142, 31130.650
1210.624, 31105.230
1211.106, 31092.199
1211.588, 31181.080
1212.070, 31292.650
1212.552, 31284.350
1213.035, 31132.920
1213.517, 31064.230
1213.999, 31126.119
1214.481, 31198.100
1214.963, 31246.990
1215.445, 31282.250
1215.927, 31325.580
1216.409, 31361.320
1216.892, 31359.539
1217.374, 31306.301
1217.856, 31273.670
1218.338, 31278.760
1218.820, 31271.859
1219.302, 31221.881
1219.784, 31166.150
1220.266, 31172.381
1220.749, 31216.680
1221.231, 31266.410
1221.713, 31335.311
1222.195, 31320.900
1222.677, 31179.789
1223.159, 31078.510
1223.641, 31131.020
1224.123, 31248.529
1224.605, 31296.391
1225.088, 31289.699
1225.570, 31254.150
1226.052, 31154.199
1226.534, 31111.029
1227.016, 31122.971
1227.498, 31077.832
1227.980, 31135.223
1228.462, 31167.727
1228.944, 31176.680
1229.427, 31091.547
1229.909, 31127.906
1230.391, 31115.576
1230.873, 31101.250
1231.355, 31154.709
1231.837, 31083.260
1232.319, 31135.645
1232.801, 31138.596
1233.284, 31164.174
1233.766, 31130.641
1234.248, 31142.160
1234.730, 31215.029
1235.212, 31235.990
1235.694, 31187.119
1236.176, 31134.760
1236.658, 31139.500
1237.141, 31172.131
1237.623, 31201.480
1238.105, 31227.000
1238.587, 31253.650
1239.069, 31284.980
1239.551, 31305.289
1240.033, 31312.551
1240.515, 31309.070
1240.997, 31291.770
1241.480, 31269.631
1241.962, 31251.020
1242.444, 31237.279
1242.926, 31227.930
1243.408, 31224.680
1243.890, 31221.410
1244.372, 31216.211
1244.854, 31220.590
1245.337, 31251.381
1245.819, 31292.340
1246.301, 31332.510
1246.783, 31368.320
1247.265, 31392.699
1247.747, 31404.391
1248.229, 31397.900
1248.711, 31366.230
1249.193, 31346.449
1249.676, 31391.020
1250.158, 31448.539
1250.640, 31475.330
1251.122, 31474.131
1251.604, 31461.189
1252.086, 31436.670
1252.568, 31421.359
1253.050, 31423.359
1253.532, 31422.881
1254.015, 31394.410
1254.497, 31366.570
1254.979, 31366.500
1255.461, 31386.730
1255.943, 31388.221
1256.425, 31372.490
1256.907, 31369.039
1257.389, 31384.369
1257.872, 31414.910
1258.354, 31470.090
1258.836, 31526.910
1259.318, 31578.039
1259.800, 31615.990
1260.282, 31596.039
1260.764, 31528.141
1261.246, 31479.211
1261.729, 31474.160
1262.211, 31469.180
1262.693, 31438.461
1263.175, 31406.340
1263.657, 31385.590
1264.139, 31376.320
1264.621, 31382.510
1265.103, 31399.490
1265.585, 31406.641
1266.068, 31393.779
1266.550, 31386.010
1267.032, 31392.689
1267.514, 31407.721
1267.996, 31432.500
1268.478, 31460.850
1268.960, 31457.279
1269.442, 31442.189
1269.924, 31474.850
1270.407, 31606.369
1270.889, 31692.090
1271.371, 31694.080
1271.853, 31684.801
1272.335, 31703.590
1272.817, 31737.760
1273.299, 31753.529
1273.781, 31765.230
1274.264, 31806.590
1274.746, 31908.680
1275.228, 31991.869
1275.710, 32064.561
1276.192, 32080.150
1276.674, 31969.199
1277.156, 31832.850
1277.638, 31838.760
1278.120, 31925.340
1278.603, 31986.369
1279.085, 32007.480
1279.567, 31995.510
1280.049, 31946.350
1280.531, 31901.381
1281.013, 31883.100
1281.495, 31885.061
1281.977, 31908.619
1282.459, 31944.961
1282.942, 31983.301
1283.424, 32028.641
1283.906, 32030.350
1284.388, 31987.510
1284.870, 31966.340
1285.352, 32027.020
1285.834, 32099.471
1286.316, 32146.689
1286.799, 32170.430
1287.281, 32173.461
1287.763, 32154.869
1288.245, 32128.330
1288.727, 32096.279
1289.209, 32077.109
1289.691, 32083.320
1290.173, 32101.750
1290.656, 32140.949
1291.138, 32178.270
1291.620, 32186.301
1292.102, 32173.699
1292.584, 32196.141
1293.066, 32247.289
1293.548, 32290.811
1294.030, 32327.439
1294.512, 32332.670
1294.995, 32282.119
1295.477, 32226.180
1295.959, 32209.070
##END=



