##NAMES=Harmotome
##RRUFFID=R070015
##IDEAL CHEMISTRY=Ba_2_(Si_12_Al_4_)O_32_&#183;12H_2_O
##LOCALITY=Old Kilpatrick, Dumbartonshire, Scotland
##OWNER=RRUFF
##SOURCE=Michael Scott
##DESCRIPTION=Colorless blocky crystals
##STATUS=The identification of this mineral has been confirmed by X-ray diffraction and chemical analysis
##URL=rruff.info/R070015
##MEASURED CHEMISTRY=(Ba_1.98_Ti_0.02_)_Σ=2_(Si_11.67_Al_4.33_)O_32_·12H_2_OK_0.16_Na_0.11_Ca_0.01_; H_2_O estimated by difference
138.6662, 1897.286
139.1483, 1930.741
139.6304, 1974.460
140.1125, 2023.075
140.5946, 2072.748
141.0768, 2129.526
141.5589, 2199.063
142.0410, 2282.413
142.5231, 2373.975
143.0052, 2468.667
143.4873, 2568.747
143.9695, 2663.606
144.4516, 2741.005
144.9337, 2820.756
145.4158, 2921.087
145.8979, 3045.681
146.3800, 3175.891
146.8622, 3282.035
147.3443, 3351.223
147.8264, 3426.474
148.3085, 3525.813
148.7906, 3623.323
149.2727, 3700.918
149.7549, 3753.199
150.2370, 3786.851
150.7191, 3814.112
151.2012, 3839.252
151.6833, 3847.753
152.1654, 3827.722
152.6476, 3799.699
153.1297, 3782.069
153.6118, 3780.370
154.0939, 3784.896
154.5760, 3776.007
155.0581, 3743.226
155.5403, 3711.567
156.0224, 3676.350
156.5045, 3645.034
156.9866, 3626.603
157.4687, 3623.747
157.9508, 3628.970
158.4330, 3626.385
158.9151, 3601.080
159.3972, 3587.173
159.8793, 3586.893
160.3614, 3596.652
160.8435, 3615.594
161.3257, 3643.259
161.8078, 3674.347
162.2899, 3697.720
162.7720, 3692.606
163.2541, 3708.100
163.7362, 3761.567
164.2184, 3830.352
164.7005, 3888.812
165.1826, 3927.880
165.6647, 3955.997
166.1468, 3991.395
166.6289, 4045.106
167.1111, 4088.179
167.5932, 4110.982
168.0753, 4124.053
168.5574, 4138.673
169.0395, 4158.625
169.5216, 4184.349
170.0038, 4218.991
170.4859, 4273.777
170.9680, 4313.924
171.4501, 4324.871
171.9322, 4321.199
172.4143, 4324.642
172.8965, 4343.382
173.3786, 4365.821
173.8607, 4368.707
174.3428, 4345.146
174.8249, 4324.798
175.3070, 4311.425
175.7892, 4305.229
176.2713, 4310.046
176.7534, 4329.094
177.2355, 4350.536
177.7176, 4351.168
178.1997, 4327.436
178.6819, 4305.486
179.1640, 4291.419
179.6461, 4283.109
180.1282, 4278.756
180.6103, 4279.074
181.0924, 4279.282
181.5745, 4270.453
182.0567, 4252.091
182.5388, 4235.158
183.0209, 4224.694
183.5030, 4217.253
183.9851, 4206.818
184.4672, 4191.726
184.9494, 4174.532
185.4315, 4159.735
185.9136, 4147.660
186.3957, 4130.454
186.8778, 4096.279
187.3599, 4057.465
187.8421, 4038.692
188.3242, 4049.551
188.8063, 4065.648
189.2884, 4057.209
189.7705, 4027.604
190.2526, 3994.478
190.7348, 3962.193
191.2169, 3929.965
191.6990, 3895.356
192.1811, 3856.562
192.6632, 3820.052
193.1453, 3790.713
193.6275, 3767.870
194.1096, 3755.542
194.5917, 3770.962
195.0738, 3793.300
195.5559, 3782.753
196.0380, 3727.302
196.5202, 3666.591
197.0023, 3641.986
197.4844, 3642.103
197.9665, 3634.329
198.4486, 3603.659
198.9307, 3560.775
199.4129, 3522.678
199.8950, 3491.145
200.3771, 3460.302
200.8592, 3421.351
201.3413, 3379.132
201.8234, 3345.430
202.3056, 3331.737
202.7877, 3325.299
203.2698, 3308.615
203.7519, 3280.855
204.2340, 3246.082
204.7161, 3199.495
205.1983, 3148.416
205.6804, 3106.812
206.1625, 3083.952
206.6446, 3068.192
207.1267, 3044.271
207.6088, 3010.852
208.0910, 2978.536
208.5731, 2952.595
209.0552, 2931.974
209.5373, 2916.270
210.0194, 2910.892
210.5015, 2904.413
210.9837, 2880.038
211.4658, 2836.137
211.9479, 2798.374
212.4300, 2786.658
212.9121, 2784.977
213.3942, 2771.116
213.8764, 2738.521
214.3585, 2699.674
214.8406, 2663.130
215.3227, 2628.596
215.8048, 2602.773
216.2869, 2593.957
216.7691, 2591.988
217.2512, 2582.007
217.7333, 2559.218
218.2154, 2540.847
218.6975, 2546.961
219.1796, 2575.091
219.6618, 2593.520
220.1439, 2592.653
220.6260, 2576.869
221.1081, 2550.195
221.5902, 2510.914
222.0723, 2474.708
222.5545, 2451.737
223.0366, 2440.904
223.5187, 2438.500
224.0008, 2450.940
224.4829, 2462.352
224.9650, 2455.340
225.4472, 2430.385
225.9293, 2403.958
226.4114, 2384.040
226.8935, 2369.630
227.3756, 2358.116
227.8577, 2349.772
228.3399, 2343.194
228.8220, 2337.863
229.3041, 2333.448
229.7862, 2327.737
230.2683, 2315.805
230.7504, 2302.480
231.2325, 2300.151
231.7147, 2313.798
232.1968, 2327.595
232.6789, 2330.733
233.1610, 2324.444
233.6431, 2308.907
234.1252, 2273.064
234.6074, 2232.141
235.0895, 2210.850
235.5716, 2212.460
236.0537, 2218.886
236.5358, 2221.229
237.0179, 2219.287
237.5001, 2211.635
237.9822, 2188.561
238.4643, 2166.768
238.9464, 2167.475
239.4285, 2191.186
239.9106, 2214.721
240.3928, 2227.252
240.8749, 2230.169
241.3570, 2227.287
241.8391, 2215.594
242.3212, 2202.788
242.8033, 2196.320
243.2855, 2195.004
243.7676, 2189.327
244.2497, 2172.661
244.7318, 2151.701
245.2139, 2138.134
245.6960, 2132.139
246.1782, 2132.429
246.6603, 2141.878
247.1424, 2157.556
247.6245, 2172.610
248.1066, 2188.724
248.5887, 2196.575
249.0709, 2175.958
249.5530, 2122.813
250.0351, 2080.572
250.5172, 2070.897
250.9993, 2080.937
251.4814, 2089.163
251.9636, 2091.133
252.4457, 2090.758
252.9278, 2092.050
253.4099, 2094.910
253.8920, 2099.131
254.3741, 2109.205
254.8563, 2118.287
255.3384, 2116.188
255.8205, 2101.688
256.3026, 2087.390
256.7847, 2084.713
257.2668, 2093.834
257.7490, 2101.255
258.2311, 2109.622
258.7132, 2113.928
259.1953, 2106.795
259.6774, 2090.219
260.1595, 2077.245
260.6417, 2077.295
261.1238, 2088.067
261.6059, 2093.623
262.0880, 2089.728
262.5701, 2085.655
263.0522, 2083.318
263.5344, 2083.632
264.0165, 2090.929
264.4986, 2109.469
264.9807, 2131.872
265.4628, 2134.551
265.9449, 2100.064
266.4271, 2075.079
266.9092, 2075.950
267.3913, 2088.669
267.8734, 2094.173
268.3555, 2086.193
268.8376, 2072.322
269.3198, 2064.947
269.8019, 2069.508
270.2840, 2070.151
270.7661, 2065.991
271.2482, 2058.465
271.7303, 2047.532
272.2125, 2033.698
272.6946, 2019.077
273.1767, 2004.611
273.6588, 1987.802
274.1409, 1986.336
274.6230, 2017.461
275.1052, 2045.877
275.5873, 2050.104
276.0694, 2034.848
276.5515, 2019.557
277.0336, 2019.399
277.5157, 2033.380
277.9979, 2039.490
278.4800, 2029.403
278.9621, 2020.753
279.4442, 2020.532
279.9263, 2023.561
280.4084, 2021.224
280.8906, 2008.923
281.3727, 1989.878
281.8548, 1973.495
282.3369, 1955.559
282.8190, 1947.596
283.3011, 1955.513
283.7833, 1970.203
284.2654, 1985.406
284.7475, 1998.661
285.2296, 2008.591
285.7117, 2011.629
286.1938, 2003.521
286.6760, 2000.405
287.1581, 2009.291
287.6402, 2017.708
288.1223, 2016.628
288.6044, 2007.263
289.0865, 1999.089
289.5687, 2003.133
290.0508, 2019.956
290.5329, 2027.072
291.0150, 2016.572
291.4971, 2004.357
291.9792, 1995.799
292.4614, 1990.073
292.9435, 1985.161
293.4256, 1980.437
293.9077, 1975.353
294.3898, 1967.409
294.8719, 1953.720
295.3541, 1943.750
295.8362, 1943.529
296.3183, 1947.456
296.8004, 1949.929
297.2825, 1949.322
297.7646, 1946.645
298.2468, 1942.671
298.7289, 1937.261
299.2110, 1932.052
299.6931, 1926.465
300.1752, 1922.153
300.6573, 1921.311
301.1395, 1924.156
301.6216, 1926.454
302.1037, 1922.184
302.5858, 1914.414
303.0679, 1916.079
303.5500, 1932.527
304.0321, 1951.740
304.5143, 1963.778
304.9964, 1969.670
305.4785, 1971.969
305.9606, 1966.412
306.4427, 1960.135
306.9248, 1965.338
307.4070, 1983.145
307.8891, 1997.615
308.3712, 1996.385
308.8533, 1983.203
309.3354, 1974.677
309.8175, 1971.946
310.2997, 1973.120
310.7818, 1980.659
311.2639, 1991.827
311.7460, 1996.587
312.2281, 1988.714
312.7102, 1975.862
313.1924, 1977.384
313.6745, 2000.849
314.1566, 2018.198
314.6387, 2018.955
315.1208, 2012.772
315.6029, 2011.891
316.0851, 2018.907
316.5672, 2026.601
317.0493, 2025.967
317.5314, 2013.710
318.0135, 2007.338
318.4956, 2007.027
318.9778, 2011.861
319.4599, 2029.487
319.9420, 2053.390
320.4241, 2063.155
320.9062, 2041.405
321.3883, 1993.082
321.8705, 1968.147
322.3526, 1988.688
322.8347, 2008.111
323.3168, 2023.776
323.7989, 2032.652
324.2810, 2028.794
324.7632, 2010.036
325.2453, 1985.706
325.7274, 1975.204
326.2095, 1986.808
326.6916, 1994.153
327.1737, 1994.744
327.6559, 1991.968
328.1380, 1987.465
328.6201, 1981.600
329.1022, 1974.112
329.5843, 1963.292
330.0664, 1949.077
330.5486, 1940.418
331.0307, 1939.944
331.5128, 1942.251
331.9949, 1950.288
332.4770, 1958.690
332.9591, 1956.827
333.4413, 1935.899
333.9234, 1906.045
334.4055, 1887.456
334.8876, 1882.177
335.3697, 1878.997
335.8518, 1879.347
336.3340, 1876.484
336.8161, 1861.421
337.2982, 1830.928
337.7803, 1799.216
338.2624, 1773.432
338.7445, 1754.502
339.2267, 1748.211
339.7088, 1760.273
340.1909, 1776.635
340.6730, 1782.561
341.1551, 1779.288
341.6372, 1772.088
342.1194, 1759.215
342.6015, 1744.897
343.0836, 1733.806
343.5657, 1726.149
344.0478, 1720.082
344.5299, 1714.527
345.0121, 1709.574
345.4942, 1705.364
345.9763, 1702.907
346.4584, 1700.033
346.9405, 1693.803
347.4226, 1686.956
347.9048, 1686.372
348.3869, 1695.107
348.8690, 1705.527
349.3511, 1703.634
349.8332, 1681.096
350.3153, 1660.925
350.7975, 1635.255
351.2796, 1617.541
351.7617, 1625.729
352.2438, 1655.172
352.7259, 1679.928
353.2080, 1674.847
353.6902, 1639.840
354.1723, 1616.724
354.6544, 1609.569
355.1365, 1611.534
355.6186, 1631.148
356.1007, 1656.270
356.5829, 1669.190
357.0650, 1661.014
357.5471, 1643.423
358.0292, 1641.538
358.5113, 1663.763
358.9934, 1674.893
359.4756, 1657.295
359.9577, 1635.039
360.4398, 1623.724
360.9219, 1623.842
361.4040, 1623.814
361.8861, 1611.027
362.3683, 1589.348
362.8504, 1579.042
363.3325, 1584.203
363.8146, 1594.010
364.2967, 1602.831
364.7788, 1611.119
365.2610, 1619.579
365.7431, 1628.256
366.2252, 1637.273
366.7073, 1648.881
367.1894, 1662.071
367.6715, 1669.565
368.1537, 1668.057
368.6358, 1659.641
369.1179, 1645.789
369.6000, 1622.983
370.0821, 1608.868
370.5642, 1616.065
371.0464, 1630.903
371.5285, 1635.959
372.0106, 1629.003
372.4927, 1620.435
372.9748, 1619.685
373.4569, 1627.202
373.9391, 1635.672
374.4212, 1646.448
374.9033, 1656.561
375.3854, 1665.023
375.8675, 1672.100
376.3496, 1678.638
376.8318, 1685.076
377.3139, 1690.574
377.7960, 1693.011
378.2781, 1689.865
378.7602, 1688.304
379.2423, 1686.923
379.7245, 1688.195
380.2066, 1695.179
380.6887, 1707.092
381.1708, 1719.365
381.6529, 1727.952
382.1350, 1733.146
382.6172, 1738.874
383.0993, 1745.668
383.5814, 1752.093
384.0635, 1757.255
384.5456, 1761.853
385.0277, 1767.255
385.5099, 1774.544
385.9920, 1780.909
386.4741, 1780.149
386.9562, 1772.948
387.4383, 1773.998
387.9204, 1791.057
388.4026, 1812.864
388.8847, 1824.920
389.3668, 1827.610
389.8489, 1833.977
390.3310, 1851.379
390.8131, 1873.202
391.2953, 1893.339
391.7774, 1911.017
392.2595, 1921.762
392.7416, 1920.308
393.2237, 1909.644
393.7058, 1907.877
394.1880, 1914.365
394.6701, 1928.888
395.1522, 1958.281
395.6343, 1993.188
396.1164, 2020.281
396.5985, 2035.720
397.0807, 2047.464
397.5628, 2067.163
398.0449, 2098.896
398.5270, 2124.161
399.0091, 2141.199
399.4912, 2154.596
399.9734, 2164.301
400.4555, 2172.003
400.9376, 2180.236
401.4197, 2190.101
401.9018, 2202.380
402.3839, 2220.162
402.8660, 2246.033
403.3481, 2270.511
403.8303, 2292.428
404.3124, 2311.302
404.7945, 2324.264
405.2766, 2331.422
405.7587, 2340.567
406.2408, 2361.332
406.7230, 2389.158
407.2051, 2407.584
407.6872, 2413.271
408.1693, 2415.694
408.6514, 2418.606
409.1335, 2423.461
409.6157, 2434.637
410.0978, 2457.047
410.5799, 2481.129
411.0620, 2502.618
411.5441, 2521.043
412.0262, 2534.370
412.5084, 2541.479
412.9905, 2545.267
413.4726, 2549.764
413.9547, 2554.066
414.4368, 2562.225
414.9189, 2572.574
415.4011, 2588.138
415.8832, 2613.642
416.3653, 2646.529
416.8474, 2680.451
417.3295, 2712.170
417.8116, 2740.041
418.2938, 2755.331
418.7759, 2744.747
419.2580, 2743.259
419.7401, 2754.557
420.2222, 2776.080
420.7043, 2811.441
421.1865, 2858.642
421.6686, 2901.631
422.1507, 2922.629
422.6328, 2923.797
423.1149, 2926.220
423.5970, 2928.588
424.0792, 2935.867
424.5613, 2957.920
425.0434, 2985.268
425.5255, 3001.811
426.0076, 3001.885
426.4897, 2993.420
426.9719, 2981.308
427.4540, 2965.880
427.9361, 2946.496
428.4182, 2921.028
428.9003, 2897.671
429.3824, 2890.276
429.8646, 2903.073
430.3467, 2902.433
430.8288, 2879.487
431.3109, 2848.284
431.7930, 2812.800
432.2751, 2776.582
432.7573, 2747.053
433.2394, 2728.559
433.7215, 2718.439
434.2036, 2708.534
434.6857, 2699.660
435.1678, 2689.606
435.6500, 2672.790
436.1321, 2658.912
436.6142, 2657.656
437.0963, 2667.502
437.5784, 2676.792
438.0605, 2674.457
438.5427, 2663.252
439.0248, 2659.115
439.5069, 2664.322
439.9890, 2671.380
440.4711, 2672.888
440.9532, 2676.399
441.4354, 2694.534
441.9175, 2734.176
442.3996, 2767.054
442.8817, 2760.040
443.3638, 2731.633
443.8459, 2733.833
444.3281, 2779.201
444.8102, 2833.331
445.2923, 2864.563
445.7744, 2873.209
446.2565, 2893.767
446.7386, 2934.474
447.2208, 2978.031
447.7029, 3013.968
448.1850, 3048.128
448.6671, 3094.189
449.1492, 3156.901
449.6313, 3223.293
450.1135, 3269.769
450.5956, 3282.815
451.0777, 3318.133
451.5598, 3397.017
452.0419, 3476.216
452.5240, 3537.552
453.0062, 3585.107
453.4883, 3628.927
453.9704, 3672.103
454.4525, 3719.796
454.9346, 3783.076
455.4167, 3863.448
455.8989, 3949.604
456.3810, 4040.106
456.8631, 4134.955
457.3452, 4236.325
457.8273, 4343.644
458.3094, 4443.588
458.7916, 4526.442
459.2737, 4602.327
459.7558, 4682.399
460.2379, 4767.114
460.7200, 4852.777
461.2021, 4936.077
461.6843, 5020.675
462.1664, 5117.808
462.6485, 5241.881
463.1306, 5353.137
463.6127, 5432.603
464.0948, 5508.528
464.5770, 5608.859
465.0591, 5731.302
465.5412, 5850.711
466.0233, 5946.537
466.5054, 6021.634
466.9875, 6095.859
467.4697, 6168.161
467.9518, 6241.022
468.4339, 6320.098
468.9160, 6396.910
469.3981, 6463.284
469.8802, 6517.985
470.3624, 6567.445
470.8445, 6611.103
471.3266, 6653.428
471.8087, 6708.460
472.2908, 6778.825
472.7729, 6856.507
473.2551, 6942.864
473.7372, 7031.724
474.2193, 7103.025
474.7014, 7144.395
475.1835, 7188.125
475.6656, 7243.788
476.1478, 7310.369
476.6299, 7391.786
477.1120, 7486.722
477.5941, 7579.551
478.0762, 7653.154
478.5583, 7706.900
479.0405, 7765.718
479.5226, 7826.053
480.0047, 7895.813
480.4868, 7989.470
480.9689, 8087.347
481.4510, 8164.899
481.9332, 8216.104
482.4153, 8257.343
482.8974, 8310.574
483.3795, 8373.802
483.8616, 8422.009
484.3438, 8457.493
484.8259, 8469.964
485.3080, 8441.510
485.7901, 8386.865
486.2722, 8329.827
486.7543, 8272.687
487.2365, 8216.287
487.7186, 8171.020
488.2007, 8124.954
488.6828, 8050.705
489.1649, 7941.598
489.6470, 7816.957
490.1292, 7699.598
490.6113, 7591.950
491.0934, 7448.750
491.5755, 7240.667
492.0576, 7035.488
492.5397, 6852.187
493.0219, 6683.198
493.5040, 6522.458
493.9861, 6367.241
494.4682, 6204.098
494.9503, 6011.478
495.4324, 5787.268
495.9146, 5577.207
496.3967, 5387.657
496.8788, 5205.901
497.3609, 5023.772
497.8430, 4845.613
498.3251, 4678.857
498.8073, 4529.664
499.2894, 4384.141
499.7715, 4229.586
500.2536, 4071.969
500.7357, 3923.415
501.2178, 3787.412
501.6999, 3663.453
502.1820, 3552.639
502.6642, 3455.530
503.1463, 3360.363
503.6284, 3268.617
504.1105, 3177.775
504.5926, 3082.104
505.0747, 2989.473
505.5569, 2908.607
506.0390, 2842.336
506.5211, 2785.231
507.0032, 2733.700
507.4853, 2688.040
507.9674, 2636.241
508.4496, 2571.539
508.9317, 2511.828
509.4138, 2463.583
509.8959, 2425.072
510.3780, 2397.721
510.8601, 2385.659
511.3423, 2369.447
511.8244, 2329.393
512.3065, 2276.583
512.7886, 2234.847
513.2708, 2208.172
513.7529, 2187.123
514.2350, 2165.393
514.7171, 2142.821
515.1992, 2118.110
515.6813, 2081.402
516.1635, 2055.141
516.6456, 2050.714
517.1277, 2054.551
517.6098, 2057.429
518.0919, 2055.369
518.5740, 2042.028
519.0562, 2006.419
519.5383, 1953.352
520.0204, 1921.577
520.5025, 1918.145
520.9846, 1919.302
521.4667, 1919.688
521.9489, 1918.473
522.4310, 1915.374
522.9131, 1910.574
523.3952, 1901.187
523.8773, 1882.197
524.3594, 1859.452
524.8416, 1840.565
525.3237, 1826.066
525.8058, 1814.304
526.2879, 1804.167
526.7700, 1796.144
527.2521, 1791.997
527.7343, 1796.054
528.2164, 1797.873
528.6985, 1798.793
529.1806, 1796.431
529.6627, 1786.856
530.1448, 1772.239
530.6270, 1758.972
531.1091, 1750.793
531.5912, 1746.912
532.0733, 1747.456
532.5554, 1753.913
533.0375, 1753.492
533.5197, 1738.908
534.0018, 1721.010
534.4839, 1712.266
534.9660, 1711.257
535.4481, 1704.493
535.9302, 1673.720
536.4124, 1648.863
536.8945, 1664.070
537.3766, 1703.653
537.8587, 1724.217
538.3408, 1709.117
538.8229, 1679.201
539.3051, 1666.609
539.7872, 1679.452
540.2693, 1674.981
540.7514, 1627.812
541.2335, 1591.099
541.7156, 1591.328
542.1978, 1609.006
542.6799, 1612.109
543.1620, 1588.864
543.6441, 1564.616
544.1262, 1572.528
544.6083, 1604.478
545.0905, 1618.309
545.5726, 1606.812
546.0547, 1588.204
546.5368, 1573.957
547.0189, 1562.678
547.5010, 1548.482
547.9832, 1525.382
548.4653, 1508.325
548.9474, 1506.994
549.4295, 1510.292
549.9116, 1504.667
550.3937, 1490.347
550.8758, 1479.068
551.3579, 1480.919
551.8400, 1492.644
552.3221, 1500.793
552.8043, 1508.551
553.2864, 1504.971
553.7685, 1475.961
554.2506, 1442.970
554.7327, 1418.605
555.2148, 1403.650
555.6970, 1395.368
556.1791, 1395.200
556.6612, 1399.190
557.1433, 1406.195
557.6254, 1414.300
558.1075, 1413.781
558.5897, 1399.956
559.0718, 1381.137
559.5539, 1369.349
560.0360, 1366.096
560.5181, 1363.889
561.0002, 1365.152
561.4824, 1364.653
561.9645, 1360.921
562.4466, 1354.022
562.9287, 1342.927
563.4108, 1327.427
563.8929, 1312.621
564.3751, 1305.708
564.8572, 1305.363
565.3393, 1302.406
565.8214, 1295.961
566.3035, 1287.859
566.7856, 1277.658
567.2678, 1267.085
567.7499, 1260.548
568.2320, 1260.421
568.7141, 1259.143
569.1962, 1254.463
569.6783, 1247.759
570.1605, 1239.651
570.6426, 1230.640
571.1247, 1221.499
571.6068, 1212.599
572.0889, 1204.547
572.5710, 1198.844
573.0532, 1194.764
573.5353, 1195.345
574.0174, 1205.849
574.4995, 1216.468
574.9816, 1222.542
575.4637, 1224.036
575.9459, 1221.258
576.4280, 1210.669
576.9101, 1200.629
577.3922, 1201.494
577.8743, 1208.211
578.3564, 1206.609
578.8386, 1193.200
579.3207, 1177.829
579.8028, 1170.479
580.2849, 1171.004
580.7670, 1169.564
581.2491, 1161.010
581.7313, 1156.949
582.2134, 1163.893
582.6955, 1172.748
583.1776, 1175.294
583.6597, 1170.712
584.1418, 1163.544
584.6240, 1156.331
585.1061, 1149.135
585.5882, 1142.755
586.0703, 1137.188
586.5524, 1128.713
587.0345, 1114.465
587.5167, 1099.539
587.9988, 1090.649
588.4809, 1088.181
588.9630, 1091.130
589.4451, 1105.261
589.9272, 1118.682
590.4094, 1125.755
590.8915, 1128.559
591.3736, 1131.285
591.8557, 1135.114
592.3378, 1136.887
592.8199, 1129.506
593.3021, 1114.334
593.7842, 1113.560
594.2663, 1134.675
594.7484, 1147.802
595.2305, 1132.716
595.7126, 1104.720
596.1948, 1088.750
596.6769, 1086.382
597.1590, 1090.341
597.6411, 1107.897
598.1232, 1123.526
598.6053, 1118.999
599.0875, 1100.587
599.5696, 1088.400
600.0517, 1092.177
600.5338, 1104.698
601.0159, 1114.131
601.4980, 1120.671
601.9802, 1122.263
602.4623, 1114.035
602.9444, 1107.557
603.4265, 1109.142
603.9086, 1115.642
604.3907, 1123.100
604.8729, 1132.346
605.3550, 1136.959
605.8371, 1127.582
606.3192, 1114.278
606.8013, 1112.127
607.2834, 1121.284
607.7656, 1133.700
608.2477, 1145.387
608.7298, 1153.705
609.2119, 1149.939
609.6940, 1125.206
610.1761, 1108.938
610.6583, 1109.138
611.1404, 1111.367
611.6225, 1110.163
612.1046, 1106.104
612.5867, 1100.679
613.0688, 1093.474
613.5510, 1087.653
614.0331, 1085.375
614.5152, 1086.583
614.9973, 1093.357
615.4794, 1105.588
615.9615, 1113.965
616.4437, 1110.632
616.9258, 1099.289
617.4079, 1095.437
617.8900, 1108.469
618.3721, 1113.662
618.8542, 1098.459
619.3364, 1086.447
619.8185, 1100.192
620.3006, 1128.488
620.7827, 1140.651
621.2648, 1118.268
621.7469, 1086.701
622.2291, 1074.638
622.7112, 1077.583
623.1933, 1079.885
623.6754, 1078.913
624.1575, 1077.080
624.6396, 1076.199
625.1218, 1076.050
625.6039, 1075.399
626.0860, 1069.332
626.5681, 1069.635
627.0502, 1085.106
627.5323, 1100.178
628.0145, 1101.515
628.4966, 1092.632
628.9787, 1086.981
629.4608, 1093.023
629.9429, 1101.352
630.4250, 1096.605
630.9072, 1081.871
631.3893, 1075.225
631.8714, 1081.103
632.3535, 1087.734
632.8356, 1085.500
633.3177, 1075.970
633.7999, 1069.224
634.2820, 1065.344
634.7641, 1064.014
635.2462, 1066.787
635.7283, 1070.790
636.2104, 1073.750
636.6926, 1076.005
637.1747, 1080.293
637.6568, 1089.839
638.1389, 1097.234
638.6210, 1086.948
639.1031, 1062.506
639.5853, 1050.484
640.0674, 1057.296
640.5495, 1066.525
641.0316, 1064.302
641.5137, 1053.630
641.9958, 1052.341
642.4780, 1074.109
642.9601, 1085.371
643.4422, 1074.333
643.9243, 1059.246
644.4064, 1051.622
644.8885, 1051.969
645.3707, 1058.544
645.8528, 1072.656
646.3349, 1084.859
646.8170, 1077.671
647.2991, 1055.057
647.7813, 1042.335
648.2634, 1044.584
648.7455, 1048.741
649.2276, 1045.286
649.7097, 1036.196
650.1918, 1029.928
650.6740, 1029.350
651.1561, 1027.280
651.6382, 1018.831
652.1203, 1012.829
652.6024, 1018.103
653.0845, 1030.420
653.5667, 1039.244
654.0488, 1039.618
654.5309, 1035.563
655.0130, 1030.353
655.4951, 1024.682
655.9772, 1023.178
656.4594, 1027.123
656.9415, 1025.327
657.4236, 1006.876
657.9057, 980.9608
658.3878, 975.6561
658.8699, 1009.598
659.3521, 1032.111
659.8342, 1036.133
660.3163, 1036.013
660.7984, 1041.498
661.2805, 1047.996
661.7626, 1043.471
662.2448, 1022.396
662.7269, 1002.622
663.2090, 1007.463
663.6911, 1025.924
664.1732, 1027.703
664.6553, 1010.777
665.1375, 995.4468
665.6196, 992.5842
666.1017, 997.2350
666.5838, 999.2913
667.0659, 997.9165
667.5480, 996.1830
668.0302, 991.9636
668.5123, 989.7772
668.9944, 994.0536
669.4765, 1000.160
669.9586, 1000.873
670.4407, 994.4210
670.9229, 988.2828
671.4050, 990.3043
671.8871, 994.6491
672.3692, 990.5974
672.8513, 979.3550
673.3334, 969.2218
673.8156, 963.3023
674.2977, 962.4652
674.7798, 969.2114
675.2619, 985.2588
675.7440, 994.7156
676.2261, 993.3583
676.7083, 991.1002
677.1904, 992.7509
677.6725, 993.3085
678.1546, 985.4330
678.6367, 969.3943
679.1188, 957.6875
679.6010, 958.1484
680.0831, 963.9376
680.5652, 970.6172
681.0473, 977.2038
681.5294, 981.2772
682.0115, 982.3058
682.4937, 982.7810
682.9758, 985.7355
683.4579, 990.3602
683.9400, 989.1484
684.4221, 979.0805
684.9042, 970.8486
685.3864, 966.3747
685.8685, 964.9857
686.3506, 968.4650
686.8327, 975.1019
687.3148, 976.5474
687.7969, 963.3791
688.2791, 953.9091
688.7612, 961.3681
689.2433, 975.1121
689.7254, 981.7474
690.2075, 980.3357
690.6896, 977.5249
691.1718, 977.6785
691.6539, 979.5555
692.1360, 980.0034
692.6181, 978.8387
693.1002, 980.3548
693.5823, 987.4194
694.0645, 991.4658
694.5466, 984.4326
695.0287, 970.2299
695.5108, 961.9003
695.9929, 963.3576
696.4750, 962.3666
696.9572, 952.1467
697.4393, 943.3488
697.9214, 943.8464
698.4035, 951.3168
698.8856, 960.3533
699.3677, 968.8549
699.8499, 977.3818
700.3320, 989.7269
700.8141, 1002.461
701.2962, 1000.590
701.7783, 983.3271
702.2604, 972.2080
702.7426, 977.8295
703.2247, 992.3206
703.7068, 1004.244
704.1889, 1014.882
704.6710, 1016.556
705.1531, 996.9216
705.6353, 983.4831
706.1174, 989.7817
706.5995, 1001.551
707.0816, 1001.415
707.5637, 988.7770
708.0458, 981.3558
708.5280, 994.5048
709.0101, 1012.880
709.4922, 1020.209
709.9743, 1019.765
710.4564, 1020.149
710.9385, 1023.293
711.4207, 1024.724
711.9028, 1019.539
712.3849, 1010.038
712.8670, 1008.245
713.3491, 1015.488
713.8312, 1026.623
714.3134, 1045.215
714.7955, 1062.447
715.2776, 1071.601
715.7597, 1074.598
716.2418, 1076.337
716.7239, 1077.776
717.2061, 1077.444
717.6882, 1068.731
718.1703, 1062.715
718.6524, 1073.458
719.1345, 1096.038
719.6166, 1114.907
720.0988, 1122.750
720.5809, 1125.412
721.0630, 1132.842
721.5451, 1142.876
722.0272, 1138.007
722.5093, 1114.885
722.9915, 1100.761
723.4736, 1110.561
723.9557, 1131.755
724.4378, 1143.734
724.9199, 1144.189
725.4020, 1145.577
725.8842, 1151.590
726.3663, 1153.944
726.8484, 1143.057
727.3305, 1131.909
727.8126, 1137.642
728.2947, 1159.527
728.7769, 1176.880
729.2590, 1173.176
729.7411, 1164.697
730.2232, 1175.693
730.7053, 1193.994
731.1874, 1185.420
731.6696, 1145.745
732.1517, 1107.441
732.6338, 1096.486
733.1159, 1106.458
733.5980, 1116.995
734.0801, 1129.957
734.5623, 1134.911
735.0444, 1124.303
735.5265, 1115.290
736.0086, 1123.547
736.4907, 1140.164
736.9728, 1145.350
737.4550, 1134.166
737.9371, 1122.400
738.4192, 1114.555
738.9013, 1106.501
739.3834, 1092.538
739.8655, 1077.139
740.3477, 1068.878
740.8298, 1070.300
741.3119, 1075.938
741.7940, 1083.099
742.2761, 1089.831
742.7582, 1091.760
743.2404, 1088.839
743.7225, 1079.365
744.2046, 1061.556
744.6867, 1044.737
745.1688, 1040.049
745.6509, 1046.692
746.1331, 1046.593
746.6152, 1032.545
747.0973, 1024.351
747.5793, 1028.670
748.0615, 1036.299
748.5436, 1042.933
749.0257, 1048.131
749.5078, 1051.438
749.9899, 1052.759
750.4720, 1052.095
750.9542, 1047.195
751.4363, 1041.918
751.9184, 1038.781
752.4005, 1039.067
752.8826, 1046.203
753.3647, 1061.759
753.8469, 1079.234
754.3290, 1088.921
754.8111, 1092.506
755.2932, 1101.854
755.7753, 1117.983
756.2574, 1130.096
756.7396, 1133.193
757.2217, 1132.200
757.7038, 1132.786
758.1859, 1134.734
758.6680, 1141.047
759.1501, 1160.788
759.6323, 1172.978
760.1144, 1168.889
760.5965, 1160.644
761.0786, 1153.947
761.5607, 1151.348
762.0428, 1159.506
762.5250, 1187.571
763.0071, 1214.006
763.4892, 1228.398
763.9713, 1230.571
764.4534, 1210.645
764.9355, 1176.721
765.4177, 1160.089
765.8998, 1176.946
766.3819, 1207.378
766.8640, 1220.688
767.3461, 1218.338
767.8282, 1220.950
768.3104, 1231.056
768.7925, 1230.211
769.2746, 1204.470
769.7567, 1176.195
770.2388, 1179.338
770.7209, 1218.296
771.2031, 1239.651
771.6852, 1233.053
772.1673, 1222.741
772.6494, 1208.577
773.1315, 1195.760
773.6136, 1191.806
774.0958, 1193.290
774.5779, 1186.185
775.0600, 1159.735
775.5421, 1135.207
776.0242, 1131.032
776.5063, 1134.547
776.9885, 1127.200
777.4706, 1110.904
777.9527, 1100.387
778.4348, 1102.822
778.9169, 1108.407
779.3990, 1102.078
779.8812, 1085.499
780.3633, 1071.949
780.8454, 1061.361
781.3275, 1056.712
781.8096, 1061.151
782.2917, 1067.162
782.7739, 1065.694
783.2560, 1056.639
783.7381, 1046.651
784.2202, 1036.071
784.7023, 1024.057
785.1844, 1006.287
785.6666, 990.8544
786.1487, 985.4308
786.6308, 986.8604
787.1129, 986.1238
787.5950, 981.5974
788.0771, 972.5710
788.5593, 953.0121
789.0414, 933.0403
789.5235, 923.5992
790.0056, 922.6623
790.4877, 923.9539
790.9698, 924.9730
791.4520, 925.3912
791.9341, 925.3989
792.4162, 924.4072
792.8983, 920.4149
793.3804, 913.4604
793.8625, 902.7191
794.3447, 886.5804
794.8268, 876.3934
795.3089, 885.4045
795.7910, 909.1235
796.2731, 916.6179
796.7552, 897.3736
797.2374, 885.6964
797.7195, 894.8143
798.2016, 900.1828
798.6837, 881.4839
799.1658, 852.3363
799.6479, 839.1617
800.1301, 848.9898
800.6122, 855.7634
801.0943, 848.5673
801.5764, 840.3323
802.0585, 839.3419
802.5406, 842.3213
803.0228, 844.5342
803.5049, 844.7744
803.9870, 843.6341
804.4691, 840.7679
804.9512, 837.6703
805.4333, 837.7299
805.9155, 839.1286
806.3976, 835.4515
806.8797, 826.2340
807.3618, 818.9252
807.8439, 818.9939
808.3260, 820.9729
808.8082, 810.8485
809.2903, 786.5350
809.7724, 771.8433
810.2545, 769.3917
810.7366, 770.0693
811.2188, 768.5605
811.7009, 770.1508
812.1830, 786.1257
812.6651, 819.7092
813.1472, 833.3023
813.6293, 804.6414
814.1115, 786.5484
814.5936, 800.3482
815.0757, 819.4603
815.5578, 822.6660
816.0399, 812.7902
816.5220, 804.5077
817.0042, 804.7488
817.4863, 800.5166
817.9684, 774.6714
818.4505, 747.8056
818.9326, 746.3439
819.4147, 761.8936
819.8969, 769.1092
820.3790, 759.9650
820.8611, 750.2785
821.3432, 759.4548
821.8253, 778.1928
822.3074, 780.7986
822.7896, 769.4080
823.2717, 759.2169
823.7538, 753.5778
824.2359, 754.2784
824.7180, 764.7449
825.2001, 779.2629
825.6823, 776.1202
826.1644, 746.5349
826.6465, 733.6453
827.1286, 750.0198
827.6107, 763.5187
828.0928, 754.9316
828.5750, 737.1708
829.0571, 730.5338
829.5392, 736.0288
830.0213, 741.6464
830.5034, 744.6286
830.9855, 750.1207
831.4677, 767.8670
831.9498, 782.4514
832.4319, 776.3757
832.9140, 753.9455
833.3961, 734.1445
833.8782, 723.7342
834.3604, 718.4777
834.8425, 716.4558
835.3246, 717.3130
835.8067, 722.2753
836.2888, 729.5417
836.7709, 734.9978
837.2531, 737.1786
837.7352, 736.9595
838.2173, 734.2785
838.6994, 730.4288
839.1815, 729.3161
839.6636, 730.4625
840.1458, 728.5830
840.6279, 722.2101
841.1100, 722.9025
841.5921, 741.5845
842.0742, 768.6320
842.5563, 775.4523
843.0385, 756.4378
843.5206, 743.6066
844.0027, 739.0901
844.4848, 738.2120
844.9669, 739.9194
845.4490, 743.4831
845.9312, 750.1052
846.4133, 760.8257
846.8954, 760.0499
847.3775, 732.1780
847.8596, 714.1663
848.3417, 720.2612
848.8239, 732.2018
849.3060, 738.7373
849.7881, 739.6457
850.2702, 736.2460
850.7523, 726.9405
851.2344, 720.9240
851.7166, 725.5309
852.1987, 732.4907
852.6808, 736.5373
853.1629, 737.1289
853.6450, 732.1197
854.1271, 722.4200
854.6093, 715.8622
855.0914, 719.4808
855.5735, 727.6914
856.0556, 736.0386
856.5377, 741.8895
857.0198, 733.4545
857.5020, 712.2097
857.9841, 700.7948
858.4662, 712.1699
858.9483, 732.0435
859.4304, 735.0623
859.9125, 722.8524
860.3947, 727.4594
860.8768, 751.8932
861.3589, 764.6370
861.8410, 753.8904
862.3231, 736.2544
862.8052, 727.7521
863.2874, 726.1342
863.7695, 716.3062
864.2516, 684.7999
864.7337, 676.9683
865.2158, 718.2906
865.6979, 753.3085
866.1801, 748.0968
866.6622, 723.8575
867.1443, 709.6313
867.6264, 707.0148
868.1085, 705.3681
868.5906, 701.0015
869.0728, 700.5609
869.5549, 711.2700
870.0370, 722.7236
870.5191, 724.8735
871.0012, 719.5668
871.4833, 714.0343
871.9655, 709.1306
872.4476, 709.7859
872.9297, 726.5787
873.4118, 743.4993
873.8939, 740.1049
874.3760, 726.7913
874.8582, 729.1304
875.3403, 750.1075
875.8224, 762.2344
876.3045, 739.4503
876.7866, 705.7194
877.2687, 698.2762
877.7509, 707.5331
878.2330, 705.5791
878.7151, 692.0693
879.1972, 690.7972
879.6793, 714.3818
880.1614, 744.1678
880.6436, 752.3043
881.1257, 741.9109
881.6078, 733.8533
882.0899, 728.2231
882.5720, 722.1346
883.0541, 714.3364
883.5363, 709.4650
884.0184, 713.2403
884.5005, 720.6545
884.9826, 710.5309
885.4647, 669.6553
885.9468, 662.7722
886.4290, 713.3079
886.9111, 752.4522
887.3932, 744.9278
887.8753, 718.4533
888.3574, 706.0161
888.8395, 707.8000
889.3217, 715.9806
889.8038, 743.5485
890.2859, 758.5189
890.7680, 746.8214
891.2501, 732.0004
891.7322, 728.7386
892.2144, 732.1782
892.6965, 731.9208
893.1786, 725.9708
893.6607, 720.1221
894.1428, 714.9464
894.6249, 711.5345
895.1071, 709.6143
895.5892, 710.2987
896.0713, 716.2466
896.5534, 726.0881
897.0355, 734.5015
897.5176, 738.7889
897.9998, 742.7111
898.4819, 750.8639
898.9640, 758.4991
899.4461, 761.3951
899.9282, 759.1862
900.4103, 749.4402
900.8925, 733.0374
901.3746, 719.9576
901.8567, 719.1937
902.3388, 723.5151
902.8209, 721.8755
903.3030, 717.0080
903.7852, 718.0784
904.2673, 724.0518
904.7494, 721.8727
905.2315, 705.4555
905.7136, 686.7690
906.1957, 681.1936
906.6779, 686.3818
907.1600, 694.9952
907.6421, 706.4156
908.1242, 708.6935
908.6063, 698.7409
909.0884, 689.2319
909.5706, 688.8966
910.0527, 695.1720
910.5348, 703.9786
911.0169, 716.3782
911.4990, 720.2620
911.9811, 714.1649
912.4633, 704.1942
912.9454, 688.4823
913.4275, 678.2941
913.9096, 687.2470
914.3917, 711.1302
914.8738, 725.1470
915.3560, 727.2771
915.8381, 723.9464
916.3202, 709.0313
916.8023, 698.6014
917.2844, 704.4377
917.7665, 715.1517
918.2487, 712.9889
918.7308, 697.2220
919.2129, 691.4677
919.6950, 705.6503
920.1771, 715.9749
920.6592, 719.9656
921.1414, 718.3733
921.6235, 704.4379
922.1056, 687.8557
922.5877, 688.3301
923.0698, 711.0599
923.5519, 726.5798
924.0341, 726.5593
924.5162, 719.4155
924.9983, 695.0085
925.4804, 675.9349
925.9625, 692.2783
926.4446, 732.1110
926.9268, 755.8430
927.4089, 749.5977
927.8910, 736.8508
928.3731, 725.5759
928.8552, 716.8450
929.3373, 713.9505
929.8195, 712.8286
930.3016, 705.9893
930.7837, 694.2282
931.2658, 686.1145
931.7479, 685.3543
932.2300, 691.6328
932.7122, 713.5536
933.1943, 736.0508
933.6764, 736.5910
934.1585, 721.6843
934.6406, 707.0164
935.1227, 698.0289
935.6049, 697.7200
936.0870, 712.3402
936.5691, 729.2759
937.0512, 727.8707
937.5333, 716.2859
938.0154, 710.6373
938.4976, 712.5770
938.9797, 723.0756
939.4618, 741.8760
939.9439, 755.8012
940.4260, 748.2102
940.9081, 728.2820
941.3903, 718.0078
941.8724, 715.5269
942.3545, 713.0432
942.8366, 709.2256
943.3187, 703.0575
943.8008, 693.8848
944.2830, 684.1962
944.7651, 676.0142
945.2471, 670.6671
945.7292, 679.1609
946.2114, 700.9193
946.6935, 715.8138
947.1756, 719.5256
947.6577, 717.3388
948.1398, 711.8630
948.6219, 705.9739
949.1041, 705.9408
949.5862, 711.9158
950.0683, 716.3954
950.5504, 718.9310
951.0325, 724.5151
951.5146, 736.4836
951.9968, 743.2116
952.4789, 733.3550
952.9610, 713.6221
953.4431, 704.8835
953.9252, 710.3762
954.4073, 710.0778
954.8895, 701.1957
955.3716, 695.0959
955.8537, 695.8258
956.3358, 700.1161
956.8179, 705.4803
957.3000, 711.4880
957.7822, 715.9205
958.2643, 717.8987
958.7464, 721.0202
959.2285, 728.0571
959.7106, 731.0498
960.1927, 726.5576
960.6749, 716.8750
961.1570, 701.3598
961.6391, 681.4759
962.1212, 674.8368
962.6033, 687.5774
963.0854, 702.1946
963.5676, 723.9175
964.0497, 739.4854
964.5318, 737.2158
965.0139, 729.7255
965.4960, 735.0405
965.9781, 753.3109
966.4603, 764.8387
966.9424, 769.7114
967.4245, 767.6180
967.9066, 750.8942
968.3887, 735.5933
968.8708, 729.6934
969.3530, 730.0999
969.8351, 732.0207
970.3172, 735.1599
970.7993, 742.6540
971.2814, 761.4977
971.7635, 775.1093
972.2457, 779.4127
972.7278, 778.7316
973.2099, 770.6918
973.6920, 761.5653
974.1741, 763.8861
974.6563, 780.0032
975.1384, 788.7150
975.6205, 780.9104
976.1026, 772.7408
976.5847, 767.5190
977.0668, 764.6146
977.5490, 764.9402
978.0311, 766.6789
978.5132, 764.7372
978.9953, 757.2894
979.4774, 758.5488
979.9595, 787.2054
980.4417, 805.3810
980.9238, 788.4053
981.4059, 764.8549
981.8880, 754.9874
982.3701, 758.1953
982.8522, 771.9223
983.3344, 797.8224
983.8165, 814.3214
984.2986, 805.1465
984.7807, 796.8155
985.2628, 803.0515
985.7449, 813.8743
986.2271, 823.3564
986.7092, 828.8153
987.1913, 823.5507
987.6734, 803.2574
988.1555, 793.5393
988.6376, 813.5185
989.1198, 834.7354
989.6019, 844.6857
990.0840, 847.2950
990.5661, 844.0422
991.0482, 837.7424
991.5303, 833.2762
992.0125, 831.3763
992.4946, 834.7646
992.9767, 853.1747
993.4588, 867.0463
993.9409, 861.2243
994.4230, 848.3997
994.9052, 840.3793
995.3873, 837.6387
995.8694, 837.4216
996.3515, 839.3628
996.8336, 840.9995
997.3157, 840.8998
997.7979, 840.5572
998.2800, 838.2344
998.7621, 838.1174
999.2442, 847.0319
999.7263, 861.8887
1000.208, 873.5053
1000.691, 879.4931
1001.173, 880.4899
1001.655, 868.4266
1002.137, 861.0844
1002.619, 879.0594
1003.101, 899.9571
1003.583, 895.3170
1004.065, 872.1331
1004.547, 858.8947
1005.030, 865.5223
1005.512, 869.2160
1005.994, 847.7654
1006.476, 834.2723
1006.958, 857.3383
1007.440, 891.8640
1007.922, 913.5969
1008.404, 922.0444
1008.887, 923.7247
1009.369, 919.5130
1009.851, 915.4564
1010.333, 912.3853
1010.815, 912.2844
1011.297, 921.1235
1011.779, 929.6368
1012.261, 926.8548
1012.743, 915.8354
1013.226, 905.4178
1013.708, 897.1974
1014.190, 895.5981
1014.672, 908.5891
1015.154, 921.0922
1015.636, 923.8563
1016.118, 923.7524
1016.600, 930.0490
1017.083, 938.6678
1017.565, 935.2187
1018.047, 914.0497
1018.529, 905.5579
1019.011, 937.7579
1019.493, 962.9619
1019.975, 950.3741
1020.457, 929.9082
1020.939, 929.1381
1021.422, 941.3806
1021.904, 947.1793
1022.386, 942.3849
1022.868, 938.4022
1023.350, 939.7106
1023.832, 940.9261
1024.314, 938.5793
1024.796, 936.7636
1025.279, 943.1088
1025.761, 950.7550
1026.243, 942.3777
1026.725, 913.8796
1027.207, 900.3405
1027.689, 920.5959
1028.171, 941.1401
1028.653, 962.1389
1029.135, 970.4375
1029.618, 943.0591
1030.100, 903.4540
1030.582, 893.7808
1031.064, 918.7694
1031.546, 938.1480
1032.028, 940.1172
1032.510, 944.9677
1032.992, 967.8621
1033.474, 982.2392
1033.957, 957.6224
1034.439, 923.7230
1034.921, 930.7852
1035.403, 980.5590
1035.885, 1007.053
1036.367, 989.0804
1036.849, 974.2577
1037.331, 964.2579
1037.814, 960.6639
1038.296, 970.2333
1038.778, 982.4141
1039.260, 983.8812
1039.742, 975.5160
1040.224, 969.3528
1040.706, 966.8821
1041.188, 964.0020
1041.671, 963.6290
1042.153, 957.4611
1042.635, 933.5580
1043.117, 912.9334
1043.599, 922.4852
1044.081, 954.7184
1044.563, 966.9352
1045.045, 947.1025
1045.527, 940.4579
1046.010, 955.6718
1046.492, 963.7401
1046.974, 950.8539
1047.456, 936.3503
1047.938, 937.5197
1048.420, 950.3030
1048.902, 963.2824
1049.384, 978.8657
1049.866, 980.2694
1050.349, 963.8000
1050.831, 947.1722
1051.313, 933.4586
1051.795, 925.9444
1052.277, 928.4861
1052.759, 935.7775
1053.241, 934.8655
1053.723, 925.6080
1054.205, 930.8673
1054.688, 952.7152
1055.170, 960.0379
1055.652, 945.2198
1056.134, 931.7907
1056.616, 934.6006
1057.098, 942.5708
1057.580, 937.1447
1058.062, 922.0208
1058.545, 918.0696
1059.027, 924.6064
1059.509, 934.3937
1059.991, 946.0601
1060.473, 954.0616
1060.955, 955.7203
1061.437, 957.9112
1061.919, 970.0944
1062.401, 986.5791
1062.884, 992.9472
1063.366, 991.4391
1063.848, 987.6810
1064.330, 983.7402
1064.812, 987.9659
1065.294, 1002.227
1065.776, 1013.189
1066.258, 1007.472
1066.740, 997.8864
1067.223, 1003.975
1067.705, 1019.381
1068.187, 1037.048
1068.669, 1052.394
1069.151, 1051.277
1069.633, 1034.756
1070.115, 1027.446
1070.597, 1045.885
1071.080, 1070.088
1071.562, 1080.243
1072.044, 1087.194
1072.526, 1110.598
1073.008, 1135.504
1073.490, 1129.655
1073.972, 1099.780
1074.454, 1086.207
1074.937, 1106.339
1075.419, 1128.952
1075.901, 1132.284
1076.383, 1135.751
1076.865, 1159.581
1077.347, 1184.357
1077.829, 1185.479
1078.311, 1171.341
1078.793, 1164.915
1079.276, 1171.136
1079.758, 1180.425
1080.240, 1195.481
1080.722, 1205.162
1081.204, 1196.806
1081.686, 1191.169
1082.168, 1208.538
1082.650, 1234.119
1083.132, 1243.996
1083.615, 1237.224
1084.097, 1231.748
1084.579, 1226.623
1085.061, 1226.687
1085.543, 1235.115
1086.025, 1244.890
1086.507, 1254.403
1086.989, 1263.351
1087.472, 1271.684
1087.954, 1279.126
1088.436, 1284.061
1088.918, 1284.404
1089.400, 1290.546
1089.882, 1306.943
1090.364, 1315.784
1090.846, 1311.611
1091.328, 1300.620
1091.811, 1285.182
1092.293, 1270.366
1092.775, 1267.568
1093.257, 1276.192
1093.739, 1278.559
1094.221, 1274.115
1094.703, 1280.425
1095.185, 1300.583
1095.667, 1320.732
1096.150, 1334.268
1096.632, 1341.379
1097.114, 1340.561
1097.596, 1335.989
1098.078, 1342.734
1098.560, 1355.452
1099.042, 1348.055
1099.524, 1324.231
1100.007, 1315.418
1100.489, 1329.251
1100.971, 1341.868
1101.453, 1335.238
1101.935, 1320.860
1102.417, 1309.444
1102.899, 1302.015
1103.381, 1300.323
1103.864, 1303.772
1104.346, 1311.567
1104.828, 1323.214
1105.310, 1339.520
1105.792, 1362.135
1106.274, 1377.510
1106.756, 1376.098
1107.238, 1365.260
1107.720, 1339.555
1108.203, 1316.009
1108.685, 1317.799
1109.167, 1333.255
1109.649, 1333.403
1110.131, 1313.366
1110.613, 1302.997
1111.095, 1321.720
1111.577, 1333.917
1112.059, 1325.719
1112.542, 1315.625
1113.024, 1316.196
1113.506, 1318.233
1113.988, 1301.605
1114.470, 1274.022
1114.952, 1283.976
1115.434, 1362.960
1115.916, 1392.276
1116.399, 1343.245
1116.881, 1311.245
1117.363, 1326.782
1117.845, 1351.917
1118.327, 1360.217
1118.809, 1359.654
1119.291, 1367.386
1119.773, 1382.350
1120.255, 1379.507
1120.738, 1358.337
1121.220, 1333.410
1121.702, 1306.493
1122.184, 1293.217
1122.666, 1300.927
1123.148, 1310.785
1123.630, 1302.750
1124.112, 1284.748
1124.594, 1271.281
1125.077, 1262.305
1125.559, 1257.625
1126.041, 1257.472
1126.523, 1266.483
1127.005, 1282.556
1127.487, 1288.808
1127.969, 1274.554
1128.451, 1258.025
1128.934, 1258.940
1129.416, 1262.181
1129.898, 1245.568
1130.380, 1227.358
1130.862, 1239.313
1131.344, 1268.684
1131.826, 1276.130
1132.308, 1252.680
1132.791, 1232.990
1133.273, 1237.000
1133.755, 1236.041
1134.237, 1214.842
1134.719, 1192.935
1135.201, 1179.862
1135.683, 1173.740
1136.165, 1174.354
1136.647, 1179.924
1137.130, 1180.012
1137.612, 1170.107
1138.094, 1168.441
1138.576, 1183.436
1139.058, 1185.688
1139.540, 1162.815
1140.022, 1140.561
1140.504, 1137.277
1140.986, 1141.053
1141.469, 1131.143
1141.951, 1110.076
1142.433, 1096.254
1142.915, 1089.683
1143.397, 1092.935
1143.879, 1105.502
1144.361, 1117.096
1144.843, 1123.781
1145.326, 1119.593
1145.808, 1097.247
1146.290, 1070.794
1146.772, 1060.054
1147.254, 1060.591
1147.736, 1071.368
1148.218, 1083.927
1148.700, 1077.806
1149.182, 1056.116
1149.665, 1041.330
1150.147, 1041.963
1150.629, 1043.455
1151.111, 1035.697
1151.593, 1027.793
1152.075, 1024.582
1152.557, 1023.956
1153.039, 1028.333
1153.521, 1031.723
1154.004, 1023.330
1154.486, 1004.145
1154.968, 989.7971
1155.450, 983.1308
1155.932, 979.4799
1156.414, 981.0085
1156.896, 981.5639
1157.378, 980.0494
1157.861, 976.1332
1158.343, 968.0668
1158.825, 959.6573
1159.307, 958.4467
1159.789, 963.8536
1160.271, 970.2188
1160.753, 977.8828
1161.235, 969.2578
1161.718, 942.7896
1162.200, 913.8708
1162.682, 888.3459
1163.164, 873.0864
1163.646, 874.7362
1164.128, 885.8414
1164.610, 898.5001
1165.092, 910.1674
1165.574, 919.6830
1166.057, 922.9387
1166.539, 905.6960
1167.021, 874.3569
1167.503, 854.1649
1167.985, 853.5034
1168.467, 857.8752
1168.949, 860.3848
1169.431, 863.7742
1169.913, 876.8760
1170.396, 883.3690
1170.878, 862.1931
1171.360, 833.9053
1171.842, 829.1757
1172.324, 843.5691
1172.806, 843.0554
1173.288, 818.3978
1173.770, 803.4327
1174.253, 801.5979
1174.735, 801.4627
1175.217, 799.9287
1175.699, 803.1191
1176.181, 816.5452
1176.663, 830.1461
1177.145, 829.5180
1177.627, 818.9807
1178.109, 817.7571
1178.592, 823.6051
1179.074, 814.9948
1179.556, 794.4243
1180.038, 788.9181
1180.520, 802.7014
1181.002, 814.8417
1181.484, 813.7801
1181.966, 803.1378
1182.448, 780.4088
1182.931, 756.3367
1183.413, 737.2269
1183.895, 727.9036
1184.377, 741.5319
1184.859, 766.4420
1185.341, 779.8267
1185.823, 778.8309
1186.305, 776.1279
1186.788, 772.1010
1187.270, 773.1550
1187.752, 789.1886
1188.234, 798.5504
1188.716, 790.4303
1189.198, 778.0699
1189.680, 769.7108
1190.162, 763.2009
1190.645, 753.9053
1191.127, 742.4375
1191.609, 738.5871
1192.091, 742.7813
1192.573, 750.0962
1193.055, 760.1346
1193.537, 760.2937
1194.019, 747.0297
1194.501, 738.1533
1194.984, 747.4960
1195.466, 759.0639
1195.948, 748.8542
1196.430, 728.9196
1196.912, 713.7128
1197.394, 705.6463
1197.876, 712.4913
1198.358, 728.3071
1198.840, 738.9663
1199.323, 741.3087
1199.805, 740.6519
1200.287, 737.5747
1200.769, 734.8475
1201.251, 736.4923
1201.733, 734.6801
1202.215, 722.2804
1202.697, 708.5776
1203.180, 699.0946
1203.662, 694.8220
1204.144, 699.4504
1204.626, 712.5616
1205.108, 713.6700
1205.590, 699.5284
1206.072, 702.0670
1206.554, 725.2147
1207.036, 736.0632
1207.519, 724.1867
1208.001, 705.1680
1208.483, 688.9369
1208.965, 680.2527
1209.447, 693.9246
1209.929, 713.0403
1210.411, 704.6056
1210.893, 683.4730
1211.375, 672.6277
1211.858, 672.1630
1212.340, 675.0582
1212.822, 679.8290
1213.304, 689.7400
1213.786, 711.9448
1214.268, 724.5522
1214.750, 714.3765
1215.232, 701.7904
1215.715, 692.8289
1216.197, 686.1267
1216.679, 677.8781
1217.161, 674.1603
1217.643, 687.8099
1218.125, 715.1413
1218.607, 719.8174
1219.089, 699.3876
1219.572, 695.6973
1220.054, 710.6309
1220.536, 708.5261
1221.018, 681.8856
1221.500, 663.8406
1221.982, 674.0931
1222.464, 689.7550
1222.946, 680.4867
1223.428, 667.6968
1223.911, 684.5603
1224.393, 710.2924
1224.875, 720.0911
1225.357, 717.4023
1225.839, 710.5675
1226.321, 701.5347
1226.803, 690.1689
1227.285, 673.8024
1227.767, 665.3868
1228.250, 674.5760
1228.732, 679.9857
1229.214, 670.0272
1229.696, 670.6230
1230.178, 699.4910
1230.660, 734.2971
1231.142, 752.7621
1231.624, 754.5098
1232.107, 731.2319
1232.589, 688.1447
1233.071, 668.6488
1233.553, 671.1599
1234.035, 693.4601
1234.517, 726.5390
1234.999, 727.9725
1235.481, 685.0157
1235.964, 648.2520
1236.446, 657.0493
1236.928, 672.4442
1237.410, 663.1275
1237.892, 652.5408
1238.374, 661.9474
1238.856, 675.8546
1239.338, 673.5712
1239.820, 662.8945
1240.302, 669.7409
1240.785, 695.2001
1241.267, 699.3776
1241.749, 671.2217
1242.231, 661.6263
1242.713, 678.2657
1243.195, 685.5595
1243.677, 672.5148
1244.159, 656.8400
1244.641, 649.6452
1245.124, 650.9325
1245.606, 660.7041
1246.088, 678.9620
##END=



