##NAMES=Harmotome
##RRUFFID=R070016
##IDEAL CHEMISTRY=Ba_2_(Si_12_Al_4_)O_32_&#183;12H_2_O
##LOCALITY=Idar-Oberstein, Germany
##OWNER=RRUFF
##SOURCE=Michael Scott
##DESCRIPTION=Colorless to milky-white prismatic crystals
##STATUS=The identification of this mineral has been made only by X-ray diffraction.
##URL=rruff.info/R070016
126.0751, 3649.085
126.5572, 3756.885
127.0393, 3909.597
127.5214, 4094.376
128.0035, 4283.451
128.4857, 4475.226
128.9678, 4666.259
129.4499, 4843.990
129.9320, 5009.498
130.4141, 5178.205
130.8962, 5374.451
131.3784, 5591.260
131.8605, 5776.047
132.3426, 5908.243
132.8247, 6000.279
133.3068, 6095.458
133.7889, 6197.079
134.2711, 6292.029
134.7532, 6362.862
135.2353, 6407.529
135.7174, 6446.734
136.1995, 6485.487
136.6816, 6523.854
137.1638, 6568.764
137.6459, 6624.554
138.1280, 6681.148
138.6101, 6716.831
139.0922, 6725.836
139.5743, 6731.859
140.0565, 6742.431
140.5386, 6753.353
141.0207, 6785.779
141.5028, 6848.564
141.9849, 6931.719
142.4670, 7000.708
142.9492, 7046.874
143.4313, 7090.226
143.9134, 7142.455
144.3955, 7208.436
144.8776, 7275.197
145.3597, 7342.911
145.8419, 7410.381
146.3240, 7476.857
146.8061, 7538.509
147.2882, 7601.448
147.7703, 7670.118
148.2524, 7753.902
148.7346, 7833.780
149.2167, 7910.898
149.6988, 7990.417
150.1809, 8044.625
150.6630, 8048.875
151.1452, 8035.285
151.6273, 8043.201
152.1094, 8099.012
152.5915, 8154.798
153.0736, 8198.819
153.5557, 8232.322
154.0379, 8248.197
154.5200, 8225.094
155.0021, 8184.072
155.4842, 8168.761
155.9663, 8216.311
156.4484, 8270.691
156.9306, 8305.149
157.4127, 8305.726
157.8948, 8299.414
158.3769, 8281.568
158.8590, 8258.714
159.3411, 8255.271
159.8233, 8294.949
160.3054, 8348.405
160.7875, 8394.631
161.2696, 8417.382
161.7517, 8441.436
162.2338, 8480.907
162.7160, 8534.137
163.1981, 8580.338
163.6802, 8601.992
164.1623, 8614.340
164.6444, 8633.618
165.1265, 8677.072
165.6087, 8721.065
166.0908, 8746.900
166.5729, 8752.677
167.0550, 8762.365
167.5371, 8789.666
168.0192, 8830.631
168.5014, 8879.089
168.9835, 8944.591
169.4656, 9009.367
169.9477, 9051.863
170.4298, 9064.956
170.9119, 9080.832
171.3941, 9135.879
171.8762, 9215.062
172.3583, 9281.886
172.8404, 9308.032
173.3225, 9313.226
173.8046, 9321.931
174.2868, 9338.868
174.7689, 9358.098
175.2510, 9370.110
175.7331, 9377.516
176.2152, 9391.973
176.6973, 9435.553
177.1795, 9490.295
177.6616, 9520.110
178.1437, 9507.838
178.6258, 9478.218
179.1079, 9462.390
179.5900, 9459.809
180.0722, 9465.314
180.5543, 9485.860
181.0364, 9512.910
181.5185, 9521.253
182.0006, 9499.472
182.4827, 9457.057
182.9649, 9406.614
183.4470, 9348.137
183.9291, 9291.168
184.4112, 9248.347
184.8933, 9216.797
185.3754, 9184.639
185.8576, 9149.483
186.3397, 9110.217
186.8218, 9061.268
187.3039, 9001.524
187.7860, 8938.167
188.2681, 8877.922
188.7503, 8821.225
189.2324, 8766.602
189.7145, 8717.205
190.1966, 8671.124
190.6787, 8616.960
191.1608, 8554.328
191.6430, 8484.525
192.1251, 8402.096
192.6072, 8306.729
193.0893, 8221.766
193.5714, 8165.763
194.0535, 8136.267
194.5357, 8098.499
195.0178, 8052.261
195.4999, 7995.476
195.9820, 7915.777
196.4641, 7809.412
196.9462, 7710.443
197.4284, 7645.453
197.9105, 7615.744
198.3926, 7576.444
198.8747, 7522.314
199.3568, 7456.706
199.8389, 7389.244
200.3211, 7320.656
200.8032, 7247.205
201.2853, 7160.193
201.7674, 7055.900
202.2495, 6972.940
202.7316, 6927.128
203.2138, 6905.096
203.6959, 6847.433
204.1780, 6745.683
204.6601, 6631.571
205.1422, 6528.578
205.6243, 6436.938
206.1065, 6355.614
206.5886, 6285.823
207.0707, 6227.123
207.5528, 6171.600
208.0349, 6121.454
208.5170, 6070.241
208.9992, 6010.348
209.4813, 5938.377
209.9634, 5868.532
210.4455, 5801.644
210.9276, 5738.379
211.4097, 5685.280
211.8919, 5643.298
212.3740, 5610.096
212.8561, 5584.812
213.3382, 5572.205
213.8203, 5554.219
214.3024, 5524.688
214.7846, 5482.627
215.2667, 5441.692
215.7488, 5400.100
216.2309, 5361.161
216.7130, 5330.463
217.1951, 5313.557
217.6773, 5292.140
218.1594, 5259.657
218.6415, 5213.717
219.1236, 5167.513
219.6057, 5118.057
220.0878, 5069.821
220.5700, 5030.395
221.0521, 4999.283
221.5342, 4977.452
222.0163, 4968.414
222.4984, 4979.747
222.9805, 4975.891
223.4627, 4952.279
223.9448, 4916.101
224.4269, 4880.425
224.9090, 4840.228
225.3911, 4808.694
225.8732, 4793.284
226.3554, 4804.167
226.8375, 4802.898
227.3196, 4784.326
227.8017, 4755.603
228.2838, 4733.396
228.7659, 4721.263
229.2481, 4710.427
229.7302, 4697.479
230.2123, 4682.577
230.6944, 4664.818
231.1765, 4642.010
231.6587, 4617.037
232.1408, 4598.024
232.6229, 4586.355
233.1050, 4578.946
233.5871, 4575.151
234.0692, 4578.663
234.5514, 4577.702
235.0335, 4570.512
235.5156, 4558.659
235.9977, 4547.358
236.4798, 4536.739
236.9619, 4526.322
237.4441, 4514.780
237.9262, 4496.792
238.4083, 4489.915
238.8904, 4503.079
239.3725, 4529.099
239.8546, 4533.006
240.3368, 4500.667
240.8189, 4464.365
241.3010, 4443.469
241.7831, 4445.561
242.2652, 4447.520
242.7473, 4447.175
243.2295, 4445.190
243.7116, 4446.098
244.1937, 4453.837
244.6758, 4459.430
245.1579, 4456.072
245.6400, 4436.979
246.1222, 4423.155
246.6043, 4417.755
247.0864, 4419.628
247.5685, 4420.941
248.0506, 4421.245
248.5327, 4421.568
249.0149, 4423.069
249.4970, 4427.946
249.9791, 4428.891
250.4612, 4422.538
250.9433, 4410.415
251.4254, 4407.662
251.9076, 4423.233
252.3897, 4436.164
252.8718, 4427.941
253.3539, 4382.516
253.8360, 4354.050
254.3181, 4354.483
254.8003, 4380.070
255.2824, 4397.047
255.7645, 4403.290
256.2466, 4403.953
256.7287, 4401.925
257.2108, 4395.050
257.6930, 4390.826
258.1751, 4390.171
258.6572, 4392.998
259.1393, 4399.892
259.6214, 4414.441
260.1035, 4427.322
260.5857, 4429.985
261.0678, 4418.126
261.5499, 4408.503
262.0320, 4405.138
262.5141, 4406.717
262.9962, 4399.851
263.4784, 4377.762
263.9605, 4358.431
264.4426, 4359.470
264.9247, 4390.488
265.4068, 4409.132
265.8889, 4404.449
266.3711, 4380.762
266.8532, 4371.587
267.3353, 4383.232
267.8174, 4397.308
268.2995, 4396.767
268.7816, 4376.182
269.2638, 4364.808
269.7459, 4373.008
270.2280, 4395.039
270.7101, 4393.340
271.1922, 4359.332
271.6743, 4321.458
272.1565, 4302.918
272.6386, 4305.383
273.1207, 4317.307
273.6028, 4342.156
274.0849, 4374.513
274.5670, 4385.626
275.0492, 4369.512
275.5313, 4349.533
276.0134, 4347.999
276.4955, 4367.438
276.9776, 4377.147
277.4597, 4367.491
277.9419, 4345.524
278.4240, 4339.776
278.9061, 4352.765
279.3882, 4371.412
279.8703, 4385.933
280.3524, 4396.330
280.8346, 4406.228
281.3167, 4417.621
281.7988, 4428.064
282.2809, 4430.826
282.7630, 4425.987
283.2451, 4412.891
283.7273, 4383.623
284.2094, 4339.972
284.6915, 4313.052
285.1736, 4312.325
285.6557, 4327.407
286.1378, 4331.948
286.6200, 4325.254
287.1021, 4318.747
287.5842, 4322.763
288.0663, 4335.625
288.5484, 4344.980
289.0305, 4347.348
289.5127, 4347.207
289.9948, 4356.527
290.4769, 4375.107
290.9590, 4389.292
291.4411, 4385.687
291.9232, 4368.495
292.4054, 4354.863
292.8875, 4347.259
293.3696, 4344.158
293.8517, 4345.819
294.3338, 4351.512
294.8159, 4354.051
295.2981, 4342.370
295.7802, 4323.620
296.2623, 4318.569
296.7444, 4333.452
297.2265, 4354.901
297.7086, 4367.184
298.1908, 4370.786
298.6729, 4368.817
299.1550, 4359.229
299.6371, 4345.995
300.1192, 4335.354
300.6013, 4327.108
301.0835, 4324.732
301.5656, 4334.870
302.0477, 4354.976
302.5298, 4376.210
303.0119, 4395.911
303.4940, 4413.214
303.9762, 4425.628
304.4583, 4431.381
304.9404, 4438.460
305.4225, 4457.404
305.9046, 4483.278
306.3867, 4504.965
306.8689, 4509.586
307.3510, 4510.874
307.8331, 4523.070
308.3152, 4548.615
308.7973, 4577.126
309.2794, 4603.276
309.7616, 4626.867
310.2437, 4647.926
310.7258, 4660.999
311.2079, 4674.923
311.6900, 4698.970
312.1721, 4734.945
312.6543, 4766.725
313.1364, 4783.193
313.6185, 4790.802
314.1006, 4797.908
314.5827, 4804.784
315.0648, 4814.331
315.5470, 4828.662
316.0291, 4847.817
316.5112, 4868.543
316.9933, 4905.445
317.4754, 4937.040
317.9576, 4941.153
318.4397, 4871.938
318.9218, 4811.287
319.4039, 4795.065
319.8860, 4823.486
320.3681, 4843.518
320.8503, 4829.918
321.3324, 4808.634
321.8145, 4800.122
322.2966, 4826.679
322.7787, 4846.673
323.2608, 4847.913
323.7430, 4832.171
324.2251, 4821.052
324.7072, 4820.164
325.1893, 4822.662
325.6714, 4824.414
326.1535, 4826.474
326.6357, 4826.246
327.1178, 4824.066
327.5999, 4819.624
328.0820, 4811.318
328.5641, 4795.833
329.0462, 4779.450
329.5284, 4765.034
330.0105, 4752.079
330.4926, 4742.102
330.9747, 4737.884
331.4568, 4736.482
331.9389, 4728.652
332.4211, 4710.603
332.9032, 4691.472
333.3853, 4675.243
333.8674, 4663.711
334.3495, 4649.878
334.8316, 4632.414
335.3138, 4613.322
335.7959, 4597.206
336.2780, 4585.614
336.7601, 4573.210
337.2422, 4557.734
337.7243, 4538.532
338.2065, 4521.173
338.6886, 4507.147
339.1707, 4492.397
339.6528, 4470.300
340.1349, 4439.250
340.6170, 4408.234
341.0992, 4377.352
341.5813, 4347.703
342.0634, 4330.759
342.5455, 4329.157
343.0276, 4331.370
343.5097, 4325.149
343.9919, 4310.523
344.4740, 4292.439
344.9561, 4270.473
345.4382, 4246.542
345.9203, 4225.678
346.4024, 4207.505
346.8846, 4195.678
347.3667, 4197.858
347.8488, 4210.254
348.3309, 4218.475
348.8130, 4220.165
349.2951, 4214.591
349.7773, 4196.636
350.2594, 4167.661
350.7415, 4139.697
351.2236, 4119.741
351.7057, 4106.701
352.1878, 4098.668
352.6700, 4095.357
353.1521, 4096.526
353.6342, 4106.287
354.1163, 4121.423
354.5984, 4131.630
355.0806, 4127.697
355.5627, 4117.589
356.0448, 4108.875
356.5269, 4102.477
357.0090, 4097.824
357.4911, 4096.502
357.9733, 4096.496
358.4554, 4094.205
358.9375, 4087.445
359.4196, 4078.397
359.9017, 4067.013
360.3839, 4052.859
360.8660, 4041.655
361.3481, 4042.186
361.8302, 4044.685
362.3123, 4038.192
362.7944, 3991.810
363.2766, 3962.506
363.7587, 3981.222
364.2408, 4048.316
364.7229, 4097.181
365.2050, 4098.601
365.6871, 4086.367
366.1693, 4084.903
366.6514, 4115.181
367.1335, 4135.534
367.6156, 4134.510
368.0977, 4116.110
368.5798, 4108.920
369.0620, 4119.829
369.5441, 4135.609
370.0262, 4150.936
370.5083, 4172.963
370.9904, 4181.128
371.4725, 4165.247
371.9547, 4137.915
372.4368, 4132.246
372.9189, 4156.990
373.4010, 4186.918
373.8831, 4213.539
374.3652, 4236.958
374.8474, 4255.301
375.3295, 4268.714
375.8116, 4276.851
376.2937, 4278.693
376.7758, 4273.576
377.2579, 4265.323
377.7401, 4251.572
378.2222, 4234.289
378.7043, 4232.218
379.1864, 4246.813
379.6685, 4270.445
380.1506, 4299.879
380.6328, 4333.911
381.1149, 4358.850
381.5970, 4369.143
382.0791, 4370.347
382.5612, 4374.225
383.0433, 4380.711
383.5255, 4387.434
384.0076, 4388.629
384.4897, 4388.954
384.9718, 4401.118
385.4539, 4431.174
385.9360, 4464.650
386.4182, 4487.273
386.9003, 4500.050
387.3824, 4506.860
387.8645, 4501.720
388.3466, 4495.864
388.8287, 4502.375
389.3109, 4523.892
389.7930, 4549.375
390.2751, 4570.528
390.7572, 4590.769
391.2393, 4615.264
391.7214, 4653.588
392.2036, 4690.802
392.6857, 4716.363
393.1678, 4729.839
393.6499, 4748.391
394.1320, 4783.422
394.6141, 4823.658
395.0963, 4859.175
395.5784, 4883.160
396.0605, 4907.363
396.5426, 4931.177
397.0247, 4955.949
397.5068, 4988.689
397.9890, 5042.158
398.4711, 5094.443
398.9532, 5135.119
399.4353, 5156.960
399.9174, 5178.977
400.3995, 5199.986
400.8817, 5221.355
401.3638, 5245.073
401.8459, 5268.025
402.3280, 5298.796
402.8101, 5343.840
403.2922, 5407.042
403.7744, 5453.892
404.2565, 5476.867
404.7386, 5494.725
405.2207, 5531.197
405.7028, 5589.012
406.1849, 5649.481
406.6671, 5711.038
407.1492, 5771.572
407.6313, 5817.796
408.1134, 5848.707
408.5955, 5875.578
409.0776, 5908.138
409.5598, 5945.032
410.0419, 5980.330
410.5240, 6013.208
411.0061, 6043.911
411.4882, 6073.539
411.9703, 6101.417
412.4525, 6124.678
412.9346, 6133.047
413.4167, 6138.229
413.8988, 6157.915
414.3809, 6193.762
414.8630, 6241.450
415.3452, 6301.823
415.8273, 6370.811
416.3094, 6440.283
416.7915, 6507.694
417.2736, 6573.972
417.7557, 6637.856
418.2379, 6700.123
418.7200, 6763.376
419.2021, 6834.444
419.6842, 6904.826
420.1663, 6967.400
420.6484, 7009.295
421.1306, 7057.147
421.6127, 7121.332
422.0948, 7196.593
422.5769, 7268.199
423.0590, 7340.923
423.5411, 7403.008
424.0233, 7446.736
424.5054, 7461.168
424.9875, 7484.215
425.4696, 7524.207
425.9517, 7568.281
426.4338, 7598.995
426.9160, 7607.653
427.3981, 7619.000
427.8802, 7644.830
428.3623, 7683.553
428.8444, 7689.915
429.3265, 7656.613
429.8087, 7607.069
430.2908, 7559.645
430.7729, 7515.557
431.2550, 7461.003
431.7371, 7388.928
432.2192, 7311.051
432.7014, 7257.437
433.1835, 7227.775
433.6656, 7202.484
434.1477, 7168.343
434.6298, 7129.609
435.1119, 7101.194
435.5941, 7084.896
436.0762, 7072.515
436.5583, 7052.987
437.0404, 7030.198
437.5225, 7013.558
438.0046, 7004.770
438.4868, 7005.302
438.9689, 7021.079
439.4510, 7050.567
439.9331, 7078.725
440.4152, 7089.686
440.8973, 7098.624
441.3795, 7120.735
441.8616, 7167.199
442.3437, 7214.266
442.8258, 7254.179
443.3079, 7287.353
443.7900, 7314.334
444.2722, 7315.936
444.7543, 7327.853
445.2364, 7365.388
445.7185, 7433.750
446.2006, 7509.857
446.6827, 7603.451
447.1649, 7698.852
447.6470, 7779.618
448.1291, 7831.877
448.6112, 7891.113
449.0933, 7960.397
449.5754, 8039.943
450.0576, 8136.758
450.5397, 8256.178
451.0218, 8382.448
451.5039, 8512.237
451.9860, 8649.528
452.4681, 8760.012
452.9503, 8832.978
453.4324, 8898.866
453.9145, 9015.914
454.3966, 9183.789
454.8787, 9350.172
455.3608, 9493.444
455.8430, 9620.527
456.3251, 9751.595
456.8072, 9886.091
457.2893, 10024.02
457.7714, 10156.64
458.2535, 10292.85
458.7357, 10448.40
459.2178, 10637.99
459.6999, 10833.37
460.1820, 11013.56
460.6641, 11182.50
461.1462, 11353.39
461.6284, 11531.29
462.1105, 11716.68
462.5926, 11912.84
463.0747, 12124.85
463.5568, 12331.92
464.0389, 12533.43
464.5211, 12722.63
465.0032, 12888.41
465.4853, 12994.89
465.9674, 13114.50
466.4495, 13266.82
466.9316, 13448.58
467.4138, 13623.60
467.8959, 13797.25
468.3780, 13958.42
468.8601, 14100.91
469.3422, 14220.07
469.8243, 14330.02
470.3065, 14422.02
470.7886, 14513.43
471.2707, 14638.24
471.7528, 14805.87
472.2349, 14959.30
472.7170, 15071.99
473.1992, 15155.57
473.6813, 15275.19
474.1634, 15433.99
474.6455, 15596.65
475.1276, 15725.80
475.6097, 15833.03
476.0919, 15955.00
476.5740, 16100.12
477.0561, 16260.10
477.5382, 16438.41
478.0203, 16625.77
478.5024, 16794.17
478.9846, 16902.79
479.4667, 17002.85
479.9488, 17142.60
480.4309, 17326.61
480.9130, 17514.74
481.3951, 17700.69
481.8773, 17872.16
482.3594, 18016.71
482.8415, 18116.48
483.3236, 18205.41
483.8057, 18293.09
484.2878, 18375.75
484.7700, 18441.29
485.2521, 18503.66
485.7342, 18534.20
486.2163, 18521.89
486.6984, 18462.23
487.1805, 18376.14
487.6627, 18260.81
488.1448, 18123.13
488.6269, 17970.52
489.1090, 17804.50
489.5911, 17615.78
490.0732, 17402.87
490.5554, 17164.88
491.0375, 16883.21
491.5196, 16551.92
492.0017, 16216.13
492.4838, 15908.80
492.9659, 15618.00
493.4481, 15287.93
493.9302, 14915.90
494.4123, 14513.50
494.8944, 14069.45
495.3765, 13607.42
495.8586, 13169.19
496.3408, 12776.97
496.8229, 12407.25
497.3050, 12032.95
497.7871, 11660.19
498.2692, 11302.29
498.7513, 10980.47
499.2335, 10670.62
499.7156, 10352.75
500.1977, 10012.40
500.6798, 9694.566
501.1619, 9422.356
501.6440, 9178.448
502.1262, 8934.903
502.6083, 8673.466
503.0904, 8432.595
503.5725, 8228.989
504.0546, 8057.215
504.5367, 7872.823
505.0189, 7664.981
505.5010, 7463.719
505.9831, 7284.614
506.4652, 7129.325
506.9473, 6992.960
507.4294, 6876.991
507.9116, 6776.508
508.3937, 6685.558
508.8758, 6603.706
509.3579, 6515.990
509.8400, 6408.446
510.3221, 6295.399
510.8043, 6211.635
511.2864, 6155.659
511.7685, 6099.853
512.2506, 6013.156
512.7327, 5919.195
513.2148, 5850.269
513.6970, 5817.422
514.1791, 5793.814
514.6612, 5769.621
515.1433, 5742.478
515.6254, 5708.198
516.1075, 5655.562
516.5897, 5605.096
517.0718, 5565.765
517.5539, 5537.479
518.0360, 5507.030
518.5181, 5469.005
519.0002, 5431.268
519.4824, 5398.360
519.9645, 5370.082
520.4466, 5346.822
520.9287, 5332.109
521.4108, 5319.397
521.8929, 5295.042
522.3751, 5254.788
522.8572, 5225.005
523.3393, 5218.212
523.8214, 5227.272
524.3035, 5223.794
524.7856, 5207.589
525.2678, 5184.783
525.7499, 5153.878
526.2320, 5120.387
526.7141, 5101.012
527.1962, 5101.151
527.6783, 5102.121
528.1605, 5080.766
528.6426, 5048.332
529.1247, 5024.945
529.6068, 5030.478
530.0889, 5037.398
530.5710, 5023.053
531.0532, 4992.478
531.5353, 4976.880
532.0174, 5010.787
532.4995, 5044.380
532.9816, 5047.670
533.4637, 4996.792
533.9459, 4963.740
534.4280, 4962.596
534.9101, 4972.692
535.3922, 4968.920
535.8743, 4944.172
536.3564, 4922.536
536.8386, 4909.471
537.3207, 4902.550
537.8028, 4889.913
538.2849, 4870.281
538.7670, 4853.043
539.2491, 4843.931
539.7313, 4842.045
540.2134, 4844.164
540.6955, 4850.656
541.1776, 4857.379
541.6597, 4863.476
542.1418, 4866.355
542.6240, 4859.380
543.1061, 4831.836
543.5882, 4805.427
544.0703, 4802.958
544.5524, 4816.367
545.0345, 4822.561
545.5167, 4804.510
545.9988, 4782.238
546.4809, 4764.741
546.9630, 4752.832
547.4451, 4746.885
547.9272, 4756.502
548.4094, 4766.145
548.8915, 4763.579
549.3736, 4740.865
549.8557, 4720.813
550.3378, 4707.375
550.8199, 4696.015
551.3021, 4675.039
551.7842, 4642.361
552.2663, 4609.854
552.7484, 4581.470
553.2305, 4556.952
553.7126, 4534.382
554.1948, 4513.551
554.6769, 4497.384
555.1590, 4492.410
555.6411, 4493.172
556.1232, 4487.867
556.6053, 4473.390
557.0875, 4456.850
557.5696, 4445.190
558.0517, 4435.534
558.5338, 4423.184
559.0159, 4398.529
559.4980, 4377.967
559.9802, 4371.485
560.4623, 4377.254
560.9444, 4380.635
561.4265, 4382.030
561.9086, 4377.408
562.3907, 4363.435
562.8729, 4334.229
563.3550, 4314.748
563.8371, 4310.755
564.3192, 4310.231
564.8013, 4297.375
565.2834, 4268.223
565.7656, 4248.719
566.2477, 4246.080
566.7298, 4253.005
567.2119, 4251.496
567.6940, 4242.141
568.1761, 4234.924
568.6583, 4237.063
569.1404, 4244.270
569.6225, 4252.529
570.1046, 4261.376
570.5867, 4260.540
571.0688, 4232.727
571.5510, 4195.669
572.0331, 4168.740
572.5152, 4158.410
572.9973, 4153.889
573.4794, 4153.483
573.9615, 4155.774
574.4437, 4158.413
574.9258, 4163.049
575.4079, 4165.795
575.8900, 4166.204
576.3721, 4164.216
576.8542, 4158.480
577.3364, 4146.240
577.8185, 4135.641
578.3006, 4131.443
578.7827, 4133.796
579.2648, 4141.740
579.7469, 4158.256
580.2291, 4169.391
580.7112, 4152.784
581.1933, 4115.495
581.6754, 4084.361
582.1575, 4066.948
582.6396, 4059.208
583.1218, 4061.829
583.6039, 4071.117
584.0860, 4076.637
584.5681, 4067.440
585.0502, 4057.521
585.5323, 4057.952
586.0145, 4069.265
586.4966, 4075.855
586.9787, 4065.440
587.4608, 4054.702
587.9429, 4055.401
588.4250, 4080.790
588.9072, 4090.958
589.3893, 4075.660
589.8714, 4053.561
590.3535, 4053.752
590.8356, 4082.449
591.3177, 4102.215
591.7999, 4100.871
592.2820, 4087.378
592.7641, 4091.149
593.2462, 4111.035
593.7283, 4120.700
594.2104, 4092.901
594.6926, 4048.968
595.1747, 4023.080
595.6568, 4016.908
596.1389, 4021.135
596.6210, 4040.863
597.1031, 4062.052
597.5853, 4068.698
598.0674, 4046.689
598.5495, 4029.744
599.0316, 4029.562
599.5137, 4040.053
599.9958, 4051.382
600.4780, 4070.572
600.9601, 4079.363
601.4423, 4067.165
601.9244, 4040.488
602.4065, 4039.573
602.8886, 4074.748
603.3707, 4103.833
603.8528, 4096.603
604.3350, 4057.758
604.8171, 4040.233
605.2992, 4046.230
605.7813, 4059.721
606.2634, 4065.801
606.7455, 4067.878
607.2277, 4075.422
607.7098, 4096.139
608.1919, 4108.897
608.6740, 4085.646
609.1561, 4044.113
609.6382, 4016.982
610.1204, 4019.980
610.6025, 4034.145
611.0846, 4061.519
611.5667, 4098.975
612.0488, 4117.215
612.5309, 4096.467
613.0131, 4079.059
613.4952, 4086.356
613.9773, 4124.288
614.4594, 4139.706
614.9415, 4127.017
615.4236, 4106.424
615.9058, 4096.747
616.3879, 4097.286
616.8700, 4102.259
617.3521, 4111.921
617.8342, 4122.395
618.3163, 4129.771
618.7985, 4134.001
619.2806, 4134.968
619.7627, 4130.729
620.2448, 4124.821
620.7269, 4116.498
621.2090, 4107.621
621.6912, 4106.152
622.1733, 4128.920
622.6554, 4147.476
623.1375, 4145.937
623.6196, 4118.218
624.1017, 4098.644
624.5839, 4088.648
625.0660, 4085.140
625.5481, 4086.698
626.0302, 4094.229
626.5123, 4101.327
626.9944, 4107.295
627.4766, 4113.118
627.9587, 4122.286
628.4408, 4133.562
628.9229, 4138.979
629.4050, 4132.708
629.8871, 4123.046
630.3693, 4119.581
630.8514, 4121.221
631.3335, 4124.325
631.8156, 4130.265
632.2977, 4134.499
632.7798, 4130.515
633.2620, 4117.392
633.7441, 4115.165
634.2262, 4146.940
634.7083, 4175.652
635.1904, 4177.263
635.6725, 4132.129
636.1547, 4114.155
636.6368, 4134.847
637.1189, 4166.171
637.6010, 4171.729
638.0831, 4151.003
638.5652, 4134.608
639.0474, 4131.140
639.5295, 4130.765
640.0116, 4110.431
640.4937, 4077.435
640.9758, 4057.259
641.4579, 4076.158
641.9401, 4103.426
642.4222, 4111.305
642.9043, 4102.371
643.3864, 4096.730
643.8685, 4101.418
644.3506, 4112.252
644.8328, 4132.035
645.3149, 4170.110
645.7970, 4178.198
646.2791, 4132.753
646.7612, 4082.535
647.2433, 4072.944
647.7255, 4114.400
648.2076, 4139.043
648.6897, 4138.336
649.1718, 4124.396
649.6539, 4110.798
650.1360, 4098.580
650.6182, 4094.236
651.1003, 4102.640
651.5824, 4116.605
652.0645, 4132.652
652.5466, 4147.833
653.0287, 4152.976
653.5109, 4129.585
653.9930, 4107.348
654.4751, 4104.521
654.9572, 4122.047
655.4393, 4136.699
655.9214, 4147.424
656.4036, 4152.314
656.8857, 4148.349
657.3678, 4131.322
657.8499, 4124.280
658.3320, 4128.143
658.8141, 4140.229
659.2963, 4166.749
659.7784, 4204.238
660.2605, 4212.086
660.7426, 4175.700
661.2247, 4131.313
661.7068, 4127.518
662.1890, 4150.074
662.6711, 4167.839
663.1532, 4164.144
663.6353, 4155.525
664.1174, 4147.697
664.5995, 4141.804
665.0817, 4141.569
665.5638, 4159.112
666.0459, 4170.893
666.5280, 4167.545
667.0101, 4149.089
667.4922, 4133.379
667.9744, 4118.289
668.4565, 4110.989
668.9386, 4119.734
669.4207, 4143.387
669.9028, 4159.145
670.3849, 4165.664
670.8671, 4169.210
671.3492, 4180.448
671.8313, 4192.421
672.3134, 4188.990
672.7955, 4159.434
673.2776, 4133.580
673.7598, 4130.817
674.2419, 4144.036
674.7240, 4162.753
675.2061, 4205.335
675.6882, 4228.711
676.1703, 4215.688
676.6525, 4178.138
677.1346, 4144.032
677.6167, 4108.687
678.0988, 4089.807
678.5809, 4099.887
679.0630, 4131.216
679.5452, 4142.518
680.0273, 4133.614
680.5094, 4121.307
680.9915, 4113.888
681.4736, 4111.722
681.9557, 4118.870
682.4379, 4135.669
682.9200, 4148.004
683.4021, 4148.371
683.8842, 4139.218
684.3663, 4120.019
684.8484, 4080.764
685.3306, 4055.178
685.8127, 4053.237
686.2948, 4064.807
686.7769, 4082.024
687.2590, 4108.639
687.7411, 4131.510
688.2233, 4151.989
688.7054, 4164.232
689.1875, 4148.942
689.6696, 4109.211
690.1517, 4080.812
690.6339, 4082.809
691.1160, 4097.049
691.5981, 4097.229
692.0802, 4087.923
692.5623, 4084.592
693.0444, 4105.769
693.5266, 4126.030
694.0087, 4125.522
694.4908, 4104.534
694.9729, 4097.059
695.4550, 4121.377
695.9371, 4146.846
696.4193, 4158.858
696.9014, 4154.239
697.3835, 4163.161
697.8656, 4191.126
698.3477, 4216.145
698.8298, 4211.534
699.3120, 4184.803
699.7941, 4171.940
700.2762, 4178.254
700.7583, 4192.373
701.2404, 4207.164
701.7225, 4221.340
702.2047, 4233.194
702.6868, 4243.271
703.1689, 4249.068
703.6510, 4247.272
704.1331, 4241.038
704.6152, 4235.994
705.0974, 4234.992
705.5795, 4230.690
706.0616, 4216.711
706.5437, 4200.604
707.0258, 4208.495
707.5079, 4243.256
707.9901, 4276.758
708.4722, 4295.991
708.9543, 4306.707
709.4364, 4324.553
709.9185, 4347.762
710.4006, 4364.363
710.8828, 4350.507
711.3649, 4338.631
711.8470, 4365.997
712.3291, 4435.939
712.8112, 4484.198
713.2933, 4462.496
713.7755, 4436.577
714.2576, 4448.492
714.7397, 4516.649
715.2218, 4551.117
715.7039, 4538.862
716.1860, 4517.634
716.6682, 4531.240
717.1503, 4575.430
717.6324, 4592.006
718.1145, 4568.066
718.5966, 4540.592
719.0787, 4555.469
719.5609, 4594.754
720.0430, 4627.321
720.5251, 4642.409
721.0072, 4650.109
721.4893, 4648.423
721.9714, 4643.710
722.4536, 4647.594
722.9357, 4676.268
723.4178, 4692.868
723.8999, 4682.670
724.3820, 4659.537
724.8641, 4672.646
725.3463, 4729.659
725.8284, 4769.621
726.3105, 4759.237
726.7926, 4722.414
727.2747, 4717.865
727.7568, 4740.817
728.2390, 4762.689
728.7211, 4769.306
729.2032, 4765.590
729.6853, 4749.128
730.1674, 4721.067
730.6495, 4706.422
731.1317, 4728.112
731.6138, 4750.883
732.0959, 4756.723
732.5780, 4742.950
733.0601, 4729.168
733.5422, 4716.527
734.0244, 4701.409
734.5065, 4676.281
734.9886, 4644.162
735.4707, 4626.710
735.9528, 4626.551
736.4349, 4633.556
736.9171, 4647.545
737.3992, 4658.946
737.8813, 4650.134
738.3634, 4601.792
738.8455, 4571.022
739.3276, 4602.351
739.8098, 4654.630
740.2919, 4674.544
740.7740, 4640.578
741.2561, 4608.585
741.7382, 4581.369
742.2203, 4559.841
742.7025, 4547.259
743.1846, 4543.640
743.6667, 4542.046
744.1488, 4542.344
744.6309, 4540.808
745.1130, 4529.142
745.5952, 4510.890
746.0773, 4495.592
746.5594, 4484.024
747.0415, 4480.319
747.5236, 4493.841
748.0057, 4518.918
748.4879, 4531.618
748.9700, 4517.377
749.4521, 4505.313
749.9342, 4502.916
750.4163, 4509.370
750.8984, 4520.599
751.3806, 4538.034
751.8627, 4550.126
752.3448, 4549.309
752.8269, 4538.593
753.3090, 4519.019
753.7911, 4492.354
754.2733, 4478.500
754.7554, 4493.868
755.2375, 4524.360
755.7196, 4564.750
756.2017, 4616.899
756.6838, 4654.936
757.1660, 4671.243
757.6481, 4674.959
758.1302, 4666.479
758.6123, 4640.204
759.0944, 4632.851
759.5765, 4646.183
760.0587, 4672.759
760.5408, 4715.069
761.0229, 4764.892
761.5050, 4795.957
761.9871, 4804.058
762.4692, 4801.136
762.9514, 4785.314
763.4335, 4769.256
763.9156, 4768.162
764.3977, 4796.145
764.8798, 4819.087
765.3619, 4831.167
765.8441, 4835.645
766.3262, 4833.323
766.8083, 4819.767
767.2904, 4818.534
767.7725, 4837.737
768.2546, 4859.103
768.7368, 4850.913
769.2189, 4820.060
769.7010, 4790.911
770.1831, 4766.997
770.6652, 4754.891
771.1473, 4772.144
771.6295, 4803.094
772.1116, 4820.247
772.5937, 4809.174
773.0758, 4790.332
773.5579, 4763.414
774.0400, 4732.916
774.5222, 4707.060
775.0043, 4683.725
775.4864, 4674.118
775.9685, 4686.827
776.4506, 4709.624
776.9327, 4714.207
777.4149, 4703.038
777.8970, 4688.602
778.3791, 4678.539
778.8612, 4666.704
779.3433, 4642.834
779.8254, 4611.814
780.3076, 4591.210
780.7897, 4602.971
781.2718, 4607.760
781.7539, 4588.344
782.2360, 4549.724
782.7181, 4529.017
783.2003, 4531.146
783.6824, 4532.374
784.1645, 4520.057
784.6466, 4498.597
785.1287, 4482.237
785.6108, 4470.317
786.0930, 4458.099
786.5751, 4440.910
787.0572, 4423.453
787.5393, 4411.817
788.0214, 4405.757
788.5035, 4393.320
788.9857, 4362.050
789.4678, 4333.290
789.9499, 4317.914
790.4320, 4316.617
790.9141, 4304.117
791.3962, 4276.799
791.8784, 4254.946
792.3605, 4258.180
792.8426, 4277.041
793.3247, 4288.018
793.8068, 4289.997
794.2889, 4283.311
794.7711, 4257.487
795.2532, 4230.606
795.7353, 4221.178
796.2174, 4237.731
796.6995, 4235.605
797.1816, 4189.376
797.6638, 4145.533
798.1459, 4137.301
798.6280, 4171.538
799.1101, 4177.780
799.5922, 4152.186
800.0743, 4119.864
800.5565, 4101.125
801.0386, 4092.871
801.5207, 4090.526
802.0028, 4093.919
802.4849, 4098.918
802.9670, 4112.594
803.4492, 4120.813
803.9313, 4109.596
804.4134, 4062.826
804.8955, 4030.549
805.3776, 4016.985
805.8597, 4012.700
806.3419, 4012.459
806.8240, 4016.140
807.3061, 4010.202
807.7882, 3992.102
808.2703, 3974.988
808.7524, 3972.659
809.2346, 3980.005
809.7167, 3991.218
810.1988, 4007.908
810.6809, 4017.784
811.1630, 4006.251
811.6451, 3991.117
812.1273, 3989.828
812.6094, 4012.412
813.0915, 4026.184
813.5736, 4027.709
814.0557, 4026.168
814.5378, 4035.080
815.0200, 4051.413
815.5021, 4056.492
815.9842, 4046.190
816.4663, 4031.355
816.9484, 4017.684
817.4305, 4007.627
817.9127, 4005.746
818.3948, 4023.573
818.8769, 4028.250
819.3590, 3995.897
819.8411, 3958.679
820.3232, 3947.903
820.8054, 3970.648
821.2875, 3990.779
821.7696, 4007.943
822.2517, 4013.994
822.7338, 3984.997
823.2159, 3937.633
823.6981, 3918.055
824.1802, 3943.848
824.6623, 3973.248
825.1444, 3975.817
825.6265, 3967.633
826.1086, 3966.501
826.5908, 3998.825
827.0729, 4000.565
827.5550, 3950.424
828.0371, 3893.098
828.5192, 3888.244
829.0013, 3936.064
829.4835, 3974.689
829.9656, 3996.465
830.4477, 4004.751
830.9298, 3993.873
831.4119, 3974.646
831.8940, 3965.510
832.3762, 3977.458
832.8583, 3984.531
833.3404, 3971.387
833.8225, 3952.054
834.3046, 3942.049
834.7867, 3946.601
835.2689, 3944.293
835.7510, 3929.471
836.2331, 3918.049
836.7152, 3945.077
837.1973, 3994.518
837.6794, 3998.740
838.1616, 3934.729
838.6437, 3876.316
839.1258, 3899.664
839.6079, 3953.383
840.0900, 3978.693
840.5721, 3936.085
841.0543, 3917.494
841.5364, 3944.017
842.0185, 3979.553
842.5006, 3985.676
842.9827, 3959.973
843.4648, 3944.306
843.9470, 3942.921
844.4291, 3949.581
844.9112, 3964.555
845.3933, 3980.610
845.8754, 3984.035
846.3575, 3967.936
846.8397, 3955.174
847.3218, 3958.631
847.8039, 3967.382
848.2860, 3971.771
848.7681, 3969.940
849.2502, 3967.499
849.7324, 3962.715
850.2145, 3961.669
850.6966, 3978.868
851.1787, 4005.745
851.6608, 4006.083
852.1429, 3973.631
852.6251, 3942.365
853.1072, 3933.916
853.5893, 3941.572
854.0714, 3962.877
854.5535, 4007.227
855.0356, 4032.554
855.5178, 4028.074
855.9999, 4015.480
856.4820, 4010.407
856.9641, 4013.066
857.4462, 4010.138
857.9283, 4000.938
858.4105, 3990.974
858.8926, 3981.643
859.3747, 3976.250
859.8568, 3981.186
860.3389, 3997.860
860.8210, 4011.559
861.3032, 4012.261
861.7853, 4012.492
862.2674, 4021.640
862.7495, 4041.716
863.2316, 4047.655
863.7137, 4036.760
864.1959, 4023.748
864.6780, 4018.167
865.1601, 4018.654
865.6422, 4025.120
866.1243, 4036.595
866.6064, 4042.501
867.0886, 4031.939
867.5707, 4017.269
868.0528, 4002.920
868.5349, 3989.401
869.0170, 3989.442
869.4991, 4010.460
869.9813, 4030.184
870.4634, 4035.664
870.9455, 4031.614
871.4276, 4047.260
871.9097, 4079.506
872.3918, 4096.374
872.8740, 4056.388
873.3561, 4009.986
873.8382, 4000.487
874.3203, 4024.623
874.8024, 4056.710
875.2845, 4116.429
875.7667, 4152.168
876.2488, 4146.705
876.7309, 4108.006
877.2130, 4059.684
877.6951, 4001.223
878.1772, 3970.883
878.6594, 4004.557
879.1415, 4055.056
879.6236, 4054.235
880.1057, 4019.865
880.5878, 3997.722
881.0699, 4023.593
881.5521, 4043.282
882.0342, 4031.393
882.5163, 4005.389
882.9984, 4003.270
883.4805, 4030.716
883.9626, 4051.244
884.4448, 4055.897
884.9269, 4050.571
885.4090, 4039.323
885.8911, 4025.979
886.3732, 4019.659
886.8553, 4028.084
887.3375, 4036.570
887.8196, 4042.014
888.3017, 4041.979
888.7838, 4030.628
889.2659, 3993.038
889.7480, 3985.578
890.2302, 4020.044
890.7123, 4067.322
891.1944, 4094.218
891.6765, 4102.148
892.1586, 4094.015
892.6407, 4067.842
893.1229, 4037.925
893.6050, 4004.641
894.0871, 3978.283
894.5692, 3969.167
895.0513, 3985.229
895.5334, 4004.580
896.0156, 4032.277
896.4977, 4054.592
896.9798, 4056.460
897.4619, 4041.640
897.9440, 4032.945
898.4261, 4031.491
898.9083, 4037.839
899.3904, 4064.683
899.8725, 4091.000
900.3546, 4092.113
900.8367, 4063.055
901.3188, 4053.363
901.8010, 4082.256
902.2831, 4109.217
902.7652, 4112.899
903.2473, 4097.627
903.7294, 4103.633
904.2115, 4129.654
904.6937, 4142.996
905.1758, 4103.764
905.6579, 4057.132
906.1400, 4054.800
906.6221, 4086.937
907.1042, 4108.837
907.5864, 4095.442
908.0685, 4085.147
908.5506, 4087.459
909.0327, 4098.937
909.5148, 4113.330
909.9969, 4130.620
910.4791, 4132.093
910.9612, 4100.916
911.4433, 4068.087
911.9254, 4077.592
912.4075, 4113.142
912.8896, 4143.753
913.3718, 4169.109
913.8539, 4174.727
914.3360, 4144.267
914.8181, 4103.453
915.3002, 4086.452
915.7823, 4095.038
916.2645, 4109.088
916.7466, 4128.412
917.2287, 4141.485
917.7108, 4122.871
918.1929, 4094.157
918.6750, 4092.413
919.1572, 4136.045
919.6393, 4164.786
920.1214, 4140.587
920.6035, 4109.964
921.0856, 4104.884
921.5677, 4129.928
922.0499, 4145.584
922.5320, 4151.375
923.0141, 4151.339
923.4962, 4145.325
923.9783, 4137.295
924.4604, 4130.331
924.9426, 4125.374
925.4247, 4130.705
925.9068, 4170.919
926.3889, 4199.917
926.8710, 4192.599
927.3531, 4155.105
927.8353, 4134.597
928.3174, 4132.517
928.7995, 4134.227
929.2816, 4133.115
929.7637, 4132.157
930.2459, 4135.384
930.7280, 4142.729
931.2101, 4153.723
931.6923, 4176.115
932.1744, 4192.904
932.6565, 4191.485
933.1386, 4184.729
933.6207, 4197.600
934.1028, 4234.821
934.5850, 4256.550
935.0671, 4253.397
935.5492, 4238.901
936.0313, 4228.679
936.5134, 4219.806
936.9955, 4205.349
937.4777, 4178.431
937.9598, 4162.019
938.4419, 4173.894
938.9240, 4191.939
939.4061, 4198.620
939.8882, 4190.020
940.3704, 4196.060
940.8525, 4219.191
941.3346, 4239.354
941.8167, 4237.961
942.2988, 4224.176
942.7809, 4206.709
943.2631, 4187.136
943.7452, 4176.770
944.2273, 4182.498
944.7094, 4196.535
945.1915, 4221.355
945.6736, 4252.560
946.1558, 4257.350
946.6379, 4233.763
947.1200, 4219.299
947.6021, 4240.414
948.0842, 4266.914
948.5663, 4248.785
949.0485, 4205.091
949.5306, 4178.816
950.0127, 4197.006
950.4948, 4219.338
950.9769, 4242.324
951.4590, 4262.142
951.9412, 4271.710
952.4233, 4270.670
952.9054, 4271.585
953.3875, 4276.785
953.8696, 4281.735
954.3517, 4283.744
954.8339, 4281.763
955.3160, 4271.369
955.7981, 4246.227
956.2802, 4236.855
956.7623, 4260.406
957.2444, 4286.808
957.7266, 4298.319
958.2087, 4295.781
958.6908, 4295.625
959.1729, 4297.850
959.6550, 4301.635
960.1371, 4306.186
960.6193, 4312.273
961.1014, 4324.958
961.5835, 4341.201
962.0656, 4344.981
962.5477, 4318.872
963.0298, 4302.883
963.5120, 4309.438
963.9941, 4327.733
964.4762, 4328.969
964.9583, 4316.370
965.4404, 4312.841
965.9225, 4332.473
966.4047, 4346.773
966.8868, 4318.221
967.3689, 4277.567
967.8510, 4264.892
968.3331, 4300.822
968.8152, 4340.115
969.2974, 4390.583
969.7795, 4429.367
970.2616, 4425.101
970.7437, 4391.221
971.2258, 4378.708
971.7079, 4390.367
972.1901, 4406.725
972.6722, 4413.987
973.1543, 4422.750
973.6364, 4448.189
974.1185, 4487.820
974.6006, 4489.980
975.0828, 4439.994
975.5649, 4405.187
976.0470, 4418.611
976.5291, 4457.652
977.0112, 4483.952
977.4933, 4497.913
977.9755, 4499.800
978.4576, 4465.337
978.9397, 4448.431
979.4218, 4490.142
979.9039, 4548.270
980.3860, 4561.634
980.8682, 4518.537
981.3503, 4508.871
981.8324, 4546.105
982.3145, 4591.400
982.7966, 4600.821
983.2787, 4593.739
983.7609, 4601.223
984.2430, 4629.253
984.7251, 4647.280
985.2072, 4638.093
985.6893, 4624.529
986.1714, 4613.182
986.6536, 4605.162
987.1357, 4610.248
987.6178, 4628.207
988.0999, 4654.492
988.5820, 4701.711
989.0641, 4742.489
989.5463, 4742.495
990.0284, 4716.751
990.5105, 4699.407
990.9926, 4698.433
991.4747, 4706.005
991.9568, 4726.169
992.4390, 4747.490
992.9211, 4750.957
993.4032, 4740.755
993.8853, 4732.738
994.3674, 4728.833
994.8495, 4732.327
995.3317, 4754.848
995.8138, 4778.710
996.2959, 4787.249
996.7780, 4777.592
997.2601, 4776.945
997.7422, 4787.777
998.2244, 4798.718
998.7065, 4801.537
999.1886, 4801.430
999.6707, 4810.922
1000.153, 4827.543
1000.635, 4842.525
1001.117, 4846.321
1001.599, 4855.018
1002.081, 4884.728
1002.563, 4916.753
1003.046, 4916.562
1003.528, 4880.975
1004.010, 4860.419
1004.492, 4863.221
1004.974, 4878.278
1005.456, 4910.083
1005.938, 4938.642
1006.420, 4933.447
1006.902, 4880.185
1007.385, 4851.340
1007.867, 4862.560
1008.349, 4886.822
1008.831, 4915.735
1009.313, 4946.335
1009.795, 4961.508
1010.277, 4962.188
1010.759, 4955.345
1011.242, 4930.967
1011.724, 4914.193
1012.206, 4923.129
1012.688, 4950.708
1013.170, 4982.279
1013.652, 5024.368
1014.134, 5046.149
1014.616, 5040.933
1015.098, 5023.737
1015.581, 5004.356
1016.063, 4989.647
1016.545, 4997.927
1017.027, 5035.118
1017.509, 5063.786
1017.991, 5060.941
1018.473, 5053.596
1018.955, 5053.673
1019.438, 5061.079
1019.920, 5078.925
1020.402, 5107.117
1020.884, 5129.319
1021.366, 5134.963
1021.848, 5132.850
1022.330, 5125.584
1022.812, 5117.979
1023.294, 5120.431
1023.777, 5152.867
1024.259, 5163.177
1024.741, 5139.127
1025.223, 5108.416
1025.705, 5106.192
1026.187, 5124.707
1026.669, 5139.882
1027.151, 5148.975
1027.633, 5153.146
1028.116, 5140.044
1028.598, 5134.222
1029.080, 5160.048
1029.562, 5210.832
1030.044, 5227.504
1030.526, 5205.593
1031.008, 5186.806
1031.490, 5189.256
1031.973, 5200.478
1032.455, 5206.550
1032.937, 5208.353
1033.419, 5207.300
1033.901, 5201.275
1034.383, 5196.184
1034.865, 5192.343
1035.347, 5189.706
1035.829, 5187.363
1036.312, 5185.930
1036.794, 5188.580
1037.276, 5195.497
1037.758, 5207.506
1038.240, 5239.915
1038.722, 5264.085
1039.204, 5250.607
1039.686, 5209.126
1040.168, 5195.992
1040.651, 5218.432
1041.133, 5236.055
1041.615, 5238.392
1042.097, 5230.167
1042.579, 5207.542
1043.061, 5182.448
1043.543, 5179.150
1044.025, 5217.071
1044.508, 5238.776
1044.990, 5222.662
1045.472, 5201.547
1045.954, 5197.846
1046.436, 5209.545
1046.918, 5209.493
1047.400, 5199.320
1047.882, 5195.535
1048.365, 5213.791
1048.847, 5236.463
1049.329, 5254.894
1049.811, 5268.533
1050.293, 5279.088
1050.775, 5290.383
1051.257, 5282.289
1051.739, 5247.107
1052.221, 5208.322
1052.703, 5193.525
1053.186, 5195.225
1053.668, 5205.595
1054.150, 5225.507
1054.632, 5234.805
1055.114, 5216.897
1055.596, 5201.412
1056.078, 5200.292
1056.560, 5211.354
1057.043, 5227.824
1057.525, 5248.558
1058.007, 5265.479
1058.489, 5273.238
1058.971, 5278.961
1059.453, 5283.419
1059.935, 5290.261
1060.417, 5306.386
1060.900, 5338.333
1061.382, 5353.420
1061.864, 5348.210
1062.346, 5338.511
1062.828, 5334.184
1063.310, 5336.426
1063.792, 5346.370
1064.274, 5364.219
1064.756, 5391.172
1065.239, 5448.325
1065.721, 5484.033
1066.203, 5477.361
1066.685, 5453.610
1067.167, 5472.831
1067.649, 5523.074
1068.131, 5551.786
1068.613, 5541.379
1069.095, 5528.859
1069.578, 5537.079
1070.060, 5552.380
1070.542, 5561.925
1071.024, 5564.616
1071.506, 5585.620
1071.988, 5626.569
1072.470, 5666.220
1072.952, 5685.743
1073.435, 5703.510
1073.917, 5751.600
1074.399, 5812.363
1074.881, 5846.469
1075.363, 5821.724
1075.845, 5809.802
1076.327, 5817.724
1076.809, 5834.007
1077.292, 5845.539
1077.774, 5855.399
1078.256, 5874.762
1078.738, 5903.824
1079.220, 5926.503
1079.702, 5919.127
1080.184, 5922.159
1080.666, 5957.651
1081.148, 6012.686
1081.630, 6050.774
1082.113, 6071.832
1082.595, 6074.997
1083.077, 6052.649
1083.559, 6035.328
1084.041, 6058.759
1084.523, 6095.520
1085.005, 6114.316
1085.487, 6107.508
1085.970, 6112.847
1086.452, 6132.458
1086.934, 6154.855
1087.416, 6174.226
1087.898, 6191.144
1088.380, 6206.258
1088.862, 6220.129
1089.344, 6234.437
1089.827, 6253.568
1090.309, 6267.303
1090.791, 6273.203
1091.273, 6275.564
1091.755, 6277.035
1092.237, 6279.079
1092.719, 6287.411
1093.201, 6302.462
1093.683, 6322.790
1094.166, 6365.155
1094.648, 6394.019
1095.130, 6378.225
1095.612, 6337.041
1096.094, 6336.732
1096.576, 6377.745
1097.058, 6395.779
1097.540, 6365.365
1098.023, 6338.302
1098.505, 6391.855
1098.987, 6460.243
1099.469, 6463.157
1099.951, 6372.239
1100.433, 6333.119
1100.915, 6357.563
1101.397, 6390.979
1101.880, 6406.188
1102.362, 6410.286
1102.844, 6415.822
1103.326, 6420.253
1103.808, 6417.695
1104.290, 6395.490
1104.772, 6382.030
1105.254, 6382.831
1105.736, 6388.234
1106.219, 6389.818
1106.701, 6387.856
1107.183, 6384.024
1107.665, 6378.132
1108.147, 6367.827
1108.629, 6343.303
1109.111, 6323.483
1109.593, 6320.522
1110.075, 6326.051
1110.558, 6319.876
1111.040, 6302.379
1111.522, 6300.501
1112.004, 6321.889
1112.486, 6341.654
1112.968, 6334.190
1113.450, 6318.074
1113.932, 6311.300
1114.415, 6314.923
1114.897, 6308.498
1115.379, 6289.521
1115.861, 6274.222
1116.343, 6271.779
1116.825, 6271.368
1117.307, 6253.264
1117.789, 6228.410
1118.271, 6214.681
1118.754, 6222.049
1119.236, 6229.087
1119.718, 6236.884
1120.200, 6240.194
1120.682, 6231.909
1121.164, 6217.129
1121.646, 6208.659
1122.128, 6206.478
1122.610, 6210.668
1123.093, 6245.730
1123.575, 6252.146
1124.057, 6199.182
1124.539, 6133.825
1125.021, 6119.039
1125.503, 6147.021
1125.985, 6176.854
1126.467, 6204.557
1126.950, 6211.299
1127.432, 6166.307
1127.914, 6115.050
1128.396, 6078.302
1128.878, 6056.872
1129.360, 6061.992
1129.842, 6094.240
1130.324, 6109.899
1130.807, 6096.711
1131.289, 6076.642
1131.771, 6069.326
1132.253, 6065.237
1132.735, 6053.498
1133.217, 6032.950
1133.699, 6023.211
1134.181, 6028.329
1134.663, 6020.682
1135.146, 5982.235
1135.628, 5935.377
1136.110, 5906.743
1136.592, 5891.176
1137.074, 5880.709
1137.556, 5879.568
1138.038, 5869.551
1138.520, 5846.411
1139.002, 5824.714
1139.485, 5817.563
1139.967, 5817.890
1140.449, 5806.997
1140.931, 5789.400
1141.413, 5779.677
1141.895, 5796.851
1142.377, 5802.628
1142.859, 5787.634
1143.342, 5766.146
1143.824, 5759.258
1144.306, 5759.414
1144.788, 5732.047
1145.270, 5678.255
1145.752, 5635.741
1146.234, 5634.207
1146.716, 5637.482
1147.198, 5636.219
1147.681, 5627.779
1148.163, 5596.449
1148.645, 5548.058
1149.127, 5538.463
1149.609, 5582.335
1150.091, 5620.562
1150.573, 5609.749
1151.055, 5581.206
1151.537, 5552.391
1152.020, 5524.456
1152.502, 5500.531
1152.984, 5480.431
1153.466, 5462.872
1153.948, 5447.555
1154.430, 5434.735
1154.912, 5428.574
1155.394, 5422.665
1155.877, 5405.822
1156.359, 5374.825
1156.841, 5374.246
1157.323, 5409.187
1157.805, 5426.896
1158.287, 5384.862
1158.769, 5328.735
1159.251, 5308.573
1159.734, 5309.862
1160.216, 5308.401
1160.698, 5302.438
1161.180, 5286.271
1161.662, 5255.304
1162.144, 5234.052
1162.626, 5251.946
1163.108, 5284.974
1163.590, 5303.527
1164.073, 5306.947
1164.555, 5294.175
1165.037, 5245.392
1165.519, 5217.618
1166.001, 5221.335
1166.483, 5232.154
1166.965, 5219.773
1167.447, 5196.818
1167.929, 5191.045
1168.412, 5201.561
1168.894, 5201.571
1169.376, 5174.435
1169.858, 5147.443
1170.340, 5124.098
1170.822, 5105.716
1171.304, 5095.572
1171.786, 5091.480
1172.269, 5089.685
1172.751, 5089.909
1173.233, 5085.590
1173.715, 5066.509
1174.197, 5052.172
1174.679, 5050.986
1175.161, 5057.073
1175.643, 5054.173
1176.125, 5045.356
1176.608, 5041.978
1177.090, 5050.020
1177.572, 5051.723
1178.054, 5034.466
1178.536, 5013.025
1179.018, 4990.864
1179.500, 4971.399
1179.982, 4978.497
1180.464, 5005.685
1180.947, 5020.403
1181.429, 5003.910
1181.911, 4984.456
1182.393, 4974.602
1182.875, 4967.991
1183.357, 4960.281
1183.839, 4951.507
1184.321, 4937.509
1184.804, 4919.757
1185.286, 4909.931
1185.768, 4917.702
1186.250, 4931.598
1186.732, 4954.571
1187.214, 4974.723
1187.696, 4976.603
1188.178, 4959.490
1188.661, 4951.257
1189.143, 4952.234
1189.625, 4947.464
1190.107, 4920.918
1190.589, 4891.624
1191.071, 4867.590
1191.553, 4850.793
1192.035, 4849.137
1192.517, 4864.371
1193.000, 4853.535
1193.482, 4811.597
1193.964, 4776.795
1194.446, 4783.812
1194.928, 4805.016
1195.410, 4826.672
1195.892, 4845.946
1196.374, 4856.404
1196.856, 4857.281
1197.339, 4864.784
1197.821, 4883.780
1198.303, 4890.514
1198.785, 4845.523
1199.267, 4795.058
1199.749, 4781.304
1200.231, 4798.230
1200.713, 4801.405
1201.196, 4788.688
1201.678, 4795.050
1202.160, 4836.040
1202.642, 4869.253
1203.124, 4841.806
1203.606, 4797.066
1204.088, 4777.396
1204.570, 4783.218
1205.052, 4783.705
1205.535, 4777.853
1206.017, 4780.893
1206.499, 4800.593
1206.981, 4824.417
1207.463, 4849.500
1207.945, 4865.870
1208.427, 4855.158
1208.909, 4814.797
1209.391, 4798.598
1209.874, 4807.873
1210.356, 4820.587
1210.838, 4831.556
1211.320, 4834.019
1211.802, 4811.170
1212.284, 4781.061
1212.766, 4768.643
1213.248, 4776.190
1213.731, 4791.644
1214.213, 4816.431
1214.695, 4831.794
1215.177, 4816.484
1215.659, 4798.860
1216.141, 4811.964
1216.623, 4837.251
1217.105, 4844.128
1217.588, 4825.509
1218.070, 4811.403
1218.552, 4801.385
1219.034, 4801.993
1219.516, 4835.246
1219.998, 4864.504
1220.480, 4845.067
1220.962, 4802.665
1221.444, 4787.782
1221.927, 4806.017
1222.409, 4835.251
1222.891, 4876.446
1223.373, 4902.039
1223.855, 4878.059
1224.337, 4842.611
1224.819, 4821.866
1225.301, 4815.291
1225.783, 4818.999
1226.266, 4835.974
1226.748, 4840.698
1227.230, 4830.219
1227.712, 4819.152
1228.194, 4815.711
1228.676, 4819.718
1229.158, 4837.750
1229.640, 4862.271
1230.123, 4871.747
1230.605, 4864.892
1231.087, 4855.891
1231.569, 4846.568
1232.051, 4834.802
1232.533, 4808.053
1233.015, 4787.984
1233.497, 4798.707
1233.979, 4828.866
1234.462, 4845.473
1234.944, 4848.190
1235.426, 4845.256
1235.908, 4837.476
1236.390, 4829.800
1236.872, 4826.515
1237.354, 4824.620
1237.836, 4825.044
1238.318, 4824.690
1238.801, 4805.504
1239.283, 4769.369
1239.765, 4771.721
1240.247, 4830.565
1240.729, 4880.342
1241.211, 4860.045
1241.693, 4828.212
1242.175, 4825.105
1242.658, 4840.822
1243.140, 4836.049
1243.622, 4814.083
1244.104, 4803.060
1244.586, 4811.771
1245.068, 4821.848
1245.550, 4818.600
1246.032, 4816.685
1246.515, 4825.907
1246.997, 4842.269
1247.479, 4851.687
1247.961, 4854.489
1248.443, 4851.345
1248.925, 4840.412
1249.407, 4832.530
1249.889, 4834.684
1250.371, 4839.696
1250.854, 4842.873
1251.336, 4846.677
1251.818, 4863.251
1252.300, 4888.461
1252.782, 4908.637
1253.264, 4922.892
1253.746, 4922.178
1254.228, 4886.634
1254.710, 4857.579
1255.193, 4857.608
1255.675, 4876.280
1256.157, 4882.081
1256.639, 4880.995
1257.121, 4889.646
1257.603, 4920.168
1258.085, 4939.535
1258.567, 4938.574
1259.050, 4933.566
1259.532, 4934.341
1260.014, 4936.032
1260.496, 4922.047
1260.978, 4901.065
1261.460, 4891.745
1261.942, 4903.949
1262.424, 4917.887
1262.906, 4935.521
1263.389, 4945.172
1263.871, 4934.792
1264.353, 4917.792
1264.835, 4919.699
1265.317, 4931.077
1265.799, 4934.963
1266.281, 4925.578
1266.763, 4911.187
1267.245, 4888.752
1267.728, 4877.516
1268.210, 4898.483
1268.692, 4926.449
1269.174, 4928.546
1269.656, 4916.595
1270.138, 4909.140
1270.620, 4906.963
1271.102, 4914.776
1271.585, 4933.568
1272.067, 4950.874
1272.549, 4966.565
1273.031, 4969.395
1273.513, 4931.021
1273.995, 4884.041
1274.477, 4878.802
1274.959, 4923.481
1275.442, 4939.193
1275.924, 4926.900
1276.406, 4913.833
1276.888, 4910.514
1277.370, 4917.572
1277.852, 4952.377
1278.334, 4984.922
1278.816, 4980.279
1279.298, 4939.508
1279.781, 4909.950
1280.263, 4892.137
1280.745, 4888.836
1281.227, 4914.480
1281.709, 4938.502
1282.191, 4954.411
1282.673, 4961.020
1283.155, 4953.535
1283.637, 4935.285
1284.120, 4919.296
1284.602, 4907.360
1285.084, 4906.183
1285.566, 4922.842
1286.048, 4947.399
1286.530, 4989.048
1287.012, 5016.681
1287.494, 4989.451
1287.977, 4935.176
1288.459, 4914.566
1288.941, 4921.809
1289.423, 4938.530
1289.905, 4979.729
1290.387, 4989.859
1290.869, 4957.276
1291.351, 4930.771
1291.833, 4967.979
1292.316, 5019.292
1292.798, 5009.769
1293.280, 4964.926
1293.762, 4946.684
1294.244, 4969.060
1294.726, 4984.449
1295.208, 4991.727
1295.690, 4992.559
1296.172, 4985.181
1296.655, 4974.937
1297.137, 4960.169
1297.619, 4948.731
1298.101, 4952.763
1298.583, 4973.810
1299.065, 4996.135
1299.547, 5018.917
1300.029, 5030.726
1300.512, 5015.741
1300.994, 4998.962
1301.476, 4986.974
1301.958, 4983.851
1302.440, 4997.104
1302.922, 5024.220
1303.404, 5053.349
1303.886, 5080.832
1304.369, 5090.039
1304.851, 5058.892
1305.333, 5027.993
1305.815, 4998.899
1306.297, 4981.783
1306.779, 4996.730
1307.261, 5026.274
1307.743, 5022.578
1308.225, 4996.007
1308.708, 4978.148
1309.190, 4983.033
1309.672, 4990.415
1310.154, 5000.604
1310.636, 5011.067
1311.118, 5021.367
1311.600, 5029.662
1312.082, 5031.454
1312.564, 5030.113
1313.047, 5034.211
1313.529, 5050.605
1314.011, 5041.924
1314.493, 5006.908
1314.975, 4978.699
1315.457, 4985.421
1315.939, 4999.890
1316.421, 5003.326
1316.904, 5003.952
1317.386, 5013.351
1317.868, 5031.372
1318.350, 5040.533
1318.832, 5040.902
##END=



