##NAMES=Harmotome
##RRUFFID=R070016
##IDEAL CHEMISTRY=Ba_2_(Si_12_Al_4_)O_32_&#183;12H_2_O
##LOCALITY=Idar-Oberstein, Germany
##OWNER=RRUFF
##SOURCE=Michael Scott
##DESCRIPTION=Colorless to milky-white prismatic crystals
##STATUS=The identification of this mineral has been made only by X-ray diffraction.
##URL=rruff.info/R070016
138.6662, 1272.746
139.1483, 1304.065
139.6304, 1340.316
140.1125, 1380.046
140.5946, 1423.199
141.0768, 1470.096
141.5589, 1521.599
142.0410, 1577.958
142.5231, 1638.437
143.0052, 1702.845
143.4873, 1772.167
143.9695, 1841.857
144.4516, 1912.513
144.9337, 1983.227
145.4158, 2054.870
145.8979, 2127.502
146.3800, 2197.812
146.8622, 2260.160
147.3443, 2309.997
147.8264, 2362.884
148.3085, 2426.089
148.7906, 2488.880
149.2727, 2545.811
149.7549, 2594.711
150.2370, 2633.865
150.7191, 2658.486
151.2012, 2656.188
151.6833, 2661.124
152.1654, 2681.382
152.6476, 2705.074
153.1297, 2722.839
153.6118, 2731.588
154.0939, 2733.806
154.5760, 2734.623
155.0581, 2736.818
155.5403, 2732.628
156.0224, 2710.916
156.5045, 2688.659
156.9866, 2684.315
157.4687, 2703.685
157.9508, 2734.644
158.4330, 2751.364
158.9151, 2733.789
159.3972, 2726.922
159.8793, 2733.693
160.3614, 2749.605
160.8435, 2770.001
161.3257, 2793.248
161.8078, 2821.096
162.2899, 2857.760
162.7720, 2911.923
163.2541, 2963.724
163.7362, 3011.005
164.2184, 3056.204
164.7005, 3102.686
165.1826, 3151.925
165.6647, 3201.300
166.1468, 3245.634
166.6289, 3282.651
167.1111, 3318.438
167.5932, 3356.338
168.0753, 3392.358
168.5574, 3419.379
169.0395, 3434.590
169.5216, 3445.352
170.0038, 3467.775
170.4859, 3511.298
170.9680, 3546.199
171.4501, 3563.618
171.9322, 3571.447
172.4143, 3579.549
172.8965, 3590.881
173.3786, 3605.187
173.8607, 3623.130
174.3428, 3647.078
174.8249, 3667.979
175.3070, 3684.404
175.7892, 3696.707
176.2713, 3704.178
176.7534, 3705.904
177.2355, 3705.719
177.7176, 3710.417
178.1997, 3720.607
178.6819, 3731.252
179.1640, 3744.971
179.6461, 3757.564
180.1282, 3759.917
180.6103, 3747.416
181.0924, 3731.260
181.5745, 3732.125
182.0567, 3752.120
182.5388, 3763.222
183.0209, 3748.201
183.5030, 3721.148
183.9851, 3707.669
184.4672, 3716.118
184.9494, 3731.376
185.4315, 3732.172
185.9136, 3719.200
186.3957, 3707.885
186.8778, 3705.507
187.3599, 3707.171
187.8421, 3704.690
188.3242, 3696.421
188.8063, 3684.108
189.2884, 3669.437
189.7705, 3652.670
190.2526, 3632.708
190.7348, 3601.917
191.2169, 3569.242
191.6990, 3552.576
192.1811, 3557.732
192.6632, 3568.552
193.1453, 3568.884
193.6275, 3560.920
194.1096, 3552.529
194.5917, 3548.442
195.0738, 3544.825
195.5559, 3534.914
196.0380, 3517.094
196.5202, 3496.025
197.0023, 3475.208
197.4844, 3454.341
197.9665, 3432.381
198.4486, 3408.291
198.9307, 3382.946
199.4129, 3357.195
199.8950, 3330.445
200.3771, 3305.386
200.8592, 3284.594
201.3413, 3266.967
201.8234, 3250.913
202.3056, 3244.255
202.7877, 3235.634
203.2698, 3204.164
203.7519, 3144.804
204.2340, 3086.500
204.7161, 3052.724
205.1983, 3033.525
205.6804, 3012.464
206.1625, 2984.563
206.6446, 2953.573
207.1267, 2924.244
207.6088, 2896.784
208.0910, 2869.429
208.5731, 2838.122
209.0552, 2807.234
209.5373, 2784.261
210.0194, 2775.494
210.5015, 2770.044
210.9837, 2754.670
211.4658, 2728.591
211.9479, 2704.413
212.4300, 2693.349
212.9121, 2685.220
213.3942, 2664.703
213.8764, 2623.812
214.3585, 2581.134
214.8406, 2555.108
215.3227, 2545.584
215.8048, 2538.307
216.2869, 2528.522
216.7691, 2517.886
217.2512, 2507.393
217.7333, 2495.770
218.2154, 2488.622
218.6975, 2495.697
219.1796, 2515.269
219.6618, 2524.513
220.1439, 2512.148
220.6260, 2489.895
221.1081, 2471.983
221.5902, 2459.151
222.0723, 2447.181
222.5545, 2432.711
223.0366, 2416.460
223.5187, 2402.337
224.0008, 2392.060
224.4829, 2383.457
224.9650, 2373.341
225.4472, 2361.736
225.9293, 2352.846
226.4114, 2355.001
226.8935, 2362.508
227.3756, 2353.476
227.8577, 2315.115
228.3399, 2277.214
228.8220, 2270.042
229.3041, 2288.373
229.7862, 2305.704
230.2683, 2310.336
230.7504, 2306.207
231.2325, 2301.270
231.7147, 2296.132
232.1968, 2290.330
232.6789, 2284.492
233.1610, 2277.959
233.6431, 2268.060
234.1252, 2248.377
234.6074, 2226.925
235.0895, 2216.870
235.5716, 2220.059
236.0537, 2226.112
236.5358, 2227.725
237.0179, 2227.212
237.5001, 2229.604
237.9822, 2237.802
238.4643, 2247.869
238.9464, 2255.724
239.4285, 2261.343
239.9106, 2266.572
240.3928, 2272.388
240.8749, 2278.425
241.3570, 2284.612
241.8391, 2294.558
242.3212, 2299.476
242.8033, 2288.391
243.2855, 2263.728
243.7676, 2243.835
244.2497, 2237.706
244.7318, 2239.667
245.2139, 2237.719
245.6960, 2229.243
246.1782, 2223.950
246.6603, 2231.886
247.1424, 2247.777
247.6245, 2254.983
248.1066, 2247.035
248.5887, 2230.680
249.0709, 2212.122
249.5530, 2188.975
250.0351, 2178.096
250.5172, 2196.103
250.9993, 2228.166
251.4814, 2247.945
251.9636, 2249.106
252.4457, 2241.339
252.9278, 2233.042
253.4099, 2224.080
253.8920, 2219.698
254.3741, 2224.493
254.8563, 2232.475
255.3384, 2236.365
255.8205, 2235.309
256.3026, 2234.780
256.7847, 2240.349
257.2668, 2251.886
257.7490, 2259.792
258.2311, 2262.022
258.7132, 2262.005
259.1953, 2261.484
259.6774, 2260.715
260.1595, 2259.920
260.6417, 2258.296
261.1238, 2257.013
261.6059, 2262.285
262.0880, 2283.375
262.5701, 2300.626
263.0522, 2302.656
263.5344, 2294.513
264.0165, 2288.965
264.4986, 2293.129
264.9807, 2301.845
265.4628, 2298.847
265.9449, 2272.182
266.4271, 2253.479
266.9092, 2256.404
267.3913, 2268.075
267.8734, 2269.890
268.3555, 2255.674
268.8376, 2235.586
269.3198, 2226.437
269.8019, 2237.839
270.2840, 2241.541
270.7661, 2231.464
271.2482, 2217.479
271.7303, 2204.915
272.2125, 2195.756
272.6946, 2194.145
273.1767, 2206.609
273.6588, 2238.865
274.1409, 2255.091
274.6230, 2243.274
275.1052, 2228.854
275.5873, 2225.823
276.0694, 2232.003
276.5515, 2236.855
277.0336, 2232.288
277.5157, 2218.751
277.9979, 2206.075
278.4800, 2188.683
278.9621, 2178.333
279.4442, 2183.659
279.9263, 2196.498
280.4084, 2204.334
280.8906, 2200.608
281.3727, 2188.871
281.8548, 2179.879
282.3369, 2174.086
282.8190, 2170.819
283.3011, 2168.878
283.7833, 2169.783
284.2654, 2176.763
284.7475, 2190.098
285.2296, 2204.468
285.7117, 2211.436
286.1938, 2208.943
286.6760, 2204.535
287.1581, 2194.741
287.6402, 2186.202
288.1223, 2184.515
288.6044, 2188.609
289.0865, 2191.645
289.5687, 2185.032
290.0508, 2168.255
290.5329, 2161.781
291.0150, 2174.363
291.4971, 2188.324
291.9792, 2200.076
292.4614, 2208.069
292.9435, 2209.387
293.4256, 2200.022
293.9077, 2184.386
294.3898, 2176.173
294.8719, 2177.392
295.3541, 2181.731
295.8362, 2188.537
296.3183, 2196.334
296.8004, 2203.712
297.2825, 2210.397
297.7646, 2216.112
298.2468, 2220.468
298.7289, 2223.421
299.2110, 2225.790
299.6931, 2230.293
300.1752, 2232.004
300.6573, 2222.977
301.1395, 2202.325
301.6216, 2188.025
302.1037, 2193.998
302.5858, 2216.590
303.0679, 2244.688
303.5500, 2282.107
304.0321, 2313.555
304.5143, 2320.473
304.9964, 2308.265
305.4785, 2297.586
305.9606, 2288.875
306.4427, 2288.220
306.9248, 2310.729
307.4070, 2358.186
307.8891, 2398.492
308.3712, 2405.990
308.8533, 2389.076
309.3354, 2384.261
309.8175, 2401.589
310.2997, 2421.597
310.7818, 2432.862
311.2639, 2437.667
311.7460, 2443.022
312.2281, 2451.681
312.7102, 2462.932
313.1924, 2476.136
313.6745, 2495.030
314.1566, 2507.274
314.6387, 2502.375
315.1208, 2492.970
315.6029, 2497.001
316.0851, 2517.993
316.5672, 2540.747
317.0493, 2547.045
317.5314, 2531.503
318.0135, 2521.245
318.4956, 2518.237
318.9778, 2518.331
319.4599, 2522.395
319.9420, 2528.071
320.4241, 2528.743
320.9062, 2518.755
321.3883, 2499.752
321.8705, 2488.505
322.3526, 2491.680
322.8347, 2495.237
323.3168, 2500.156
323.7989, 2503.138
324.2810, 2498.777
324.7632, 2485.030
325.2453, 2467.660
325.7274, 2458.719
326.2095, 2463.518
326.6916, 2465.092
327.1737, 2461.059
327.6559, 2455.022
328.1380, 2448.871
328.6201, 2442.955
329.1022, 2436.782
329.5843, 2429.092
330.0664, 2419.847
330.5486, 2414.422
331.0307, 2416.197
331.5128, 2417.714
331.9949, 2419.717
332.4770, 2418.906
332.9591, 2408.248
333.4413, 2380.293
333.9234, 2345.264
334.4055, 2323.179
334.8876, 2315.724
335.3697, 2313.678
335.8518, 2323.461
336.3340, 2331.573
336.8161, 2322.037
337.2982, 2290.182
337.7803, 2254.449
338.2624, 2225.860
338.7445, 2204.365
339.2267, 2189.450
339.7088, 2181.070
340.1909, 2179.266
340.6730, 2189.095
341.1551, 2208.844
341.6372, 2220.392
342.1194, 2217.084
342.6015, 2204.260
343.0836, 2184.367
343.5657, 2158.241
344.0478, 2135.238
344.5299, 2122.307
345.0121, 2118.135
345.4942, 2112.750
345.9763, 2106.591
346.4584, 2098.925
346.9405, 2088.017
347.4226, 2075.646
347.9048, 2065.640
348.3869, 2059.614
348.8690, 2054.474
349.3511, 2044.177
349.8332, 2021.795
350.3153, 2007.767
350.7975, 2003.851
351.2796, 2006.536
351.7617, 2019.146
352.2438, 2038.042
352.7259, 2049.975
353.2080, 2041.494
353.6902, 2012.568
354.1723, 1991.277
354.6544, 1975.954
355.1365, 1971.316
355.6186, 1989.304
356.1007, 2015.516
356.5829, 2029.869
357.0650, 2022.654
357.5471, 2003.456
358.0292, 1989.397
358.5113, 1979.973
358.9934, 1977.591
359.4756, 1994.700
359.9577, 2010.341
360.4398, 2009.302
360.9219, 1991.601
361.4040, 1971.253
361.8861, 1957.055
362.3683, 1948.865
362.8504, 1947.318
363.3325, 1955.170
363.8146, 1963.878
364.2967, 1969.859
364.7788, 1972.653
365.2610, 1969.949
365.7431, 1955.275
366.2252, 1941.362
366.7073, 1941.560
367.1894, 1954.474
367.6715, 1971.588
368.1537, 1993.896
368.6358, 2013.133
369.1179, 2010.345
369.6000, 1979.383
370.0821, 1955.680
370.5642, 1954.212
371.0464, 1962.707
371.5285, 1965.828
372.0106, 1961.530
372.4927, 1958.634
372.9748, 1966.302
373.4569, 1985.390
373.9391, 1997.518
374.4212, 1993.900
374.9033, 1993.821
375.3854, 2010.017
375.8675, 2033.783
376.3496, 2049.227
376.8318, 2048.753
377.3139, 2038.025
377.7960, 2029.345
378.2781, 2020.605
378.7602, 2018.319
379.2423, 2027.878
379.7245, 2038.865
380.2066, 2043.367
380.6887, 2041.757
381.1708, 2040.834
381.6529, 2047.855
382.1350, 2061.813
382.6172, 2069.852
383.0993, 2067.960
383.5814, 2066.568
384.0635, 2070.954
384.5456, 2077.962
385.0277, 2083.536
385.5099, 2086.554
385.9920, 2087.217
386.4741, 2083.317
386.9562, 2075.335
387.4383, 2074.079
387.9204, 2086.423
388.4026, 2101.365
388.8847, 2104.755
389.3668, 2097.054
389.8489, 2091.853
390.3310, 2093.913
390.8131, 2100.805
391.2953, 2110.161
391.7774, 2121.742
392.2595, 2134.990
392.7416, 2149.890
393.2237, 2166.117
393.7058, 2181.583
394.1880, 2199.182
394.6701, 2212.649
395.1522, 2218.970
395.6343, 2220.744
396.1164, 2219.754
396.5985, 2216.921
397.0807, 2216.095
397.5628, 2222.858
398.0449, 2238.992
398.5270, 2256.814
399.0091, 2279.957
399.4912, 2301.236
399.9734, 2315.693
400.4555, 2325.860
400.9376, 2337.889
401.4197, 2355.767
401.9018, 2377.056
402.3839, 2394.656
402.8660, 2407.069
403.3481, 2419.491
403.8303, 2433.968
404.3124, 2448.383
404.7945, 2461.110
405.2766, 2471.932
405.7587, 2481.385
406.2408, 2485.940
406.7230, 2489.077
407.2051, 2506.116
407.6872, 2543.289
408.1693, 2578.150
408.6514, 2591.471
409.1335, 2590.072
409.6157, 2592.457
410.0978, 2601.674
410.5799, 2614.352
411.0620, 2626.937
411.5441, 2641.238
412.0262, 2664.462
412.5084, 2700.658
412.9905, 2738.479
413.4726, 2758.698
413.9547, 2748.976
414.4368, 2755.703
414.9189, 2791.199
415.4011, 2832.640
415.8832, 2864.577
416.3653, 2889.219
416.8474, 2919.104
417.3295, 2963.766
417.8116, 3017.918
418.2938, 3056.664
418.7759, 3066.477
419.2580, 3082.603
419.7401, 3115.848
420.2222, 3152.456
420.7043, 3180.006
421.1865, 3196.995
421.6686, 3212.311
422.1507, 3235.170
422.6328, 3264.643
423.1149, 3291.207
423.5970, 3313.916
424.0792, 3335.074
424.5613, 3359.100
425.0434, 3381.895
425.5255, 3395.065
426.0076, 3391.747
426.4897, 3386.583
426.9719, 3393.482
427.4540, 3409.081
427.9361, 3422.358
428.4182, 3431.449
428.9003, 3433.039
429.3824, 3421.313
429.8646, 3394.361
430.3467, 3366.114
430.8288, 3330.515
431.3109, 3299.861
431.7930, 3287.887
432.2751, 3288.394
432.7573, 3282.528
433.2394, 3259.079
433.7215, 3223.904
434.2036, 3194.663
434.6857, 3171.153
435.1678, 3154.756
435.6500, 3151.483
436.1321, 3149.880
436.6142, 3139.792
437.0963, 3122.103
437.5784, 3106.934
438.0605, 3104.091
438.5427, 3110.957
439.0248, 3111.636
439.5069, 3101.557
439.9890, 3095.834
440.4711, 3098.635
440.9532, 3110.334
441.4354, 3136.255
441.9175, 3181.789
442.3996, 3221.439
442.8817, 3232.695
443.3638, 3224.538
443.8459, 3216.422
444.3281, 3209.955
444.8102, 3215.960
445.2923, 3247.835
445.7744, 3305.528
446.2565, 3356.331
446.7386, 3401.646
447.2208, 3438.167
447.7029, 3453.025
448.1850, 3460.542
448.6671, 3489.055
449.1492, 3548.634
449.6313, 3618.520
450.1135, 3662.906
450.5956, 3666.964
451.0777, 3691.703
451.5598, 3750.209
452.0419, 3815.530
452.5240, 3884.184
453.0062, 3950.208
453.4883, 4002.635
453.9704, 4032.383
454.4525, 4053.538
454.9346, 4094.958
455.4167, 4159.560
455.8989, 4223.735
456.3810, 4279.986
456.8631, 4335.800
457.3452, 4397.081
457.8273, 4463.919
458.3094, 4534.668
458.7916, 4612.851
459.2737, 4692.436
459.7558, 4764.819
460.2379, 4830.713
460.7200, 4897.938
461.2021, 4970.163
461.6843, 5047.180
462.1664, 5128.730
462.6485, 5220.329
463.1306, 5306.564
463.6127, 5392.759
464.0948, 5468.225
464.5770, 5516.072
465.0591, 5540.923
465.5412, 5567.360
466.0233, 5615.960
466.5054, 5682.969
466.9875, 5744.178
467.4697, 5796.213
467.9518, 5847.813
468.4339, 5907.905
468.9160, 5964.363
469.3981, 6005.883
469.8802, 6030.675
470.3624, 6046.337
470.8445, 6054.436
471.3266, 6058.084
471.8087, 6067.921
472.2908, 6086.023
472.7729, 6103.396
473.2551, 6111.193
473.7372, 6114.750
474.2193, 6130.530
474.7014, 6166.512
475.1835, 6202.241
475.6656, 6230.049
476.1478, 6253.143
476.6299, 6275.331
477.1120, 6297.558
477.5941, 6319.621
478.0762, 6339.928
478.5583, 6358.097
479.0405, 6389.341
479.5226, 6451.508
480.0047, 6506.396
480.4868, 6543.057
480.9689, 6570.296
481.4510, 6596.233
481.9332, 6623.751
482.4153, 6655.212
482.8974, 6702.611
483.3795, 6762.951
483.8616, 6789.532
484.3438, 6765.873
484.8259, 6735.858
485.3080, 6731.823
485.7901, 6740.250
486.2722, 6736.852
486.7543, 6716.435
487.2365, 6685.489
487.7186, 6651.451
488.2007, 6609.102
488.6828, 6542.138
489.1649, 6446.396
489.6470, 6347.139
490.1292, 6274.242
490.6113, 6231.597
491.0934, 6158.266
491.5755, 6035.029
492.0576, 5907.572
492.5397, 5791.015
493.0219, 5676.959
493.5040, 5552.593
493.9861, 5414.653
494.4682, 5270.316
494.9503, 5130.489
495.4324, 4995.322
495.9146, 4852.810
496.3967, 4695.846
496.8788, 4543.262
497.3609, 4403.727
497.8430, 4275.831
498.3251, 4158.324
498.8073, 4055.662
499.2894, 3954.128
499.7715, 3842.641
500.2536, 3725.259
500.7357, 3607.481
501.2178, 3490.503
501.6999, 3385.180
502.1820, 3304.480
502.6642, 3249.304
503.1463, 3189.685
503.6284, 3126.095
504.1105, 3058.817
504.5926, 2979.731
505.0747, 2900.885
505.5569, 2836.524
506.0390, 2790.730
506.5211, 2755.100
507.0032, 2724.035
507.4853, 2697.957
507.9674, 2655.603
508.4496, 2581.191
508.9317, 2516.566
509.4138, 2485.748
509.8959, 2473.017
510.3780, 2459.367
510.8601, 2441.625
511.3423, 2419.818
511.8244, 2389.900
512.3065, 2356.696
512.7886, 2330.934
513.2708, 2314.464
513.7529, 2301.820
514.2350, 2289.694
514.7171, 2277.757
515.1992, 2262.650
515.6813, 2239.051
516.1635, 2219.342
516.6456, 2209.200
517.1277, 2202.101
517.6098, 2191.993
518.0919, 2177.695
518.5740, 2161.205
519.0562, 2143.616
519.5383, 2125.287
520.0204, 2108.385
520.5025, 2090.504
520.9846, 2079.797
521.4667, 2085.403
521.9489, 2096.584
522.4310, 2105.358
522.9131, 2111.493
523.3952, 2108.171
523.8773, 2083.478
524.3594, 2051.423
524.8416, 2031.972
525.3237, 2025.853
525.8058, 2023.583
526.2879, 2019.743
526.7700, 2015.470
527.2521, 2014.431
527.7343, 2020.701
528.2164, 2024.410
528.6985, 2027.970
529.1806, 2027.060
529.6627, 2014.931
530.1448, 1995.189
530.6270, 1978.571
531.1091, 1971.434
531.5912, 1972.287
532.0733, 1980.871
532.5554, 1999.508
533.0375, 2008.066
533.5197, 1994.559
534.0018, 1977.218
534.4839, 1976.729
534.9660, 1990.714
535.4481, 1997.372
535.9302, 1983.578
536.4124, 1966.907
536.8945, 1960.261
537.3766, 1961.674
537.8587, 1965.831
538.3408, 1970.798
538.8229, 1975.961
539.3051, 1981.438
539.7872, 1989.877
540.2693, 1986.882
540.7514, 1959.710
541.2335, 1935.025
541.7156, 1923.413
542.1978, 1918.629
542.6799, 1909.014
543.1620, 1890.035
543.6441, 1874.633
544.1262, 1881.182
544.6083, 1904.480
545.0905, 1918.350
545.5726, 1919.225
546.0547, 1913.321
546.5368, 1902.003
547.0189, 1887.428
547.5010, 1878.839
547.9832, 1881.659
548.4653, 1882.166
548.9474, 1876.840
549.4295, 1867.324
549.9116, 1852.304
550.3937, 1833.756
550.8758, 1820.071
551.3579, 1819.100
551.8400, 1827.215
552.3221, 1827.674
552.8043, 1818.080
553.2864, 1806.478
553.7685, 1794.729
554.2506, 1781.327
554.7327, 1762.362
555.2148, 1739.161
555.6970, 1721.579
556.1791, 1714.408
556.6612, 1714.973
557.1433, 1725.540
557.6254, 1742.667
558.1075, 1750.168
558.5897, 1741.192
559.0718, 1723.871
559.5539, 1709.604
560.0360, 1698.619
560.5181, 1689.732
561.0002, 1681.905
561.4824, 1676.941
561.9645, 1680.074
562.4466, 1684.885
562.9287, 1681.089
563.4108, 1665.362
563.8929, 1646.570
564.3751, 1634.135
564.8572, 1627.563
565.3393, 1624.277
565.8214, 1625.575
566.3035, 1625.044
566.7856, 1617.521
567.2678, 1605.875
567.7499, 1597.758
568.2320, 1594.676
568.7141, 1591.852
569.1962, 1589.906
569.6783, 1586.275
570.1605, 1574.591
570.6426, 1557.818
571.1247, 1548.794
571.6068, 1556.757
572.0889, 1574.967
572.5710, 1584.230
573.0532, 1582.414
573.5353, 1578.302
574.0174, 1568.091
574.4995, 1560.708
574.9816, 1565.802
575.4637, 1578.491
575.9459, 1582.656
576.4280, 1566.989
576.9101, 1548.509
577.3922, 1542.363
577.8743, 1544.580
578.3564, 1544.027
578.8386, 1537.966
579.3207, 1534.403
579.8028, 1542.771
580.2849, 1562.752
580.7670, 1572.959
581.2491, 1569.497
581.7313, 1560.289
582.2134, 1540.854
582.6955, 1519.719
583.1776, 1502.636
583.6597, 1491.356
584.1418, 1487.750
584.6240, 1500.514
585.1061, 1518.660
585.5882, 1514.926
586.0703, 1489.583
586.5524, 1469.929
587.0345, 1466.159
587.5167, 1472.105
587.9988, 1480.286
588.4809, 1491.496
588.9630, 1500.810
589.4451, 1508.439
589.9272, 1513.804
590.4094, 1518.203
590.8915, 1519.642
591.3736, 1512.865
591.8557, 1496.957
592.3378, 1481.110
592.8199, 1478.043
593.3021, 1486.560
593.7842, 1490.408
594.2663, 1490.027
594.7484, 1482.982
595.2305, 1460.968
595.7126, 1435.534
596.1948, 1425.047
596.6769, 1431.373
597.1590, 1445.354
597.6411, 1477.218
598.1232, 1505.546
598.6053, 1504.612
599.0875, 1483.602
599.5696, 1472.964
600.0517, 1487.590
600.5338, 1512.483
601.0159, 1518.925
601.4980, 1501.731
601.9802, 1493.727
602.4623, 1503.348
602.9444, 1511.524
603.4265, 1507.430
603.9086, 1496.657
604.3907, 1488.047
604.8729, 1483.581
605.3550, 1479.969
605.8371, 1474.954
606.3192, 1469.886
606.8013, 1466.012
607.2834, 1463.782
607.7656, 1465.000
608.2477, 1471.203
608.7298, 1480.116
609.2119, 1485.590
609.6940, 1486.852
610.1761, 1486.382
610.6583, 1482.803
611.1404, 1478.906
611.6225, 1476.968
612.1046, 1475.477
612.5867, 1470.717
613.0688, 1460.140
613.5510, 1449.925
614.0331, 1443.973
614.5152, 1442.553
614.9973, 1449.043
615.4794, 1463.406
615.9615, 1474.315
616.4437, 1473.076
616.9258, 1462.453
617.4079, 1453.692
617.8900, 1447.126
618.3721, 1441.972
618.8542, 1435.461
619.3364, 1432.706
619.8185, 1438.702
620.3006, 1450.874
620.7827, 1463.777
621.2648, 1476.903
621.7469, 1484.522
622.2291, 1473.865
622.7112, 1451.640
623.1933, 1445.010
623.6754, 1459.803
624.1575, 1474.068
624.6396, 1470.364
625.1218, 1451.805
625.6039, 1436.342
626.0860, 1415.990
626.5681, 1409.981
627.0502, 1435.238
627.5323, 1461.693
628.0145, 1465.548
628.4966, 1451.724
628.9787, 1440.508
629.4608, 1443.538
629.9429, 1450.621
630.4250, 1444.575
630.9072, 1429.094
631.3893, 1426.917
631.8714, 1444.337
632.3535, 1461.353
632.8356, 1461.516
633.3177, 1447.603
633.7999, 1437.342
634.2820, 1431.689
634.7641, 1428.205
635.2462, 1427.823
635.7283, 1428.579
636.2104, 1427.860
636.6926, 1426.894
637.1747, 1431.314
637.6568, 1447.245
638.1389, 1461.298
638.6210, 1445.912
639.1031, 1407.180
639.5853, 1391.052
640.0674, 1408.763
640.5495, 1431.802
641.0316, 1438.950
641.5137, 1432.637
641.9958, 1427.032
642.4780, 1423.324
642.9601, 1418.604
643.4422, 1409.286
643.9243, 1401.607
644.4064, 1399.939
644.8885, 1404.039
645.3707, 1413.488
645.8528, 1430.409
646.3349, 1444.386
646.8170, 1433.546
647.2991, 1403.924
647.7813, 1396.126
648.2634, 1419.844
648.7455, 1443.138
649.2276, 1441.780
649.7097, 1421.792
650.1918, 1408.977
650.6740, 1405.710
651.1561, 1405.993
651.6382, 1416.091
652.1203, 1423.904
652.6024, 1416.698
653.0845, 1400.973
653.5667, 1393.474
654.0488, 1402.746
654.5309, 1418.138
655.0130, 1428.331
655.4951, 1433.689
655.9772, 1436.132
656.4594, 1436.068
656.9415, 1429.699
657.4236, 1411.087
657.9057, 1387.607
658.3878, 1381.908
658.8699, 1410.908
659.3521, 1428.484
659.8342, 1425.620
660.3163, 1420.522
660.7984, 1424.899
661.2805, 1433.757
661.7626, 1435.899
662.2448, 1426.848
662.7269, 1415.295
663.2090, 1411.451
663.6911, 1411.319
664.1732, 1401.698
664.6553, 1381.965
665.1375, 1368.928
665.6196, 1372.285
666.1017, 1385.757
666.5838, 1397.031
667.0659, 1407.530
667.5480, 1411.567
668.0302, 1400.173
668.5123, 1392.780
668.9944, 1400.259
669.4765, 1414.386
669.9586, 1424.716
670.4407, 1428.720
670.9229, 1426.930
671.4050, 1417.464
671.8871, 1403.608
672.3692, 1387.385
672.8513, 1370.608
673.3334, 1362.506
673.8156, 1367.314
674.2977, 1378.860
674.7798, 1389.153
675.2619, 1398.733
675.7440, 1402.073
676.2261, 1391.605
676.7083, 1385.443
677.1904, 1393.657
677.6725, 1404.563
678.1546, 1405.173
678.6367, 1394.988
679.1188, 1386.682
679.6010, 1387.068
680.0831, 1391.259
680.5652, 1397.657
681.0473, 1403.790
681.5294, 1402.608
682.0115, 1392.636
682.4937, 1381.356
682.9758, 1376.446
683.4579, 1377.142
683.9400, 1377.148
684.4221, 1375.838
684.9042, 1375.495
685.3864, 1377.656
685.8685, 1379.956
686.3506, 1382.706
686.8327, 1384.603
687.3148, 1379.417
687.7969, 1356.629
688.2791, 1337.683
688.7612, 1336.864
689.2433, 1343.545
689.7254, 1344.459
690.2075, 1338.577
690.6896, 1332.021
691.1718, 1328.621
691.6539, 1328.021
692.1360, 1329.806
692.6181, 1334.072
693.1002, 1339.957
693.5823, 1349.881
694.0645, 1354.975
694.5466, 1345.259
695.0287, 1326.679
695.5108, 1318.851
695.9929, 1327.391
696.4750, 1334.551
696.9572, 1339.455
697.4393, 1340.415
697.9214, 1331.665
698.4035, 1319.055
698.8856, 1314.320
699.3677, 1322.142
699.8499, 1335.172
700.3320, 1348.865
700.8141, 1361.080
701.2962, 1361.909
701.7783, 1350.840
702.2604, 1343.765
702.7426, 1348.368
703.2247, 1359.307
703.7068, 1368.811
704.1889, 1377.707
704.6710, 1381.048
705.1531, 1373.569
705.6353, 1367.010
706.1174, 1365.302
706.5995, 1365.334
707.0816, 1363.178
707.5637, 1358.731
708.0458, 1356.170
708.5280, 1358.962
709.0101, 1363.768
709.4922, 1365.012
709.9743, 1365.668
710.4564, 1376.673
710.9385, 1399.542
711.4207, 1418.093
711.9028, 1416.962
712.3849, 1399.990
712.8670, 1384.663
713.3491, 1364.937
713.8312, 1367.046
714.3134, 1413.902
714.7955, 1461.805
715.2776, 1478.128
715.7597, 1471.382
716.2418, 1463.433
716.7239, 1455.023
717.2061, 1449.518
717.6882, 1449.925
718.1703, 1452.353
718.6524, 1452.000
719.1345, 1450.478
719.6166, 1453.411
720.0988, 1463.527
720.5809, 1476.762
721.0630, 1490.355
721.5451, 1502.993
722.0272, 1503.003
722.5093, 1487.805
722.9915, 1479.443
723.4736, 1490.529
723.9557, 1509.504
724.4378, 1517.126
724.9199, 1510.788
725.4020, 1504.621
725.8842, 1495.446
726.3663, 1490.331
726.8484, 1492.791
727.3305, 1499.399
727.8126, 1510.084
728.2947, 1522.787
728.7769, 1527.009
729.2590, 1508.331
729.7411, 1486.837
730.2232, 1488.926
730.7053, 1503.673
731.1874, 1502.960
731.6696, 1482.488
732.1517, 1461.887
732.6338, 1456.845
733.1159, 1463.550
733.5980, 1470.203
734.0801, 1478.470
734.5623, 1478.431
735.0444, 1459.836
735.5265, 1446.794
736.0086, 1464.122
736.4907, 1495.941
736.9728, 1506.343
737.4550, 1484.135
737.9371, 1466.233
738.4192, 1464.435
738.9013, 1466.565
739.3834, 1464.989
739.8655, 1461.028
740.3477, 1459.812
740.8298, 1462.536
741.3119, 1461.710
741.7940, 1446.540
742.2761, 1423.454
742.7582, 1407.060
743.2404, 1397.431
743.7225, 1395.413
744.2046, 1402.410
744.6867, 1409.523
745.1688, 1405.702
745.6509, 1391.852
746.1331, 1388.747
746.6152, 1406.038
747.0973, 1417.189
747.5793, 1416.315
748.0615, 1409.958
748.5436, 1397.957
749.0257, 1383.756
749.5078, 1377.457
749.9899, 1386.371
750.4720, 1393.349
750.9542, 1385.473
751.4363, 1374.604
751.9184, 1372.874
752.4005, 1379.795
752.8826, 1391.098
753.3647, 1404.827
753.8469, 1417.640
754.3290, 1424.466
754.8111, 1426.220
755.2932, 1428.836
755.7753, 1432.617
756.2574, 1434.102
756.7396, 1429.915
757.2217, 1427.869
757.7038, 1440.389
758.1859, 1469.345
758.6680, 1486.037
759.1501, 1477.025
759.6323, 1472.883
760.1144, 1486.148
760.5965, 1499.338
761.0786, 1493.938
761.5607, 1475.162
762.0428, 1466.821
762.5250, 1483.306
763.0071, 1500.894
763.4892, 1501.883
763.9713, 1495.857
764.4534, 1493.711
764.9355, 1497.066
765.4177, 1507.674
765.8998, 1526.833
766.3819, 1544.388
766.8640, 1540.257
767.3461, 1517.000
767.8282, 1507.956
768.3104, 1516.165
768.7925, 1523.793
769.2746, 1523.386
769.7567, 1519.420
770.2388, 1517.755
770.7209, 1518.563
771.2031, 1519.748
771.6852, 1526.567
772.1673, 1526.765
772.6494, 1512.535
773.1315, 1495.468
773.6136, 1486.257
774.0958, 1482.922
774.5779, 1474.821
775.0600, 1454.934
775.5421, 1435.927
776.0242, 1429.536
776.5063, 1426.973
776.9885, 1412.386
777.4706, 1389.771
777.9527, 1380.575
778.4348, 1395.297
778.9169, 1413.716
779.3990, 1400.217
779.8812, 1360.783
780.3633, 1349.245
780.8454, 1369.202
781.3275, 1388.506
781.8096, 1396.266
782.2917, 1396.471
782.7739, 1392.971
783.2560, 1385.680
783.7381, 1379.574
784.2202, 1380.994
784.7023, 1374.448
785.1844, 1349.504
785.6666, 1323.904
786.1487, 1308.908
786.6308, 1303.406
787.1129, 1303.364
787.5950, 1311.705
788.0771, 1314.717
788.5593, 1298.058
789.0414, 1278.263
789.5235, 1275.506
790.0056, 1283.894
790.4877, 1284.664
790.9698, 1271.244
791.4520, 1255.335
791.9341, 1251.332
792.4162, 1254.906
792.8983, 1251.097
793.3804, 1240.360
793.8625, 1232.339
794.3447, 1229.871
794.8268, 1230.054
795.3089, 1230.628
795.7910, 1231.291
796.2731, 1230.028
796.7552, 1226.334
797.2374, 1221.749
797.7195, 1214.562
798.2016, 1208.629
798.6837, 1208.477
799.1658, 1210.230
799.6479, 1205.559
800.1301, 1191.103
800.6122, 1181.313
801.0943, 1183.841
801.5764, 1188.366
802.0585, 1189.819
802.5406, 1188.560
803.0228, 1183.293
803.5049, 1175.264
803.9870, 1173.133
804.4691, 1189.543
804.9512, 1207.166
805.4333, 1196.062
805.9155, 1167.020
806.3976, 1151.821
806.8797, 1154.876
807.3618, 1162.834
807.8439, 1167.990
808.3260, 1168.246
808.8082, 1156.036
809.2903, 1129.019
809.7724, 1113.816
810.2545, 1113.095
810.7366, 1118.139
811.2188, 1126.121
811.7009, 1137.308
812.1830, 1155.215
812.6651, 1181.955
813.1472, 1192.131
813.6293, 1168.989
814.1115, 1152.338
814.5936, 1153.648
815.0757, 1161.366
815.5578, 1170.206
816.0399, 1177.335
816.5220, 1177.775
817.0042, 1170.209
817.4863, 1155.014
817.9684, 1119.833
818.4505, 1086.676
818.9326, 1084.724
819.4147, 1103.857
819.8969, 1115.073
820.3790, 1108.925
820.8611, 1100.669
821.3432, 1107.915
821.8253, 1123.380
822.3074, 1127.184
822.7896, 1120.863
823.2717, 1115.347
823.7538, 1113.022
824.2359, 1116.203
824.7180, 1129.373
825.2001, 1145.026
825.6823, 1133.770
826.1644, 1081.871
826.6465, 1056.423
827.1286, 1074.461
827.6107, 1093.352
828.0928, 1091.226
828.5750, 1079.380
829.0571, 1075.735
829.5392, 1081.335
830.0213, 1084.400
830.5034, 1076.686
830.9855, 1075.816
831.4677, 1101.774
831.9498, 1125.598
832.4319, 1115.146
832.9140, 1077.775
833.3961, 1047.021
833.8782, 1035.179
834.3604, 1033.403
834.8425, 1041.922
835.3246, 1052.850
835.8067, 1053.297
836.2888, 1048.231
836.7709, 1055.727
837.2531, 1080.906
837.7352, 1103.482
838.2173, 1099.420
838.6994, 1079.219
839.1815, 1069.632
839.6636, 1069.581
840.1458, 1072.005
840.6279, 1075.474
841.1100, 1079.034
841.5921, 1082.070
842.0742, 1084.506
842.5563, 1085.594
843.0385, 1084.218
843.5206, 1088.118
844.0027, 1103.415
844.4848, 1110.039
844.9669, 1092.868
845.4490, 1068.601
845.9312, 1061.862
846.4133, 1074.652
846.8954, 1081.111
847.3775, 1075.880
847.8596, 1071.713
848.3417, 1071.349
848.8239, 1072.598
849.3060, 1075.932
849.7881, 1079.241
850.2702, 1076.583
850.7523, 1063.765
851.2344, 1055.338
851.7166, 1060.824
852.1987, 1071.149
852.6808, 1083.317
853.1629, 1092.890
853.6450, 1091.947
854.1271, 1079.829
854.6093, 1064.300
855.0914, 1046.511
855.5735, 1035.346
856.0556, 1053.624
856.5377, 1087.138
857.0198, 1093.287
857.5020, 1070.508
857.9841, 1052.399
858.4662, 1057.530
858.9483, 1073.385
859.4304, 1081.182
859.9125, 1081.187
860.3947, 1076.127
860.8768, 1065.077
861.3589, 1057.951
861.8410, 1058.621
862.3231, 1061.397
862.8052, 1061.661
863.2874, 1059.106
863.7695, 1050.942
864.2516, 1029.995
864.7337, 1020.158
865.2158, 1030.535
865.6979, 1041.869
866.1801, 1044.867
866.6622, 1043.220
867.1443, 1040.170
867.6264, 1034.846
868.1085, 1037.662
868.5906, 1060.369
869.0728, 1077.883
869.5549, 1078.452
870.0370, 1073.349
870.5191, 1074.103
871.0012, 1078.222
871.4833, 1073.722
871.9655, 1052.658
872.4476, 1037.264
872.9297, 1046.976
873.4118, 1062.429
873.8939, 1062.438
874.3760, 1054.873
874.8582, 1060.725
875.3403, 1082.251
875.8224, 1096.068
876.3045, 1081.079
876.7866, 1054.981
877.2687, 1042.532
877.7509, 1039.966
878.2330, 1036.494
878.7151, 1031.883
879.1972, 1035.937
879.6793, 1054.059
880.1614, 1074.004
880.6436, 1075.784
881.1257, 1062.804
881.6078, 1060.549
882.0899, 1069.646
882.5720, 1071.929
883.0541, 1062.010
883.5363, 1048.305
884.0184, 1036.793
884.5005, 1027.909
884.9826, 1022.661
885.4647, 1020.215
885.9468, 1025.485
886.4290, 1044.761
886.9111, 1059.087
887.3932, 1059.819
887.8753, 1052.358
888.3574, 1040.471
888.8395, 1023.690
889.3217, 1018.686
889.8038, 1036.407
890.2859, 1049.621
890.7680, 1049.129
891.2501, 1049.421
891.7322, 1065.896
892.2144, 1087.158
892.6965, 1088.624
893.1786, 1062.973
893.6607, 1044.330
894.1428, 1050.526
894.6249, 1056.703
895.1071, 1044.566
895.5892, 1029.550
896.0713, 1030.492
896.5534, 1045.864
897.0355, 1061.936
897.5176, 1074.649
897.9998, 1081.321
898.4819, 1074.264
898.9640, 1064.647
899.4461, 1070.468
899.9282, 1082.346
900.4103, 1074.258
900.8925, 1042.730
901.3746, 1016.952
901.8567, 1021.411
902.3388, 1039.922
902.8209, 1053.229
903.3030, 1060.687
903.7852, 1058.197
904.2673, 1047.203
904.7494, 1037.080
905.2315, 1032.124
905.7136, 1030.432
906.1957, 1029.506
906.6779, 1029.797
907.1600, 1034.899
907.6421, 1044.255
908.1242, 1048.835
908.6063, 1046.722
909.0884, 1038.676
909.5706, 1023.664
910.0527, 1007.742
910.5348, 1006.263
911.0169, 1021.334
911.4990, 1031.186
911.9811, 1036.070
912.4633, 1033.574
912.9454, 1019.604
913.4275, 1005.463
913.9096, 1003.113
914.3917, 1010.250
914.8738, 1012.903
915.3560, 1005.949
915.8381, 1007.181
916.3202, 1024.546
916.8023, 1038.959
917.2844, 1041.342
917.7665, 1036.926
918.2487, 1031.669
918.7308, 1025.485
919.2129, 1021.076
919.6950, 1018.105
920.1771, 1017.442
920.6592, 1024.962
921.1414, 1029.046
921.6235, 1015.050
922.1056, 995.4399
922.5877, 996.8429
923.0698, 1026.496
923.5519, 1042.307
924.0341, 1019.974
924.5162, 999.3290
924.9983, 992.3226
925.4804, 998.3255
925.9625, 1027.872
926.4446, 1068.433
926.9268, 1084.826
927.4089, 1062.140
927.8910, 1036.152
928.3731, 1022.025
928.8552, 1015.291
929.3373, 1014.251
929.8195, 1017.356
930.3016, 1025.924
930.7837, 1037.456
931.2658, 1040.813
931.7479, 1025.994
932.2300, 1014.056
932.7122, 1033.127
933.1943, 1058.680
933.6764, 1055.550
934.1585, 1032.529
934.6406, 1013.088
935.1227, 1004.475
935.6049, 1005.744
936.0870, 1020.998
936.5691, 1036.656
937.0512, 1026.634
937.5333, 1004.925
938.0154, 1003.589
938.4976, 1021.867
938.9797, 1044.306
939.4618, 1064.181
939.9439, 1073.255
940.4260, 1058.551
940.9081, 1030.861
941.3903, 1016.099
941.8724, 1012.025
942.3545, 1009.036
942.8366, 1005.587
943.3187, 1001.494
943.8008, 996.5300
944.2830, 993.1851
944.7651, 997.2102
945.2471, 1006.070
945.7292, 1001.649
946.2114, 984.6279
946.6935, 981.0012
947.1756, 996.9953
947.6577, 1012.423
948.1398, 1013.598
948.6219, 1006.111
949.1041, 999.5136
949.5862, 993.6918
950.0683, 996.3441
950.5504, 1008.553
951.0325, 1022.304
951.5146, 1036.864
951.9968, 1047.062
952.4789, 1048.203
952.9610, 1042.429
953.4431, 1035.348
953.9252, 1025.989
954.4073, 1020.832
954.8895, 1022.099
955.3716, 1019.681
955.8537, 1006.421
956.3358, 996.7663
956.8179, 1008.546
957.3000, 1035.196
957.7822, 1042.391
958.2643, 1018.390
958.7464, 1007.849
959.2285, 1019.594
959.7106, 1030.158
960.1927, 1030.984
960.6749, 1025.942
961.1570, 1016.702
961.6391, 1004.371
962.1212, 1002.524
962.6033, 1019.005
963.0854, 1031.065
963.5676, 1035.393
964.0497, 1038.399
964.5318, 1045.312
965.0139, 1050.782
965.4960, 1044.264
965.9781, 1025.580
966.4603, 1020.421
966.9424, 1044.018
967.4245, 1058.288
967.9066, 1054.239
968.3887, 1047.142
968.8708, 1043.042
969.3530, 1041.370
969.8351, 1040.828
970.3172, 1041.283
970.7993, 1044.912
971.2814, 1058.178
971.7635, 1065.659
972.2457, 1060.012
972.7278, 1052.456
973.2099, 1046.856
973.6920, 1045.255
974.1741, 1052.302
974.6563, 1069.214
975.1384, 1082.251
975.6205, 1090.518
976.1026, 1092.632
976.5847, 1085.426
977.0668, 1074.643
977.5490, 1060.086
978.0311, 1046.416
978.5132, 1042.732
978.9953, 1051.246
979.4774, 1059.990
979.9595, 1071.677
980.4417, 1075.742
980.9238, 1059.967
981.4059, 1042.454
981.8880, 1037.373
982.3701, 1042.517
982.8522, 1051.877
983.3344, 1065.101
983.8165, 1075.224
984.2986, 1077.714
984.7807, 1079.476
985.2628, 1084.551
985.7449, 1089.424
986.2271, 1091.485
986.7092, 1090.444
987.1913, 1084.487
987.6734, 1071.527
988.1555, 1066.712
988.6376, 1079.970
989.1198, 1097.518
989.6019, 1122.282
990.0840, 1140.011
990.5661, 1129.558
991.0482, 1101.263
991.5303, 1084.215
992.0125, 1086.112
992.4946, 1096.371
992.9767, 1126.016
993.4588, 1144.611
993.9409, 1121.651
994.4230, 1089.149
994.9052, 1079.842
995.3873, 1091.297
995.8694, 1107.981
996.3515, 1127.015
996.8336, 1141.632
997.3157, 1146.399
997.7979, 1148.592
998.2800, 1153.422
998.7621, 1157.216
999.2442, 1152.146
999.7263, 1142.729
1000.208, 1143.806
1000.691, 1161.411
1001.173, 1177.177
1001.655, 1184.519
1002.137, 1185.340
1002.619, 1177.743
1003.101, 1166.551
1003.583, 1153.831
1004.065, 1142.336
1004.547, 1138.737
1005.030, 1146.238
1005.512, 1152.287
1005.994, 1146.006
1006.476, 1142.756
1006.958, 1154.854
1007.440, 1172.354
1007.922, 1186.723
1008.404, 1196.486
1008.887, 1200.088
1009.369, 1195.896
1009.851, 1194.529
1010.333, 1207.873
1010.815, 1216.629
1011.297, 1202.361
1011.779, 1184.030
1012.261, 1184.942
1012.743, 1198.217
1013.226, 1199.545
1013.708, 1180.572
1014.190, 1167.327
1014.672, 1175.298
1015.154, 1185.496
1015.636, 1186.314
1016.118, 1186.344
1016.600, 1200.252
1017.083, 1219.216
1017.565, 1216.492
1018.047, 1182.651
1018.529, 1162.416
1019.011, 1184.776
1019.493, 1207.343
1019.975, 1210.344
1020.457, 1206.060
1020.939, 1204.472
1021.422, 1204.800
1021.904, 1203.062
1022.386, 1198.406
1022.868, 1193.268
1023.350, 1188.135
1023.832, 1183.002
1024.314, 1175.247
1024.796, 1169.983
1025.279, 1172.839
1025.761, 1180.452
1026.243, 1186.475
1026.725, 1190.003
1027.207, 1191.727
1027.689, 1186.460
1028.171, 1186.847
1028.653, 1206.888
1029.135, 1223.243
1029.618, 1211.955
1030.100, 1190.001
1030.582, 1189.166
1031.064, 1213.056
1031.546, 1229.548
1032.028, 1229.137
1032.510, 1228.238
1032.992, 1234.849
1033.474, 1236.369
1033.957, 1210.014
1034.439, 1182.686
1034.921, 1204.133
1035.403, 1275.874
1035.885, 1312.846
1036.367, 1286.719
1036.849, 1261.422
1037.331, 1238.039
1037.814, 1221.161
1038.296, 1214.108
1038.778, 1213.776
1039.260, 1219.732
1039.742, 1230.888
1040.224, 1232.525
1040.706, 1217.077
1041.188, 1206.442
1041.671, 1204.614
1042.153, 1202.001
1042.635, 1192.237
1043.117, 1183.409
1043.599, 1184.868
1044.081, 1194.692
1044.563, 1201.980
1045.045, 1204.086
1045.527, 1211.937
1046.010, 1232.620
1046.492, 1241.599
1046.974, 1225.004
1047.456, 1205.384
1047.938, 1203.053
1048.420, 1212.966
1048.902, 1219.425
1049.384, 1222.367
1049.866, 1222.295
1050.349, 1219.694
1050.831, 1210.303
1051.313, 1189.230
1051.795, 1174.937
1052.277, 1183.162
1052.759, 1203.008
1053.241, 1210.324
1053.723, 1204.977
1054.205, 1206.424
1054.688, 1215.750
1055.170, 1215.974
1055.652, 1202.569
1056.134, 1193.985
1056.616, 1202.766
1057.098, 1214.370
1057.580, 1203.002
1058.062, 1175.305
1058.545, 1170.710
1059.027, 1187.141
1059.509, 1198.773
1059.991, 1202.132
1060.473, 1205.135
1060.955, 1211.524
1061.437, 1217.141
1061.919, 1216.199
1062.401, 1212.326
1062.884, 1215.348
1063.366, 1223.242
1063.848, 1229.153
1064.330, 1232.414
1064.812, 1234.253
1065.294, 1234.887
1065.776, 1230.276
1066.258, 1212.720
1066.740, 1198.802
1067.223, 1220.518
1067.705, 1259.239
1068.187, 1284.540
1068.669, 1294.524
1069.151, 1285.841
1069.633, 1262.512
1070.115, 1248.097
1070.597, 1258.350
1071.080, 1274.451
1071.562, 1280.087
1072.044, 1280.993
1072.526, 1282.256
1073.008, 1284.133
1073.490, 1288.004
1073.972, 1292.394
1074.454, 1289.789
1074.937, 1275.091
1075.419, 1270.583
1075.901, 1299.561
1076.383, 1331.264
1076.865, 1350.185
1077.347, 1357.092
1077.829, 1344.754
1078.311, 1324.129
1078.793, 1320.978
1079.276, 1341.435
1079.758, 1357.168
1080.240, 1354.285
1080.722, 1352.094
1081.204, 1356.405
1081.686, 1364.142
1082.168, 1373.758
1082.650, 1385.152
1083.132, 1402.286
1083.615, 1424.528
1084.097, 1430.483
1084.579, 1399.573
1085.061, 1382.334
1085.543, 1391.935
1086.025, 1401.540
1086.507, 1399.194
1086.989, 1395.368
1087.472, 1403.566
1087.954, 1418.637
1088.436, 1416.969
1088.918, 1388.735
1089.400, 1379.012
1089.882, 1395.271
1090.364, 1407.663
1090.846, 1407.035
1091.328, 1405.394
1091.811, 1411.785
1092.293, 1422.061
1092.775, 1428.512
1093.257, 1431.083
1093.739, 1426.768
1094.221, 1415.109
1094.703, 1411.399
1095.185, 1418.351
1095.667, 1423.250
1096.150, 1419.543
1096.632, 1414.569
1097.114, 1417.541
1097.596, 1425.317
1098.078, 1431.087
1098.560, 1434.173
1099.042, 1428.669
1099.524, 1417.096
1100.007, 1417.500
1100.489, 1432.861
1100.971, 1436.902
1101.453, 1406.151
1101.935, 1369.928
1102.417, 1368.034
1102.899, 1381.493
1103.381, 1381.231
1103.864, 1374.228
1104.346, 1378.323
1104.828, 1393.365
1105.310, 1407.350
1105.792, 1416.182
1106.274, 1415.258
1106.756, 1388.969
1107.238, 1366.677
1107.720, 1378.133
1108.203, 1396.347
1108.685, 1389.431
1109.167, 1368.312
1109.649, 1362.226
1110.131, 1376.169
1110.613, 1383.476
1111.095, 1367.075
1111.577, 1358.096
1112.059, 1369.636
1112.542, 1383.432
1113.024, 1397.636
1113.506, 1403.386
1113.988, 1381.066
1114.470, 1338.672
1114.952, 1323.522
1115.434, 1349.261
1115.916, 1365.889
1116.399, 1370.648
1116.881, 1372.656
1117.363, 1375.027
1117.845, 1372.404
1118.327, 1357.931
1118.809, 1341.776
1119.291, 1346.830
1119.773, 1371.304
1120.255, 1373.054
1120.738, 1351.352
1121.220, 1329.253
1121.702, 1309.749
1122.184, 1300.452
1122.666, 1305.008
1123.148, 1312.379
1123.630, 1311.530
1124.112, 1304.816
1124.594, 1294.968
1125.077, 1284.013
1125.559, 1276.416
1126.041, 1273.137
1126.523, 1278.881
1127.005, 1292.260
1127.487, 1300.469
1127.969, 1295.915
1128.451, 1288.141
1128.934, 1284.055
1129.416, 1282.602
1129.898, 1283.239
1130.380, 1285.505
1130.862, 1293.523
1131.344, 1301.545
1131.826, 1292.883
1132.308, 1263.953
1132.791, 1243.776
1133.273, 1250.455
1133.755, 1256.471
1134.237, 1254.542
1134.719, 1247.655
1135.201, 1232.320
1135.683, 1216.621
1136.165, 1210.001
1136.647, 1212.022
1137.130, 1218.415
1137.612, 1235.353
1138.094, 1238.296
1138.576, 1218.303
1139.058, 1205.525
1139.540, 1208.957
1140.022, 1216.137
1140.504, 1220.126
1140.986, 1220.472
1141.469, 1216.491
1141.951, 1208.183
1142.433, 1192.466
1142.915, 1170.007
1143.397, 1161.863
1143.879, 1169.295
1144.361, 1178.001
1144.843, 1182.659
1145.326, 1179.968
1145.808, 1165.523
1146.290, 1148.944
1146.772, 1144.528
1147.254, 1148.050
1147.736, 1157.677
1148.218, 1166.578
1148.700, 1156.915
1149.182, 1132.590
1149.665, 1115.802
1150.147, 1114.866
1150.629, 1120.082
1151.111, 1130.714
1151.593, 1139.086
1152.075, 1139.152
1152.557, 1136.559
1153.039, 1135.974
1153.521, 1135.824
1154.004, 1132.614
1154.486, 1126.621
1154.968, 1122.742
1155.450, 1124.292
1155.932, 1122.217
1156.414, 1113.805
1156.896, 1105.825
1157.378, 1099.710
1157.861, 1094.590
1158.343, 1088.664
1158.825, 1085.297
1159.307, 1092.319
1159.789, 1108.406
1160.271, 1115.765
1160.753, 1114.434
1161.235, 1099.316
1161.718, 1070.257
1162.200, 1045.881
1162.682, 1032.987
1163.164, 1028.449
1163.646, 1030.369
1164.128, 1036.508
1164.610, 1045.019
1165.092, 1054.283
1165.574, 1066.186
1166.057, 1074.367
1166.539, 1060.024
1167.021, 1029.288
1167.503, 1009.626
1167.985, 1010.137
1168.467, 1013.364
1168.949, 1004.591
1169.431, 1002.280
1169.913, 1030.775
1170.396, 1052.996
1170.878, 1031.797
1171.360, 995.8022
1171.842, 984.8358
1172.324, 995.6717
1172.806, 996.4754
1173.288, 979.0919
1173.770, 973.6916
1174.253, 989.7722
1174.735, 994.7653
1175.217, 974.9197
1175.699, 964.0525
1176.181, 984.5121
1176.663, 1013.232
1177.145, 1019.793
1177.627, 1008.544
1178.109, 994.5679
1178.592, 978.6490
1179.074, 964.3304
1179.556, 953.1559
1180.038, 956.8536
1180.520, 975.6212
1181.002, 988.9080
1181.484, 984.7399
1181.966, 976.1458
1182.448, 980.8047
1182.931, 983.1729
1183.413, 956.3589
1183.895, 925.3419
1184.377, 923.0820
1184.859, 940.3666
1185.341, 956.0445
1185.823, 965.8921
1186.305, 971.7233
1186.788, 974.2413
1187.270, 972.2142
1187.752, 962.1245
1188.234, 951.8686
1188.716, 940.7758
1189.198, 934.5740
1189.680, 940.9507
1190.162, 950.5092
1190.645, 944.6026
1191.127, 925.1044
1191.609, 923.2712
1192.091, 941.0335
1192.573, 942.6760
1193.055, 925.3241
1193.537, 922.7802
1194.019, 945.0698
1194.501, 965.2308
1194.984, 963.8022
1195.466, 952.4134
1195.948, 946.4070
1196.430, 940.7572
1196.912, 922.0696
1197.394, 901.2113
1197.876, 899.3021
1198.358, 910.6862
1198.840, 916.2993
1199.323, 912.5103
1199.805, 911.4612
1200.287, 921.7719
1200.769, 927.0708
1201.251, 919.7226
1201.733, 909.1980
1202.215, 892.8820
1202.697, 882.0358
1203.180, 890.2192
1203.662, 906.0825
1204.144, 907.3802
1204.626, 894.6224
1205.108, 889.2093
1205.590, 891.7006
1206.072, 898.9861
1206.554, 911.3640
1207.036, 917.2947
1207.519, 913.1086
1208.001, 903.2897
1208.483, 890.0828
1208.965, 880.2554
1209.447, 887.1149
1209.929, 900.4246
1210.411, 907.2050
1210.893, 905.0889
1211.375, 881.2468
1211.858, 848.0884
1212.340, 836.7234
1212.822, 851.0018
1213.304, 864.4152
1213.786, 865.1982
1214.268, 869.3848
1214.750, 889.4604
1215.232, 903.9167
1215.715, 904.4610
1216.197, 895.5126
1216.679, 869.9113
1217.161, 847.0712
1217.643, 862.7775
1218.125, 909.9800
1218.607, 920.8727
1219.089, 891.7431
1219.572, 884.3629
1220.054, 901.6149
1220.536, 901.2104
1221.018, 874.1389
1221.500, 857.4210
1221.982, 873.0415
1222.464, 896.7078
1222.946, 902.3550
1223.428, 899.8606
1223.911, 901.7041
1224.393, 903.4878
1224.875, 896.2916
1225.357, 886.4244
1225.839, 887.5648
1226.321, 898.4628
1226.803, 903.5808
1227.285, 896.6096
1227.767, 894.1237
1228.250, 908.8162
1228.732, 911.9911
1229.214, 887.9673
1229.696, 871.2330
1230.178, 880.6370
1230.660, 900.3769
1231.142, 915.2147
1231.624, 923.4122
1232.107, 917.6486
1232.589, 899.7827
1233.071, 882.5483
1233.553, 867.7540
1234.035, 867.0665
1234.517, 878.1091
1234.999, 879.0406
1235.481, 862.8275
1235.964, 850.2372
1236.446, 857.0830
1236.928, 868.5286
1237.410, 876.2343
1237.892, 881.4890
1238.374, 887.0146
1238.856, 889.1475
1239.338, 878.2543
1239.820, 862.4294
1240.302, 866.3983
1240.785, 891.1918
1241.267, 893.8481
1241.749, 863.8275
1242.231, 847.9898
1242.713, 850.9991
1243.195, 857.4789
1243.677, 863.2544
1244.159, 869.6765
1244.641, 877.9131
1245.124, 884.8329
1245.606, 886.9058
1246.088, 884.1307
##END=



