##NAMES=Hastingsite
##RRUFFID=R070250
##IDEAL CHEMISTRY=NaCa_2_(Fe^2+^_4_Fe^3+^)(Si_6_Al_2_)O_22_(OH)_2_
##LOCALITY=unnamed quarry, Dmitrievka village, Mariupol' Massif (Oktyabr'skii), Azov Sea Region, Donetsk Oblast', Ukraine
##OWNER=RRUFF
##SOURCE=Michael Scott
##DESCRIPTION=Dark green to black crystals exhibiting typical amphibole cleavage
##STATUS=The identification of this mineral is confirmed by single-crystal X-ray diffraction and chemical analysis.
##URL=rruff.info/R070250
##MEASURED CHEMISTRY=([box]_0.38_Na_0.34_K_0.28_)_Σ=1_(Ca_1.70_Na_0.30_)_Σ=2_((Fe^2+^_2.99_Mg_0.81_Mn_0.07_)_Σ=3.87_(Fe^3+^_0.75_Ti_0.22_Al_0.16_)_Σ=1.13_)_Σ=5_(Si_6.33_Al_1.67_)O_22_((OH)_1.57_F_0.37_Cl_0.06_)_Σ=2_; (OH) estimated by difference
162.9636, 7915.450
163.4457, 7962.080
163.9278, 8032.091
164.4099, 8116.044
164.8920, 8197.291
165.3741, 8275.678
165.8563, 8351.198
166.3384, 8425.531
166.8205, 8497.110
167.3026, 8562.773
167.7847, 8623.747
168.2668, 8677.455
168.7490, 8717.598
169.2311, 8741.443
169.7132, 8757.543
170.1953, 8768.245
170.6774, 8775.328
171.1595, 8780.875
171.6417, 8783.145
172.1238, 8785.593
172.6059, 8800.269
173.0880, 8838.770
173.5701, 8865.459
174.0522, 8849.482
174.5344, 8815.902
175.0165, 8802.559
175.4986, 8834.479
175.9807, 8894.340
176.4628, 8933.393
176.9449, 8939.695
177.4271, 8946.551
177.9092, 8972.581
178.3913, 9005.577
178.8734, 9026.948
179.3555, 9022.968
179.8376, 9006.085
180.3197, 9015.888
180.8019, 9071.532
181.2840, 9120.424
181.7661, 9146.794
182.2482, 9157.928
182.7303, 9159.717
183.2124, 9151.687
183.6946, 9141.487
184.1767, 9153.226
184.6588, 9201.783
185.1409, 9246.842
185.6230, 9283.784
186.1051, 9309.777
186.5873, 9318.013
187.0694, 9302.280
187.5515, 9275.552
188.0336, 9275.218
188.5157, 9325.519
188.9978, 9360.255
189.4800, 9352.963
189.9621, 9330.372
190.4442, 9321.989
190.9263, 9341.871
191.4084, 9376.331
191.8905, 9391.600
192.3727, 9376.852
192.8548, 9361.014
193.3369, 9340.656
193.8190, 9325.504
194.3011, 9326.604
194.7832, 9348.511
195.2654, 9383.274
195.7475, 9415.861
196.2296, 9455.246
196.7117, 9473.984
197.1938, 9448.742
197.6759, 9415.782
198.1581, 9408.854
198.6402, 9438.915
199.1223, 9488.093
199.6044, 9524.660
200.0865, 9548.008
200.5686, 9558.038
201.0508, 9541.813
201.5329, 9522.871
202.0150, 9523.189
202.4971, 9547.612
202.9792, 9578.976
203.4613, 9588.203
203.9435, 9562.251
204.4256, 9543.009
204.9077, 9539.597
205.3898, 9537.564
205.8719, 9524.501
206.3540, 9499.150
206.8362, 9472.386
207.3183, 9460.094
207.8004, 9469.750
208.2825, 9475.371
208.7646, 9471.431
209.2467, 9468.002
209.7289, 9474.015
210.2110, 9488.677
210.6931, 9501.771
211.1752, 9499.086
211.6573, 9473.020
212.1395, 9459.454
212.6216, 9472.850
213.1037, 9485.599
213.5858, 9478.292
214.0679, 9454.881
214.5500, 9436.410
215.0322, 9445.837
215.5143, 9488.511
215.9964, 9523.618
216.4785, 9549.549
216.9606, 9569.726
217.4427, 9583.237
217.9249, 9591.664
218.4070, 9598.438
218.8891, 9606.290
219.3712, 9615.252
219.8533, 9624.015
220.3354, 9635.250
220.8176, 9643.562
221.2997, 9647.938
221.7818, 9648.178
222.2639, 9643.560
222.7460, 9632.713
223.2281, 9616.539
223.7103, 9605.709
224.1924, 9603.438
224.6745, 9603.607
225.1566, 9605.067
225.6387, 9608.100
226.1208, 9614.521
226.6030, 9626.183
227.0851, 9640.110
227.5672, 9642.710
228.0493, 9616.129
228.5314, 9602.708
229.0135, 9619.538
229.4957, 9648.808
229.9778, 9669.546
230.4599, 9672.116
230.9420, 9663.994
231.4241, 9664.299
231.9062, 9681.601
232.3884, 9692.499
232.8705, 9691.589
233.3526, 9685.361
233.8347, 9678.087
234.3168, 9671.418
234.7989, 9666.843
235.2811, 9667.467
235.7632, 9675.826
236.2453, 9683.518
236.7274, 9683.273
237.2095, 9686.648
237.6916, 9707.208
238.1738, 9744.994
238.6559, 9781.825
239.1380, 9790.511
239.6201, 9758.623
240.1022, 9744.977
240.5843, 9770.961
241.0665, 9799.742
241.5486, 9814.586
242.0307, 9814.766
242.5128, 9808.596
242.9949, 9801.935
243.4770, 9794.224
243.9592, 9792.897
244.4413, 9803.677
244.9234, 9815.929
245.4055, 9826.672
245.8876, 9835.742
246.3697, 9844.224
246.8519, 9855.904
247.3340, 9868.756
247.8161, 9862.242
248.2982, 9815.047
248.7803, 9776.808
249.2624, 9767.103
249.7446, 9776.313
250.2267, 9789.564
250.7088, 9800.717
251.1909, 9808.810
251.6730, 9808.174
252.1551, 9787.367
252.6373, 9782.003
253.1194, 9820.792
253.6015, 9872.059
254.0836, 9900.506
254.5657, 9891.541
255.0478, 9862.592
255.5300, 9836.920
256.0121, 9811.567
256.4942, 9801.374
256.9763, 9823.818
257.4584, 9855.814
257.9406, 9881.529
258.4227, 9897.551
258.9048, 9910.687
259.3869, 9930.993
259.8690, 9959.265
260.3511, 9976.472
260.8333, 9975.640
261.3154, 9964.634
261.7975, 9944.518
262.2796, 9916.777
262.7617, 9895.013
263.2438, 9892.705
263.7260, 9906.305
264.2081, 9914.624
264.6902, 9912.537
265.1723, 9909.489
265.6544, 9912.792
266.1365, 9920.939
266.6187, 9929.060
267.1008, 9937.485
267.5829, 9943.870
268.0650, 9939.438
268.5471, 9918.542
269.0292, 9904.663
269.5114, 9929.465
269.9935, 9971.300
270.4756, 9991.157
270.9577, 9959.309
271.4398, 9917.527
271.9219, 9919.608
272.4041, 9967.044
272.8862, 10007.59
273.3683, 10013.35
273.8504, 9995.977
274.3325, 9978.984
274.8146, 9959.173
275.2968, 9947.497
275.7789, 9960.454
276.2610, 9990.477
276.7431, 10003.47
277.2252, 9979.870
277.7073, 9944.166
278.1895, 9940.709
278.6716, 9976.321
279.1537, 10004.76
279.6358, 10001.56
280.1179, 9982.106
280.6000, 9974.301
281.0822, 9985.478
281.5643, 10000.96
282.0464, 10001.97
282.5285, 9986.958
283.0106, 9977.479
283.4927, 9981.445
283.9749, 9988.470
284.4570, 9988.133
284.9391, 9980.053
285.4212, 9971.943
285.9033, 9970.040
286.3854, 9974.422
286.8676, 9978.809
287.3497, 9985.789
287.8318, 9990.310
288.3139, 9989.474
288.7960, 9984.144
289.2781, 9975.808
289.7603, 9964.452
290.2424, 9952.092
290.7245, 9947.727
291.2066, 9953.923
291.6887, 9964.230
292.1708, 9988.679
292.6530, 10012.85
293.1351, 10014.48
293.6172, 9986.232
294.0993, 9946.115
294.5814, 9926.826
295.0635, 9946.132
295.5457, 9953.145
296.0278, 9930.467
296.5099, 9908.871
296.9920, 9915.075
297.4741, 9948.722
297.9562, 9986.935
298.4384, 10006.73
298.9205, 10006.44
299.4026, 9998.619
299.8847, 9964.304
300.3668, 9941.531
300.8489, 9954.483
301.3310, 9989.279
301.8131, 10015.91
302.2953, 10014.17
302.7774, 9988.882
303.2595, 9962.738
303.7416, 9921.642
304.2237, 9902.458
304.7058, 9929.495
305.1880, 9972.443
305.6701, 9998.353
306.1522, 9994.784
306.6343, 9975.656
307.1164, 9960.451
307.5985, 9946.688
308.0807, 9946.464
308.5628, 9975.541
309.0449, 10009.71
309.5270, 10039.34
310.0091, 10061.94
310.4912, 10071.69
310.9734, 10056.36
311.4555, 10018.97
311.9376, 9993.559
312.4197, 9985.711
312.9018, 9986.253
313.3839, 9994.742
313.8661, 10006.70
314.3482, 10009.84
314.8303, 9990.660
315.3124, 9962.765
315.7945, 9951.408
316.2766, 9958.942
316.7588, 9969.384
317.2409, 9975.558
317.7230, 9978.764
318.2051, 9981.354
318.6872, 9984.429
319.1693, 9985.412
319.6515, 9979.298
320.1336, 9968.419
320.6157, 9963.901
321.0978, 9971.237
321.5799, 9983.869
322.0620, 9991.555
322.5442, 9993.928
323.0263, 9995.435
323.5084, 9998.214
323.9905, 10000.46
324.4726, 9998.491
324.9547, 9991.730
325.4369, 9985.491
325.9190, 9983.951
326.4011, 9987.545
326.8832, 9998.764
327.3653, 10029.95
327.8474, 10057.25
328.3296, 10065.60
328.8117, 10058.48
329.2938, 10046.74
329.7759, 10035.68
330.2580, 10026.70
330.7401, 10026.64
331.2223, 10048.38
331.7044, 10063.10
332.1865, 10064.99
332.6686, 10059.72
333.1507, 10051.25
333.6328, 10041.43
334.1150, 10033.87
334.5971, 10034.29
335.0792, 10045.19
335.5613, 10057.58
336.0434, 10085.79
336.5255, 10102.89
337.0077, 10086.26
337.4898, 10044.02
337.9719, 10003.28
338.4540, 9985.162
338.9361, 9987.835
339.4182, 9995.834
339.9004, 10015.74
340.3825, 10031.00
340.8646, 10031.92
341.3467, 10027.73
341.8288, 10031.19
342.3109, 10048.12
342.7931, 10069.15
343.2752, 10081.68
343.7573, 10085.65
344.2394, 10080.54
344.7215, 10053.21
345.2036, 10027.23
345.6858, 10020.36
346.1679, 10033.47
346.6500, 10058.07
347.1321, 10102.51
347.6142, 10154.19
348.0963, 10173.05
348.5785, 10146.33
349.0606, 10114.29
349.5427, 10111.00
350.0248, 10128.09
350.5069, 10141.73
350.9890, 10141.69
351.4712, 10141.57
351.9533, 10157.43
352.4354, 10185.29
352.9175, 10202.34
353.3996, 10193.90
353.8817, 10172.56
354.3639, 10174.44
354.8460, 10215.87
355.3281, 10241.46
355.8102, 10224.41
356.2923, 10191.61
356.7744, 10176.39
357.2566, 10185.26
357.7387, 10201.20
358.2208, 10206.10
358.7029, 10199.20
359.1850, 10183.68
359.6671, 10146.18
360.1493, 10114.59
360.6314, 10105.73
361.1135, 10112.44
361.5956, 10117.70
362.0777, 10111.19
362.5598, 10096.77
363.0420, 10088.20
363.5241, 10085.53
364.0062, 10089.49
364.4883, 10108.45
364.9704, 10128.13
365.4525, 10136.38
365.9347, 10130.74
366.4168, 10117.67
366.8989, 10098.46
367.3810, 10071.34
367.8631, 10066.60
368.3452, 10099.77
368.8274, 10139.37
369.3095, 10176.55
369.7916, 10207.51
370.2737, 10223.10
370.7558, 10211.46
371.2379, 10188.24
371.7201, 10179.92
372.2022, 10187.69
372.6843, 10199.62
373.1664, 10214.52
373.6485, 10228.42
374.1306, 10235.13
374.6128, 10232.63
375.0949, 10229.50
375.5770, 10231.52
376.0591, 10235.80
376.5412, 10234.19
377.0233, 10223.92
377.5055, 10216.94
377.9876, 10228.35
378.4697, 10260.66
378.9518, 10280.88
379.4339, 10284.85
379.9160, 10279.97
380.3982, 10263.99
380.8803, 10242.15
381.3624, 10227.93
381.8445, 10229.17
382.3266, 10241.08
382.8087, 10249.22
383.2909, 10250.51
383.7730, 10251.69
384.2551, 10252.83
384.7372, 10253.99
385.2193, 10256.17
385.7014, 10258.96
386.1836, 10260.07
386.6657, 10257.84
387.1478, 10252.54
387.6299, 10238.86
388.1120, 10203.09
388.5941, 10174.88
389.0763, 10165.36
389.5584, 10169.06
390.0405, 10177.92
390.5226, 10189.45
391.0047, 10202.02
391.4868, 10212.27
391.9690, 10219.56
392.4511, 10231.51
392.9332, 10260.39
393.4153, 10284.81
393.8974, 10278.47
394.3795, 10241.75
394.8617, 10214.77
395.3438, 10220.73
395.8259, 10247.65
396.3080, 10282.20
396.7901, 10324.35
397.2722, 10352.73
397.7544, 10346.74
398.2365, 10313.56
398.7186, 10295.02
399.2007, 10309.49
399.6828, 10317.93
400.1649, 10293.28
400.6471, 10255.45
401.1292, 10242.52
401.6113, 10267.11
402.0934, 10302.04
402.5755, 10306.00
403.0576, 10264.23
403.5398, 10235.66
404.0219, 10213.43
404.5040, 10208.31
404.9861, 10244.36
405.4682, 10302.58
405.9503, 10336.00
406.4325, 10311.31
406.9146, 10248.12
407.3967, 10217.86
407.8788, 10238.11
408.3609, 10255.70
408.8430, 10255.08
409.3252, 10251.48
409.8073, 10261.15
410.2894, 10285.14
410.7715, 10302.88
411.2536, 10286.84
411.7357, 10246.27
412.2179, 10232.77
412.7000, 10259.67
413.1821, 10289.65
413.6642, 10294.22
414.1463, 10283.61
414.6284, 10277.55
415.1106, 10288.04
415.5927, 10293.80
416.0748, 10268.95
416.5569, 10225.38
417.0390, 10202.49
417.5211, 10216.04
418.0033, 10246.43
418.4854, 10264.68
418.9675, 10265.60
419.4496, 10271.58
419.9317, 10290.92
420.4138, 10309.23
420.8960, 10317.41
421.3781, 10315.90
421.8602, 10308.57
422.3423, 10297.47
422.8244, 10283.43
423.3065, 10269.52
423.7887, 10248.92
424.2708, 10239.86
424.7529, 10251.73
425.2350, 10269.66
425.7171, 10284.50
426.1992, 10293.56
426.6814, 10294.84
427.1635, 10282.31
427.6456, 10257.60
428.1277, 10242.91
428.6098, 10245.65
429.0919, 10244.12
429.5741, 10219.56
430.0562, 10185.63
430.5383, 10162.49
431.0204, 10155.47
431.5025, 10158.81
431.9846, 10172.82
432.4668, 10194.09
432.9489, 10212.23
433.4310, 10226.31
433.9131, 10230.29
434.3952, 10211.76
434.8773, 10167.33
435.3595, 10139.02
435.8416, 10133.03
436.3237, 10140.31
436.8058, 10167.13
437.2879, 10202.80
437.7701, 10221.04
438.2522, 10207.41
438.7343, 10174.73
439.2164, 10156.35
439.6985, 10166.88
440.1806, 10165.61
440.6628, 10148.17
441.1449, 10123.19
441.6270, 10089.78
442.1091, 10052.72
442.5912, 10024.25
443.0733, 10013.85
443.5555, 10019.26
444.0376, 10033.22
444.5197, 10058.43
445.0018, 10084.76
445.4839, 10121.19
445.9660, 10149.96
446.4482, 10147.61
446.9303, 10107.53
447.4124, 10066.33
447.8945, 10041.71
448.3766, 10032.73
448.8587, 10043.68
449.3409, 10076.91
449.8230, 10106.19
450.3051, 10110.91
450.7872, 10092.39
451.2693, 10071.32
451.7514, 10034.72
452.2336, 10010.73
452.7157, 10018.10
453.1978, 10040.27
453.6799, 10055.14
454.1620, 10056.10
454.6441, 10048.77
455.1263, 10037.78
455.6084, 10019.12
456.0905, 10019.51
456.5726, 10062.23
457.0547, 10100.76
457.5368, 10125.62
458.0190, 10135.83
458.5011, 10127.70
458.9832, 10096.62
459.4653, 10061.41
459.9474, 10052.25
460.4295, 10069.67
460.9117, 10079.57
461.3938, 10070.09
461.8759, 10058.72
462.3580, 10060.91
462.8401, 10074.80
463.3222, 10091.88
463.8044, 10115.54
464.2865, 10137.07
464.7686, 10145.71
465.2507, 10144.60
465.7328, 10148.63
466.2149, 10166.18
466.6971, 10185.17
467.1792, 10180.13
467.6613, 10126.96
468.1434, 10101.38
468.6255, 10122.62
469.1076, 10154.12
469.5898, 10178.72
470.0719, 10193.73
470.5540, 10199.84
471.0361, 10197.45
471.5182, 10186.85
472.0003, 10164.79
472.4825, 10120.34
472.9646, 10094.75
473.4467, 10115.93
473.9288, 10145.51
474.4109, 10159.57
474.8930, 10157.42
475.3752, 10152.08
475.8573, 10153.25
476.3394, 10155.07
476.8215, 10139.56
477.3036, 10106.15
477.7857, 10094.52
478.2679, 10132.02
478.7500, 10197.65
479.2321, 10242.17
479.7142, 10265.91
480.1963, 10272.44
480.6784, 10245.83
481.1606, 10213.37
481.6427, 10202.14
482.1248, 10211.66
482.6069, 10222.09
483.0890, 10217.31
483.5711, 10202.45
484.0533, 10207.13
484.5354, 10247.21
485.0175, 10281.20
485.4996, 10303.78
485.9817, 10318.38
486.4638, 10325.19
486.9460, 10325.49
487.4281, 10325.15
487.9102, 10331.05
488.3923, 10339.75
488.8744, 10336.15
489.3565, 10315.87
489.8387, 10309.28
490.3208, 10340.39
490.8029, 10390.77
491.2850, 10421.31
491.7671, 10427.28
492.2492, 10427.90
492.7314, 10422.33
493.2135, 10418.77
493.6956, 10430.07
494.1777, 10455.30
494.6598, 10479.86
495.1419, 10492.55
495.6241, 10495.00
496.1062, 10497.95
496.5883, 10504.31
497.0704, 10506.89
497.5525, 10503.00
498.0346, 10496.62
498.5168, 10487.81
498.9989, 10478.48
499.4810, 10476.18
499.9631, 10490.25
500.4452, 10516.20
500.9273, 10536.91
501.4095, 10551.57
501.8916, 10564.71
502.3737, 10580.52
502.8558, 10594.44
503.3379, 10597.86
503.8200, 10586.94
504.3022, 10581.15
504.7843, 10593.48
505.2664, 10611.49
505.7485, 10619.26
506.2306, 10616.91
506.7127, 10616.22
507.1949, 10625.73
507.6770, 10642.30
508.1591, 10651.89
508.6412, 10644.02
509.1233, 10644.71
509.6054, 10670.05
510.0876, 10692.74
510.5697, 10684.07
511.0518, 10650.02
511.5339, 10626.44
512.0161, 10645.08
512.4982, 10688.77
512.9803, 10706.95
513.4624, 10693.87
513.9445, 10690.83
514.4266, 10723.95
514.9088, 10763.65
515.3909, 10768.90
515.8730, 10737.00
516.3551, 10707.96
516.8372, 10693.73
517.3193, 10687.68
517.8015, 10684.03
518.2836, 10682.80
518.7657, 10686.78
519.2478, 10697.93
519.7299, 10712.92
520.2120, 10724.33
520.6942, 10734.81
521.1763, 10736.17
521.6584, 10722.00
522.1405, 10705.88
522.6226, 10693.80
523.1047, 10685.83
523.5869, 10679.52
524.0690, 10671.72
524.5511, 10668.89
525.0332, 10687.68
525.5153, 10727.88
525.9974, 10755.16
526.4796, 10761.64
526.9617, 10752.32
527.4438, 10725.10
527.9259, 10682.60
528.4080, 10649.26
528.8901, 10629.00
529.3723, 10618.25
529.8544, 10616.85
530.3365, 10623.01
530.8186, 10637.02
531.3007, 10658.55
531.7828, 10676.73
532.2650, 10673.58
532.7471, 10642.53
533.2292, 10631.41
533.7113, 10664.83
534.1934, 10690.18
534.6755, 10689.24
535.1577, 10671.81
535.6398, 10648.36
536.1219, 10620.43
536.6040, 10599.69
537.0861, 10601.08
537.5682, 10618.52
538.0504, 10637.35
538.5325, 10658.36
539.0146, 10659.45
539.4967, 10614.56
539.9788, 10537.25
540.4609, 10496.09
540.9431, 10517.96
541.4252, 10534.28
541.9073, 10527.83
542.3894, 10511.91
542.8715, 10495.96
543.3536, 10482.94
543.8358, 10475.85
544.3179, 10478.41
544.8000, 10487.49
545.2821, 10490.43
545.7642, 10488.90
546.2463, 10476.55
546.7285, 10441.11
547.2106, 10401.99
547.6926, 10372.99
548.1747, 10354.46
548.6569, 10340.87
549.1390, 10329.17
549.6211, 10321.88
550.1032, 10329.65
550.5853, 10346.45
551.0674, 10344.79
551.5496, 10312.11
552.0317, 10263.37
552.5138, 10220.57
552.9959, 10179.28
553.4780, 10159.77
553.9601, 10177.08
554.4423, 10196.67
554.9244, 10210.93
555.4065, 10216.39
555.8886, 10206.93
556.3707, 10179.91
556.8528, 10148.40
557.3350, 10126.39
557.8171, 10113.55
558.2992, 10109.17
558.7813, 10116.61
559.2634, 10121.46
559.7455, 10111.85
560.2277, 10092.51
560.7098, 10080.01
561.1919, 10082.38
561.6740, 10077.66
562.1561, 10054.52
562.6382, 10023.66
563.1204, 9991.118
563.6025, 9960.966
564.0846, 9943.491
564.5667, 9947.670
565.0488, 9967.439
565.5309, 9981.087
566.0131, 9993.945
566.4952, 9987.113
566.9773, 9932.775
567.4594, 9877.219
567.9415, 9849.647
568.4236, 9847.464
568.9058, 9851.953
569.3879, 9862.002
569.8700, 9869.207
570.3521, 9861.838
570.8342, 9844.079
571.3163, 9832.058
571.7985, 9831.506
572.2806, 9828.889
572.7627, 9804.422
573.2448, 9752.705
573.7269, 9730.177
574.2090, 9770.235
574.6912, 9797.819
575.1733, 9784.477
575.6554, 9754.063
576.1375, 9733.510
576.6196, 9728.711
577.1017, 9727.723
577.5839, 9719.407
578.0660, 9706.219
578.5481, 9696.760
579.0302, 9691.562
579.5123, 9686.199
579.9944, 9677.108
580.4766, 9668.091
580.9587, 9667.828
581.4408, 9678.612
581.9229, 9686.674
582.4050, 9688.508
582.8871, 9688.500
583.3693, 9690.673
583.8514, 9693.184
584.3335, 9689.884
584.8156, 9677.880
585.2977, 9665.397
585.7798, 9667.852
586.2620, 9687.117
586.7441, 9699.290
587.2262, 9702.339
587.7083, 9699.748
588.1904, 9697.030
588.6725, 9689.119
589.1547, 9664.259
589.6368, 9612.551
590.1189, 9565.824
590.6010, 9533.741
591.0831, 9518.240
591.5652, 9531.183
592.0474, 9567.170
592.5295, 9596.856
593.0116, 9600.407
593.4937, 9584.796
593.9758, 9570.434
594.4579, 9554.896
594.9401, 9546.557
595.4222, 9554.054
595.9043, 9561.813
596.3864, 9560.607
596.8685, 9553.505
597.3506, 9548.980
597.8328, 9550.297
598.3149, 9554.913
598.7970, 9565.237
599.2791, 9576.692
599.7612, 9574.083
600.2433, 9554.409
600.7255, 9536.352
601.2076, 9536.981
601.6897, 9553.253
602.1718, 9560.292
602.6539, 9552.831
603.1360, 9542.772
603.6182, 9525.056
604.1003, 9509.778
604.5824, 9504.223
605.0645, 9508.309
605.5466, 9519.652
606.0287, 9544.509
606.5109, 9565.564
606.9930, 9548.420
607.4751, 9498.800
607.9572, 9463.647
608.4393, 9456.065
608.9214, 9459.616
609.4036, 9460.028
609.8857, 9457.245
610.3678, 9448.135
610.8499, 9414.196
611.3320, 9397.880
611.8141, 9422.067
612.2963, 9460.361
612.7784, 9491.628
613.2605, 9510.108
613.7426, 9512.454
614.2247, 9488.368
614.7068, 9452.776
615.1890, 9449.211
615.6711, 9479.798
616.1532, 9491.974
616.6353, 9462.869
617.1174, 9424.005
617.5995, 9412.426
618.0817, 9428.799
618.5638, 9437.390
619.0459, 9428.349
619.5280, 9421.136
620.0101, 9423.349
620.4922, 9431.578
620.9744, 9446.915
621.4565, 9466.157
621.9386, 9472.437
622.4207, 9442.515
622.9028, 9390.914
623.3849, 9381.822
623.8671, 9424.838
624.3492, 9452.890
624.8313, 9436.229
625.3134, 9407.010
625.7955, 9406.180
626.2776, 9431.826
626.7598, 9450.680
627.2419, 9448.747
627.7240, 9449.185
628.2061, 9476.415
628.6882, 9508.172
629.1703, 9504.525
629.6525, 9460.549
630.1346, 9414.254
630.6167, 9405.015
631.0988, 9425.159
631.5809, 9429.744
632.0630, 9413.457
632.5452, 9403.103
633.0273, 9413.658
633.5094, 9426.818
633.9915, 9415.745
634.4736, 9382.355
634.9557, 9368.503
635.4379, 9409.024
635.9200, 9443.282
636.4021, 9427.611
636.8842, 9386.916
637.3663, 9358.024
637.8484, 9350.968
638.3306, 9359.422
638.8127, 9381.257
639.2948, 9412.429
639.7769, 9427.121
640.2590, 9422.734
640.7411, 9410.614
641.2233, 9387.896
641.7054, 9364.557
642.1875, 9350.905
642.6696, 9346.304
643.1517, 9343.950
643.6339, 9345.063
644.1160, 9345.277
644.5981, 9342.607
645.0802, 9337.322
645.5623, 9325.404
646.0444, 9308.509
646.5266, 9302.958
647.0087, 9330.133
647.4908, 9377.704
647.9729, 9378.639
648.4550, 9314.830
648.9371, 9278.956
649.4193, 9314.135
649.9014, 9364.168
650.3835, 9368.517
650.8656, 9335.131
651.3477, 9321.035
651.8298, 9357.895
652.3120, 9390.827
652.7941, 9386.114
653.2762, 9366.093
653.7583, 9361.494
654.2404, 9376.253
654.7225, 9394.274
655.2047, 9403.056
655.6868, 9404.526
656.1689, 9404.673
656.6510, 9403.538
657.1331, 9400.827
657.6152, 9396.577
658.0974, 9390.638
658.5795, 9383.970
659.0616, 9375.813
659.5437, 9362.161
660.0258, 9328.082
660.5079, 9306.522
660.9901, 9317.572
661.4722, 9340.993
661.9543, 9357.600
662.4364, 9364.826
662.9185, 9367.261
663.4006, 9367.130
663.8828, 9366.398
664.3649, 9371.107
664.8470, 9381.625
665.3291, 9384.795
665.8112, 9376.495
666.2933, 9365.192
666.7755, 9352.970
667.2576, 9342.979
667.7397, 9348.196
668.2218, 9389.580
668.7039, 9412.063
669.1860, 9380.921
669.6682, 9346.808
670.1503, 9358.769
670.6324, 9403.020
671.1145, 9430.935
671.5966, 9417.210
672.0787, 9387.525
672.5609, 9375.480
673.0430, 9379.607
673.5251, 9394.815
674.0072, 9425.239
674.4893, 9437.258
674.9714, 9401.814
675.4536, 9341.483
675.9357, 9316.291
676.4178, 9345.828
676.8999, 9367.833
677.3820, 9376.783
677.8641, 9381.958
678.3463, 9390.630
678.8284, 9398.010
679.3105, 9393.128
679.7926, 9372.540
680.2747, 9352.252
680.7568, 9352.869
681.2390, 9363.695
681.7211, 9357.464
682.2032, 9333.913
682.6853, 9305.253
683.1674, 9272.122
683.6495, 9252.729
684.1317, 9283.174
684.6138, 9383.629
685.0959, 9426.213
685.5780, 9354.915
686.0601, 9292.796
686.5422, 9274.824
687.0244, 9276.973
687.5065, 9275.441
687.9886, 9266.626
688.4707, 9256.685
688.9528, 9251.345
689.4349, 9244.946
689.9171, 9222.752
690.3992, 9194.146
690.8813, 9192.382
691.3634, 9225.746
691.8455, 9261.218
692.3276, 9264.177
692.8098, 9239.120
693.2919, 9225.691
693.7740, 9227.780
694.2561, 9233.033
694.7382, 9244.471
695.2203, 9253.619
695.7025, 9254.017
696.1846, 9247.132
696.6667, 9238.796
697.1488, 9229.670
697.6309, 9220.558
698.1130, 9204.774
698.5952, 9193.344
699.0773, 9206.701
699.5594, 9240.562
700.0415, 9268.444
700.5236, 9273.843
701.0057, 9265.285
701.4879, 9259.481
701.9700, 9256.575
702.4521, 9252.658
702.9342, 9246.074
703.4163, 9241.771
703.8984, 9242.297
704.3806, 9247.313
704.8627, 9257.259
705.3448, 9276.958
705.8269, 9287.526
706.3090, 9287.336
706.7911, 9276.445
707.2733, 9246.718
707.7554, 9209.067
708.2375, 9177.822
708.7196, 9157.958
709.2017, 9153.843
709.6838, 9180.556
710.1660, 9223.472
710.6481, 9242.476
711.1302, 9238.502
711.6123, 9238.442
712.0944, 9253.449
712.5765, 9268.557
713.0587, 9263.377
713.5408, 9236.446
714.0229, 9220.567
714.5050, 9222.287
714.9871, 9226.571
715.4692, 9238.933
715.9514, 9246.791
716.4335, 9230.721
716.9156, 9198.321
717.3977, 9185.963
717.8798, 9220.718
718.3619, 9262.464
718.8441, 9282.431
719.3262, 9286.481
719.8083, 9279.451
720.2904, 9265.081
720.7725, 9257.463
721.2546, 9267.290
721.7368, 9284.920
722.2189, 9285.264
722.7010, 9264.963
723.1831, 9250.906
723.6652, 9247.474
724.1473, 9245.878
724.6295, 9245.356
725.1116, 9241.686
725.5937, 9225.898
726.0758, 9194.404
726.5579, 9163.483
727.0400, 9118.743
727.5222, 9092.814
728.0043, 9123.401
728.4864, 9179.048
728.9685, 9209.354
729.4506, 9201.141
729.9327, 9177.569
730.4149, 9152.167
730.8970, 9129.259
731.3791, 9118.079
731.8612, 9118.494
732.3433, 9135.870
732.8254, 9176.244
733.3076, 9203.561
733.7897, 9175.958
734.2718, 9099.017
734.7539, 9044.159
735.2360, 9002.834
735.7181, 8998.717
736.2003, 9072.550
736.6824, 9147.486
737.1645, 9174.521
737.6466, 9164.395
738.1287, 9152.056
738.6108, 9148.167
739.0930, 9140.007
739.5751, 9118.075
740.0572, 9089.604
740.5393, 9054.245
741.0214, 9019.923
741.5035, 9011.406
741.9857, 9040.602
742.4678, 9081.291
742.9499, 9096.476
743.4320, 9087.687
743.9141, 9077.306
744.3962, 9066.226
744.8784, 9047.578
745.3605, 9010.613
745.8426, 8976.942
746.3247, 8980.416
746.8068, 9027.096
747.2889, 9054.135
747.7711, 9054.007
748.2532, 9045.518
748.7353, 9016.433
749.2174, 8993.228
749.6995, 9007.971
750.1816, 9052.846
750.6638, 9087.351
751.1459, 9089.734
751.6280, 9080.028
752.1101, 9079.065
752.5922, 9078.311
753.0743, 9055.584
753.5565, 9012.767
754.0386, 8977.327
754.5207, 8965.431
755.0028, 8970.237
755.4849, 8982.794
755.9670, 9005.552
756.4492, 9010.902
756.9313, 8991.916
757.4134, 8970.829
757.8955, 8948.239
758.3776, 8935.390
758.8597, 8957.643
759.3419, 9019.866
759.8240, 9059.878
760.3061, 9063.721
760.7882, 9055.352
761.2703, 9035.929
761.7524, 9013.964
762.2346, 9000.521
762.7167, 8994.130
763.1988, 8979.350
763.6809, 8937.391
764.1630, 8901.263
764.6451, 8924.217
765.1273, 8980.006
765.6094, 9000.851
766.0915, 8979.641
766.5736, 8949.717
767.0557, 8930.757
767.5378, 8919.643
768.0200, 8909.130
768.5021, 8898.146
768.9842, 8895.533
769.4663, 8906.400
769.9484, 8915.376
770.4305, 8920.531
770.9127, 8916.840
771.3948, 8891.396
771.8769, 8841.339
772.3590, 8809.189
772.8411, 8815.983
773.3232, 8822.326
773.8054, 8810.440
774.2875, 8792.207
774.7696, 8778.157
775.2517, 8770.761
775.7338, 8772.470
776.2159, 8791.426
776.6981, 8805.519
777.1802, 8780.163
777.6623, 8733.376
778.1444, 8706.893
778.6265, 8704.447
779.1086, 8709.255
779.5908, 8712.249
780.0729, 8715.107
780.5550, 8720.731
781.0371, 8729.118
781.5192, 8742.921
782.0013, 8770.624
782.4835, 8780.178
782.9656, 8748.623
783.4477, 8703.255
783.9298, 8680.716
784.4119, 8681.642
784.8940, 8674.495
785.3762, 8646.422
785.8583, 8625.162
786.3404, 8619.524
786.8225, 8622.664
787.3046, 8631.866
787.7867, 8644.286
788.2689, 8656.434
788.7510, 8671.258
789.2331, 8671.006
789.7152, 8625.027
790.1973, 8562.294
790.6794, 8530.379
791.1616, 8527.157
791.6437, 8524.100
792.1258, 8508.838
792.6079, 8495.388
793.0900, 8507.785
793.5721, 8541.403
794.0543, 8546.547
794.5364, 8518.195
795.0185, 8493.688
795.5006, 8486.137
795.9827, 8479.767
796.4648, 8453.728
796.9470, 8412.170
797.4291, 8400.657
797.9112, 8457.849
798.3933, 8489.686
798.8754, 8473.328
799.3575, 8449.209
799.8397, 8435.177
800.3218, 8431.655
800.8039, 8439.704
801.2860, 8462.344
801.7681, 8476.547
802.2502, 8465.853
802.7324, 8445.962
803.2145, 8431.956
803.6966, 8419.315
804.1787, 8391.501
804.6608, 8348.394
805.1429, 8318.691
805.6251, 8332.216
806.1072, 8367.397
806.5893, 8374.806
807.0714, 8358.941
807.5535, 8357.905
808.0356, 8379.594
808.5178, 8390.124
808.9999, 8363.609
809.4820, 8317.962
809.9641, 8301.015
810.4462, 8325.186
810.9283, 8331.021
811.4105, 8301.273
811.8926, 8281.339
812.3747, 8294.438
812.8568, 8322.508
813.3389, 8349.308
813.8210, 8374.391
814.3032, 8386.133
814.7853, 8378.341
815.2674, 8362.564
815.7495, 8339.931
816.2316, 8313.241
816.7137, 8277.712
817.1959, 8240.452
817.6780, 8222.588
818.1601, 8237.334
818.6422, 8252.234
819.1243, 8230.353
819.6064, 8196.159
820.0886, 8189.835
820.5707, 8206.808
821.0528, 8224.450
821.5349, 8234.241
822.0170, 8233.608
822.4991, 8215.847
822.9813, 8187.440
823.4634, 8179.688
823.9455, 8193.995
824.4276, 8195.915
824.9097, 8174.131
825.3918, 8156.199
825.8740, 8164.743
826.3561, 8191.638
826.8382, 8209.738
827.3203, 8217.601
827.8024, 8219.956
828.2845, 8215.424
828.7667, 8206.933
829.2488, 8190.416
829.7309, 8173.599
830.2130, 8167.687
830.6951, 8173.155
831.1772, 8174.534
831.6594, 8162.175
832.1415, 8152.307
832.6236, 8152.409
833.1057, 8158.050
833.5878, 8170.710
834.0699, 8184.562
834.5521, 8182.302
835.0342, 8153.129
835.5163, 8123.753
835.9984, 8123.544
836.4805, 8136.664
836.9626, 8137.842
837.4448, 8128.021
837.9269, 8114.888
838.4090, 8101.593
838.8911, 8094.035
839.3732, 8102.213
839.8553, 8117.962
840.3375, 8102.971
840.8196, 8056.126
841.3017, 8042.396
841.7838, 8080.354
842.2659, 8115.836
842.7480, 8108.399
843.2302, 8078.312
843.7123, 8078.968
844.1944, 8125.545
844.6765, 8152.235
845.1586, 8154.609
845.6407, 8143.695
846.1229, 8110.040
846.6050, 8073.721
847.0871, 8052.707
847.5692, 8047.056
848.0513, 8052.303
848.5334, 8087.574
849.0156, 8106.951
849.4977, 8082.300
849.9798, 8051.183
850.4619, 8042.025
850.9440, 8049.845
851.4261, 8062.968
851.9083, 8079.202
852.3904, 8079.638
852.8725, 8028.306
853.3546, 7974.829
853.8367, 7986.773
854.3188, 8032.663
854.8010, 8038.924
855.2831, 7997.038
855.7652, 7962.645
856.2473, 7979.294
856.7294, 8018.354
857.2115, 8025.915
857.6937, 8010.950
858.1758, 8019.133
858.6579, 8053.548
859.1400, 8072.883
859.6221, 8055.990
860.1042, 8030.115
860.5864, 8037.865
861.0685, 8077.034
861.5506, 8085.269
862.0327, 8055.607
862.5148, 8019.163
862.9969, 7970.833
863.4791, 7940.660
863.9612, 7961.964
864.4433, 8017.563
864.9254, 8044.678
865.4075, 8029.522
865.8896, 8014.598
866.3718, 7988.085
866.8539, 7975.770
867.3360, 8011.847
867.8181, 8050.793
868.3002, 8028.766
868.7823, 7948.121
869.2645, 7895.349
869.7466, 7912.613
870.2287, 7935.594
870.7108, 7940.005
871.1929, 7939.637
871.6750, 7948.869
872.1572, 7963.321
872.6393, 7966.670
873.1214, 7952.643
873.6035, 7948.669
874.0856, 7991.133
874.5677, 8040.309
875.0499, 8051.996
875.5320, 8035.523
876.0141, 8003.592
876.4962, 7964.848
876.9783, 7945.533
877.4604, 7967.875
877.9426, 8000.362
878.4247, 7982.144
878.9068, 7930.691
879.3889, 7918.399
879.8710, 7946.214
880.3531, 7958.608
880.8353, 7931.951
881.3174, 7903.028
881.7995, 7920.764
882.2816, 7973.074
882.7637, 7975.802
883.2458, 7919.157
883.7280, 7888.698
884.2101, 7905.330
884.6922, 7926.366
885.1743, 7923.680
885.6564, 7908.499
886.1385, 7907.390
886.6207, 7928.447
887.1028, 7925.672
887.5849, 7875.610
888.0670, 7839.771
888.5491, 7844.387
889.0313, 7860.657
889.5134, 7861.421
889.9955, 7851.719
890.4776, 7855.479
890.9597, 7889.209
891.4418, 7909.294
891.9240, 7904.547
892.4061, 7890.577
892.8882, 7869.672
893.3703, 7847.779
893.8524, 7832.576
894.3345, 7824.686
894.8167, 7817.834
895.2988, 7807.100
895.7809, 7799.782
896.2630, 7798.192
896.7451, 7803.144
897.2272, 7825.073
897.7094, 7852.841
898.1915, 7855.124
898.6736, 7820.488
899.1557, 7789.240
899.6378, 7804.122
900.1199, 7831.883
900.6021, 7826.304
901.0842, 7803.107
901.5663, 7800.849
902.0484, 7822.080
902.5305, 7837.751
903.0126, 7829.329
903.4948, 7809.302
903.9769, 7791.701
904.4590, 7778.008
904.9411, 7776.264
905.4232, 7784.812
905.9053, 7791.367
906.3875, 7791.849
906.8696, 7781.929
907.3517, 7753.502
907.8338, 7718.092
908.3159, 7717.534
908.7980, 7752.120
909.2802, 7776.483
909.7623, 7784.607
910.2444, 7794.788
910.7265, 7819.062
911.2086, 7839.264
911.6907, 7825.741
912.1729, 7779.122
912.6550, 7751.390
913.1371, 7746.713
913.6192, 7747.598
914.1013, 7751.379
914.5834, 7760.688
915.0656, 7785.264
915.5477, 7811.522
916.0298, 7805.745
916.5119, 7755.942
916.9940, 7718.828
917.4761, 7694.866
917.9583, 7683.055
918.4404, 7688.667
918.9225, 7701.441
919.4046, 7720.385
919.8867, 7740.267
920.3688, 7740.949
920.8510, 7706.442
921.3331, 7685.092
921.8152, 7691.584
922.2973, 7703.642
922.7794, 7720.085
923.2615, 7730.640
923.7437, 7717.940
924.2258, 7685.370
924.7079, 7663.617
925.1900, 7664.564
925.6721, 7673.195
926.1542, 7695.048
926.6364, 7711.306
927.1185, 7700.539
927.6006, 7675.797
928.0827, 7658.724
928.5648, 7654.552
929.0469, 7659.317
929.5291, 7682.879
930.0112, 7700.604
930.4933, 7688.997
930.9754, 7664.413
931.4575, 7647.768
931.9396, 7636.968
932.4218, 7616.309
932.9039, 7580.330
933.3860, 7550.452
933.8681, 7546.336
934.3502, 7557.722
934.8323, 7574.706
935.3145, 7595.953
935.7966, 7626.012
936.2787, 7659.262
936.7608, 7668.986
937.2429, 7639.831
937.7250, 7600.489
938.2072, 7585.273
938.6893, 7586.093
939.1714, 7583.057
939.6535, 7578.759
940.1356, 7592.449
940.6177, 7624.804
941.0999, 7636.502
941.5820, 7596.368
942.0641, 7538.384
942.5462, 7525.384
943.0283, 7549.580
943.5104, 7577.643
943.9926, 7606.276
944.4747, 7610.205
944.9568, 7581.191
945.4389, 7541.341
945.9210, 7508.340
946.4031, 7484.567
946.8853, 7478.461
947.3674, 7489.965
947.8495, 7506.956
948.3316, 7529.893
948.8137, 7542.145
949.2958, 7535.469
949.7780, 7525.182
950.2601, 7529.342
950.7422, 7544.062
951.2243, 7547.392
951.7064, 7536.938
952.1885, 7531.935
952.6707, 7537.093
953.1528, 7535.593
953.6349, 7516.127
954.1170, 7493.400
954.5991, 7486.961
955.0812, 7496.356
955.5634, 7512.579
956.0455, 7542.713
956.5276, 7556.600
957.0097, 7544.195
957.4918, 7528.766
957.9739, 7524.117
958.4561, 7522.112
958.9382, 7506.581
959.4203, 7475.046
959.9024, 7466.246
960.3845, 7498.132
960.8666, 7516.398
961.3488, 7505.033
961.8309, 7489.485
962.3130, 7485.936
962.7951, 7488.231
963.2772, 7484.051
963.7593, 7472.088
964.2415, 7460.593
964.7236, 7445.890
965.2057, 7437.006
965.6878, 7441.757
966.1699, 7446.614
966.6520, 7440.633
967.1342, 7428.908
967.6163, 7424.004
968.0984, 7429.260
968.5805, 7429.021
969.0626, 7419.613
969.5447, 7408.529
970.0269, 7385.215
970.5090, 7372.151
970.9911, 7402.288
971.4732, 7454.058
971.9553, 7466.271
972.4374, 7418.094
972.9196, 7385.150
973.4017, 7383.611
973.8838, 7391.176
974.3659, 7414.755
974.8480, 7431.834
975.3301, 7417.116
975.8123, 7379.532
976.2944, 7347.377
976.7765, 7321.338
977.2586, 7313.485
977.7407, 7340.480
978.2228, 7369.312
978.7050, 7391.664
979.1871, 7404.147
979.6692, 7397.621
980.1513, 7378.744
980.6334, 7370.794
981.1155, 7383.166
981.5977, 7392.746
982.0798, 7397.935
982.5619, 7392.525
983.0440, 7362.656
983.5261, 7328.236
984.0082, 7307.373
984.4904, 7302.117
984.9725, 7313.540
985.4546, 7351.877
985.9367, 7377.052
986.4188, 7363.405
986.9009, 7345.333
987.3831, 7343.928
987.8652, 7348.645
988.3473, 7343.589
988.8294, 7331.253
989.3115, 7330.599
989.7936, 7355.854
990.2758, 7367.826
990.7579, 7333.642
991.2400, 7299.351
991.7221, 7297.359
992.2042, 7310.545
992.6863, 7316.991
993.1685, 7315.962
993.6506, 7319.306
994.1327, 7334.461
994.6148, 7343.874
995.0969, 7336.068
995.5790, 7323.799
996.0612, 7313.777
996.5433, 7305.736
997.0254, 7300.435
997.5075, 7296.316
997.9896, 7286.822
998.4717, 7266.217
998.9539, 7250.673
999.4360, 7249.174
999.9181, 7253.634
1000.400, 7261.546
1000.882, 7270.061
1001.364, 7275.898
1001.847, 7279.230
1002.329, 7282.284
1002.811, 7285.176
1003.293, 7289.931
1003.775, 7307.457
1004.257, 7316.453
1004.739, 7293.792
1005.221, 7259.369
1005.703, 7235.240
1006.186, 7224.434
1006.668, 7225.075
1007.150, 7241.588
1007.632, 7252.539
1008.114, 7249.866
1008.596, 7236.562
1009.078, 7199.308
1009.560, 7162.870
1010.043, 7163.669
1010.525, 7193.911
1011.007, 7210.144
1011.489, 7192.850
1011.971, 7184.270
1012.453, 7216.626
1012.935, 7247.130
1013.417, 7249.984
1013.899, 7236.570
1014.382, 7211.733
1014.864, 7183.864
1015.346, 7174.890
1015.828, 7196.209
1016.310, 7213.199
1016.792, 7206.534
1017.274, 7199.254
1017.756, 7208.827
1018.239, 7220.214
1018.721, 7210.530
1019.203, 7189.204
1019.685, 7191.152
1020.167, 7231.813
1020.649, 7257.717
1021.131, 7243.191
1021.613, 7220.424
1022.095, 7196.735
1022.578, 7177.991
1023.060, 7171.112
1023.542, 7172.758
1024.024, 7173.690
1024.506, 7171.599
1024.988, 7173.006
1025.470, 7186.048
1025.952, 7194.410
1026.435, 7194.605
1026.917, 7185.324
1027.399, 7156.839
1027.881, 7120.820
1028.363, 7100.622
1028.845, 7100.006
1029.327, 7109.153
1029.809, 7138.407
1030.292, 7160.392
1030.774, 7165.818
1031.256, 7163.704
1031.738, 7159.735
1032.220, 7152.784
1032.702, 7136.126
1033.184, 7107.422
1033.666, 7097.129
1034.148, 7129.979
1034.630, 7149.744
1035.113, 7142.049
1035.595, 7124.826
1036.077, 7098.199
1036.559, 7073.261
1037.041, 7069.260
1037.523, 7087.124
1038.005, 7098.493
1038.487, 7104.670
1038.970, 7101.681
1039.452, 7079.788
1039.934, 7060.850
1040.416, 7051.031
1040.898, 7052.190
1041.380, 7072.612
1041.862, 7109.082
1042.344, 7125.085
1042.826, 7108.109
1043.309, 7098.613
1043.791, 7105.819
1044.273, 7104.851
1044.755, 7078.434
1045.237, 7052.142
1045.719, 7056.585
1046.201, 7082.067
1046.683, 7081.770
1047.166, 7044.320
1047.648, 7019.276
1048.130, 7007.383
1048.612, 7008.627
1049.094, 7028.772
1049.576, 7047.222
1050.058, 7045.639
1050.540, 7030.720
1051.022, 7021.049
1051.505, 7017.832
1051.987, 7003.117
1052.469, 6970.718
1052.951, 6973.024
1053.433, 7030.407
1053.915, 7078.277
1054.397, 7071.031
1054.879, 7036.376
1055.361, 7025.604
1055.844, 7036.167
1056.326, 7035.653
1056.808, 7024.136
1057.290, 7021.912
1057.772, 7032.553
1058.254, 7042.478
1058.736, 7044.742
1059.218, 7040.880
1059.701, 7031.812
1060.183, 7019.136
1060.665, 7010.788
1061.147, 7004.296
1061.629, 6979.675
1062.111, 6939.025
1062.593, 6919.162
1063.075, 6933.580
1063.557, 6954.341
1064.040, 6953.582
1064.522, 6944.374
1065.004, 6952.568
1065.486, 6970.386
1065.968, 6981.614
1066.450, 6984.211
1066.932, 6973.549
1067.414, 6950.901
1067.896, 6931.898
1068.379, 6927.085
1068.861, 6930.847
1069.343, 6945.635
1069.825, 6958.415
1070.307, 6941.971
1070.789, 6912.898
1071.271, 6908.310
1071.753, 6928.263
1072.236, 6942.405
1072.718, 6935.873
1073.200, 6930.740
1073.682, 6954.656
1074.164, 6974.250
1074.646, 6950.681
1075.128, 6914.477
1075.610, 6905.803
1076.093, 6918.162
1076.575, 6923.223
1077.057, 6913.407
1077.539, 6900.004
1078.021, 6882.958
1078.503, 6869.963
1078.985, 6865.842
1079.467, 6865.795
1079.949, 6869.761
1080.432, 6873.391
1080.914, 6866.475
1081.396, 6849.177
1081.878, 6844.953
1082.360, 6874.207
1082.842, 6891.900
1083.324, 6886.155
1083.806, 6873.593
1084.288, 6859.060
1084.771, 6843.309
1085.253, 6820.217
1085.735, 6795.489
1086.217, 6799.268
1086.699, 6849.900
1087.181, 6879.833
1087.663, 6881.610
1088.145, 6877.766
1088.628, 6875.771
1089.110, 6865.783
1089.592, 6836.992
1090.074, 6799.225
1090.556, 6772.152
1091.038, 6755.555
1091.520, 6761.022
1092.002, 6794.958
1092.484, 6806.157
1092.967, 6782.464
1093.449, 6762.399
1093.931, 6765.830
1094.413, 6780.019
1094.895, 6790.292
1095.377, 6796.102
1095.859, 6791.944
1096.341, 6780.113
1096.823, 6779.052
1097.306, 6789.604
1097.788, 6807.463
1098.270, 6830.028
1098.752, 6840.938
1099.234, 6825.044
1099.716, 6799.359
1100.198, 6789.793
1100.680, 6789.525
1101.163, 6786.410
1101.645, 6780.149
1102.127, 6768.803
1102.609, 6754.814
1103.091, 6750.443
1103.573, 6762.295
1104.055, 6769.507
1104.537, 6748.644
1105.020, 6721.998
1105.502, 6699.840
1105.984, 6691.666
1106.466, 6730.936
1106.948, 6786.215
1107.430, 6777.550
1107.912, 6693.050
1108.394, 6633.366
1108.876, 6657.187
1109.359, 6686.164
1109.841, 6695.494
1110.323, 6696.391
1110.805, 6693.770
1111.287, 6687.796
1111.769, 6675.465
1112.251, 6658.974
1112.733, 6649.335
1113.215, 6649.867
1113.698, 6651.625
1114.180, 6655.051
1114.662, 6658.599
1115.144, 6663.561
1115.626, 6666.005
1116.108, 6661.192
1116.590, 6654.290
1117.072, 6655.330
1117.555, 6664.362
1118.037, 6675.701
1118.519, 6694.743
1119.001, 6678.852
1119.483, 6615.268
1119.965, 6569.960
1120.447, 6572.598
1120.929, 6589.410
1121.411, 6584.128
1121.894, 6570.951
1122.376, 6595.347
1122.858, 6646.063
1123.340, 6661.222
1123.822, 6644.520
1124.304, 6630.264
1124.786, 6626.282
1125.268, 6624.398
1125.750, 6620.204
1126.233, 6612.797
1126.715, 6596.691
1127.197, 6580.703
1127.679, 6571.797
1128.161, 6574.707
1128.643, 6615.917
1129.125, 6671.450
1129.607, 6670.713
1130.090, 6601.745
1130.572, 6544.238
1131.054, 6544.326
1131.536, 6554.106
1132.018, 6556.765
1132.500, 6551.536
1132.982, 6526.938
1133.464, 6502.124
1133.947, 6503.286
1134.429, 6525.170
1134.911, 6540.333
1135.393, 6544.365
1135.875, 6545.542
1136.357, 6546.196
1136.839, 6541.277
1137.321, 6530.049
1137.803, 6511.607
1138.286, 6475.150
1138.768, 6444.068
1139.250, 6458.206
1139.732, 6510.636
1140.214, 6535.093
1140.696, 6528.460
1141.178, 6515.165
1141.660, 6495.139
1142.142, 6488.792
1142.625, 6503.422
1143.107, 6521.105
1143.589, 6528.846
1144.071, 6526.664
1144.553, 6509.227
1145.035, 6483.727
1145.517, 6477.318
1145.999, 6481.075
1146.482, 6459.080
1146.964, 6416.677
1147.446, 6395.760
1147.928, 6411.418
1148.410, 6440.329
1148.892, 6472.848
1149.374, 6498.632
1149.856, 6505.618
1150.339, 6503.782
1150.821, 6506.771
1151.303, 6505.428
1151.785, 6477.634
1152.267, 6430.370
1152.749, 6399.333
1153.231, 6393.694
1153.713, 6402.712
1154.195, 6440.340
1154.677, 6469.498
1155.160, 6479.106
1155.642, 6476.637
1156.124, 6463.753
1156.606, 6444.498
1157.088, 6423.336
1157.570, 6400.870
1158.052, 6384.860
1158.534, 6377.324
1159.017, 6364.600
1159.499, 6342.571
1159.981, 6341.064
1160.463, 6372.638
1160.945, 6392.535
1161.427, 6364.585
1161.909, 6325.993
1162.391, 6348.445
1162.874, 6408.358
1163.356, 6427.340
1163.838, 6414.907
1164.320, 6395.796
1164.802, 6375.779
1165.284, 6360.008
1165.766, 6350.169
1166.248, 6344.688
1166.730, 6340.200
1167.213, 6345.657
1167.695, 6377.490
1168.177, 6413.140
1168.659, 6443.163
1169.141, 6456.885
1169.623, 6430.277
1170.105, 6379.247
1170.587, 6349.325
1171.069, 6349.508
1171.552, 6362.255
1172.034, 6405.532
1172.516, 6428.588
1172.998, 6406.856
1173.480, 6389.019
1173.962, 6404.905
1174.444, 6419.813
1174.926, 6392.269
1175.409, 6338.627
1175.891, 6318.111
1176.373, 6333.737
1176.855, 6339.410
1177.337, 6334.930
1177.819, 6328.271
1178.301, 6321.178
1178.783, 6322.929
1179.266, 6338.079
1179.748, 6353.713
1180.230, 6358.637
1180.712, 6351.035
1181.194, 6313.810
1181.676, 6271.227
1182.158, 6269.863
1182.640, 6295.440
1183.122, 6317.455
1183.604, 6329.229
1184.087, 6333.005
1184.569, 6329.457
1185.051, 6318.809
1185.533, 6292.998
1186.015, 6271.286
1186.497, 6265.803
1186.979, 6262.844
1187.461, 6246.426
1187.944, 6231.006
1188.426, 6244.501
1188.908, 6279.160
1189.390, 6284.133
1189.872, 6242.827
1190.354, 6235.052
1190.836, 6272.854
1191.318, 6286.658
1191.801, 6256.615
1192.283, 6234.716
1192.765, 6251.447
1193.247, 6283.619
1193.729, 6307.441
1194.211, 6317.180
1194.693, 6289.060
1195.175, 6239.199
1195.657, 6203.708
1196.140, 6186.986
1196.622, 6198.958
1197.104, 6233.912
1197.586, 6263.225
1198.068, 6275.135
1198.550, 6271.167
1199.032, 6235.230
1199.514, 6205.812
1199.996, 6204.308
1200.479, 6218.385
1200.961, 6252.796
1201.443, 6287.431
1201.925, 6290.814
1202.407, 6265.856
1202.889, 6247.315
1203.371, 6234.235
1203.853, 6233.099
1204.336, 6251.484
1204.818, 6255.416
1205.300, 6234.523
1205.782, 6215.337
1206.264, 6212.461
1206.746, 6214.459
1207.228, 6206.020
1207.710, 6195.896
1208.193, 6215.328
1208.675, 6247.958
1209.157, 6235.483
1209.639, 6195.790
1210.121, 6191.306
1210.603, 6224.116
1211.085, 6252.971
1211.567, 6261.775
1212.049, 6255.476
1212.531, 6219.875
1213.014, 6193.495
1213.496, 6212.218
1213.978, 6230.108
1214.460, 6201.882
1214.942, 6164.150
1215.424, 6169.580
1215.906, 6205.953
1216.388, 6223.072
1216.871, 6219.104
1217.353, 6204.445
1217.835, 6173.585
1218.317, 6156.281
1218.799, 6158.098
1219.281, 6164.888
1219.763, 6171.530
1220.245, 6170.080
1220.728, 6150.644
1221.210, 6129.679
1221.692, 6144.875
1222.174, 6174.418
1222.656, 6168.068
1223.138, 6143.067
1223.620, 6134.455
1224.102, 6143.194
1224.584, 6164.423
1225.067, 6193.053
1225.549, 6191.479
1226.031, 6110.269
1226.513, 6062.554
1226.995, 6123.752
1227.477, 6177.558
1227.959, 6165.615
1228.441, 6134.208
1228.923, 6112.742
1229.406, 6100.186
1229.888, 6095.596
1230.370, 6098.305
1230.852, 6101.084
1231.334, 6103.806
1231.816, 6111.769
1232.298, 6124.743
1232.780, 6129.768
1233.263, 6124.109
1233.745, 6118.111
1234.227, 6117.829
1234.709, 6113.212
1235.191, 6082.011
1235.673, 6054.821
1236.155, 6074.849
1236.637, 6108.815
1237.120, 6126.222
1237.602, 6126.631
1238.084, 6105.662
1238.566, 6071.457
1239.048, 6054.672
1239.530, 6064.538
1240.012, 6073.835
1240.494, 6085.471
1240.976, 6085.312
1241.458, 6061.736
1241.941, 6054.369
1242.423, 6084.924
1242.905, 6118.536
##END=



