##NAMES=Hastingsite
##RRUFFID=R070194
##IDEAL CHEMISTRY=NaCa_2_(Fe^2+^_4_Fe^3+^)(Si_6_Al_2_)O_22_(OH)_2_
##LOCALITY=Seglenge, Sweden
##OWNER=RRUFF
##SOURCE=California Institute of Technology
##DESCRIPTION=Black cleavage fragment
##STATUS=The identification of this mineral has been confirmed by X-ray diffraction and chemical analysis
##URL=rruff.info/R070194
##MEASURED CHEMISTRY=(Na_0.39_K_0.32_[box]_0.29_)_Σ=1_(Ca_1.75_Na_0.25_)_Σ=2_((Fe^2+^_3.52_Mg_0.34_Mn_0.12_)_Σ=3.98_(Fe^3+^_0.66_Ti_0.24_Al_0.12_)_Σ=1.02_)_Σ=5_(Si_6.28_Al_1.64_)O_22_((OH)_1.79_F_0.17_Cl_0.04_)_Σ=2_; (OH) estimated by difference
153.5565, 1331.922
154.0386, 1338.340
154.5207, 1345.585
155.0028, 1358.007
155.4849, 1369.325
155.9670, 1374.012
156.4492, 1361.752
156.9313, 1351.112
157.4134, 1349.171
157.8955, 1358.202
158.3776, 1365.011
158.8597, 1364.319
159.3419, 1359.552
159.8240, 1355.511
160.3061, 1350.514
160.7882, 1348.919
161.2703, 1354.586
161.7524, 1371.464
162.2346, 1385.206
162.7167, 1387.623
163.1988, 1382.373
163.6809, 1377.395
164.1630, 1376.312
164.6451, 1376.659
165.1273, 1376.256
165.6094, 1372.945
166.0915, 1371.826
166.5736, 1376.874
167.0557, 1386.937
167.5379, 1398.090
168.0200, 1411.419
168.5021, 1423.395
168.9842, 1429.915
169.4663, 1425.745
169.9484, 1419.971
170.4306, 1420.843
170.9127, 1427.577
171.3948, 1433.702
171.8769, 1435.607
172.3590, 1433.846
172.8411, 1429.129
173.3233, 1419.260
173.8054, 1407.992
174.2875, 1398.211
174.7696, 1389.860
175.2517, 1385.353
175.7338, 1389.585
176.2160, 1399.330
176.6981, 1407.493
177.1802, 1410.458
177.6623, 1410.110
178.1444, 1409.434
178.6265, 1408.678
179.1087, 1406.393
179.5908, 1398.628
180.0729, 1387.281
180.5550, 1379.075
181.0371, 1381.140
181.5192, 1388.632
182.0014, 1389.723
182.4835, 1382.414
182.9656, 1372.576
183.4477, 1367.539
183.9298, 1366.999
184.4119, 1368.219
184.8941, 1368.928
185.3762, 1369.963
185.8583, 1374.975
186.3404, 1385.715
186.8225, 1398.199
187.3046, 1404.045
187.7868, 1403.311
188.2689, 1404.362
188.7510, 1417.020
189.2331, 1438.520
189.7152, 1450.918
190.1973, 1449.088
190.6795, 1438.517
191.1616, 1430.207
191.6437, 1423.981
192.1258, 1422.419
192.6079, 1431.311
193.0900, 1449.958
193.5722, 1462.030
194.0543, 1462.432
194.5364, 1454.435
195.0185, 1450.054
195.5006, 1449.837
195.9827, 1450.689
196.4649, 1449.201
196.9470, 1445.180
197.4291, 1442.845
197.9112, 1443.848
198.3933, 1447.597
198.8754, 1449.657
199.3576, 1449.420
199.8397, 1449.203
200.3218, 1452.692
200.8039, 1460.703
201.2860, 1466.022
201.7681, 1464.395
202.2503, 1456.258
202.7324, 1458.090
203.2145, 1474.505
203.6966, 1492.399
204.1787, 1490.216
204.6608, 1461.977
205.1430, 1440.617
205.6251, 1441.503
206.1072, 1467.323
206.5893, 1478.769
207.0714, 1471.932
207.5535, 1455.563
208.0357, 1442.145
208.5178, 1430.403
208.9999, 1426.020
209.4820, 1434.397
209.9641, 1459.714
210.4462, 1473.891
210.9284, 1474.139
211.4105, 1465.494
211.8926, 1456.909
212.3747, 1446.600
212.8568, 1440.485
213.3389, 1443.484
213.8211, 1460.735
214.3032, 1467.549
214.7853, 1460.646
215.2674, 1444.671
215.7495, 1430.796
216.2316, 1417.927
216.7138, 1409.063
217.1959, 1406.442
217.6780, 1412.488
218.1601, 1417.364
218.6422, 1420.263
219.1243, 1421.846
219.6065, 1424.671
220.0886, 1430.732
220.5707, 1434.656
221.0528, 1432.550
221.5349, 1420.777
222.0170, 1412.349
222.4992, 1407.937
222.9813, 1407.393
223.4634, 1410.682
223.9455, 1420.757
224.4276, 1430.505
224.9097, 1434.970
225.3919, 1430.975
225.8740, 1429.813
226.3561, 1435.633
226.8382, 1445.763
227.3203, 1443.057
227.8024, 1416.634
228.2846, 1391.613
228.7667, 1386.632
229.2488, 1415.695
229.7309, 1434.275
230.2130, 1433.023
230.6951, 1415.299
231.1773, 1408.408
231.6594, 1417.499
232.1415, 1431.462
232.6236, 1443.131
233.1057, 1454.239
233.5878, 1459.033
234.0700, 1453.021
234.5521, 1437.773
235.0342, 1434.278
235.5163, 1451.565
235.9984, 1470.750
236.4805, 1475.289
236.9627, 1453.014
237.4448, 1440.769
237.9269, 1449.360
238.4090, 1477.579
238.8911, 1488.591
239.3732, 1471.647
239.8554, 1448.854
240.3375, 1439.568
240.8196, 1451.585
241.3017, 1462.250
241.7838, 1467.483
242.2659, 1467.287
242.7481, 1470.252
243.2302, 1479.949
243.7123, 1489.182
244.1944, 1490.893
244.6765, 1480.634
245.1586, 1471.061
245.6408, 1464.054
246.1229, 1459.577
246.6050, 1456.996
247.0871, 1456.459
247.5692, 1457.664
248.0513, 1460.886
248.5335, 1468.662
249.0156, 1473.450
249.4977, 1473.148
249.9798, 1467.641
250.4619, 1462.369
250.9440, 1456.395
251.4262, 1451.611
251.9083, 1450.485
252.3904, 1456.042
252.8725, 1458.957
253.3546, 1456.267
253.8367, 1447.797
254.3189, 1443.370
254.8010, 1446.030
255.2831, 1449.318
255.7652, 1445.851
256.2473, 1431.417
256.7295, 1419.897
257.2116, 1415.286
257.6937, 1417.687
258.1758, 1417.055
258.6579, 1411.032
259.1400, 1404.858
259.6222, 1404.420
260.1043, 1412.245
260.5864, 1419.445
261.0685, 1424.176
261.5506, 1426.375
262.0327, 1427.883
262.5149, 1428.611
262.9970, 1428.754
263.4791, 1428.284
263.9612, 1426.718
264.4433, 1426.187
264.9254, 1428.831
265.4076, 1434.322
265.8897, 1430.021
266.3718, 1409.874
266.8539, 1389.833
267.3360, 1388.812
267.8181, 1413.627
268.3003, 1432.889
268.7824, 1437.135
269.2645, 1427.715
269.7466, 1427.103
270.2287, 1438.335
270.7108, 1452.305
271.1930, 1459.894
271.6751, 1459.815
272.1572, 1458.879
272.6393, 1458.208
273.1214, 1457.868
273.6035, 1458.842
274.0857, 1461.679
274.5678, 1464.426
275.0499, 1464.112
275.5320, 1459.784
276.0141, 1459.429
276.4962, 1466.828
276.9784, 1479.943
277.4605, 1484.930
277.9426, 1480.076
278.4247, 1473.410
278.9068, 1473.019
279.3889, 1479.369
279.8711, 1484.865
280.3532, 1487.751
280.8353, 1488.548
281.3174, 1488.017
281.7995, 1485.217
282.2816, 1475.423
282.7638, 1487.501
283.2459, 1494.672
283.7280, 1497.200
284.2101, 1481.181
284.6922, 1489.113
285.1743, 1487.446
285.6565, 1485.385
286.1386, 1496.687
286.6207, 1491.107
287.1028, 1489.618
287.5849, 1487.412
288.0670, 1483.583
288.5492, 1479.604
289.0313, 1479.978
289.5134, 1484.804
289.9955, 1489.306
290.4776, 1487.341
290.9597, 1481.036
291.4419, 1481.392
291.9240, 1493.325
292.4061, 1509.051
292.8882, 1512.645
293.3703, 1504.612
293.8524, 1495.600
294.3346, 1494.127
294.8167, 1497.696
295.2988, 1498.826
295.7809, 1495.749
296.2630, 1490.672
296.7451, 1485.919
297.2273, 1481.656
297.7094, 1478.858
298.1915, 1478.397
298.6736, 1479.803
299.1557, 1481.981
299.6378, 1484.582
300.1200, 1488.422
300.6021, 1496.179
301.0842, 1506.652
301.5663, 1515.120
302.0484, 1518.571
302.5305, 1518.389
303.0127, 1516.049
303.4948, 1511.291
303.9769, 1505.939
304.4590, 1502.937
304.9411, 1500.883
305.4232, 1495.943
305.9054, 1481.034
306.3875, 1464.606
306.8696, 1455.701
307.3517, 1455.712
307.8338, 1461.001
308.3159, 1476.256
308.7981, 1494.618
309.2802, 1502.846
309.7623, 1482.354
310.2444, 1457.389
310.7265, 1448.479
311.2086, 1459.501
311.6908, 1470.168
312.1729, 1465.402
312.6550, 1453.465
313.1371, 1446.247
313.6192, 1451.078
314.1013, 1459.943
314.5835, 1471.174
315.0656, 1485.046
315.5477, 1492.855
316.0298, 1486.125
316.5119, 1472.944
316.9940, 1462.151
317.4762, 1458.671
317.9583, 1456.192
318.4404, 1451.915
318.9225, 1445.802
319.4046, 1441.507
319.8867, 1439.766
320.3689, 1440.468
320.8510, 1443.524
321.3331, 1454.183
321.8152, 1461.747
322.2973, 1462.778
322.7794, 1457.756
323.2616, 1452.485
323.7437, 1448.141
324.2258, 1443.666
324.7079, 1438.399
325.1900, 1426.012
325.6721, 1419.990
326.1543, 1425.585
326.6364, 1440.285
327.1185, 1449.787
327.6006, 1451.388
328.0827, 1449.807
328.5648, 1447.160
329.0470, 1444.433
329.5291, 1439.008
330.0112, 1428.020
330.4933, 1414.420
330.9754, 1407.051
331.4576, 1409.800
331.9397, 1413.925
332.4218, 1415.443
332.9039, 1411.227
333.3860, 1412.998
333.8681, 1424.344
334.3503, 1439.562
334.8324, 1447.229
335.3145, 1444.446
335.7966, 1440.317
336.2787, 1438.736
336.7608, 1440.746
337.2430, 1436.666
337.7251, 1423.317
338.2072, 1408.604
338.6893, 1404.552
339.1714, 1413.239
339.6535, 1422.732
340.1357, 1429.517
340.6178, 1433.809
341.0999, 1438.301
341.5820, 1443.772
342.0641, 1447.115
342.5462, 1443.476
343.0284, 1432.908
343.5105, 1424.334
343.9926, 1420.166
344.4747, 1419.692
344.9568, 1422.178
345.4389, 1427.965
345.9211, 1432.201
346.4032, 1428.046
346.8853, 1417.803
347.3674, 1413.161
347.8495, 1418.978
348.3316, 1428.458
348.8138, 1427.145
349.2959, 1416.358
349.7780, 1409.047
350.2601, 1419.554
350.7422, 1438.951
351.2243, 1448.620
351.7065, 1443.723
352.1886, 1433.668
352.6707, 1429.218
353.1528, 1428.444
353.6349, 1425.225
354.1170, 1411.555
354.5992, 1395.825
355.0813, 1387.881
355.5634, 1389.621
356.0455, 1394.034
356.5276, 1396.963
357.0097, 1398.975
357.4919, 1401.000
357.9740, 1404.584
358.4561, 1407.507
358.9382, 1408.248
359.4203, 1406.686
359.9024, 1404.048
360.3846, 1399.023
360.8667, 1393.936
361.3488, 1391.224
361.8309, 1397.446
362.3130, 1400.586
362.7951, 1392.296
363.2773, 1374.109
363.7594, 1363.872
364.2415, 1374.959
364.7236, 1390.229
365.2057, 1398.577
365.6878, 1388.818
366.1700, 1382.910
366.6521, 1386.961
367.1342, 1397.772
367.6163, 1402.271
368.0984, 1392.787
368.5805, 1382.816
369.0627, 1377.716
369.5448, 1380.195
370.0269, 1382.458
370.5090, 1385.101
370.9911, 1387.312
371.4732, 1387.434
371.9554, 1384.834
372.4375, 1381.171
372.9196, 1376.605
373.4017, 1370.760
373.8838, 1366.494
374.3659, 1364.574
374.8481, 1363.093
375.3302, 1358.015
375.8123, 1346.719
376.2944, 1343.536
376.7765, 1356.256
377.2586, 1381.468
377.7408, 1389.356
378.2229, 1376.618
378.7050, 1361.054
379.1871, 1361.894
379.6692, 1377.978
380.1513, 1383.010
380.6335, 1367.488
381.1156, 1343.402
381.5977, 1339.993
382.0798, 1356.427
382.5619, 1372.080
383.0440, 1369.733
383.5262, 1356.073
384.0083, 1350.535
384.4904, 1357.117
384.9725, 1366.131
385.4546, 1365.667
385.9367, 1357.925
386.4189, 1349.793
386.9010, 1343.342
387.3831, 1339.008
387.8652, 1338.404
388.3473, 1341.851
388.8294, 1344.528
389.3116, 1341.803
389.7937, 1336.335
390.2758, 1331.707
390.7579, 1331.441
391.2400, 1330.647
391.7221, 1325.295
392.2043, 1316.061
392.6864, 1308.556
393.1685, 1305.445
393.6506, 1304.988
394.1327, 1305.871
394.6148, 1308.440
395.0970, 1311.498
395.5791, 1314.938
396.0612, 1318.693
396.5433, 1322.476
397.0254, 1330.368
397.5075, 1334.834
397.9897, 1331.761
398.4718, 1314.930
398.9539, 1304.217
399.4360, 1301.711
399.9181, 1304.625
400.4002, 1309.337
400.8824, 1318.014
401.3645, 1325.217
401.8466, 1328.655
402.3287, 1328.064
402.8108, 1332.340
403.2929, 1346.282
403.7751, 1357.821
404.2572, 1353.515
404.7393, 1328.369
405.2214, 1309.488
405.7035, 1301.894
406.1856, 1303.241
406.6678, 1307.625
407.1499, 1315.774
407.6320, 1322.143
408.1141, 1318.821
408.5962, 1307.866
409.0783, 1312.183
409.5605, 1337.343
410.0426, 1367.031
410.5247, 1375.744
411.0068, 1366.474
411.4889, 1356.576
411.9710, 1353.219
412.4532, 1355.007
412.9353, 1362.303
413.4174, 1375.407
413.8995, 1384.166
414.3816, 1372.726
414.8637, 1352.539
415.3459, 1342.646
415.8280, 1356.960
416.3101, 1375.985
416.7922, 1384.086
417.2743, 1383.351
417.7564, 1384.138
418.2386, 1394.839
418.7207, 1407.198
419.2028, 1414.318
419.6849, 1412.089
420.1670, 1411.114
420.6491, 1417.035
421.1313, 1426.346
421.6134, 1432.691
422.0955, 1428.774
422.5776, 1427.120
423.0597, 1433.017
423.5418, 1448.669
424.0240, 1461.515
424.5061, 1472.930
424.9882, 1480.144
425.4703, 1480.239
425.9524, 1467.038
426.4345, 1456.682
426.9167, 1451.098
427.3988, 1449.970
427.8809, 1452.899
428.3630, 1463.370
428.8451, 1471.028
429.3272, 1467.861
429.8094, 1451.488
430.2915, 1439.695
430.7736, 1432.798
431.2557, 1431.557
431.7378, 1440.902
432.2199, 1461.372
432.7021, 1477.156
433.1842, 1480.113
433.6663, 1473.066
434.1484, 1466.100
434.6305, 1459.265
435.1126, 1452.196
435.5948, 1443.479
436.0769, 1434.256
436.5590, 1427.543
437.0411, 1424.412
437.5232, 1423.894
438.0053, 1427.165
438.4875, 1432.882
438.9696, 1435.629
439.4517, 1432.230
439.9338, 1424.340
440.4159, 1412.068
440.8980, 1393.786
441.3802, 1377.983
441.8623, 1369.054
442.3444, 1365.139
442.8265, 1363.586
443.3086, 1365.522
443.7907, 1367.836
444.2729, 1369.775
444.7550, 1371.283
445.2371, 1371.680
445.7192, 1372.878
446.2013, 1371.645
446.6834, 1365.539
447.1656, 1346.111
447.6477, 1334.331
448.1298, 1335.584
448.6119, 1344.310
449.0940, 1344.249
449.5761, 1328.910
450.0583, 1317.272
450.5404, 1318.617
451.0225, 1334.751
451.5046, 1344.350
451.9867, 1345.438
452.4688, 1343.981
452.9510, 1347.464
453.4331, 1355.951
453.9152, 1363.790
454.3973, 1370.017
454.8794, 1374.272
455.3615, 1374.402
455.8437, 1370.548
456.3258, 1366.840
456.8079, 1367.188
457.2900, 1369.650
457.7721, 1369.429
458.2542, 1365.043
458.7364, 1361.321
459.2185, 1364.824
459.7006, 1372.551
460.1827, 1378.126
460.6648, 1376.579
461.1469, 1373.462
461.6291, 1373.819
462.1112, 1377.475
462.5933, 1378.175
463.0754, 1369.679
463.5575, 1358.992
464.0396, 1351.840
464.5218, 1354.294
465.0039, 1353.828
465.4860, 1341.740
465.9681, 1324.750
466.4502, 1320.491
466.9323, 1349.338
467.4145, 1371.268
467.8966, 1370.795
468.3787, 1340.916
468.8608, 1327.460
469.3429, 1337.743
469.8250, 1356.223
470.3072, 1368.198
470.7893, 1373.372
471.2714, 1372.463
471.7535, 1363.161
472.2356, 1349.066
472.7177, 1343.638
473.1999, 1347.750
473.6820, 1352.221
474.1641, 1347.092
474.6462, 1336.466
475.1284, 1342.707
475.6105, 1370.105
476.0926, 1399.015
476.5747, 1403.312
477.0568, 1390.736
477.5389, 1381.024
478.0211, 1384.374
478.5032, 1392.115
478.9853, 1394.239
479.4674, 1392.023
479.9495, 1393.555
480.4316, 1410.676
480.9138, 1429.175
481.3959, 1436.032
481.8780, 1422.735
482.3601, 1413.075
482.8422, 1418.605
483.3243, 1432.043
483.8065, 1442.040
484.2886, 1444.570
484.7707, 1445.425
485.2528, 1444.560
485.7349, 1441.951
486.2170, 1444.035
486.6992, 1454.940
487.1813, 1466.156
487.6634, 1471.646
488.1455, 1468.401
488.6276, 1468.670
489.1097, 1474.730
489.5919, 1483.063
490.0740, 1484.425
490.5561, 1477.416
491.0382, 1475.951
491.5203, 1489.220
492.0024, 1513.055
492.4846, 1528.289
492.9667, 1534.699
493.4488, 1536.130
493.9309, 1532.738
494.4130, 1527.033
494.8951, 1525.069
495.3773, 1528.476
495.8594, 1535.331
496.3415, 1546.522
496.8236, 1559.866
497.3057, 1569.782
497.7878, 1567.488
498.2700, 1565.541
498.7521, 1574.554
499.2342, 1595.934
499.7163, 1613.644
500.1984, 1620.747
500.6805, 1622.030
501.1627, 1621.346
501.6448, 1615.655
502.1269, 1612.358
502.6090, 1612.396
503.0911, 1615.279
503.5732, 1619.890
504.0554, 1626.858
504.5375, 1634.622
505.0196, 1642.900
505.5017, 1651.794
505.9838, 1659.678
506.4659, 1666.037
506.9481, 1672.523
507.4302, 1682.113
507.9123, 1694.860
508.3944, 1702.196
508.8765, 1700.536
509.3586, 1695.984
509.8408, 1700.380
510.3229, 1712.753
510.8050, 1726.171
511.2871, 1738.617
511.7692, 1748.970
512.2513, 1755.634
512.7335, 1758.587
513.2156, 1757.702
513.6977, 1745.082
514.1798, 1731.561
514.6619, 1730.371
515.1440, 1757.528
515.6262, 1781.758
516.1083, 1785.858
516.5904, 1777.302
517.0725, 1775.139
517.5546, 1785.640
518.0367, 1801.288
518.5189, 1822.683
519.0010, 1852.806
519.4831, 1869.327
519.9652, 1863.307
520.4473, 1852.498
520.9294, 1852.755
521.4116, 1868.291
521.8937, 1880.587
522.3758, 1887.440
522.8579, 1889.947
523.3400, 1889.218
523.8221, 1884.913
524.3043, 1882.847
524.7864, 1886.374
525.2685, 1894.276
525.7506, 1903.891
526.2327, 1915.360
526.7148, 1925.012
527.1970, 1931.397
527.6791, 1933.521
528.1612, 1928.507
528.6433, 1911.559
529.1254, 1895.897
529.6075, 1896.806
530.0897, 1906.050
530.5718, 1906.499
531.0539, 1878.285
531.5360, 1851.635
532.0181, 1843.671
532.5002, 1856.106
532.9824, 1860.507
533.4645, 1841.979
533.9466, 1821.854
534.4287, 1813.703
534.9108, 1827.740
535.3929, 1834.318
535.8751, 1829.723
536.3572, 1819.822
536.8393, 1815.707
537.3214, 1818.885
537.8035, 1820.922
538.2856, 1819.116
538.7678, 1814.054
539.2499, 1807.819
539.7320, 1800.346
540.2141, 1793.271
540.6962, 1789.584
541.1783, 1787.089
541.6605, 1779.725
542.1426, 1765.746
542.6247, 1751.260
543.1068, 1740.604
543.5889, 1733.573
544.0710, 1729.819
544.5532, 1733.459
545.0353, 1736.409
545.5174, 1732.805
545.9995, 1724.158
546.4816, 1718.733
546.9637, 1726.147
547.4459, 1731.447
547.9280, 1725.144
548.4101, 1698.510
548.8922, 1685.477
549.3743, 1695.390
549.8564, 1711.088
550.3386, 1713.777
550.8207, 1699.123
551.3028, 1685.290
551.7849, 1674.544
552.2670, 1667.048
552.7491, 1666.122
553.2313, 1672.179
553.7134, 1673.476
554.1955, 1658.873
554.6776, 1635.043
555.1597, 1621.585
555.6418, 1619.098
556.1240, 1618.809
556.6061, 1614.903
557.0882, 1608.092
557.5703, 1599.134
558.0524, 1586.957
558.5345, 1575.065
559.0167, 1564.027
559.4988, 1554.893
559.9809, 1549.880
560.4630, 1554.010
560.9451, 1557.936
561.4272, 1560.310
561.9094, 1560.943
562.3915, 1554.084
562.8736, 1531.648
563.3557, 1510.474
563.8378, 1501.042
564.3199, 1508.266
564.8021, 1509.317
565.2842, 1502.639
565.7663, 1492.067
566.2484, 1481.857
566.7305, 1471.969
567.2126, 1465.653
567.6948, 1465.861
568.1769, 1467.857
568.6590, 1461.646
569.1411, 1448.421
569.6232, 1435.342
570.1053, 1425.504
570.5875, 1418.634
571.0696, 1416.757
571.5517, 1420.414
572.0338, 1419.074
572.5159, 1401.616
572.9980, 1379.338
573.4802, 1362.645
573.9623, 1356.536
574.4444, 1352.477
574.9265, 1348.804
575.4086, 1346.526
575.8907, 1348.221
576.3729, 1358.342
576.8550, 1364.782
577.3371, 1362.636
577.8192, 1353.186
578.3013, 1350.993
578.7834, 1358.425
579.2656, 1363.751
579.7477, 1355.521
580.2298, 1336.538
580.7119, 1326.703
581.1940, 1328.711
581.6761, 1332.618
582.1583, 1323.811
582.6404, 1308.932
583.1225, 1302.754
583.6046, 1317.451
584.0867, 1333.201
584.5688, 1336.130
585.0510, 1328.547
585.5331, 1316.912
586.0152, 1295.105
586.4973, 1277.391
586.9794, 1271.595
587.4615, 1279.639
587.9437, 1286.453
588.4258, 1292.132
588.9079, 1295.638
589.3900, 1295.542
589.8721, 1289.303
590.3542, 1287.613
590.8364, 1292.330
591.3185, 1299.536
591.8006, 1303.762
592.2827, 1305.041
592.7648, 1302.818
593.2469, 1294.386
593.7291, 1284.770
594.2112, 1285.638
594.6933, 1295.143
595.1754, 1303.594
595.6575, 1304.526
596.1396, 1301.760
596.6218, 1297.726
597.1039, 1292.474
597.5860, 1289.909
598.0681, 1293.488
598.5502, 1299.683
599.0323, 1305.806
599.5145, 1314.870
599.9966, 1318.778
600.4787, 1314.964
600.9608, 1306.630
601.4429, 1298.641
601.9250, 1290.352
602.4072, 1283.755
602.8893, 1279.332
603.3714, 1276.930
603.8535, 1275.477
604.3356, 1274.763
604.8177, 1277.561
605.2999, 1289.895
605.7820, 1306.874
606.2641, 1312.250
606.7462, 1304.958
607.2283, 1297.712
607.7104, 1304.982
608.1926, 1317.123
608.6747, 1320.888
609.1568, 1307.478
609.6389, 1296.030
610.1210, 1297.463
610.6031, 1306.104
611.0853, 1312.730
611.5674, 1314.699
612.0495, 1315.461
612.5316, 1314.871
613.0137, 1313.365
613.4958, 1314.156
613.9780, 1318.413
614.4601, 1322.277
614.9422, 1323.698
615.4243, 1322.723
615.9064, 1320.870
616.3885, 1317.776
616.8707, 1316.016
617.3528, 1319.289
617.8349, 1325.786
618.3170, 1331.295
618.7991, 1335.175
619.2813, 1337.176
619.7634, 1334.118
620.2455, 1329.536
620.7276, 1329.388
621.2097, 1342.499
621.6918, 1353.912
622.1740, 1357.189
622.6561, 1353.559
623.1382, 1349.784
623.6203, 1343.743
624.1024, 1340.811
624.5845, 1343.688
625.0667, 1353.033
625.5488, 1360.594
626.0309, 1366.684
626.5130, 1370.319
626.9951, 1367.966
627.4772, 1360.699
627.9594, 1362.029
628.4415, 1374.828
628.9236, 1390.469
629.4057, 1397.218
629.8878, 1398.739
630.3699, 1403.476
630.8521, 1419.003
631.3342, 1433.270
631.8163, 1438.142
632.2984, 1435.014
632.7805, 1427.384
633.2626, 1402.332
633.7448, 1386.406
634.2269, 1395.739
634.7090, 1431.265
635.1911, 1453.528
635.6732, 1453.721
636.1553, 1452.820
636.6375, 1465.746
637.1196, 1495.956
637.6017, 1510.378
638.0838, 1505.534
638.5659, 1495.110
639.0480, 1494.723
639.5302, 1502.234
640.0123, 1509.203
640.4944, 1513.767
640.9765, 1517.027
641.4586, 1517.718
641.9407, 1518.220
642.4229, 1523.494
642.9050, 1540.292
643.3871, 1557.811
643.8692, 1571.869
644.3513, 1582.431
644.8334, 1590.621
645.3156, 1590.054
645.7977, 1594.050
646.2798, 1611.910
646.7619, 1646.958
647.2440, 1655.013
647.7261, 1626.113
648.2083, 1594.216
648.6904, 1591.051
649.1725, 1613.360
649.6546, 1630.376
650.1367, 1638.218
650.6188, 1643.476
651.1010, 1653.850
651.5831, 1667.241
652.0652, 1679.703
652.5473, 1693.094
653.0294, 1700.718
653.5115, 1691.158
653.9937, 1672.927
654.4758, 1665.033
654.9579, 1684.816
655.4400, 1703.320
655.9221, 1709.646
656.4042, 1705.454
656.8864, 1707.423
657.3685, 1719.631
657.8506, 1730.105
658.3327, 1733.768
658.8148, 1730.614
659.2969, 1716.705
659.7791, 1689.846
660.2612, 1666.510
660.7433, 1667.881
661.2254, 1683.985
661.7075, 1691.957
662.1896, 1686.999
662.6718, 1677.068
663.1539, 1663.864
663.6360, 1650.972
664.1181, 1643.499
664.6002, 1654.166
665.0823, 1657.580
665.5645, 1638.455
666.0466, 1607.780
666.5287, 1595.784
667.0108, 1618.693
667.4929, 1631.332
667.9750, 1617.242
668.4572, 1582.860
668.9393, 1565.634
669.4214, 1567.000
669.9035, 1572.162
670.3856, 1572.269
670.8677, 1569.219
671.3499, 1567.727
671.8320, 1567.951
672.3141, 1568.867
672.7962, 1568.406
673.2783, 1568.910
673.7604, 1574.185
674.2426, 1588.136
674.7247, 1596.520
675.2068, 1592.468
675.6889, 1581.625
676.1710, 1569.914
676.6531, 1554.752
677.1353, 1543.693
677.6174, 1537.576
678.0995, 1535.508
678.5816, 1536.743
679.0637, 1541.654
679.5458, 1545.483
680.0280, 1546.949
680.5101, 1546.210
680.9922, 1540.430
681.4743, 1531.517
681.9564, 1528.573
682.4385, 1545.547
682.9207, 1564.667
683.4028, 1568.367
683.8849, 1557.014
684.3670, 1547.806
684.8491, 1548.968
685.3312, 1552.070
685.8134, 1550.947
686.2955, 1541.826
686.7776, 1544.037
687.2597, 1564.638
687.7418, 1585.757
688.2239, 1589.170
688.7061, 1574.403
689.1882, 1561.989
689.6703, 1553.139
690.1524, 1550.504
690.6345, 1564.936
691.1166, 1588.229
691.5988, 1598.674
692.0809, 1580.371
692.5630, 1561.618
693.0451, 1567.089
693.5272, 1586.360
694.0093, 1597.815
694.4915, 1581.799
694.9736, 1571.480
695.4557, 1578.992
695.9378, 1600.276
696.4199, 1618.339
696.9020, 1634.551
697.3842, 1643.710
697.8663, 1639.882
698.3484, 1626.067
698.8305, 1624.787
699.3126, 1636.248
699.7947, 1652.575
700.2769, 1675.805
700.7590, 1697.136
701.2411, 1697.259
701.7232, 1673.030
702.2053, 1654.937
702.6874, 1670.485
703.1696, 1695.346
703.6517, 1708.074
704.1338, 1695.904
704.6159, 1689.238
705.0980, 1693.044
705.5801, 1701.180
706.0623, 1706.586
706.5444, 1707.812
707.0265, 1713.035
707.5086, 1725.267
707.9907, 1738.533
708.4728, 1738.915
708.9550, 1729.461
709.4371, 1727.336
709.9192, 1743.948
710.4013, 1764.636
710.8834, 1775.115
711.3655, 1777.276
711.8477, 1775.963
712.3298, 1767.401
712.8119, 1761.370
713.2940, 1763.852
713.7761, 1774.339
714.2582, 1780.485
714.7404, 1780.486
715.2225, 1778.878
715.7046, 1776.165
716.1867, 1772.630
716.6688, 1776.814
717.1509, 1789.505
717.6331, 1802.436
718.1152, 1809.539
718.5973, 1811.905
719.0794, 1811.112
719.5615, 1807.159
720.0436, 1802.453
720.5258, 1794.657
721.0079, 1789.069
721.4900, 1791.933
721.9721, 1812.916
722.4542, 1824.593
722.9363, 1813.764
723.4185, 1798.263
723.9006, 1797.322
724.3827, 1817.820
724.8648, 1829.354
725.3469, 1827.670
725.8290, 1817.119
726.3112, 1801.250
726.7933, 1781.780
727.2754, 1767.838
727.7575, 1764.727
728.2396, 1765.366
728.7217, 1760.649
729.2039, 1753.795
729.6860, 1752.402
730.1681, 1768.944
730.6502, 1781.825
731.1323, 1780.602
731.6144, 1767.496
732.0966, 1757.991
732.5787, 1753.675
733.0608, 1749.992
733.5429, 1745.500
734.0250, 1740.290
734.5071, 1734.798
734.9893, 1728.981
735.4714, 1724.047
735.9535, 1721.502
736.4356, 1720.103
736.9177, 1718.402
737.3998, 1716.267
737.8820, 1711.964
738.3641, 1701.442
738.8462, 1690.500
739.3283, 1683.376
739.8104, 1681.282
740.2925, 1680.677
740.7747, 1682.548
741.2568, 1684.404
741.7389, 1685.015
742.2210, 1684.806
742.7031, 1679.630
743.1852, 1668.147
743.6674, 1655.539
744.1495, 1648.214
744.6316, 1644.562
745.1137, 1639.360
745.5958, 1630.213
746.0779, 1623.330
746.5601, 1625.527
747.0422, 1632.266
747.5243, 1637.281
748.0064, 1639.176
748.4885, 1638.970
748.9706, 1638.535
749.4528, 1635.452
749.9349, 1623.356
750.4170, 1597.890
750.8991, 1580.373
751.3812, 1576.547
751.8633, 1582.365
752.3455, 1592.458
752.8276, 1605.441
753.3097, 1615.031
753.7918, 1618.850
754.2739, 1617.362
754.7560, 1608.346
755.2382, 1593.857
755.7203, 1580.961
756.2024, 1565.441
756.6845, 1558.755
757.1666, 1572.224
757.6487, 1601.340
758.1309, 1610.978
758.6130, 1593.433
759.0951, 1576.721
759.5772, 1574.559
760.0593, 1584.263
760.5414, 1593.004
761.0236, 1600.774
761.5057, 1604.630
761.9878, 1598.388
762.4699, 1589.601
762.9520, 1587.601
763.4341, 1593.091
763.9163, 1596.905
764.3984, 1593.511
764.8805, 1588.903
765.3626, 1587.699
765.8447, 1591.991
766.3268, 1588.031
766.8090, 1569.868
767.2911, 1555.538
767.7732, 1566.354
768.2553, 1598.133
768.7374, 1610.713
769.2195, 1600.207
769.7017, 1583.533
770.1838, 1572.233
770.6659, 1566.308
771.1480, 1567.130
771.6301, 1577.633
772.1122, 1585.703
772.5944, 1586.167
773.0765, 1582.404
773.5586, 1577.128
774.0407, 1565.988
774.5228, 1563.910
775.0049, 1574.716
775.4871, 1589.505
775.9692, 1596.672
776.4513, 1596.791
776.9334, 1594.160
777.4155, 1588.993
777.8976, 1583.305
778.3798, 1580.037
778.8619, 1577.674
779.3440, 1573.493
779.8261, 1561.940
780.3082, 1554.451
780.7903, 1559.664
781.2725, 1569.909
781.7546, 1570.849
782.2367, 1555.978
782.7188, 1546.896
783.2009, 1549.167
783.6830, 1556.819
784.1652, 1558.214
784.6473, 1553.730
785.1294, 1545.986
785.6115, 1532.222
786.0936, 1520.485
786.5757, 1523.495
787.0579, 1535.429
787.5400, 1542.323
788.0221, 1538.570
788.5042, 1529.441
788.9863, 1508.519
789.4684, 1483.325
789.9506, 1478.839
790.4327, 1504.020
790.9148, 1526.171
791.3969, 1536.595
791.8790, 1536.446
792.3611, 1523.088
792.8433, 1498.920
793.3254, 1482.548
793.8075, 1491.727
794.2896, 1507.273
794.7717, 1510.375
795.2538, 1503.526
795.7360, 1497.348
796.2181, 1495.668
796.7002, 1494.949
797.1823, 1495.278
797.6644, 1495.976
798.1465, 1490.360
798.6287, 1476.163
799.1108, 1464.798
799.5929, 1463.519
800.0750, 1468.527
800.5571, 1467.626
801.0392, 1461.502
801.5214, 1454.982
802.0035, 1451.462
802.4856, 1448.658
802.9677, 1443.904
803.4498, 1437.405
803.9319, 1434.062
804.4141, 1438.485
804.8962, 1442.584
805.3783, 1443.194
805.8604, 1440.414
806.3425, 1439.355
806.8246, 1440.586
807.3068, 1439.517
807.7889, 1430.414
808.2710, 1417.653
808.7531, 1409.372
809.2352, 1405.930
809.7173, 1408.797
810.1995, 1429.242
810.6816, 1447.959
811.1637, 1449.292
811.6458, 1429.725
812.1279, 1418.690
812.6100, 1423.179
813.0922, 1427.917
813.5743, 1423.350
814.0564, 1410.153
814.5385, 1405.672
815.0206, 1410.210
815.5027, 1417.136
815.9849, 1422.513
816.4670, 1426.602
816.9491, 1431.244
817.4312, 1436.401
817.9133, 1435.918
818.3954, 1420.377
818.8776, 1403.698
819.3597, 1394.312
819.8418, 1392.926
820.3239, 1394.234
820.8060, 1399.919
821.2881, 1404.317
821.7703, 1400.733
822.2524, 1391.815
822.7345, 1394.277
823.2166, 1408.293
823.6987, 1420.366
824.1808, 1414.057
824.6630, 1404.517
825.1451, 1409.745
825.6272, 1433.594
826.1093, 1447.189
826.5914, 1433.855
827.0735, 1417.900
827.5557, 1410.743
828.0378, 1413.167
828.5199, 1416.083
829.0020, 1419.545
829.4841, 1422.918
829.9662, 1424.306
830.4484, 1425.573
830.9305, 1432.940
831.4126, 1446.511
831.8947, 1455.145
832.3768, 1443.266
832.8589, 1430.549
833.3411, 1434.552
833.8232, 1463.612
834.3053, 1468.428
834.7874, 1434.425
835.2695, 1401.288
835.7516, 1397.645
836.2338, 1421.017
836.7159, 1432.281
837.1980, 1431.461
837.6801, 1425.984
838.1622, 1415.538
838.6443, 1407.219
839.1265, 1412.791
839.6086, 1433.749
840.0907, 1446.264
840.5728, 1431.133
841.0549, 1416.366
841.5370, 1417.702
842.0192, 1436.483
842.5013, 1446.346
842.9834, 1446.276
843.4655, 1442.016
843.9476, 1433.640
844.4298, 1424.922
844.9119, 1428.300
845.3940, 1442.871
845.8762, 1452.348
846.3583, 1436.065
846.8404, 1419.884
847.3225, 1423.715
847.8046, 1450.814
848.2867, 1470.541
848.7689, 1482.372
849.2510, 1486.280
849.7331, 1479.725
850.2152, 1464.550
850.6973, 1454.191
851.1794, 1448.522
851.6616, 1444.389
852.1437, 1436.656
852.6258, 1431.394
853.1079, 1437.703
853.5900, 1454.225
854.0721, 1466.863
854.5543, 1466.828
855.0364, 1466.384
855.5185, 1471.692
856.0006, 1481.361
856.4827, 1482.052
856.9648, 1472.724
857.4470, 1461.046
857.9291, 1446.231
858.4112, 1433.898
858.8933, 1439.704
859.3754, 1459.818
859.8575, 1477.823
860.3397, 1489.325
860.8218, 1492.314
861.3039, 1477.909
861.7860, 1450.820
862.2681, 1443.330
862.7502, 1465.259
863.2324, 1484.366
863.7145, 1489.978
864.1966, 1486.281
864.6787, 1484.765
865.1608, 1485.198
865.6429, 1486.121
866.1251, 1488.000
866.6072, 1489.024
867.0893, 1486.986
867.5714, 1482.982
868.0535, 1480.010
868.5356, 1477.613
869.0178, 1477.880
869.4999, 1481.718
869.9820, 1488.149
870.4641, 1497.620
870.9462, 1510.023
871.4283, 1509.591
871.9105, 1484.069
872.3926, 1456.277
872.8747, 1458.229
873.3568, 1479.046
873.8389, 1497.528
874.3210, 1505.667
874.8032, 1511.090
875.2853, 1514.654
875.7674, 1516.976
876.2495, 1518.844
876.7316, 1520.363
877.2137, 1520.309
877.6959, 1517.523
878.1780, 1515.676
878.6601, 1521.739
879.1422, 1532.586
879.6243, 1541.316
880.1064, 1546.048
880.5886, 1548.440
881.0707, 1548.102
881.5528, 1546.457
882.0349, 1545.337
882.5170, 1546.320
882.9991, 1543.085
883.4813, 1532.637
883.9634, 1524.442
884.4455, 1534.568
884.9276, 1556.453
885.4097, 1562.864
885.8918, 1549.048
886.3740, 1533.849
886.8561, 1531.249
887.3382, 1533.984
887.8203, 1535.300
888.3024, 1532.504
888.7845, 1535.484
889.2667, 1548.196
889.7488, 1560.514
890.2309, 1564.389
890.7130, 1560.680
891.1951, 1560.847
891.6772, 1565.048
892.1594, 1566.953
892.6415, 1557.761
893.1236, 1546.585
893.6057, 1542.802
894.0878, 1546.928
894.5699, 1550.697
895.0521, 1553.164
895.5342, 1553.844
896.0163, 1551.255
896.4984, 1546.272
896.9805, 1547.507
897.4626, 1554.962
897.9448, 1562.539
898.4269, 1567.393
898.9090, 1569.891
899.3911, 1570.755
899.8732, 1569.720
900.3553, 1565.842
900.8375, 1554.366
901.3196, 1545.158
901.8017, 1540.892
902.2838, 1540.802
902.7659, 1543.965
903.2480, 1550.967
903.7302, 1554.864
904.2123, 1552.746
904.6944, 1547.667
905.1765, 1540.888
905.6586, 1534.892
906.1407, 1535.004
906.6229, 1552.141
907.1050, 1564.352
907.5871, 1560.818
908.0692, 1550.592
908.5513, 1544.438
909.0334, 1541.998
909.5156, 1547.262
909.9977, 1563.372
910.4798, 1578.505
910.9619, 1571.349
911.4440, 1553.588
911.9261, 1550.594
912.4083, 1570.793
912.8904, 1589.617
913.3725, 1593.404
913.8546, 1592.354
914.3367, 1595.934
914.8188, 1607.834
915.3010, 1608.921
915.7831, 1597.431
916.2652, 1581.755
916.7473, 1561.589
917.2294, 1543.993
917.7115, 1552.710
918.1937, 1586.984
918.6758, 1612.104
919.1579, 1596.929
919.6400, 1576.194
920.1221, 1569.745
920.6042, 1577.521
921.0864, 1588.616
921.5685, 1605.480
922.0506, 1617.549
922.5327, 1618.836
923.0148, 1612.853
923.4969, 1604.656
923.9791, 1596.053
924.4612, 1594.171
924.9433, 1613.946
925.4254, 1629.550
925.9075, 1622.833
926.3896, 1602.613
926.8718, 1593.567
927.3539, 1599.310
927.8360, 1606.785
928.3181, 1614.542
928.8002, 1621.356
929.2823, 1625.660
929.7645, 1627.269
930.2466, 1624.553
930.7287, 1614.321
931.2108, 1607.156
931.6929, 1614.078
932.1750, 1624.584
932.6572, 1626.274
933.1393, 1611.008
933.6214, 1607.703
934.1035, 1619.986
934.5856, 1634.421
935.0677, 1636.856
935.5499, 1631.820
936.0320, 1633.111
936.5141, 1641.823
936.9962, 1648.015
937.4783, 1640.641
937.9604, 1632.882
938.4426, 1634.990
938.9247, 1647.432
939.4068, 1656.058
939.8889, 1660.204
940.3710, 1662.975
940.8531, 1667.162
941.3353, 1670.333
941.8174, 1663.891
942.2995, 1650.263
942.7816, 1639.198
943.2637, 1638.565
943.7458, 1638.513
944.2280, 1633.853
944.7101, 1626.413
945.1922, 1620.661
945.6743, 1615.879
946.1564, 1615.607
946.6385, 1620.947
947.1207, 1630.052
947.6028, 1642.069
948.0849, 1655.363
948.5670, 1667.216
949.0491, 1679.620
949.5313, 1682.765
950.0134, 1661.841
950.4955, 1636.460
950.9776, 1625.365
951.4597, 1633.913
951.9418, 1635.276
952.4240, 1627.547
952.9061, 1621.058
953.3882, 1627.937
953.8703, 1641.095
954.3524, 1647.744
954.8345, 1647.357
955.3167, 1644.394
955.7988, 1637.760
956.2809, 1632.266
956.7630, 1630.016
957.2451, 1630.777
957.7272, 1633.792
958.2094, 1639.371
958.6915, 1644.993
959.1736, 1650.717
959.6557, 1654.694
960.1378, 1653.561
960.6199, 1648.493
961.1021, 1642.120
961.5842, 1634.438
962.0663, 1626.579
962.5484, 1615.284
963.0305, 1606.407
963.5126, 1611.366
963.9948, 1631.790
964.4769, 1636.115
964.9590, 1617.809
965.4411, 1599.806
965.9232, 1612.276
966.4053, 1635.734
966.8875, 1644.697
967.3696, 1632.390
967.8517, 1622.826
968.3338, 1621.415
968.8159, 1623.318
969.2980, 1626.934
969.7802, 1632.086
970.2623, 1636.555
970.7444, 1640.365
971.2265, 1643.207
971.7086, 1647.046
972.1907, 1648.007
972.6729, 1637.686
973.1550, 1620.964
973.6371, 1615.472
974.1192, 1636.391
974.6013, 1647.215
975.0834, 1637.509
975.5656, 1619.780
976.0477, 1620.469
976.5298, 1634.898
977.0119, 1639.182
977.4940, 1623.708
977.9761, 1610.540
978.4583, 1622.934
978.9404, 1641.979
979.4225, 1646.259
979.9046, 1627.466
980.3867, 1617.567
980.8688, 1618.113
981.3510, 1623.575
981.8331, 1631.152
982.3152, 1640.127
982.7973, 1650.066
983.2794, 1660.279
983.7615, 1665.433
984.2437, 1662.198
984.7258, 1653.661
985.2079, 1633.957
985.6900, 1609.954
986.1721, 1608.335
986.6542, 1634.045
987.1364, 1652.302
987.6185, 1650.650
988.1006, 1642.804
988.5827, 1649.219
989.0648, 1663.951
989.5469, 1676.600
990.0291, 1686.979
990.5112, 1689.130
990.9933, 1670.086
991.4754, 1652.924
991.9575, 1662.137
992.4396, 1699.209
992.9218, 1709.095
993.4039, 1688.919
993.8860, 1667.781
994.3681, 1672.008
994.8502, 1684.484
995.3323, 1689.009
995.8145, 1685.160
996.2966, 1682.117
996.7787, 1680.021
997.2608, 1681.073
997.7429, 1687.660
998.2250, 1696.296
998.7072, 1696.465
999.1893, 1690.171
999.6714, 1686.700
1000.154, 1691.365
1000.636, 1695.970
1001.118, 1692.052
1001.600, 1686.702
1002.082, 1690.250
1002.564, 1710.346
1003.046, 1716.810
1003.528, 1706.289
1004.010, 1692.328
1004.493, 1686.644
1004.975, 1686.875
1005.457, 1691.140
1005.939, 1698.596
1006.421, 1700.112
1006.903, 1684.003
1007.385, 1669.239
1007.867, 1663.272
1008.349, 1664.807
1008.832, 1670.217
1009.314, 1679.512
1009.796, 1686.114
1010.278, 1686.359
1010.760, 1685.551
1011.242, 1690.947
1011.724, 1698.758
1012.206, 1703.167
1012.689, 1699.735
1013.171, 1697.329
1013.653, 1658.629
1014.135, 1682.192
1014.617, 1698.064
1015.099, 1706.508
1015.581, 1693.618
1016.063, 1701.894
1016.545, 1697.786
1017.028, 1690.486
1017.510, 1693.770
1017.992, 1669.645
1018.474, 1667.146
1018.956, 1697.877
1019.438, 1698.614
1019.920, 1695.010
1020.402, 1686.171
1020.885, 1675.113
1021.367, 1662.415
1021.849, 1651.919
1022.331, 1652.396
1022.813, 1675.281
1023.295, 1689.617
1023.777, 1681.612
1024.259, 1668.561
1024.741, 1662.993
1025.224, 1664.927
1025.706, 1664.565
1026.188, 1661.854
1026.670, 1660.512
1027.152, 1663.970
1027.634, 1669.284
1028.116, 1676.990
1028.598, 1685.174
1029.080, 1683.747
1029.563, 1666.107
1030.045, 1654.289
1030.527, 1654.607
1031.009, 1660.365
1031.491, 1660.603
1031.973, 1657.061
1032.455, 1654.341
1032.937, 1654.656
1033.420, 1651.950
1033.902, 1638.304
1034.384, 1625.079
1034.866, 1620.369
1035.348, 1624.440
1035.830, 1631.548
1036.312, 1641.869
1036.794, 1651.604
1037.276, 1664.047
1037.759, 1670.326
1038.241, 1652.296
1038.723, 1619.813
1039.205, 1604.284
1039.687, 1624.634
1040.169, 1638.651
1040.651, 1639.940
1041.133, 1634.616
1041.615, 1630.532
1042.098, 1627.367
1042.580, 1625.018
1043.062, 1623.842
1043.544, 1619.755
1044.026, 1606.131
1044.508, 1592.715
1044.990, 1584.863
1045.472, 1582.581
1045.955, 1587.569
1046.437, 1600.408
1046.919, 1609.572
1047.401, 1606.324
1047.883, 1600.249
1048.365, 1604.129
1048.847, 1613.339
1049.329, 1618.994
1049.812, 1618.115
1050.294, 1613.628
1050.776, 1603.990
1051.258, 1593.759
1051.740, 1587.842
1052.222, 1585.342
1052.704, 1583.096
1053.186, 1580.913
1053.668, 1580.292
1054.151, 1586.954
1054.633, 1590.521
1055.115, 1580.998
1055.597, 1563.665
1056.079, 1561.196
1056.561, 1575.013
1057.043, 1584.959
1057.525, 1584.026
1058.007, 1579.225
1058.490, 1577.717
1058.972, 1577.799
1059.454, 1577.239
1059.936, 1575.678
1060.418, 1573.609
1060.900, 1573.073
1061.382, 1568.102
1061.864, 1548.817
1062.347, 1522.318
1062.829, 1514.691
1063.311, 1523.178
1063.793, 1533.242
1064.275, 1542.717
1064.757, 1546.228
1065.239, 1538.028
1065.721, 1524.354
1066.203, 1513.755
1066.686, 1506.023
1067.168, 1507.233
1067.650, 1519.771
1068.132, 1530.616
1068.614, 1522.556
1069.096, 1510.279
1069.578, 1510.197
1070.060, 1525.355
1070.542, 1530.757
1071.025, 1522.454
1071.507, 1512.729
1071.989, 1505.566
1072.471, 1500.887
1072.953, 1501.043
1073.435, 1503.112
1073.917, 1499.161
1074.399, 1476.104
1074.882, 1464.775
1075.364, 1482.665
1075.846, 1506.198
1076.328, 1518.786
1076.810, 1520.416
1077.292, 1509.888
1077.774, 1487.710
1078.256, 1469.070
1078.739, 1462.570
1079.221, 1464.874
1079.703, 1483.026
1080.185, 1508.212
1080.667, 1507.828
1081.149, 1470.595
1081.631, 1456.319
1082.113, 1481.100
1082.595, 1512.157
1083.078, 1503.974
1083.560, 1476.865
1084.042, 1456.671
1084.524, 1446.579
1085.006, 1451.844
1085.488, 1485.172
1085.970, 1513.684
1086.452, 1523.500
1086.934, 1518.265
1087.417, 1505.538
1087.899, 1487.542
1088.381, 1472.578
1088.863, 1465.601
1089.345, 1459.682
1089.827, 1448.979
1090.309, 1440.060
1090.791, 1440.840
1091.274, 1452.578
1091.756, 1459.122
1092.238, 1460.195
1092.720, 1455.186
1093.202, 1436.359
1093.684, 1417.353
1094.166, 1413.473
1094.648, 1420.425
1095.130, 1417.430
1095.613, 1395.647
1096.095, 1389.295
1096.577, 1408.265
1097.059, 1432.802
1097.541, 1434.900
1098.023, 1424.679
1098.505, 1418.779
1098.987, 1420.334
1099.470, 1419.050
1099.952, 1406.730
1100.434, 1399.344
1100.916, 1405.244
1101.398, 1419.386
1101.880, 1428.404
1102.362, 1431.220
1102.844, 1421.892
1103.327, 1386.821
1103.809, 1360.825
1104.291, 1367.637
1104.773, 1386.446
1105.255, 1399.403
1105.737, 1406.774
1106.219, 1404.691
1106.701, 1393.043
1107.183, 1380.233
1107.666, 1367.515
1108.148, 1359.886
1108.630, 1366.479
1109.112, 1381.229
1109.594, 1385.432
1110.076, 1372.115
1110.558, 1370.272
1111.040, 1386.835
1111.522, 1402.255
1112.005, 1385.121
1112.487, 1357.364
1112.969, 1355.844
1113.451, 1383.529
1113.933, 1396.961
1114.415, 1376.296
1114.897, 1358.377
1115.379, 1353.881
1115.862, 1358.400
1116.344, 1365.099
1116.826, 1372.515
1117.308, 1376.524
1117.790, 1375.564
1118.272, 1372.640
1118.754, 1363.821
1119.236, 1358.588
1119.719, 1365.277
1120.201, 1381.993
1120.683, 1388.532
1121.165, 1385.272
1121.647, 1375.682
1122.129, 1349.646
1122.611, 1331.380
1123.093, 1349.356
1123.575, 1378.149
1124.057, 1376.690
1124.540, 1335.213
1125.022, 1315.680
1125.504, 1322.021
1125.986, 1336.199
1126.468, 1350.412
1126.950, 1359.337
1127.432, 1352.158
1127.914, 1333.407
1128.397, 1326.432
1128.879, 1338.281
1129.361, 1345.438
1129.843, 1342.169
1130.325, 1337.773
1130.807, 1348.760
1131.289, 1364.954
1131.771, 1368.665
1132.254, 1356.593
1132.736, 1346.828
1133.218, 1342.919
1133.700, 1342.541
1134.182, 1347.840
1134.664, 1353.324
1135.146, 1341.132
1135.628, 1317.702
1136.110, 1301.609
1136.593, 1298.264
1137.075, 1302.510
1137.557, 1324.685
1138.039, 1341.882
1138.521, 1335.993
1139.003, 1310.917
1139.485, 1304.647
1139.967, 1314.203
1140.449, 1297.882
1140.932, 1319.144
1141.414, 1331.084
1141.896, 1334.202
1142.378, 1302.081
1142.860, 1315.465
1143.342, 1310.612
1143.824, 1305.012
1144.306, 1324.801
1144.789, 1297.805
1145.271, 1317.191
1145.753, 1318.062
1146.235, 1327.408
1146.717, 1318.403
1147.199, 1315.067
1147.681, 1330.085
1148.163, 1334.940
1148.646, 1323.824
1149.128, 1333.708
1149.610, 1306.071
1150.092, 1311.359
1150.574, 1330.852
1151.056, 1320.658
1151.538, 1316.886
1152.020, 1327.282
1152.502, 1330.492
1152.984, 1317.113
1153.467, 1301.394
1153.949, 1308.973
1154.431, 1328.540
1154.913, 1341.833
1155.395, 1345.253
1155.877, 1340.214
1156.359, 1322.031
1156.841, 1306.531
1157.324, 1302.766
1157.806, 1306.113
1158.288, 1302.171
1158.770, 1295.352
1159.252, 1298.345
1159.734, 1329.261
1160.216, 1345.780
1160.698, 1330.137
1161.181, 1311.436
1161.663, 1314.823
1162.145, 1335.160
1162.627, 1345.524
1163.109, 1346.833
1163.591, 1345.027
1164.073, 1344.086
1164.555, 1339.141
1165.037, 1325.332
1165.520, 1309.615
1166.002, 1299.740
1166.484, 1295.496
1166.966, 1295.633
1167.448, 1299.899
1167.930, 1304.807
1168.412, 1307.019
1168.894, 1310.444
1169.376, 1321.024
1169.859, 1332.990
1170.341, 1331.141
1170.823, 1315.801
1171.305, 1310.053
1171.787, 1318.926
1172.269, 1325.711
1172.751, 1307.917
1173.233, 1290.428
1173.716, 1298.953
1174.198, 1326.580
1174.680, 1332.265
1175.162, 1314.679
1175.644, 1306.682
1176.126, 1321.050
1176.608, 1336.004
1177.090, 1325.338
1177.573, 1308.482
1178.055, 1306.614
1178.537, 1321.468
1179.019, 1337.409
1179.501, 1355.939
1179.983, 1361.976
1180.465, 1342.228
1180.947, 1318.170
1181.429, 1313.984
1181.911, 1320.868
1182.394, 1327.085
1182.876, 1332.353
1183.358, 1331.915
1183.840, 1324.848
1184.322, 1316.973
1184.804, 1309.561
1185.286, 1305.381
1185.768, 1310.558
1186.251, 1321.203
1186.733, 1329.064
1187.215, 1331.906
1187.697, 1334.530
1188.179, 1337.727
1188.661, 1338.064
1189.143, 1326.461
1189.625, 1314.284
1190.108, 1321.745
1190.590, 1343.120
1191.072, 1356.508
1191.554, 1358.296
1192.036, 1348.718
1192.518, 1323.058
1193.000, 1299.929
1193.482, 1308.215
1193.964, 1327.805
1194.447, 1322.510
1194.929, 1294.228
1195.411, 1282.496
1195.893, 1305.181
1196.375, 1323.998
1196.857, 1331.317
1197.339, 1332.791
1197.821, 1336.069
1198.303, 1339.161
1198.786, 1336.646
1199.268, 1327.694
1199.750, 1326.143
1200.232, 1340.220
1200.714, 1350.850
1201.196, 1352.320
1201.678, 1348.214
1202.160, 1342.706
1202.643, 1337.098
1203.125, 1334.650
1203.607, 1336.925
1204.089, 1336.217
1204.571, 1329.741
1205.053, 1322.771
1205.535, 1315.510
1206.017, 1311.274
1206.500, 1320.975
1206.982, 1338.464
1207.464, 1350.204
1207.946, 1351.513
1208.428, 1350.648
1208.910, 1348.175
1209.392, 1345.344
1209.874, 1341.182
1210.356, 1338.257
1210.839, 1348.636
1211.321, 1365.221
1211.803, 1369.499
1212.285, 1344.202
1212.767, 1328.794
1213.249, 1331.059
1213.731, 1336.773
1214.213, 1332.915
1214.695, 1325.858
1215.178, 1339.373
1215.660, 1365.333
1216.142, 1379.284
1216.624, 1360.375
1217.106, 1346.409
1217.588, 1342.385
1218.070, 1341.944
1218.552, 1339.848
1219.035, 1336.918
1219.517, 1333.145
1219.999, 1330.041
1220.481, 1333.449
1220.963, 1357.280
1221.445, 1369.962
1221.927, 1365.159
1222.409, 1353.060
1222.891, 1340.092
1223.374, 1329.628
1223.856, 1333.409
1224.338, 1348.858
1224.820, 1357.795
1225.302, 1341.166
1225.784, 1337.945
1226.266, 1359.549
1226.748, 1383.629
1227.230, 1377.752
1227.713, 1354.776
1228.195, 1337.203
1228.677, 1327.381
1229.159, 1328.016
1229.641, 1356.173
1230.123, 1364.575
1230.605, 1336.986
1231.087, 1302.782
1231.570, 1310.699
1232.052, 1339.473
1232.534, 1350.918
1233.016, 1340.597
1233.498, 1329.031
1233.980, 1316.522
1234.462, 1310.431
1234.944, 1313.445
1235.427, 1321.968
1235.909, 1330.390
1236.391, 1340.689
1236.873, 1359.959
1237.355, 1390.520
1237.837, 1402.957
1238.319, 1389.700
1238.801, 1373.525
1239.283, 1360.331
1239.766, 1350.359
1240.248, 1343.824
1240.730, 1341.188
1241.212, 1345.344
1241.694, 1358.605
1242.176, 1361.945
1242.658, 1351.000
1243.140, 1343.964
1243.622, 1350.530
1244.105, 1358.242
1244.587, 1342.140
1245.069, 1320.245
1245.551, 1320.255
1246.033, 1353.695
1246.515, 1367.337
1246.997, 1357.524
1247.479, 1345.838
1247.962, 1339.733
1248.444, 1339.828
1248.926, 1353.517
1249.408, 1370.601
1249.890, 1375.554
1250.372, 1363.715
1250.854, 1365.334
1251.336, 1382.368
1251.818, 1391.580
1252.301, 1375.475
1252.783, 1355.953
1253.265, 1355.620
1253.747, 1364.346
1254.229, 1369.966
1254.711, 1372.452
1255.193, 1364.693
1255.675, 1346.395
1256.157, 1334.994
1256.640, 1346.166
1257.122, 1359.022
1257.604, 1355.456
1258.086, 1345.848
1258.568, 1343.849
1259.050, 1350.362
1259.532, 1350.386
1260.014, 1344.454
1260.497, 1341.620
1260.979, 1349.397
1261.461, 1358.833
1261.943, 1368.434
1262.425, 1374.342
1262.907, 1371.318
1263.389, 1359.547
1263.871, 1349.259
1264.354, 1341.072
1264.836, 1339.643
1265.318, 1357.757
1265.800, 1370.078
1266.282, 1360.479
1266.764, 1347.283
1267.246, 1349.559
1267.728, 1363.571
1268.210, 1364.283
1268.693, 1353.679
1269.175, 1345.740
1269.657, 1346.750
1270.139, 1352.360
1270.621, 1364.815
1271.103, 1375.825
1271.585, 1374.327
1272.067, 1365.265
1272.549, 1363.296
1273.032, 1367.589
1273.514, 1372.713
1273.996, 1378.585
1274.478, 1381.800
1274.960, 1381.110
1275.442, 1379.889
1275.924, 1382.202
1276.406, 1385.877
1276.889, 1387.823
1277.371, 1387.698
1277.853, 1384.145
1278.335, 1371.860
1278.817, 1368.332
1279.299, 1376.329
1279.781, 1387.587
1280.263, 1399.276
1280.745, 1405.734
1281.228, 1394.791
1281.710, 1372.681
1282.192, 1361.995
1282.674, 1366.255
1283.156, 1372.165
1283.638, 1379.015
1284.120, 1383.499
1284.602, 1379.115
1285.084, 1374.800
1285.567, 1379.547
1286.049, 1389.898
1286.531, 1398.245
1287.013, 1405.221
1287.495, 1397.348
1287.977, 1373.402
1288.459, 1355.420
1288.941, 1367.033
1289.424, 1380.760
1289.906, 1380.028
1290.388, 1372.114
1290.870, 1366.942
1291.352, 1364.287
1291.834, 1361.179
1292.316, 1357.682
1292.798, 1358.361
1293.281, 1374.182
1293.763, 1382.639
1294.245, 1372.646
1294.727, 1359.078
1295.209, 1365.692
1295.691, 1384.661
1296.173, 1393.411
1296.655, 1391.233
1297.137, 1387.937
1297.620, 1384.507
1298.102, 1384.858
1298.584, 1391.154
1299.066, 1397.231
1299.548, 1395.332
1300.030, 1388.567
1300.512, 1380.597
1300.994, 1372.180
##END=



