##NAMES=Hastingsite
##RRUFFID=R070194
##IDEAL CHEMISTRY=NaCa_2_(Fe^2+^_4_Fe^3+^)(Si_6_Al_2_)O_22_(OH)_2_
##LOCALITY=Seglenge, Sweden
##OWNER=RRUFF
##SOURCE=California Institute of Technology
##DESCRIPTION=Black cleavage fragment
##STATUS=The identification of this mineral has been confirmed by X-ray diffraction and chemical analysis
##URL=rruff.info/R070194
##MEASURED CHEMISTRY=(Na_0.39_K_0.32_[box]_0.29_)_Σ=1_(Ca_1.75_Na_0.25_)_Σ=2_((Fe^2+^_3.52_Mg_0.34_Mn_0.12_)_Σ=3.98_(Fe^3+^_0.66_Ti_0.24_Al_0.12_)_Σ=1.02_)_Σ=5_(Si_6.28_Al_1.64_)O_22_((OH)_1.79_F_0.17_Cl_0.04_)_Σ=2_; (OH) estimated by difference
149.2722, 1166.490
149.7543, 1205.148
150.2365, 1251.088
150.7186, 1295.701
151.2007, 1334.092
151.6828, 1364.980
152.1649, 1385.942
152.6470, 1393.760
153.1292, 1393.364
153.6113, 1388.480
154.0934, 1379.315
154.5755, 1366.385
155.0576, 1347.185
155.5397, 1323.735
156.0219, 1305.047
156.5040, 1297.062
156.9861, 1292.287
157.4682, 1281.229
157.9503, 1262.588
158.4324, 1243.613
158.9146, 1227.378
159.3967, 1214.941
159.8788, 1210.597
160.3609, 1223.893
160.8430, 1242.800
161.3251, 1247.808
161.8073, 1234.926
162.2894, 1221.469
162.7715, 1221.707
163.2536, 1230.167
163.7357, 1237.534
164.2178, 1239.530
164.7000, 1238.764
165.1821, 1240.535
165.6642, 1246.283
166.1463, 1250.460
166.6284, 1247.732
167.1105, 1241.299
167.5927, 1236.393
168.0748, 1234.386
168.5569, 1235.464
169.0390, 1241.016
169.5211, 1253.544
170.0032, 1264.899
170.4854, 1270.848
170.9675, 1272.965
171.4496, 1273.261
171.9317, 1271.850
172.4138, 1269.534
172.8959, 1268.303
173.3781, 1268.361
173.8602, 1269.192
174.3423, 1271.383
174.8244, 1273.962
175.3065, 1275.729
175.7886, 1276.990
176.2708, 1276.553
176.7529, 1270.001
177.2350, 1252.435
177.7171, 1237.859
178.1992, 1231.006
178.6813, 1230.006
179.1634, 1233.488
179.6456, 1242.944
180.1277, 1254.486
180.6098, 1255.365
181.0919, 1237.270
181.5740, 1223.168
182.0561, 1222.439
182.5383, 1228.541
183.0204, 1233.282
183.5025, 1232.257
183.9846, 1228.059
184.4667, 1228.405
184.9488, 1236.127
185.4310, 1243.639
185.9131, 1250.141
186.3952, 1254.920
186.8773, 1256.504
187.3594, 1253.645
187.8415, 1248.788
188.3237, 1248.911
188.8058, 1258.192
189.2879, 1265.299
189.7700, 1266.994
190.2521, 1265.955
190.7342, 1264.469
191.2164, 1263.394
191.6985, 1263.305
192.1806, 1265.892
192.6627, 1273.231
193.1448, 1279.636
193.6269, 1284.954
194.1091, 1288.718
194.5912, 1290.516
195.0733, 1290.188
195.5554, 1287.829
196.0375, 1283.479
196.5196, 1276.046
197.0018, 1268.474
197.4839, 1256.271
197.9660, 1246.607
198.4481, 1248.684
198.9302, 1265.162
199.4123, 1286.115
199.8945, 1291.453
200.3766, 1268.380
200.8587, 1255.274
201.3408, 1260.741
201.8229, 1272.246
202.3050, 1281.133
202.7872, 1284.782
203.2693, 1284.955
203.7514, 1284.190
204.2335, 1281.841
204.7156, 1280.016
205.1977, 1277.578
205.6799, 1276.410
206.1620, 1279.724
206.6441, 1287.296
207.1262, 1293.991
207.6083, 1291.057
208.0904, 1270.969
208.5726, 1260.833
209.0547, 1268.217
209.5368, 1278.529
210.0189, 1283.894
210.5010, 1283.194
210.9831, 1279.830
211.4653, 1277.761
211.9474, 1277.765
212.4295, 1276.192
212.9116, 1270.944
213.3937, 1266.024
213.8758, 1262.162
214.3580, 1260.155
214.8401, 1261.753
215.3222, 1270.011
215.8043, 1286.884
216.2864, 1297.075
216.7685, 1294.459
217.2507, 1290.992
217.7328, 1291.362
218.2149, 1294.897
218.6970, 1297.853
219.1791, 1295.966
219.6612, 1288.847
220.1434, 1291.229
220.6255, 1317.796
221.1076, 1339.946
221.5897, 1349.698
222.0718, 1348.980
222.5539, 1342.562
223.0361, 1333.170
223.5182, 1321.089
224.0003, 1310.123
224.4824, 1296.538
224.9645, 1288.656
225.4466, 1291.570
225.9288, 1300.556
226.4109, 1309.138
226.8930, 1313.785
227.3751, 1314.745
227.8572, 1312.673
228.3393, 1302.138
228.8215, 1296.082
229.3036, 1301.493
229.7857, 1310.507
230.2678, 1313.141
230.7499, 1304.682
231.2320, 1290.476
231.7142, 1284.233
232.1963, 1292.842
232.6784, 1297.758
233.1605, 1292.107
233.6426, 1284.713
234.1247, 1285.605
234.6069, 1297.658
235.0890, 1311.695
235.5711, 1309.996
236.0532, 1282.074
236.5353, 1263.367
237.0174, 1258.879
237.4996, 1261.706
237.9817, 1269.561
238.4638, 1281.082
238.9459, 1292.907
239.4280, 1302.201
239.9101, 1310.615
240.3923, 1309.990
240.8744, 1286.275
241.3565, 1264.729
241.8386, 1260.138
242.3207, 1271.193
242.8028, 1284.812
243.2850, 1287.946
243.7671, 1279.504
244.2492, 1273.620
244.7313, 1270.829
245.2134, 1270.384
245.6955, 1274.459
246.1777, 1280.950
246.6598, 1284.845
247.1419, 1281.901
247.6240, 1272.909
248.1061, 1265.355
248.5882, 1261.180
249.0704, 1255.756
249.5525, 1245.645
250.0346, 1233.603
250.5167, 1223.840
250.9988, 1218.136
251.4809, 1216.604
251.9631, 1221.091
252.4452, 1237.538
252.9273, 1247.649
253.4094, 1241.151
253.8915, 1227.882
254.3736, 1218.588
254.8558, 1217.645
255.3379, 1220.089
255.8200, 1217.633
256.3021, 1208.802
256.7842, 1200.694
257.2664, 1193.845
257.7485, 1189.404
258.2306, 1189.017
258.7127, 1193.139
259.1948, 1198.955
259.6769, 1205.979
260.1591, 1214.607
260.6412, 1214.425
261.1233, 1194.320
261.6054, 1172.677
262.0875, 1164.037
262.5696, 1168.227
263.0518, 1173.047
263.5339, 1167.619
264.0160, 1154.362
264.4981, 1147.702
264.9802, 1150.872
265.4623, 1158.463
265.9445, 1169.021
266.4266, 1181.008
266.9087, 1188.823
267.3908, 1187.211
267.8729, 1180.119
268.3550, 1175.538
268.8372, 1173.730
269.3193, 1174.190
269.8014, 1179.945
270.2835, 1187.506
270.7656, 1190.231
271.2477, 1181.602
271.7299, 1171.378
272.2120, 1171.729
272.6941, 1182.963
273.1762, 1194.966
273.6583, 1205.649
274.1404, 1212.209
274.6226, 1209.251
275.1047, 1190.172
275.5868, 1173.099
276.0689, 1172.916
276.5510, 1185.801
277.0331, 1196.023
277.5153, 1197.726
277.9974, 1194.672
278.4795, 1192.889
278.9616, 1192.395
279.4437, 1192.594
279.9258, 1192.793
280.4080, 1193.663
280.8901, 1196.579
281.3722, 1201.991
281.8543, 1208.666
282.3364, 1216.426
282.8185, 1225.733
283.3007, 1229.694
283.7828, 1223.344
284.2649, 1213.951
284.7470, 1207.827
285.2291, 1205.480
285.7112, 1204.253
286.1934, 1201.684
286.6755, 1197.974
287.1576, 1197.896
287.6397, 1206.086
288.1218, 1213.082
288.6039, 1213.671
289.0861, 1209.279
289.5682, 1203.731
290.0503, 1198.841
290.5324, 1194.895
291.0145, 1193.318
291.4966, 1194.543
291.9788, 1197.384
292.4609, 1205.296
292.9430, 1213.453
293.4251, 1215.052
293.9072, 1207.796
294.3893, 1195.919
294.8715, 1186.935
295.3536, 1182.911
295.8357, 1177.990
296.3178, 1168.971
296.7999, 1161.422
297.2820, 1160.352
297.7642, 1165.617
298.2463, 1172.800
298.7284, 1177.674
299.2105, 1180.263
299.6926, 1180.219
300.1747, 1174.566
300.6569, 1169.337
301.1390, 1166.378
301.6211, 1165.470
302.1032, 1165.913
302.5853, 1167.462
303.0674, 1169.750
303.5495, 1170.916
304.0316, 1170.754
304.5138, 1169.621
304.9959, 1166.728
305.4780, 1163.396
305.9601, 1161.109
306.4422, 1160.439
306.9243, 1160.575
307.4065, 1160.456
307.8886, 1160.355
308.3707, 1158.976
308.8528, 1152.761
309.3349, 1147.553
309.8170, 1148.324
310.2992, 1154.969
310.7813, 1161.428
311.2634, 1162.472
311.7455, 1158.471
312.2276, 1152.819
312.7097, 1143.045
313.1919, 1135.737
313.6740, 1137.360
314.1561, 1144.568
314.6382, 1148.475
315.1203, 1141.530
315.6024, 1130.400
316.0846, 1128.603
316.5667, 1138.142
317.0488, 1145.112
317.5309, 1138.354
318.0130, 1125.452
318.4951, 1119.346
318.9773, 1124.392
319.4594, 1131.454
319.9415, 1135.649
320.4236, 1136.648
320.9057, 1131.665
321.3878, 1116.883
321.8700, 1100.270
322.3521, 1095.408
322.8342, 1103.318
323.3163, 1112.235
323.7984, 1120.397
324.2805, 1127.096
324.7627, 1131.211
325.2448, 1132.574
325.7269, 1132.270
326.2090, 1131.144
326.6911, 1129.101
327.1732, 1126.917
327.6554, 1124.272
328.1375, 1121.774
328.6196, 1120.154
329.1017, 1119.020
329.5838, 1116.757
330.0659, 1112.018
330.5481, 1106.090
331.0302, 1104.989
331.5123, 1115.622
331.9944, 1122.531
332.4765, 1122.815
332.9586, 1119.213
333.4408, 1113.916
333.9229, 1107.830
334.4050, 1101.866
334.8871, 1096.488
335.3692, 1088.401
335.8513, 1090.535
336.3335, 1115.787
336.8156, 1138.657
337.2977, 1145.103
337.7798, 1136.883
338.2619, 1123.657
338.7440, 1111.932
339.2262, 1101.885
339.7083, 1095.203
340.1904, 1093.054
340.6725, 1092.914
341.1546, 1096.026
341.6367, 1099.742
342.1189, 1100.071
342.6010, 1094.964
343.0831, 1088.675
343.5652, 1088.119
344.0473, 1094.186
344.5294, 1099.581
345.0116, 1100.720
345.4937, 1102.172
345.9758, 1109.273
346.4579, 1121.993
346.9400, 1131.839
347.4221, 1131.964
347.9043, 1125.163
348.3864, 1118.854
348.8685, 1113.627
349.3506, 1109.247
349.8327, 1105.368
350.3148, 1102.171
350.7970, 1100.447
351.2791, 1098.711
351.7612, 1099.786
352.2433, 1109.448
352.7254, 1125.439
353.2076, 1135.497
353.6897, 1132.699
354.1718, 1121.742
354.6539, 1114.708
355.1360, 1112.672
355.6181, 1111.274
356.1003, 1109.013
356.5824, 1107.136
357.0645, 1105.985
357.5466, 1105.930
358.0287, 1110.454
358.5108, 1125.276
358.9930, 1154.904
359.4751, 1168.658
359.9572, 1153.144
360.4393, 1137.523
360.9214, 1134.795
361.4035, 1142.217
361.8857, 1152.412
362.3678, 1161.483
362.8499, 1168.720
363.3320, 1170.976
363.8141, 1161.443
364.2962, 1158.099
364.7784, 1168.069
365.2605, 1181.233
365.7426, 1189.226
366.2247, 1190.252
366.7068, 1188.137
367.1889, 1185.643
367.6711, 1182.446
368.1532, 1184.874
368.6353, 1201.812
369.1174, 1213.787
369.5995, 1207.207
370.0816, 1188.490
370.5638, 1173.225
371.0459, 1169.717
371.5280, 1172.972
372.0101, 1176.152
372.4922, 1179.632
372.9743, 1179.255
373.4565, 1171.322
373.9386, 1159.494
374.4207, 1148.822
374.9028, 1138.734
375.3849, 1132.411
375.8670, 1134.034
376.3492, 1140.224
376.8313, 1144.501
377.3134, 1145.566
377.7955, 1144.593
378.2776, 1142.725
378.7597, 1139.883
379.2419, 1135.450
379.7240, 1124.520
380.2061, 1116.412
380.6882, 1121.226
381.1703, 1133.957
381.6524, 1139.841
382.1346, 1130.308
382.6167, 1110.598
383.0988, 1096.366
383.5809, 1091.431
384.0630, 1087.645
384.5451, 1081.673
385.0273, 1078.781
385.5094, 1087.022
385.9915, 1105.418
386.4736, 1121.907
386.9557, 1122.147
387.4378, 1104.924
387.9200, 1095.039
388.4021, 1100.373
388.8842, 1104.098
389.3663, 1100.550
389.8484, 1091.923
390.3305, 1081.385
390.8127, 1069.524
391.2948, 1058.311
391.7769, 1049.650
392.2590, 1043.162
392.7411, 1043.651
393.2232, 1057.433
393.7054, 1074.392
394.1875, 1086.789
394.6696, 1094.418
395.1517, 1094.653
395.6338, 1080.818
396.1159, 1060.631
396.5981, 1046.384
397.0802, 1039.228
397.5623, 1036.822
398.0444, 1039.039
398.5265, 1044.861
399.0086, 1048.457
399.4908, 1046.641
399.9729, 1046.164
400.4550, 1053.982
400.9371, 1063.850
401.4192, 1062.961
401.9013, 1047.010
402.3835, 1027.445
402.8656, 1021.556
403.3477, 1035.387
403.8298, 1045.034
404.3119, 1046.692
404.7940, 1048.392
405.2762, 1057.698
405.7583, 1070.651
406.2404, 1076.073
406.7225, 1065.703
407.2046, 1045.329
407.6867, 1035.979
408.1689, 1042.486
408.6510, 1050.383
409.1331, 1057.324
409.6152, 1064.161
410.0973, 1072.923
410.5794, 1083.488
411.0616, 1091.052
411.5437, 1090.650
412.0258, 1083.428
412.5079, 1073.735
412.9900, 1058.915
413.4721, 1048.778
413.9543, 1054.392
414.4364, 1069.336
414.9185, 1081.487
415.4006, 1089.521
415.8827, 1093.129
416.3648, 1089.593
416.8470, 1081.156
417.3291, 1074.783
417.8112, 1072.921
418.2933, 1073.675
418.7754, 1073.862
419.2575, 1072.001
419.7397, 1075.306
420.2218, 1090.212
420.7039, 1105.271
421.1860, 1112.039
421.6681, 1111.878
422.1502, 1111.035
422.6324, 1113.476
423.1145, 1118.553
423.5966, 1123.410
424.0787, 1127.241
424.5608, 1132.197
425.0429, 1141.576
425.5251, 1150.032
426.0072, 1152.552
426.4893, 1148.811
426.9714, 1142.967
427.4535, 1138.836
427.9356, 1136.195
428.4178, 1132.166
428.8999, 1124.417
429.3820, 1119.853
429.8641, 1125.987
430.3462, 1136.429
430.8283, 1141.222
431.3105, 1136.194
431.7926, 1129.065
432.2747, 1126.306
432.7568, 1126.769
433.2389, 1126.032
433.7210, 1122.565
434.2032, 1119.052
434.6853, 1119.436
435.1674, 1124.361
435.6495, 1125.819
436.1316, 1117.912
436.6137, 1111.351
437.0959, 1115.249
437.5780, 1125.958
438.0601, 1133.424
438.5422, 1132.356
439.0243, 1125.854
439.5064, 1122.246
439.9886, 1127.914
440.4707, 1124.701
440.9528, 1103.391
441.4349, 1081.480
441.9170, 1070.706
442.3991, 1070.342
442.8813, 1072.307
443.3634, 1070.599
443.8455, 1066.500
444.3276, 1064.365
444.8097, 1063.202
445.2918, 1066.862
445.7740, 1084.458
446.2561, 1103.716
446.7382, 1111.523
447.2203, 1105.153
447.7024, 1096.057
448.1845, 1092.297
448.6667, 1090.540
449.1488, 1080.923
449.6309, 1061.182
450.1130, 1047.196
450.5951, 1054.560
451.0772, 1080.308
451.5594, 1092.938
452.0415, 1081.318
452.5236, 1070.616
453.0057, 1069.498
453.4878, 1074.089
453.9699, 1080.420
454.4521, 1086.863
454.9342, 1090.641
455.4163, 1087.387
455.8984, 1075.282
456.3805, 1066.495
456.8626, 1063.018
457.3448, 1061.099
457.8269, 1059.625
458.3090, 1059.005
458.7911, 1060.206
459.2732, 1063.809
459.7553, 1068.543
460.2375, 1073.790
460.7196, 1079.602
461.2017, 1080.506
461.6838, 1071.911
462.1659, 1062.950
462.6480, 1061.592
463.1302, 1066.875
463.6123, 1074.587
464.0944, 1089.025
464.5765, 1101.188
465.0586, 1100.980
465.5407, 1090.907
466.0229, 1080.728
466.5050, 1074.336
466.9871, 1071.236
467.4692, 1070.530
467.9513, 1072.128
468.4334, 1076.828
468.9156, 1091.839
469.3977, 1103.689
469.8798, 1101.441
470.3619, 1088.347
470.8440, 1074.854
471.3261, 1067.260
471.8083, 1064.366
472.2904, 1062.663
472.7725, 1062.111
473.2546, 1062.912
473.7367, 1066.216
474.2188, 1070.143
474.7010, 1074.183
475.1831, 1078.020
475.6652, 1080.181
476.1473, 1078.636
476.6294, 1075.350
477.1115, 1073.986
477.5937, 1074.648
478.0758, 1074.207
478.5579, 1069.530
479.0400, 1064.057
479.5221, 1067.856
480.0042, 1087.746
480.4864, 1098.643
480.9685, 1085.529
481.4506, 1068.269
481.9327, 1066.288
482.4148, 1079.431
482.8969, 1094.903
483.3791, 1103.264
483.8612, 1105.867
484.3433, 1110.347
484.8254, 1117.078
485.3075, 1125.256
485.7896, 1139.568
486.2718, 1151.775
486.7539, 1153.538
487.2360, 1144.966
487.7181, 1134.984
488.2002, 1130.361
488.6823, 1129.692
489.1645, 1127.661
489.6466, 1123.185
490.1287, 1123.667
490.6108, 1135.211
491.0929, 1153.059
491.5750, 1167.150
492.0572, 1177.163
492.5393, 1184.568
493.0214, 1189.038
493.5035, 1191.526
493.9856, 1193.772
494.4677, 1195.539
494.9499, 1193.382
495.4320, 1183.396
495.9141, 1168.097
496.3962, 1163.945
496.8783, 1183.072
497.3604, 1196.568
497.8426, 1199.954
498.3247, 1198.058
498.8068, 1191.716
499.2889, 1182.912
499.7710, 1178.709
500.2531, 1187.087
500.7353, 1204.651
501.2174, 1220.490
501.6995, 1236.603
502.1816, 1241.528
502.6637, 1219.249
503.1458, 1189.392
503.6280, 1185.103
504.1101, 1213.987
504.5922, 1238.635
505.0743, 1242.590
505.5564, 1236.347
506.0385, 1228.539
506.5207, 1221.377
507.0028, 1219.864
507.4849, 1227.921
507.9670, 1243.452
508.4491, 1257.363
508.9312, 1272.639
509.4134, 1281.538
509.8955, 1278.075
510.3776, 1272.730
510.8597, 1273.151
511.3418, 1279.395
511.8239, 1287.152
512.3061, 1294.546
512.7882, 1300.452
513.2703, 1300.059
513.7524, 1291.667
514.2346, 1287.601
514.7167, 1294.609
515.1988, 1305.998
515.6809, 1313.310
516.1630, 1316.427
516.6451, 1317.651
517.1273, 1313.045
517.6094, 1310.263
518.0915, 1320.853
518.5736, 1340.936
519.0557, 1352.711
519.5378, 1345.594
520.0200, 1329.532
520.5021, 1329.083
520.9842, 1357.693
521.4663, 1376.295
521.9484, 1378.141
522.4305, 1377.511
522.9127, 1383.011
523.3948, 1392.427
523.8769, 1398.686
524.3590, 1398.099
524.8411, 1392.558
525.3232, 1382.477
525.8054, 1367.925
526.2875, 1360.708
526.7696, 1366.069
527.2517, 1375.644
527.7338, 1382.002
528.2159, 1385.317
528.6981, 1384.762
529.1802, 1376.412
529.6623, 1367.901
530.1444, 1365.232
530.6265, 1365.372
531.1086, 1362.590
531.5908, 1354.880
532.0729, 1343.324
532.5550, 1327.926
533.0371, 1306.328
533.5192, 1295.448
534.0013, 1305.797
534.4835, 1315.102
534.9656, 1314.612
535.4477, 1309.847
535.9298, 1309.785
536.4119, 1317.676
536.8940, 1323.835
537.3762, 1316.542
537.8583, 1300.177
538.3404, 1289.633
538.8225, 1287.345
539.3046, 1285.569
539.7867, 1277.985
540.2689, 1266.520
540.7510, 1260.916
541.2331, 1268.621
541.7152, 1271.270
542.1973, 1260.025
542.6794, 1245.403
543.1616, 1236.404
543.6437, 1234.412
544.1258, 1237.856
544.6079, 1246.976
545.0900, 1259.048
545.5721, 1261.397
546.0543, 1250.908
546.5364, 1239.203
547.0185, 1227.029
547.5006, 1216.383
547.9827, 1209.021
548.4648, 1204.856
548.9469, 1202.033
549.4290, 1201.748
549.9111, 1201.036
550.3932, 1195.183
550.8754, 1185.577
551.3575, 1178.164
551.8396, 1175.124
552.3217, 1176.214
552.8038, 1182.025
553.2859, 1196.752
553.7681, 1201.729
554.2502, 1187.540
554.7323, 1175.147
555.2144, 1173.858
555.6965, 1179.636
556.1786, 1187.764
556.6608, 1196.813
557.1429, 1199.785
557.6250, 1182.769
558.1071, 1149.245
558.5892, 1128.575
559.0714, 1125.743
559.5535, 1128.646
560.0356, 1131.649
560.5177, 1134.093
560.9998, 1134.414
561.4819, 1133.701
561.9641, 1128.956
562.4462, 1113.168
562.9283, 1096.579
563.4104, 1091.850
563.8925, 1098.536
564.3746, 1106.399
564.8568, 1108.331
565.3389, 1105.035
565.8210, 1097.752
566.3031, 1080.840
566.7852, 1074.262
567.2673, 1094.880
567.7495, 1116.124
568.2316, 1120.238
568.7137, 1109.410
569.1958, 1097.435
569.6779, 1088.335
570.1600, 1082.169
570.6422, 1080.913
571.1243, 1082.817
571.6064, 1081.326
572.0885, 1074.167
572.5706, 1065.801
573.0527, 1061.642
573.5349, 1062.128
574.0170, 1062.612
574.4991, 1062.070
574.9812, 1062.753
575.4633, 1068.486
575.9454, 1074.029
576.4276, 1072.032
576.9097, 1061.533
577.3918, 1050.857
577.8739, 1048.828
578.3560, 1052.642
578.8381, 1053.082
579.3203, 1049.911
579.8024, 1044.140
580.2845, 1035.247
580.7666, 1024.876
581.2487, 1015.746
581.7308, 1007.047
582.2130, 1002.111
582.6951, 1006.102
583.1772, 1009.799
583.6593, 1003.439
584.1414, 992.3526
584.6235, 990.9171
585.1057, 1005.860
585.5878, 1024.035
586.0699, 1021.287
586.5520, 994.8721
587.0341, 980.7451
587.5162, 987.0526
587.9984, 995.0137
588.4805, 993.4021
588.9626, 986.5393
589.4447, 981.1909
589.9268, 978.5522
590.4089, 976.6094
590.8911, 974.0013
591.3732, 971.7504
591.8553, 972.2717
592.3374, 974.9798
592.8195, 975.6560
593.3016, 971.2466
593.7838, 963.5701
594.2659, 958.0652
594.7480, 954.9661
595.2301, 953.5482
595.7122, 954.8261
596.1943, 956.8653
596.6765, 958.5389
597.1586, 960.2261
597.6407, 963.4372
598.1228, 970.4711
598.6049, 975.7503
599.0870, 971.1642
599.5692, 961.1517
600.0513, 958.6697
600.5334, 966.2336
601.0155, 973.6125
601.4976, 971.6716
601.9797, 961.8447
602.4619, 955.8854
602.9440, 958.6841
603.4261, 958.7079
603.9082, 950.1859
604.3903, 942.4903
604.8724, 944.4271
605.3546, 954.3301
605.8367, 962.9634
606.3188, 964.8510
606.8009, 962.8963
607.2830, 960.3621
607.7651, 957.5318
608.2473, 956.8394
608.7294, 959.0983
609.2115, 962.8397
609.6936, 966.7767
610.1757, 970.9166
610.6578, 975.0660
611.1400, 979.1132
611.6221, 983.2900
612.1042, 990.9222
612.5863, 996.6669
613.0684, 992.0685
613.5505, 978.4834
614.0327, 968.2105
614.5148, 972.7010
614.9969, 985.2879
615.4790, 988.3301
615.9611, 981.2869
616.4432, 977.1313
616.9254, 980.4536
617.4075, 986.4137
617.8896, 989.4422
618.3717, 989.4741
618.8538, 991.3992
619.3359, 998.6514
619.8181, 1004.069
620.3002, 1002.828
620.7823, 999.2159
621.2644, 998.2532
621.7465, 1001.072
622.2286, 1006.488
622.7108, 1014.564
623.1929, 1023.917
623.6750, 1028.990
624.1571, 1029.512
624.6392, 1026.912
625.1213, 1019.387
625.6035, 1011.444
626.0856, 1008.070
626.5677, 1008.984
627.0498, 1013.640
627.5319, 1025.916
628.0140, 1037.645
628.4962, 1045.151
628.9783, 1049.259
629.4604, 1051.147
629.9425, 1051.187
630.4246, 1048.947
630.9067, 1042.011
631.3889, 1032.754
631.8710, 1036.773
632.3531, 1058.975
632.8352, 1075.089
633.3173, 1074.747
633.7994, 1068.132
634.2816, 1065.041
634.7637, 1065.420
635.2458, 1070.538
635.7279, 1090.086
636.2100, 1104.499
636.6921, 1095.973
637.1743, 1077.619
637.6564, 1070.827
638.1385, 1080.137
638.6206, 1094.225
639.1027, 1102.268
639.5848, 1105.188
640.0670, 1108.030
640.5491, 1110.314
641.0312, 1114.458
641.5133, 1123.402
641.9954, 1132.278
642.4775, 1133.886
642.9597, 1129.188
643.4418, 1130.803
643.9239, 1148.117
644.4060, 1165.130
644.8881, 1173.762
645.3702, 1176.145
645.8524, 1172.349
646.3345, 1164.255
646.8166, 1161.923
647.2987, 1177.005
647.7808, 1204.274
648.2629, 1217.970
648.7451, 1214.668
649.2272, 1210.885
649.7093, 1209.255
650.1914, 1210.265
650.6735, 1214.941
651.1556, 1222.859
651.6378, 1231.380
652.1199, 1241.807
652.6020, 1250.804
653.0841, 1252.713
653.5662, 1254.307
654.0483, 1266.814
654.5305, 1290.338
655.0126, 1313.887
655.4947, 1328.895
655.9768, 1336.731
656.4589, 1339.806
656.9410, 1336.379
657.4232, 1339.671
657.9053, 1356.395
658.3874, 1374.808
658.8695, 1382.065
659.3516, 1381.270
659.8337, 1386.366
660.3159, 1406.057
660.7980, 1422.567
661.2801, 1424.996
661.7622, 1424.364
662.2443, 1434.751
662.7264, 1454.807
663.2086, 1471.019
663.6907, 1473.373
664.1728, 1469.420
664.6549, 1477.356
665.1370, 1497.736
665.6191, 1510.409
666.1013, 1508.662
666.5834, 1507.633
667.0655, 1519.967
667.5476, 1542.413
668.0297, 1560.195
668.5118, 1569.756
668.9940, 1580.393
669.4761, 1595.250
669.9582, 1610.692
670.4403, 1623.852
670.9224, 1635.170
671.4045, 1647.517
671.8867, 1662.890
672.3688, 1676.073
672.8509, 1676.495
673.3330, 1666.710
673.8151, 1666.317
674.2972, 1678.694
674.7794, 1691.223
675.2615, 1695.371
675.7436, 1695.448
676.2257, 1703.155
676.7078, 1725.418
677.1899, 1740.155
677.6721, 1742.773
678.1542, 1741.867
678.6363, 1743.381
679.1184, 1743.969
679.6005, 1736.145
680.0826, 1717.564
680.5648, 1698.008
681.0469, 1686.404
681.5290, 1680.836
682.0111, 1680.165
682.4932, 1683.573
682.9753, 1677.761
683.4575, 1655.962
683.9396, 1625.200
684.4217, 1594.589
684.9038, 1561.908
685.3859, 1541.758
685.8680, 1549.519
686.3502, 1551.167
686.8323, 1531.981
687.3144, 1506.692
687.7965, 1491.964
688.2786, 1489.088
688.7607, 1485.212
689.2429, 1473.716
689.7250, 1456.989
690.2071, 1435.638
690.6892, 1411.332
691.1713, 1386.708
691.6534, 1362.757
692.1356, 1347.263
692.6177, 1350.765
693.0998, 1369.534
693.5819, 1368.640
694.0640, 1335.518
694.5461, 1310.604
695.0283, 1307.658
695.5104, 1309.531
695.9925, 1306.076
696.4746, 1297.606
696.9567, 1286.214
697.4388, 1269.029
697.9210, 1254.122
698.4031, 1249.279
698.8852, 1247.222
699.3673, 1236.524
699.8494, 1218.497
700.3315, 1205.395
700.8137, 1205.391
701.2958, 1211.022
701.7779, 1204.845
702.2600, 1185.877
702.7421, 1176.830
703.2242, 1183.905
703.7064, 1190.149
704.1885, 1184.991
704.6706, 1172.382
705.1527, 1160.888
705.6348, 1148.064
706.1169, 1143.089
706.5991, 1157.329
707.0812, 1169.632
707.5633, 1164.131
708.0454, 1149.009
708.5275, 1139.047
709.0096, 1138.643
709.4918, 1140.886
709.9739, 1138.884
710.4560, 1134.623
710.9381, 1134.383
711.4202, 1137.828
711.9023, 1137.713
712.3845, 1131.237
712.8666, 1121.096
713.3487, 1109.969
713.8308, 1097.662
714.3129, 1088.520
714.7950, 1082.891
715.2772, 1080.196
715.7593, 1082.636
716.2414, 1086.111
716.7235, 1086.897
717.2056, 1085.473
717.6877, 1085.440
718.1699, 1090.306
718.6520, 1094.060
719.1341, 1091.724
719.6162, 1085.106
720.0983, 1075.355
720.5804, 1063.812
721.0626, 1056.317
721.5447, 1057.493
722.0268, 1062.453
722.5089, 1057.829
722.9910, 1041.248
723.4731, 1031.856
723.9553, 1033.407
724.4374, 1037.794
724.9195, 1043.603
725.4016, 1047.964
725.8837, 1044.508
726.3658, 1030.265
726.8480, 1018.592
727.3301, 1011.082
727.8122, 1007.583
728.2943, 1009.021
728.7764, 1013.995
729.2585, 1022.439
729.7407, 1033.465
730.2228, 1040.422
730.7049, 1034.420
731.1870, 1021.200
731.6691, 1013.107
732.1512, 1009.929
732.6334, 1010.681
733.1155, 1015.755
733.5976, 1020.391
734.0797, 1020.050
734.5618, 1014.800
735.0439, 1004.904
735.5261, 982.0579
736.0082, 968.5336
736.4903, 969.8519
736.9724, 977.9304
737.4545, 992.7950
737.9366, 1010.200
738.4188, 1019.409
738.9009, 1015.278
739.3830, 1008.316
739.8651, 1004.533
740.3472, 1001.017
740.8293, 993.3227
741.3115, 982.6669
741.7936, 972.8489
742.2757, 965.6904
742.7578, 963.2626
743.2399, 972.4547
743.7220, 991.6731
744.2042, 996.7764
744.6863, 984.6606
745.1684, 974.2036
745.6505, 973.5258
746.1326, 976.5413
746.6147, 974.5256
747.0969, 966.4849
747.5790, 962.9048
748.0611, 969.7369
748.5432, 973.0382
749.0253, 968.5800
749.5074, 959.9333
749.9896, 946.7130
750.4717, 931.8505
750.9538, 924.7985
751.4359, 932.4307
751.9180, 944.8771
752.4001, 956.1807
752.8823, 964.7310
753.3644, 966.0503
753.8465, 960.5872
754.3286, 953.7714
754.8107, 948.5833
755.2928, 945.4023
755.7750, 945.6743
756.2571, 949.9610
756.7392, 952.4047
757.2213, 952.5992
757.7034, 951.6774
758.1855, 949.7515
758.6677, 947.2496
759.1498, 944.7431
759.6319, 942.2421
760.1140, 939.7398
760.5961, 936.8251
761.0782, 934.3969
761.5604, 933.2138
762.0425, 932.4119
762.5246, 931.0085
763.0067, 928.9954
763.4888, 927.1021
763.9709, 925.9247
764.4531, 924.7225
764.9352, 921.3348
765.4173, 917.4806
765.8994, 917.9822
766.3815, 923.1696
766.8636, 930.2444
767.3458, 938.1780
767.8279, 943.6978
768.3100, 937.0115
768.7921, 914.0918
769.2742, 904.6041
769.7563, 915.2720
770.2385, 926.0135
770.7206, 928.7120
771.2027, 926.3755
771.6848, 922.7314
772.1669, 917.6296
772.6490, 913.4421
773.1312, 908.9385
773.6133, 907.2341
774.0954, 911.8285
774.5775, 918.3066
775.0596, 923.2917
775.5417, 925.6258
776.0239, 923.5043
776.5060, 914.0756
776.9881, 903.7651
777.4702, 899.6119
777.9523, 900.1157
778.4344, 903.9086
778.9166, 909.7781
779.3987, 910.2421
779.8808, 900.5021
780.3629, 887.3683
780.8450, 884.7728
781.3271, 894.3842
781.8093, 896.5781
782.2914, 886.5339
782.7735, 882.2904
783.2556, 894.5818
783.7377, 912.2904
784.2198, 921.6115
784.7020, 922.4589
785.1841, 920.9517
785.6662, 915.0843
786.1483, 909.7894
786.6304, 903.4789
787.1125, 900.5781
787.5947, 908.7924
788.0768, 923.9893
788.5589, 931.9743
789.0410, 924.8678
789.5231, 915.5277
790.0052, 915.8058
790.4874, 920.3578
790.9695, 920.1981
791.4516, 915.8223
791.9337, 912.5668
792.4158, 912.7153
792.8979, 915.1234
793.3801, 919.9265
793.8622, 926.1354
794.3443, 921.2590
794.8264, 902.2905
795.3085, 892.1242
795.7906, 900.6463
796.2728, 912.9725
796.7549, 914.8444
797.2370, 907.1348
797.7191, 899.2267
798.2012, 886.0643
798.6833, 880.1636
799.1655, 887.8154
799.6476, 897.1755
800.1297, 902.2900
800.6118, 903.9741
801.0939, 905.1586
801.5760, 906.9989
802.0582, 904.7466
802.5403, 892.3372
803.0224, 878.0256
803.5045, 868.0778
803.9866, 862.2623
804.4688, 858.9384
804.9509, 857.9155
805.4330, 861.4905
805.9151, 874.1134
806.3972, 889.1827
806.8793, 890.4156
807.3615, 879.8431
807.8436, 872.7363
808.3257, 871.7515
808.8078, 873.5442
809.2899, 876.7382
809.7720, 879.4043
810.2542, 875.2134
810.7363, 858.9512
811.2184, 856.0052
811.7005, 878.7500
812.1826, 894.5421
812.6647, 882.6133
813.1469, 862.7867
813.6290, 859.8235
814.1111, 873.8302
814.5932, 880.9929
815.0753, 874.1687
815.5574, 864.6734
816.0396, 849.6076
816.5217, 838.8041
817.0038, 844.3535
817.4859, 862.1771
817.9680, 878.7954
818.4501, 889.2651
818.9323, 893.9739
819.4144, 891.8342
819.8965, 885.0314
820.3786, 872.5190
820.8607, 858.1877
821.3428, 856.3011
821.8250, 871.4491
822.3071, 891.0731
822.7892, 903.1888
823.2713, 907.3398
823.7534, 897.4778
824.2355, 872.2913
824.7177, 860.8623
825.1998, 872.1365
825.6819, 886.5301
826.1640, 890.0900
826.6461, 884.8826
827.1282, 877.1231
827.6104, 861.9270
828.0925, 855.5783
828.5746, 865.8043
829.0567, 875.4658
829.5388, 878.3315
830.0209, 877.3994
830.5031, 875.9302
830.9852, 874.1578
831.4673, 871.6877
831.9494, 868.5535
832.4315, 864.5447
832.9136, 855.9893
833.3958, 849.1188
833.8779, 853.3151
834.3600, 865.1344
834.8421, 871.2623
835.3242, 864.7037
835.8063, 857.1647
836.2885, 860.5266
836.7706, 869.4051
837.2527, 876.1733
837.7348, 880.2726
838.2169, 881.5745
838.6990, 880.1532
839.1812, 877.6686
839.6633, 875.9026
840.1454, 874.4446
840.6275, 870.8961
841.1096, 865.1522
841.5917, 863.5068
842.0739, 867.9485
842.5560, 872.6309
843.0381, 874.6044
843.5202, 872.7066
844.0023, 862.3106
844.4844, 835.9152
844.9666, 826.8176
845.4487, 848.0082
845.9308, 867.1218
846.4129, 872.2237
846.8950, 871.0675
847.3771, 870.4022
847.8593, 870.2902
848.3414, 869.5178
848.8235, 866.2599
849.3056, 864.5658
849.7877, 868.0106
850.2698, 871.2102
850.7520, 868.3477
851.2341, 862.2813
851.7162, 859.6567
852.1983, 862.5762
852.6804, 867.6686
853.1625, 877.6179
853.6447, 884.5402
854.1268, 876.5988
854.6089, 860.2451
855.0910, 848.9285
855.5731, 845.0343
856.0552, 841.9667
856.5374, 834.0292
857.0195, 826.8109
857.5016, 832.1255
857.9837, 847.0684
858.4658, 859.5946
858.9479, 868.4377
859.4301, 873.2591
859.9122, 873.6412
860.3943, 872.0262
860.8764, 872.2752
861.3585, 874.1762
861.8406, 870.8508
862.3228, 859.8062
862.8049, 853.5065
863.2870, 855.8635
863.7691, 861.4128
864.2512, 867.4781
864.7333, 872.9141
865.2155, 872.8994
865.6976, 859.2933
866.1797, 857.3467
866.6618, 881.1862
867.1439, 899.3279
867.6260, 896.8528
868.1082, 885.5287
868.5903, 878.6634
869.0724, 876.8019
869.5545, 872.4579
870.0366, 857.0093
870.5187, 847.5038
871.0009, 855.9920
871.4830, 868.6396
871.9651, 874.9489
872.4472, 874.6875
872.9293, 868.8004
873.4114, 857.2493
873.8936, 848.5629
874.3757, 850.0027
874.8578, 856.5637
875.3399, 864.5116
875.8220, 872.6241
876.3041, 879.8890
876.7863, 885.3865
877.2684, 885.4460
877.7505, 876.5657
878.2326, 865.1917
878.7147, 862.0546
879.1968, 865.3384
879.6790, 868.2813
880.1611, 870.5165
880.6432, 875.3386
881.1253, 884.3972
881.6074, 890.6597
882.0895, 884.3326
882.5717, 868.3113
883.0538, 861.3354
883.5359, 864.4228
884.0180, 869.9281
884.5001, 878.0773
884.9822, 883.4171
885.4644, 881.2682
885.9465, 875.2402
886.4286, 872.9939
886.9107, 874.6791
887.3928, 879.8021
887.8749, 892.6713
888.3571, 901.9878
888.8392, 904.1558
889.3213, 902.1335
889.8034, 896.6393
890.2855, 888.8671
890.7676, 884.2881
891.2498, 884.6342
891.7319, 885.7305
892.2140, 887.3262
892.6961, 889.2023
893.1782, 891.7368
893.6603, 894.2270
894.1425, 895.4586
894.6246, 895.4131
895.1067, 895.8820
895.5888, 897.3381
896.0709, 899.7753
896.5530, 903.0320
897.0352, 907.4029
897.5173, 913.5231
897.9994, 920.9663
898.4815, 930.0402
898.9636, 940.9064
899.4457, 946.9152
899.9279, 938.5424
900.4100, 925.6707
900.8921, 919.5441
901.3742, 918.7374
901.8563, 921.4056
902.3384, 925.9795
902.8206, 927.1320
903.3027, 920.8860
903.7848, 913.7493
904.2669, 917.1171
904.7490, 927.1152
905.2311, 930.7988
905.7133, 928.5482
906.1954, 927.5230
906.6775, 930.0663
907.1596, 935.2407
907.6417, 943.1409
908.1238, 951.3000
908.6060, 950.0035
909.0881, 939.1554
909.5702, 933.0140
910.0523, 933.1942
910.5344, 937.6005
911.0165, 946.1912
911.4987, 955.6047
911.9808, 961.3994
912.4629, 963.5406
912.9450, 960.4523
913.4271, 950.0172
913.9092, 940.7200
914.3914, 932.5522
914.8735, 928.7697
915.3556, 933.8351
915.8377, 943.2819
916.3198, 946.4290
916.8019, 940.7402
917.2841, 938.3353
917.7662, 943.1879
918.2483, 945.6955
918.7304, 940.1428
919.2125, 934.4413
919.6946, 937.3506
920.1768, 945.5455
920.6589, 945.6305
921.1410, 928.5098
921.6231, 921.3492
922.1052, 939.8002
922.5873, 955.4005
923.0695, 950.4153
923.5516, 938.4829
924.0337, 937.5607
924.5158, 947.1383
924.9979, 950.8241
925.4800, 936.9733
925.9622, 927.6041
926.4443, 936.6129
926.9264, 948.9885
927.4085, 953.1154
927.8906, 951.7482
928.3727, 951.0624
928.8549, 952.4053
929.3370, 953.4615
929.8191, 954.0063
930.3012, 952.5662
930.7833, 946.2621
931.2654, 938.5291
931.7476, 932.5198
932.2297, 929.1521
932.7118, 929.1171
933.1939, 932.6635
933.6760, 939.9532
934.1581, 958.0502
934.6403, 974.3757
935.1224, 967.6575
935.6045, 948.3486
936.0866, 937.5699
936.5687, 937.5554
937.0508, 940.3352
937.5330, 941.8138
938.0151, 942.8419
938.4972, 943.0616
938.9793, 944.1766
939.4614, 954.0745
939.9435, 968.7586
940.4257, 969.6880
940.9078, 954.2235
941.3899, 939.6027
941.8720, 937.7038
942.3541, 945.0107
942.8362, 959.2049
943.3184, 977.5299
943.8005, 985.2078
944.2826, 982.0479
944.7647, 971.5997
945.2468, 954.6368
945.7289, 943.8745
946.2111, 952.7469
946.6932, 971.6305
947.1753, 971.0381
947.6574, 951.1011
948.1395, 940.2425
948.6216, 940.6922
949.1038, 946.0592
949.5859, 954.6783
950.0680, 963.2252
950.5501, 967.5840
951.0322, 968.8671
951.5143, 974.0380
951.9965, 984.6357
952.4786, 988.6332
952.9607, 983.6991
953.4428, 975.8824
953.9249, 966.0168
954.4070, 958.9954
954.8892, 962.6782
955.3713, 976.3190
955.8534, 983.3676
956.3355, 981.2356
956.8176, 980.7153
957.2997, 984.9702
957.7819, 986.9146
958.2640, 981.5310
958.7461, 972.8523
959.2282, 967.1738
959.7103, 964.5469
960.1924, 964.1694
960.6746, 968.1149
961.1567, 969.9807
961.6388, 966.1335
962.1209, 963.7740
962.6030, 968.8795
963.0851, 977.6148
963.5673, 982.5345
964.0494, 983.1153
964.5315, 982.7144
965.0136, 984.6871
965.4957, 980.7866
965.9778, 957.5317
966.4600, 939.7469
966.9421, 949.8321
967.4242, 975.5426
967.9063, 989.2330
968.3884, 988.5623
968.8705, 982.6810
969.3527, 960.3297
969.8348, 948.4812
970.3169, 965.0655
970.7990, 984.4243
971.2811, 984.2675
971.7632, 971.6918
972.2454, 966.6515
972.7275, 971.9037
973.2096, 981.3759
973.6917, 1004.929
974.1738, 1019.012
974.6559, 1007.341
975.1381, 989.3883
975.6202, 981.5609
976.1023, 982.2338
976.5844, 983.3087
977.0665, 983.3337
977.5486, 984.3161
978.0308, 988.0425
978.5129, 991.1801
978.9950, 993.5308
979.4771, 993.6041
979.9592, 987.9534
980.4413, 978.7420
980.9235, 973.0193
981.4056, 971.6753
981.8877, 975.9025
982.3698, 994.7643
982.8519, 1009.086
983.3340, 1002.926
983.8162, 991.6443
984.2983, 995.5311
984.7804, 1010.699
985.2625, 1014.812
985.7446, 996.3566
986.2267, 983.4768
986.7089, 993.5778
987.1910, 1003.858
987.6731, 1000.274
988.1552, 989.9279
988.6373, 977.5671
989.1194, 966.7632
989.6016, 968.2960
990.0837, 992.8174
990.5658, 1007.834
991.0479, 988.8701
991.5300, 968.2608
992.0121, 967.8703
992.4943, 977.1489
992.9764, 984.2276
993.4585, 987.1028
993.9406, 985.9315
994.4227, 978.9297
994.9048, 973.2964
995.3870, 972.1720
995.8691, 973.5642
996.3512, 979.6224
996.8333, 985.1376
997.3154, 982.1104
997.7975, 971.9313
998.2797, 963.9967
998.7618, 961.1225
999.2439, 962.0093
999.7260, 973.5073
1000.208, 980.5932
1000.690, 963.8256
1001.172, 942.1443
1001.654, 942.9819
1002.137, 963.7128
1002.619, 979.5179
1003.101, 981.5633
1003.583, 978.8221
1004.065, 972.9559
1004.547, 966.5275
1005.029, 958.4324
1005.511, 952.7384
1005.994, 956.7067
1006.476, 968.1435
1006.958, 976.2512
1007.440, 976.5865
1007.922, 976.0443
1008.404, 980.9535
1008.886, 982.5059
1009.368, 968.4578
1009.850, 952.1762
1010.333, 951.8572
1010.815, 965.1260
1011.297, 975.7364
1011.779, 978.3585
1012.261, 979.5023
1012.743, 983.9546
1013.225, 985.5469
1013.707, 976.6838
1014.190, 965.7161
1014.672, 963.3102
1015.154, 967.6333
1015.636, 968.5876
1016.118, 962.0872
1016.600, 957.9560
1017.082, 963.5060
1017.564, 968.2144
1018.046, 965.5807
1018.529, 959.8510
1019.011, 953.2683
1019.493, 947.8754
1019.975, 948.7990
1020.457, 959.0470
1020.939, 966.1981
1021.421, 960.7053
1021.903, 958.0959
1022.385, 973.4196
1022.868, 988.2041
1023.350, 979.8290
1023.832, 957.7233
1024.314, 950.2360
1024.796, 965.9127
1025.278, 973.9249
1025.760, 957.4722
1026.242, 943.5764
1026.725, 947.4332
1027.207, 953.0488
1027.689, 944.4594
1028.171, 928.4943
1028.653, 921.5533
1029.135, 926.7938
1029.617, 931.9388
1030.099, 935.8262
1030.582, 937.8899
1031.064, 938.8612
1031.546, 937.0865
1032.028, 926.1058
1032.510, 913.7944
1032.992, 917.1860
1033.474, 939.3240
1033.956, 949.8773
1034.438, 937.1225
1034.921, 925.2741
1035.403, 916.5669
1035.885, 911.5089
1036.367, 915.3578
1036.849, 920.4289
1037.331, 911.2485
1037.813, 886.8150
1038.295, 879.8126
1038.777, 910.3574
1039.260, 925.9847
1039.742, 911.9211
1040.224, 897.8748
1040.706, 898.2213
1041.188, 903.9875
1041.670, 904.6448
1042.152, 900.6724
1042.634, 897.4974
1043.116, 897.0254
1043.599, 892.7335
1044.081, 879.7903
1044.563, 871.8235
1045.045, 875.7568
1045.527, 884.0287
1046.009, 889.6968
1046.491, 892.9863
1046.973, 894.9783
1047.456, 895.6825
1047.938, 895.0032
1048.420, 892.6320
1048.902, 889.4821
1049.384, 884.9216
1049.866, 882.2214
1050.348, 885.0326
1050.830, 890.6096
1051.313, 891.5487
1051.795, 887.5809
1052.277, 880.7004
1052.759, 869.8022
1053.241, 863.0186
1053.723, 862.1381
1054.205, 867.6849
1054.687, 882.1194
1055.169, 896.3057
1055.651, 891.5286
1056.134, 869.8784
1056.616, 856.1318
1057.098, 850.1790
1057.580, 846.5279
1058.062, 844.2386
1058.544, 844.0392
1059.026, 846.3082
1059.508, 851.0729
1059.991, 859.9211
1060.473, 869.9808
1060.955, 870.3816
1061.437, 862.7882
1061.919, 855.1074
1062.401, 848.7037
1062.883, 845.9183
1063.365, 847.5758
1063.848, 852.0063
1064.330, 859.0771
1064.812, 864.8451
1065.294, 859.9301
1065.776, 848.7671
1066.258, 842.3629
1066.740, 840.0719
1067.222, 835.6382
1067.704, 827.9835
1068.187, 823.0269
1068.669, 825.7388
1069.151, 829.2685
1069.633, 823.8460
1070.115, 815.9909
1070.597, 816.2402
1071.079, 820.6218
1071.561, 819.0267
1072.043, 811.9333
1072.526, 809.4660
1073.008, 816.8354
1073.490, 824.6900
1073.972, 828.4391
1074.454, 827.5087
1074.936, 816.8080
1075.418, 804.5334
1075.900, 802.6595
1076.383, 807.6837
1076.865, 805.2828
1077.347, 791.1615
1077.829, 786.7045
1078.311, 811.7526
1078.793, 834.5331
1079.275, 843.3021
1079.757, 841.6919
1080.240, 826.0287
1080.722, 805.3212
1081.204, 793.5851
1081.686, 792.1204
1082.168, 791.7001
1082.650, 787.4387
1083.132, 789.0841
1083.614, 805.1714
1084.096, 818.9861
1084.578, 823.9087
1085.061, 822.0677
1085.543, 812.3336
1086.025, 797.4034
1086.507, 790.4958
1086.989, 795.2599
1087.471, 798.3696
1087.953, 798.7328
1088.435, 799.8403
1088.918, 803.8903
1089.400, 806.4255
1089.882, 803.7383
1090.364, 797.7241
1090.846, 791.4872
1091.328, 784.7180
1091.810, 788.7612
1092.292, 806.6674
1092.775, 814.5168
1093.257, 807.1016
1093.739, 798.8026
1094.221, 797.0388
1094.703, 796.5316
1095.185, 789.5928
1095.667, 779.5014
1096.149, 779.9704
1096.631, 789.3196
1097.114, 795.8925
1097.596, 798.2701
1098.078, 791.3917
1098.560, 774.5792
1099.042, 763.1813
1099.524, 770.8534
1100.006, 784.4438
1100.488, 781.4588
1100.970, 770.9572
1101.453, 774.4637
1101.935, 785.5473
1102.417, 783.8527
1102.899, 769.3879
1103.381, 760.3337
1103.863, 765.6655
1104.345, 769.8921
1104.827, 753.2465
1105.310, 737.1951
1105.792, 746.8488
1106.274, 764.5275
1106.756, 768.6813
1107.238, 762.4212
1107.720, 756.1671
1108.202, 752.5956
1108.684, 753.0321
1109.167, 763.3237
1109.649, 769.6647
1110.131, 765.0116
1110.613, 756.9975
1111.095, 746.0923
1111.577, 737.3692
1112.059, 739.7773
1112.541, 750.4516
1113.023, 752.6028
1113.505, 738.3301
1113.988, 731.6792
1114.470, 739.4620
1114.952, 745.1716
1115.434, 744.7296
1115.916, 741.6326
1116.398, 736.4897
1116.880, 732.0327
1117.362, 734.0716
1117.845, 742.6570
1118.327, 747.5138
1118.809, 748.0665
1119.291, 748.1259
1119.773, 748.1877
1120.255, 747.1076
1120.737, 744.1601
1121.219, 741.1239
1121.702, 738.9962
1122.184, 740.1293
1122.666, 757.0488
1123.148, 783.3604
1123.630, 780.9167
1124.112, 754.2295
1124.594, 736.1162
1125.076, 733.3810
1125.558, 733.3941
1126.041, 729.1230
1126.523, 722.7117
1127.005, 710.7264
1127.487, 703.1252
1127.969, 722.7170
1128.451, 750.7204
1128.933, 755.6982
1129.415, 742.0770
1129.897, 727.4324
1130.380, 717.6480
1130.862, 718.2704
1131.344, 739.8740
1131.826, 758.6044
1132.308, 760.2005
1132.790, 756.8497
1133.272, 757.8931
1133.754, 758.0918
1134.237, 747.1474
1134.719, 728.9313
1135.201, 721.1971
1135.683, 730.5914
1136.165, 734.8962
1136.647, 725.5381
1137.129, 721.3815
1137.611, 729.3095
1138.094, 737.7354
1138.576, 740.2344
1139.058, 739.5508
1139.540, 740.9887
1140.022, 743.2060
1140.504, 729.8228
1140.986, 696.1991
1141.468, 684.8192
1141.950, 700.2798
1142.432, 717.7833
1142.915, 729.7355
1143.397, 735.6801
1143.879, 734.5893
1144.361, 730.6545
1144.843, 731.6611
1145.325, 735.6023
1145.807, 737.7498
1146.289, 737.2628
1146.772, 729.5048
1147.254, 716.4179
1147.736, 707.3743
1148.218, 705.8502
1148.700, 707.6788
1149.182, 710.6579
1149.664, 714.2413
1150.146, 719.0343
1150.629, 723.1277
1151.111, 726.4480
1151.593, 726.6493
1152.075, 716.6993
1152.557, 700.1203
1153.039, 693.4463
1153.521, 703.2591
1154.003, 712.7479
1154.485, 722.4717
1154.968, 725.3169
1155.450, 708.8452
1155.932, 696.4039
1156.414, 706.9503
1156.896, 726.1160
1157.378, 732.7473
1157.860, 728.0394
1158.342, 726.0189
1158.824, 727.0615
1159.307, 729.9407
1159.789, 735.7100
1160.271, 735.5644
1160.753, 725.9966
1161.235, 717.3896
1161.717, 717.3898
1162.199, 721.9731
1162.681, 725.8413
1163.164, 728.1181
1163.646, 724.1552
1164.128, 716.3692
1164.610, 712.7870
1165.092, 713.4448
1165.574, 714.3317
1166.056, 714.1184
1166.538, 713.7437
1167.021, 713.3974
1167.503, 714.2220
1167.985, 719.9745
1168.467, 724.3934
1168.949, 718.5474
1169.431, 710.4337
1169.913, 711.5677
1170.395, 719.3589
1170.877, 724.0515
1171.359, 724.1076
1171.842, 719.5126
1172.324, 703.9592
1172.806, 693.5234
1173.288, 694.0107
1173.770, 694.7237
1174.252, 687.5590
1174.734, 684.3228
1175.216, 700.9799
1175.699, 728.6620
1176.181, 733.5547
1176.663, 712.9784
1177.145, 710.7626
1177.627, 727.5087
1178.109, 733.6053
1178.591, 723.8062
1179.073, 714.2899
1179.556, 712.9354
1180.038, 714.8893
1180.520, 715.9752
1181.002, 715.5634
1181.484, 710.4821
1181.966, 704.5911
1182.448, 706.5467
1182.930, 712.2888
1183.412, 712.6075
1183.895, 706.9270
1184.377, 699.6886
1184.859, 691.9363
1185.341, 687.2973
1185.823, 689.2636
1186.305, 692.1844
1186.787, 692.7363
1187.269, 694.4305
1187.751, 702.3688
1188.234, 711.2330
1188.716, 712.9056
1189.198, 708.5594
1189.680, 705.1926
1190.162, 701.9272
1190.644, 703.7383
1191.126, 712.9886
1191.608, 716.2692
1192.091, 709.9333
1192.573, 701.6650
1193.055, 695.3680
1193.537, 693.1137
1194.019, 698.7902
1194.501, 708.3973
1194.983, 711.9825
1195.465, 711.6580
1195.948, 711.9052
1196.430, 713.6458
1196.912, 721.3851
1197.394, 732.7520
1197.876, 732.4988
1198.358, 712.4203
1198.840, 695.9226
1199.322, 703.3680
1199.804, 711.1827
1200.286, 701.3561
1200.769, 691.2934
1201.251, 696.4391
1201.733, 709.2395
1202.215, 720.1390
1202.697, 727.6489
1203.179, 726.1802
1203.661, 708.4507
1204.143, 706.9337
1204.626, 730.1096
1205.108, 740.7056
1205.590, 728.5876
1206.072, 715.2539
1206.554, 711.8412
1207.036, 714.7870
1207.518, 720.8334
1208.000, 728.2551
1208.483, 735.6608
1208.965, 739.9152
1209.447, 727.0159
1209.929, 703.7948
1210.411, 690.2565
1210.893, 689.1000
1211.375, 694.7554
1211.857, 705.1862
1212.339, 713.3485
1212.822, 712.4352
1213.304, 711.5218
1213.786, 717.5190
1214.268, 722.8658
1214.750, 724.4111
1215.232, 720.7007
1215.714, 703.2814
1216.196, 679.9180
1216.678, 680.3663
1217.161, 710.9705
1217.643, 725.1403
1218.125, 718.1473
1218.607, 715.6332
1219.089, 722.1977
1219.571, 724.8516
1220.053, 717.7993
1220.535, 710.8387
1221.018, 713.1321
1221.500, 719.8625
1221.982, 723.1390
1222.464, 724.2830
1222.946, 727.3992
1223.428, 729.8660
1223.910, 724.2594
1224.392, 713.1863
1224.875, 705.7670
1225.357, 704.2894
1225.839, 704.6603
1226.321, 707.0771
1226.803, 707.3007
1227.285, 701.2811
##END=



