##NAMES=Hastingsite
##RRUFFID=R070250
##IDEAL CHEMISTRY=NaCa_2_(Fe^2+^_4_Fe^3+^)(Si_6_Al_2_)O_22_(OH)_2_
##LOCALITY=unnamed quarry, Dmitrievka village, Mariupol' Massif (Oktyabr'skii), Azov Sea Region, Donetsk Oblast', Ukraine
##OWNER=RRUFF
##SOURCE=Michael Scott
##DESCRIPTION=Dark green to black crystals exhibiting typical amphibole cleavage
##STATUS=The identification of this mineral is confirmed by single-crystal X-ray diffraction and chemical analysis.
##URL=rruff.info/R070250
##MEASURED CHEMISTRY=([box]_0.38_Na_0.34_K_0.28_)_Σ=1_(Ca_1.70_Na_0.30_)_Σ=2_((Fe^2+^_2.99_Mg_0.81_Mn_0.07_)_Σ=3.87_(Fe^3+^_0.75_Ti_0.22_Al_0.16_)_Σ=1.13_)_Σ=5_(Si_6.33_Al_1.67_)O_22_((OH)_1.57_F_0.37_Cl_0.06_)_Σ=2_; (OH) estimated by difference
161.7148, 3204.443
162.1969, 3237.612
162.6790, 3277.634
163.1611, 3305.934
163.6432, 3303.918
164.1253, 3298.896
164.6075, 3307.125
165.0896, 3329.253
165.5717, 3349.520
166.0538, 3355.753
166.5359, 3355.175
167.0180, 3358.147
167.5002, 3371.773
167.9823, 3388.822
168.4644, 3404.257
168.9465, 3417.686
169.4286, 3429.667
169.9107, 3439.604
170.3929, 3448.297
170.8750, 3457.693
171.3571, 3471.103
171.8392, 3484.608
172.3213, 3492.343
172.8034, 3491.305
173.2856, 3491.724
173.7677, 3505.538
174.2498, 3529.629
174.7319, 3553.011
175.2140, 3573.570
175.6961, 3588.278
176.1783, 3590.672
176.6604, 3575.685
177.1425, 3555.033
177.6246, 3539.792
178.1067, 3530.351
178.5888, 3528.316
179.0710, 3538.708
179.5531, 3557.402
180.0352, 3576.057
180.5173, 3595.010
180.9994, 3610.388
181.4815, 3611.830
181.9637, 3599.799
182.4458, 3588.401
182.9279, 3590.660
183.4100, 3603.871
183.8921, 3617.748
184.3742, 3628.674
184.8564, 3638.709
185.3385, 3654.965
185.8206, 3678.377
186.3027, 3698.344
186.7848, 3698.667
187.2669, 3682.559
187.7491, 3674.894
188.2312, 3691.815
188.7133, 3724.187
189.1954, 3735.015
189.6775, 3720.679
190.1596, 3700.639
190.6418, 3702.136
191.1239, 3724.508
191.6060, 3740.840
192.0881, 3734.656
192.5702, 3709.550
193.0524, 3697.791
193.5345, 3701.133
194.0166, 3713.237
194.4987, 3726.012
194.9808, 3739.566
195.4629, 3752.246
195.9451, 3762.411
196.4272, 3770.265
196.9093, 3780.042
197.3914, 3792.535
197.8735, 3805.918
198.3556, 3817.179
198.8378, 3826.352
199.3199, 3833.034
199.8020, 3834.230
200.2841, 3828.998
200.7662, 3833.982
201.2483, 3854.616
201.7305, 3881.890
202.2126, 3891.503
202.6947, 3879.349
203.1768, 3864.858
203.6589, 3859.701
204.1410, 3865.038
204.6232, 3871.511
205.1053, 3877.427
205.5874, 3884.335
206.0695, 3899.556
206.5516, 3927.093
207.0337, 3952.430
207.5159, 3964.304
207.9980, 3959.487
208.4801, 3955.506
208.9622, 3954.338
209.4443, 3955.630
209.9264, 3957.842
210.4086, 3961.259
210.8907, 3965.032
211.3728, 3967.890
211.8549, 3968.671
212.3370, 3973.263
212.8191, 3985.767
213.3013, 4003.973
213.7834, 4007.392
214.2655, 3987.331
214.7476, 3966.435
215.2297, 3966.606
215.7118, 3997.164
216.1940, 4022.957
216.6761, 4037.185
217.1582, 4040.388
217.6403, 4041.586
218.1224, 4037.535
218.6045, 4035.775
219.0867, 4046.731
219.5688, 4081.294
220.0509, 4101.746
220.5330, 4094.035
221.0151, 4057.087
221.4972, 4040.698
221.9794, 4055.431
222.4615, 4078.748
222.9436, 4084.791
223.4257, 4061.417
223.9078, 4046.181
224.3899, 4051.420
224.8721, 4079.781
225.3542, 4093.762
225.8363, 4086.520
226.3184, 4071.522
226.8005, 4064.402
227.2827, 4067.374
227.7648, 4074.286
228.2469, 4084.671
228.7290, 4099.210
229.2111, 4111.990
229.6932, 4124.500
230.1754, 4133.898
230.6575, 4135.334
231.1396, 4122.343
231.6217, 4113.032
232.1038, 4114.983
232.5859, 4132.621
233.0681, 4136.208
233.5502, 4115.750
234.0323, 4088.440
234.5144, 4079.811
234.9965, 4098.783
235.4786, 4121.830
235.9608, 4144.701
236.4429, 4170.114
236.9250, 4180.152
237.4071, 4164.288
237.8892, 4139.503
238.3713, 4133.444
238.8535, 4155.149
239.3356, 4180.616
239.8177, 4203.874
240.2998, 4226.606
240.7819, 4240.470
241.2640, 4243.617
241.7462, 4239.201
242.2283, 4231.926
242.7104, 4218.790
243.1925, 4207.729
243.6746, 4201.447
244.1567, 4200.808
244.6389, 4201.889
245.1210, 4203.809
245.6031, 4207.935
246.0852, 4217.473
246.5673, 4236.384
247.0494, 4254.011
247.5316, 4267.284
248.0137, 4276.934
248.4958, 4278.956
248.9779, 4269.103
249.4600, 4253.992
249.9421, 4246.092
250.4243, 4247.310
250.9064, 4252.215
251.3885, 4259.470
251.8706, 4270.231
252.3527, 4279.913
252.8348, 4289.732
253.3170, 4297.731
253.7991, 4299.562
254.2812, 4292.796
254.7633, 4284.419
255.2454, 4275.394
255.7275, 4262.946
256.2097, 4261.561
256.6918, 4276.668
257.1739, 4299.117
257.6560, 4311.600
258.1381, 4310.149
258.6202, 4306.887
259.1024, 4305.879
259.5845, 4307.089
260.0666, 4311.272
260.5487, 4320.642
261.0308, 4331.287
261.5129, 4334.814
261.9951, 4326.533
262.4772, 4322.334
262.9593, 4330.464
263.4414, 4355.148
263.9235, 4372.070
264.4056, 4379.633
264.8878, 4381.079
265.3699, 4381.594
265.8520, 4380.438
266.3341, 4380.518
266.8162, 4384.206
267.2983, 4392.872
267.7805, 4394.796
268.2626, 4385.968
268.7447, 4374.852
269.2268, 4378.816
269.7089, 4403.322
270.1910, 4423.170
270.6732, 4424.864
271.1553, 4405.147
271.6374, 4401.579
272.1195, 4420.072
272.6016, 4446.056
273.0837, 4452.533
273.5659, 4434.862
274.0480, 4421.735
274.5301, 4428.298
275.0122, 4455.657
275.4943, 4467.159
275.9764, 4457.570
276.4586, 4441.974
276.9407, 4444.456
277.4228, 4466.933
277.9049, 4490.437
278.3870, 4509.677
278.8691, 4524.470
279.3513, 4527.977
279.8334, 4516.753
280.3155, 4503.106
280.7976, 4506.068
281.2798, 4526.415
281.7619, 4544.711
282.2440, 4553.588
282.7261, 4553.944
283.2082, 4551.333
283.6903, 4544.810
284.1725, 4538.803
284.6546, 4538.973
285.1367, 4545.172
285.6188, 4553.769
286.1009, 4565.343
286.5830, 4578.455
287.0652, 4586.759
287.5473, 4589.915
288.0294, 4589.859
288.5115, 4586.486
288.9936, 4580.526
289.4757, 4578.069
289.9579, 4581.879
290.4400, 4590.437
290.9221, 4601.801
291.4042, 4616.459
291.8863, 4627.799
292.3684, 4624.036
292.8506, 4609.502
293.3327, 4603.245
293.8148, 4615.338
294.2969, 4636.992
294.7790, 4651.952
295.2611, 4660.248
295.7433, 4665.087
296.2254, 4668.414
296.7075, 4670.500
297.1896, 4672.393
297.6717, 4676.791
298.1538, 4679.148
298.6360, 4667.752
299.1181, 4644.010
299.6002, 4625.783
300.0823, 4631.282
300.5644, 4651.370
301.0465, 4668.833
301.5287, 4678.530
302.0108, 4684.567
302.4929, 4690.393
302.9750, 4696.148
303.4571, 4702.311
303.9392, 4717.083
304.4214, 4730.180
304.9035, 4725.212
305.3856, 4687.459
305.8677, 4648.321
306.3498, 4636.212
306.8319, 4646.455
307.3141, 4662.512
307.7962, 4678.631
308.2783, 4693.855
308.7604, 4707.146
309.2425, 4717.124
309.7246, 4727.113
310.2068, 4740.526
310.6889, 4755.810
311.1710, 4769.084
311.6531, 4787.784
312.1352, 4798.118
312.6173, 4784.436
313.0995, 4733.181
313.5816, 4690.967
314.0637, 4683.151
314.5458, 4699.237
315.0279, 4719.215
315.5100, 4742.029
315.9922, 4761.743
316.4743, 4774.316
316.9564, 4777.771
317.4385, 4780.362
317.9206, 4785.486
318.4027, 4791.221
318.8849, 4794.878
319.3670, 4793.420
319.8491, 4791.799
320.3312, 4791.078
320.8133, 4790.917
321.2954, 4794.390
321.7776, 4807.000
322.2597, 4821.668
322.7418, 4830.855
323.2239, 4831.080
323.7060, 4828.117
324.1881, 4819.227
324.6703, 4802.979
325.1524, 4799.171
325.6345, 4825.793
326.1166, 4856.620
326.5987, 4870.612
327.0808, 4844.361
327.5630, 4828.792
328.0451, 4835.486
328.5272, 4862.982
329.0093, 4879.483
329.4914, 4881.069
329.9735, 4874.941
330.4557, 4864.184
330.9378, 4838.032
331.4199, 4826.750
331.9020, 4839.242
332.3841, 4869.453
332.8662, 4886.747
333.3484, 4883.053
333.8305, 4878.431
334.3126, 4885.447
334.7947, 4910.392
335.2768, 4926.995
335.7589, 4931.876
336.2411, 4928.823
336.7232, 4927.231
337.2053, 4927.493
337.6874, 4928.098
338.1695, 4929.443
338.6516, 4932.198
339.1338, 4927.370
339.6159, 4910.148
340.0980, 4892.788
340.5801, 4901.940
341.0622, 4941.431
341.5443, 4972.869
342.0265, 4974.901
342.5086, 4951.720
342.9907, 4945.316
343.4728, 4958.795
343.9549, 4977.095
344.4370, 4980.035
344.9192, 4969.263
345.4013, 4960.320
345.8834, 4957.384
346.3655, 4960.603
346.8476, 4973.635
347.3297, 4996.788
347.8119, 5019.354
348.2940, 5034.744
348.7761, 5041.785
349.2582, 5034.880
349.7403, 5001.216
350.2225, 4964.323
350.7046, 4963.787
351.1867, 4995.349
351.6688, 5026.208
352.1509, 5027.580
352.6331, 5014.507
353.1152, 5010.777
353.5973, 5026.559
354.0794, 5043.685
354.5615, 5040.017
355.0436, 5023.075
355.5258, 5015.742
356.0079, 5045.669
356.4900, 5082.349
356.9721, 5096.690
357.4542, 5078.150
357.9363, 5057.910
358.4185, 5048.611
358.9006, 5049.945
359.3827, 5061.371
359.8648, 5097.333
360.3469, 5131.721
360.8290, 5150.877
361.3112, 5152.556
361.7933, 5146.902
362.2754, 5131.364
362.7575, 5112.358
363.2396, 5096.790
363.7217, 5079.186
364.2039, 5072.407
364.6860, 5088.158
365.1681, 5126.780
365.6502, 5148.543
366.1323, 5132.955
366.6144, 5108.987
367.0966, 5096.554
367.5787, 5105.719
368.0608, 5115.179
368.5429, 5126.841
369.0250, 5138.806
369.5071, 5139.731
369.9893, 5113.038
370.4714, 5094.499
370.9535, 5105.538
371.4356, 5171.409
371.9177, 5207.542
372.3998, 5201.633
372.8820, 5171.126
373.3641, 5154.601
373.8462, 5155.892
374.3283, 5161.209
374.8104, 5164.268
375.2925, 5164.259
375.7747, 5174.093
376.2568, 5198.013
376.7389, 5223.538
377.2210, 5229.984
377.7031, 5215.593
378.1852, 5208.110
378.6674, 5220.753
379.1495, 5246.844
379.6316, 5255.931
380.1137, 5246.429
380.5958, 5233.596
381.0779, 5229.335
381.5601, 5233.336
382.0422, 5245.482
382.5243, 5270.258
383.0064, 5297.571
383.4885, 5310.027
383.9706, 5309.002
384.4528, 5303.825
384.9349, 5299.212
385.4170, 5295.006
385.8991, 5291.202
386.3812, 5288.236
386.8633, 5284.112
387.3455, 5273.125
387.8276, 5259.367
388.3097, 5252.082
388.7918, 5260.094
389.2739, 5273.919
389.7560, 5286.816
390.2382, 5298.302
390.7203, 5308.365
391.2024, 5318.965
391.6845, 5327.453
392.1666, 5330.867
392.6487, 5325.571
393.1309, 5317.384
393.6130, 5301.838
394.0951, 5280.957
394.5772, 5277.365
395.0593, 5319.825
395.5414, 5366.837
396.0236, 5392.013
396.5057, 5366.688
396.9878, 5349.145
397.4699, 5348.382
397.9520, 5359.763
398.4341, 5368.790
398.9163, 5377.267
399.3984, 5381.485
399.8805, 5379.484
400.3626, 5368.900
400.8447, 5358.527
401.3268, 5345.086
401.8090, 5334.303
402.2911, 5335.483
402.7732, 5353.437
403.2553, 5370.821
403.7374, 5383.337
404.2195, 5391.144
404.7017, 5397.302
405.1838, 5402.136
405.6659, 5404.443
406.1480, 5399.842
406.6301, 5388.053
407.1122, 5386.849
407.5944, 5402.890
408.0765, 5427.810
408.5586, 5442.352
409.0407, 5446.701
409.5228, 5445.335
410.0049, 5434.225
410.4871, 5419.528
410.9692, 5419.653
411.4513, 5438.026
411.9334, 5465.121
412.4155, 5501.096
412.8976, 5539.014
413.3798, 5558.042
413.8619, 5528.984
414.3440, 5488.245
414.8261, 5477.875
415.3082, 5498.612
415.7903, 5517.763
416.2725, 5509.418
416.7546, 5489.416
417.2367, 5475.216
417.7188, 5469.661
418.2009, 5474.284
418.6830, 5497.610
419.1652, 5533.979
419.6473, 5561.716
420.1294, 5570.282
420.6115, 5571.007
421.0937, 5569.035
421.5758, 5561.630
422.0579, 5558.985
422.5400, 5568.866
423.0221, 5582.960
423.5042, 5587.602
423.9864, 5567.319
424.4685, 5554.501
424.9506, 5559.340
425.4327, 5583.722
425.9148, 5600.506
426.3969, 5606.657
426.8791, 5608.679
427.3612, 5612.617
427.8433, 5620.615
428.3254, 5623.367
428.8075, 5617.814
429.2896, 5606.779
429.7718, 5598.734
430.2539, 5593.047
430.7360, 5593.267
431.2181, 5604.317
431.7002, 5625.253
432.1823, 5643.208
432.6645, 5658.276
433.1466, 5667.944
433.6287, 5664.519
434.1108, 5650.851
434.5929, 5641.236
435.0750, 5644.490
435.5572, 5654.294
436.0393, 5662.244
436.5214, 5668.106
437.0035, 5666.944
437.4856, 5644.222
437.9677, 5615.223
438.4499, 5602.643
438.9320, 5619.458
439.4141, 5641.716
439.8962, 5655.213
440.3783, 5661.082
440.8604, 5662.628
441.3426, 5653.132
441.8247, 5645.872
442.3068, 5651.305
442.7889, 5674.678
443.2710, 5690.762
443.7531, 5687.117
444.2353, 5674.964
444.7174, 5666.653
445.1995, 5666.964
445.6816, 5667.969
446.1637, 5666.750
446.6458, 5663.992
447.1280, 5667.558
447.6101, 5679.820
448.0922, 5695.863
448.5743, 5714.290
449.0564, 5739.962
449.5385, 5754.902
450.0207, 5756.016
450.5028, 5748.626
450.9849, 5742.354
451.4670, 5737.672
451.9491, 5731.832
452.4312, 5721.771
452.9134, 5708.901
453.3955, 5704.969
453.8776, 5710.776
454.3597, 5719.734
454.8418, 5724.320
455.3239, 5726.252
455.8061, 5733.673
456.2882, 5752.268
456.7703, 5771.278
457.2524, 5771.007
457.7345, 5756.170
458.2166, 5746.045
458.6988, 5760.442
459.1809, 5781.436
459.6630, 5786.861
460.1451, 5772.161
460.6272, 5759.524
461.1093, 5767.052
461.5915, 5783.598
462.0736, 5795.184
462.5557, 5791.211
463.0378, 5787.363
463.5199, 5788.825
464.0020, 5795.360
464.4842, 5804.552
464.9663, 5824.485
465.4484, 5840.521
465.9305, 5844.282
466.4126, 5824.966
466.8947, 5811.868
467.3769, 5805.494
467.8590, 5805.103
468.3411, 5810.074
468.8232, 5822.713
469.3053, 5836.191
469.7874, 5849.046
470.2696, 5861.290
470.7517, 5874.165
471.2338, 5889.128
471.7159, 5900.199
472.1980, 5898.730
472.6801, 5885.151
473.1623, 5878.832
473.6444, 5883.501
474.1265, 5894.488
474.6086, 5905.242
475.0907, 5915.667
475.5728, 5925.146
476.0550, 5938.878
476.5371, 5949.537
477.0192, 5938.935
477.5013, 5906.086
477.9834, 5879.207
478.4655, 5880.800
478.9477, 5901.264
479.4298, 5929.316
479.9119, 5977.998
480.3940, 6013.147
480.8761, 6004.589
481.3582, 5966.604
481.8404, 5940.271
482.3225, 5948.293
482.8046, 5963.333
483.2867, 5972.754
483.7688, 5972.981
484.2509, 5976.269
484.7331, 5987.207
485.2152, 5999.797
485.6973, 6008.107
486.1794, 6005.768
486.6615, 6010.552
487.1436, 6028.379
487.6258, 6055.420
488.1079, 6073.161
488.5900, 6079.431
489.0721, 6082.042
489.5542, 6086.140
490.0363, 6091.820
490.5185, 6088.931
491.0006, 6074.811
491.4827, 6060.220
491.9648, 6060.239
492.4470, 6072.842
492.9291, 6087.068
493.4112, 6097.472
493.8933, 6108.695
494.3754, 6133.322
494.8575, 6168.359
495.3397, 6193.503
495.8218, 6186.121
496.3039, 6166.635
496.7860, 6157.820
497.2681, 6165.033
497.7502, 6174.565
498.2324, 6179.819
498.7145, 6182.813
499.1966, 6186.394
499.6787, 6195.197
500.1608, 6200.822
500.6429, 6194.791
501.1251, 6178.747
501.6072, 6178.778
502.0893, 6212.160
502.5714, 6248.282
503.0535, 6273.958
503.5356, 6289.939
504.0178, 6291.990
504.4999, 6272.029
504.9820, 6245.483
505.4641, 6235.784
505.9462, 6245.055
506.4283, 6260.168
506.9105, 6277.859
507.3926, 6298.379
507.8747, 6327.600
508.3568, 6366.608
508.8389, 6395.339
509.3210, 6390.412
509.8032, 6364.096
510.2853, 6350.400
510.7674, 6354.558
511.2495, 6367.160
511.7316, 6383.917
512.2137, 6401.781
512.6959, 6414.339
513.1780, 6409.046
513.6601, 6405.931
514.1422, 6427.673
514.6243, 6468.603
515.1064, 6489.807
515.5886, 6449.716
516.0707, 6403.598
516.5528, 6387.444
517.0349, 6424.401
517.5170, 6452.008
517.9991, 6457.354
518.4813, 6452.794
518.9634, 6453.866
519.4455, 6465.795
519.9276, 6473.819
520.4097, 6470.967
520.8918, 6460.772
521.3740, 6470.709
521.8561, 6508.209
522.3382, 6541.218
522.8203, 6543.239
523.3024, 6516.671
523.7845, 6504.704
524.2667, 6511.794
524.7488, 6525.431
525.2309, 6529.812
525.7130, 6527.761
526.1951, 6528.728
526.6772, 6534.110
527.1594, 6545.956
527.6415, 6575.697
528.1236, 6617.205
528.6057, 6644.045
529.0878, 6622.439
529.5699, 6592.349
530.0521, 6588.921
530.5342, 6625.604
531.0163, 6647.811
531.4984, 6618.491
531.9805, 6574.417
532.4626, 6554.573
532.9448, 6590.481
533.4269, 6619.480
533.9090, 6634.405
534.3911, 6637.334
534.8732, 6634.471
535.3553, 6620.494
535.8375, 6610.771
536.3196, 6614.836
536.8017, 6633.880
537.2838, 6641.150
537.7659, 6634.442
538.2480, 6623.434
538.7302, 6616.354
539.2123, 6613.409
539.6944, 6617.530
540.1765, 6632.041
540.6586, 6648.927
541.1407, 6653.436
541.6229, 6649.896
542.1050, 6653.876
542.5871, 6685.526
543.0692, 6720.733
543.5513, 6736.951
544.0334, 6732.931
544.5156, 6723.265
544.9977, 6703.425
545.4798, 6687.268
545.9619, 6686.623
546.4440, 6716.738
546.9261, 6743.000
547.4083, 6763.392
547.8904, 6776.424
548.3725, 6779.117
548.8546, 6768.327
549.3367, 6751.778
549.8188, 6726.688
550.3010, 6695.130
550.7831, 6684.622
551.2652, 6700.787
551.7473, 6719.268
552.2294, 6721.146
552.7115, 6708.267
553.1937, 6698.227
553.6758, 6692.151
554.1579, 6690.040
554.6400, 6692.199
555.1221, 6698.387
555.6042, 6708.065
556.0864, 6724.433
556.5685, 6740.900
557.0506, 6755.084
557.5327, 6765.040
558.0148, 6763.071
558.4969, 6724.173
558.9791, 6688.170
559.4612, 6683.565
559.9433, 6720.224
560.4254, 6751.742
560.9075, 6772.408
561.3896, 6782.573
561.8718, 6782.900
562.3539, 6767.303
562.8360, 6751.254
563.3181, 6731.230
563.8002, 6713.768
564.2823, 6718.756
564.7645, 6752.291
565.2466, 6780.817
565.7287, 6791.301
566.2108, 6785.863
566.6929, 6771.790
567.1750, 6748.875
567.6572, 6724.580
568.1393, 6702.800
568.6214, 6684.858
569.1035, 6675.138
569.5856, 6675.462
570.0677, 6678.868
570.5499, 6680.904
571.0320, 6681.920
571.5141, 6682.504
571.9962, 6681.541
572.4783, 6681.500
572.9604, 6683.542
573.4426, 6687.421
573.9247, 6691.892
574.4068, 6697.496
574.8889, 6702.967
575.3710, 6708.270
575.8531, 6713.954
576.3353, 6716.381
576.8174, 6715.388
577.2995, 6711.342
577.7816, 6702.918
578.2637, 6689.345
578.7458, 6680.518
579.2280, 6678.667
579.7101, 6680.702
580.1922, 6678.937
580.6743, 6675.033
581.1564, 6678.373
581.6385, 6699.456
582.1207, 6726.958
582.6028, 6747.244
583.0849, 6760.407
583.5670, 6768.617
584.0491, 6776.223
584.5313, 6777.368
585.0134, 6763.476
585.4955, 6724.490
585.9776, 6699.583
586.4597, 6710.922
586.9418, 6736.526
587.4240, 6751.249
587.9061, 6745.604
588.3882, 6742.398
588.8703, 6742.314
589.3524, 6746.696
589.8345, 6763.293
590.3167, 6797.910
590.7988, 6822.301
591.2809, 6820.870
591.7630, 6798.492
592.2451, 6773.660
592.7272, 6745.645
593.2094, 6733.052
593.6915, 6768.130
594.1736, 6826.252
594.6557, 6860.032
595.1378, 6858.945
595.6199, 6842.925
596.1021, 6815.590
596.5842, 6785.541
597.0663, 6764.967
597.5485, 6761.693
598.0306, 6764.871
598.5127, 6769.148
598.9948, 6776.578
599.4769, 6796.809
599.9590, 6849.137
600.4412, 6891.540
600.9233, 6905.276
601.4054, 6887.468
601.8875, 6891.871
602.3696, 6928.736
602.8517, 6962.530
603.3339, 6956.142
603.8160, 6913.284
604.2981, 6882.812
604.7802, 6871.421
605.2623, 6869.795
605.7444, 6865.604
606.2266, 6861.678
606.7087, 6866.121
607.1908, 6891.315
607.6729, 6916.243
608.1550, 6922.009
608.6371, 6913.348
609.1193, 6905.850
609.6014, 6909.750
610.0835, 6912.836
610.5656, 6903.945
611.0477, 6878.103
611.5298, 6876.429
612.0120, 6917.190
612.4941, 6965.181
612.9762, 6997.831
613.4583, 7013.047
613.9404, 7017.194
614.4225, 7003.603
614.9047, 6991.129
615.3868, 7017.807
615.8689, 7079.421
616.3510, 7115.268
616.8331, 7098.191
617.3152, 7058.781
617.7974, 7040.586
618.2795, 7040.398
618.7616, 7044.563
619.2437, 7045.087
619.7258, 7047.472
620.2079, 7058.854
620.6901, 7079.334
621.1722, 7093.831
621.6543, 7086.357
622.1364, 7078.755
622.6185, 7086.621
623.1006, 7122.165
623.5828, 7148.096
624.0649, 7164.204
624.5470, 7170.887
625.0291, 7162.977
625.5112, 7133.907
625.9933, 7127.647
626.4755, 7157.969
626.9576, 7207.364
627.4397, 7245.265
627.9218, 7271.253
628.4039, 7282.153
628.8860, 7263.733
629.3682, 7235.913
629.8503, 7227.960
630.3324, 7237.476
630.8145, 7245.970
631.2966, 7237.843
631.7787, 7228.133
632.2609, 7227.286
632.7430, 7237.600
633.2251, 7253.103
633.7072, 7284.306
634.1893, 7312.864
634.6714, 7320.908
635.1536, 7287.347
635.6357, 7282.423
636.1178, 7321.957
636.5999, 7381.005
637.0820, 7416.841
637.5641, 7428.957
638.0463, 7421.745
638.5284, 7384.345
639.0105, 7339.214
639.4926, 7336.169
639.9747, 7369.166
640.4568, 7402.931
640.9390, 7415.410
641.4211, 7419.530
641.9032, 7427.735
642.3853, 7440.873
642.8674, 7450.917
643.3495, 7445.390
643.8317, 7441.842
644.3138, 7453.326
644.7959, 7492.534
645.2780, 7526.019
645.7601, 7557.771
646.2422, 7580.273
646.7244, 7580.899
647.2065, 7553.965
647.6886, 7533.921
648.1707, 7525.832
648.6528, 7529.138
649.1349, 7547.522
649.6171, 7578.793
650.0992, 7607.927
650.5813, 7627.458
651.0634, 7641.307
651.5455, 7655.279
652.0276, 7668.487
652.5098, 7675.462
652.9919, 7663.484
653.4740, 7651.997
653.9561, 7654.849
654.4382, 7676.213
654.9203, 7694.557
655.4025, 7709.987
655.8846, 7719.404
656.3667, 7718.062
656.8488, 7697.384
657.3309, 7693.406
657.8130, 7711.755
658.2952, 7738.964
658.7773, 7756.621
659.2594, 7765.529
659.7415, 7773.614
660.2236, 7783.427
660.7057, 7792.618
661.1879, 7798.507
661.6700, 7801.048
662.1521, 7799.986
662.6342, 7796.814
663.1163, 7788.600
663.5984, 7765.821
664.0806, 7732.080
664.5627, 7715.613
665.0448, 7738.418
665.5269, 7766.800
666.0090, 7790.114
666.4911, 7810.252
666.9733, 7805.983
667.4554, 7764.934
667.9375, 7724.010
668.4196, 7723.036
668.9017, 7759.842
669.3839, 7760.911
669.8660, 7713.488
670.3481, 7659.510
670.8302, 7654.012
671.3123, 7678.338
671.7944, 7691.428
672.2766, 7673.485
672.7587, 7652.455
673.2408, 7647.938
673.7229, 7653.243
674.2050, 7655.160
674.6871, 7645.476
675.1693, 7636.942
675.6514, 7633.843
676.1335, 7634.975
676.6156, 7633.900
677.0977, 7629.239
677.5798, 7625.225
678.0620, 7620.178
678.5441, 7615.891
679.0262, 7638.896
679.5083, 7691.733
679.9904, 7733.202
680.4725, 7719.835
680.9547, 7675.943
681.4368, 7641.480
681.9189, 7621.092
682.4010, 7612.315
682.8831, 7624.523
683.3652, 7642.370
683.8474, 7649.409
684.3295, 7626.999
684.8116, 7617.562
685.2937, 7640.807
685.7758, 7674.241
686.2579, 7686.797
686.7401, 7667.976
687.2222, 7657.854
687.7043, 7666.718
688.1864, 7685.403
688.6685, 7688.848
689.1506, 7678.330
689.6328, 7674.544
690.1149, 7691.077
690.5970, 7716.947
691.0791, 7745.072
691.5612, 7771.336
692.0433, 7774.644
692.5255, 7705.760
693.0076, 7640.877
693.4897, 7635.724
693.9718, 7700.045
694.4539, 7753.524
694.9360, 7793.483
695.4182, 7812.010
695.9003, 7796.570
696.3824, 7730.273
696.8645, 7706.000
697.3466, 7731.891
697.8287, 7778.449
698.3109, 7826.064
698.7930, 7870.130
699.2751, 7879.649
699.7572, 7840.696
700.2393, 7797.597
700.7214, 7804.277
701.2036, 7836.985
701.6857, 7855.896
702.1678, 7830.510
702.6499, 7807.990
703.1320, 7804.745
703.6141, 7817.329
704.0963, 7838.340
704.5784, 7884.424
705.0605, 7911.589
705.5426, 7902.817
706.0247, 7868.487
706.5068, 7856.396
706.9890, 7868.636
707.4711, 7884.792
707.9532, 7892.746
708.4353, 7897.221
708.9174, 7911.165
709.3995, 7933.876
709.8817, 7958.190
710.3638, 7990.853
710.8459, 8015.154
711.3280, 8005.597
711.8101, 7953.069
712.2922, 7927.956
712.7744, 7982.032
713.2565, 8046.568
713.7386, 8074.903
714.2207, 8051.408
714.7028, 8030.361
715.1849, 8008.913
715.6671, 7994.547
716.1492, 7996.605
716.6313, 8014.178
717.1134, 8039.000
717.5955, 8072.391
718.0776, 8103.178
718.5598, 8116.705
719.0419, 8117.415
719.5240, 8114.036
720.0061, 8113.358
720.4882, 8104.818
720.9703, 8072.891
721.4525, 8030.192
721.9346, 8005.316
722.4167, 8014.017
722.8988, 8025.054
723.3809, 8033.379
723.8630, 8039.696
724.3452, 8047.981
724.8273, 8059.132
725.3094, 8065.505
725.7915, 8059.599
726.2736, 8047.664
726.7557, 8048.799
727.2379, 8061.063
727.7200, 8069.163
728.2021, 8055.949
728.6842, 8039.535
729.1663, 8037.854
729.6484, 8052.956
730.1306, 8060.462
730.6127, 8044.745
731.0948, 8026.660
731.5769, 8017.642
732.0590, 8019.611
732.5411, 8022.579
733.0233, 8026.751
733.5054, 8031.456
733.9875, 8039.894
734.4696, 8050.031
734.9517, 8043.274
735.4338, 8014.933
735.9160, 7985.567
736.3981, 7977.727
736.8802, 7981.831
737.3623, 7984.504
737.8444, 7984.862
738.3266, 7978.062
738.8087, 7952.143
739.2908, 7921.272
739.7729, 7906.990
740.2551, 7920.025
740.7372, 7930.534
741.2193, 7933.022
741.7014, 7932.969
742.1835, 7946.972
742.6656, 7975.240
743.1478, 7987.161
743.6299, 7964.101
744.1120, 7930.608
744.5941, 7930.179
745.0762, 7952.810
745.5583, 7967.415
746.0405, 7952.022
746.5226, 7930.420
747.0047, 7913.838
747.4868, 7902.081
747.9689, 7892.065
748.4510, 7875.197
748.9332, 7871.625
749.4153, 7898.182
749.8974, 7949.063
750.3795, 7946.720
750.8616, 7883.142
751.3438, 7828.656
751.8259, 7844.113
752.3080, 7898.011
752.7901, 7909.896
753.2722, 7880.157
753.7543, 7854.331
754.2365, 7870.433
754.7186, 7897.718
755.2007, 7912.055
755.6828, 7909.194
756.1649, 7902.698
756.6470, 7889.754
757.1292, 7878.218
757.6113, 7872.698
758.0934, 7873.800
758.5755, 7879.797
759.0576, 7892.790
759.5397, 7903.801
760.0219, 7899.998
760.5040, 7886.397
760.9861, 7878.502
761.4682, 7878.756
761.9503, 7885.003
762.4324, 7904.296
762.9146, 7924.926
763.3967, 7932.546
763.8788, 7912.950
764.3609, 7897.714
764.8430, 7894.621
765.3251, 7896.995
765.8073, 7897.008
766.2894, 7892.957
766.7715, 7894.126
767.2536, 7903.849
767.7357, 7915.427
768.2178, 7917.064
768.7000, 7910.529
769.1821, 7902.452
769.6642, 7891.108
770.1463, 7885.203
770.6284, 7897.964
771.1105, 7920.825
771.5927, 7937.226
772.0748, 7933.405
772.5569, 7932.872
773.0390, 7947.967
773.5211, 7968.885
774.0032, 7966.445
774.4854, 7931.218
774.9675, 7908.495
775.4496, 7914.368
775.9317, 7939.160
776.4138, 7964.395
776.8959, 7988.403
777.3781, 8003.307
777.8602, 8000.745
778.3423, 7990.636
778.8244, 7979.007
779.3065, 7966.511
779.7886, 7955.315
780.2708, 7940.371
780.7529, 7933.188
781.2350, 7937.870
781.7171, 7953.560
782.1992, 7975.661
782.6813, 8008.474
783.1635, 8029.723
783.6456, 8022.506
784.1277, 7995.737
784.6098, 7977.326
785.0919, 7966.850
785.5740, 7959.159
786.0562, 7948.354
786.5383, 7940.659
787.0204, 7943.175
787.5025, 7956.199
787.9846, 7967.978
788.4667, 7980.388
788.9489, 7986.013
789.4310, 7978.429
789.9131, 7956.300
790.3952, 7947.823
790.8773, 7954.397
791.3594, 7968.413
791.8416, 7992.161
792.3237, 8017.931
792.8058, 8022.628
793.2879, 8005.432
793.7700, 7983.237
794.2521, 7957.212
794.7343, 7938.244
795.2164, 7938.959
795.6985, 7966.752
796.1806, 7986.473
796.6627, 7993.649
797.1448, 7993.085
797.6270, 7986.813
798.1091, 7974.305
798.5912, 7957.976
799.0733, 7935.892
799.5554, 7919.846
800.0375, 7926.769
800.5197, 7946.443
801.0018, 7959.404
801.4839, 7962.459
801.9660, 7962.953
802.4481, 7965.953
802.9302, 7967.955
803.4124, 7965.117
803.8945, 7950.850
804.3766, 7946.380
804.8587, 7957.139
805.3408, 7970.533
805.8229, 7975.063
806.3051, 7970.774
806.7872, 7963.243
807.2693, 7951.792
807.7514, 7944.102
808.2335, 7953.685
808.7156, 7970.152
809.1978, 7976.173
809.6799, 7963.973
810.1620, 7955.374
810.6441, 7965.007
811.1262, 7979.391
811.6083, 7985.208
812.0905, 7979.228
812.5726, 7970.836
813.0547, 7958.417
813.5368, 7947.226
814.0189, 7944.131
814.5010, 7948.107
814.9832, 7952.962
815.4653, 7957.426
815.9474, 7963.987
816.4295, 7981.712
816.9116, 8000.104
817.3937, 8004.796
817.8759, 7981.990
818.3580, 7965.569
818.8401, 7963.424
819.3222, 7970.193
819.8043, 7983.023
820.2864, 8004.362
820.7686, 8020.836
821.2507, 8031.366
821.7328, 8036.136
822.2149, 8034.036
822.6970, 8026.341
823.1791, 8014.624
823.6613, 7996.763
824.1434, 7983.647
824.6255, 7986.650
825.1076, 7996.602
825.5897, 8003.272
826.0718, 8005.062
826.5540, 8002.104
827.0361, 7988.874
827.5182, 7977.236
828.0003, 7985.386
828.4824, 8012.924
828.9645, 8030.531
829.4467, 8033.333
829.9288, 8027.371
830.4109, 8017.234
830.8930, 8003.676
831.3751, 7986.845
831.8572, 7963.634
832.3394, 7944.764
832.8215, 7929.832
833.3036, 7923.636
833.7857, 7930.838
834.2678, 7954.551
834.7499, 7985.019
835.2321, 8026.953
835.7142, 8062.839
836.1963, 8063.971
836.6784, 8039.577
837.1605, 8022.971
837.6426, 8020.925
838.1248, 8025.875
838.6069, 8039.109
839.0890, 8052.757
839.5711, 8058.066
840.0532, 8052.637
840.5353, 8038.204
841.0175, 8003.045
841.4996, 7971.595
841.9817, 7972.220
842.4638, 8006.237
842.9459, 8040.025
843.4280, 8072.107
843.9102, 8094.947
844.3923, 8094.797
844.8744, 8081.621
845.3565, 8069.739
845.8386, 8059.881
846.3207, 8059.251
846.8029, 8083.085
847.2850, 8109.482
847.7671, 8118.232
848.2492, 8099.043
848.7313, 8090.093
849.2134, 8093.510
849.6956, 8101.925
850.1777, 8112.628
850.6598, 8122.520
851.1419, 8117.503
851.6240, 8094.315
852.1061, 8072.590
852.5883, 8065.780
853.0704, 8068.122
853.5525, 8074.637
854.0346, 8085.022
854.5167, 8098.771
854.9988, 8119.604
855.4810, 8138.772
855.9631, 8149.495
856.4452, 8151.664
856.9273, 8154.740
857.4094, 8159.161
857.8915, 8161.564
858.3737, 8162.075
858.8558, 8157.251
859.3379, 8137.468
859.8200, 8100.086
860.3021, 8074.806
860.7842, 8076.925
861.2664, 8092.136
861.7485, 8116.450
862.2306, 8153.123
862.7127, 8163.576
863.1948, 8142.373
863.6769, 8119.245
864.1591, 8115.520
864.6412, 8125.474
865.1233, 8138.313
865.6054, 8153.119
866.0875, 8162.670
866.5696, 8163.699
867.0518, 8157.359
867.5339, 8136.975
868.0160, 8101.297
868.4981, 8095.323
868.9802, 8133.525
869.4623, 8171.098
869.9445, 8187.359
870.4266, 8185.597
870.9087, 8177.376
871.3908, 8163.441
871.8729, 8152.753
872.3550, 8146.135
872.8372, 8148.615
873.3193, 8172.091
873.8014, 8211.543
874.2835, 8238.122
874.7656, 8244.392
875.2477, 8236.159
875.7299, 8205.157
876.2120, 8162.651
876.6941, 8156.384
877.1762, 8186.236
877.6583, 8217.227
878.1404, 8234.299
878.6226, 8244.106
879.1047, 8254.750
879.5869, 8265.191
880.0690, 8273.015
880.5511, 8275.112
881.0332, 8277.021
881.5153, 8284.208
881.9974, 8291.054
882.4796, 8280.468
882.9617, 8245.345
883.4438, 8237.196
883.9259, 8278.115
884.4080, 8331.123
884.8901, 8334.404
885.3723, 8303.896
885.8544, 8276.167
886.3365, 8261.920
886.8186, 8256.318
887.3007, 8262.829
887.7828, 8274.724
888.2650, 8282.123
888.7471, 8281.539
889.2292, 8285.469
889.7113, 8295.732
890.1934, 8308.962
890.6755, 8324.179
891.1577, 8338.884
891.6398, 8344.789
892.1219, 8339.215
892.6040, 8330.348
893.0861, 8316.604
893.5682, 8306.566
894.0504, 8310.152
894.5325, 8338.587
895.0146, 8355.022
895.4967, 8356.581
895.9788, 8351.462
896.4609, 8348.008
896.9431, 8344.512
897.4252, 8321.488
897.9073, 8277.561
898.3894, 8252.880
898.8715, 8296.506
899.3536, 8358.628
899.8358, 8398.407
900.3179, 8410.146
900.8000, 8415.936
901.2821, 8415.862
901.7642, 8414.332
902.2463, 8414.566
902.7285, 8415.424
903.2106, 8402.604
903.6927, 8377.096
904.1748, 8362.840
904.6569, 8387.945
905.1390, 8421.296
905.6212, 8430.761
906.1033, 8420.214
906.5854, 8409.843
907.0675, 8404.025
907.5496, 8400.333
908.0317, 8397.482
908.5139, 8396.594
908.9960, 8401.979
909.4781, 8413.652
909.9602, 8427.056
910.4423, 8443.430
910.9244, 8455.981
911.4066, 8451.438
911.8887, 8437.978
912.3708, 8430.605
912.8529, 8442.065
913.3350, 8450.065
913.8171, 8445.399
914.2993, 8439.094
914.7814, 8448.766
915.2635, 8476.320
915.7456, 8494.428
916.2277, 8498.823
916.7098, 8494.827
917.1920, 8481.734
917.6741, 8466.909
918.1562, 8459.547
918.6383, 8459.099
919.1204, 8475.460
919.6025, 8543.537
920.0847, 8603.095
920.5668, 8608.436
921.0489, 8548.955
921.5310, 8508.736
922.0131, 8488.203
922.4952, 8483.771
922.9774, 8501.198
923.4595, 8528.812
923.9416, 8550.968
924.4237, 8566.537
924.9058, 8576.854
925.3879, 8589.996
925.8701, 8589.285
926.3522, 8561.164
926.8343, 8511.183
927.3164, 8485.619
927.7985, 8485.813
928.2806, 8497.190
928.7628, 8519.396
929.2449, 8542.829
929.7270, 8549.971
930.2091, 8545.892
930.6912, 8544.538
931.1733, 8556.775
931.6555, 8566.409
932.1376, 8563.698
932.6197, 8557.489
933.1018, 8565.036
933.5839, 8589.423
934.0660, 8603.930
934.5482, 8602.140
935.0303, 8594.393
935.5124, 8593.302
935.9945, 8595.895
936.4766, 8597.338
936.9587, 8597.250
937.4409, 8593.896
937.9230, 8580.889
938.4051, 8568.854
938.8872, 8565.599
939.3693, 8571.731
939.8514, 8586.587
940.3336, 8612.085
940.8157, 8630.874
941.2978, 8616.949
941.7799, 8593.072
942.2620, 8597.552
942.7441, 8630.608
943.2263, 8655.188
943.7084, 8643.055
944.1905, 8634.201
944.6726, 8650.025
945.1547, 8683.785
945.6368, 8690.332
946.1190, 8668.219
946.6011, 8643.572
947.0832, 8624.168
947.5653, 8612.780
948.0474, 8617.353
948.5295, 8632.354
949.0117, 8644.910
949.4938, 8645.303
949.9759, 8649.864
950.4580, 8665.228
950.9401, 8683.560
951.4222, 8694.918
951.9044, 8699.478
952.3865, 8687.595
952.8686, 8653.422
953.3507, 8623.401
953.8328, 8630.551
954.3149, 8656.339
954.7971, 8679.529
955.2792, 8697.769
955.7613, 8704.504
956.2434, 8686.970
956.7255, 8672.451
957.2076, 8682.729
957.6898, 8716.525
958.1719, 8720.239
958.6540, 8694.439
959.1361, 8675.717
959.6182, 8700.779
960.1003, 8735.277
960.5825, 8751.457
961.0646, 8749.200
961.5467, 8733.393
962.0288, 8671.563
962.5109, 8651.659
962.9930, 8714.747
963.4752, 8815.269
963.9573, 8830.111
964.4394, 8772.467
964.9215, 8724.692
965.4036, 8717.256
965.8857, 8721.384
966.3679, 8714.789
966.8500, 8705.363
967.3321, 8703.964
967.8142, 8723.674
968.2963, 8728.296
968.7784, 8710.789
969.2606, 8692.030
969.7427, 8696.448
970.2248, 8717.491
970.7069, 8732.168
971.1890, 8738.700
971.6711, 8741.187
972.1533, 8743.267
972.6354, 8741.298
973.1175, 8725.024
973.5996, 8695.747
974.0817, 8702.072
974.5638, 8758.599
975.0460, 8797.787
975.5281, 8782.813
976.0102, 8741.217
976.4923, 8732.931
976.9744, 8747.900
977.4565, 8756.603
977.9387, 8722.852
978.4208, 8707.925
978.9029, 8754.080
979.3850, 8821.395
979.8671, 8856.716
980.3492, 8855.600
980.8314, 8844.981
981.3135, 8825.976
981.7956, 8805.704
982.2777, 8790.999
982.7598, 8780.222
983.2419, 8771.464
983.7241, 8764.640
984.2062, 8758.106
984.6883, 8745.563
985.1704, 8739.514
985.6525, 8746.476
986.1346, 8765.471
986.6168, 8789.774
987.0989, 8818.973
987.5810, 8840.092
988.0631, 8834.576
988.5452, 8826.914
989.0273, 8849.304
989.5095, 8887.624
989.9916, 8904.723
990.4737, 8870.658
990.9558, 8852.318
991.4379, 8864.827
991.9200, 8885.828
992.4022, 8874.243
992.8843, 8839.445
993.3664, 8822.644
993.8485, 8833.138
994.3306, 8851.967
994.8127, 8869.177
995.2949, 8886.947
995.7770, 8909.220
996.2591, 8938.364
996.7412, 8954.558
997.2233, 8956.167
997.7054, 8950.277
998.1876, 8936.815
998.6697, 8920.601
999.1518, 8912.060
999.6339, 8910.193
1000.116, 8910.798
1000.598, 8910.486
1001.080, 8914.055
1001.562, 8921.875
1002.044, 8935.107
1002.527, 8963.240
1003.009, 9008.914
1003.491, 9022.688
1003.973, 8988.509
1004.455, 8949.713
1004.937, 8961.163
1005.419, 8993.353
1005.901, 9009.130
1006.384, 8998.772
1006.866, 8984.097
1007.348, 8956.882
1007.830, 8943.008
1008.312, 8965.299
1008.794, 9014.553
1009.276, 9037.175
1009.758, 9034.642
1010.240, 9020.676
1010.723, 9000.903
1011.205, 8974.568
1011.687, 8928.292
1012.169, 8876.557
1012.651, 8858.037
1013.133, 8884.912
1013.615, 8910.473
1014.097, 8927.890
1014.580, 8941.665
1015.062, 8956.708
1015.544, 8972.763
1016.026, 8992.513
1016.508, 9019.245
1016.990, 9031.743
1017.472, 9007.645
1017.954, 8979.506
1018.436, 8967.858
1018.919, 8971.549
1019.401, 8953.753
1019.883, 8914.352
1020.365, 8899.680
1020.847, 8964.189
1021.329, 9043.114
1021.811, 9077.201
1022.293, 9074.503
1022.776, 9054.736
1023.258, 9000.133
1023.740, 8964.453
1024.222, 8954.206
1024.704, 8962.513
1025.186, 8991.767
1025.668, 9031.994
1026.150, 9043.343
1026.632, 9018.219
1027.115, 8994.693
1027.597, 9002.473
1028.079, 9014.031
1028.561, 9008.014
1029.043, 8985.367
1029.525, 8975.162
1030.007, 8978.952
1030.489, 8983.903
1030.972, 8986.064
1031.454, 8983.975
1031.936, 8972.625
1032.418, 8955.813
1032.900, 8941.867
1033.382, 8934.758
1033.864, 8928.550
1034.346, 8921.604
1034.828, 8916.476
1035.311, 8917.937
1035.793, 8924.531
1036.275, 8924.202
1036.757, 8915.924
1037.239, 8912.921
1037.721, 8927.346
1038.203, 8947.979
1038.685, 8972.787
1039.167, 8998.919
1039.650, 9002.062
1040.132, 8974.987
1040.614, 8956.781
1041.096, 8963.035
1041.578, 8981.181
1042.060, 9001.547
1042.542, 9016.706
1043.024, 9009.694
1043.507, 8948.979
1043.989, 8920.225
1044.471, 8955.641
1044.953, 9006.980
1045.435, 9042.202
1045.917, 9061.247
1046.399, 9058.762
1046.881, 9035.666
1047.364, 9013.070
1047.846, 9010.497
1048.328, 9008.455
1048.810, 8984.090
1049.292, 8947.791
1049.774, 8945.004
1050.256, 8986.800
1050.738, 9027.229
1051.220, 9062.758
1051.703, 9078.230
1052.185, 9025.731
1052.667, 8946.453
1053.149, 8914.910
1053.631, 8956.444
1054.113, 8994.749
1054.595, 9016.987
1055.077, 9021.793
1055.559, 8997.594
1056.042, 8953.183
1056.524, 8955.859
1057.006, 9000.044
1057.488, 9040.106
1057.970, 9053.027
1058.452, 9052.090
1058.934, 9034.543
1059.416, 9012.272
1059.899, 9010.661
1060.381, 9042.821
1060.863, 9046.910
1061.345, 9013.086
1061.827, 8971.370
1062.309, 8948.793
1062.791, 8939.853
1063.273, 8939.149
1063.755, 8945.815
1064.238, 8951.599
1064.720, 8947.241
1065.202, 8951.690
1065.684, 8973.932
1066.166, 9006.233
1066.648, 9026.544
1067.130, 9036.741
1067.612, 9049.844
1068.094, 9079.870
1068.577, 9089.565
1069.059, 9024.653
1069.541, 8950.428
1070.023, 8935.431
1070.505, 8996.441
1070.987, 9018.317
1071.469, 8998.108
1071.951, 8970.702
1072.434, 8953.656
1072.916, 8947.358
1073.398, 8952.932
1073.880, 8969.655
1074.362, 8995.380
1074.844, 9049.317
1075.326, 9080.160
1075.808, 9081.346
1076.291, 9058.012
1076.773, 8996.347
1077.255, 8917.889
1077.737, 8892.453
1078.219, 8932.355
1078.701, 8976.951
1079.183, 9003.099
1079.665, 9017.656
1080.147, 9024.349
1080.630, 9023.586
1081.112, 9012.812
1081.594, 8992.814
1082.076, 8990.145
1082.558, 9025.785
1083.040, 9061.329
1083.522, 9061.281
1084.004, 9040.773
1084.486, 9017.576
1084.969, 8983.257
1085.451, 8979.091
1085.933, 9012.834
1086.415, 9047.618
1086.897, 9050.369
1087.379, 9037.774
1087.861, 9041.041
1088.343, 9056.218
1088.826, 9063.902
1089.308, 9042.639
1089.790, 9034.172
1090.272, 9053.724
1090.754, 9079.611
1091.236, 9073.669
1091.718, 9043.215
1092.200, 9020.850
1092.682, 9011.538
1093.165, 9010.362
1093.647, 9013.784
1094.129, 9025.374
1094.611, 9053.376
1095.093, 9093.146
1095.575, 9112.044
1096.057, 9109.635
1096.539, 9095.625
1097.022, 9068.891
1097.504, 9041.999
1097.986, 9026.609
1098.468, 9019.835
1098.950, 9017.904
1099.432, 9019.184
1099.914, 9032.042
1100.396, 9063.681
1100.879, 9082.947
1101.361, 9053.467
1101.843, 9002.360
1102.325, 8981.890
1102.807, 8986.736
1103.289, 8995.270
1103.771, 8993.196
1104.253, 9004.024
1104.735, 9036.329
1105.218, 9076.640
1105.700, 9112.966
1106.182, 9141.817
1106.664, 9135.338
1107.146, 9089.767
1107.628, 9058.526
1108.110, 9102.483
1108.592, 9141.146
1109.074, 9116.453
1109.557, 9049.589
1110.039, 9031.345
1110.521, 9062.297
1111.003, 9085.774
1111.485, 9083.531
1111.967, 9073.411
1112.449, 9061.305
1112.931, 9056.889
1113.414, 9077.376
1113.896, 9134.876
1114.378, 9152.997
1114.860, 9121.861
1115.342, 9094.949
1115.824, 9113.100
1116.306, 9144.586
1116.788, 9130.242
1117.271, 9090.607
1117.753, 9071.345
1118.235, 9113.173
1118.717, 9136.267
1119.199, 9131.103
1119.681, 9115.251
1120.163, 9099.598
1120.645, 9088.198
1121.127, 9098.885
1121.609, 9129.478
1122.092, 9153.108
1122.574, 9155.192
1123.056, 9148.001
1123.538, 9128.254
1124.020, 9108.230
1124.502, 9117.340
1124.984, 9151.583
1125.466, 9178.774
1125.949, 9193.338
1126.431, 9195.360
1126.913, 9167.591
1127.395, 9141.962
1127.877, 9146.820
1128.359, 9177.297
1128.841, 9196.127
1129.323, 9203.300
1129.806, 9196.909
1130.288, 9169.296
1130.770, 9143.006
1131.252, 9150.202
1131.734, 9168.167
1132.216, 9164.412
1132.698, 9124.609
1133.180, 9102.707
1133.662, 9099.944
1134.145, 9110.683
1134.627, 9139.550
1135.109, 9174.366
1135.591, 9202.874
1136.073, 9221.216
1136.555, 9218.870
1137.037, 9164.729
1137.519, 9132.365
1138.001, 9129.829
1138.484, 9141.843
1138.966, 9154.103
1139.448, 9168.344
1139.930, 9195.530
1140.412, 9232.999
1140.894, 9251.163
1141.376, 9212.334
1141.858, 9186.362
1142.341, 9196.415
1142.823, 9223.367
1143.305, 9234.036
1143.787, 9230.705
1144.269, 9222.344
1144.751, 9209.814
1145.233, 9199.576
1145.715, 9194.834
1146.198, 9194.137
1146.680, 9197.797
1147.162, 9204.333
1147.644, 9205.747
1148.126, 9202.556
1148.608, 9201.895
1149.090, 9206.868
1149.572, 9212.712
1150.054, 9212.418
1150.536, 9213.849
1151.019, 9228.835
1151.501, 9260.072
1151.983, 9260.009
1152.465, 9227.024
1152.947, 9203.293
1153.429, 9220.510
1153.911, 9247.078
1154.393, 9251.283
1154.876, 9244.392
1155.358, 9247.131
1155.840, 9267.452
1156.322, 9276.938
1156.804, 9274.145
1157.286, 9265.610
1157.768, 9245.852
1158.250, 9230.909
1158.733, 9251.680
1159.215, 9296.419
1159.697, 9318.633
1160.179, 9299.945
1160.661, 9282.874
1161.143, 9269.649
1161.625, 9266.621
1162.107, 9298.768
1162.589, 9337.860
1163.072, 9320.594
1163.554, 9248.154
1164.036, 9217.293
1164.518, 9284.844
1165.000, 9339.836
1165.482, 9353.471
1165.964, 9346.285
1166.446, 9356.630
1166.928, 9374.648
1167.411, 9375.435
1167.893, 9351.248
1168.375, 9333.365
1168.857, 9339.682
1169.339, 9344.048
1169.821, 9334.521
1170.303, 9317.684
1170.785, 9310.179
1171.268, 9311.757
1171.750, 9323.535
1172.232, 9353.528
1172.714, 9373.429
1173.196, 9369.229
1173.678, 9352.403
1174.160, 9321.952
1174.642, 9283.473
1175.125, 9281.741
1175.607, 9311.167
1176.089, 9341.309
1176.571, 9365.750
1177.053, 9377.473
1177.535, 9360.259
1178.017, 9338.613
1178.499, 9338.114
1178.981, 9358.359
1179.464, 9360.139
1179.946, 9344.526
1180.428, 9335.518
1180.910, 9364.295
1181.392, 9386.144
1181.874, 9363.521
1182.356, 9325.687
1182.838, 9317.086
1183.320, 9338.409
1183.803, 9374.292
1184.285, 9424.472
1184.767, 9457.561
1185.249, 9431.693
1185.731, 9398.584
1186.213, 9396.108
1186.695, 9414.648
1187.177, 9426.617
1187.660, 9432.152
1188.142, 9424.756
1188.624, 9400.800
1189.106, 9385.206
1189.588, 9409.676
1190.070, 9443.638
1190.552, 9465.665
1191.034, 9474.318
1191.516, 9467.081
1191.999, 9441.265
1192.481, 9425.431
1192.963, 9427.820
1193.445, 9437.625
1193.927, 9450.132
1194.409, 9460.467
1194.891, 9464.503
1195.373, 9461.964
1195.855, 9446.016
1196.338, 9414.151
1196.820, 9389.410
1197.302, 9379.738
1197.784, 9383.380
1198.266, 9409.358
1198.748, 9441.882
1199.230, 9458.789
1199.712, 9453.728
1200.195, 9463.857
1200.677, 9493.313
1201.159, 9508.056
1201.641, 9478.741
1202.123, 9439.492
1202.605, 9422.751
1203.087, 9425.479
1203.569, 9445.921
1204.052, 9499.198
1204.534, 9517.936
1205.016, 9497.123
1205.498, 9472.626
1205.980, 9466.969
1206.462, 9472.689
1206.944, 9485.189
1207.426, 9501.642
1207.908, 9515.812
1208.391, 9529.351
1208.873, 9533.204
1209.355, 9524.979
1209.837, 9518.141
1210.319, 9532.348
1210.801, 9547.902
1211.283, 9536.055
1211.765, 9505.511
1212.247, 9490.217
1212.730, 9498.726
1213.212, 9500.664
1213.694, 9490.576
1214.176, 9485.158
1214.658, 9513.041
1215.140, 9545.572
1215.622, 9540.657
1216.104, 9506.271
1216.587, 9501.098
1217.069, 9536.354
1217.551, 9574.559
1218.033, 9612.579
1218.515, 9639.526
1218.997, 9636.566
1219.479, 9620.391
1219.961, 9605.555
1220.443, 9594.698
1220.926, 9598.900
1221.408, 9624.185
1221.890, 9640.834
1222.372, 9641.483
1222.854, 9632.898
1223.336, 9621.572
1223.818, 9606.573
1224.300, 9581.809
1224.782, 9546.614
1225.265, 9533.702
1225.747, 9544.997
1226.229, 9573.094
1226.711, 9624.327
1227.193, 9667.703
1227.675, 9649.407
1228.157, 9611.350
1228.639, 9607.912
1229.122, 9649.359
1229.604, 9667.537
1230.086, 9659.330
1230.568, 9649.260
1231.050, 9646.919
1231.532, 9646.428
1232.014, 9635.765
1232.496, 9625.968
1232.979, 9635.502
1233.461, 9669.697
1233.943, 9677.394
1234.425, 9655.667
1234.907, 9635.988
1235.389, 9632.809
1235.871, 9638.604
1236.353, 9652.229
1236.835, 9666.785
1237.318, 9670.771
1237.800, 9661.054
1238.282, 9668.409
1238.764, 9694.098
1239.246, 9709.086
1239.728, 9681.747
1240.210, 9656.504
1240.692, 9684.105
1241.175, 9729.507
1241.657, 9741.095
1242.139, 9708.825
1242.621, 9708.358
1243.103, 9740.009
1243.585, 9769.567
1244.067, 9780.136
1244.549, 9777.518
1245.031, 9754.633
1245.514, 9727.044
1245.996, 9717.527
1246.478, 9728.099
1246.960, 9727.836
1247.442, 9717.062
1247.924, 9713.958
1248.406, 9744.188
1248.888, 9769.910
1249.370, 9759.601
1249.853, 9738.671
1250.335, 9746.162
1250.817, 9780.286
1251.299, 9780.947
1251.781, 9747.770
1252.263, 9715.070
1252.745, 9700.775
1253.227, 9695.415
1253.710, 9688.582
1254.192, 9693.438
1254.674, 9746.918
1255.156, 9834.860
1255.638, 9837.595
1256.120, 9756.580
1256.602, 9694.804
1257.084, 9731.412
1257.567, 9768.329
1258.049, 9770.774
1258.531, 9761.222
1259.013, 9766.341
1259.495, 9786.135
1259.977, 9838.360
1260.459, 9917.077
1260.941, 9948.229
1261.423, 9833.982
1261.906, 9756.236
1262.388, 9763.610
1262.870, 9810.043
1263.352, 9836.329
1263.834, 9848.124
1264.316, 9856.600
1264.798, 9862.957
1265.280, 9868.554
1265.762, 9877.864
1266.245, 9879.649
1266.727, 9871.967
1267.209, 9855.838
1267.691, 9819.084
1268.173, 9781.423
1268.655, 9781.700
1269.137, 9820.512
1269.619, 9848.149
1270.102, 9855.021
1270.584, 9862.170
1271.066, 9874.755
1271.548, 9885.876
1272.030, 9884.852
1272.512, 9878.496
1272.994, 9874.866
1273.476, 9874.348
1273.958, 9870.014
1274.441, 9859.375
1274.923, 9856.264
1275.405, 9863.804
1275.887, 9879.397
1276.369, 9908.264
1276.851, 9937.709
1277.333, 9956.653
1277.815, 9964.473
1278.297, 9960.711
1278.780, 9944.861
1279.262, 9927.146
1279.744, 9908.519
1280.226, 9898.041
1280.708, 9911.821
1281.190, 9928.423
1281.672, 9931.417
1282.154, 9924.593
1282.637, 9920.396
1283.119, 9918.890
1283.601, 9921.259
1284.083, 9928.205
1284.565, 9935.664
1285.047, 9950.673
1285.529, 9952.306
1286.011, 9917.715
1286.494, 9873.422
1286.976, 9915.333
1287.458, 10012.38
1287.940, 10053.50
1288.422, 10009.18
1288.904, 9966.937
1289.386, 9952.464
1289.868, 9957.706
1290.350, 9989.389
1290.833, 10026.87
1291.315, 10021.60
1291.797, 9993.271
1292.279, 9984.198
1292.761, 10006.09
1293.243, 10007.58
1293.725, 9973.561
1294.207, 9945.513
1294.689, 9937.275
1295.172, 9940.222
1295.654, 9943.828
1296.136, 9949.714
1296.618, 9962.665
1297.100, 9984.366
1297.582, 9991.788
1298.064, 9982.250
1298.546, 9975.204
1299.029, 9975.326
1299.511, 9984.541
1299.993, 10015.23
1300.475, 10048.21
1300.957, 10065.80
1301.439, 10068.21
1301.921, 10046.49
1302.403, 10002.47
1302.885, 9995.922
1303.368, 10053.46
1303.850, 10106.39
1304.332, 10100.15
1304.814, 10078.44
1305.296, 10065.38
1305.778, 10061.68
1306.260, 10079.63
1306.742, 10109.97
1307.224, 10109.16
1307.707, 10057.32
1308.189, 10027.33
1308.671, 10076.92
1309.153, 10115.51
1309.635, 10105.06
1310.117, 10071.66
1310.599, 10072.52
1311.081, 10091.69
1311.564, 10094.07
1312.046, 10069.17
1312.528, 10061.73
1313.010, 10079.50
1313.492, 10105.12
1313.974, 10139.82
1314.456, 10161.91
1314.938, 10124.58
##END=



