##NAMES=Hatchite
##RRUFFID=R100058
##IDEAL CHEMISTRY=Ag^1+^Pb^2+^Tl^1+^As^3+^_2_S^2-^_5_
##LOCALITY=Lengenbach quarry, Binnental, Canton Wallis, Switzerland
##OWNER=RRUFF
##SOURCE=William W Pinch
##DESCRIPTION=Black euhedral crystal embedded in white dolomite with red realgar
##STATUS=The identification of this mineral has been confirmed by single-crystal X-ray diffraction.
##URL=rruff.info/R100058
92.49744, 1664.658
92.97955, 1686.877
93.46167, 1714.959
93.94379, 1724.844
94.42590, 1725.659
94.90802, 1721.757
95.39014, 1713.329
95.87225, 1699.808
96.35437, 1685.208
96.83649, 1671.314
97.31860, 1658.817
97.80072, 1648.504
98.28284, 1639.200
98.76495, 1629.242
99.24707, 1618.659
99.72919, 1605.534
100.2113, 1594.703
100.6934, 1586.716
101.1755, 1581.445
101.6577, 1578.721
102.1398, 1578.441
102.6219, 1580.665
103.1040, 1584.602
103.5861, 1590.238
104.0682, 1596.736
104.5504, 1603.322
105.0325, 1609.920
105.5146, 1617.337
105.9967, 1626.529
106.4788, 1637.952
106.9609, 1649.810
107.4431, 1661.692
107.9252, 1674.007
108.4073, 1687.035
108.8894, 1700.610
109.3715, 1715.546
109.8536, 1733.281
110.3358, 1754.102
110.8179, 1775.731
111.3000, 1796.817
111.7821, 1817.500
112.2642, 1839.098
112.7463, 1861.936
113.2285, 1886.233
113.7106, 1912.300
114.1927, 1940.283
114.6748, 1969.525
115.1569, 1998.129
115.6390, 2024.578
116.1212, 2055.298
116.6033, 2092.406
117.0854, 2134.010
117.5675, 2178.657
118.0496, 2225.873
118.5317, 2275.606
119.0139, 2327.171
119.4960, 2384.649
119.9781, 2439.448
120.4602, 2490.156
120.9423, 2537.284
121.4244, 2581.729
121.9066, 2624.263
122.3887, 2665.023
122.8708, 2702.387
123.3529, 2733.181
123.8350, 2764.375
124.3171, 2798.988
124.7993, 2837.238
125.2814, 2877.245
125.7635, 2917.076
126.2456, 2956.400
126.7277, 2999.556
127.2098, 3049.403
127.6920, 3101.792
128.1741, 3152.387
128.6562, 3199.727
129.1383, 3246.911
129.6204, 3298.441
130.1025, 3353.839
130.5847, 3409.095
131.0668, 3462.234
131.5489, 3513.881
132.0310, 3565.944
132.5131, 3618.944
132.9952, 3673.246
133.4774, 3728.776
133.9595, 3785.559
134.4416, 3844.023
134.9237, 3905.731
135.4058, 3971.889
135.8879, 4035.000
136.3701, 4097.837
136.8522, 4154.339
137.3343, 4204.287
137.8164, 4247.222
138.2985, 4275.060
138.7806, 4276.136
139.2628, 4254.132
139.7449, 4191.367
140.2270, 4084.358
140.7091, 3945.158
141.1912, 3778.981
141.6733, 3589.073
142.1555, 3381.324
142.6376, 3178.889
143.1197, 2973.219
143.6018, 2783.356
144.0839, 2611.466
144.5660, 2456.831
145.0482, 2317.938
145.5303, 2194.277
146.0124, 2085.851
146.4945, 1990.127
146.9766, 1906.824
147.4587, 1833.279
147.9409, 1770.198
148.4230, 1716.670
148.9051, 1669.150
149.3872, 1625.319
149.8693, 1586.270
150.3514, 1551.809
150.8336, 1522.443
151.3157, 1497.398
151.7978, 1476.493
152.2799, 1459.880
152.7620, 1445.461
153.2441, 1432.445
153.7263, 1420.492
154.2084, 1409.027
154.6905, 1397.479
155.1726, 1386.450
155.6547, 1377.408
156.1368, 1371.242
156.6190, 1365.647
157.1011, 1358.627
157.5832, 1351.127
158.0653, 1344.956
158.5474, 1341.550
159.0295, 1340.733
159.5117, 1340.235
159.9938, 1340.684
160.4759, 1340.807
160.9580, 1339.523
161.4401, 1337.406
161.9222, 1335.970
162.4044, 1336.893
162.8865, 1340.851
163.3686, 1343.165
163.8507, 1342.463
164.3328, 1341.438
164.8149, 1341.654
165.2971, 1342.936
165.7792, 1343.833
166.2613, 1342.647
166.7434, 1338.855
167.2255, 1334.106
167.7076, 1327.889
168.1898, 1321.209
168.6719, 1314.957
169.1540, 1309.235
169.6361, 1303.344
170.1182, 1296.166
170.6003, 1286.885
171.0825, 1278.402
171.5646, 1270.393
172.0467, 1263.446
172.5288, 1259.069
173.0109, 1258.058
173.4930, 1257.512
173.9752, 1251.403
174.4573, 1238.780
174.9394, 1228.521
175.4215, 1224.155
175.9036, 1223.968
176.3857, 1224.277
176.8679, 1224.158
177.3500, 1224.034
177.8321, 1224.304
178.3142, 1224.905
178.7963, 1226.147
179.2784, 1228.110
179.7606, 1230.832
180.2427, 1234.557
180.7248, 1239.915
181.2069, 1245.906
181.6890, 1251.774
182.1711, 1257.502
182.6533, 1262.781
183.1354, 1267.552
183.6175, 1271.928
184.0996, 1274.929
184.5817, 1276.542
185.0638, 1276.459
185.5460, 1274.378
186.0281, 1270.224
186.5102, 1263.984
186.9923, 1255.693
187.4744, 1245.503
187.9565, 1232.545
188.4387, 1215.636
188.9208, 1196.970
189.4029, 1178.019
189.8850, 1159.166
190.3671, 1140.212
190.8492, 1120.264
191.3314, 1098.103
191.8135, 1077.242
192.2956, 1057.708
192.7777, 1039.547
193.2598, 1022.953
193.7419, 1008.029
194.2241, 994.4319
194.7062, 981.3651
195.1883, 968.6037
195.6704, 956.6934
196.1525, 945.9003
196.6346, 935.9218
197.1168, 926.2938
197.5989, 916.7928
198.0810, 907.7591
198.5631, 900.2950
199.0452, 895.3491
199.5273, 890.5696
200.0095, 885.5154
200.4916, 880.4133
200.9737, 875.5241
201.4558, 870.8729
201.9379, 866.6448
202.4200, 863.3470
202.9022, 861.0946
203.3843, 859.3005
203.8664, 857.7933
204.3485, 856.5926
204.8306, 855.7916
205.3127, 855.5056
205.7949, 855.5881
206.2770, 855.7649
206.7591, 856.3088
207.2412, 856.3957
207.7233, 854.9110
208.2054, 852.2139
208.6876, 850.6311
209.1697, 851.5029
209.6518, 853.7756
210.1339, 855.5813
210.6160, 856.5508
211.0981, 857.9074
211.5803, 861.0575
212.0624, 866.0012
212.5445, 870.4085
213.0266, 872.8810
213.5087, 874.7437
213.9908, 877.1364
214.4730, 880.2042
214.9551, 883.8330
215.4372, 888.0621
215.9193, 893.0543
216.4014, 897.7526
216.8836, 900.6424
217.3657, 903.8516
217.8478, 909.3084
218.3299, 917.4880
218.8120, 926.4720
219.2941, 933.3517
219.7763, 937.2374
220.2584, 941.9356
220.7405, 948.2272
221.2226, 955.4616
221.7047, 963.5823
222.1868, 972.5105
222.6690, 981.5571
223.1511, 989.5231
223.6332, 995.8338
224.1153, 1002.440
224.5974, 1008.870
225.0795, 1015.981
225.5617, 1024.597
226.0438, 1034.888
226.5259, 1046.138
227.0080, 1057.121
227.4901, 1067.400
227.9722, 1078.171
228.4544, 1089.470
228.9365, 1101.182
229.4186, 1113.057
229.9007, 1125.031
230.3828, 1137.340
230.8649, 1150.252
231.3471, 1163.894
231.8292, 1178.181
232.3113, 1193.817
232.7934, 1209.590
233.2755, 1224.420
233.7576, 1237.985
234.2398, 1251.146
234.7219, 1265.094
235.2040, 1280.142
235.6861, 1295.643
236.1682, 1311.372
236.6503, 1327.650
237.1325, 1345.118
237.6146, 1363.798
238.0967, 1382.572
238.5788, 1399.671
239.0609, 1414.008
239.5430, 1428.895
240.0252, 1444.066
240.5073, 1459.927
240.9894, 1476.962
241.4715, 1495.361
241.9536, 1514.258
242.4357, 1532.169
242.9179, 1548.042
243.4000, 1567.798
243.8821, 1599.178
244.3642, 1631.348
244.8463, 1650.368
245.3284, 1653.060
245.8106, 1651.368
246.2927, 1659.751
246.7748, 1678.617
247.2569, 1695.788
247.7390, 1708.395
248.2211, 1718.924
248.7033, 1730.421
249.1854, 1743.452
249.6675, 1756.669
250.1496, 1768.760
250.6317, 1779.939
251.1138, 1790.828
251.5960, 1802.343
252.0781, 1813.338
252.5602, 1821.910
253.0423, 1827.461
253.5244, 1832.804
254.0065, 1841.194
254.4887, 1851.387
254.9708, 1859.811
255.4529, 1864.602
255.9350, 1867.502
256.4171, 1870.906
256.8992, 1875.051
257.3813, 1878.942
257.8635, 1882.213
258.3456, 1884.721
258.8277, 1885.952
259.3098, 1885.351
259.7919, 1883.607
260.2740, 1881.603
260.7562, 1879.316
261.2383, 1876.826
261.7204, 1875.085
262.2025, 1872.908
262.6846, 1868.375
263.1667, 1860.014
263.6489, 1850.178
264.1310, 1842.017
264.6131, 1835.719
265.0952, 1830.283
265.5773, 1824.915
266.0594, 1820.397
266.5416, 1818.014
267.0237, 1818.680
267.5058, 1820.082
267.9879, 1818.193
268.4700, 1811.727
268.9521, 1808.051
269.4343, 1812.654
269.9164, 1819.595
270.3985, 1824.157
270.8806, 1825.029
271.3627, 1825.336
271.8448, 1828.952
272.3270, 1836.328
272.8091, 1844.719
273.2912, 1853.804
273.7733, 1863.556
274.2554, 1874.019
274.7375, 1885.258
275.2197, 1897.230
275.7018, 1909.907
276.1839, 1923.157
276.6660, 1937.584
277.1481, 1952.972
277.6302, 1969.880
278.1124, 1988.943
278.5945, 2010.083
279.0766, 2032.074
279.5587, 2053.761
280.0408, 2075.132
280.5229, 2096.817
281.0051, 2116.759
281.4872, 2138.939
281.9693, 2166.360
282.4514, 2197.890
282.9335, 2229.793
283.4156, 2258.273
283.8978, 2283.210
284.3799, 2310.455
284.8620, 2341.373
285.3441, 2373.477
285.8262, 2406.313
286.3083, 2439.632
286.7905, 2473.014
287.2726, 2505.578
287.7547, 2537.726
288.2368, 2572.981
288.7189, 2614.500
289.2010, 2655.598
289.6832, 2694.379
290.1653, 2731.398
290.6474, 2767.723
291.1295, 2803.612
291.6116, 2839.353
292.0938, 2876.032
292.5759, 2915.006
293.0580, 2952.753
293.5401, 2987.760
294.0222, 3021.660
294.5043, 3056.240
294.9865, 3092.370
295.4686, 3129.089
295.9507, 3164.014
296.4328, 3196.312
296.9149, 3228.090
297.3970, 3260.465
297.8792, 3292.020
298.3613, 3321.243
298.8434, 3347.804
299.3255, 3372.523
299.8076, 3396.743
300.2897, 3420.725
300.7719, 3443.516
301.2540, 3465.295
301.7361, 3485.956
302.2182, 3504.945
302.7003, 3522.445
303.1824, 3540.134
303.6646, 3560.941
304.1467, 3587.016
304.6288, 3607.959
305.1109, 3622.038
305.5930, 3632.998
306.0751, 3641.082
306.5573, 3647.199
307.0394, 3653.353
307.5215, 3661.806
308.0036, 3673.003
308.4857, 3680.484
308.9678, 3680.978
309.4500, 3680.798
309.9321, 3681.844
310.4142, 3683.586
310.8963, 3684.809
311.3784, 3684.866
311.8605, 3683.600
312.3427, 3679.746
312.8248, 3669.432
313.3069, 3660.956
313.7890, 3656.010
314.2711, 3653.676
314.7532, 3652.933
315.2354, 3653.366
315.7175, 3654.489
316.1996, 3654.903
316.6817, 3654.272
317.1638, 3653.425
317.6459, 3650.010
318.1281, 3647.728
318.6102, 3650.033
319.0923, 3657.960
319.5744, 3669.839
320.0565, 3682.867
320.5386, 3696.234
321.0208, 3712.844
321.5029, 3734.957
321.9850, 3758.116
322.4671, 3778.763
322.9492, 3797.059
323.4313, 3816.420
323.9135, 3841.333
324.3956, 3873.110
324.8777, 3903.648
325.3598, 3929.778
325.8419, 3957.650
326.3240, 3990.799
326.8062, 4028.082
327.2883, 4066.148
327.7704, 4102.562
328.2525, 4137.415
328.7346, 4173.447
329.2167, 4211.819
329.6989, 4250.439
330.1810, 4290.022
330.6631, 4329.342
331.1452, 4366.208
331.6273, 4399.338
332.1094, 4429.828
332.5916, 4460.814
333.0737, 4491.366
333.5558, 4524.288
334.0379, 4562.488
334.5200, 4601.722
335.0021, 4637.139
335.4843, 4667.383
335.9664, 4695.558
336.4485, 4726.912
336.9306, 4763.531
337.4127, 4797.197
337.8948, 4825.968
338.3770, 4852.635
338.8591, 4878.133
339.3412, 4902.955
339.8233, 4927.602
340.3055, 4953.430
340.7876, 4980.751
341.2697, 5004.892
341.7518, 5020.811
342.2339, 5038.308
342.7160, 5062.119
343.1982, 5090.654
343.6803, 5119.450
344.1624, 5144.431
344.6445, 5167.422
345.1266, 5198.045
345.6087, 5240.201
346.0909, 5284.121
346.5730, 5325.828
347.0551, 5367.384
347.5372, 5411.006
348.0193, 5458.083
348.5014, 5507.597
348.9836, 5558.493
349.4657, 5610.647
349.9478, 5663.875
350.4299, 5715.534
350.9120, 5770.000
351.3941, 5831.263
351.8763, 5899.860
352.3584, 5972.063
352.8405, 6042.249
353.3226, 6110.438
353.8047, 6185.747
354.2868, 6270.545
354.7690, 6362.385
355.2511, 6457.749
355.7332, 6557.834
356.2153, 6666.078
356.6974, 6785.016
357.1795, 6914.029
357.6617, 7050.468
358.1438, 7191.881
358.6259, 7344.695
359.1080, 7510.279
359.5901, 7688.041
360.0722, 7879.582
360.5544, 8084.271
361.0365, 8303.855
361.5186, 8544.606
362.0007, 8806.139
362.4828, 9084.250
362.9649, 9384.453
363.4471, 9698.520
363.9292, 10019.71
364.4113, 10349.04
364.8934, 10680.54
365.3755, 11014.50
365.8576, 11348.76
366.3398, 11672.81
366.8219, 11991.12
367.3040, 12289.29
367.7861, 12555.20
368.2682, 12790.97
368.7503, 13003.66
369.2325, 13195.61
369.7146, 13367.56
370.1967, 13518.10
370.6788, 13646.14
371.1609, 13761.50
371.6430, 13864.46
372.1252, 13959.88
372.6073, 14061.87
373.0894, 14179.33
373.5715, 14298.00
374.0536, 14406.23
374.5357, 14504.63
375.0179, 14599.58
375.5000, 14692.32
375.9821, 14783.56
376.4642, 14875.65
376.9463, 14967.50
377.4284, 15061.59
377.9106, 15155.51
378.3927, 15252.68
378.8748, 15359.30
379.3569, 15477.20
379.8390, 15603.63
380.3211, 15739.77
380.8033, 15889.61
381.2854, 16022.90
381.7675, 16159.66
382.2496, 16262.57
382.7317, 16316.04
383.2138, 16312.43
383.6960, 16233.04
384.1781, 16069.03
384.6602, 15817.03
385.1423, 15425.38
385.6244, 14889.93
386.1065, 14250.03
386.5887, 13491.32
387.0708, 12644.45
387.5529, 11739.11
388.0350, 10784.04
388.5171, 9812.169
388.9992, 8890.168
389.4814, 8011.355
389.9635, 7207.700
390.4456, 6479.606
390.9277, 5824.132
391.4098, 5241.655
391.8919, 4731.713
392.3741, 4283.345
392.8562, 3889.481
393.3383, 3551.590
393.8204, 3248.260
394.3025, 2985.853
394.7846, 2748.083
395.2668, 2532.609
395.7489, 2336.799
396.2310, 2157.620
396.7131, 1993.194
397.1952, 1843.531
397.6773, 1707.819
398.1595, 1587.045
398.6416, 1479.801
399.1237, 1386.382
399.6058, 1303.928
400.0879, 1230.693
400.5700, 1165.950
401.0522, 1108.708
401.5343, 1057.696
402.0164, 1013.614
402.4985, 973.1423
402.9806, 937.0007
403.4627, 904.1011
403.9449, 874.4176
404.4270, 847.6436
404.9091, 823.1954
405.3912, 801.0025
405.8733, 780.6910
406.3554, 761.3716
406.8376, 742.9412
407.3197, 725.4178
407.8018, 708.8205
408.2839, 693.1146
408.7660, 678.5524
409.2481, 665.1019
409.7303, 652.5408
410.2124, 640.5267
410.6945, 629.0964
411.1766, 618.4792
411.6587, 608.9581
412.1408, 599.9457
412.6230, 590.9250
413.1051, 581.9106
413.5872, 572.9863
414.0693, 563.8863
414.5514, 554.9991
415.0335, 547.2590
415.5157, 540.8219
415.9978, 534.3150
416.4799, 526.5400
416.9620, 518.0832
417.4441, 510.7662
417.9262, 505.3131
418.4084, 500.1182
418.8905, 494.0903
419.3726, 487.6242
419.8547, 481.8112
420.3368, 477.0714
420.8189, 472.9585
421.3011, 468.8120
421.7832, 464.5763
422.2653, 460.5706
422.7474, 457.1062
423.2295, 453.7057
423.7116, 449.8817
424.1938, 445.6455
424.6759, 441.3513
425.1580, 437.2325
425.6401, 433.2943
426.1222, 429.5013
426.6043, 425.7807
427.0865, 422.2614
427.5686, 418.8513
428.0507, 415.6847
428.5328, 413.0945
429.0149, 411.1818
429.4970, 409.4393
429.9792, 406.8702
430.4613, 402.6313
430.9434, 399.4035
431.4255, 397.9797
431.9076, 396.6791
432.3897, 394.4395
432.8719, 391.4105
433.3540, 388.3957
433.8361, 386.0034
434.3182, 384.1933
434.8003, 382.6760
435.2824, 381.7741
435.7646, 380.6815
436.2467, 379.3814
436.7288, 377.7390
437.2109, 375.4431
437.6930, 372.3851
438.1751, 369.2716
438.6573, 367.0618
439.1394, 365.8277
439.6215, 364.4956
440.1036, 362.7785
440.5857, 361.0932
441.0678, 359.6042
441.5500, 358.3421
442.0321, 357.4008
442.5142, 357.1374
442.9963, 357.0987
443.4784, 356.4494
443.9605, 355.1508
444.4427, 353.4952
444.9248, 351.2127
445.4069, 348.8834
445.8890, 347.5467
446.3711, 347.5210
446.8532, 347.7031
447.3354, 347.6924
447.8175, 347.4304
448.2996, 346.7665
448.7817, 345.6565
449.2638, 344.2068
449.7459, 342.3619
450.2281, 340.0876
450.7102, 338.4561
451.1923, 337.8567
451.6744, 337.5977
452.1565, 337.3822
452.6386, 337.1586
453.1208, 336.8635
453.6029, 336.4600
454.0850, 335.9727
454.5671, 335.4730
455.0492, 335.2441
455.5313, 334.5863
456.0135, 332.9380
456.4956, 331.2308
456.9777, 330.2545
457.4598, 330.0706
457.9419, 330.1720
458.4240, 330.0777
458.9062, 329.7841
459.3883, 329.6734
459.8704, 330.2721
460.3525, 330.4443
460.8346, 329.5438
461.3167, 328.2273
461.7989, 327.2812
462.2810, 326.9995
462.7631, 327.2263
463.2452, 328.0645
463.7273, 329.8378
464.2094, 330.2241
464.6916, 327.4124
465.1737, 324.5535
465.6558, 323.5903
466.1379, 324.2002
466.6200, 324.9313
467.1021, 324.9640
467.5843, 324.6196
468.0664, 324.5609
468.5485, 324.8292
469.0306, 325.1058
469.5127, 325.4668
469.9948, 325.6022
470.4770, 324.8946
470.9591, 322.9807
471.4412, 321.5322
471.9233, 321.9404
472.4054, 323.2459
472.8875, 323.4606
473.3697, 322.1638
473.8518, 320.9474
474.3339, 321.4898
474.8160, 323.7524
475.2981, 324.7156
475.7802, 323.2350
476.2624, 321.6931
476.7445, 321.2793
477.2266, 321.5380
477.7087, 321.5659
478.1908, 321.0020
478.6729, 320.0774
479.1551, 319.1687
479.6372, 318.0480
480.1193, 317.5151
480.6014, 318.0674
481.0835, 318.6752
481.5656, 318.6257
482.0478, 318.1208
482.5299, 317.8696
483.0120, 318.3870
483.4941, 319.4162
483.9762, 320.0125
484.4583, 320.2318
484.9405, 319.8712
485.4226, 318.5681
485.9047, 316.9458
486.3868, 315.2931
486.8689, 313.7214
487.3510, 312.5907
487.8332, 312.4956
488.3153, 313.1786
488.7974, 313.3598
489.2795, 312.9056
489.7616, 312.1612
490.2437, 311.0621
490.7259, 309.8670
491.2080, 309.0154
491.6901, 308.7782
492.1722, 308.5231
492.6543, 307.6725
493.1364, 306.4359
493.6186, 305.4716
494.1007, 304.9879
494.5828, 304.6049
495.0649, 303.9541
495.5470, 303.0227
496.0291, 301.6807
496.5113, 299.2525
496.9934, 297.0308
497.4755, 295.9621
497.9576, 295.7054
498.4397, 295.4136
498.9218, 294.6937
499.4040, 293.6247
499.8861, 292.3650
500.3682, 290.7088
500.8503, 289.2584
501.3324, 287.8560
501.8145, 286.7580
502.2967, 286.5830
502.7788, 286.9130
503.2609, 286.4315
503.7430, 283.9944
504.2251, 280.3048
504.7072, 278.2954
505.1894, 278.9240
505.6715, 279.0179
506.1536, 277.3840
506.6357, 275.1632
507.1178, 273.1109
507.5999, 271.3482
508.0821, 269.8113
508.5642, 268.3923
509.0463, 267.1664
509.5284, 266.4591
510.0105, 266.4216
510.4926, 266.3219
510.9748, 265.6192
511.4569, 264.5580
511.9390, 263.7655
512.4211, 263.5648
512.9032, 263.1052
513.3853, 261.5424
513.8674, 259.5570
514.3495, 258.4867
514.8317, 258.6176
515.3138, 258.9688
515.7959, 258.5114
516.2780, 257.1660
516.7601, 256.1601
517.2422, 255.7586
517.7244, 255.3357
518.2065, 254.7619
518.6886, 254.0088
519.1707, 253.0025
519.6528, 251.7331
520.1349, 250.3652
520.6171, 249.0893
521.0992, 247.8041
521.5813, 247.0353
522.0634, 247.5468
522.5455, 247.8278
523.0276, 247.0765
523.5098, 245.7376
523.9919, 244.6629
524.4740, 244.2217
524.9561, 244.2024
525.4382, 244.5905
525.9203, 245.4046
526.4025, 245.2415
526.8846, 243.1810
527.3667, 240.8306
527.8488, 239.8899
528.3309, 240.1339
528.8130, 240.1192
529.2952, 239.1309
529.7773, 237.9305
530.2594, 237.3133
530.7415, 237.1468
531.2236, 236.6721
531.7057, 235.4609
532.1879, 234.0444
532.6700, 233.5098
533.1521, 234.5602
533.6342, 234.8753
534.1163, 233.8646
534.5984, 232.5773
535.0806, 231.6093
535.5627, 230.9661
536.0448, 230.4329
536.5269, 229.8772
537.0090, 229.3521
537.4911, 229.0359
537.9733, 228.9934
538.4554, 229.0161
538.9375, 229.1028
539.4196, 229.2238
539.9017, 229.5675
540.3839, 229.9882
540.8660, 229.9146
541.3481, 228.6345
541.8302, 226.8063
542.3123, 225.9723
542.7944, 226.2317
543.2766, 226.6324
543.7587, 226.8446
544.2408, 226.9851
544.7229, 227.3402
545.2050, 227.9929
545.6871, 228.1695
546.1693, 226.9309
546.6514, 225.5011
547.1335, 225.4114
547.6156, 226.5760
548.0977, 227.7727
548.5798, 228.2952
549.0620, 228.2519
549.5441, 228.0097
550.0262, 227.4379
550.5083, 226.8217
550.9904, 225.8157
551.4725, 225.0246
551.9547, 225.0577
552.4368, 225.7858
552.9189, 226.5631
553.4010, 226.9037
553.8831, 226.9243
554.3652, 227.1416
554.8474, 227.7744
555.3295, 228.0515
555.8116, 227.1521
556.2937, 226.2611
556.7758, 226.5174
557.2579, 227.8673
557.7401, 228.8475
558.2222, 228.2127
558.7043, 226.8122
559.1864, 226.0804
559.6685, 226.0614
560.1506, 226.3522
560.6328, 226.8466
561.1149, 227.4457
561.5970, 227.9594
562.0791, 228.4144
562.5612, 228.7184
563.0433, 228.8203
563.5255, 228.7878
564.0076, 228.5675
564.4897, 228.2421
564.9718, 228.0955
565.4539, 228.3309
565.9360, 228.8076
566.4182, 229.0444
566.9003, 228.9236
567.3824, 228.7842
567.8645, 228.3485
568.3466, 228.1578
568.8287, 227.5722
569.3109, 227.3783
569.7930, 230.3771
570.2751, 240.5146
570.7572, 252.6516
571.2393, 254.5508
571.7214, 245.2992
572.2036, 236.9060
572.6857, 233.0092
573.1678, 231.8072
573.6499, 231.4472
574.1320, 231.9020
574.6141, 232.3567
575.0963, 232.4298
575.5784, 232.5396
576.0605, 233.3663
576.5426, 234.5922
577.0247, 235.0169
577.5068, 234.0230
577.9890, 232.4043
578.4711, 231.6456
578.9532, 232.0528
579.4353, 232.5905
579.9174, 233.4920
580.3995, 234.2784
580.8817, 234.6293
581.3638, 234.7074
581.8459, 234.8565
582.3280, 235.2481
582.8101, 235.7033
583.2922, 235.8980
583.7744, 235.8071
584.2565, 235.8301
584.7386, 236.1412
585.2207, 236.3988
585.7029, 236.1981
586.1850, 235.7577
586.6671, 235.6649
587.1492, 236.2690
587.6313, 236.9758
588.1135, 237.4111
588.5956, 237.6144
589.0777, 237.6051
589.5598, 237.3798
590.0419, 237.2074
590.5240, 237.4132
591.0062, 238.0237
591.4883, 238.3811
591.9704, 238.1882
592.4525, 238.1358
592.9346, 238.7741
593.4167, 239.4503
593.8989, 239.1594
594.3810, 237.8204
594.8631, 236.6025
595.3452, 236.8853
595.8273, 238.5102
596.3094, 239.6150
596.7916, 240.0637
597.2737, 240.3154
597.7558, 240.4367
598.2379, 240.5241
598.7200, 240.7131
599.2021, 241.0380
599.6843, 241.2591
600.1664, 240.8570
600.6485, 240.4720
601.1306, 241.3038
601.6127, 243.2784
602.0948, 245.0019
602.5770, 245.6713
603.0591, 245.5415
603.5412, 245.2968
604.0233, 244.6300
604.5054, 244.3710
604.9875, 244.8280
605.4697, 245.4143
605.9518, 245.8597
606.4339, 246.1139
606.9160, 246.1110
607.3981, 245.7716
607.8802, 245.3608
608.3624, 245.4028
608.8445, 245.9301
609.3266, 246.6855
609.8087, 247.7335
610.2908, 248.8741
610.7729, 250.2276
611.2551, 251.5815
611.7372, 252.2472
612.2193, 251.5589
612.7014, 250.7468
613.1835, 250.8364
613.6656, 251.4309
614.1478, 251.6005
614.6299, 251.1178
615.1120, 250.5181
615.5941, 250.3366
616.0762, 250.5743
616.5583, 250.8307
617.0405, 250.9499
617.5226, 251.2828
618.0047, 252.0222
618.4868, 252.9204
618.9689, 253.8144
619.4510, 254.6340
619.9332, 255.2695
620.4153, 255.6310
620.8974, 255.7369
621.3795, 255.5161
621.8616, 254.8371
622.3438, 254.4626
622.8259, 254.0833
623.3080, 254.7244
623.7901, 258.7163
624.2722, 266.4106
624.7543, 270.9305
625.2365, 268.1447
625.7186, 263.4282
626.2007, 260.7970
626.6828, 259.9625
627.1649, 259.4786
627.6470, 258.7314
628.1292, 258.0961
628.6113, 258.2394
629.0934, 259.4146
629.5755, 260.3015
630.0576, 260.4434
630.5397, 260.7751
631.0219, 261.6804
631.5040, 262.8959
631.9861, 264.1950
632.4682, 265.5312
632.9503, 266.4143
633.4324, 265.9366
633.9146, 264.6472
634.3967, 264.5109
634.8788, 265.8174
635.3609, 266.9546
635.8430, 266.8430
636.3251, 265.9815
636.8073, 265.8142
637.2894, 266.5204
637.7715, 267.3557
638.2536, 268.6719
638.7357, 269.7009
639.2178, 269.4459
639.7000, 268.3604
640.1821, 267.9023
640.6642, 268.9116
641.1463, 270.5485
641.6284, 270.9458
642.1105, 269.7321
642.5927, 269.2885
643.0748, 270.3600
643.5569, 271.5448
644.0390, 272.0114
644.5211, 272.0344
645.0032, 272.1734
645.4854, 272.6112
645.9675, 273.0659
646.4496, 273.3445
646.9317, 273.5151
647.4138, 273.7501
647.8959, 274.0614
648.3781, 274.1714
648.8602, 273.7855
649.3423, 273.1130
649.8244, 273.1668
650.3065, 274.7888
650.7886, 275.8852
651.2708, 276.0197
651.7529, 275.9486
652.2350, 276.2934
652.7171, 276.8767
653.1992, 277.0224
653.6813, 276.2543
654.1635, 275.1778
654.6456, 274.6746
655.1277, 274.7191
655.6098, 275.1146
656.0919, 276.0180
656.5740, 276.6910
657.0562, 276.2868
657.5383, 275.0020
658.0204, 274.3630
658.5025, 274.6078
658.9846, 275.2055
659.4667, 276.4531
659.9489, 277.7052
660.4310, 278.1376
660.9131, 277.7878
661.3952, 277.4456
661.8773, 277.7534
662.3594, 278.3824
662.8416, 278.1935
663.3237, 276.9784
663.8058, 275.6573
664.2879, 273.6591
664.7700, 272.3941
665.2521, 273.2345
665.7343, 275.6310
666.2164, 277.7264
666.6985, 279.2865
667.1806, 280.0335
667.6627, 279.2716
668.1448, 277.6888
668.6270, 276.6096
669.1091, 276.2912
669.5912, 276.1710
670.0733, 275.7324
670.5554, 275.0743
671.0375, 274.9268
671.5197, 275.6809
672.0018, 276.3116
672.4839, 277.0041
672.9660, 277.3038
673.4481, 276.4151
673.9302, 274.7957
674.4124, 273.9752
674.8945, 275.0343
675.3766, 276.7447
675.8587, 277.7926
676.3408, 278.1871
676.8229, 277.7480
677.3051, 276.2895
677.7872, 274.9703
678.2693, 274.9066
678.7514, 275.9688
679.2335, 276.6551
679.7156, 277.2560
680.1978, 277.1427
680.6799, 275.2979
681.1620, 273.4005
681.6441, 273.0753
682.1262, 274.1077
682.6083, 275.1065
683.0905, 275.1721
683.5726, 274.7831
684.0547, 275.0013
684.5368, 275.8232
685.0189, 275.9361
685.5010, 274.8498
685.9832, 273.5499
686.4653, 272.7765
686.9474, 272.4914
687.4295, 272.4313
687.9116, 272.7982
688.3937, 273.1037
688.8759, 273.2641
689.3580, 273.2604
689.8401, 272.9701
690.3222, 272.4722
690.8043, 272.1011
691.2864, 272.1093
691.7686, 272.2534
692.2507, 271.8414
692.7328, 270.7289
693.2149, 269.9820
693.6970, 269.7506
694.1791, 269.9051
694.6613, 270.8449
695.1434, 272.0479
695.6255, 272.2563
696.1076, 270.8544
696.5897, 269.3128
697.0718, 267.8386
697.5540, 266.8539
698.0361, 267.3412
698.5182, 268.9909
699.0003, 270.1295
699.4824, 269.6997
699.9645, 268.2822
700.4467, 267.2430
700.9288, 266.6308
701.4109, 266.2567
701.8930, 266.4750
702.3751, 266.4781
702.8572, 265.5594
703.3394, 264.2746
703.8215, 263.6708
704.3036, 264.1674
704.7857, 264.5063
705.2678, 263.6382
705.7499, 262.3608
706.2321, 261.9057
706.7142, 262.1878
707.1963, 262.1890
707.6784, 261.3466
708.1605, 260.1133
708.6426, 259.4638
709.1248, 259.7582
709.6069, 259.3337
710.0890, 257.2801
710.5711, 255.5736
711.0532, 255.1405
711.5353, 255.3168
712.0175, 255.2023
712.4996, 254.6045
712.9817, 254.0917
713.4638, 254.2819
713.9459, 254.6080
714.4280, 254.1285
714.9102, 252.9813
715.3923, 252.0347
715.8744, 251.6689
716.3565, 251.5663
716.8386, 251.2767
717.3207, 250.7931
717.8029, 250.1844
718.2850, 249.3272
718.7671, 248.5000
719.2492, 247.6744
719.7313, 246.9669
720.2134, 246.6326
720.6956, 246.6309
721.1777, 246.3721
721.6598, 245.2929
722.1419, 243.9148
722.6240, 242.7173
723.1061, 241.7826
723.5883, 241.5519
724.0704, 242.1898
724.5525, 243.0514
725.0346, 243.5047
725.5167, 243.5495
725.9988, 243.2627
726.4810, 242.5199
726.9631, 241.6064
727.4452, 240.1420
727.9273, 238.8547
728.4094, 238.6327
728.8915, 239.1439
729.3737, 239.0095
729.8558, 237.2132
730.3379, 235.1622
730.8200, 234.3999
731.3021, 234.5762
731.7842, 234.8636
732.2664, 235.1047
732.7485, 235.0099
733.2306, 234.3039
733.7127, 233.1559
734.1948, 232.2244
734.6769, 231.5098
735.1591, 231.0240
735.6412, 231.0517
736.1233, 231.0030
736.6054, 230.5162
737.0875, 229.7536
737.5696, 229.0491
738.0518, 228.5173
738.5339, 227.9831
739.0160, 227.2337
739.4981, 226.4100
739.9802, 225.7332
740.4623, 225.2259
740.9445, 224.9658
741.4266, 225.0328
741.9087, 225.1828
742.3908, 224.9999
742.8729, 224.4910
743.3550, 223.6015
743.8372, 221.7946
744.3193, 220.2507
744.8014, 219.2603
745.2835, 218.7044
745.7656, 218.6651
746.2477, 219.0834
746.7299, 219.1359
747.2120, 217.9628
747.6941, 216.4955
748.1762, 215.9780
748.6583, 216.0921
749.1404, 215.7618
749.6226, 214.6869
750.1047, 213.4180
750.5868, 212.4738
751.0689, 211.8595
751.5510, 211.6797
752.0331, 212.5827
752.5153, 212.6658
752.9974, 210.9092
753.4795, 208.8612
753.9616, 207.4473
754.4437, 206.5525
754.9258, 205.6908
755.4080, 204.8051
755.8901, 203.7269
756.3722, 201.9112
756.8543, 200.0381
757.3364, 199.3746
757.8185, 199.8362
758.3007, 200.1585
758.7828, 199.5647
759.2649, 198.4694
759.7470, 197.8416
760.2291, 197.8872
760.7112, 197.3082
761.1934, 195.4035
761.6755, 193.9192
762.1576, 194.3060
762.6397, 195.2765
763.1218, 195.0914
763.6039, 193.4688
764.0861, 192.0198
764.5682, 191.3330
765.0503, 190.9956
765.5324, 190.9214
766.0145, 190.8983
766.4966, 190.5144
766.9788, 189.6777
767.4609, 188.7231
767.9430, 188.0422
768.4251, 187.5121
768.9072, 186.4077
769.3893, 184.5728
769.8715, 182.9992
770.3536, 181.9792
770.8357, 181.2173
771.3178, 180.3668
771.7999, 179.5180
772.2820, 179.1571
772.7642, 179.9309
773.2463, 180.3557
773.7284, 179.9723
774.2105, 179.1199
774.6926, 177.7700
775.1747, 176.2289
775.6569, 175.3317
776.1390, 175.5625
776.6211, 175.9050
777.1032, 174.7054
777.5853, 172.2949
778.0674, 170.5138
778.5496, 169.5002
779.0317, 169.0934
779.5138, 169.3776
779.9959, 169.9836
780.4780, 170.3246
780.9601, 170.4629
781.4423, 170.0227
781.9244, 168.4426
782.4065, 166.9956
782.8886, 166.0366
783.3707, 165.4473
783.8528, 165.2852
784.3350, 165.4187
784.8171, 165.1952
785.2992, 163.9341
785.7813, 162.4254
786.2634, 161.6647
786.7455, 161.5215
787.2277, 161.6760
787.7098, 162.0528
788.1919, 162.3508
788.6740, 162.3425
789.1561, 162.0564
789.6382, 161.5514
790.1204, 160.6005
790.6025, 159.9855
791.0846, 159.8897
791.5667, 159.9893
792.0488, 160.4543
792.5309, 160.9037
793.0131, 160.6757
793.4952, 159.5769
793.9773, 158.4397
794.4594, 157.2678
794.9415, 156.5513
795.4236, 157.2895
795.9058, 158.7759
796.3879, 159.2367
796.8700, 158.1942
797.3521, 156.8345
797.8342, 156.3829
798.3163, 156.6700
798.7985, 156.8117
799.2806, 156.7730
799.7627, 156.7913
800.2448, 156.9351
800.7269, 157.1239
801.2090, 157.2892
801.6912, 157.4397
802.1733, 157.6409
802.6554, 158.2380
803.1375, 158.3336
803.6196, 157.1000
804.1017, 155.9071
804.5839, 155.9243
805.0660, 156.7374
805.5481, 157.3466
806.0302, 157.3836
806.5123, 157.2176
806.9944, 157.3288
807.4766, 157.4870
807.9587, 156.9695
808.4408, 155.8337
808.9229, 154.9670
809.4050, 154.7039
809.8871, 154.7736
810.3693, 154.8703
810.8514, 154.9958
811.3335, 155.2325
811.8156, 155.8537
812.2977, 156.1269
812.7798, 155.6609
813.2620, 155.0829
813.7441, 154.7393
814.2262, 154.6232
814.7083, 154.6610
815.1904, 154.8808
815.6725, 155.1291
816.1547, 155.5069
816.6368, 155.7385
817.1189, 155.2681
817.6010, 154.3528
818.0831, 153.8980
818.5652, 154.2799
819.0474, 154.9073
819.5295, 154.9148
820.0116, 154.4138
820.4937, 154.5677
820.9758, 155.5478
821.4579, 156.0850
821.9401, 155.5146
822.4222, 154.8315
822.9043, 155.2958
823.3864, 156.8273
823.8685, 157.3909
824.3506, 156.1816
824.8328, 155.1807
825.3149, 154.7357
825.7970, 154.5516
826.2791, 154.5012
826.7612, 154.5178
827.2433, 154.4906
827.7255, 154.3638
828.2076, 154.3167
828.6897, 154.7406
829.1718, 155.2218
829.6539, 154.8736
830.1360, 153.8750
830.6182, 153.1650
831.1003, 153.0997
831.5824, 153.5529
832.0645, 154.5347
832.5466, 155.9298
833.0287, 156.0745
833.5109, 154.3775
833.9930, 153.2362
834.4751, 153.5687
834.9572, 154.0832
835.4393, 153.5721
835.9214, 152.4082
836.4036, 151.6641
836.8857, 151.4641
837.3678, 151.5975
837.8499, 152.4081
838.3320, 153.1688
838.8141, 153.2288
839.2963, 152.8825
839.7784, 152.7068
840.2605, 152.8857
840.7426, 153.2397
841.2247, 153.8221
841.7068, 154.3729
842.1890, 154.1759
842.6711, 153.4048
843.1532, 153.0938
843.6353, 153.5212
844.1174, 154.1458
844.5995, 154.5240
845.0817, 154.6614
845.5638, 154.5414
846.0459, 154.0274
846.5280, 153.6277
847.0101, 153.3236
847.4922, 153.2125
847.9744, 153.4033
848.4565, 153.7879
848.9386, 154.3754
849.4207, 155.3015
849.9028, 155.4285
850.3849, 153.4995
850.8671, 151.7083
851.3492, 151.5629
851.8313, 152.2433
852.3134, 152.5959
852.7955, 152.4571
853.2776, 152.3787
853.7598, 152.7682
854.2419, 153.3273
854.7240, 153.6099
855.2061, 153.6689
855.6882, 153.7090
856.1703, 153.7550
856.6525, 153.7389
857.1346, 153.6107
857.6167, 153.4427
858.0988, 153.3982
858.5809, 153.5279
859.0630, 153.4318
859.5452, 153.0102
860.0273, 152.5359
860.5094, 151.7518
860.9915, 151.2263
861.4736, 151.7673
861.9557, 153.1388
862.4379, 153.8819
862.9200, 153.2312
863.4021, 152.6367
863.8842, 152.8236
864.3663, 153.0933
864.8484, 152.7087
865.3306, 151.9060
865.8127, 151.4036
866.2948, 151.4746
866.7769, 151.6293
867.2590, 151.2379
867.7411, 150.6487
868.2233, 150.6471
868.7054, 151.1578
869.1875, 151.8182
869.6696, 152.5322
870.1517, 152.7514
870.6339, 151.7832
871.1160, 150.0939
871.5981, 150.0118
872.0802, 152.2835
872.5623, 153.3891
873.0444, 152.3366
873.5266, 151.1739
874.0087, 151.1812
874.4908, 151.7437
874.9729, 151.6505
875.4550, 150.7177
875.9371, 150.1807
876.4193, 150.3306
876.9014, 150.7553
877.3835, 151.7905
877.8656, 152.6714
878.3477, 152.1787
878.8298, 150.6492
879.3120, 149.9408
879.7941, 151.2872
880.2762, 152.9337
880.7583, 153.1192
881.2404, 152.4663
881.7225, 151.9483
882.2047, 151.6674
882.6868, 151.7036
883.1689, 152.0869
883.6510, 152.1451
884.1331, 150.7348
884.6152, 148.2041
885.0974, 147.4497
885.5795, 148.7496
886.0616, 149.8152
886.5437, 150.0513
887.0258, 150.1152
887.5079, 150.6648
887.9901, 151.4436
888.4722, 151.3819
888.9543, 149.4983
889.4364, 148.6555
889.9185, 149.7577
890.4006, 150.8314
890.8828, 151.1850
891.3649, 151.0349
891.8470, 150.5257
892.3291, 149.7336
892.8112, 149.1756
893.2933, 149.3454
893.7755, 149.4864
894.2576, 148.9876
894.7397, 148.2759
895.2218, 147.6669
895.7039, 147.3609
896.1860, 147.3852
896.6682, 147.6931
897.1503, 149.6981
897.6324, 157.3636
898.1145, 167.6917
898.5966, 171.4917
899.0787, 168.9857
899.5609, 164.3722
900.0430, 158.7850
900.5251, 153.7133
901.0072, 150.6012
901.4893, 149.1964
901.9714, 148.4802
902.4536, 148.7536
902.9357, 148.5380
903.4178, 147.1914
903.8999, 146.2801
904.3820, 146.9475
904.8641, 148.3818
905.3463, 149.2621
905.8284, 149.5788
906.3105, 149.4802
906.7926, 148.1423
907.2747, 147.4613
907.7568, 148.8402
908.2390, 150.4486
908.7211, 150.4843
909.2032, 149.3117
909.6853, 148.5004
910.1674, 148.6718
910.6495, 149.0066
911.1317, 148.9054
911.6138, 148.7259
912.0959, 149.0468
912.5780, 149.5927
913.0601, 149.5617
913.5422, 148.8098
914.0244, 148.1037
914.5065, 148.1506
914.9886, 148.5901
915.4707, 148.5713
915.9528, 148.2079
916.4349, 148.3555
916.9171, 149.1367
917.3992, 149.6147
917.8813, 149.1893
918.3634, 148.5605
918.8455, 149.0463
919.3276, 150.7707
919.8098, 151.3191
920.2919, 150.1613
920.7740, 149.2087
921.2561, 149.1523
921.7382, 149.1134
922.2203, 147.9950
922.7025, 146.2882
923.1846, 145.9634
923.6667, 148.0411
924.1488, 149.2634
924.6309, 148.5207
925.1130, 147.7865
925.5952, 148.1378
926.0773, 148.8948
926.5594, 149.2771
927.0415, 149.1739
927.5236, 148.7421
928.0057, 147.6840
928.4879, 146.8549
928.9700, 146.9792
929.4521, 147.5208
929.9342, 148.0409
930.4163, 148.3824
930.8984, 148.2351
931.3806, 147.5133
931.8627, 146.8707
932.3448, 146.9936
932.8269, 147.6316
933.3090, 148.6327
933.7911, 149.7345
934.2733, 149.5046
934.7554, 147.7509
935.2375, 146.1589
935.7196, 145.8558
936.2017, 146.4533
936.6838, 147.3632
937.1660, 148.6457
937.6481, 148.9325
938.1302, 147.9680
938.6123, 147.1243
939.0944, 146.8466
939.5765, 146.8765
940.0587, 147.0291
940.5408, 147.2632
941.0229, 147.2641
941.5050, 146.8315
941.9871, 146.5324
942.4692, 146.3324
942.9514, 146.3288
943.4335, 146.6133
943.9156, 147.0870
944.3977, 147.7831
944.8798, 148.6806
945.3619, 149.0476
945.8441, 148.2165
946.3262, 147.4980
946.8083, 147.4725
947.2904, 147.6478
947.7725, 147.6763
948.2546, 147.5402
948.7368, 147.2002
949.2189, 146.6316
949.7010, 146.4052
950.1831, 147.3370
950.6652, 148.3896
951.1473, 148.4812
951.6295, 147.9469
952.1116, 147.1690
952.5937, 146.3924
953.0758, 146.2379
953.5579, 147.1116
954.0400, 148.2936
954.5222, 148.8579
955.0043, 148.9339
955.4864, 148.8547
955.9685, 148.6448
956.4506, 148.3736
956.9327, 148.0613
957.4149, 147.5997
957.8970, 146.7976
958.3791, 145.9726
958.8612, 146.2771
959.3433, 147.8278
959.8254, 148.7843
960.3076, 148.9617
960.7897, 148.7920
961.2718, 148.3421
961.7539, 147.8704
962.2360, 147.7229
962.7181, 147.8838
963.2003, 148.0087
963.6824, 148.2568
964.1645, 148.1250
964.6466, 147.1288
965.1287, 146.2904
965.6108, 146.1603
966.0930, 146.5241
966.5751, 147.2427
967.0572, 148.3934
967.5393, 148.9722
968.0214, 148.4889
968.5035, 147.9348
968.9857, 147.4256
969.4678, 147.0813
969.9499, 147.0347
970.4320, 147.2051
970.9141, 147.4412
971.3962, 147.7256
971.8784, 147.9027
972.3605, 147.8181
972.8426, 147.6888
973.3247, 147.7283
973.8068, 147.7720
974.2889, 147.5078
974.7711, 147.0223
975.2532, 146.7593
975.7353, 146.9533
976.2174, 147.2063
976.6995, 146.9918
977.1816, 146.7346
977.6638, 147.2753
978.1459, 148.2315
978.6280, 148.4792
979.1101, 147.8797
979.5922, 147.3303
980.0743, 147.4888
980.5565, 147.9090
981.0386, 147.8357
981.5207, 147.4138
982.0028, 147.0809
982.4849, 146.8883
982.9670, 147.1042
983.4492, 147.8230
983.9313, 148.4884
984.4134, 148.5674
984.8955, 148.1929
985.3776, 147.7056
985.8597, 147.0927
986.3419, 146.8003
986.8240, 146.8946
987.3061, 147.1391
987.7882, 147.5077
988.2703, 147.7332
988.7524, 147.3918
989.2346, 146.5905
989.7167, 146.5719
990.1988, 147.7991
990.6809, 148.3597
991.1630, 147.7375
991.6451, 147.0641
992.1273, 146.8223
992.6094, 146.9171
993.0915, 147.1639
993.5736, 147.5395
994.0557, 148.4438
994.5378, 148.2677
995.0200, 151.0367
995.5021, 163.3250
995.9842, 172.0721
996.4663, 167.0334
996.9484, 155.2538
997.4305, 148.3056
997.9127, 147.3554
998.3948, 147.2502
998.8769, 147.7408
999.3590, 148.1737
999.8411, 147.7104
1000.323, 147.7011
1000.805, 149.9335
1001.287, 153.2126
1001.770, 155.1250
1002.252, 155.1508
1002.734, 153.9483
1003.216, 150.3048
1003.698, 147.2496
1004.180, 147.1046
1004.662, 148.0825
1005.144, 148.3186
1005.627, 147.8689
1006.109, 147.5740
1006.591, 147.7296
1007.073, 147.9795
1007.555, 148.3430
1008.037, 148.4317
1008.519, 147.5754
1009.001, 146.3356
1009.483, 145.4039
1009.966, 144.9959
1010.448, 145.4687
1010.930, 147.0310
1011.412, 148.6181
1011.894, 149.1559
1012.376, 149.0373
1012.858, 148.6248
1013.340, 148.1180
1013.823, 148.0938
1014.305, 148.5394
1014.787, 148.7897
1015.269, 148.4517
1015.751, 147.9326
1016.233, 147.8452
1016.715, 147.9966
1017.197, 147.5390
1017.679, 146.7526
1018.162, 147.1592
1018.644, 149.0237
1019.126, 151.5025
1019.608, 154.1852
1020.090, 155.9740
1020.572, 154.1847
1021.054, 149.5191
1021.536, 146.9856
1022.018, 146.5731
1022.501, 146.9121
1022.983, 147.7160
1023.465, 148.3191
1023.947, 148.2128
1024.429, 147.6826
1024.911, 147.3119
1025.393, 147.1029
1025.875, 146.8985
1026.358, 146.6878
1026.840, 146.5619
1027.322, 146.5324
1027.804, 146.6849
1028.286, 147.1692
1028.768, 147.7307
1029.250, 147.6085
1029.732, 146.6109
1030.214, 146.5488
1030.697, 147.8449
1031.179, 148.5651
1031.661, 147.9947
1032.143, 147.2182
1032.625, 147.1381
1033.107, 147.4440
1033.589, 147.2243
1034.071, 146.3118
1034.553, 145.5857
1035.036, 144.8344
1035.518, 144.7734
1036.000, 146.0709
1036.482, 147.3919
1036.964, 147.5770
1037.446, 147.0264
1037.928, 146.9527
1038.410, 147.6330
1038.893, 147.8096
1039.375, 147.1377
1039.857, 146.5034
1040.339, 145.7743
1040.821, 145.5101
1041.303, 146.5858
1041.785, 148.3942
1042.267, 149.1114
1042.750, 148.3029
1043.232, 147.8600
1043.714, 147.9213
1044.196, 148.1858
1044.678, 149.2781
1045.160, 149.9047
1045.642, 148.3975
1046.124, 145.8421
1046.606, 145.0406
1047.089, 146.7208
1047.571, 147.7311
1048.053, 147.3135
1048.535, 146.7714
1049.017, 146.2599
1049.499, 145.9327
1049.981, 145.9275
1050.463, 146.1823
1050.945, 146.6408
1051.428, 147.3856
1051.910, 147.7503
1052.392, 147.0600
1052.874, 146.7092
1053.356, 147.8629
1053.838, 148.8486
1054.320, 148.0464
1054.802, 146.2093
1055.285, 144.8473
1055.767, 144.1747
1056.249, 144.1950
1056.731, 145.6285
1057.213, 146.8050
1057.695, 146.8544
1058.177, 146.6605
1058.659, 147.1061
1059.141, 147.7471
1059.624, 147.4774
1060.106, 146.1090
1060.588, 145.3267
1061.070, 146.3240
1061.552, 147.1261
1062.034, 146.6890
1062.516, 146.0154
1062.998, 145.8882
1063.480, 146.0911
1063.963, 146.1840
1064.445, 146.0899
1064.927, 145.9237
1065.409, 145.3739
1065.891, 145.2374
1066.373, 146.4518
1066.855, 147.6010
1067.337, 147.2598
1067.820, 146.2729
1068.302, 146.1668
1068.784, 147.0518
1069.266, 147.6069
1069.748, 147.1159
1070.230, 146.5907
1070.712, 146.4529
1071.194, 146.4700
1071.677, 146.5242
1072.159, 146.5853
1072.641, 146.6812
1073.123, 146.7769
1073.605, 146.6787
1074.087, 146.2041
1074.569, 145.7979
1075.051, 145.7196
1075.533, 145.7282
1076.016, 145.5764
1076.498, 145.4543
1076.980, 145.6847
1077.462, 146.2096
1077.944, 146.6595
1078.426, 146.9181
1078.908, 147.0676
1079.390, 147.1197
1079.873, 147.1083
1080.355, 147.0327
1080.837, 146.9217
1081.319, 146.8259
1081.801, 146.7229
1082.283, 146.5061
1082.765, 146.1087
1083.247, 145.8280
1083.729, 145.6772
1084.212, 145.8247
1084.694, 146.8293
1085.176, 147.8096
1085.658, 147.7443
1086.140, 146.9262
1086.622, 146.1299
1087.104, 145.5222
1087.586, 145.3749
1088.068, 146.4111
1088.551, 147.1580
1089.033, 146.6157
1089.515, 145.7134
1089.997, 145.0176
1090.479, 144.6853
1090.961, 145.0185
1091.443, 146.0156
1091.925, 146.7278
1092.408, 146.6171
1092.890, 146.4064
1093.372, 146.4342
1093.854, 146.4168
1094.336, 146.0265
1094.818, 145.5222
1095.300, 145.4619
1095.782, 145.7817
1096.265, 145.5254
1096.747, 143.9539
1097.229, 142.6758
1097.711, 142.1696
1098.193, 142.1728
1098.675, 142.8893
1099.157, 143.7779
1099.639, 144.1137
1100.121, 144.0336
1100.604, 144.4204
1101.086, 145.7921
1101.568, 146.5936
1102.050, 145.9164
1102.532, 145.2152
1103.014, 145.0956
1103.496, 145.2540
1103.978, 145.5737
1104.460, 145.8914
1104.943, 145.7647
1105.425, 144.9798
1105.907, 144.6647
1106.389, 145.6375
1106.871, 146.2568
1107.353, 145.5724
1107.835, 144.8575
1108.317, 145.0062
1108.800, 145.7184
1109.282, 146.5847
1109.764, 147.5994
1110.246, 148.0359
1110.728, 147.3999
1111.210, 146.8330
1111.692, 146.8162
1112.174, 146.5220
1112.656, 145.1504
1113.139, 143.5474
1113.621, 142.6751
1114.103, 142.5275
1114.585, 142.8793
1115.067, 144.4441
1115.549, 145.2075
1116.031, 144.6318
1116.513, 144.0086
1116.995, 143.6035
1117.478, 143.4518
1117.960, 143.7033
1118.442, 144.2059
1118.924, 144.4637
1119.406, 144.3961
1119.888, 144.4091
1120.370, 144.5820
1120.852, 144.6580
1121.335, 144.4892
1121.817, 144.3707
1122.299, 144.4644
1122.781, 144.7738
1123.263, 145.4104
1123.745, 146.3927
1124.227, 146.5850
1124.709, 145.7227
1125.192, 144.9715
1125.674, 144.3868
1126.156, 144.2283
1126.638, 144.7298
1127.120, 145.4443
1127.602, 145.8935
1128.084, 146.0620
1128.566, 145.7313
1129.048, 144.7647
1129.531, 144.7208
1130.013, 145.8698
1130.495, 146.3212
1130.977, 145.3618
1131.459, 144.4036
1131.941, 144.6514
1132.423, 145.4939
1132.905, 145.5114
1133.387, 144.7847
1133.870, 144.6602
1134.352, 145.1117
1134.834, 145.3599
1135.316, 145.2591
1135.798, 145.3301
1136.280, 145.8731
1136.762, 146.4480
1137.244, 146.4730
1137.727, 146.0995
1138.209, 145.5777
1138.691, 145.0643
1139.173, 145.6110
1139.655, 147.0086
1140.137, 147.2011
1140.619, 145.5956
1141.101, 144.2146
1141.583, 144.8176
1142.066, 146.1795
1142.548, 146.5015
1143.030, 146.1658
1143.512, 145.7583
1143.994, 145.4137
1144.476, 145.4744
1144.958, 145.8891
1145.440, 146.0074
1145.922, 145.4576
1146.405, 145.2322
1146.887, 146.8982
1147.369, 148.7717
1147.851, 148.7673
1148.333, 147.8159
1148.815, 147.2273
1149.297, 147.0035
1149.779, 146.5862
1150.262, 145.8677
1150.744, 145.4882
1151.226, 146.0488
1151.708, 146.6645
1152.190, 146.7986
1152.672, 146.7153
1153.154, 146.4341
1153.636, 146.2078
1154.119, 146.5417
1154.601, 147.2852
1155.083, 147.5761
1155.565, 147.0860
1156.047, 146.4595
1156.529, 145.6510
1157.011, 145.0782
1157.493, 145.0265
1157.975, 145.1900
1158.458, 145.3784
1158.940, 145.5632
1159.422, 145.7425
1159.904, 145.9217
1160.386, 145.9903
1160.868, 145.7058
1161.350, 145.6735
1161.832, 146.5297
1162.314, 146.8922
1162.797, 145.7521
1163.279, 144.2749
1163.761, 143.6716
1164.243, 143.8032
1164.725, 144.0151
1165.207, 144.2325
1165.689, 144.8941
1166.171, 146.3832
1166.654, 147.1051
1167.136, 146.4633
1167.618, 145.6026
1168.100, 145.2039
1168.582, 145.2174
1169.064, 145.6572
1169.546, 146.4283
1170.028, 146.6243
1170.510, 146.2349
1170.993, 145.4670
1171.475, 144.3235
1171.957, 144.1558
1172.439, 145.5027
1172.921, 146.9939
1173.403, 147.3779
1173.885, 147.1553
1174.367, 147.4780
1174.849, 147.9993
1175.332, 147.0812
1175.814, 145.2645
1176.296, 145.0431
1176.778, 146.5423
1177.260, 147.6449
1177.742, 147.3338
1178.224, 146.7644
1178.706, 147.3643
1179.189, 147.9601
1179.671, 146.4323
1180.153, 144.3324
1180.635, 144.0918
1181.117, 145.1904
1181.599, 146.2464
1182.081, 146.8570
1182.563, 146.9248
1183.046, 146.2245
1183.528, 145.5759
1184.010, 145.5164
1184.492, 145.6113
1184.974, 145.6398
1185.456, 145.6082
1185.938, 145.4576
1186.420, 145.2868
1186.902, 145.2915
1187.385, 145.5018
1187.867, 145.9163
1188.349, 147.2952
1188.831, 147.7293
1189.313, 145.5244
1189.795, 143.9030
1190.277, 145.2300
1190.759, 147.1999
1191.241, 147.3849
1191.724, 146.2788
1192.206, 145.8521
1192.688, 146.3081
1193.170, 146.5832
1193.652, 146.6723
1194.134, 146.5283
1194.616, 145.9803
1195.098, 145.8481
1195.581, 146.8017
1196.063, 147.6970
1196.545, 146.7449
1197.027, 144.6128
1197.509, 144.4350
1197.991, 146.0538
1198.473, 146.9452
1198.955, 146.9835
1199.438, 146.7030
1199.920, 146.2799
1200.402, 145.8932
1200.884, 145.6504
1201.366, 145.6555
1201.848, 146.2625
1202.330, 147.0676
1202.812, 147.3452
1203.294, 147.2072
1203.776, 146.6266
1204.259, 145.8963
1204.741, 145.7846
1205.223, 146.4494
1205.705, 147.3117
1206.187, 148.2384
1206.669, 148.7546
1207.151, 148.1867
1207.633, 147.4566
1208.116, 147.3256
1208.598, 147.4163
1209.080, 147.2976
1209.562, 146.9738
1210.044, 146.5011
1210.526, 145.8483
1211.008, 145.6361
1211.490, 146.5620
1211.973, 147.0540
1212.455, 146.0853
1212.937, 145.5629
1213.419, 146.9307
1213.901, 148.4570
1214.383, 148.2461
1214.865, 146.8631
1215.347, 146.2469
1215.829, 146.5197
1216.312, 146.7312
1216.794, 146.8630
1217.276, 147.0478
1217.758, 147.3330
1218.240, 147.5035
1218.722, 147.4370
1219.204, 147.3959
1219.686, 147.7722
1220.168, 148.1729
1220.651, 147.2090
1221.133, 145.4208
1221.615, 145.2647
1222.097, 146.3804
1222.579, 146.8000
1223.061, 146.2801
1223.543, 145.9241
1224.025, 146.2544
1224.508, 146.7179
1224.990, 146.9312
1225.472, 146.9162
1225.954, 146.4145
1226.436, 145.9341
1226.918, 146.2354
1227.400, 146.8881
1227.882, 147.0574
1228.365, 146.7652
1228.847, 146.7767
1229.329, 147.4768
1229.811, 147.7434
1230.293, 146.6640
1230.775, 145.9439
1231.257, 146.4485
1231.739, 147.1493
1232.221, 147.6314
1232.703, 147.7436
1233.186, 147.0523
1233.668, 145.7791
1234.150, 145.4822
1234.632, 146.5419
1235.114, 147.0662
1235.596, 146.9550
1236.078, 146.6611
1236.560, 146.2330
1237.043, 146.0296
1237.525, 146.2721
1238.007, 146.7758
1238.489, 147.3910
1238.971, 147.9475
1239.453, 147.9808
1239.935, 147.5596
1240.417, 146.7217
1240.900, 145.6599
1241.382, 144.8772
1241.864, 144.5261
1242.346, 144.8319
1242.828, 145.9361
1243.310, 146.8645
1243.792, 146.6083
1244.274, 146.1417
1244.756, 146.2171
1245.239, 146.4848
1245.721, 146.5185
1246.203, 146.5577
1246.685, 147.2858
1247.167, 148.4768
1247.649, 148.6868
1248.131, 147.2799
1248.613, 146.1996
1249.095, 145.7953
1249.578, 145.5592
1250.060, 145.3654
1250.542, 145.4064
1251.024, 145.9256
1251.506, 146.4917
1251.988, 146.5605
1252.470, 146.2697
1252.952, 146.1397
1253.435, 146.1724
1253.917, 146.2915
1254.399, 146.4938
1254.881, 146.8461
1255.363, 147.3112
1255.845, 147.1389
1256.327, 146.0004
1256.809, 144.7920
1257.292, 144.3048
1257.774, 144.3470
1258.256, 144.8517
1258.738, 145.5664
1259.220, 146.2281
1259.702, 146.7801
1260.184, 147.1460
1260.666, 147.3575
1261.148, 147.5173
1261.630, 147.6524
1262.113, 147.7989
1262.595, 148.1257
1263.077, 148.2309
1263.559, 147.8166
1264.041, 147.3832
1264.523, 147.1755
1265.005, 147.0559
1265.487, 146.9320
1265.970, 146.7778
1266.452, 146.4626
1266.934, 145.9738
1267.416, 146.2925
1267.898, 147.6431
1268.380, 147.9631
1268.862, 146.9997
1269.344, 145.9472
1269.827, 145.1831
1270.309, 145.2767
1270.791, 146.7462
1271.273, 148.3261
1271.755, 147.9341
1272.237, 146.6440
1272.719, 146.2329
1273.201, 146.4932
1273.683, 147.5248
1274.166, 148.7359
1274.648, 148.6267
1275.130, 147.2614
1275.612, 146.6387
1276.094, 147.7851
1276.576, 148.4539
1277.058, 147.1329
1277.540, 146.0281
1278.022, 146.1826
1278.505, 146.6129
1278.987, 146.8277
1279.469, 146.8308
1279.951, 146.5119
1280.433, 146.0275
1280.915, 146.0511
1281.397, 146.6661
1281.879, 147.4422
1282.362, 148.4489
1282.844, 148.6935
1283.326, 148.0048
1283.808, 147.3220
1284.290, 147.0280
1284.772, 146.8455
1285.254, 146.4785
1285.736, 145.9227
##END=



