##NAMES=Hauerite
##RRUFFID=R070506
##IDEAL CHEMISTRY=Mn^2+^(S_2_)^2-^
##LOCALITY=Destricella mine, Raddusa, Catania Province, Italy
##OWNER=RRUFF
##SOURCE=James Shigley
##DESCRIPTION=Metallic brownish-gray octahedral crystal
##STATUS=The identification of this mineral is confirmed by single-crystal X-ray diffraction and chemical analysis.
##URL=rruff.info/R070506
##MEASURED CHEMISTRY=Mn_1.00_S_2.00_
146.4701, 9769.624
146.9522, 10096.77
147.4343, 10381.99
147.9164, 10659.79
148.3985, 10959.58
148.8806, 11256.07
149.3628, 11515.52
149.8449, 11718.44
150.3270, 11879.76
150.8091, 12052.25
151.2912, 12277.33
151.7733, 12445.49
152.2555, 12504.83
152.7376, 12503.47
153.2197, 12508.25
153.7018, 12561.29
154.1839, 12645.84
154.6660, 12678.15
155.1481, 12601.66
155.6303, 12541.23
156.1124, 12530.98
156.5945, 12554.41
157.0766, 12584.10
157.5587, 12601.64
158.0408, 12611.19
158.5230, 12644.55
159.0051, 12700.04
159.4872, 12786.33
159.9693, 12912.74
160.4514, 13014.93
160.9335, 13081.67
161.4157, 13131.71
161.8978, 13166.44
162.3799, 13200.82
162.8620, 13239.97
163.3441, 13274.82
163.8262, 13304.38
164.3084, 13329.58
164.7905, 13352.94
165.2726, 13377.36
165.7547, 13403.11
166.2368, 13416.29
166.7189, 13412.96
167.2011, 13405.07
167.6832, 13393.77
168.1653, 13381.36
168.6474, 13372.50
169.1295, 13372.23
169.6116, 13380.66
170.0938, 13370.18
170.5759, 13334.57
171.0580, 13290.01
171.5401, 13235.41
172.0222, 13175.34
172.5043, 13115.45
172.9865, 13057.43
173.4686, 13000.76
173.9507, 12973.28
174.4328, 12997.54
174.9149, 13021.44
175.3970, 13021.29
175.8792, 13004.73
176.3613, 12996.01
176.8434, 13015.32
177.3255, 13062.58
177.8076, 13082.54
178.2897, 13046.67
178.7719, 13016.96
179.2540, 13018.28
179.7361, 13045.26
180.2182, 13081.44
180.7003, 13117.10
181.1824, 13152.46
181.6646, 13167.33
182.1467, 13134.60
182.6288, 13113.50
183.1109, 13140.46
183.5930, 13200.77
184.0751, 13251.11
184.5573, 13257.91
185.0394, 13222.57
185.5215, 13209.13
186.0036, 13219.03
186.4857, 13243.06
186.9678, 13291.09
187.4500, 13352.50
187.9321, 13398.02
188.4142, 13404.67
188.8963, 13375.14
189.3784, 13370.22
189.8605, 13402.24
190.3427, 13439.91
190.8248, 13474.50
191.3069, 13505.00
191.7890, 13531.05
192.2711, 13551.33
192.7532, 13566.68
193.2354, 13587.66
193.7175, 13614.76
194.1996, 13645.52
194.6817, 13681.28
195.1638, 13720.29
195.6459, 13758.25
196.1281, 13792.20
196.6102, 13822.91
197.0923, 13856.00
197.5744, 13884.26
198.0565, 13921.86
198.5386, 13970.89
199.0208, 14033.16
199.5029, 14115.22
199.9850, 14225.86
200.4671, 14356.71
200.9492, 14461.19
201.4313, 14524.23
201.9135, 14584.38
202.3956, 14645.66
202.8777, 14712.41
203.3598, 14793.86
203.8419, 14894.81
204.3240, 15013.22
204.8061, 15142.07
205.2883, 15289.38
205.7704, 15436.08
206.2525, 15568.94
206.7346, 15697.83
207.2167, 15841.46
207.6988, 16007.66
208.1810, 16193.28
208.6631, 16386.37
209.1452, 16590.92
209.6273, 16796.13
210.1094, 16987.96
210.5915, 17180.80
211.0737, 17396.40
211.5558, 17642.08
212.0379, 17917.24
212.5200, 18224.30
213.0021, 18591.22
213.4842, 18942.60
213.9664, 19253.91
214.4485, 19546.50
214.9306, 19850.58
215.4127, 20175.96
215.8948, 20517.35
216.3769, 20867.66
216.8591, 21226.41
217.3412, 21593.56
217.8233, 21979.61
218.3054, 22369.09
218.7875, 22748.10
219.2696, 23114.27
219.7518, 23459.85
220.2339, 23768.28
220.7160, 23991.13
221.1981, 24275.42
221.6802, 24671.22
222.1623, 25108.67
222.6445, 25523.88
223.1266, 25902.61
223.6087, 26259.35
224.0908, 26614.36
224.5729, 26977.91
225.0550, 27308.97
225.5372, 27643.84
226.0193, 27925.00
226.5014, 28100.86
226.9835, 28166.46
227.4656, 28168.72
227.9477, 28159.63
228.4298, 28145.65
228.9120, 28081.81
229.3941, 27942.54
229.8762, 27778.65
230.3583, 27611.57
230.8404, 27447.78
231.3225, 27293.94
231.8047, 27155.58
232.2868, 27031.73
232.7689, 26930.45
233.2510, 26835.15
233.7331, 26771.58
234.2152, 26749.09
234.6974, 26768.30
235.1795, 26829.31
235.6616, 26935.19
236.1437, 27086.68
236.6258, 27244.11
237.1079, 27374.34
237.5901, 27543.34
238.0722, 27775.27
238.5543, 28063.52
239.0364, 28395.20
239.5185, 28767.20
240.0006, 29173.03
240.4828, 29571.97
240.9649, 29999.42
241.4470, 30379.67
241.9291, 30707.11
242.4112, 30977.55
242.8933, 31188.49
243.3755, 31341.56
243.8576, 31427.44
244.3397, 31416.38
244.8218, 31296.04
245.3039, 31077.76
245.7860, 30754.84
246.2682, 30339.08
246.7503, 29822.73
247.2324, 29203.45
247.7145, 28530.83
248.1966, 27920.71
248.6787, 27424.66
249.1609, 26897.79
249.6430, 26271.53
250.1251, 25649.81
250.6072, 25122.26
251.0893, 24706.86
251.5714, 24351.56
252.0535, 23982.23
252.5357, 23580.76
253.0178, 23207.01
253.4999, 22903.62
253.9820, 22592.14
254.4641, 22230.62
254.9462, 21814.05
255.4284, 21360.56
255.9105, 20875.76
256.3926, 20346.12
256.8747, 19867.12
257.3568, 19472.34
257.8390, 19103.11
258.3211, 18732.29
258.8032, 18365.59
259.2853, 18026.00
259.7674, 17733.64
260.2495, 17486.73
260.7317, 17258.71
261.2138, 17052.48
261.6959, 16863.04
262.1780, 16679.86
262.6601, 16511.87
263.1422, 16380.26
263.6244, 16308.00
264.1065, 16273.70
264.5886, 16201.59
265.0707, 16064.79
265.5528, 15942.17
266.0349, 15879.65
266.5170, 15838.91
266.9991, 15771.63
267.4813, 15654.45
267.9634, 15515.09
268.4455, 15400.35
268.9276, 15316.36
269.4097, 15232.11
269.8918, 15144.01
270.3740, 15046.56
270.8561, 14931.12
271.3382, 14793.96
271.8203, 14648.52
272.3024, 14507.51
272.7845, 14370.77
273.2667, 14227.75
273.7488, 14065.83
274.2309, 13906.76
274.7130, 13769.03
275.1951, 13652.95
275.6772, 13554.46
276.1594, 13485.89
276.6415, 13435.88
277.1236, 13358.41
277.6057, 13232.82
278.0878, 13102.97
278.5699, 13013.46
279.0521, 12958.33
279.5342, 12906.88
280.0163, 12850.48
280.4984, 12790.55
280.9805, 12726.66
281.4626, 12657.56
281.9448, 12593.58
282.4269, 12541.49
282.9090, 12501.85
283.3911, 12474.91
283.8732, 12477.05
284.3553, 12480.18
284.8375, 12458.69
285.3196, 12414.50
285.8017, 12366.87
286.2838, 12325.03
286.7659, 12289.36
287.2480, 12258.75
287.7302, 12237.90
288.2123, 12216.49
288.6944, 12186.58
289.1765, 12152.92
289.6586, 12127.81
290.1407, 12117.61
290.6229, 12114.82
291.1050, 12102.12
291.5871, 12076.34
292.0692, 12047.19
292.5513, 12006.46
293.0334, 11967.21
293.5156, 11946.67
293.9977, 11948.54
294.4798, 11958.77
294.9619, 11957.46
295.4440, 11935.19
295.9261, 11929.08
296.4083, 11962.55
296.8904, 11992.15
297.3725, 11983.96
297.8546, 11941.74
298.3367, 11895.04
298.8188, 11870.41
299.3010, 11868.98
299.7831, 11864.08
300.2652, 11843.24
300.7473, 11831.98
301.2294, 11849.02
301.7115, 11879.76
302.1937, 11896.76
302.6758, 11882.18
303.1579, 11846.35
303.6400, 11830.64
304.1221, 11855.86
304.6042, 11869.86
305.0864, 11861.98
305.5685, 11841.72
306.0506, 11814.54
306.5327, 11782.69
307.0148, 11754.33
307.4969, 11744.27
307.9791, 11758.60
308.4612, 11769.07
308.9433, 11776.37
309.4254, 11775.29
309.9075, 11756.21
310.3896, 11721.36
310.8718, 11689.67
311.3539, 11679.88
311.8360, 11689.91
312.3181, 11697.65
312.8002, 11702.58
313.2823, 11703.93
313.7644, 11699.88
314.2466, 11692.21
314.7287, 11685.61
315.2108, 11683.44
315.6929, 11683.03
316.1750, 11679.93
316.6571, 11674.07
317.1393, 11665.40
317.6214, 11650.76
318.1035, 11634.03
318.5856, 11622.48
319.0677, 11619.09
319.5498, 11617.76
320.0320, 11609.25
320.5141, 11597.15
320.9962, 11602.09
321.4783, 11640.25
321.9604, 11686.83
322.4425, 11690.54
322.9247, 11637.47
323.4068, 11603.11
323.8889, 11630.20
324.3710, 11680.24
324.8531, 11698.67
325.3352, 11674.30
325.8174, 11635.25
326.2995, 11609.91
326.7816, 11600.83
327.2637, 11596.91
327.7458, 11593.75
328.2279, 11599.32
328.7101, 11629.73
329.1922, 11675.73
329.6743, 11707.18
330.1564, 11701.95
330.6385, 11664.88
331.1206, 11635.85
331.6028, 11615.07
332.0849, 11602.10
332.5670, 11604.84
333.0491, 11612.65
333.5312, 11611.68
334.0133, 11596.69
334.4955, 11574.90
334.9776, 11558.58
335.4597, 11544.37
335.9418, 11544.35
336.4239, 11569.38
336.9060, 11598.91
337.3882, 11625.11
337.8703, 11644.50
338.3524, 11651.54
338.8345, 11633.54
339.3166, 11590.55
339.7987, 11570.69
340.2809, 11593.34
340.7630, 11613.75
341.2451, 11613.25
341.7272, 11596.63
342.2093, 11572.19
342.6914, 11538.25
343.1736, 11504.06
343.6557, 11489.34
344.1378, 11497.46
344.6199, 11503.82
345.1020, 11494.67
345.5841, 11480.49
346.0663, 11475.28
346.5484, 11482.90
347.0305, 11489.96
347.5126, 11486.39
347.9947, 11475.08
348.4768, 11466.03
348.9590, 11463.20
349.4411, 11459.11
349.9232, 11440.80
350.4053, 11408.22
350.8874, 11384.70
351.3695, 11381.50
351.8517, 11384.57
352.3338, 11383.43
352.8159, 11376.78
353.2980, 11362.70
353.7801, 11337.01
354.2622, 11301.94
354.7444, 11284.84
355.2265, 11297.05
355.7086, 11310.12
356.1907, 11319.02
356.6728, 11322.76
357.1549, 11318.15
357.6371, 11303.93
358.1192, 11286.63
358.6013, 11279.78
359.0834, 11292.75
359.5655, 11298.86
360.0476, 11285.85
360.5298, 11276.38
361.0119, 11293.29
361.4940, 11331.74
361.9761, 11363.02
362.4582, 11358.67
362.9403, 11320.24
363.4224, 11288.36
363.9045, 11257.09
364.3867, 11242.16
364.8688, 11258.70
365.3509, 11290.56
365.8330, 11315.43
366.3151, 11324.63
366.7972, 11321.35
367.2794, 11305.85
367.7615, 11276.19
368.2436, 11253.72
368.7257, 11245.19
369.2078, 11246.71
369.6899, 11254.77
370.1721, 11269.59
370.6542, 11285.63
371.1363, 11302.19
371.6184, 11317.55
372.1005, 11326.88
372.5826, 11328.82
373.0648, 11330.06
373.5469, 11338.67
374.0290, 11353.27
374.5111, 11357.49
374.9932, 11333.06
375.4753, 11314.44
375.9575, 11333.08
376.4396, 11375.01
376.9217, 11396.67
377.4038, 11373.92
377.8859, 11328.21
378.3680, 11315.12
378.8502, 11369.22
379.3323, 11410.63
379.8144, 11439.49
380.2965, 11454.32
380.7786, 11448.29
381.2607, 11423.63
381.7429, 11394.32
382.2250, 11374.01
382.7071, 11362.78
383.1892, 11359.49
383.6713, 11386.64
384.1534, 11397.26
384.6356, 11360.03
385.1177, 11301.09
385.5998, 11264.20
386.0819, 11272.81
386.5640, 11304.36
387.0461, 11319.38
387.5283, 11316.52
388.0104, 11303.09
388.4925, 11266.01
388.9746, 11230.16
389.4567, 11220.94
389.9388, 11239.86
390.4210, 11253.82
390.9031, 11234.79
391.3852, 11198.00
391.8673, 11180.57
392.3494, 11189.59
392.8315, 11197.54
393.3137, 11174.68
393.7958, 11130.61
394.2779, 11118.46
394.7600, 11174.72
395.2421, 11229.69
395.7242, 11247.69
396.2064, 11235.68
396.6885, 11206.50
397.1706, 11163.83
397.6527, 11117.03
398.1348, 11084.09
398.6169, 11069.60
399.0991, 11062.58
399.5812, 11070.55
400.0633, 11079.92
400.5454, 11081.85
401.0275, 11076.03
401.5096, 11066.99
401.9918, 11058.81
402.4739, 11050.73
402.9560, 11033.68
403.4381, 10994.41
403.9202, 10965.46
404.4023, 10957.00
404.8845, 10960.26
405.3666, 10966.87
405.8487, 10974.44
406.3308, 10981.26
406.8129, 10985.22
407.2950, 10986.32
407.7772, 10985.16
408.2593, 10976.86
408.7414, 10973.35
409.2235, 10992.79
409.7056, 11028.31
410.1877, 11046.81
410.6699, 11021.18
411.1520, 10982.87
411.6341, 10970.69
412.1162, 10982.52
412.5983, 10987.27
413.0804, 10966.11
413.5625, 10929.31
414.0446, 10908.22
414.5268, 10908.87
415.0089, 10910.84
415.4910, 10908.19
415.9731, 10906.14
416.4552, 10913.54
416.9373, 10930.29
417.4195, 10944.26
417.9016, 10942.19
418.3837, 10922.59
418.8658, 10907.16
419.3479, 10898.59
419.8300, 10891.43
420.3122, 10879.86
420.7943, 10870.31
421.2764, 10876.49
421.7585, 10905.58
422.2406, 10936.85
422.7227, 10926.81
423.2049, 10864.62
423.6870, 10838.14
424.1691, 10899.33
424.6512, 10963.79
425.1333, 10961.35
425.6154, 10902.71
426.0976, 10857.91
426.5797, 10875.68
427.0618, 10920.02
427.5439, 10932.66
428.0260, 10912.26
428.5081, 10898.45
428.9903, 10917.58
429.4724, 10954.55
429.9545, 10964.62
430.4366, 10931.85
430.9187, 10905.15
431.4008, 10905.59
431.8830, 10914.89
432.3651, 10907.40
432.8472, 10880.02
433.3293, 10854.88
433.8114, 10856.72
434.2935, 10888.81
434.7757, 10900.25
435.2578, 10854.90
435.7399, 10829.36
436.2220, 10863.20
436.7041, 10921.94
437.1862, 10956.10
437.6684, 10945.59
438.1505, 10915.16
438.6326, 10900.36
439.1147, 10902.33
439.5968, 10910.93
440.0789, 10929.34
440.5611, 10949.61
441.0432, 10966.78
441.5253, 10981.20
442.0074, 10994.42
442.4895, 11017.78
442.9716, 11033.87
443.4538, 11005.68
443.9359, 10938.47
444.4180, 10894.39
444.9001, 10896.37
445.3822, 10944.83
445.8643, 11061.99
446.3465, 11311.70
446.8286, 11459.40
447.3107, 11381.46
447.7928, 11238.10
448.2749, 11170.33
448.7570, 11189.70
449.2392, 11238.00
449.7213, 11269.94
450.2034, 11287.80
450.6855, 11318.26
451.1676, 11373.74
451.6497, 11425.59
452.1319, 11461.69
452.6140, 11496.65
453.0961, 11546.54
453.5782, 11614.76
454.0603, 11688.33
454.5424, 11754.36
455.0246, 11813.74
455.5067, 11870.22
455.9888, 11916.28
456.4709, 11974.99
456.9530, 12068.61
457.4352, 12185.66
457.9173, 12304.66
458.3994, 12413.64
458.8815, 12532.57
459.3636, 12676.20
459.8457, 12839.60
460.3279, 13013.67
460.8100, 13194.16
461.2921, 13385.09
461.7742, 13591.08
462.2563, 13813.77
462.7384, 14044.16
463.2205, 14258.81
463.7026, 14501.75
464.1848, 14801.62
464.6669, 15143.63
465.1490, 15500.41
465.6311, 15855.04
466.1132, 16221.05
466.5953, 16627.07
467.0775, 17073.05
467.5596, 17552.51
468.0417, 18057.96
468.5238, 18609.04
469.0059, 19220.40
469.4880, 19888.01
469.9702, 20600.46
470.4523, 21368.96
470.9344, 22172.38
471.4165, 22974.28
471.8986, 23773.15
472.3807, 24637.50
472.8629, 25595.80
473.3450, 26631.81
473.8271, 27706.95
474.3092, 28831.51
474.7913, 29948.17
475.2734, 31005.63
475.7556, 32085.30
476.2377, 33262.42
476.7198, 34532.23
477.2019, 35840.20
477.6840, 37149.34
478.1661, 38458.99
478.6483, 39785.43
479.1304, 41140.16
479.6125, 42487.50
480.0946, 43813.73
480.5767, 45131.13
481.0588, 46447.67
481.5410, 47757.03
482.0231, 49046.46
482.5052, 50334.21
482.9873, 51588.66
483.4694, 52739.37
483.9515, 53781.54
484.4337, 54714.41
484.9158, 55580.92
485.3979, 56309.03
485.8800, 56804.80
486.3621, 57075.63
486.8442, 57096.57
487.3264, 56856.58
487.8085, 56364.73
488.2906, 55624.55
488.7727, 54639.73
489.2548, 53408.29
489.7369, 51907.51
490.2191, 50152.43
490.7012, 48376.38
491.1833, 46570.98
491.6654, 44739.94
492.1475, 42826.91
492.6296, 40911.91
493.1118, 39063.34
493.5939, 37291.52
494.0760, 35629.54
494.5581, 34130.09
495.0402, 32781.65
495.5223, 31480.62
496.0045, 30216.03
496.4866, 29040.33
496.9687, 28011.39
497.4508, 27098.27
497.9329, 26251.30
498.4150, 25475.04
498.8972, 24738.74
499.3793, 24025.40
499.8614, 23345.79
500.3435, 22717.69
500.8256, 22143.69
501.3077, 21614.87
501.7899, 21121.83
502.2720, 20666.82
502.7541, 20233.83
503.2362, 19800.46
503.7183, 19417.50
504.2004, 19125.24
504.6826, 18869.54
505.1647, 18591.94
505.6468, 18280.38
506.1289, 17977.00
506.6110, 17724.07
507.0931, 17516.77
507.5753, 17318.97
508.0574, 17131.23
508.5395, 16951.47
509.0216, 16779.15
509.5037, 16614.04
509.9858, 16461.18
510.4680, 16329.64
510.9501, 16190.29
511.4322, 16005.86
511.9143, 15815.44
512.3964, 15687.73
512.8785, 15628.20
513.3607, 15575.76
513.8428, 15480.06
514.3249, 15344.12
514.8070, 15201.50
515.2891, 15029.30
515.7712, 14880.78
516.2534, 14776.82
516.7355, 14689.48
517.2176, 14598.21
517.6997, 14497.59
518.1818, 14384.35
518.6639, 14241.46
519.1461, 14082.74
519.6282, 13966.31
520.1103, 13901.38
520.5924, 13842.91
521.0745, 13779.34
521.5566, 13702.74
522.0388, 13595.02
522.5209, 13440.82
523.0030, 13302.35
523.4851, 13207.29
523.9672, 13133.49
524.4493, 13060.64
524.9315, 12985.37
525.4136, 12907.85
525.8957, 12828.12
526.3778, 12746.16
526.8599, 12660.04
527.3420, 12563.42
527.8242, 12473.19
528.3063, 12401.02
528.7884, 12327.05
529.2705, 12233.28
529.7526, 12122.11
530.2347, 12013.88
530.7169, 11923.66
531.1990, 11842.67
531.6811, 11756.44
532.1632, 11665.14
532.6453, 11562.40
533.1274, 11438.79
533.6096, 11312.95
534.0917, 11219.07
534.5738, 11162.38
535.0559, 11106.83
535.5380, 11050.41
536.0201, 10992.43
536.5022, 10933.72
536.9843, 10872.84
537.4664, 10804.05
537.9485, 10723.28
538.4307, 10642.94
538.9128, 10593.46
539.3949, 10587.20
539.8770, 10557.20
540.3591, 10473.96
540.8412, 10392.70
541.3234, 10344.06
541.8055, 10320.06
542.2876, 10300.08
542.7697, 10280.08
543.2518, 10257.88
543.7339, 10229.90
544.2161, 10198.23
544.6982, 10167.99
545.1803, 10140.29
545.6624, 10116.97
546.1445, 10101.52
546.6266, 10094.78
547.1088, 10080.10
547.5909, 10056.15
548.0730, 10026.46
548.5551, 9984.279
549.0372, 9940.540
549.5193, 9904.963
550.0015, 9880.524
550.4836, 9869.051
550.9657, 9878.814
551.4478, 9905.211
551.9299, 9922.111
552.4120, 9931.387
552.8942, 9921.822
553.3763, 9873.698
553.8584, 9809.399
554.3405, 9773.943
554.8226, 9777.371
555.3047, 9778.605
555.7869, 9762.852
556.2690, 9740.615
556.7511, 9721.089
557.2332, 9705.047
557.7153, 9690.261
558.1974, 9675.278
558.6796, 9660.744
559.1617, 9648.849
559.6438, 9642.137
560.1259, 9632.243
560.6080, 9620.922
561.0901, 9603.855
561.5723, 9572.326
562.0544, 9532.245
562.5365, 9501.271
563.0186, 9486.182
563.5007, 9484.271
563.9828, 9500.012
564.4650, 9527.709
564.9471, 9545.860
565.4292, 9548.214
565.9113, 9541.040
566.3934, 9530.646
566.8755, 9516.834
567.3577, 9500.932
567.8398, 9477.348
568.3219, 9458.370
568.8040, 9449.819
569.2861, 9446.489
569.7682, 9440.604
570.2504, 9431.064
570.7325, 9425.935
571.2146, 9441.237
571.6967, 9469.549
572.1788, 9469.386
572.6609, 9433.279
573.1431, 9403.456
573.6252, 9407.513
574.1073, 9424.449
574.5894, 9410.854
575.0715, 9355.628
575.5536, 9313.247
576.0358, 9299.878
576.5179, 9300.473
577.0000, 9306.598
577.4821, 9316.006
577.9642, 9328.141
578.4464, 9343.205
578.9285, 9356.021
579.4106, 9353.225
579.8927, 9329.798
580.3748, 9314.349
580.8569, 9310.297
581.3391, 9313.642
581.8212, 9329.042
582.3033, 9348.800
582.7854, 9355.488
583.2675, 9343.766
583.7496, 9320.129
584.2318, 9274.688
584.7139, 9224.434
585.1960, 9209.212
585.6781, 9232.956
586.1602, 9252.367
586.6423, 9227.631
587.1245, 9166.581
587.6066, 9130.444
588.0887, 9128.652
588.5708, 9138.145
589.0529, 9175.009
589.5350, 9206.604
590.0172, 9203.564
590.4993, 9169.498
590.9814, 9133.644
591.4635, 9107.332
591.9456, 9093.183
592.4277, 9104.074
592.9099, 9134.524
593.3920, 9145.856
593.8741, 9122.442
594.3562, 9089.763
594.8383, 9079.811
595.3204, 9096.375
595.8026, 9106.673
596.2847, 9112.556
596.7668, 9110.754
597.2489, 9093.686
597.7310, 9071.528
598.2131, 9053.077
598.6953, 9041.530
599.1774, 9041.972
599.6595, 9071.438
600.1416, 9117.215
600.6237, 9127.779
601.1058, 9098.835
601.5880, 9069.548
602.0701, 9056.896
602.5522, 9054.002
603.0343, 9049.740
603.5164, 9045.127
603.9985, 9035.714
604.4807, 9013.675
604.9628, 8993.889
605.4449, 8988.088
605.9270, 8990.615
606.4091, 8987.750
606.8912, 8974.041
607.3734, 8961.610
607.8555, 8973.836
608.3376, 9009.496
608.8197, 9020.260
609.3018, 8993.942
609.7839, 8968.330
610.2661, 8964.060
610.7482, 8974.646
611.2303, 8987.932
611.7124, 9009.684
612.1945, 9017.944
612.6766, 8992.119
613.1588, 8960.742
613.6409, 8946.480
614.1230, 8950.100
614.6051, 8968.687
615.0872, 9002.113
615.5693, 9037.394
616.0515, 9045.065
616.5336, 9019.505
617.0157, 9003.764
617.4978, 9000.323
617.9799, 9008.863
618.4620, 9046.969
618.9442, 9093.784
619.4263, 9102.229
619.9084, 9039.750
620.3905, 8991.354
620.8726, 9012.472
621.3547, 9060.270
621.8369, 9083.348
622.3190, 9078.546
622.8011, 9068.277
623.2832, 9066.982
623.7653, 9071.979
624.2474, 9076.256
624.7296, 9080.465
625.2117, 9081.989
625.6938, 9082.109
626.1759, 9077.633
626.6580, 9063.802
627.1401, 9044.327
627.6223, 9028.598
628.1044, 9016.722
628.5865, 9012.670
629.0686, 9027.971
629.5507, 9048.736
630.0328, 9051.330
630.5150, 9034.308
630.9971, 9014.792
631.4792, 9005.556
631.9613, 9004.096
632.4434, 9001.677
632.9255, 9000.586
633.4077, 8992.354
633.8898, 8967.313
634.3719, 8942.854
634.8539, 8928.536
635.3361, 8923.482
635.8182, 8924.901
636.3003, 8940.438
636.7824, 8949.556
637.2645, 8928.275
637.7466, 8894.485
638.2288, 8880.150
638.7109, 8889.397
639.1930, 8904.096
639.6751, 8909.928
640.1572, 8909.260
640.6393, 8915.617
641.1215, 8939.580
641.6036, 8944.631
642.0857, 8909.141
642.5678, 8867.463
643.0499, 8836.551
643.5320, 8816.975
644.0142, 8808.384
644.4963, 8817.903
644.9784, 8828.215
645.4605, 8831.361
645.9426, 8825.972
646.4247, 8805.025
646.9069, 8769.709
647.3890, 8736.364
647.8711, 8717.914
648.3532, 8712.267
648.8353, 8711.604
649.3174, 8720.083
649.7996, 8722.453
650.2817, 8713.161
650.7638, 8700.046
651.2459, 8687.271
651.7280, 8674.916
652.2101, 8662.034
652.6923, 8642.259
653.1744, 8631.002
653.6565, 8646.754
654.1386, 8673.139
654.6207, 8687.597
655.1028, 8686.024
655.5850, 8670.385
656.0671, 8639.417
656.5492, 8601.409
657.0313, 8586.860
657.5134, 8604.072
657.9955, 8617.083
658.4777, 8623.894
658.9598, 8621.681
659.4419, 8602.171
659.9240, 8572.564
660.4061, 8553.782
660.8882, 8554.252
661.3704, 8559.105
661.8525, 8565.646
662.3346, 8570.062
662.8167, 8567.401
663.2988, 8557.555
663.7809, 8542.416
664.2631, 8522.501
664.7452, 8501.086
665.2273, 8487.587
665.7094, 8483.556
666.1915, 8476.332
666.6736, 8462.332
667.1558, 8448.186
667.6379, 8439.600
668.1200, 8434.238
668.6021, 8426.229
669.0842, 8412.901
669.5663, 8401.140
670.0485, 8396.008
670.5306, 8391.383
671.0127, 8378.340
671.4948, 8360.460
671.9769, 8351.417
672.4590, 8359.653
672.9412, 8372.113
673.4233, 8363.744
673.9054, 8335.366
674.3875, 8316.292
674.8696, 8310.928
675.3517, 8309.474
675.8339, 8306.348
676.3160, 8303.049
676.7981, 8304.137
677.2802, 8313.116
677.7623, 8317.705
678.2444, 8310.886
678.7266, 8304.344
679.2087, 8306.492
679.6908, 8314.353
680.1729, 8322.240
680.6550, 8327.997
681.1371, 8329.490
681.6193, 8322.450
682.1014, 8309.040
682.5835, 8295.370
683.0656, 8281.306
683.5477, 8275.424
684.0298, 8284.176
684.5120, 8299.073
684.9941, 8305.424
685.4762, 8302.962
685.9583, 8291.541
686.4404, 8258.222
686.9225, 8231.314
687.4047, 8225.700
687.8868, 8229.785
688.3689, 8227.741
688.8510, 8216.546
689.3331, 8207.114
689.8152, 8211.070
690.2974, 8219.427
690.7795, 8216.563
691.2616, 8204.750
691.7437, 8197.294
692.2258, 8199.232
692.7079, 8201.211
693.1901, 8189.798
693.6722, 8164.480
694.1543, 8155.605
694.6364, 8173.641
695.1185, 8191.523
695.6006, 8207.904
696.0828, 8218.220
696.5649, 8215.998
697.0470, 8202.685
697.5291, 8190.245
698.0112, 8178.387
698.4933, 8173.561
698.9755, 8187.261
699.4576, 8208.552
699.9397, 8218.916
700.4218, 8215.321
700.9039, 8204.950
701.3860, 8191.902
701.8682, 8179.488
702.3503, 8180.551
702.8324, 8198.465
703.3145, 8210.906
703.7966, 8212.130
704.2787, 8210.843
704.7609, 8213.002
705.2430, 8218.042
705.7251, 8223.973
706.2072, 8232.831
706.6893, 8239.103
707.1714, 8242.167
707.6536, 8241.559
708.1357, 8233.187
708.6178, 8221.022
709.0999, 8214.859
709.5820, 8219.448
710.0641, 8228.798
710.5463, 8235.947
711.0284, 8241.268
711.5105, 8244.945
711.9926, 8246.619
712.4747, 8255.513
712.9568, 8279.650
713.4390, 8307.807
713.9211, 8316.694
714.4032, 8296.051
714.8853, 8289.271
715.3674, 8307.246
715.8495, 8325.722
716.3317, 8341.644
716.8138, 8351.415
717.2959, 8348.407
717.7780, 8332.194
718.2601, 8317.733
718.7422, 8316.563
719.2244, 8318.877
719.7065, 8312.266
720.1886, 8300.500
720.6707, 8294.666
721.1528, 8297.697
721.6349, 8303.771
722.1171, 8307.351
722.5992, 8308.666
723.0813, 8309.024
723.5634, 8308.455
724.0455, 8306.814
724.5276, 8302.586
725.0098, 8299.094
725.4919, 8300.630
725.9740, 8305.691
726.4561, 8308.059
726.9382, 8308.781
727.4203, 8304.630
727.9025, 8291.189
728.3846, 8275.238
728.8667, 8261.812
729.3488, 8251.381
729.8309, 8241.803
730.3130, 8231.193
730.7952, 8226.191
731.2773, 8244.837
731.7594, 8276.797
732.2415, 8276.795
732.7236, 8240.260
733.2057, 8210.244
733.6878, 8210.034
734.1699, 8228.056
734.6520, 8243.278
735.1342, 8256.854
735.6163, 8262.824
736.0984, 8254.277
736.5805, 8246.281
737.0626, 8250.147
737.5447, 8252.498
738.0269, 8232.816
738.5090, 8190.195
738.9911, 8158.998
739.4732, 8163.020
739.9553, 8174.896
740.4374, 8176.707
740.9196, 8169.827
741.4017, 8155.594
741.8838, 8135.589
742.3659, 8114.232
742.8480, 8093.097
743.3301, 8076.951
743.8123, 8086.587
744.2944, 8124.341
744.7765, 8140.387
745.2586, 8124.002
745.7407, 8088.374
746.2228, 8031.560
746.7050, 7965.389
747.1871, 7938.822
747.6692, 7986.770
748.1513, 8016.731
748.6334, 8018.918
749.1155, 8009.322
749.5977, 7992.901
750.0798, 7971.920
750.5619, 7944.971
751.0440, 7910.626
751.5261, 7888.604
752.0082, 7902.400
752.4904, 7930.320
752.9725, 7948.954
753.4546, 7955.776
753.9367, 7942.542
754.4188, 7907.364
754.9009, 7872.510
755.3831, 7865.716
755.8652, 7883.032
756.3473, 7891.438
756.8294, 7891.489
757.3115, 7878.952
757.7936, 7846.596
758.2758, 7809.774
758.7579, 7778.285
759.2400, 7753.555
759.7221, 7746.350
760.2042, 7778.446
760.6863, 7797.908
761.1685, 7792.632
761.6506, 7774.445
762.1327, 7745.154
762.6148, 7711.354
763.0969, 7685.956
763.5790, 7674.949
764.0612, 7666.965
764.5433, 7653.401
765.0254, 7635.622
765.5075, 7611.981
765.9896, 7585.377
766.4717, 7571.694
766.9539, 7578.105
767.4360, 7585.017
767.9181, 7559.887
768.4002, 7504.136
768.8823, 7492.724
769.3644, 7545.684
769.8466, 7581.119
770.3287, 7569.987
770.8108, 7539.262
771.2929, 7512.148
771.7750, 7488.647
772.2571, 7470.917
772.7393, 7461.724
773.2214, 7454.467
773.7035, 7446.148
774.1856, 7440.348
774.6677, 7440.631
775.1498, 7445.865
775.6320, 7453.712
776.1141, 7464.413
776.5962, 7471.199
777.0783, 7465.140
777.5604, 7452.326
778.0425, 7443.287
778.5247, 7437.952
779.0068, 7430.088
779.4889, 7416.892
779.9710, 7407.151
780.4531, 7417.665
780.9352, 7446.330
781.4174, 7441.658
781.8995, 7393.244
782.3816, 7351.792
782.8637, 7332.089
783.3458, 7324.368
783.8279, 7320.711
784.3101, 7320.992
784.7922, 7322.386
785.2743, 7328.634
785.7564, 7330.596
786.2385, 7321.647
786.7206, 7312.536
787.2028, 7313.515
787.6849, 7319.975
788.1670, 7320.461
788.6491, 7310.922
789.1312, 7296.158
789.6133, 7274.537
790.0955, 7253.102
790.5776, 7238.991
791.0597, 7233.430
791.5418, 7239.912
792.0239, 7259.196
792.5060, 7283.913
792.9882, 7309.943
793.4703, 7333.162
793.9524, 7329.277
794.4345, 7295.970
794.9166, 7264.027
795.3987, 7238.882
795.8809, 7223.633
796.3630, 7225.060
796.8451, 7238.565
797.3272, 7236.362
797.8093, 7198.623
798.2914, 7177.991
798.7736, 7191.857
799.2557, 7205.153
799.7378, 7192.292
800.2199, 7170.208
800.7020, 7173.001
801.1841, 7211.322
801.6663, 7236.480
802.1484, 7213.234
802.6305, 7182.942
803.1126, 7183.861
803.5947, 7198.137
804.0768, 7190.024
804.5590, 7154.731
805.0411, 7120.586
805.5232, 7112.680
806.0053, 7114.955
806.4874, 7088.828
806.9695, 7044.256
807.4517, 7037.002
807.9338, 7076.264
808.4159, 7118.577
808.8980, 7136.812
809.3801, 7135.256
809.8622, 7122.200
810.3444, 7094.224
810.8265, 7067.906
811.3086, 7033.118
811.7907, 7020.455
812.2728, 7060.280
812.7549, 7116.022
813.2371, 7138.890
813.7192, 7128.261
814.2013, 7113.237
814.6834, 7088.474
815.1655, 7069.735
815.6476, 7071.586
816.1298, 7073.817
816.6119, 7052.940
817.0940, 7015.421
817.5761, 6987.036
818.0582, 6978.273
818.5403, 6980.885
819.0225, 6996.980
819.5046, 7015.367
819.9867, 7017.255
820.4688, 7006.930
820.9509, 7003.192
821.4330, 7013.097
821.9152, 7025.519
822.3973, 7028.189
822.8794, 7022.386
823.3615, 7012.073
823.8436, 6997.255
824.3257, 6980.171
824.8079, 6959.062
825.2900, 6948.745
825.7721, 6965.438
826.2542, 7001.372
826.7363, 7020.109
827.2184, 7016.450
827.7006, 7007.390
828.1827, 6983.600
828.6648, 6967.180
829.1469, 6981.213
829.6290, 7003.224
830.1111, 6995.794
830.5933, 6951.420
831.0754, 6921.534
831.5575, 6922.857
832.0396, 6932.041
832.5217, 6945.652
833.0038, 6957.220
833.4859, 6958.656
833.9680, 6951.059
834.4501, 6943.854
834.9323, 6944.745
835.4144, 6940.544
835.8965, 6906.974
836.3786, 6867.522
836.8607, 6863.091
837.3428, 6889.033
837.8250, 6916.715
838.3071, 6933.784
838.7892, 6940.235
839.2713, 6934.851
839.7534, 6919.027
840.2355, 6892.656
840.7177, 6855.954
841.1998, 6841.677
841.6819, 6861.104
842.1640, 6888.207
842.6461, 6900.894
843.1282, 6901.153
843.6104, 6896.745
844.0925, 6883.479
844.5746, 6877.866
845.0567, 6886.905
845.5388, 6894.108
846.0209, 6889.735
846.5031, 6878.989
846.9852, 6869.360
847.4673, 6860.188
847.9494, 6856.564
848.4315, 6868.385
848.9136, 6874.080
849.3958, 6860.092
849.8779, 6841.691
850.3600, 6834.083
850.8421, 6835.870
851.3242, 6835.592
851.8063, 6827.340
852.2885, 6820.554
852.7706, 6819.654
853.2527, 6824.542
853.7348, 6840.610
854.2169, 6861.407
854.6990, 6871.930
855.1812, 6867.558
855.6633, 6857.438
856.1454, 6849.293
856.6275, 6841.962
857.1096, 6833.518
857.5917, 6823.897
858.0739, 6811.508
858.5560, 6796.345
859.0381, 6784.207
859.5202, 6779.655
860.0023, 6779.007
860.4844, 6771.942
860.9666, 6757.335
861.4487, 6755.883
861.9308, 6771.746
862.4129, 6785.887
862.8950, 6790.984
863.3771, 6790.151
863.8593, 6785.953
864.3414, 6778.388
864.8235, 6776.545
865.3056, 6787.890
865.7877, 6792.430
866.2698, 6773.856
866.7520, 6761.638
867.2341, 6782.657
867.7162, 6819.853
868.1983, 6835.435
868.6804, 6820.853
869.1625, 6804.021
869.6447, 6790.049
870.1268, 6776.261
870.6089, 6755.116
871.0910, 6737.290
871.5731, 6744.357
872.0552, 6771.028
872.5374, 6777.658
873.0195, 6732.476
873.5016, 6685.610
873.9837, 6678.392
874.4658, 6688.292
874.9479, 6684.679
875.4301, 6672.333
875.9122, 6676.377
876.3943, 6705.537
876.8764, 6735.471
877.3585, 6741.736
877.8406, 6730.877
878.3228, 6711.792
878.8049, 6687.344
879.2870, 6668.877
879.7691, 6658.674
880.2512, 6652.609
880.7333, 6646.968
881.2155, 6646.835
881.6976, 6668.150
882.1797, 6710.789
882.6618, 6736.984
883.1439, 6743.964
883.6260, 6745.402
884.1082, 6748.475
884.5903, 6740.961
885.0724, 6700.813
885.5545, 6633.209
886.0366, 6618.578
886.5187, 6688.515
887.0009, 6731.729
887.4830, 6722.309
887.9651, 6701.485
888.4472, 6690.391
888.9293, 6685.765
889.4114, 6682.110
889.8936, 6681.732
890.3757, 6672.897
890.8578, 6633.902
891.3399, 6613.731
891.8220, 6649.229
892.3041, 6691.228
892.7863, 6690.389
893.2684, 6655.468
893.7505, 6631.404
894.2326, 6633.499
894.7147, 6637.412
895.1968, 6635.695
895.6790, 6630.809
896.1611, 6623.673
896.6432, 6615.011
897.1253, 6603.676
897.6074, 6590.508
898.0895, 6583.344
898.5717, 6591.983
899.0538, 6602.033
899.5359, 6599.667
900.0180, 6590.813
900.5001, 6580.901
900.9822, 6572.919
901.4644, 6574.734
901.9465, 6589.772
902.4286, 6604.389
902.9107, 6602.849
903.3928, 6590.846
903.8749, 6574.941
904.3571, 6558.837
904.8392, 6558.795
905.3213, 6576.910
905.8034, 6595.288
906.2855, 6601.662
906.7676, 6598.812
907.2498, 6590.109
907.7319, 6576.515
908.2140, 6566.596
908.6961, 6560.740
909.1782, 6561.633
909.6603, 6571.541
910.1425, 6580.105
910.6246, 6573.434
911.1067, 6556.645
911.5888, 6564.705
912.0709, 6605.863
912.5530, 6629.737
913.0352, 6627.066
913.5173, 6616.544
913.9994, 6607.281
914.4815, 6597.017
914.9636, 6582.586
915.4457, 6564.297
915.9279, 6537.427
916.4100, 6486.766
916.8921, 6455.288
917.3742, 6458.345
917.8563, 6474.927
918.3384, 6495.848
918.8206, 6518.400
919.3027, 6535.861
919.7848, 6549.339
920.2669, 6554.507
920.7490, 6545.720
921.2311, 6535.396
921.7133, 6522.243
922.1954, 6513.747
922.6775, 6522.687
923.1596, 6544.256
923.6417, 6553.477
924.1238, 6538.291
924.6060, 6522.917
925.0881, 6510.636
925.5702, 6504.898
926.0523, 6512.483
926.5344, 6525.978
927.0165, 6535.002
927.4987, 6537.890
927.9808, 6538.985
928.4629, 6536.171
928.9450, 6537.579
929.4271, 6535.300
929.9092, 6549.754
930.3914, 6613.602
930.8734, 6711.089
931.3555, 6817.873
931.8376, 6923.272
932.3198, 6969.998
932.8019, 6873.088
933.2840, 6733.261
933.7661, 6649.967
934.2482, 6608.191
934.7303, 6588.822
935.2125, 6583.629
935.6946, 6578.966
936.1767, 6567.994
936.6588, 6557.546
937.1409, 6552.337
937.6230, 6554.422
938.1052, 6573.778
938.5873, 6603.633
939.0694, 6618.439
939.5515, 6615.448
940.0336, 6622.043
940.5157, 6660.089
940.9979, 6702.244
941.4800, 6697.042
941.9621, 6656.825
942.4442, 6623.907
942.9263, 6601.713
943.4084, 6601.176
943.8906, 6625.575
944.3727, 6659.767
944.8548, 6691.635
945.3369, 6719.718
945.8190, 6738.466
946.3011, 6748.605
946.7833, 6763.584
947.2654, 6784.848
947.7475, 6800.359
948.2296, 6803.938
948.7117, 6807.414
949.1938, 6826.675
949.6760, 6857.361
950.1581, 6868.721
950.6402, 6856.645
951.1223, 6866.786
951.6044, 6910.472
952.0865, 6948.595
952.5687, 6958.593
953.0508, 6957.060
953.5329, 6971.083
954.0150, 7000.476
954.4971, 7010.070
954.9792, 6989.417
955.4614, 6986.743
955.9435, 7016.259
956.4256, 7050.529
956.9077, 7072.756
957.3898, 7088.515
957.8719, 7109.618
958.3541, 7137.560
958.8362, 7160.645
959.3183, 7180.336
959.8004, 7191.485
960.2825, 7185.929
960.7646, 7181.794
961.2468, 7194.187
961.7289, 7217.333
962.2110, 7234.728
962.6931, 7242.641
963.1752, 7257.069
963.6573, 7281.807
964.1395, 7307.846
964.6216, 7344.692
965.1037, 7370.810
965.5858, 7358.898
966.0679, 7320.354
966.5500, 7299.439
967.0322, 7294.369
967.5143, 7311.069
967.9964, 7387.509
968.4785, 7438.188
968.9606, 7414.392
969.4427, 7369.236
969.9249, 7353.635
970.4070, 7362.697
970.8891, 7364.011
971.3712, 7356.495
971.8533, 7338.159
972.3354, 7293.787
972.8176, 7256.282
973.2997, 7247.042
973.7818, 7247.043
974.2639, 7233.662
974.7460, 7207.938
975.2281, 7187.977
975.7103, 7188.110
976.1924, 7174.967
976.6745, 7128.853
977.1566, 7082.260
977.6387, 7052.354
978.1208, 7032.387
978.6030, 7014.585
979.0851, 6997.828
979.5672, 6981.268
980.0493, 6972.498
980.5314, 6952.349
981.0135, 6903.203
981.4957, 6854.125
981.9778, 6824.291
982.4599, 6806.125
982.9420, 6787.299
983.4241, 6766.448
983.9063, 6749.687
984.3884, 6751.327
984.8705, 6740.331
985.3526, 6685.396
985.8347, 6634.268
986.3168, 6630.479
986.7990, 6650.694
987.2811, 6656.340
987.7632, 6641.205
988.2453, 6618.896
988.7274, 6591.146
989.2095, 6561.301
989.6917, 6518.253
990.1738, 6485.451
990.6559, 6493.875
991.1380, 6521.562
991.6201, 6525.500
992.1022, 6498.837
992.5844, 6479.334
993.0665, 6486.353
993.5486, 6498.669
994.0307, 6512.765
994.5128, 6522.120
994.9949, 6518.056
995.4771, 6506.109
995.9592, 6497.147
996.4413, 6493.387
996.9234, 6488.688
997.4055, 6476.602
997.8876, 6467.725
998.3698, 6467.956
998.8519, 6473.252
999.3340, 6481.608
999.8161, 6491.635
1000.298, 6502.696
1000.780, 6514.474
1001.262, 6521.937
1001.745, 6515.382
1002.227, 6513.412
1002.709, 6531.067
1003.191, 6552.922
1003.673, 6573.438
1004.155, 6584.048
1004.637, 6563.628
1005.119, 6508.632
1005.602, 6467.828
1006.084, 6477.437
1006.566, 6487.408
1007.048, 6472.590
1007.530, 6446.403
1008.012, 6419.309
1008.494, 6391.245
1008.976, 6356.783
1009.458, 6315.294
1009.941, 6281.407
1010.423, 6266.520
1010.905, 6254.184
1011.387, 6236.258
1011.869, 6217.657
1012.351, 6201.974
1012.833, 6189.127
1013.315, 6176.563
1013.797, 6164.068
1014.280, 6160.512
1014.762, 6170.221
1015.244, 6188.461
1015.726, 6232.645
1016.208, 6266.195
1016.690, 6247.101
1017.172, 6200.475
1017.654, 6172.817
1018.137, 6171.950
1018.619, 6174.707
1019.101, 6177.263
1019.583, 6176.402
1020.065, 6169.702
1020.547, 6160.344
1021.029, 6151.042
1021.511, 6140.521
1021.993, 6126.002
1022.476, 6107.280
1022.958, 6088.250
1023.440, 6061.958
1023.922, 6046.812
1024.404, 6060.695
1024.886, 6074.646
1025.368, 6063.922
1025.850, 6044.155
1026.333, 6040.150
1026.815, 6053.725
1027.297, 6067.276
1027.779, 6090.112
1028.261, 6093.390
1028.743, 6048.086
1029.225, 6006.605
1029.707, 6004.527
1030.189, 6019.712
1030.672, 6023.722
1031.154, 6015.075
1031.636, 6004.066
1032.118, 5987.540
1032.600, 5975.912
1033.082, 5972.501
1033.564, 5972.087
1034.046, 5975.514
1034.528, 5978.455
1035.011, 5971.309
1035.493, 5956.975
1035.975, 5960.010
1036.457, 6003.262
1036.939, 6026.339
1037.421, 6012.750
1037.903, 5996.612
1038.385, 5993.311
1038.868, 5990.132
1039.350, 5971.442
1039.832, 5941.624
1040.314, 5922.740
1040.796, 5914.126
1041.278, 5918.707
1041.760, 5949.765
1042.242, 5971.952
1042.724, 5969.442
1043.207, 5961.535
1043.689, 5967.742
1044.171, 5980.214
1044.653, 5970.298
1045.135, 5923.439
1045.617, 5913.569
1046.099, 5965.599
1046.581, 5993.446
1047.063, 5966.524
1047.546, 5929.614
1048.028, 5915.570
1048.510, 5914.694
1048.992, 5903.219
1049.474, 5878.563
1049.956, 5870.674
1050.438, 5882.922
1050.920, 5900.330
1051.403, 5924.648
1051.885, 5933.930
1052.367, 5908.545
1052.849, 5875.301
1053.331, 5884.540
1053.813, 5932.073
1054.295, 5944.945
1054.777, 5919.755
1055.260, 5906.150
1055.742, 5912.176
1056.224, 5926.037
1056.706, 5944.290
1057.188, 5949.773
1057.670, 5912.869
1058.152, 5850.618
1058.634, 5840.042
1059.116, 5875.235
1059.599, 5887.128
1060.081, 5870.000
1060.563, 5858.202
1061.045, 5865.269
1061.527, 5874.304
1062.009, 5868.045
1062.491, 5853.388
1062.973, 5844.211
1063.455, 5839.806
1063.938, 5838.919
1064.420, 5840.745
1064.902, 5843.603
1065.384, 5846.384
1065.866, 5844.411
1066.348, 5833.289
1066.830, 5819.449
1067.312, 5808.340
1067.795, 5802.609
1068.277, 5807.912
1068.759, 5822.735
1069.241, 5849.575
1069.723, 5883.009
1070.205, 5899.679
1070.687, 5886.277
1071.169, 5860.412
1071.651, 5825.354
1072.134, 5797.905
1072.616, 5805.400
1073.098, 5826.889
1073.580, 5828.469
1074.062, 5813.100
1074.544, 5804.722
1075.026, 5811.639
1075.508, 5818.744
1075.990, 5820.874
1076.473, 5816.121
1076.955, 5795.521
1077.437, 5774.271
1077.919, 5765.283
1078.401, 5767.939
1078.883, 5782.596
1079.365, 5808.423
1079.847, 5823.701
1080.329, 5817.150
1080.812, 5805.539
1081.294, 5790.283
1081.776, 5775.407
1082.258, 5762.772
1082.740, 5752.125
1083.222, 5743.259
1083.704, 5736.022
1084.186, 5729.253
1084.669, 5713.439
1085.151, 5714.916
1085.633, 5760.770
1086.115, 5787.626
1086.597, 5759.472
1087.079, 5723.630
1087.561, 5726.421
1088.043, 5752.211
1088.526, 5749.502
1089.008, 5707.392
1089.490, 5689.929
1089.972, 5706.830
1090.454, 5718.468
1090.936, 5713.174
1091.418, 5711.693
1091.900, 5729.577
1092.382, 5753.844
1092.865, 5762.441
1093.347, 5756.421
1093.829, 5745.320
1094.311, 5728.766
1094.793, 5720.068
1095.275, 5721.069
1095.757, 5726.547
1096.239, 5734.823
1096.721, 5736.414
1097.204, 5719.356
1097.686, 5692.165
1098.168, 5672.289
1098.650, 5660.674
1099.132, 5664.213
1099.614, 5680.313
1100.096, 5696.861
1100.578, 5710.221
1101.061, 5722.828
1101.543, 5737.819
1102.025, 5744.487
1102.507, 5721.812
1102.989, 5689.298
1103.471, 5673.635
1103.953, 5670.497
1104.435, 5669.467
1104.917, 5670.506
1105.400, 5683.637
1105.882, 5713.623
1106.364, 5732.278
1106.846, 5710.223
1107.328, 5684.820
1107.810, 5688.244
1108.292, 5693.386
1108.774, 5661.668
1109.256, 5616.722
1109.739, 5609.570
1110.221, 5645.475
1110.703, 5672.510
1111.185, 5670.497
1111.667, 5668.089
1112.149, 5674.051
1112.631, 5677.478
1113.113, 5670.853
1113.596, 5660.769
1114.078, 5648.364
1114.560, 5638.380
1115.042, 5652.764
1115.524, 5709.370
1116.006, 5730.339
1116.488, 5698.179
1116.970, 5670.978
1117.453, 5661.259
1117.935, 5659.748
1118.417, 5662.548
1118.899, 5666.116
1119.381, 5665.463
1119.863, 5660.016
1120.345, 5638.929
1120.827, 5601.402
1121.309, 5582.306
1121.792, 5585.671
1122.274, 5597.118
1122.756, 5611.142
1123.238, 5626.836
1123.720, 5645.384
1124.202, 5659.342
1124.684, 5649.257
1125.166, 5624.531
1125.648, 5612.425
1126.131, 5608.604
1126.613, 5591.489
1127.095, 5561.117
1127.577, 5541.060
1128.059, 5543.452
1128.541, 5556.282
1129.023, 5582.414
1129.505, 5599.981
1129.988, 5577.284
1130.470, 5542.101
1130.952, 5524.230
1131.434, 5523.862
1131.916, 5537.014
1132.398, 5561.312
1132.880, 5576.892
1133.362, 5570.347
1133.844, 5563.741
1134.327, 5558.925
1134.809, 5561.214
1135.291, 5584.360
1135.773, 5607.722
1136.255, 5607.504
1136.737, 5587.128
1137.219, 5564.518
1137.701, 5534.088
1138.183, 5522.737
1138.666, 5540.035
1139.148, 5553.990
1139.630, 5557.020
1140.112, 5560.244
1140.594, 5572.807
1141.076, 5582.302
1141.558, 5567.832
1142.040, 5535.219
1142.523, 5518.667
1143.005, 5517.422
1143.487, 5517.205
1143.969, 5516.667
1144.451, 5513.137
1144.933, 5506.392
1145.415, 5510.190
1145.897, 5537.920
1146.380, 5564.847
1146.862, 5546.698
1147.344, 5509.999
1147.826, 5501.859
1148.308, 5512.059
1148.790, 5519.781
1149.272, 5522.371
1149.754, 5525.593
1150.236, 5531.174
1150.719, 5529.053
1151.201, 5501.696
1151.683, 5480.470
1152.165, 5494.347
1152.647, 5508.796
1153.129, 5483.601
1153.611, 5451.135
1154.093, 5466.739
1154.575, 5522.349
1155.058, 5549.848
1155.540, 5533.286
1156.022, 5508.683
1156.504, 5465.414
1156.986, 5434.100
1157.468, 5417.841
1157.950, 5422.433
1158.432, 5460.082
1158.915, 5507.407
1159.397, 5527.457
1159.879, 5522.166
1160.361, 5503.772
1160.843, 5471.591
1161.325, 5458.354
1161.807, 5466.303
1162.289, 5467.293
1162.771, 5452.729
1163.254, 5442.714
1163.736, 5453.671
1164.218, 5467.545
1164.700, 5450.939
1165.182, 5423.786
1165.664, 5425.641
1166.146, 5443.631
1166.628, 5450.893
1167.110, 5447.914
1167.593, 5449.782
1168.075, 5460.388
1168.557, 5465.599
1169.039, 5450.625
1169.521, 5439.924
1170.003, 5446.490
1170.485, 5460.506
1170.967, 5490.870
1171.450, 5513.428
1171.932, 5482.837
1172.414, 5419.700
1172.896, 5414.163
1173.378, 5493.542
1173.860, 5528.604
1174.342, 5500.324
1174.824, 5470.120
1175.307, 5444.246
1175.789, 5426.094
1176.271, 5419.815
1176.753, 5413.357
1177.235, 5389.512
1177.717, 5359.609
1178.199, 5365.098
1178.681, 5400.654
1179.163, 5430.696
1179.646, 5451.682
1180.128, 5448.573
1180.610, 5421.832
1181.092, 5393.212
1181.574, 5373.740
1182.056, 5365.522
1182.538, 5377.901
1183.020, 5394.538
1183.502, 5394.695
1183.984, 5392.565
1184.467, 5411.648
1184.949, 5437.241
1185.431, 5441.147
1185.913, 5422.208
1186.395, 5398.832
1186.877, 5368.716
1187.359, 5354.032
1187.841, 5375.051
1188.324, 5389.738
1188.806, 5379.098
1189.288, 5368.611
1189.770, 5375.302
1190.252, 5388.465
1190.734, 5392.105
1191.216, 5387.561
1191.698, 5385.293
1192.181, 5385.566
1192.663, 5382.583
1193.145, 5376.028
1193.627, 5367.370
1194.109, 5357.494
1194.591, 5359.400
1195.073, 5382.187
1195.555, 5405.822
1196.037, 5406.161
1196.520, 5391.451
1197.002, 5367.479
1197.484, 5342.061
1197.966, 5326.549
1198.448, 5320.124
1198.930, 5316.801
1199.412, 5316.617
1199.894, 5328.785
1200.376, 5364.640
1200.859, 5389.427
1201.341, 5384.525
1201.823, 5376.242
1202.305, 5375.950
1202.787, 5374.158
1203.269, 5362.866
1203.751, 5347.192
1204.233, 5334.210
1204.716, 5324.081
1205.198, 5317.876
1205.680, 5315.479
1206.162, 5319.050
1206.644, 5328.933
1207.126, 5341.622
1207.608, 5356.171
1208.090, 5360.686
1208.573, 5347.101
1209.055, 5334.077
1209.537, 5353.494
1210.019, 5379.018
1210.501, 5361.919
1210.983, 5325.219
1211.465, 5294.837
1211.947, 5279.159
1212.429, 5300.537
1212.911, 5349.501
1213.394, 5365.176
1213.876, 5316.281
1214.358, 5276.990
1214.840, 5274.994
1215.322, 5280.289
1215.804, 5290.862
1216.286, 5296.328
1216.768, 5284.262
1217.251, 5271.869
1217.733, 5284.427
1218.215, 5314.173
1218.697, 5322.805
1219.179, 5309.082
1219.661, 5292.206
1220.143, 5272.801
1220.625, 5267.579
1221.108, 5278.376
1221.590, 5281.936
1222.072, 5267.104
1222.554, 5255.531
1223.036, 5273.746
1223.518, 5295.056
1224.000, 5281.752
1224.482, 5257.445
1224.964, 5248.788
1225.447, 5249.855
1225.929, 5251.421
1226.411, 5251.088
1226.893, 5246.848
1227.375, 5237.882
1227.857, 5228.159
1228.339, 5212.350
1228.821, 5206.186
1229.303, 5219.439
1229.786, 5226.757
1230.268, 5214.573
1230.750, 5201.775
1231.232, 5204.944
1231.714, 5220.185
1232.196, 5244.385
1232.678, 5272.889
1233.160, 5268.484
1233.643, 5240.063
1234.125, 5230.667
1234.607, 5239.918
1235.089, 5241.304
1235.571, 5228.196
1236.053, 5217.713
1236.535, 5221.001
1237.017, 5224.388
1237.500, 5217.942
1237.982, 5208.518
1238.464, 5194.212
1238.946, 5185.188
1239.428, 5197.193
1239.910, 5217.359
1240.392, 5219.058
1240.874, 5204.870
1241.356, 5204.914
1241.839, 5231.277
1242.321, 5223.482
1242.803, 5172.111
1243.285, 5140.150
1243.767, 5141.554
1244.249, 5156.122
1244.731, 5173.854
1245.213, 5186.148
1245.695, 5183.164
1246.178, 5170.563
1246.660, 5152.225
1247.142, 5134.262
1247.624, 5123.927
1248.106, 5122.408
1248.588, 5135.904
1249.070, 5158.405
1249.552, 5173.729
1250.035, 5178.241
1250.517, 5172.889
1250.999, 5151.311
1251.481, 5130.295
1251.963, 5107.068
1252.445, 5093.304
1252.927, 5095.652
1253.409, 5102.597
1253.891, 5106.489
1254.374, 5107.259
1254.856, 5103.752
1255.338, 5097.818
1255.820, 5097.989
1256.302, 5102.921
1256.784, 5109.494
1257.266, 5115.442
1257.748, 5112.324
1258.230, 5100.875
1258.713, 5092.474
1259.195, 5091.788
1259.677, 5098.609
1260.159, 5127.933
1260.641, 5143.731
1261.123, 5116.811
1261.605, 5085.242
1262.087, 5069.192
1262.570, 5064.491
1263.052, 5068.748
1263.534, 5077.729
1264.016, 5080.567
1264.498, 5077.243
##END=



