##NAMES=Hauerite
##RRUFFID=R070438
##IDEAL CHEMISTRY=Mn^2+^(S_2_)^2-^
##LOCALITY=Machov, Poland
##OWNER=RRUFF
##SOURCE=Michael Scott
##DESCRIPTION=Unconsolidated reddish brown platy fragments, sample was used to make ICDD pattern
##STATUS=The identification of this mineral is confirmed by single-crystal X-ray diffraction and chemical analysis.
##URL=rruff.info/R070438
##MEASURED CHEMISTRY=Mn_1.00_S_2.00_
109.4584, 125.6505
109.9405, 124.3874
110.4226, 124.6126
110.9047, 127.3111
111.3868, 132.2542
111.8690, 138.9927
112.3511, 148.1734
112.8332, 156.9839
113.3153, 162.5911
113.7974, 165.4997
114.2795, 170.4008
114.7617, 180.2595
115.2438, 192.3308
115.7259, 203.2107
116.2080, 212.2693
116.6901, 220.9218
117.1722, 229.9141
117.6544, 239.0805
118.1365, 250.2495
118.6186, 266.2471
119.1007, 283.7018
119.5828, 299.4436
120.0649, 311.8488
120.5471, 324.3586
121.0292, 342.8959
121.5113, 369.7762
121.9934, 396.1627
122.4755, 417.0410
122.9576, 437.2465
123.4398, 461.5065
123.9219, 492.0619
124.4040, 527.0316
124.8861, 561.8477
125.3682, 597.3508
125.8503, 631.6540
126.3325, 661.0518
126.8146, 690.2974
127.2967, 725.8165
127.7788, 771.2359
128.2609, 823.9351
128.7430, 871.5640
129.2252, 909.2462
129.7073, 947.4271
130.1894, 987.2303
130.6715, 1028.776
131.1536, 1072.159
131.6357, 1117.745
132.1179, 1164.985
132.6000, 1209.539
133.0821, 1253.859
133.5642, 1292.594
134.0463, 1320.288
134.5284, 1341.699
135.0106, 1364.501
135.4927, 1393.569
135.9748, 1428.759
136.4569, 1468.302
136.9390, 1514.247
137.4211, 1561.834
137.9033, 1608.731
138.3854, 1656.058
138.8675, 1706.920
139.3496, 1763.435
139.8317, 1825.767
140.3138, 1893.362
140.7960, 1962.501
141.2781, 2038.800
141.7602, 2126.466
142.2423, 2223.719
142.7244, 2324.263
143.2065, 2424.168
143.6887, 2522.988
144.1708, 2622.773
144.6529, 2723.297
145.1350, 2824.435
145.6171, 2925.514
146.0992, 3026.808
146.5814, 3130.472
147.0635, 3240.020
147.5456, 3354.959
148.0277, 3460.083
148.5098, 3554.083
148.9919, 3639.469
149.4741, 3719.103
149.9562, 3793.393
150.4383, 3858.537
150.9204, 3911.211
151.4025, 3950.739
151.8846, 3983.371
152.3668, 4003.385
152.8489, 4020.222
153.3310, 4051.690
153.8131, 4100.036
154.2952, 4128.860
154.7773, 4099.325
155.2595, 4022.403
155.7416, 3946.432
156.2237, 3868.464
156.7058, 3800.061
157.1879, 3756.329
157.6700, 3739.617
158.1522, 3736.587
158.6343, 3740.683
159.1164, 3751.153
159.5985, 3767.807
160.0806, 3791.800
160.5627, 3821.498
161.0449, 3855.288
161.5270, 3893.738
162.0091, 3933.445
162.4912, 3973.289
162.9733, 4012.503
163.4554, 4050.054
163.9376, 4082.603
164.4197, 4113.855
164.9018, 4151.211
165.3839, 4196.844
165.8660, 4242.263
166.3481, 4282.194
166.8303, 4318.358
167.3124, 4353.479
167.7945, 4390.720
168.2766, 4427.099
168.7587, 4455.955
169.2408, 4475.976
169.7230, 4491.278
170.2051, 4500.788
170.6872, 4507.917
171.1693, 4518.219
171.6514, 4535.212
172.1335, 4556.595
172.6157, 4576.027
173.0978, 4591.063
173.5799, 4609.345
174.0620, 4637.297
174.5441, 4669.835
175.0262, 4699.467
175.5084, 4723.005
175.9905, 4741.200
176.4726, 4755.806
176.9547, 4764.771
177.4368, 4773.827
177.9189, 4784.966
178.4010, 4797.540
178.8832, 4810.251
179.3653, 4821.686
179.8474, 4833.757
180.3295, 4853.079
180.8116, 4884.680
181.2937, 4914.786
181.7759, 4940.306
182.2580, 4961.812
182.7401, 4979.090
183.2222, 4991.159
183.7043, 5000.395
184.1864, 5014.338
184.6686, 5037.712
185.1507, 5057.228
185.6328, 5068.510
186.1149, 5074.947
186.5970, 5079.229
187.0791, 5081.722
187.5613, 5085.271
188.0434, 5099.085
188.5255, 5132.838
189.0076, 5159.855
189.4897, 5171.585
189.9718, 5175.876
190.4540, 5180.576
190.9361, 5189.022
191.4182, 5199.895
191.9003, 5209.424
192.3824, 5213.806
192.8645, 5224.206
193.3467, 5243.975
193.8288, 5268.837
194.3109, 5296.347
194.7930, 5325.652
195.2751, 5353.796
195.7572, 5373.080
196.2394, 5375.919
196.7215, 5384.414
197.2036, 5402.386
197.6857, 5425.631
198.1678, 5449.430
198.6499, 5472.391
199.1321, 5498.348
199.6142, 5536.347
200.0963, 5597.862
200.5784, 5648.311
201.0605, 5673.507
201.5426, 5695.489
202.0248, 5730.917
202.5069, 5784.496
202.9890, 5848.652
203.4711, 5911.174
203.9532, 5968.410
204.4353, 6032.386
204.9175, 6104.985
205.3996, 6182.448
205.8817, 6262.784
206.3638, 6345.432
206.8459, 6430.434
207.3280, 6518.452
207.8102, 6608.595
208.2923, 6702.760
208.7744, 6785.750
209.2565, 6883.496
209.7386, 7016.492
210.2207, 7183.494
210.7029, 7364.820
211.1850, 7536.043
211.6671, 7688.144
212.1492, 7860.690
212.6313, 8060.583
213.1134, 8272.218
213.5956, 8488.976
214.0777, 8709.627
214.5598, 8935.921
215.0419, 9167.793
215.5240, 9402.458
216.0061, 9658.486
216.4883, 9945.619
216.9704, 10245.86
217.4525, 10574.79
217.9346, 10915.68
218.4167, 11231.60
218.8988, 11490.90
219.3810, 11692.58
219.8631, 11873.34
220.3452, 11991.97
220.8273, 12129.54
221.3094, 12307.65
221.7915, 12522.07
222.2737, 12761.42
222.7558, 13017.17
223.2379, 13290.89
223.7200, 13576.81
224.2021, 13909.14
224.6842, 14216.63
225.1664, 14484.53
225.6485, 14719.32
226.1306, 14934.17
226.6127, 15137.13
227.0948, 15322.41
227.5770, 15467.29
228.0591, 15586.14
228.5412, 15636.05
229.0233, 15576.93
229.5054, 15462.42
229.9875, 15347.27
230.4697, 15255.42
230.9518, 15184.38
231.4339, 15126.32
231.9160, 15073.37
232.3981, 15051.29
232.8802, 15061.84
233.3624, 15099.73
233.8445, 15154.53
234.3266, 15223.85
234.8087, 15325.24
235.2908, 15490.47
235.7729, 15736.38
236.2551, 16011.63
236.7372, 16296.27
237.2193, 16616.57
237.7014, 16992.82
238.1835, 17428.22
238.6656, 17913.68
239.1478, 18441.58
239.6299, 19014.38
240.1120, 19626.61
240.5941, 20292.71
241.0762, 20985.68
241.5583, 21722.67
242.0405, 22489.30
242.5226, 23230.91
243.0047, 23923.37
243.4868, 24577.82
243.9689, 25057.15
244.4510, 25331.19
244.9332, 25438.65
245.4153, 25405.71
245.8974, 25218.54
246.3795, 24838.64
246.8616, 24209.20
247.3437, 23348.75
247.8259, 22459.58
248.3080, 21510.34
248.7901, 20568.84
249.2722, 19631.36
249.7543, 18716.38
250.2364, 17857.01
250.7186, 17064.53
251.2007, 16337.74
251.6828, 15667.86
252.1649, 15047.03
252.6470, 14501.30
253.1291, 14065.59
253.6113, 13689.13
254.0934, 13325.21
254.5755, 12960.89
255.0576, 12589.06
255.5397, 12196.64
256.0219, 11784.13
256.5040, 11352.21
256.9861, 10853.26
257.4682, 10363.25
257.9503, 9937.444
258.4324, 9588.970
258.9146, 9282.032
259.3967, 8976.824
259.8788, 8671.666
260.3609, 8396.104
260.8430, 8150.803
261.3251, 7942.883
261.8073, 7782.359
262.2894, 7667.218
262.7715, 7564.984
263.2536, 7451.652
263.7357, 7330.302
264.2178, 7220.730
264.7000, 7127.560
265.1821, 7043.170
265.6642, 6960.019
266.1463, 6879.319
266.6284, 6807.131
267.1105, 6753.380
267.5927, 6708.743
268.0748, 6650.506
268.5569, 6572.919
269.0390, 6499.102
269.5211, 6448.971
270.0032, 6413.578
270.4854, 6378.551
270.9675, 6335.837
271.4496, 6295.597
271.9317, 6274.607
272.4138, 6273.600
272.8959, 6263.910
273.3781, 6223.255
273.8602, 6168.619
274.3423, 6133.368
274.8244, 6126.005
275.3065, 6125.342
275.7886, 6120.818
276.2708, 6112.116
276.7529, 6096.747
277.2350, 6071.276
277.7171, 6042.096
278.1992, 6017.783
278.6813, 5996.277
279.1635, 5985.794
279.6456, 6000.392
280.1277, 6025.552
280.6098, 6034.847
281.0919, 6021.312
281.5740, 5998.973
282.0562, 5983.589
282.5383, 5975.847
283.0204, 5967.268
283.5025, 5953.563
283.9846, 5940.772
284.4667, 5932.966
284.9489, 5930.851
285.4310, 5937.750
285.9131, 5962.372
286.3952, 6002.814
286.8773, 6007.810
287.3594, 5939.894
287.8416, 5876.228
288.3237, 5858.456
288.8058, 5875.721
289.2879, 5896.351
289.7700, 5903.152
290.2521, 5899.461
290.7343, 5899.026
291.2164, 5908.024
291.6985, 5912.469
292.1806, 5907.560
292.6627, 5897.909
293.1448, 5888.121
293.6270, 5879.925
294.1091, 5874.590
294.5912, 5875.240
295.0733, 5891.563
295.5554, 5894.699
296.0375, 5870.823
296.5197, 5844.732
297.0018, 5835.107
297.4839, 5843.041
297.9660, 5856.896
298.4481, 5864.824
298.9302, 5865.824
299.4124, 5867.845
299.8945, 5874.373
300.3766, 5878.438
300.8587, 5874.700
301.3408, 5866.617
301.8229, 5861.279
302.3050, 5863.262
302.7871, 5871.833
303.2693, 5884.365
303.7514, 5911.132
304.2335, 5925.819
304.7156, 5913.156
305.1977, 5891.346
305.6798, 5881.253
306.1620, 5890.891
306.6441, 5908.463
307.1262, 5914.165
307.6083, 5904.660
308.0904, 5895.625
308.5725, 5885.548
309.0547, 5879.880
309.5368, 5886.036
310.0189, 5903.215
310.5010, 5918.291
310.9831, 5916.997
311.4652, 5901.208
311.9474, 5891.572
312.4295, 5890.275
312.9116, 5894.688
313.3937, 5906.528
313.8758, 5922.455
314.3579, 5933.407
314.8401, 5932.008
315.3222, 5924.599
315.8043, 5922.671
316.2864, 5927.107
316.7685, 5932.044
317.2506, 5936.920
317.7328, 5939.236
318.2149, 5933.028
318.6970, 5909.443
319.1791, 5891.654
319.6612, 5905.762
320.1433, 5943.465
320.6255, 5966.046
321.1076, 5956.290
321.5897, 5932.144
322.0718, 5922.302
322.5539, 5928.242
323.0360, 5934.398
323.5182, 5936.353
324.0003, 5936.110
324.4824, 5933.209
324.9645, 5927.657
325.4466, 5930.077
325.9287, 5955.833
326.4109, 6008.189
326.8930, 6031.748
327.3751, 5999.432
327.8572, 5964.433
328.3393, 5958.049
328.8214, 5974.522
329.3036, 5992.239
329.7857, 5998.700
330.2678, 5996.455
330.7499, 5996.841
331.2320, 6005.564
331.7141, 6009.830
332.1963, 6002.799
332.6784, 5993.188
333.1605, 5992.123
333.6426, 6002.414
334.1247, 6015.564
334.6068, 6017.167
335.0890, 5997.070
335.5711, 5993.532
336.0532, 6021.747
336.5353, 6051.034
337.0174, 6066.742
337.4995, 6069.199
337.9817, 6065.333
338.4638, 6059.321
338.9459, 6051.669
339.4280, 6047.516
339.9101, 6052.581
340.3922, 6052.436
340.8744, 6035.997
341.3565, 6014.980
341.8386, 6005.293
342.3207, 6013.996
342.8028, 6030.452
343.2849, 6039.694
343.7671, 6041.198
344.2492, 6039.260
344.7313, 6035.490
345.2134, 6027.687
345.6955, 6011.539
346.1776, 5987.253
346.6598, 5966.036
347.1419, 5953.858
347.6240, 5950.123
348.1061, 5956.281
348.5882, 5976.805
349.0703, 5993.639
349.5525, 5984.006
350.0346, 5958.155
350.5167, 5947.321
350.9988, 5971.901
351.4809, 6001.610
351.9630, 6010.128
352.4452, 6000.899
352.9273, 5992.627
353.4094, 5994.419
353.8915, 6002.223
354.3736, 6005.803
354.8557, 6006.123
355.3379, 6001.674
355.8200, 5984.711
356.3021, 5966.116
356.7842, 5963.206
357.2663, 5978.449
357.7484, 5992.779
358.2306, 5981.723
358.7127, 5935.553
359.1948, 5920.056
359.6769, 5961.153
360.1590, 6002.378
360.6411, 6019.599
361.1233, 6017.046
361.6054, 6007.729
362.0875, 5998.932
362.5696, 5990.193
363.0517, 5979.283
363.5338, 5961.083
364.0160, 5949.348
364.4981, 5950.688
364.9802, 5955.254
365.4623, 5950.818
365.9444, 5936.447
366.4265, 5927.550
366.9087, 5949.894
367.3908, 6007.125
367.8729, 6035.809
368.3550, 6014.763
368.8371, 5986.167
369.3192, 5963.616
369.8014, 5950.478
370.2835, 5954.890
370.7656, 5990.149
371.2477, 6037.313
371.7298, 6065.191
372.2119, 6072.892
372.6941, 6068.526
373.1762, 6044.078
373.6583, 6016.386
374.1404, 6014.268
374.6225, 6048.073
375.1046, 6073.197
375.5868, 6055.966
376.0689, 6015.414
376.5510, 5987.342
377.0331, 5978.603
377.5152, 5986.338
377.9973, 6013.094
378.4795, 6061.495
378.9616, 6093.458
379.4437, 6101.556
379.9258, 6099.286
380.4079, 6087.916
380.8900, 6072.141
381.3722, 6062.973
381.8543, 6066.664
382.3364, 6079.905
382.8185, 6093.004
383.3006, 6111.804
383.7827, 6121.994
384.2649, 6119.020
384.7470, 6110.249
385.2291, 6099.936
385.7112, 6089.719
386.1933, 6080.845
386.6754, 6073.180
387.1576, 6066.202
387.6397, 6071.766
388.1218, 6108.623
388.6039, 6136.262
389.0860, 6135.455
389.5681, 6118.583
390.0503, 6105.527
390.5324, 6105.270
391.0145, 6110.641
391.4966, 6107.950
391.9787, 6095.406
392.4608, 6092.928
392.9430, 6115.745
393.4251, 6141.641
393.9072, 6145.895
394.3893, 6128.626
394.8714, 6117.275
395.3535, 6132.572
395.8357, 6159.835
396.3178, 6175.135
396.7999, 6176.158
397.2820, 6169.375
397.7641, 6156.732
398.2462, 6139.759
398.7284, 6126.615
399.2105, 6119.252
399.6926, 6113.542
400.1747, 6100.331
400.6568, 6089.478
401.1389, 6103.543
401.6211, 6150.228
402.1032, 6203.865
402.5853, 6226.481
403.0674, 6207.475
403.5495, 6187.335
404.0316, 6162.132
404.5138, 6139.377
404.9959, 6119.510
405.4780, 6105.198
405.9601, 6103.417
406.4422, 6120.377
406.9243, 6148.949
407.4065, 6163.135
407.8886, 6156.807
408.3707, 6148.272
408.8528, 6141.017
409.3349, 6133.164
409.8170, 6119.538
410.2992, 6100.518
410.7813, 6089.009
411.2634, 6103.286
411.7455, 6136.854
412.2276, 6154.547
412.7097, 6149.611
413.1919, 6139.461
413.6740, 6131.762
414.1561, 6127.682
414.6382, 6131.357
415.1203, 6150.085
415.6024, 6168.793
416.0846, 6173.800
416.5667, 6169.470
417.0488, 6170.642
417.5309, 6183.620
418.0130, 6199.129
418.4951, 6202.722
418.9773, 6189.907
419.4594, 6179.867
419.9415, 6171.396
420.4236, 6167.454
420.9057, 6172.277
421.3878, 6183.744
421.8700, 6194.917
422.3521, 6201.047
422.8342, 6204.128
423.3163, 6213.248
423.7984, 6237.226
424.2805, 6253.278
424.7627, 6252.665
425.2448, 6248.262
425.7269, 6252.402
426.2090, 6265.792
426.6911, 6277.468
427.1732, 6275.036
427.6554, 6259.893
428.1375, 6248.292
428.6196, 6238.484
429.1017, 6235.819
429.5838, 6250.885
430.0659, 6272.567
430.5481, 6282.738
431.0302, 6271.915
431.5123, 6260.125
431.9944, 6265.668
432.4765, 6284.322
432.9586, 6301.690
433.4408, 6314.655
433.9229, 6323.510
434.4050, 6328.000
434.8871, 6327.726
435.3692, 6326.156
435.8513, 6319.207
436.3335, 6314.840
436.8156, 6319.535
437.2977, 6330.862
437.7798, 6343.250
438.2619, 6354.180
438.7440, 6362.180
439.2262, 6362.429
439.7083, 6343.528
440.1904, 6337.654
440.6725, 6358.091
441.1546, 6379.658
441.6367, 6381.147
442.1189, 6366.878
442.6010, 6359.937
443.0831, 6382.126
443.5652, 6423.444
444.0473, 6442.690
444.5294, 6431.164
445.0116, 6421.962
445.4937, 6431.084
445.9758, 6447.071
446.4579, 6455.731
446.9400, 6452.957
447.4221, 6461.728
447.9043, 6511.212
448.3864, 6579.323
448.8685, 6615.281
449.3506, 6610.652
449.8327, 6600.106
450.3148, 6609.165
450.7970, 6636.866
451.2791, 6667.124
451.7612, 6694.078
452.2433, 6730.026
452.7254, 6784.875
453.2076, 6848.970
453.6897, 6910.201
454.1718, 6964.638
454.6539, 7012.057
455.1360, 7048.810
455.6181, 7068.649
456.1003, 7112.962
456.5824, 7200.426
457.0645, 7294.134
457.5466, 7385.856
458.0287, 7475.947
458.5108, 7563.547
458.9930, 7646.417
459.4751, 7736.589
459.9572, 7856.553
460.4393, 8006.326
460.9214, 8151.587
461.4035, 8275.346
461.8857, 8407.662
462.3678, 8573.485
462.8499, 8769.964
463.3320, 8989.951
463.8141, 9241.171
464.2962, 9508.755
464.7784, 9774.749
465.2605, 10043.69
465.7426, 10332.86
466.2247, 10648.23
466.7068, 10991.99
467.1889, 11362.22
467.6711, 11756.62
468.1532, 12190.66
468.6353, 12663.97
469.1174, 13176.66
469.5995, 13724.73
470.0816, 14310.12
470.5638, 14928.67
471.0459, 15579.26
471.5280, 16266.51
472.0101, 17023.38
472.4922, 17856.87
472.9743, 18728.20
473.4565, 19636.70
473.9386, 20573.55
474.4207, 21530.20
474.9028, 22507.29
475.3849, 23526.02
475.8670, 24580.99
476.3492, 25690.04
476.8313, 26906.82
477.3134, 28230.81
477.7955, 29585.17
478.2776, 30934.42
478.7597, 32284.78
479.2419, 33665.49
479.7240, 35057.31
480.2061, 36493.19
480.6882, 37988.35
481.1703, 39523.71
481.6524, 41083.45
482.1346, 42668.92
482.6167, 44285.82
483.0988, 45956.54
483.5809, 47657.43
484.0630, 49302.64
484.5451, 50961.61
485.0273, 52441.38
485.5094, 53788.95
485.9915, 54922.99
486.4736, 55782.61
486.9557, 56359.60
487.4378, 56653.20
487.9200, 56682.98
488.4021, 56429.23
488.8842, 55832.63
489.3663, 54893.08
489.8484, 53608.08
490.3305, 51892.89
490.8127, 49855.38
491.2948, 47756.89
491.7769, 45571.04
492.2590, 43393.09
492.7411, 41226.51
493.2232, 39119.55
493.7054, 37120.37
494.1875, 35244.64
494.6696, 33485.54
495.1517, 31840.75
495.6338, 30311.76
496.1159, 28862.42
496.5981, 27467.87
497.0802, 26210.17
497.5623, 25120.48
498.0444, 24141.00
498.5265, 23243.45
499.0086, 22415.53
499.4908, 21637.59
499.9729, 20894.19
500.4550, 20186.42
500.9371, 19530.36
501.4192, 18925.96
501.9013, 18370.81
502.3835, 17869.64
502.8656, 17414.02
503.3477, 16991.33
503.8298, 16607.42
504.3119, 16237.69
504.7940, 15869.70
505.2762, 15514.08
505.7583, 15186.14
506.2404, 14886.41
506.7225, 14616.07
507.2046, 14375.79
507.6867, 14162.31
508.1689, 13964.37
508.6510, 13793.13
509.1331, 13620.45
509.6152, 13433.95
510.0973, 13253.81
510.5794, 13099.21
511.0616, 12967.71
511.5437, 12840.15
512.0258, 12699.33
512.5079, 12554.98
512.9901, 12436.42
513.4722, 12349.15
513.9543, 12258.69
514.4364, 12151.60
514.9185, 12036.88
515.4006, 11927.34
515.8828, 11823.61
516.3649, 11715.53
516.8470, 11587.96
517.3291, 11463.36
517.8112, 11370.01
518.2933, 11300.43
518.7755, 11215.95
519.2576, 11094.54
519.7397, 10954.94
520.2218, 10843.59
520.7039, 10784.78
521.1860, 10707.12
521.6682, 10596.29
522.1503, 10482.54
522.6324, 10379.93
523.1145, 10287.58
523.5966, 10201.78
524.0787, 10121.42
524.5609, 10043.43
525.0430, 9963.344
525.5251, 9881.160
526.0072, 9797.395
526.4893, 9713.623
526.9714, 9625.759
527.4536, 9527.669
527.9357, 9420.449
528.4178, 9314.812
528.8999, 9215.062
529.3820, 9114.296
529.8641, 9003.434
530.3463, 8889.283
530.8284, 8784.736
531.3105, 8693.864
531.7926, 8617.440
532.2747, 8563.199
532.7568, 8542.158
533.2390, 8472.422
533.7211, 8304.907
534.2032, 8142.982
534.6853, 8018.521
535.1674, 7918.102
535.6495, 7823.335
536.1317, 7729.149
536.6138, 7634.691
537.0959, 7536.343
537.5780, 7437.131
538.0601, 7346.288
538.5422, 7264.941
539.0244, 7195.023
539.5065, 7139.281
539.9886, 7096.895
540.4707, 7064.048
540.9528, 7058.657
541.4349, 7036.924
541.9171, 6970.891
542.3992, 6896.987
542.8813, 6851.497
543.3634, 6835.920
543.8455, 6829.187
544.3276, 6816.687
544.8098, 6797.278
545.2919, 6762.067
545.7740, 6699.517
546.2561, 6653.061
546.7382, 6648.858
547.2203, 6654.019
547.7025, 6642.418
548.1846, 6614.490
548.6666, 6588.479
549.1487, 6571.263
549.6309, 6560.818
550.1130, 6561.826
550.5951, 6569.498
551.0772, 6560.775
551.5593, 6523.971
552.0414, 6479.127
552.5236, 6459.891
553.0057, 6477.637
553.4878, 6482.417
553.9699, 6466.730
554.4520, 6448.101
554.9341, 6428.943
555.4163, 6412.905
555.8984, 6407.180
556.3805, 6414.738
556.8626, 6422.515
557.3447, 6410.384
557.8268, 6381.827
558.3090, 6367.213
558.7911, 6373.329
559.2732, 6380.327
559.7553, 6371.197
560.2374, 6353.673
560.7195, 6352.977
561.2017, 6383.927
561.6838, 6406.049
562.1659, 6404.876
562.6480, 6389.748
563.1301, 6361.490
563.6122, 6326.505
564.0944, 6308.343
564.5765, 6327.741
565.0586, 6370.708
565.5407, 6376.571
566.0228, 6318.197
566.5049, 6291.459
566.9871, 6353.968
567.4692, 6420.096
567.9513, 6429.023
568.4334, 6390.394
568.9155, 6359.997
569.3976, 6370.277
569.8798, 6390.865
570.3619, 6390.934
570.8440, 6375.269
571.3261, 6358.779
571.8082, 6345.657
572.2903, 6336.278
572.7725, 6330.765
573.2546, 6328.729
573.7367, 6334.393
574.2188, 6353.992
574.7009, 6373.521
575.1830, 6393.937
575.6652, 6410.142
576.1473, 6415.390
576.6294, 6408.798
577.1115, 6398.070
577.5936, 6389.150
578.0757, 6381.689
578.5579, 6373.278
579.0400, 6363.174
579.5221, 6358.839
580.0042, 6365.350
580.4863, 6378.187
580.9684, 6390.170
581.4506, 6403.402
581.9327, 6408.353
582.4148, 6396.316
582.8969, 6382.228
583.3790, 6374.314
583.8611, 6372.497
584.3433, 6375.896
584.8254, 6384.198
585.3075, 6393.042
585.7896, 6395.493
586.2717, 6391.178
586.7538, 6382.956
587.2360, 6362.192
587.7181, 6352.021
588.2002, 6382.862
588.6823, 6428.356
589.1644, 6442.178
589.6465, 6406.680
590.1287, 6370.151
590.6108, 6358.280
591.0929, 6357.067
591.5750, 6346.326
592.0571, 6326.608
592.5392, 6314.730
593.0214, 6322.875
593.5035, 6343.879
593.9856, 6356.420
594.4677, 6360.756
594.9498, 6355.856
595.4319, 6327.979
595.9141, 6303.253
596.3962, 6296.205
596.8783, 6302.821
597.3604, 6311.900
597.8425, 6320.144
598.3246, 6327.927
598.8068, 6339.699
599.2889, 6350.958
599.7710, 6347.290
600.2531, 6325.849
600.7352, 6301.528
601.2173, 6284.986
601.6995, 6276.910
602.1816, 6283.210
602.6637, 6326.476
603.1458, 6353.081
603.6279, 6345.510
604.1100, 6330.797
604.5922, 6331.265
605.0743, 6344.568
605.5564, 6352.421
606.0385, 6343.271
606.5206, 6324.478
607.0027, 6299.163
607.4849, 6270.522
607.9670, 6268.502
608.4491, 6305.801
608.9312, 6351.013
609.4133, 6373.344
609.8954, 6372.636
610.3776, 6370.521
610.8597, 6369.806
611.3418, 6364.341
611.8239, 6342.197
612.3060, 6321.193
612.7881, 6324.105
613.2703, 6349.650
613.7524, 6373.191
614.2345, 6371.868
614.7166, 6358.891
615.1987, 6370.877
615.6808, 6409.276
616.1630, 6440.479
616.6451, 6455.600
617.1272, 6458.451
617.6093, 6448.938
618.0914, 6426.729
618.5735, 6413.539
619.0557, 6410.400
619.5378, 6416.147
620.0199, 6438.940
620.5020, 6466.136
620.9841, 6484.757
621.4662, 6491.021
621.9484, 6483.059
622.4305, 6450.324
622.9126, 6405.769
623.3947, 6408.574
623.8768, 6469.177
624.3589, 6515.137
624.8411, 6516.978
625.3232, 6503.772
625.8053, 6512.000
626.2874, 6540.203
626.7695, 6559.410
627.2516, 6558.546
627.7338, 6555.440
628.2159, 6561.508
628.6980, 6569.955
629.1801, 6568.950
629.6622, 6556.709
630.1443, 6542.694
630.6265, 6536.078
631.1086, 6535.675
631.5907, 6534.338
632.0728, 6531.038
632.5549, 6531.317
633.0370, 6541.507
633.5192, 6551.453
634.0013, 6543.106
634.4834, 6518.104
634.9655, 6514.493
635.4476, 6561.785
635.9297, 6609.219
636.4119, 6630.991
636.8940, 6633.225
637.3761, 6624.194
637.8582, 6607.171
638.3403, 6585.522
638.8224, 6560.470
639.3046, 6534.111
639.7867, 6520.692
640.2688, 6522.664
640.7509, 6528.771
641.2330, 6536.018
641.7151, 6546.076
642.1973, 6566.460
642.6794, 6595.275
643.1615, 6606.181
643.6436, 6574.941
644.1257, 6544.566
644.6078, 6541.918
645.0900, 6554.112
645.5721, 6562.167
646.0542, 6561.569
646.5363, 6557.164
647.0184, 6552.133
647.5005, 6547.818
647.9827, 6552.972
648.4648, 6571.892
648.9469, 6582.510
649.4290, 6575.242
649.9111, 6561.972
650.3932, 6552.715
650.8754, 6547.269
651.3575, 6544.503
651.8396, 6544.375
652.3217, 6546.695
652.8038, 6555.433
653.2859, 6564.596
653.7681, 6565.869
654.2502, 6558.327
654.7323, 6545.940
655.2144, 6529.963
655.6965, 6514.230
656.1786, 6512.928
656.6608, 6528.090
657.1429, 6547.068
657.6250, 6576.205
658.1071, 6595.455
658.5892, 6575.114
659.0714, 6526.031
659.5535, 6497.606
660.0356, 6515.975
660.5177, 6528.486
660.9998, 6507.610
661.4819, 6478.235
661.9641, 6466.299
662.4462, 6473.149
662.9283, 6486.268
663.4104, 6497.927
663.8925, 6509.214
664.3746, 6525.914
664.8568, 6548.633
665.3389, 6555.062
665.8210, 6536.945
666.3031, 6513.400
666.7852, 6497.111
667.2673, 6487.101
667.7495, 6477.962
668.2316, 6466.913
668.7137, 6461.228
669.1958, 6473.920
669.6779, 6482.979
670.1600, 6459.263
670.6422, 6416.764
671.1243, 6399.076
671.6064, 6430.154
672.0885, 6476.272
672.5706, 6487.827
673.0527, 6470.024
673.5349, 6461.084
674.0170, 6466.084
674.4991, 6471.000
674.9812, 6466.939
675.4633, 6457.608
675.9454, 6452.727
676.4276, 6454.584
676.9097, 6455.902
677.3918, 6456.222
677.8739, 6456.250
678.3560, 6453.798
678.8381, 6452.146
679.3203, 6459.390
679.8024, 6478.057
680.2845, 6492.447
680.7666, 6482.966
681.2487, 6459.371
681.7308, 6444.344
682.2130, 6438.654
682.6951, 6437.561
683.1772, 6440.247
683.6593, 6442.495
684.1414, 6436.914
684.6235, 6421.013
685.1057, 6410.590
685.5878, 6406.021
686.0699, 6406.509
686.5520, 6420.425
687.0341, 6434.131
687.5162, 6430.796
687.9984, 6409.786
688.4805, 6389.576
688.9626, 6381.815
689.4447, 6379.275
689.9268, 6370.657
690.4089, 6360.399
690.8911, 6364.738
691.3732, 6387.688
691.8553, 6411.987
692.3374, 6419.147
692.8195, 6411.932
693.3016, 6415.745
693.7838, 6438.562
694.2659, 6454.779
694.7480, 6458.563
695.2301, 6455.127
695.7122, 6445.339
696.1943, 6431.029
696.6765, 6418.476
697.1586, 6408.933
697.6407, 6401.906
698.1228, 6396.654
698.6049, 6394.101
699.0870, 6394.273
699.5692, 6398.050
700.0513, 6409.907
700.5334, 6433.798
701.0155, 6461.174
701.4976, 6472.729
701.9797, 6467.589
702.4619, 6466.397
702.9440, 6473.530
703.4261, 6477.748
703.9082, 6469.005
704.3903, 6454.183
704.8724, 6451.631
705.3546, 6469.956
705.8367, 6475.099
706.3188, 6448.470
706.8009, 6421.348
707.2830, 6412.047
707.7651, 6415.338
708.2473, 6421.389
708.7294, 6426.995
709.2115, 6433.205
709.6936, 6441.792
710.1757, 6451.559
710.6578, 6459.488
711.1400, 6465.588
711.6221, 6470.641
712.1042, 6474.807
712.5863, 6478.508
713.0684, 6482.271
713.5505, 6486.116
714.0327, 6489.466
714.5148, 6485.158
714.9969, 6490.459
715.4790, 6524.831
715.9611, 6556.534
716.4432, 6551.929
716.9254, 6518.338
717.4075, 6497.679
717.8896, 6517.789
718.3717, 6540.563
718.8538, 6528.630
719.3359, 6501.475
719.8181, 6493.631
720.3002, 6507.941
720.7823, 6525.915
721.2644, 6535.246
721.7465, 6539.697
722.2286, 6549.873
722.7108, 6567.918
723.1929, 6574.763
723.6750, 6559.269
724.1571, 6552.206
724.6392, 6583.711
725.1213, 6630.053
725.6035, 6639.144
726.0856, 6595.274
726.5677, 6568.618
727.0498, 6580.761
727.5319, 6604.424
728.0140, 6632.701
728.4962, 6657.961
728.9783, 6668.507
729.4604, 6662.140
729.9425, 6650.754
730.4246, 6644.004
730.9067, 6640.318
731.3889, 6635.961
731.8710, 6631.147
732.3531, 6627.924
732.8352, 6626.902
733.3173, 6627.245
733.7994, 6627.500
734.2816, 6628.110
734.7637, 6635.724
735.2458, 6661.701
735.7279, 6675.534
736.2100, 6661.992
736.6921, 6646.781
737.1743, 6647.362
737.6564, 6659.072
738.1385, 6667.095
738.6206, 6665.728
739.1027, 6664.524
739.5848, 6678.395
740.0670, 6688.965
740.5491, 6662.297
741.0312, 6611.350
741.5133, 6586.942
741.9954, 6613.289
742.4775, 6653.487
742.9597, 6647.586
743.4418, 6600.702
743.9239, 6590.703
744.4060, 6627.011
744.8881, 6651.831
745.3702, 6637.762
745.8524, 6609.446
746.3345, 6599.960
746.8166, 6611.520
747.2987, 6621.937
747.7808, 6633.330
748.2629, 6641.033
748.7451, 6641.293
749.2272, 6639.427
749.7093, 6642.446
750.1914, 6648.397
750.6735, 6646.822
751.1556, 6628.446
751.6378, 6609.132
752.1199, 6608.913
752.6020, 6616.247
753.0841, 6604.749
753.5662, 6575.056
754.0483, 6554.058
754.5305, 6558.518
755.0126, 6573.812
755.4947, 6569.221
755.9768, 6541.534
756.4589, 6523.688
756.9410, 6516.145
757.4232, 6519.647
757.9053, 6543.806
758.3874, 6572.333
758.8695, 6578.555
759.3516, 6560.737
759.8337, 6544.129
760.3159, 6527.845
760.7980, 6516.510
761.2801, 6517.811
761.7622, 6521.045
762.2443, 6513.766
762.7264, 6496.192
763.2086, 6478.185
763.6907, 6465.109
764.1728, 6454.443
764.6549, 6443.308
765.1370, 6432.251
765.6191, 6421.732
766.1013, 6412.208
766.5834, 6406.867
767.0655, 6408.093
767.5476, 6412.833
768.0297, 6414.259
768.5118, 6411.607
768.9940, 6410.779
769.4761, 6414.438
769.9582, 6414.042
770.4403, 6399.928
770.9224, 6383.809
771.4045, 6385.161
771.8867, 6405.747
772.3688, 6418.906
772.8509, 6417.577
773.3330, 6413.106
773.8151, 6410.393
774.2972, 6406.382
774.7794, 6393.422
775.2615, 6374.647
775.7436, 6365.876
776.2257, 6379.585
776.7078, 6398.704
777.1899, 6406.849
777.6721, 6405.128
778.1542, 6391.959
778.6363, 6369.366
779.1184, 6351.946
779.6005, 6348.242
780.0826, 6352.212
780.5648, 6352.943
781.0469, 6350.012
781.5290, 6347.923
782.0111, 6346.418
782.4932, 6346.800
782.9753, 6352.830
783.4575, 6357.853
783.9396, 6348.354
784.4217, 6323.561
784.9038, 6318.030
785.3859, 6361.810
785.8680, 6387.976
786.3502, 6366.376
786.8323, 6329.498
787.3144, 6300.506
787.7965, 6282.205
788.2786, 6270.509
788.7607, 6262.031
789.2429, 6264.955
789.7250, 6298.421
790.2071, 6341.492
790.6892, 6360.368
791.1713, 6356.118
791.6534, 6347.079
792.1356, 6341.094
792.6177, 6330.486
793.0998, 6297.645
793.5819, 6247.944
794.0640, 6240.547
794.5461, 6282.752
795.0283, 6323.875
795.5104, 6356.299
795.9925, 6367.287
796.4746, 6333.665
796.9567, 6262.374
797.4388, 6229.377
797.9210, 6274.865
798.4031, 6301.481
798.8852, 6284.161
799.3673, 6267.613
799.8494, 6283.868
800.3315, 6317.557
800.8137, 6339.586
801.2958, 6343.805
801.7779, 6332.537
802.2600, 6287.609
802.7421, 6244.724
803.2242, 6241.415
803.7064, 6262.977
804.1885, 6281.820
804.6706, 6289.749
805.1527, 6288.984
805.6348, 6278.333
806.1169, 6264.395
806.5991, 6260.665
807.0812, 6266.688
807.5633, 6283.322
808.0454, 6311.944
808.5275, 6329.398
809.0096, 6317.363
809.4918, 6290.180
809.9739, 6286.298
810.4560, 6316.718
810.9381, 6329.447
811.4202, 6314.221
811.9023, 6298.059
812.3845, 6291.896
812.8666, 6289.641
813.3487, 6283.332
813.8308, 6272.965
814.3129, 6267.838
814.7950, 6270.625
815.2772, 6277.204
815.7593, 6288.293
816.2414, 6300.893
816.7235, 6315.467
817.2056, 6329.046
817.6877, 6333.863
818.1699, 6325.337
818.6520, 6313.760
819.1341, 6304.506
819.6162, 6299.656
820.0983, 6305.330
820.5804, 6318.615
821.0626, 6329.466
821.5447, 6334.267
822.0268, 6334.918
822.5089, 6335.418
822.9910, 6332.559
823.4731, 6306.191
823.9553, 6254.059
824.4374, 6223.460
824.9195, 6227.367
825.4016, 6241.556
825.8837, 6248.616
826.3658, 6251.410
826.8480, 6260.051
827.3301, 6280.731
827.8122, 6292.918
828.2943, 6292.229
828.7764, 6288.269
829.2585, 6281.036
829.7407, 6274.484
830.2228, 6271.998
830.7049, 6273.886
831.1870, 6283.990
831.6691, 6318.709
832.1512, 6342.898
832.6334, 6328.336
833.1155, 6305.478
833.5976, 6308.932
834.0797, 6333.511
834.5618, 6351.538
835.0439, 6350.734
835.5261, 6340.311
836.0082, 6320.868
836.4903, 6301.604
836.9724, 6301.129
837.4545, 6315.208
837.9366, 6326.412
838.4188, 6328.649
838.9009, 6324.180
839.3830, 6312.834
839.8651, 6298.827
840.3472, 6298.887
840.8293, 6313.267
841.3115, 6330.789
841.7936, 6351.817
842.2757, 6363.764
842.7578, 6356.167
843.2399, 6336.166
843.7220, 6321.397
844.2042, 6312.513
844.6863, 6306.636
845.1684, 6302.998
845.6505, 6303.512
846.1326, 6310.693
846.6147, 6321.098
847.0969, 6334.018
847.5790, 6348.564
848.0611, 6355.204
848.5432, 6350.848
849.0253, 6340.910
849.5074, 6320.449
849.9896, 6300.661
850.4717, 6287.304
850.9538, 6282.100
851.4359, 6288.990
851.9180, 6309.972
852.4001, 6330.716
852.8823, 6346.961
853.3644, 6354.119
853.8465, 6337.651
854.3286, 6311.366
854.8107, 6306.599
855.2928, 6326.428
855.7750, 6345.627
856.2571, 6345.940
856.7392, 6334.463
857.2213, 6320.542
857.7034, 6305.493
858.1855, 6292.040
858.6677, 6281.061
859.1498, 6288.570
859.6319, 6324.328
860.1140, 6365.627
860.5961, 6379.539
861.0782, 6366.958
861.5604, 6354.830
862.0425, 6343.281
862.5246, 6330.939
863.0067, 6314.360
863.4888, 6302.844
863.9709, 6304.562
864.4531, 6316.893
864.9352, 6331.102
865.4173, 6355.613
865.8994, 6364.302
866.3815, 6337.580
866.8636, 6319.129
867.3458, 6329.690
867.8279, 6352.873
868.3100, 6372.370
868.7921, 6386.662
869.2742, 6396.242
869.7563, 6405.421
870.2385, 6404.419
870.7206, 6381.796
871.2027, 6353.725
871.6848, 6328.796
872.1669, 6311.723
872.6490, 6311.318
873.1312, 6331.098
873.6133, 6353.559
874.0954, 6371.840
874.5775, 6381.505
875.0596, 6318.887
875.5417, 6355.474
876.0239, 6376.306
876.5060, 6382.227
876.9881, 6328.581
877.4702, 6351.853
877.9523, 6344.300
878.4344, 6335.483
878.9166, 6369.582
879.3987, 6324.600
879.8808, 6358.017
880.3629, 6360.139
880.8450, 6376.584
881.3271, 6362.014
881.8093, 6357.023
882.2914, 6383.058
882.7735, 6391.914
883.2556, 6373.772
883.7377, 6391.128
884.2198, 6345.062
884.7020, 6354.649
885.1841, 6388.249
885.6662, 6371.667
886.1483, 6390.696
886.6304, 6366.130
887.1125, 6347.202
887.5947, 6328.275
888.0768, 6324.566
888.5589, 6356.549
889.0410, 6390.841
889.5231, 6395.494
890.0052, 6377.018
890.4874, 6365.551
890.9695, 6367.847
891.4516, 6368.612
891.9337, 6360.283
892.4158, 6355.907
892.8979, 6367.835
893.3801, 6384.966
893.8622, 6391.112
894.3443, 6384.840
894.8264, 6378.933
895.3085, 6380.627
895.7906, 6381.373
896.2728, 6376.185
896.7549, 6368.074
897.2370, 6353.417
897.7191, 6339.670
898.2012, 6349.124
898.6833, 6389.999
899.1655, 6422.975
899.6476, 6400.964
900.1297, 6366.038
900.6118, 6380.712
901.0939, 6419.832
901.5760, 6422.938
902.0582, 6385.772
902.5403, 6352.421
903.0224, 6350.803
903.5045, 6363.771
903.9866, 6365.754
904.4688, 6361.989
904.9509, 6373.033
905.4330, 6396.587
905.9151, 6408.070
906.3972, 6399.563
906.8793, 6384.563
907.3615, 6374.843
907.8436, 6370.641
908.3257, 6374.019
908.8078, 6385.026
909.2899, 6396.251
909.7720, 6407.903
910.2542, 6411.454
910.7363, 6401.270
911.2184, 6385.341
911.7005, 6374.374
912.1826, 6368.406
912.6647, 6368.738
913.1469, 6378.028
913.6290, 6385.268
914.1111, 6388.688
914.5932, 6389.067
915.0753, 6383.004
915.5574, 6376.794
916.0396, 6386.881
916.5217, 6421.372
917.0038, 6441.647
917.4859, 6437.146
917.9680, 6433.348
918.4501, 6439.521
918.9323, 6445.689
919.4144, 6441.571
919.8965, 6430.652
920.3786, 6425.911
920.8607, 6428.427
921.3428, 6436.863
921.8250, 6464.647
922.3071, 6482.590
922.7892, 6464.903
923.2713, 6438.139
923.7534, 6438.964
924.2355, 6464.932
924.7177, 6475.171
925.1998, 6440.988
925.6819, 6416.392
926.1640, 6433.361
926.6461, 6459.160
927.1282, 6471.539
927.6104, 6472.192
928.0925, 6463.436
928.5746, 6447.674
929.0567, 6441.492
929.5388, 6461.063
930.0209, 6485.530
930.5031, 6504.646
930.9852, 6516.134
931.4673, 6512.999
931.9494, 6500.084
932.4315, 6488.690
932.9136, 6483.071
933.3958, 6486.890
933.8779, 6517.282
934.3600, 6547.604
934.8421, 6528.798
935.3242, 6488.443
935.8063, 6490.146
936.2885, 6533.826
936.7706, 6571.685
937.2527, 6578.510
937.7348, 6567.674
938.2169, 6542.872
938.6990, 6517.619
939.1812, 6535.377
939.6633, 6582.050
940.1454, 6594.012
940.6275, 6560.789
941.1096, 6531.360
941.5917, 6540.538
942.0739, 6571.676
942.5560, 6598.741
943.0381, 6621.504
943.5202, 6639.829
944.0023, 6653.293
944.4844, 6653.498
944.9666, 6637.361
945.4487, 6626.544
945.9308, 6641.430
946.4129, 6673.864
946.8950, 6705.175
947.3771, 6735.307
947.8593, 6743.518
948.3414, 6725.550
948.8235, 6721.810
949.3056, 6749.653
949.7877, 6789.104
950.2698, 6819.695
950.7520, 6841.128
951.2341, 6848.379
951.7162, 6837.073
952.1983, 6842.198
952.6804, 6872.172
953.1625, 6898.732
953.6447, 6907.627
954.1268, 6908.812
954.6089, 6914.960
955.0910, 6926.031
955.5731, 6940.974
956.0552, 6956.982
956.5374, 6987.664
957.0195, 7046.816
957.5016, 7095.551
957.9837, 7108.254
958.4658, 7103.325
958.9479, 7110.271
959.4301, 7129.976
959.9122, 7149.096
960.3943, 7163.722
960.8764, 7186.198
961.3585, 7226.968
961.8406, 7264.028
962.3228, 7281.250
962.8049, 7287.030
963.2870, 7299.300
963.7691, 7321.634
964.2512, 7331.044
964.7333, 7302.595
965.2155, 7297.517
965.6976, 7345.708
966.1797, 7401.274
966.6618, 7440.800
967.1439, 7465.056
967.6260, 7470.814
968.1082, 7446.810
968.5903, 7449.701
969.0724, 7523.042
969.5545, 7568.880
970.0366, 7531.246
970.5187, 7485.888
971.0009, 7502.071
971.4830, 7555.011
971.9651, 7573.422
972.4472, 7540.820
972.9293, 7509.456
973.4114, 7485.551
973.8936, 7464.909
974.3757, 7443.706
974.8578, 7427.187
975.3399, 7430.486
975.8220, 7441.985
976.3041, 7422.732
976.7863, 7352.018
977.2684, 7299.624
977.7505, 7293.851
978.2326, 7294.160
978.7147, 7295.782
979.1968, 7285.088
979.6790, 7239.130
980.1611, 7169.465
980.6432, 7117.550
981.1253, 7096.303
981.6074, 7080.793
982.0895, 7063.337
982.5717, 7050.196
983.0538, 7046.787
983.5359, 7047.609
984.0180, 7049.057
984.5001, 7049.154
984.9822, 7044.011
985.4644, 7033.712
985.9465, 7014.730
986.4286, 6977.487
986.9107, 6940.447
987.3928, 6914.466
987.8749, 6894.592
988.3571, 6874.135
988.8392, 6853.773
989.3213, 6839.852
989.8034, 6836.117
990.2855, 6833.511
990.7676, 6825.199
991.2498, 6820.293
991.7319, 6830.648
992.2140, 6843.832
992.6961, 6843.705
993.1782, 6831.032
993.6603, 6817.798
994.1425, 6807.364
994.6246, 6798.616
995.1067, 6789.875
995.5888, 6783.929
996.0709, 6790.763
996.5530, 6796.342
997.0352, 6771.790
997.5173, 6726.586
997.9994, 6714.744
998.4815, 6771.138
998.9636, 6812.571
999.4457, 6785.577
999.9279, 6746.480
1000.410, 6726.627
1000.892, 6723.284
1001.374, 6735.178
1001.856, 6757.809
1002.338, 6779.313
1002.821, 6799.973
1003.303, 6805.364
1003.785, 6777.628
1004.267, 6744.370
1004.749, 6718.611
1005.231, 6702.608
1005.713, 6703.102
1006.195, 6715.305
1006.677, 6720.207
1007.160, 6708.513
1007.642, 6699.076
1008.124, 6705.203
1008.606, 6711.206
1009.088, 6705.632
1009.570, 6694.913
1010.052, 6687.896
1010.534, 6683.846
1011.017, 6676.198
1011.499, 6662.960
1011.981, 6645.707
1012.463, 6609.190
1012.945, 6586.882
1013.427, 6617.501
1013.909, 6660.109
1014.391, 6666.044
1014.873, 6640.615
1015.356, 6617.759
1015.838, 6605.026
1016.320, 6602.920
1016.802, 6623.092
1017.284, 6640.453
1017.766, 6639.950
1018.248, 6630.918
1018.730, 6623.971
1019.213, 6617.409
1019.695, 6600.333
1020.177, 6565.503
1020.659, 6544.556
1021.141, 6560.295
1021.623, 6576.556
1022.105, 6569.540
1022.587, 6561.464
1023.069, 6581.341
1023.552, 6615.988
1024.034, 6625.854
1024.516, 6598.338
1024.998, 6581.576
1025.480, 6607.963
1025.962, 6621.087
1026.444, 6582.784
1026.926, 6538.843
1027.409, 6527.522
1027.891, 6538.877
1028.373, 6547.655
1028.855, 6550.239
1029.337, 6553.627
1029.819, 6562.732
1030.301, 6567.728
1030.783, 6555.176
1031.266, 6548.537
1031.748, 6578.054
1032.230, 6618.652
1032.712, 6620.694
1033.194, 6577.196
1033.676, 6546.019
1034.158, 6531.005
1034.640, 6531.650
1035.122, 6568.470
1035.604, 6598.592
1036.087, 6592.673
1036.569, 6568.464
1037.051, 6546.818
1037.533, 6527.573
1038.015, 6532.626
1038.497, 6594.437
1038.979, 6627.938
1039.461, 6613.956
1039.944, 6589.307
1040.426, 6561.642
1040.908, 6538.729
1041.390, 6534.225
1041.872, 6545.443
1042.354, 6540.406
1042.836, 6496.857
1043.318, 6488.560
1043.800, 6543.932
1044.283, 6585.446
1044.765, 6576.836
1045.247, 6554.182
1045.729, 6554.039
1046.211, 6571.168
1046.693, 6581.164
1047.175, 6581.941
1047.657, 6582.983
1048.140, 6585.047
1048.622, 6584.438
1049.104, 6577.366
1049.586, 6574.665
1050.068, 6587.345
1050.550, 6608.738
1051.032, 6621.110
1051.514, 6624.032
1051.996, 6622.621
1052.479, 6617.528
1052.961, 6601.830
1053.443, 6571.337
1053.925, 6542.888
1054.407, 6526.059
1054.889, 6523.591
1055.371, 6547.877
1055.853, 6593.787
1056.335, 6592.240
1056.818, 6543.505
1057.300, 6517.241
1057.782, 6525.342
1058.264, 6558.003
1058.746, 6612.596
1059.228, 6659.628
1059.710, 6656.899
1060.192, 6617.642
1060.675, 6576.870
1061.157, 6539.073
1061.639, 6537.198
1062.121, 6569.701
1062.603, 6594.940
1063.085, 6596.792
1063.567, 6590.016
1064.049, 6588.345
1064.531, 6587.702
1065.014, 6575.726
1065.496, 6560.677
1065.978, 6571.026
1066.460, 6597.521
1066.942, 6596.187
1067.424, 6560.654
1067.906, 6538.661
1068.388, 6568.848
1068.870, 6602.607
1069.353, 6571.729
1069.835, 6520.517
1070.317, 6513.006
1070.799, 6532.905
1071.281, 6540.283
1071.763, 6533.060
1072.245, 6538.545
1072.727, 6571.262
1073.210, 6602.462
1073.692, 6614.392
1074.174, 6612.922
1074.656, 6592.400
1075.138, 6569.158
1075.620, 6562.557
1076.102, 6570.680
1076.584, 6583.338
1077.067, 6597.987
1077.549, 6612.678
1078.031, 6634.405
1078.513, 6645.543
1078.995, 6631.055
1079.477, 6609.897
1079.959, 6590.658
1080.441, 6577.883
1080.923, 6579.391
1081.406, 6595.167
1081.888, 6608.622
1082.370, 6615.634
1082.852, 6622.001
1083.334, 6632.917
1083.816, 6638.137
1084.298, 6625.189
1084.780, 6610.094
1085.262, 6615.298
1085.745, 6634.542
1086.227, 6635.588
1086.709, 6605.648
1087.191, 6592.359
1087.673, 6606.261
1088.155, 6614.922
1088.637, 6605.494
1089.119, 6597.763
1089.602, 6609.593
1090.084, 6628.615
1090.566, 6624.760
1091.048, 6596.343
1091.530, 6596.648
1092.012, 6631.326
1092.494, 6659.391
1092.976, 6674.689
1093.458, 6679.752
1093.941, 6675.163
1094.423, 6664.678
1094.905, 6651.905
1095.387, 6638.571
1095.869, 6630.455
1096.351, 6627.679
1096.833, 6635.124
1097.315, 6651.157
1097.797, 6658.253
1098.280, 6650.857
1098.762, 6633.030
1099.244, 6604.743
1099.726, 6581.737
1100.208, 6597.388
1100.690, 6630.932
1101.172, 6639.105
1101.654, 6628.954
1102.137, 6621.132
1102.619, 6619.390
1103.101, 6619.609
1103.583, 6620.053
1104.065, 6619.121
1104.547, 6612.286
1105.029, 6606.911
1105.511, 6605.915
1105.994, 6613.305
1106.476, 6642.986
1106.958, 6682.052
1107.440, 6702.879
1107.922, 6699.829
1108.404, 6687.104
1108.886, 6659.945
1109.368, 6640.111
1109.850, 6638.328
1110.333, 6643.423
1110.815, 6652.729
1111.297, 6662.252
1111.779, 6665.696
1112.261, 6664.869
1112.743, 6671.800
1113.225, 6699.611
1113.707, 6704.461
1114.189, 6663.719
1114.672, 6634.092
1115.154, 6629.161
1115.636, 6638.268
1116.118, 6663.376
1116.600, 6688.232
1117.082, 6678.049
1117.564, 6632.534
1118.046, 6615.420
1118.529, 6630.985
1119.011, 6653.623
1119.493, 6682.862
1119.975, 6701.898
1120.457, 6702.847
1120.939, 6696.423
1121.421, 6693.286
1121.903, 6691.826
1122.385, 6688.005
1122.868, 6682.132
1123.350, 6674.968
1123.832, 6667.121
1124.314, 6660.786
1124.796, 6656.722
1125.278, 6656.693
1125.760, 6662.018
1126.242, 6666.427
1126.724, 6656.783
1127.207, 6647.238
1127.689, 6666.089
1128.171, 6693.307
1128.653, 6692.962
1129.135, 6672.591
1129.617, 6658.481
1130.099, 6658.357
1130.581, 6671.616
1131.064, 6712.769
1131.546, 6740.784
1132.028, 6724.674
1132.510, 6699.042
1132.992, 6676.085
1133.474, 6665.504
1133.956, 6686.388
1134.438, 6728.948
1134.921, 6753.520
1135.403, 6752.509
1135.885, 6743.337
1136.367, 6715.400
1136.849, 6697.246
1137.331, 6698.669
1137.813, 6703.736
1138.295, 6704.112
1138.777, 6702.120
1139.260, 6701.008
1139.742, 6700.725
1140.224, 6700.238
1140.706, 6698.924
1141.188, 6704.710
1141.670, 6719.666
1142.152, 6721.075
1142.634, 6700.559
1143.116, 6685.425
1143.599, 6698.441
##END=



