##NAMES=Hausmannite
##RRUFFID=R060512
##IDEAL CHEMISTRY=Mn^2+^Mn^3+^_2_O_4_
##LOCALITY=N'Chwaning II mine, Kalahari manganese field, northern Cape Province, Republic of South Africa
##OWNER=RRUFF
##SOURCE=Michael Scott
##DESCRIPTION=Group of black pseudo-octahedra with striations parallel to the (001) plane
##STATUS=The identification of this mineral has been confirmed by X-ray diffraction and chemical analysis
##URL=rruff.info/R060512
##MEASURED CHEMISTRY=Mn^2+^_0.99_Mn^3+^_1.98_O_4_
100.315, 240.655
100.797, 238.696
101.279, 236.889
101.761, 235.941
102.243, 235.922
102.726, 235.173
103.208, 231.876
103.690, 227.927
104.172, 227.154
104.654, 231.482
105.136, 236.565
105.618, 236.094
106.100, 230.020
106.582, 224.952
107.064, 225.269
107.547, 229.532
108.029, 231.510
108.511, 226.916
108.993, 222.450
109.475, 225.238
109.957, 235.969
110.439, 249.407
110.921, 260.653
111.404, 269.581
111.886, 282.512
112.368, 302.422
112.850, 326.716
113.332, 355.108
113.814, 388.447
114.296, 420.958
114.778, 444.105
115.260, 455.291
115.743, 467.072
116.225, 485.273
116.707, 504.558
117.189, 522.342
117.671, 538.808
118.153, 549.367
118.635, 543.022
119.117, 510.325
119.600, 478.293
120.082, 452.465
120.564, 430.902
121.046, 410.988
121.528, 391.013
122.010, 372.782
122.492, 362.733
122.974, 362.619
123.456, 370.145
123.939, 384.481
124.421, 405.511
124.903, 433.763
125.385, 469.703
125.867, 512.936
126.349, 558.058
126.831, 603.175
127.313, 652.622
127.796, 707.673
128.278, 767.734
128.760, 832.766
129.242, 903.025
129.724, 979.091
130.206, 1050.172
130.688, 1114.944
131.170, 1177.240
131.652, 1246.770
132.135, 1317.199
132.617, 1370.635
133.099, 1391.106
133.581, 1375.136
134.063, 1346.597
134.545, 1302.680
135.027, 1251.353
135.509, 1193.766
135.992, 1131.677
136.474, 1069.214
136.956, 1009.618
137.438, 952.227
137.920, 907.447
138.402, 878.889
138.884, 859.178
139.366, 843.208
139.848, 830.370
140.331, 823.204
140.813, 825.745
141.295, 841.564
141.777, 853.550
142.259, 856.854
142.741, 858.515
143.223, 863.925
143.705, 874.098
144.188, 889.891
144.670, 914.023
145.152, 947.688
145.634, 981.244
146.116, 1015.083
146.598, 1047.540
147.080, 1077.335
147.562, 1104.733
148.044, 1127.390
148.527, 1139.478
149.009, 1140.738
149.491, 1143.541
149.973, 1154.493
150.455, 1168.489
150.937, 1176.066
151.419, 1174.145
151.901, 1167.729
152.383, 1163.562
152.866, 1161.886
153.348, 1158.193
153.830, 1153.332
154.312, 1145.290
154.794, 1127.181
155.276, 1093.263
155.758, 1055.696
156.240, 1029.469
156.723, 1014.544
157.205, 1003.275
157.687, 992.223
158.169, 981.852
158.651, 974.087
159.133, 970.489
159.615, 968.472
160.097, 963.373
160.579, 954.576
161.062, 950.239
161.544, 960.955
162.026, 983.287
162.508, 995.104
162.990, 985.607
163.472, 968.698
163.954, 958.002
164.436, 954.031
164.919, 953.391
165.401, 952.603
165.883, 952.050
166.365, 957.835
166.847, 976.215
167.329, 997.482
167.811, 1013.046
168.293, 1022.203
168.775, 1029.720
169.258, 1039.322
169.740, 1051.010
170.222, 1063.050
170.704, 1078.235
171.186, 1090.853
171.668, 1096.647
172.150, 1095.122
172.632, 1089.417
173.115, 1082.157
173.597, 1073.382
174.079, 1062.346
174.561, 1047.907
175.043, 1031.518
175.525, 1012.810
176.007, 991.758
176.489, 972.442
176.971, 959.139
177.454, 952.288
177.936, 947.197
178.418, 943.161
178.900, 940.738
179.382, 941.231
179.864, 944.680
180.346, 948.166
180.828, 947.935
181.311, 943.247
181.793, 940.126
182.275, 941.169
182.757, 943.109
183.239, 944.364
183.721, 944.659
184.203, 944.441
184.685, 945.704
185.167, 949.783
185.650, 947.116
186.132, 923.636
186.614, 901.547
187.096, 895.759
187.578, 907.321
188.060, 921.886
188.542, 922.505
189.024, 905.983
189.507, 893.213
189.989, 890.775
190.471, 889.903
190.953, 886.225
191.435, 879.253
191.917, 871.409
192.399, 865.165
192.881, 860.748
193.363, 856.803
193.846, 851.199
194.328, 847.624
194.810, 849.111
195.292, 855.421
195.774, 862.803
196.256, 868.114
196.738, 871.661
197.220, 871.461
197.702, 863.169
198.185, 854.151
198.667, 846.924
199.149, 841.954
199.631, 839.238
200.113, 839.155
200.595, 842.052
201.077, 845.230
201.559, 849.855
202.042, 853.747
202.524, 855.054
203.006, 854.295
203.488, 854.019
203.970, 857.777
204.452, 866.458
204.934, 871.063
205.416, 868.491
205.898, 864.037
206.381, 859.420
206.863, 854.716
207.345, 849.371
207.827, 841.240
208.309, 829.886
208.791, 825.747
209.273, 837.762
209.755, 848.873
210.238, 851.539
210.720, 847.358
211.202, 842.044
211.684, 839.970
212.166, 841.030
212.648, 842.011
213.130, 843.341
213.612, 844.055
214.094, 844.073
214.577, 843.245
215.059, 841.132
215.541, 836.582
216.023, 830.185
216.505, 827.278
216.987, 831.060
217.469, 834.521
217.951, 834.262
218.434, 831.980
218.916, 831.001
219.398, 833.828
219.880, 839.458
220.362, 843.209
220.844, 844.206
221.326, 844.518
221.808, 845.462
222.290, 846.197
222.773, 845.250
223.255, 841.381
223.737, 835.758
224.219, 831.717
224.701, 828.768
225.183, 828.558
225.665, 834.990
226.147, 842.949
226.629, 845.762
227.112, 839.627
227.594, 828.693
228.076, 821.760
228.558, 820.750
229.040, 819.046
229.522, 811.435
230.004, 803.489
230.486, 801.503
230.969, 808.360
231.451, 818.820
231.933, 825.339
232.415, 827.551
232.897, 826.981
233.379, 819.366
233.861, 811.674
234.343, 810.141
234.825, 816.730
235.307, 825.886
235.790, 830.720
236.272, 830.523
236.754, 831.931
237.236, 841.197
237.718, 849.439
238.200, 848.930
238.682, 838.484
239.165, 826.043
239.647, 816.216
240.129, 809.066
240.611, 811.956
241.093, 836.826
241.575, 862.240
242.057, 870.347
242.539, 861.278
243.021, 849.529
243.503, 844.403
243.986, 845.124
244.468, 847.910
244.950, 854.897
245.432, 860.016
245.914, 856.470
246.396, 845.994
246.878, 838.315
247.361, 840.467
247.843, 849.106
248.325, 855.194
248.807, 857.297
249.289, 858.461
249.771, 862.466
250.253, 867.776
250.735, 869.539
251.217, 862.286
251.699, 851.738
252.182, 847.027
252.664, 849.144
253.146, 853.611
253.628, 859.097
254.110, 864.590
254.592, 867.539
255.074, 864.822
255.556, 861.039
256.039, 861.125
256.521, 865.076
257.003, 869.529
257.485, 873.312
257.967, 875.969
258.449, 876.722
258.931, 873.956
259.413, 871.164
259.896, 870.473
260.378, 871.687
260.860, 873.802
261.342, 876.293
261.824, 879.607
262.306, 885.108
262.788, 894.877
263.270, 902.494
263.752, 904.191
264.235, 902.045
264.717, 900.391
265.199, 900.638
265.681, 902.060
266.163, 903.266
266.645, 903.668
267.127, 905.592
267.609, 909.062
268.091, 914.466
268.574, 923.862
269.056, 937.720
269.538, 950.840
270.020, 955.782
270.502, 948.288
270.984, 947.161
271.466, 953.634
271.948, 965.697
272.431, 983.930
272.913, 1007.436
273.395, 1031.430
273.877, 1051.625
274.359, 1067.437
274.841, 1083.998
275.323, 1095.451
275.805, 1112.948
276.288, 1143.222
276.770, 1184.217
277.252, 1228.956
277.734, 1272.679
278.216, 1316.140
278.698, 1368.145
279.180, 1434.062
279.662, 1502.261
280.144, 1570.925
280.626, 1640.604
281.109, 1711.494
281.591, 1783.515
282.073, 1858.976
282.555, 1943.830
283.037, 2045.050
283.519, 2147.291
284.001, 2250.993
284.483, 2354.067
284.966, 2456.820
285.448, 2558.224
285.930, 2656.120
286.412, 2748.964
286.894, 2846.987
287.376, 2911.503
287.858, 2932.717
288.340, 2929.678
288.823, 2911.642
289.305, 2879.232
289.787, 2827.196
290.269, 2744.974
290.751, 2630.874
291.233, 2521.269
291.715, 2414.731
292.197, 2315.612
292.679, 2225.930
293.162, 2144.967
293.644, 2069.953
294.126, 1997.952
294.608, 1931.111
295.090, 1879.296
295.572, 1847.994
296.054, 1820.281
296.536, 1784.849
297.018, 1749.019
297.501, 1722.798
297.983, 1709.064
298.465, 1706.799
298.947, 1718.280
299.429, 1745.145
299.911, 1769.704
300.393, 1781.678
300.875, 1790.250
301.358, 1805.071
301.840, 1826.468
302.322, 1855.958
302.804, 1898.031
303.286, 1950.061
303.768, 1999.948
304.250, 2042.285
304.732, 2086.029
305.215, 2141.568
305.697, 2208.066
306.179, 2284.088
306.661, 2373.793
307.143, 2471.544
307.625, 2567.522
308.107, 2659.413
308.589, 2759.526
309.071, 2881.568
309.553, 3027.398
310.036, 3162.885
310.518, 3259.469
311.000, 3368.937
311.482, 3534.102
311.964, 3746.629
312.446, 3966.170
312.928, 4167.660
313.410, 4354.137
313.893, 4543.936
314.375, 4748.981
314.857, 4944.350
315.339, 5123.533
315.821, 5289.023
316.303, 5447.717
316.785, 5601.807
317.267, 5742.999
317.750, 5855.967
318.232, 5951.946
318.714, 5994.234
319.196, 5981.306
319.678, 5920.559
320.160, 5812.470
320.642, 5659.938
321.124, 5469.026
321.606, 5242.224
322.089, 4971.180
322.571, 4709.903
323.053, 4460.242
323.535, 4217.005
324.017, 3975.246
324.499, 3739.174
324.981, 3517.935
325.463, 3318.807
325.945, 3137.945
326.428, 2964.962
326.910, 2792.672
327.392, 2643.408
327.874, 2530.942
328.356, 2438.539
328.838, 2349.298
329.320, 2256.723
329.802, 2169.015
330.284, 2099.257
330.767, 2048.790
331.249, 1997.982
331.731, 1938.994
332.213, 1880.709
332.695, 1830.831
333.177, 1790.017
333.659, 1752.283
334.142, 1713.112
334.624, 1674.654
335.106, 1643.983
335.588, 1623.461
336.070, 1606.137
336.552, 1585.100
337.034, 1561.611
337.516, 1542.250
337.998, 1533.002
338.480, 1524.875
338.963, 1506.204
339.445, 1479.007
339.927, 1460.326
340.409, 1462.955
340.891, 1480.337
341.373, 1484.099
341.855, 1462.583
342.337, 1444.007
342.819, 1437.467
343.302, 1438.020
343.784, 1438.220
344.266, 1435.538
344.748, 1432.971
345.230, 1435.937
345.712, 1449.971
346.194, 1456.980
346.677, 1451.080
347.159, 1443.364
347.641, 1440.811
348.123, 1443.654
348.605, 1448.319
349.087, 1451.805
349.569, 1454.136
350.051, 1456.823
350.533, 1461.736
351.016, 1464.803
351.498, 1464.194
351.980, 1461.411
352.462, 1457.370
352.944, 1451.769
353.426, 1448.528
353.908, 1457.651
354.390, 1484.075
354.872, 1505.446
355.355, 1511.655
355.837, 1513.642
356.319, 1516.570
356.801, 1521.363
357.283, 1530.975
357.765, 1550.067
358.247, 1576.536
358.729, 1600.523
359.211, 1619.157
359.694, 1638.829
360.176, 1668.377
360.658, 1703.931
361.140, 1733.405
361.622, 1748.783
362.104, 1759.881
362.586, 1773.885
363.069, 1791.383
363.551, 1817.640
364.033, 1860.230
364.515, 1909.938
364.997, 1937.308
365.479, 1933.546
365.961, 1925.944
366.443, 1917.058
366.925, 1910.479
367.408, 1914.400
367.890, 1930.479
368.372, 1947.023
368.854, 1947.815
369.336, 1927.264
369.818, 1909.780
370.300, 1898.679
370.782, 1887.248
371.264, 1871.362
371.747, 1852.102
372.229, 1833.870
372.711, 1820.584
373.193, 1809.710
373.675, 1787.504
374.157, 1747.499
374.639, 1705.527
375.121, 1661.743
375.603, 1619.303
376.086, 1581.244
376.568, 1548.564
377.050, 1518.951
377.532, 1489.901
378.014, 1461.309
378.496, 1434.722
378.978, 1412.059
379.460, 1389.441
379.943, 1362.776
380.425, 1333.310
380.907, 1307.188
381.389, 1290.677
381.871, 1277.514
382.353, 1255.285
382.835, 1222.927
383.317, 1195.417
383.799, 1183.072
384.282, 1181.290
384.764, 1174.991
385.246, 1160.477
385.728, 1147.290
386.210, 1141.045
386.692, 1138.421
387.174, 1134.157
387.656, 1126.753
388.138, 1116.436
388.621, 1102.738
389.103, 1082.902
389.585, 1069.500
390.067, 1065.650
390.549, 1064.934
391.031, 1066.468
391.513, 1068.208
391.996, 1065.699
392.478, 1055.386
392.960, 1039.291
393.442, 1027.391
393.924, 1020.367
394.406, 1016.945
394.888, 1019.516
395.370, 1023.701
395.852, 1026.607
396.335, 1027.294
396.817, 1024.092
397.299, 1012.312
397.781, 992.061
398.263, 978.879
398.745, 977.141
399.227, 978.503
399.709, 977.483
400.191, 974.890
400.674, 973.136
401.156, 976.600
401.638, 978.998
402.120, 968.807
402.602, 947.225
403.084, 933.704
403.566, 939.767
404.048, 957.049
404.530, 966.771
405.013, 968.675
405.495, 965.737
405.977, 953.519
406.459, 939.437
406.941, 932.814
407.423, 934.838
407.905, 939.742
408.387, 942.117
408.870, 941.885
409.352, 940.193
409.834, 934.486
410.316, 930.262
410.798, 931.197
411.280, 934.196
411.762, 933.797
412.244, 927.432
412.727, 919.188
413.209, 917.547
413.691, 925.038
414.173, 930.518
414.655, 929.081
415.137, 927.944
415.619, 932.776
416.101, 942.428
416.583, 949.742
417.065, 947.790
417.548, 940.631
418.030, 938.775
418.512, 943.451
418.994, 946.674
419.476, 942.286
419.958, 934.080
420.440, 930.906
420.922, 935.958
421.405, 940.612
421.887, 938.790
422.369, 934.278
422.851, 934.605
423.333, 941.678
423.815, 950.249
424.297, 954.199
424.779, 952.568
425.262, 951.262
425.744, 950.436
426.226, 949.736
426.708, 947.693
427.190, 945.822
427.672, 947.750
428.154, 955.650
428.636, 965.994
429.118, 969.893
429.601, 963.863
430.083, 959.998
430.565, 964.348
431.047, 967.658
431.529, 961.500
432.011, 947.300
432.493, 936.300
432.975, 938.921
433.457, 950.537
433.940, 957.582
434.422, 958.904
434.904, 960.607
435.386, 969.500
435.868, 979.536
436.350, 977.652
436.832, 955.599
437.314, 936.513
437.797, 935.402
438.279, 943.951
438.761, 946.747
439.243, 940.180
439.725, 932.958
440.207, 934.835
440.689, 947.341
441.171, 958.294
441.654, 971.438
442.136, 979.435
442.618, 974.863
443.100, 964.152
443.582, 958.637
444.064, 963.572
444.546, 973.386
445.028, 975.590
445.510, 965.060
445.992, 964.530
446.475, 990.251
446.957, 1015.056
447.439, 1022.886
447.921, 1016.259
448.403, 1008.668
448.885, 1006.492
449.367, 1008.553
449.849, 1013.692
450.332, 1022.064
450.814, 1030.052
451.296, 1035.327
451.778, 1039.758
452.260, 1047.676
452.742, 1061.054
453.224, 1071.875
453.706, 1075.680
454.189, 1076.897
454.671, 1079.493
455.153, 1084.368
455.635, 1092.316
456.117, 1104.307
456.599, 1120.129
457.081, 1135.826
457.563, 1151.828
458.045, 1167.307
458.528, 1181.980
459.010, 1196.064
459.492, 1208.320
459.974, 1218.849
460.456, 1232.142
460.938, 1254.652
461.420, 1286.425
461.902, 1316.987
462.384, 1345.893
462.867, 1373.659
463.349, 1396.289
463.831, 1418.434
464.313, 1450.253
464.795, 1499.453
465.277, 1551.859
465.759, 1596.407
466.241, 1634.450
466.724, 1669.176
467.206, 1700.705
467.688, 1733.031
468.170, 1771.475
468.652, 1817.094
469.134, 1865.664
469.616, 1922.340
470.098, 1976.583
470.581, 2025.041
471.063, 2066.614
471.545, 2100.804
472.027, 2127.105
472.509, 2146.235
472.991, 2158.250
473.473, 2159.914
473.955, 2164.077
474.437, 2179.419
474.919, 2191.501
475.402, 2193.423
475.884, 2185.216
476.366, 2169.352
476.848, 2145.454
477.330, 2115.634
477.812, 2083.243
478.294, 2048.167
478.776, 2008.775
479.259, 1961.803
479.741, 1913.108
480.223, 1876.390
480.705, 1856.548
481.187, 1827.655
481.669, 1774.914
482.151, 1718.140
482.633, 1673.712
483.116, 1642.297
483.598, 1617.598
484.080, 1596.514
484.562, 1577.350
485.044, 1552.342
485.526, 1516.018
486.008, 1483.163
486.490, 1456.672
486.972, 1433.273
487.455, 1411.256
487.937, 1390.024
488.419, 1368.711
488.901, 1344.641
489.383, 1320.088
489.865, 1303.928
490.347, 1298.077
490.829, 1289.516
491.311, 1267.645
491.794, 1241.124
492.276, 1228.848
492.758, 1237.647
493.240, 1242.590
493.722, 1232.111
494.204, 1215.108
494.686, 1202.027
495.168, 1193.857
495.651, 1185.749
496.133, 1173.620
496.615, 1158.092
497.097, 1145.589
497.579, 1137.885
498.061, 1130.937
498.543, 1125.696
499.025, 1120.024
499.508, 1110.259
499.990, 1096.691
500.472, 1085.963
500.954, 1086.881
501.436, 1095.906
501.918, 1097.824
502.400, 1091.141
502.882, 1082.201
503.364, 1073.931
503.846, 1065.701
504.329, 1055.241
504.811, 1038.903
505.293, 1028.840
505.775, 1036.093
506.257, 1048.864
506.739, 1051.359
507.221, 1042.318
507.703, 1031.821
508.186, 1028.171
508.668, 1030.647
509.150, 1032.349
509.632, 1034.577
510.114, 1034.054
510.596, 1029.488
511.078, 1022.693
511.560, 1013.849
512.042, 1003.617
512.525, 995.602
513.007, 994.546
513.489, 998.245
513.971, 998.258
514.453, 993.476
514.935, 990.512
515.417, 995.688
515.899, 1003.444
516.382, 1000.841
516.864, 982.182
517.346, 967.734
517.828, 965.561
518.310, 969.651
518.792, 974.523
519.274, 979.303
519.756, 985.074
520.239, 993.258
520.721, 1002.488
521.203, 1004.482
521.685, 991.172
522.167, 984.604
522.649, 995.742
523.131, 1008.137
523.613, 1007.455
524.096, 993.983
524.578, 980.672
525.060, 976.966
525.542, 979.313
526.024, 979.781
526.506, 978.220
526.988, 980.289
527.470, 991.158
527.952, 1004.494
528.435, 1006.521
528.917, 994.065
529.399, 983.004
529.881, 974.523
530.363, 968.975
530.845, 967.971
531.327, 970.289
531.809, 972.625
532.291, 973.057
532.774, 972.288
533.256, 971.867
533.738, 971.362
534.220, 972.655
534.702, 978.318
535.184, 983.771
535.666, 984.176
536.148, 981.453
536.630, 983.432
537.113, 998.866
537.595, 1015.678
538.077, 1017.787
538.559, 1009.079
539.041, 1007.031
539.523, 1018.199
540.005, 1034.359
540.487, 1044.732
540.969, 1047.846
541.452, 1050.998
541.934, 1053.749
542.416, 1056.969
542.898, 1059.899
543.380, 1063.896
543.862, 1072.246
544.344, 1086.146
544.826, 1099.911
545.309, 1104.450
545.791, 1100.174
546.273, 1100.725
546.755, 1109.082
547.237, 1118.218
547.719, 1123.727
548.201, 1126.663
548.683, 1128.944
549.166, 1128.942
549.648, 1131.354
550.130, 1140.054
550.612, 1151.694
551.094, 1161.609
551.576, 1169.061
552.058, 1176.373
552.540, 1185.821
553.023, 1196.893
553.505, 1204.532
553.987, 1206.937
554.469, 1208.607
554.951, 1207.117
555.433, 1207.522
555.915, 1216.218
556.397, 1232.677
556.879, 1247.035
557.362, 1250.032
557.844, 1248.120
558.326, 1253.499
558.808, 1265.947
559.290, 1276.864
559.772, 1282.625
560.254, 1284.826
560.736, 1286.114
561.218, 1285.969
561.701, 1286.232
562.183, 1285.501
562.665, 1286.523
563.147, 1294.030
563.629, 1303.979
564.111, 1307.519
564.593, 1300.278
565.075, 1288.763
565.557, 1284.463
566.040, 1287.749
566.522, 1284.710
567.004, 1269.667
567.486, 1255.403
567.968, 1253.423
568.450, 1259.239
568.932, 1262.167
569.414, 1261.467
569.896, 1256.778
570.379, 1243.523
570.861, 1228.086
571.343, 1220.631
571.825, 1222.248
572.307, 1225.322
572.789, 1222.869
573.271, 1215.952
573.753, 1213.517
574.236, 1219.681
574.718, 1222.832
575.200, 1217.778
575.682, 1211.060
576.164, 1208.323
576.646, 1209.555
577.128, 1209.457
577.610, 1203.868
578.093, 1196.247
578.575, 1190.873
579.057, 1187.514
579.539, 1184.505
580.021, 1181.208
580.503, 1177.960
580.985, 1175.384
581.467, 1173.860
581.950, 1171.561
582.432, 1167.610
582.914, 1163.939
583.396, 1161.434
583.878, 1159.593
584.360, 1157.173
584.842, 1153.708
585.324, 1151.579
585.806, 1155.818
586.289, 1164.032
586.771, 1163.609
587.253, 1151.573
587.735, 1142.377
588.217, 1146.344
588.699, 1159.025
589.181, 1166.128
589.663, 1164.533
590.145, 1163.924
590.628, 1167.130
591.110, 1170.840
591.592, 1172.659
592.074, 1172.549
592.556, 1171.399
593.038, 1169.659
593.520, 1167.508
594.002, 1165.131
594.484, 1162.421
594.967, 1160.215
595.449, 1157.926
595.931, 1157.211
596.413, 1159.174
596.895, 1163.730
597.377, 1171.293
597.859, 1184.663
598.341, 1197.904
598.823, 1207.704
599.306, 1216.029
599.788, 1225.826
600.270, 1237.485
600.752, 1249.072
601.234, 1258.808
601.716, 1266.955
602.198, 1275.272
602.680, 1283.721
603.162, 1292.389
603.645, 1299.601
604.127, 1308.407
604.609, 1323.065
605.091, 1342.893
605.573, 1359.456
606.055, 1366.721
606.537, 1371.733
607.019, 1380.303
607.502, 1391.640
607.984, 1403.018
608.466, 1413.583
608.948, 1424.934
609.430, 1439.664
609.912, 1458.343
610.394, 1473.526
610.876, 1480.813
611.359, 1490.689
611.841, 1509.593
612.323, 1530.261
612.805, 1543.723
613.287, 1548.634
613.769, 1554.847
614.251, 1567.973
614.733, 1586.010
615.216, 1607.246
615.698, 1631.085
616.180, 1655.356
616.662, 1679.197
617.144, 1701.725
617.626, 1721.035
618.108, 1736.391
618.590, 1750.853
619.072, 1760.376
619.555, 1773.435
620.037, 1793.767
620.519, 1819.041
621.001, 1847.276
621.483, 1878.213
621.965, 1906.391
622.447, 1922.833
622.929, 1934.398
623.411, 1955.659
623.894, 1987.383
624.376, 2023.052
624.858, 2060.081
625.340, 2097.348
625.822, 2132.542
626.304, 2162.998
626.786, 2197.132
627.268, 2233.656
627.750, 2274.720
628.233, 2324.375
628.715, 2378.497
629.197, 2429.974
629.679, 2475.889
630.161, 2521.252
630.643, 2568.790
631.125, 2619.586
631.607, 2677.387
632.089, 2742.404
632.572, 2813.050
633.054, 2889.125
633.536, 2968.750
634.018, 3046.020
634.500, 3115.085
634.982, 3191.679
635.464, 3278.885
635.946, 3370.017
636.429, 3459.292
636.911, 3549.894
637.393, 3648.789
637.875, 3758.946
638.357, 3877.856
638.839, 4002.003
639.321, 4132.215
639.803, 4270.757
640.286, 4417.947
640.768, 4572.626
641.250, 4733.737
641.732, 4900.803
642.214, 5073.328
642.696, 5233.883
643.178, 5427.797
643.660, 5668.531
644.143, 5928.589
644.625, 6190.623
645.107, 6460.196
645.589, 6749.719
646.071, 7063.491
646.553, 7405.250
647.035, 7788.639
647.517, 8204.259
647.999, 8613.346
648.482, 9008.373
648.964, 9459.119
649.446, 10024.410
649.928, 10677.840
650.410, 11302.660
650.892, 11888.210
651.374, 12464.370
651.856, 13000.260
652.338, 13559.460
652.821, 14198.120
653.303, 14886.580
653.785, 15556.160
654.267, 16187.420
654.749, 16761.840
655.231, 17248.561
655.713, 17661.721
656.195, 18052.039
656.677, 18424.500
657.160, 18714.471
657.642, 18885.770
658.124, 18935.039
658.606, 18853.939
659.088, 18643.250
659.570, 18293.410
660.052, 17762.199
660.534, 17141.189
661.016, 16458.980
661.499, 15725.160
661.981, 14951.600
662.463, 14123.460
662.945, 13299.640
663.427, 12520.770
663.909, 11776.600
664.391, 11033.940
664.873, 10297.120
665.356, 9608.458
665.838, 9000.460
666.320, 8460.823
666.802, 7959.076
667.284, 7498.744
667.766, 7068.550
668.248, 6673.881
668.730, 6306.952
669.213, 5964.267
669.695, 5648.392
670.177, 5360.104
670.659, 5102.398
671.141, 4864.940
671.623, 4643.742
672.105, 4439.143
672.587, 4254.636
673.070, 4088.145
673.552, 3932.363
674.034, 3782.626
674.516, 3641.178
674.998, 3512.625
675.480, 3398.152
675.962, 3288.184
676.444, 3177.515
676.926, 3080.003
677.409, 3014.204
677.891, 2960.252
678.373, 2890.255
678.855, 2798.003
679.337, 2707.988
679.819, 2625.246
680.301, 2551.344
680.783, 2492.220
681.265, 2443.295
681.748, 2393.927
682.230, 2340.157
682.712, 2286.734
683.194, 2241.318
683.676, 2203.715
684.158, 2158.996
684.640, 2103.686
685.122, 2053.600
685.604, 2015.991
686.087, 1986.056
686.569, 1958.361
687.051, 1934.290
687.533, 1902.236
688.015, 1847.814
688.497, 1798.970
688.979, 1776.159
689.461, 1764.946
689.943, 1743.686
690.426, 1707.691
690.908, 1668.707
691.390, 1634.386
691.872, 1606.097
692.354, 1591.026
692.836, 1589.016
693.318, 1582.290
693.800, 1565.249
694.283, 1541.374
694.765, 1513.506
695.247, 1480.978
695.729, 1453.208
696.211, 1430.453
696.693, 1411.646
697.175, 1398.843
697.657, 1388.261
698.140, 1377.749
698.622, 1366.498
699.104, 1352.882
699.586, 1332.608
700.068, 1314.015
700.550, 1309.918
701.032, 1315.038
701.514, 1315.059
701.997, 1307.128
702.479, 1294.316
702.961, 1278.149
703.443, 1260.125
703.925, 1247.054
704.407, 1241.638
704.889, 1234.619
705.371, 1223.787
705.853, 1212.273
706.336, 1200.151
706.818, 1188.854
707.300, 1182.511
707.782, 1184.970
708.264, 1185.552
708.746, 1175.386
709.228, 1163.269
709.710, 1158.857
710.192, 1161.677
710.675, 1167.916
711.157, 1175.939
711.639, 1181.579
712.121, 1176.407
712.603, 1160.700
713.085, 1147.081
713.567, 1135.582
714.049, 1128.663
714.531, 1130.211
715.014, 1135.068
715.496, 1131.822
715.978, 1116.082
716.460, 1108.875
716.942, 1121.289
717.424, 1131.612
717.906, 1128.108
718.388, 1117.470
718.870, 1109.210
719.353, 1105.503
719.835, 1102.776
720.317, 1097.743
720.799, 1092.110
721.281, 1089.683
721.763, 1089.667
722.245, 1087.362
722.727, 1081.211
723.210, 1074.352
723.692, 1070.336
724.174, 1068.932
724.656, 1065.363
725.138, 1056.120
725.620, 1051.385
726.102, 1058.788
726.584, 1066.525
727.067, 1065.839
727.549, 1058.500
728.031, 1052.477
728.513, 1050.543
728.995, 1049.219
729.477, 1048.351
729.959, 1046.113
730.441, 1038.850
730.924, 1027.727
731.406, 1017.920
731.888, 1012.362
732.370, 1010.028
732.852, 1010.495
733.334, 1013.437
733.816, 1012.295
734.298, 1005.610
734.780, 999.315
735.263, 996.930
735.745, 996.654
736.227, 994.198
736.709, 986.825
737.191, 984.870
737.673, 996.496
738.155, 1004.107
738.637, 996.567
739.119, 983.150
739.602, 976.655
740.084, 979.143
740.566, 980.981
741.048, 975.562
741.530, 966.809
742.012, 957.792
742.494, 949.381
742.976, 943.523
743.458, 940.771
743.941, 941.739
744.423, 949.516
744.905, 959.597
745.387, 943.270
745.869, 888.087
746.351, 859.539
746.833, 882.611
747.315, 916.221
747.797, 928.904
748.280, 925.195
748.762, 923.881
749.244, 928.080
749.726, 930.477
750.208, 930.423
750.690, 927.419
751.172, 917.704
751.654, 905.367
752.137, 900.050
752.619, 905.909
753.101, 912.042
753.583, 905.509
754.065, 892.571
754.547, 886.609
755.029, 887.475
755.511, 889.219
755.994, 889.554
756.476, 888.313
756.958, 884.950
757.440, 879.381
757.922, 874.928
758.404, 870.794
758.886, 869.623
759.368, 875.213
759.851, 881.388
760.333, 883.842
760.815, 882.326
761.297, 874.981
761.779, 852.071
762.261, 835.269
762.743, 836.834
763.225, 844.514
763.707, 845.922
764.190, 841.777
764.672, 840.210
765.154, 846.000
765.636, 852.825
766.118, 853.557
766.600, 849.010
767.082, 840.357
767.564, 828.079
768.046, 816.636
768.529, 808.485
769.011, 801.501
769.493, 790.726
769.975, 774.197
770.457, 769.439
770.939, 785.609
771.421, 797.317
771.903, 790.971
772.385, 780.186
772.868, 779.555
773.350, 788.820
773.832, 795.776
774.314, 799.934
774.796, 799.245
775.278, 788.081
775.760, 774.868
776.242, 770.228
776.724, 772.761
777.207, 771.738
777.689, 759.796
778.171, 746.635
778.653, 746.163
779.135, 754.062
779.617, 758.372
780.099, 758.003
780.581, 756.972
781.064, 757.599
781.546, 757.790
782.028, 753.046
782.510, 742.181
782.992, 735.412
783.474, 733.919
783.956, 734.119
784.438, 735.948
784.920, 737.940
785.403, 737.846
785.885, 735.706
786.367, 735.153
786.849, 738.019
787.331, 740.691
787.813, 743.172
788.295, 744.020
788.778, 741.178
789.260, 735.363
789.742, 728.797
790.224, 721.396
790.706, 717.128
791.188, 723.108
791.670, 733.746
792.152, 737.802
792.634, 735.314
793.117, 733.321
793.599, 735.307
794.081, 737.701
794.563, 734.192
795.045, 724.841
795.527, 719.359
796.009, 718.353
796.491, 719.043
796.973, 721.580
797.456, 723.898
797.938, 723.897
798.420, 721.571
798.902, 717.175
799.384, 708.730
799.866, 701.137
800.348, 694.906
800.830, 689.903
801.312, 686.012
801.795, 683.234
802.277, 681.778
802.759, 682.138
803.241, 682.275
803.723, 679.980
804.205, 677.549
804.687, 677.510
805.169, 679.538
805.652, 682.712
806.134, 686.577
806.616, 689.976
807.098, 692.315
807.580, 692.996
808.062, 688.233
808.544, 678.482
809.026, 673.743
809.508, 677.209
809.991, 681.902
810.473, 681.896
810.955, 677.763
811.437, 672.078
811.919, 662.895
812.401, 656.802
812.883, 653.138
813.365, 654.099
813.847, 665.921
814.330, 681.141
814.812, 687.498
815.294, 682.903
815.776, 675.522
816.258, 662.110
816.740, 651.823
817.222, 653.174
817.705, 658.297
818.187, 655.215
818.669, 643.820
819.151, 636.110
819.633, 641.377
820.115, 650.578
820.597, 654.521
821.079, 654.869
821.561, 654.867
822.044, 654.844
822.526, 652.990
823.008, 648.005
823.490, 643.060
823.972, 645.077
824.454, 653.490
824.936, 655.412
825.418, 649.250
825.901, 646.437
826.383, 652.610
826.865, 660.879
827.347, 662.378
827.829, 657.022
828.311, 652.862
828.793, 649.538
829.275, 648.013
829.757, 649.624
830.240, 651.960
830.722, 654.442
831.204, 656.396
831.686, 655.692
832.168, 649.886
832.650, 647.067
833.132, 653.553
833.614, 660.020
834.096, 659.825
834.579, 655.248
835.061, 650.495
835.543, 646.632
836.025, 642.411
836.507, 634.617
836.989, 627.988
837.471, 630.311
837.953, 638.026
838.435, 643.643
838.918, 645.635
839.400, 644.240
839.882, 639.226
840.364, 632.976
840.846, 630.242
841.328, 630.837
841.810, 631.911
842.292, 633.410
842.774, 634.567
843.257, 635.140
843.739, 635.000
844.221, 633.847
844.703, 631.635
845.185, 629.550
845.667, 625.904
846.149, 625.737
846.631, 634.620
847.114, 642.653
847.596, 642.415
848.078, 635.734
848.560, 627.318
849.042, 612.831
849.524, 606.890
850.006, 621.004
850.488, 635.376
850.971, 638.876
851.453, 635.130
851.935, 628.951
852.417, 621.780
852.899, 616.646
853.381, 616.286
853.863, 617.591
854.345, 618.003
854.828, 618.253
855.310, 619.919
855.792, 622.765
856.274, 624.649
856.756, 624.162
857.238, 623.686
857.720, 628.649
858.202, 636.144
858.684, 634.950
859.167, 625.488
859.649, 617.746
860.131, 615.315
860.613, 617.048
861.095, 622.786
861.577, 631.147
862.059, 632.415
862.541, 625.385
863.023, 617.266
863.506, 607.693
863.988, 600.776
864.470, 599.428
864.952, 602.556
865.434, 607.925
865.916, 618.348
866.398, 623.090
866.880, 614.387
867.362, 609.617
867.845, 617.187
868.327, 628.276
868.809, 635.084
869.291, 637.296
869.773, 636.534
870.255, 630.828
870.737, 625.303
871.219, 619.944
871.701, 616.842
872.184, 620.231
872.666, 626.526
873.148, 627.120
873.630, 619.160
874.112, 613.592
874.594, 622.440
875.076, 632.944
875.558, 629.575
876.041, 619.037
876.523, 615.749
877.005, 621.029
877.487, 624.391
877.969, 618.046
878.451, 609.371
878.933, 610.863
879.415, 619.324
879.898, 624.346
880.380, 625.469
880.862, 627.012
881.344, 630.825
881.826, 634.713
882.308, 635.881
882.790, 634.704
883.272, 633.469
883.755, 632.171
884.237, 631.035
884.719, 630.122
885.201, 629.498
885.683, 629.638
886.165, 629.590
886.647, 626.180
887.129, 616.728
887.611, 614.006
888.094, 623.688
888.576, 630.256
889.058, 625.652
889.540, 617.983
890.022, 615.273
890.504, 617.245
890.986, 621.701
891.468, 634.832
891.950, 641.313
892.433, 635.199
892.915, 625.981
893.397, 615.204
893.879, 606.769
894.361, 608.273
894.843, 621.646
895.325, 631.924
895.807, 632.151
896.289, 629.404
896.772, 626.386
897.254, 623.449
897.736, 620.407
898.218, 617.633
898.700, 616.262
899.182, 616.892
899.664, 618.585
900.146, 621.110
900.628, 623.889
901.111, 625.583
901.593, 627.038
902.075, 631.644
902.557, 639.496
903.039, 644.585
903.521, 641.632
904.003, 633.817
904.485, 622.593
904.968, 611.342
905.450, 613.976
905.932, 629.944
906.414, 642.646
906.896, 644.033
907.378, 640.733
907.860, 642.131
908.342, 646.922
908.825, 646.839
909.307, 641.871
909.789, 637.566
910.271, 635.035
910.753, 634.416
911.235, 636.053
911.717, 639.175
912.199, 642.368
912.682, 646.329
913.164, 645.463
913.646, 637.555
914.128, 631.922
914.610, 633.778
915.092, 635.375
915.574, 625.511
916.056, 606.726
916.538, 604.747
917.021, 635.512
917.503, 651.367
917.985, 636.825
918.467, 623.056
918.949, 628.943
919.431, 642.755
919.913, 647.182
920.395, 641.264
920.877, 634.785
921.360, 625.820
921.842, 619.794
922.324, 620.018
922.806, 621.743
923.288, 621.538
923.770, 620.113
924.252, 619.557
924.734, 620.273
925.216, 621.710
925.699, 621.187
926.181, 624.230
926.663, 640.765
927.145, 657.815
927.627, 658.709
928.109, 645.033
928.591, 631.269
929.073, 621.887
929.555, 616.006
930.038, 614.021
930.520, 614.425
931.002, 617.814
931.484, 621.765
931.966, 621.344
932.448, 616.145
932.930, 611.589
933.412, 610.787
933.895, 612.682
934.377, 618.111
934.859, 624.475
935.341, 627.154
935.823, 626.918
936.305, 628.345
936.787, 632.925
937.269, 635.169
937.752, 626.744
938.234, 614.952
938.716, 612.634
939.198, 617.427
939.680, 624.294
940.162, 631.702
940.644, 636.882
941.126, 638.284
941.609, 637.557
942.091, 635.659
942.573, 633.708
943.055, 637.630
943.537, 646.116
944.019, 647.917
944.501, 640.651
944.983, 634.891
945.465, 638.940
945.948, 647.597
946.430, 649.625
946.912, 645.468
947.394, 640.159
947.876, 633.781
948.358, 631.037
948.840, 633.793
949.322, 638.673
949.804, 643.120
950.287, 646.010
950.769, 641.154
951.251, 626.942
951.733, 622.612
952.215, 631.832
952.697, 639.049
953.179, 636.414
953.661, 632.705
954.143, 640.295
954.626, 657.305
955.108, 662.856
955.590, 653.401
956.072, 645.517
956.554, 641.134
957.036, 638.535
957.518, 637.119
958.000, 636.571
958.482, 636.377
958.965, 636.519
959.447, 637.717
959.929, 642.375
960.411, 642.277
960.893, 631.565
961.375, 622.755
961.857, 625.032
962.339, 633.962
962.822, 640.425
963.304, 644.319
963.786, 646.120
964.268, 643.910
964.750, 642.609
965.232, 644.453
965.714, 646.285
966.196, 645.589
966.679, 643.086
967.161, 641.152
967.643, 640.975
968.125, 637.968
968.607, 627.053
969.089, 619.768
969.571, 619.921
970.053, 624.512
970.536, 634.820
971.018, 647.699
971.500, 650.980
971.982, 638.169
972.464, 628.332
972.946, 624.222
973.428, 622.740
973.910, 621.602
974.392, 623.279
974.875, 634.225
975.357, 651.568
975.839, 658.579
976.321, 646.782
976.803, 635.675
977.285, 626.798
977.767, 621.935
978.249, 623.890
978.731, 629.214
979.214, 635.124
979.696, 640.788
980.178, 642.764
980.660, 635.981
981.142, 632.315
981.624, 639.468
982.106, 645.978
982.588, 645.193
983.070, 638.946
983.553, 627.221
984.035, 611.366
984.517, 603.924
984.999, 615.036
985.481, 626.246
985.963, 634.309
986.445, 637.324
986.927, 630.663
987.409, 619.525
987.892, 611.814
988.374, 608.771
988.856, 606.784
989.338, 602.782
989.820, 601.948
990.302, 612.345
990.784, 621.212
991.266, 616.657
991.749, 603.683
992.231, 591.321
992.713, 581.499
993.195, 575.003
993.677, 571.857
994.159, 572.444
994.641, 581.080
995.123, 589.836
995.606, 591.342
996.088, 587.678
996.570, 583.151
997.052, 578.780
997.534, 576.386
998.016, 578.602
998.498, 580.698
998.980, 579.609
999.463, 577.825
999.945, 580.270
1000.427, 583.122
1000.909, 575.198
1001.391, 553.607
1001.873, 540.917
1002.355, 554.934
1002.837, 570.969
1003.319, 577.226
1003.802, 578.030
1004.284, 576.646
1004.766, 573.680
1005.248, 568.345
1005.730, 560.284
1006.212, 555.223
1006.694, 558.516
1007.176, 562.031
1007.658, 559.650
1008.141, 556.913
1008.623, 561.533
1009.105, 569.626
1009.587, 570.170
1010.069, 560.088
1010.551, 554.342
1011.033, 563.920
1011.515, 573.798
1011.997, 577.579
1012.480, 576.866
1012.962, 571.003
1013.444, 562.609
1013.926, 556.620
1014.408, 554.174
1014.890, 553.628
1015.372, 556.768
1015.854, 558.595
1016.337, 555.171
1016.819, 550.661
1017.301, 547.682
1017.783, 546.979
1018.265, 550.474
1018.747, 558.959
1019.229, 564.156
1019.711, 562.638
1020.193, 557.936
1020.676, 548.461
1021.158, 539.239
1021.640, 534.380
1022.122, 533.003
1022.604, 533.744
1023.086, 536.661
1023.568, 535.916
1024.050, 524.668
1024.533, 516.357
1025.015, 516.362
1025.497, 520.738
1025.979, 530.446
1026.461, 540.752
1026.943, 542.007
1027.425, 532.228
1027.907, 526.016
1028.390, 527.793
1028.872, 531.912
1029.354, 539.232
1029.836, 545.944
1030.318, 550.051
1030.800, 551.552
1031.282, 549.883
1031.764, 544.794
1032.246, 541.451
1032.729, 543.173
1033.211, 543.010
1033.693, 536.568
1034.175, 531.092
1034.657, 531.440
1035.139, 535.179
1035.621, 539.703
1036.103, 545.042
1036.585, 545.269
1037.068, 534.434
1037.550, 526.920
1038.032, 524.305
1038.514, 525.255
1038.996, 532.925
1039.478, 541.528
1039.960, 542.905
1040.442, 537.210
1040.925, 532.183
1041.407, 525.342
1041.889, 523.905
1042.371, 533.641
1042.853, 540.538
1043.335, 535.185
1043.817, 527.785
1044.299, 532.049
1044.781, 546.148
1045.264, 552.263
1045.746, 545.802
1046.228, 543.867
1046.710, 551.205
1047.192, 553.727
1047.674, 543.604
1048.156, 530.994
1048.638, 526.333
1049.120, 528.102
1049.603, 528.901
1050.085, 527.910
1050.567, 530.571
1051.049, 539.415
1051.531, 542.375
1052.013, 534.288
1052.495, 522.836
1052.977, 513.548
1053.460, 508.016
1053.942, 512.852
1054.424, 529.133
1054.906, 539.236
1055.388, 542.514
1055.870, 543.350
1056.352, 542.493
1056.834, 543.109
1057.317, 548.005
1057.799, 554.148
1058.281, 554.593
1058.763, 550.116
1059.245, 549.935
1059.727, 553.695
1060.209, 556.039
1060.691, 555.843
1061.173, 552.558
1061.656, 545.546
1062.138, 538.707
1062.620, 538.601
1063.102, 542.963
1063.584, 545.041
1064.066, 545.063
1064.548, 543.129
1065.030, 539.812
1065.512, 538.411
1065.995, 540.415
1066.477, 543.005
1066.959, 543.370
1067.441, 542.254
1067.923, 539.656
1068.405, 537.089
1068.887, 538.797
1069.369, 543.623
1069.852, 546.764
1070.334, 546.573
1070.816, 544.461
1071.298, 540.763
1071.780, 536.835
1072.262, 533.849
1072.744, 531.664
1073.226, 531.534
1073.708, 531.551
1074.191, 526.568
1074.673, 516.727
1075.155, 509.819
1075.637, 510.060
1076.119, 513.534
1076.601, 519.184
1077.083, 525.704
1077.565, 534.940
1078.047, 542.519
1078.530, 540.291
1079.012, 530.366
1079.494, 525.112
1079.976, 529.464
1080.458, 534.039
1080.940, 536.190
1081.422, 537.400
1081.904, 539.883
1082.386, 540.422
1082.869, 533.006
1083.351, 521.662
1083.833, 517.852
1084.315, 524.350
1084.797, 530.835
1085.279, 538.755
1085.761, 543.282
1086.243, 540.812
1086.726, 537.805
1087.208, 537.902
1087.690, 539.925
1088.172, 542.397
1088.654, 545.408
1089.136, 545.457
1089.618, 539.923
1090.100, 539.216
1090.583, 547.271
1091.065, 552.118
1091.547, 546.607
1092.029, 539.735
1092.511, 542.924
1092.993, 553.111
1093.475, 554.768
1093.957, 547.037
1094.439, 543.815
1094.922, 546.020
1095.404, 550.550
1095.886, 556.691
1096.368, 560.945
1096.850, 559.951
1097.332, 557.503
1097.814, 563.157
1098.296, 573.921
1098.778, 576.321
1099.261, 571.177
1099.743, 560.964
1100.225, 548.089
1100.707, 544.538
1101.189, 557.054
1101.671, 573.297
1102.153, 579.908
1102.635, 581.013
1103.118, 583.021
1103.600, 584.229
1104.082, 579.894
1104.564, 571.928
1105.046, 566.932
1105.528, 566.870
1106.010, 568.595
1106.492, 569.773
1106.974, 572.540
1107.457, 580.401
1107.939, 588.712
1108.421, 592.737
1108.903, 594.394
1109.385, 597.520
1109.867, 602.077
1110.349, 604.419
1110.831, 602.648
1111.313, 600.630
1111.796, 600.124
1112.278, 598.710
1112.760, 594.134
1113.242, 589.151
1113.724, 584.464
1114.206, 581.658
1114.688, 587.118
1115.170, 605.021
1115.653, 610.946
1116.135, 595.104
1116.617, 587.323
1117.099, 596.433
1117.581, 606.547
1118.063, 608.584
1118.545, 607.804
1119.027, 612.427
1119.510, 621.155
1119.992, 622.437
1120.474, 615.551
1120.956, 609.089
1121.438, 603.525
1121.920, 601.709
1122.402, 604.869
1122.884, 607.269
1123.366, 603.276
1123.849, 597.901
1124.331, 603.104
1124.813, 614.970
1125.295, 618.576
1125.777, 616.419
1126.259, 621.164
1126.741, 633.108
1127.223, 638.845
1127.705, 631.609
1128.188, 623.483
1128.670, 624.997
1129.152, 632.607
1129.634, 649.362
1130.116, 664.663
1130.598, 661.072
1131.080, 645.331
1131.562, 634.800
1132.045, 633.005
1132.527, 631.887
1133.009, 627.503
1133.491, 624.210
1133.973, 622.550
1134.455, 623.900
1134.937, 632.859
1135.419, 642.391
1135.901, 645.096
1136.384, 641.433
1136.866, 634.598
1137.348, 622.508
1137.830, 614.330
1138.312, 607.529
1138.794, 610.477
1139.276, 632.162
1139.758, 649.390
1140.240, 647.015
1140.723, 635.266
1141.205, 629.333
1141.687, 628.601
1142.169, 628.729
1142.651, 629.907
1143.133, 625.574
1143.615, 615.133
1144.097, 610.374
1144.580, 615.276
1145.062, 621.600
1145.544, 622.800
1146.026, 620.786
1146.508, 617.156
1146.990, 613.485
1147.472, 614.890
1147.954, 618.885
1148.437, 616.927
1148.919, 610.495
1149.401, 611.687
1149.883, 625.144
1150.365, 635.965
1150.847, 633.221
1151.329, 624.342
1151.811, 606.878
1152.293, 593.092
1152.776, 600.636
1153.258, 616.374
1153.740, 617.192
1154.222, 602.931
1154.704, 593.614
1155.186, 593.200
1155.668, 597.801
1156.150, 616.426
1156.632, 626.657
1157.115, 616.396
1157.597, 603.212
1158.079, 599.822
1158.561, 601.210
1159.043, 596.589
1159.525, 586.073
1160.007, 585.790
1160.489, 597.387
1160.972, 606.814
1161.454, 612.657
1161.936, 613.359
1162.418, 608.165
1162.900, 599.775
1163.382, 589.735
1163.864, 581.284
1164.346, 581.590
1164.828, 588.024
1165.311, 596.431
1165.793, 604.446
1166.275, 604.454
1166.757, 597.656
1167.239, 594.107
1167.721, 597.926
1168.203, 602.018
1168.685, 599.311
1169.167, 597.584
1169.650, 606.786
1170.132, 614.861
1170.614, 606.913
1171.096, 592.935
1171.578, 589.113
1172.060, 595.760
1172.542, 602.547
1173.024, 610.639
1173.507, 612.534
1173.989, 602.145
1174.471, 595.256
1174.953, 599.048
1175.435, 600.361
1175.917, 588.195
1176.399, 572.731
1176.881, 571.940
1177.364, 583.268
1177.846, 584.102
1178.328, 574.590
1178.810, 567.955
1179.292, 565.422
1179.774, 569.112
1180.256, 579.147
1180.738, 586.713
1181.220, 585.236
1181.703, 579.838
1182.185, 576.305
1182.667, 573.753
1183.149, 572.318
1183.631, 570.041
1184.113, 560.335
1184.595, 547.699
1185.077, 546.731
1185.559, 560.133
1186.042, 568.574
1186.524, 557.988
1187.006, 550.818
1187.488, 561.796
1187.970, 569.045
1188.452, 553.165
1188.934, 535.290
1189.416, 539.664
1189.899, 557.472
1190.381, 565.369
1190.863, 562.226
1191.345, 559.729
1191.827, 557.814
1192.309, 557.181
1192.791, 558.184
1193.273, 558.334
1193.755, 556.514
1194.238, 554.059
1194.720, 552.001
1195.202, 550.989
1195.684, 553.072
1196.166, 556.808
1196.648, 558.848
1197.130, 559.497
1197.612, 560.566
1198.094, 561.440
1198.577, 557.753
1199.059, 548.078
1199.541, 542.174
1200.023, 551.505
1200.505, 558.266
1200.987, 550.740
1201.469, 540.457
1201.951, 532.825
1202.434, 528.770
1202.916, 530.253
1203.398, 535.988
1203.880, 540.509
1204.362, 544.317
1204.844, 543.826
1205.326, 536.734
1205.808, 533.157
1206.291, 534.758
1206.773, 540.676
1207.255, 551.591
1207.737, 558.589
1208.219, 550.044
1208.701, 536.904
1209.183, 547.289
1209.665, 571.075
1210.147, 580.703
1210.630, 578.870
1211.112, 574.490
1211.594, 570.100
1212.076, 568.193
1212.558, 569.613
1213.040, 567.923
1213.522, 553.884
1214.004, 543.125
1214.486, 548.245
1214.969, 554.076
1215.451, 548.202
1215.933, 539.099
1216.415, 536.088
1216.897, 539.114
1217.379, 547.199
1217.861, 562.302
1218.343, 569.129
1218.826, 565.957
1219.308, 561.417
1219.790, 556.391
1220.272, 552.093
1220.754, 548.942
1221.236, 548.229
1221.718, 551.710
1222.200, 556.360
1222.682, 555.045
1223.165, 551.973
1223.647, 559.430
1224.129, 570.557
1224.611, 568.788
1225.093, 556.614
1225.575, 547.740
1226.057, 546.112
1226.539, 546.609
1227.021, 547.741
1227.504, 549.370
1227.986, 552.579
1228.468, 554.860
1228.950, 550.848
1229.432, 549.860
1229.914, 563.397
1230.396, 582.072
1230.878, 585.232
1231.361, 573.590
1231.843, 570.458
1232.325, 576.580
1232.807, 572.669
1233.289, 557.659
1233.771, 553.352
1234.253, 565.765
1234.735, 582.648
1235.218, 596.888
1235.700, 602.399
1236.182, 583.468
1236.664, 561.064
1237.146, 561.965
1237.628, 572.203
1238.110, 573.906
1238.592, 571.227
1239.074, 577.882
1239.557, 593.113
1240.039, 596.581
1240.521, 576.195
1241.003, 565.133
1241.485, 567.615
1241.967, 575.500
1242.449, 591.982
1242.931, 601.417
1243.413, 594.052
1243.896, 580.370
1244.378, 572.322
1244.860, 569.121
1245.342, 570.743
1245.824, 574.895
1246.306, 570.308
1246.788, 560.995
1247.270, 562.784
1247.753, 574.509
1248.235, 580.634
1248.717, 575.709
1249.199, 570.790
1249.681, 572.710
1250.163, 575.250
1250.645, 572.470
1251.127, 573.202
1251.609, 590.760
1252.092, 606.473
1252.574, 598.269
1253.056, 578.106
1253.538, 571.346
1254.020, 577.542
1254.502, 579.973
1254.984, 578.455
1255.466, 576.382
1255.948, 574.011
1256.431, 569.024
1256.913, 561.302
1257.395, 557.754
1257.877, 562.870
1258.359, 569.669
1258.841, 571.847
1259.323, 571.000
1259.805, 563.138
##END=



