##NAMES=Hausmannite
##RRUFFID=R040090
##IDEAL CHEMISTRY=Mn^2+^Mn^3+^_2_O_4_
##LOCALITY=Ã–hrenstock, Ilmenau, near Thuringia, Germany
##OWNER=RRUFF
##SOURCE=University of Arizona Mineral Museum
##DESCRIPTION=Mass of black octahedral crystals
##STATUS=The identification of this mineral has been confirmed by X-ray diffraction and chemical analysis
##URL=rruff.info/R040090
##MEASURED CHEMISTRY=(Mn^2+^_0.71_Zn_0.28_)Mn^3+^_2.00_O_4_
106.6838, 135.0207
107.1659, 135.0925
107.6480, 134.9823
108.1301, 134.4140
108.6122, 133.6939
109.0944, 133.4554
109.5765, 134.0429
110.0586, 134.0868
110.5407, 131.7182
111.0228, 126.8428
111.5049, 123.2613
111.9871, 122.5281
112.4692, 123.9259
112.9513, 127.0063
113.4334, 131.9373
113.9155, 137.9976
114.3976, 144.8772
114.8798, 153.4436
115.3619, 159.7809
115.8440, 161.9257
116.3261, 161.4744
116.8082, 159.0641
117.2903, 153.8834
117.7725, 148.4169
118.2546, 149.2583
118.7367, 161.2008
119.2188, 170.6977
119.7009, 171.9747
120.1830, 169.0487
120.6652, 167.0454
121.1473, 168.8804
121.6294, 173.8166
122.1115, 178.2692
122.5936, 182.0088
123.0757, 185.4100
123.5579, 188.8357
124.0400, 192.0037
124.5221, 193.9441
125.0042, 192.9845
125.4863, 189.3146
125.9684, 193.1561
126.4506, 211.4357
126.9327, 231.3298
127.4148, 251.9609
127.8969, 271.7403
128.3790, 288.3628
128.8611, 299.0783
129.3432, 302.7520
129.8254, 309.7204
130.3075, 319.5433
130.7896, 332.5966
131.2717, 350.9131
131.7538, 373.3000
132.2359, 396.2618
132.7181, 416.2803
133.2002, 433.4176
133.6823, 446.8633
134.1644, 459.4290
134.6465, 467.0529
135.1286, 465.6089
135.6108, 455.5634
136.0929, 441.8000
136.5750, 429.5665
137.0571, 417.3132
137.5392, 412.7168
138.0213, 425.8283
138.5035, 439.7914
138.9856, 440.2503
139.4677, 424.5663
139.9498, 401.6447
140.4319, 383.5210
140.9140, 371.7787
141.3962, 362.2794
141.8783, 354.5321
142.3604, 349.2446
142.8425, 345.3971
143.3246, 342.5997
143.8067, 345.4072
144.2889, 363.3324
144.7710, 403.3454
145.2531, 439.4081
145.7352, 463.2401
146.2173, 476.2578
146.6994, 487.9181
147.1816, 507.2718
147.6637, 526.6843
148.1458, 531.3546
148.6279, 519.1229
149.1100, 507.3119
149.5921, 500.1934
150.0743, 496.0162
150.5564, 492.3572
151.0385, 489.0782
151.5206, 484.3487
152.0027, 474.3736
152.4848, 458.5110
152.9670, 441.0321
153.4491, 420.9442
153.9312, 400.1426
154.4133, 384.2418
154.8954, 376.7985
155.3775, 373.0624
155.8597, 363.6400
156.3418, 345.6151
156.8239, 330.7088
157.3060, 326.8031
157.7881, 331.4348
158.2702, 335.0978
158.7524, 334.7372
159.2345, 331.1996
159.7166, 325.4768
160.1987, 315.5457
160.6808, 308.8999
161.1629, 312.9485
161.6451, 325.8663
162.1272, 336.0086
162.6093, 339.8754
163.0914, 338.0907
163.5735, 332.2841
164.0556, 321.5680
164.5378, 309.7849
165.0199, 300.3732
165.5020, 293.0914
165.9841, 283.9163
166.4662, 268.7760
166.9483, 253.0282
167.4305, 242.8326
167.9126, 239.3908
168.3947, 239.3503
168.8768, 241.1678
169.3589, 244.8871
169.8410, 246.7799
170.3232, 244.1993
170.8053, 239.8217
171.2874, 236.4098
171.7695, 234.4104
172.2516, 233.1065
172.7337, 232.3125
173.2159, 232.1549
173.6980, 230.6105
174.1801, 224.8713
174.6622, 218.4299
175.1443, 215.0372
175.6264, 215.9879
176.1086, 217.8917
176.5907, 216.7938
177.0728, 212.2792
177.5549, 207.9548
178.0370, 204.4912
178.5191, 202.1437
179.0013, 201.8368
179.4834, 204.3485
179.9655, 206.6925
180.4476, 204.7926
180.9297, 197.9255
181.4118, 191.3301
181.8940, 187.2483
182.3761, 183.9137
182.8582, 179.5010
183.3403, 173.1791
183.8224, 167.7091
184.3046, 167.7214
184.7867, 174.6673
185.2688, 179.2317
185.7509, 176.6742
186.2330, 171.4559
186.7151, 166.1695
187.1973, 161.2701
187.6794, 157.3503
188.1615, 155.7766
188.6436, 157.3369
189.1257, 157.4091
189.6078, 153.0708
190.0900, 147.6170
190.5721, 143.0399
191.0542, 139.8174
191.5363, 137.7601
192.0184, 136.4911
192.5005, 135.8475
192.9827, 136.8042
193.4648, 142.9466
193.9469, 148.8845
194.4290, 150.1142
194.9111, 145.4581
195.3932, 139.1795
195.8754, 136.4244
196.3575, 137.7335
196.8396, 139.6564
197.3217, 142.0268
197.8038, 144.3931
198.2859, 146.8465
198.7681, 149.4300
199.2502, 151.0183
199.7323, 149.5388
200.2144, 144.2105
200.6965, 140.5615
201.1786, 141.6003
201.6608, 143.5992
202.1429, 144.6177
202.6250, 144.2958
203.1071, 143.0099
203.5892, 140.4842
204.0713, 136.2879
204.5535, 134.0816
205.0356, 138.1931
205.5177, 141.9709
205.9998, 140.5019
206.4819, 133.3997
206.9640, 125.6525
207.4462, 122.5764
207.9283, 124.5971
208.4104, 126.4204
208.8925, 127.7218
209.3746, 128.2479
209.8567, 127.1514
210.3388, 124.6071
210.8210, 122.6351
211.3031, 124.2218
211.7852, 129.5628
212.2673, 131.6025
212.7494, 126.2440
213.2315, 120.2324
213.7137, 117.4648
214.1958, 117.8883
214.6779, 119.3115
215.1600, 120.6456
215.6421, 121.8421
216.1242, 121.0986
216.6064, 116.3960
217.0885, 111.6906
217.5706, 109.1068
218.0527, 108.5075
218.5348, 108.8223
219.0169, 110.0283
219.4991, 111.8724
219.9812, 111.8643
220.4633, 108.2000
220.9454, 104.8290
221.4275, 104.1202
221.9096, 105.5442
222.3918, 107.3529
222.8739, 109.2674
223.3560, 110.9077
223.8381, 110.0163
224.3202, 104.6141
224.8023, 99.79086
225.2845, 98.84602
225.7666, 100.5428
226.2487, 102.1008
226.7308, 101.7306
227.2129, 100.1899
227.6950, 99.73360
228.1772, 100.8743
228.6593, 102.0249
229.1414, 102.9845
229.6235, 103.3175
230.1056, 101.9030
230.5877, 96.25150
231.0699, 89.65426
231.5520, 89.33543
232.0341, 97.46351
232.5162, 105.1554
232.9983, 106.7887
233.4804, 105.2937
233.9626, 104.3396
234.4447, 105.4550
234.9268, 107.1741
235.4089, 107.6487
235.8910, 106.8375
236.3731, 105.0082
236.8553, 100.7529
237.3374, 96.08513
237.8195, 93.55991
238.3016, 93.88927
238.7837, 96.08866
239.2658, 100.2545
239.7480, 106.4426
240.2301, 110.7524
240.7122, 110.9942
241.1943, 108.7056
241.6764, 105.9842
242.1585, 102.5316
242.6407, 99.72832
243.1228, 99.17525
243.6049, 100.5077
244.0870, 100.9865
244.5691, 98.90713
245.0512, 96.40598
245.5334, 96.96307
246.0155, 101.4581
246.4976, 104.9941
246.9797, 104.2315
247.4618, 100.3933
247.9439, 97.00333
248.4261, 94.96268
248.9082, 93.74052
249.3903, 92.53201
249.8724, 91.25279
250.3545, 90.65462
250.8366, 91.34946
251.3188, 92.82923
251.8009, 94.38669
252.2830, 95.97878
252.7651, 97.20129
253.2472, 97.37106
253.7293, 96.50517
254.2115, 95.78707
254.6936, 95.42422
255.1757, 95.31475
255.6578, 95.45304
256.1399, 95.83891
256.6220, 96.16895
257.1042, 96.23375
257.5863, 95.99722
258.0684, 95.32504
258.5505, 93.67006
259.0326, 91.98474
259.5147, 90.90377
259.9969, 90.44808
260.4790, 90.49120
260.9611, 91.16095
261.4432, 92.32910
261.9253, 92.40550
262.4074, 89.80592
262.8896, 87.80120
263.3717, 88.35983
263.8538, 90.77891
264.3359, 93.01921
264.8180, 93.91696
265.3001, 93.76258
265.7823, 93.93604
266.2644, 93.82596
266.7465, 94.68559
267.2286, 98.83252
267.7107, 103.6679
268.1928, 104.6116
268.6750, 99.57118
269.1571, 91.37267
269.6392, 86.82084
270.1213, 89.44559
270.6034, 91.65215
271.0855, 93.69941
271.5677, 95.17374
272.0498, 95.12074
272.5319, 93.45348
273.0140, 91.79655
273.4961, 93.06197
273.9782, 100.8947
274.4604, 103.0876
274.9425, 94.11237
275.4246, 84.59583
275.9067, 82.24557
276.3888, 87.01821
276.8709, 92.97923
277.3531, 93.57915
277.8352, 87.44069
278.3173, 84.66248
278.7994, 88.13543
279.2815, 92.12775
279.7636, 95.34069
280.2458, 97.40296
280.7279, 98.00601
281.2100, 96.66454
281.6921, 93.62347
282.1742, 91.29060
282.6563, 89.35709
283.1385, 88.64754
283.6206, 90.43984
284.1027, 93.24111
284.5848, 94.75601
285.0669, 93.55810
285.5490, 91.10050
286.0312, 91.36491
286.5133, 96.05251
286.9954, 99.44118
287.4775, 99.55640
287.9596, 98.01490
288.4417, 95.84245
288.9239, 93.24409
289.4060, 90.90714
289.8881, 89.58208
290.3702, 89.26737
290.8523, 90.01900
291.3344, 92.83979
291.8166, 96.00591
292.2987, 98.09299
292.7808, 99.01348
293.2629, 99.87723
293.7450, 101.8655
294.2271, 104.6098
294.7093, 106.2796
295.1914, 106.4672
295.6735, 105.7433
296.1556, 103.7124
296.6377, 100.8476
297.1198, 99.73195
297.6020, 102.6950
298.0841, 107.5453
298.5662, 110.8694
299.0483, 112.3966
299.5304, 113.0429
300.0125, 112.7602
300.4947, 112.0718
300.9768, 112.8389
301.4589, 116.0933
301.9410, 120.2001
302.4231, 124.4957
302.9052, 128.7929
303.3874, 131.8807
303.8695, 132.5742
304.3516, 132.0434
304.8337, 134.1872
305.3158, 141.0229
305.7979, 147.1788
306.2801, 150.4347
306.7622, 152.0269
307.2443, 153.8062
307.7264, 156.3406
308.2085, 159.8581
308.6906, 164.7816
309.1728, 171.9146
309.6549, 179.0731
310.1370, 186.0342
310.6191, 193.1378
311.1012, 200.6779
311.5833, 208.7023
312.0655, 217.1799
312.5476, 226.3575
313.0297, 236.8924
313.5118, 244.0500
313.9939, 242.8368
314.4760, 243.6497
314.9582, 252.6296
315.4403, 267.3897
315.9224, 281.8024
316.4045, 291.9712
316.8866, 298.1483
317.3687, 301.8615
317.8509, 300.0842
318.3330, 299.6816
318.8151, 304.4480
319.2972, 310.1601
319.7793, 311.9499
320.2614, 307.8594
320.7436, 299.8684
321.2257, 291.2183
321.7078, 281.7936
322.1899, 272.1591
322.6720, 261.2381
323.1541, 250.9430
323.6363, 243.3544
324.1184, 238.4355
324.6005, 233.0382
325.0826, 223.2686
325.5647, 209.6661
326.0468, 199.5113
326.5290, 195.4026
327.0111, 191.9686
327.4932, 184.5556
327.9753, 174.6163
328.4574, 166.7404
328.9395, 162.9109
329.4217, 162.3123
329.9038, 164.8597
330.3859, 171.0761
330.8680, 175.8623
331.3501, 176.2511
331.8322, 172.8453
332.3144, 167.2738
332.7965, 155.9639
333.2786, 147.2693
333.7607, 149.2646
334.2428, 158.7121
334.7249, 164.7165
335.2070, 162.4784
335.6891, 156.3319
336.1713, 155.1556
336.6534, 161.3853
337.1355, 165.0000
337.6176, 161.0368
338.0997, 155.3077
338.5818, 154.8825
339.0640, 160.6886
339.5461, 167.2069
340.0282, 168.3466
340.5103, 162.7885
340.9924, 159.9379
341.4745, 159.8820
341.9567, 161.9432
342.4388, 167.5445
342.9209, 175.0349
343.4030, 180.9646
343.8851, 183.0479
344.3672, 182.0518
344.8494, 181.6932
345.3315, 183.1131
345.8136, 183.5568
346.2957, 180.3871
346.7778, 177.2709
347.2599, 178.0855
347.7421, 183.9703
348.2242, 192.5668
348.7063, 201.0056
349.1884, 209.5099
349.6705, 216.8875
350.1526, 221.6553
350.6348, 226.4106
351.1169, 232.3942
351.5990, 239.6221
352.0811, 247.5612
352.5632, 256.0839
353.0453, 265.0778
353.5275, 273.9930
354.0096, 282.6739
354.4917, 291.7362
354.9738, 300.2447
355.4559, 309.5494
355.9380, 322.2702
356.4202, 340.1383
356.9023, 360.1777
357.3844, 379.9460
357.8665, 399.5755
358.3486, 420.2489
358.8307, 442.9146
359.3129, 466.3273
359.7950, 487.9037
360.2771, 506.3100
360.7592, 527.2342
361.2413, 553.8402
361.7234, 582.8831
362.2056, 609.9029
362.6877, 634.3584
363.1698, 659.5479
363.6519, 688.8773
364.1340, 722.9762
364.6161, 756.4946
365.0983, 786.7867
365.5804, 819.4117
366.0625, 858.1096
366.5446, 900.9335
367.0267, 943.4546
367.5089, 983.4222
367.9910, 1021.267
368.4731, 1058.239
368.9552, 1092.190
369.4373, 1128.660
369.9194, 1171.297
370.4016, 1214.262
370.8837, 1253.239
371.3658, 1287.107
371.8479, 1317.073
372.3300, 1344.887
372.8121, 1370.668
373.2943, 1391.069
373.7764, 1404.384
374.2585, 1413.594
374.7406, 1424.265
375.2227, 1432.728
375.7048, 1429.849
376.1870, 1409.423
376.6691, 1376.475
377.1512, 1338.406
377.6333, 1295.044
378.1154, 1247.896
378.5975, 1198.217
379.0797, 1144.200
379.5618, 1083.478
380.0439, 1012.984
380.5260, 943.0422
381.0081, 876.4938
381.4902, 813.7372
381.9724, 755.3384
382.4545, 701.2554
382.9366, 650.6132
383.4187, 602.0408
383.9008, 555.0496
384.3829, 514.0966
384.8651, 481.7156
385.3472, 452.9759
385.8293, 425.7168
386.3114, 399.6702
386.7935, 375.2468
387.2756, 352.6942
387.7578, 331.8737
388.2399, 312.0832
388.7220, 291.9116
389.2041, 275.2628
389.6862, 264.8195
390.1683, 256.5334
390.6505, 246.6229
391.1326, 234.3890
391.6147, 221.9352
392.0968, 211.0717
392.5789, 201.6548
393.0610, 196.0027
393.5432, 198.3025
394.0253, 199.3171
394.5074, 193.2772
394.9895, 182.5803
395.4716, 172.8525
395.9537, 166.9230
396.4359, 162.8888
396.9180, 157.6997
397.4001, 151.2729
397.8822, 146.4530
398.3643, 145.7144
398.8464, 146.1846
399.3286, 142.8234
399.8107, 134.6812
400.2928, 126.2219
400.7749, 116.9597
401.2570, 109.1851
401.7391, 107.6374
402.2213, 112.9749
402.7034, 119.1793
403.1855, 120.5199
403.6676, 116.6223
404.1497, 112.2456
404.6318, 104.6530
405.1140, 99.48618
405.5961, 100.9953
406.0782, 106.1240
406.5603, 109.5224
407.0424, 108.7000
407.5245, 105.1885
408.0067, 102.3509
408.4888, 100.6139
408.9709, 98.61214
409.4530, 95.81370
409.9351, 93.09475
410.4172, 90.65269
410.8994, 88.71066
411.3815, 87.90929
411.8636, 89.45145
412.3457, 92.58881
412.8278, 94.22093
413.3099, 94.25386
413.7921, 92.99477
414.2742, 88.80058
414.7563, 83.94700
415.2384, 81.85747
415.7205, 84.47219
416.2026, 86.98705
416.6848, 85.30804
417.1669, 80.74265
417.6490, 76.95883
418.1311, 74.80835
418.6132, 73.93665
419.0953, 73.94010
419.5775, 74.85924
420.0596, 76.80061
420.5417, 82.30450
421.0238, 86.64011
421.5059, 85.46446
421.9880, 80.42133
422.4702, 76.79292
422.9523, 77.87965
423.4344, 81.81373
423.9165, 82.05444
424.3986, 74.60475
424.8807, 69.78974
425.3629, 69.76265
425.8450, 71.40405
426.3271, 72.31092
426.8092, 72.21209
427.2913, 72.46083
427.7734, 75.40179
428.2556, 80.43709
428.7377, 80.96264
429.2198, 74.44505
429.7019, 68.16777
430.1840, 66.09660
430.6661, 66.53970
431.1483, 67.32336
431.6304, 68.39629
432.1125, 68.78040
432.5946, 66.95903
433.0767, 63.63835
433.5588, 61.27288
434.0410, 60.42846
434.5231, 61.06960
435.0052, 63.71411
435.4873, 68.92441
435.9694, 72.20603
436.4515, 71.12140
436.9337, 69.93964
437.4158, 72.82525
437.8979, 78.11610
438.3800, 80.40652
438.8621, 76.35090
439.3442, 68.29877
439.8264, 63.72165
440.3085, 64.68633
440.7906, 65.75826
441.2727, 66.99591
441.7548, 67.86108
442.2369, 67.83187
442.7191, 66.95993
443.2012, 65.81972
443.6833, 64.45405
444.1654, 63.13668
444.6475, 63.79995
445.1296, 67.59377
445.6118, 70.42059
446.0939, 69.32948
446.5760, 66.28207
447.0581, 63.76330
447.5402, 62.15267
448.0223, 61.04463
448.5045, 60.07804
448.9866, 59.43002
449.4687, 59.40399
449.9508, 60.04650
450.4329, 61.64364
450.9150, 64.87879
451.3972, 70.06550
451.8793, 73.24756
452.3614, 72.64172
452.8435, 71.99961
453.3256, 73.50764
453.8077, 75.98586
454.2899, 77.36956
454.7720, 76.74114
455.2541, 74.55520
455.7362, 71.05100
456.2183, 64.66792
456.7004, 61.71152
457.1826, 66.66505
457.6647, 71.62415
458.1468, 72.63383
458.6289, 70.34514
459.1110, 67.44722
459.5931, 64.69032
460.0753, 62.75999
460.5574, 63.65992
461.0395, 67.58571
461.5216, 70.11658
462.0037, 68.53408
462.4858, 65.59319
462.9680, 66.18903
463.4501, 71.16201
463.9322, 75.19581
464.4143, 77.20934
464.8964, 77.32227
465.3785, 74.35873
465.8607, 68.98263
466.3428, 64.97314
466.8249, 65.26991
467.3070, 69.11765
467.7891, 71.76198
468.2712, 72.17582
468.7534, 72.60782
469.2355, 73.32397
469.7176, 74.10492
470.1997, 74.95108
470.6818, 75.75626
471.1639, 76.04271
471.6461, 74.75634
472.1282, 72.19084
472.6103, 71.56910
473.0924, 73.74852
473.5745, 76.02566
474.0566, 77.24480
474.5388, 77.57918
475.0209, 77.17032
475.5030, 76.11796
475.9851, 74.13813
476.4672, 69.81687
476.9493, 64.63582
477.4315, 61.86155
477.9136, 62.21945
478.3957, 64.15501
478.8778, 66.26565
479.3599, 68.56628
479.8420, 70.86393
480.3242, 75.12032
480.8063, 77.18914
481.2884, 73.53780
481.7705, 67.62386
482.2526, 64.41077
482.7347, 65.60922
483.2169, 68.68265
483.6990, 70.04913
484.1811, 69.43646
484.6632, 69.25757
485.1453, 69.86665
485.6274, 70.60036
486.1096, 71.61336
486.5917, 72.44534
487.0738, 71.98718
487.5559, 69.14622
488.0380, 66.00640
488.5201, 64.23415
489.0023, 63.82862
489.4844, 65.04306
489.9665, 68.19903
490.4486, 72.09229
490.9307, 75.49509
491.4128, 78.45351
491.8950, 80.19244
492.3771, 79.69316
492.8592, 79.00174
493.3413, 79.30252
493.8234, 80.13239
494.3055, 80.47822
494.7877, 79.87502
495.2698, 78.72842
495.7519, 77.71410
496.2340, 76.78259
496.7161, 76.16709
497.1982, 76.38950
497.6804, 76.41908
498.1625, 75.47023
498.6446, 73.88646
499.1267, 72.63168
499.6088, 72.10153
500.0909, 72.08335
500.5730, 72.69923
501.0551, 73.75951
501.5373, 73.77708
502.0194, 71.76223
502.5015, 69.90694
502.9836, 71.79005
503.4657, 78.88352
503.9478, 82.88083
504.4300, 81.23416
504.9121, 78.67261
505.3942, 77.28257
505.8763, 77.09408
506.3584, 78.09618
506.8405, 80.35188
507.3227, 82.55455
507.8048, 81.48754
508.2869, 75.63797
508.7690, 72.64239
509.2511, 76.73085
509.7332, 80.23664
510.2154, 77.06701
510.6975, 69.84072
511.1796, 66.47115
511.6617, 72.80086
512.1439, 81.30145
512.6260, 83.27081
513.1081, 79.89729
513.5902, 76.81176
514.0723, 75.63084
514.5544, 75.96062
515.0366, 77.64407
515.5187, 81.36777
516.0008, 83.22947
516.4829, 80.89986
516.9650, 79.07695
517.4471, 81.73319
517.9293, 86.21597
518.4114, 87.06070
518.8935, 81.85721
519.3756, 74.31264
519.8577, 70.70407
520.3398, 71.69946
520.8220, 72.02393
521.3041, 70.19697
521.7862, 69.03970
522.2683, 71.15223
522.7504, 75.10203
523.2325, 77.26991
523.7147, 75.45713
524.1968, 73.12077
524.6789, 73.35789
525.1610, 75.29957
525.6431, 76.55075
526.1252, 76.46178
526.6074, 75.71193
527.0895, 75.12883
527.5716, 74.84306
528.0537, 73.55171
528.5358, 69.30885
529.0179, 66.42221
529.5001, 67.17379
529.9822, 69.66563
530.4643, 71.76273
530.9464, 72.70822
531.4285, 72.22982
531.9106, 69.14725
532.3928, 63.70984
532.8749, 60.12397
533.3570, 58.48882
533.8391, 58.99880
534.3212, 63.51585
534.8033, 69.95616
535.2855, 73.99645
535.7676, 74.25556
536.2497, 73.92150
536.7318, 74.97118
537.2139, 76.09329
537.6960, 74.88215
538.1782, 71.22552
538.6603, 67.68585
539.1424, 66.38454
539.6245, 67.20423
540.1066, 69.04734
540.5887, 73.32455
541.0709, 76.51080
541.5530, 77.41071
542.0351, 77.51040
542.5172, 78.35126
542.9993, 79.96892
543.4814, 80.76302
543.9636, 79.08916
544.4457, 75.90215
544.9278, 72.87347
545.4099, 69.97827
545.8920, 68.68716
546.3741, 70.15608
546.8563, 73.12159
547.3384, 74.97024
547.8205, 75.36284
548.3026, 75.80539
548.7847, 76.63791
549.2668, 77.42332
549.7490, 77.93302
550.2311, 78.12857
550.7132, 77.85831
551.1953, 76.96430
551.6774, 76.01289
552.1595, 76.53049
552.6417, 79.00169
553.1238, 80.32734
553.6059, 78.71638
554.0880, 77.45050
554.5701, 79.37267
555.0522, 83.49278
555.5344, 86.56832
556.0165, 88.28580
556.4986, 87.93214
556.9807, 82.57239
557.4628, 74.96236
557.9449, 72.20080
558.4271, 76.26693
558.9092, 82.39771
559.3913, 85.41840
559.8734, 85.17654
560.3555, 83.83899
560.8376, 78.96565
561.3198, 75.83078
561.8019, 77.50659
562.2840, 80.46510
562.7661, 80.38680
563.2482, 76.41520
563.7303, 72.05914
564.2125, 69.84086
564.6946, 69.64859
565.1767, 71.73243
565.6588, 76.31967
566.1409, 80.83841
566.6230, 84.40421
567.1052, 86.64802
567.5873, 86.11257
568.0694, 80.72300
568.5515, 77.70922
569.0336, 79.79762
569.5157, 83.16220
569.9979, 85.00768
570.4800, 85.55790
570.9621, 86.64563
571.4442, 89.53542
571.9263, 92.68459
572.4084, 91.90248
572.8906, 86.19900
573.3727, 83.45899
573.8548, 86.41582
574.3369, 90.77117
574.8190, 93.67255
575.3011, 95.27313
575.7833, 96.02472
576.2654, 95.66631
576.7475, 94.85420
577.2296, 93.71540
577.7117, 92.46683
578.1938, 91.26878
578.6760, 90.22408
579.1581, 90.01791
579.6402, 91.59927
580.1223, 94.88889
580.6044, 96.71738
581.0865, 96.56164
581.5686, 95.68776
582.0507, 94.04470
582.5328, 92.12054
583.0150, 90.26079
583.4971, 88.53294
583.9792, 87.06505
584.4613, 85.35987
584.9434, 84.25723
585.4255, 85.54134
585.9077, 88.93352
586.3898, 92.06640
586.8719, 93.92575
587.3540, 94.80119
587.8361, 95.14983
588.3182, 94.77913
588.8004, 94.40704
589.2825, 93.84972
589.7646, 93.48308
590.2467, 93.65055
590.7288, 94.06831
591.2109, 94.40263
591.6931, 94.56511
592.1752, 94.15064
592.6573, 91.61033
593.1394, 87.85268
593.6215, 87.90939
594.1036, 93.08350
594.5858, 97.61454
595.0679, 97.30425
595.5500, 93.53815
596.0321, 91.68967
596.5142, 92.61710
596.9963, 93.77887
597.4785, 95.32021
597.9606, 96.56248
598.4427, 96.91328
598.9248, 96.44460
599.4069, 95.48441
599.8890, 94.09424
600.3712, 92.74973
600.8533, 92.60876
601.3354, 93.76263
601.8175, 94.78479
602.2996, 95.48904
602.7817, 95.86832
603.2639, 95.40009
603.7460, 94.44325
604.2281, 94.80771
604.7102, 96.69371
605.1923, 99.91620
605.6744, 106.6883
606.1566, 113.6394
606.6387, 115.5436
607.1208, 112.0839
607.6029, 107.9907
608.0850, 107.4052
608.5671, 109.7576
609.0493, 112.1657
609.5314, 114.7754
610.0135, 116.9957
610.4956, 118.4303
610.9777, 119.5939
611.4598, 120.6422
611.9420, 121.6587
612.4241, 123.7436
612.9062, 128.5091
613.3883, 133.2302
613.8704, 135.4014
614.3525, 136.1630
614.8347, 138.3451
615.3168, 142.7047
615.7989, 146.8246
616.2810, 147.6399
616.7631, 145.1412
617.2452, 142.7591
617.7274, 139.2723
618.2095, 138.1418
618.6916, 141.2390
619.1737, 146.7460
619.6558, 154.1692
620.1379, 163.5061
620.6201, 170.1086
621.1022, 170.1079
621.5843, 167.7633
622.0664, 167.6209
622.5485, 169.0212
623.0306, 168.0548
623.5128, 162.9656
623.9949, 158.7884
624.4770, 164.3887
624.9591, 182.2880
625.4412, 194.0586
625.9233, 196.4954
626.4055, 196.8944
626.8876, 195.7699
627.3697, 195.1254
627.8518, 198.0156
628.3339, 205.2710
628.8160, 212.3178
629.2982, 215.6823
629.7803, 217.9212
630.2624, 222.5921
630.7445, 229.4447
631.2266, 236.0165
631.7087, 241.0680
632.1909, 245.7522
632.6730, 252.4159
633.1551, 261.9772
633.6372, 270.2539
634.1193, 276.7158
634.6014, 282.4281
635.0836, 286.4380
635.5657, 290.4255
636.0478, 297.1615
636.5299, 307.6416
637.0120, 318.3348
637.4941, 327.6396
637.9763, 335.4707
638.4584, 340.0951
638.9405, 342.4080
639.4226, 347.7268
639.9047, 359.0422
640.3868, 374.4106
640.8690, 390.0519
641.3511, 406.1607
641.8332, 421.7618
642.3153, 435.1317
642.7974, 449.9421
643.2795, 468.9991
643.7617, 489.9572
644.2438, 508.1410
644.7259, 521.3714
645.2080, 537.5631
645.6901, 564.4280
646.1722, 596.1349
646.6544, 622.9802
647.1365, 645.3293
647.6186, 670.3405
648.1007, 701.7432
648.5828, 739.0915
649.0649, 782.6604
649.5471, 835.7462
650.0292, 885.1777
650.5113, 923.1819
650.9934, 966.4318
651.4755, 1021.959
651.9576, 1087.106
652.4398, 1158.964
652.9219, 1238.516
653.4040, 1318.284
653.8861, 1390.017
654.3682, 1461.539
654.8503, 1544.274
655.3325, 1637.725
655.8146, 1736.318
656.2967, 1837.657
656.7788, 1938.360
657.2609, 2030.449
657.7430, 2111.416
658.2252, 2195.164
658.7073, 2287.190
659.1894, 2374.892
659.6715, 2455.858
660.1536, 2528.674
660.6357, 2590.988
661.1179, 2644.054
661.6000, 2680.710
662.0821, 2696.579
662.5642, 2695.431
663.0463, 2680.475
663.5284, 2652.368
664.0106, 2612.287
664.4927, 2561.096
664.9748, 2496.543
665.4569, 2413.573
665.9390, 2310.174
666.4211, 2202.890
666.9033, 2087.623
667.3854, 1976.478
667.8675, 1879.964
668.3496, 1789.850
668.8317, 1693.937
669.3138, 1590.463
669.7960, 1488.194
670.2781, 1387.963
670.7602, 1292.208
671.2423, 1201.599
671.7244, 1116.781
672.2065, 1038.589
672.6887, 967.2673
673.1708, 903.3438
673.6529, 849.0938
674.1350, 803.9554
674.6171, 758.4835
675.0992, 711.6823
675.5814, 667.3094
676.0635, 626.7968
676.5456, 590.0435
677.0277, 557.0264
677.5098, 527.5751
677.9919, 501.1004
678.4741, 480.0855
678.9562, 459.3631
679.4383, 434.8324
679.9204, 409.1528
680.4025, 386.5283
680.8846, 368.1749
681.3668, 353.4224
681.8489, 343.9201
682.3310, 337.4134
682.8131, 324.4218
683.2952, 304.5248
683.7773, 289.7260
684.2595, 286.0946
684.7416, 285.5697
685.2237, 277.2052
685.7058, 259.7488
686.1879, 243.1610
686.6700, 223.8401
687.1522, 209.7791
687.6343, 206.3052
688.1164, 207.0737
688.5985, 206.0776
689.0806, 202.2628
689.5627, 197.0135
690.0449, 190.1322
690.5270, 183.1989
691.0091, 178.6347
691.4912, 176.0689
691.9733, 174.2108
692.4554, 172.7597
692.9376, 171.0236
693.4197, 168.3252
693.9018, 164.6975
694.3839, 160.5162
694.8660, 153.3499
695.3481, 149.8545
695.8303, 154.7447
696.3124, 160.3146
696.7945, 161.3508
697.2766, 158.3901
697.7587, 154.7161
698.2408, 151.6253
698.7230, 147.8232
699.2051, 140.5976
699.6872, 132.8623
700.1693, 129.8749
700.6514, 131.7374
701.1335, 134.3806
701.6157, 135.3529
702.0978, 133.9776
702.5799, 126.6427
703.0620, 111.1330
703.5441, 104.0498
704.0262, 111.6115
704.5084, 120.2970
704.9905, 121.0908
705.4726, 116.6091
705.9547, 113.4249
706.4368, 111.9607
706.9189, 111.3355
707.4011, 111.7428
707.8832, 112.5574
708.3653, 113.5354
708.8474, 114.4932
709.3295, 114.9490
709.8116, 114.6865
710.2938, 114.7687
710.7759, 117.3793
711.2580, 121.4897
711.7401, 122.4426
712.2222, 119.8738
712.7043, 117.5322
713.1865, 117.5004
713.6686, 117.7619
714.1507, 114.3568
714.6328, 105.2068
715.1149, 101.3086
715.5970, 106.8127
716.0792, 112.3883
716.5613, 116.8598
717.0434, 119.2466
717.5255, 117.1230
718.0076, 110.7808
718.4897, 106.7936
718.9719, 111.9415
719.4540, 118.5957
719.9361, 117.9574
720.4182, 112.4604
720.9003, 108.2163
721.3824, 106.8198
721.8646, 106.8508
722.3467, 107.0976
722.8288, 107.5258
723.3109, 107.9133
723.7930, 108.1629
724.2751, 108.8181
724.7573, 110.7689
725.2394, 112.1697
725.7215, 110.5173
726.2036, 106.9138
726.6857, 105.2792
727.1678, 107.1945
727.6500, 109.2243
728.1321, 111.2899
728.6142, 112.3803
729.0963, 110.7293
729.5784, 107.3519
730.0605, 105.0978
730.5427, 105.4530
731.0248, 106.7137
731.5069, 106.7348
731.9890, 105.8486
732.4711, 105.3179
732.9532, 105.2468
733.4354, 105.2381
733.9175, 105.1842
734.3996, 104.8309
734.8817, 103.5942
735.3638, 101.0737
735.8459, 99.24740
736.3281, 97.18171
736.8102, 97.03250
737.2923, 102.0272
737.7744, 107.6526
738.2565, 107.6510
738.7386, 101.6559
739.2208, 98.34962
739.7029, 104.0972
740.1850, 111.2457
740.6671, 114.5251
741.1492, 114.6511
741.6313, 113.0478
742.1135, 110.0703
742.5956, 105.0286
743.0777, 96.25049
743.5598, 86.49551
744.0419, 85.03456
744.5240, 92.33912
745.0062, 98.04473
745.4883, 99.96458
745.9704, 100.9128
746.4525, 103.2330
746.9346, 106.3639
747.4167, 107.6594
747.8989, 105.5334
748.3810, 104.0474
748.8631, 104.3042
749.3452, 104.2516
749.8273, 102.3821
750.3094, 99.45786
750.7916, 96.80042
751.2737, 94.72271
751.7558, 93.66546
752.2379, 94.94211
752.7200, 96.78571
753.2021, 96.46824
753.6843, 94.48620
754.1664, 92.97797
754.6485, 92.73704
755.1306, 93.15129
755.6127, 93.45838
756.0948, 93.70996
756.5770, 94.74632
757.0591, 97.01781
757.5412, 98.09107
758.0233, 96.28381
758.5054, 94.45308
758.9875, 96.50214
759.4697, 102.0210
759.9518, 103.4510
760.4339, 97.43857
760.9160, 91.81061
761.3981, 87.66276
761.8802, 84.88111
762.3624, 83.24339
762.8445, 82.85751
763.3266, 84.51027
763.8087, 89.29642
764.2908, 93.18818
764.7729, 90.69179
765.2551, 85.54615
765.7372, 85.40736
766.2193, 89.82893
766.7014, 92.44935
767.1835, 90.15689
767.6656, 86.27565
768.1478, 86.48466
768.6299, 90.97694
769.1120, 91.97585
769.5941, 87.76736
770.0762, 85.27807
770.5583, 87.65348
771.0405, 92.00983
771.5226, 95.46148
772.0047, 98.02962
772.4868, 98.67044
772.9689, 95.99691
773.4510, 93.11525
773.9332, 90.96470
774.4153, 88.86523
774.8974, 85.23158
775.3795, 80.98100
775.8616, 79.50162
776.3438, 83.30256
776.8259, 87.76080
777.3080, 88.70789
777.7901, 87.32328
778.2722, 85.00143
778.7543, 82.32371
779.2365, 81.35811
779.7186, 83.26250
780.2007, 85.86589
780.6828, 85.24863
781.1649, 81.30076
781.6470, 79.09383
782.1292, 79.26051
782.6113, 78.71018
783.0934, 75.26212
783.5755, 71.91297
784.0576, 72.78778
784.5397, 78.24480
785.0219, 82.80222
785.5040, 88.19022
785.9861, 90.39224
786.4682, 85.86383
786.9503, 80.02872
787.4324, 77.32195
787.9146, 77.35253
788.3967, 77.23768
788.8788, 75.79849
789.3609, 74.12431
789.8430, 72.73547
790.3251, 71.74562
790.8073, 71.55140
791.2894, 71.92583
791.7715, 72.11379
792.2536, 71.76987
792.7357, 70.89374
793.2178, 68.86113
793.7000, 66.04597
794.1821, 65.94005
794.6642, 68.87092
795.1463, 71.15998
795.6284, 71.39636
796.1105, 70.98885
796.5927, 71.68008
797.0748, 73.43202
797.5569, 73.89685
798.0390, 71.90229
798.5211, 70.42085
799.0032, 70.95036
799.4854, 70.99676
799.9675, 67.75128
800.4496, 62.86337
800.9317, 60.83323
801.4138, 63.51942
801.8959, 66.72755
802.3781, 69.54682
802.8602, 71.38186
803.3423, 71.61304
803.8244, 70.47472
804.3065, 67.94141
804.7886, 64.17947
805.2708, 61.20417
805.7529, 61.12243
806.2350, 63.14011
806.7171, 65.99292
807.1992, 69.49672
807.6813, 72.82097
808.1635, 75.79079
808.6456, 76.98991
809.1277, 74.84627
809.6098, 70.29593
810.0919, 67.15643
810.5740, 65.37928
811.0562, 65.36225
811.5383, 68.04910
812.0204, 70.98158
812.5025, 73.57180
812.9846, 75.10164
813.4667, 73.30574
813.9489, 66.22272
814.4310, 62.82467
814.9131, 67.81538
815.3952, 72.04159
815.8773, 70.46696
816.3594, 66.75623
816.8416, 65.35850
817.3237, 66.67642
817.8058, 68.04196
818.2879, 68.05500
818.7700, 67.65658
819.2521, 67.88697
819.7343, 68.08632
820.2164, 66.55453
820.6985, 63.72539
821.1806, 62.35634
821.6627, 64.07431
822.1448, 67.08787
822.6270, 69.06577
823.1091, 69.96590
823.5912, 69.27961
824.0733, 66.95647
824.5554, 64.49390
825.0375, 62.30173
825.5197, 61.11433
826.0018, 62.25757
826.4839, 65.68543
826.9660, 66.61140
827.4481, 63.11400
827.9302, 61.39703
828.4124, 64.49593
828.8945, 67.66028
829.3766, 66.79019
829.8587, 63.14001
830.3408, 60.42283
830.8229, 58.71109
831.3051, 58.26024
831.7872, 60.21039
832.2693, 62.30418
832.7514, 63.12235
833.2335, 63.21731
833.7156, 63.70118
834.1978, 64.77810
834.6799, 65.39139
835.1620, 64.46640
835.6441, 63.17726
836.1262, 62.24094
836.6083, 61.92658
837.0905, 63.31248
837.5726, 66.09940
838.0547, 67.84225
838.5368, 66.74382
839.0189, 64.52245
839.5010, 64.55807
839.9832, 66.28377
840.4653, 66.21797
840.9474, 64.08353
841.4295, 61.51454
841.9116, 59.08792
842.3937, 57.32177
842.8759, 57.01839
843.3580, 58.19476
843.8401, 59.91502
844.3222, 62.91457
844.8043, 64.51537
845.2864, 63.31810
845.7686, 61.55469
846.2507, 60.88280
846.7328, 61.19970
847.2149, 61.96828
847.6970, 64.59352
848.1791, 65.18661
848.6613, 60.47376
849.1434, 56.77161
849.6255, 57.95502
850.1076, 61.97654
850.5897, 66.33008
851.0718, 70.48251
851.5540, 72.72982
852.0361, 72.01716
852.5182, 69.41037
853.0003, 63.52351
853.4824, 57.38969
853.9645, 56.38719
854.4467, 59.73500
854.9288, 60.88885
855.4109, 55.63588
855.8930, 49.67080
856.3751, 51.73135
856.8572, 58.05362
857.3394, 58.78239
857.8215, 54.32596
858.3036, 51.25342
858.7857, 52.10616
859.2678, 54.70623
859.7499, 56.70185
860.2321, 58.13062
860.7142, 59.05657
861.1963, 59.41348
861.6784, 60.36435
862.1605, 62.66951
862.6426, 63.37321
863.1248, 59.36832
863.6069, 53.09130
864.0890, 51.99075
864.5711, 58.96966
865.0532, 62.81707
865.5353, 61.99552
866.0175, 60.24822
866.4996, 56.62808
866.9817, 54.25521
867.4638, 58.25366
867.9459, 68.19144
868.4280, 73.22459
868.9102, 68.62166
869.3923, 63.59479
869.8744, 59.48772
870.3565, 56.68941
870.8386, 55.62681
871.3207, 56.04181
871.8029, 57.84847
872.2850, 61.38142
872.7671, 63.33736
873.2492, 59.63076
873.7313, 55.65230
874.2134, 57.45286
874.6956, 61.90892
875.1777, 63.03762
875.6598, 60.21304
876.1419, 57.44760
876.6240, 57.43079
877.1061, 58.77343
877.5883, 59.98166
878.0704, 60.98580
878.5525, 61.66789
879.0346, 61.98211
879.5167, 61.75795
879.9988, 60.92182
880.4810, 59.51126
880.9631, 56.99633
881.4452, 53.99991
881.9273, 54.82178
882.4094, 59.58801
882.8915, 62.82266
883.3737, 63.19064
883.8558, 62.20629
884.3379, 60.72246
884.8200, 59.16055
885.3021, 58.87203
885.7842, 60.21170
886.2664, 61.75715
886.7485, 64.57014
887.2306, 65.19986
887.7127, 60.66193
888.1948, 54.94969
888.6769, 53.10070
889.1591, 55.15495
889.6412, 56.61650
890.1233, 55.69200
890.6054, 56.80074
891.0875, 63.92800
891.5696, 69.69395
892.0518, 68.03944
892.5339, 62.41010
893.0160, 59.94463
893.4981, 62.41165
893.9802, 63.19168
894.4623, 57.81961
894.9445, 53.24631
895.4266, 53.25926
895.9087, 55.93831
896.3908, 60.10055
896.8729, 64.75101
897.3550, 67.57848
897.8372, 67.15983
898.3193, 65.87359
898.8014, 65.28265
899.2835, 64.84513
899.7656, 63.54038
900.2477, 61.95700
900.7299, 61.78510
901.2120, 63.33378
901.6941, 64.79268
902.1762, 64.41551
902.6583, 63.43088
903.1404, 64.04957
903.6226, 65.52740
904.1047, 66.08965
904.5868, 65.46159
905.0689, 63.43044
905.5510, 59.79971
906.0331, 56.24702
906.5153, 55.13806
906.9974, 56.22156
907.4795, 58.83092
907.9616, 62.84559
908.4437, 65.66122
908.9258, 66.62804
909.4080, 65.88635
909.8900, 63.30880
910.3721, 59.59084
910.8542, 56.25225
911.3364, 52.93359
911.8185, 54.16309
912.3006, 62.22913
912.7827, 66.11063
913.2648, 59.34649
913.7469, 50.68734
914.2291, 51.60861
914.7112, 61.35108
915.1933, 64.77847
915.6754, 57.60930
916.1575, 53.83463
916.6396, 56.90663
917.1218, 60.88361
917.6039, 62.57269
918.0860, 62.94231
918.5681, 64.06987
919.0502, 66.53604
919.5323, 66.85023
920.0145, 62.39933
920.4966, 59.22338
920.9787, 59.52686
921.4608, 60.85207
921.9429, 61.08310
922.4250, 60.75594
922.9072, 61.98819
923.3893, 66.28194
923.8714, 68.60735
924.3535, 66.33232
924.8356, 63.30823
925.3177, 61.10307
925.7999, 59.59647
926.2820, 58.29162
926.7641, 57.30279
927.2462, 57.62020
927.7283, 60.64647
928.2104, 63.09467
928.6926, 62.81804
929.1747, 61.55581
929.6568, 60.78733
930.1389, 60.32815
930.6210, 59.26139
931.1031, 57.49695
931.5853, 56.62440
932.0674, 58.45013
932.5495, 60.71585
933.0316, 60.86646
933.5137, 60.34118
933.9958, 61.68098
934.4780, 64.43888
934.9601, 66.28977
935.4422, 66.27779
935.9243, 65.34171
936.4064, 63.93861
936.8885, 62.50998
937.3707, 61.84895
937.8528, 61.76079
938.3349, 61.98769
938.8170, 62.31230
939.2991, 61.61517
939.7813, 59.01220
940.2634, 56.80304
940.7455, 59.23694
941.2276, 64.66232
941.7097, 68.34651
942.1918, 70.04313
942.6740, 68.65462
943.1561, 64.03973
943.6382, 59.63214
944.1203, 58.33945
944.6024, 58.89180
945.0845, 58.33095
945.5667, 56.81450
946.0488, 56.04952
946.5309, 56.14899
947.0130, 55.50566
947.4951, 53.34614
947.9772, 51.80199
948.4594, 53.41973
948.9415, 57.38924
949.4236, 60.01404
949.9057, 61.23277
950.3878, 61.71062
950.8699, 61.23333
951.3521, 62.09724
951.8342, 66.12870
952.3163, 69.88359
952.7984, 67.82303
953.2805, 60.28300
953.7626, 56.32191
954.2448, 56.60944
954.7269, 57.63115
955.2090, 58.70553
955.6911, 60.94246
956.1732, 65.67670
956.6553, 71.15099
957.1375, 74.06661
957.6196, 74.30527
958.1017, 72.52474
958.5838, 66.56021
959.0659, 63.97964
959.5480, 68.67579
960.0302, 73.52946
960.5123, 72.69086
960.9944, 68.39114
961.4765, 66.97823
961.9586, 69.89554
962.4407, 70.72404
962.9229, 68.53212
963.4050, 65.67218
963.8871, 61.70131
964.3692, 58.36435
964.8513, 57.51187
965.3334, 58.59278
965.8156, 59.15145
966.2977, 57.82439
966.7798, 58.76359
967.2619, 64.79556
967.7440, 69.55864
968.2261, 70.64979
968.7083, 69.82677
969.1904, 67.95914
969.6725, 65.46229
970.1546, 64.78111
970.6367, 67.94399
971.1188, 69.74389
971.6010, 69.11615
972.0831, 67.73741
972.5652, 65.78091
973.0473, 63.83744
973.5294, 62.37104
974.0115, 61.47348
974.4937, 61.56570
974.9758, 62.69328
975.4579, 64.85409
975.9400, 69.93526
976.4221, 74.01299
976.9042, 74.98049
977.3864, 73.55585
977.8685, 69.98583
978.3506, 64.53813
978.8327, 61.04410
979.3148, 60.92345
979.7969, 62.03871
980.2791, 65.77261
980.7612, 68.55044
981.2433, 67.27175
981.7254, 63.68818
982.2075, 60.27815
982.6896, 57.45708
983.1718, 56.47661
983.6539, 60.49649
984.1360, 62.70649
984.6181, 58.38821
985.1002, 53.36520
985.5823, 52.01353
986.0645, 53.43309
986.5466, 55.61359
987.0287, 58.18327
987.5108, 60.31309
987.9929, 61.71410
988.4750, 62.61889
988.9572, 63.65150
989.4393, 63.78262
989.9214, 60.72342
990.4035, 56.44659
990.8856, 55.82726
991.3677, 60.21249
991.8499, 62.66887
992.3320, 58.69291
992.8141, 54.21447
993.2962, 50.79743
993.7783, 49.49932
994.2604, 53.22126
994.7426, 59.40240
995.2247, 61.32718
995.7068, 56.83934
996.1889, 54.64612
996.6710, 61.70842
997.1531, 68.32305
997.6353, 68.08701
998.1174, 65.52062
998.5995, 65.80578
999.0816, 67.71834
999.5637, 66.55095
1000.046, 60.70755
1000.528, 55.08094
1001.010, 50.93200
1001.492, 48.70570
1001.974, 49.69614
1002.456, 51.93297
1002.939, 53.31496
1003.421, 54.13483
1003.903, 55.94139
1004.385, 59.30989
1004.867, 62.39526
1005.349, 64.73483
1005.831, 66.11332
1006.313, 66.26267
1006.795, 65.48407
1007.278, 63.28608
1007.760, 60.55019
1008.242, 59.37309
1008.724, 60.39844
1009.206, 62.58252
1009.688, 67.72871
1010.170, 71.23498
1010.652, 69.15053
1011.135, 65.07367
1011.617, 62.36511
1012.099, 61.09878
1012.581, 60.27367
1013.063, 59.66080
1013.545, 59.26290
1014.027, 58.77004
1014.509, 58.86106
1014.991, 59.96824
1015.474, 61.79149
1015.956, 65.79232
1016.438, 69.96859
1016.920, 68.25895
1017.402, 57.82048
1017.884, 50.87841
1018.366, 55.21522
1018.848, 59.98665
1019.331, 59.61757
1019.813, 57.42107
1020.295, 56.71980
1020.777, 56.94633
1021.259, 55.48012
1021.741, 51.26892
1022.223, 48.91718
1022.705, 51.77268
1023.187, 54.34761
1023.670, 54.60013
1024.152, 53.33558
1024.634, 49.36995
1025.116, 44.94821
1025.598, 45.70155
1026.080, 53.53379
1026.562, 59.47507
1027.044, 61.41176
1027.526, 61.16989
1028.009, 56.89682
1028.491, 53.02810
1028.973, 54.58382
1029.455, 58.66104
1029.937, 58.03342
1030.419, 50.82750
1030.901, 46.94068
1031.383, 49.89508
1031.866, 53.69734
1032.348, 58.15130
1032.830, 61.55889
1033.312, 62.38819
1033.794, 61.51852
1034.276, 60.45568
1034.758, 59.20309
1035.240, 58.56575
1035.723, 59.46989
1036.205, 59.73846
1036.687, 58.37155
1037.169, 56.95571
1037.651, 56.18235
1038.133, 56.06464
1038.615, 56.67730
1039.097, 58.06155
1039.579, 59.67902
1040.062, 62.13680
1040.544, 63.77165
1041.026, 63.16018
1041.508, 63.50367
1041.990, 68.62257
1042.472, 73.71868
1042.954, 70.75950
1043.436, 59.87490
1043.918, 55.06057
1044.401, 59.70146
1044.883, 62.73894
1045.365, 63.49018
1045.847, 61.96126
1046.329, 56.75197
1046.811, 51.20945
1047.293, 49.25575
1047.775, 50.69775
1048.258, 54.41610
1048.740, 62.01537
1049.222, 65.33337
1049.704, 62.07025
1050.186, 60.64254
1050.668, 65.26517
1051.150, 70.27111
1051.632, 69.28176
1052.115, 64.19437
1052.597, 63.29818
1053.079, 67.41710
1053.561, 68.07664
1054.043, 64.59275
1054.525, 59.71981
1055.007, 53.82206
1055.489, 50.14696
1055.971, 51.76841
1056.453, 57.15129
1056.936, 63.96118
1057.418, 71.80782
1057.900, 72.06875
1058.382, 64.70884
1058.864, 58.00655
1059.346, 54.06433
1059.828, 53.93684
1060.310, 58.81197
1060.793, 65.28708
1061.275, 67.15574
1061.757, 65.53362
1062.239, 65.80367
1062.721, 67.17144
1063.203, 64.20382
1063.685, 56.59130
1064.167, 50.28523
1064.650, 48.53418
1065.132, 49.63139
1065.614, 52.90303
1066.096, 56.67344
1066.578, 57.42779
1067.060, 55.89551
1067.542, 52.08257
1068.024, 47.61844
1068.506, 49.15102
1068.989, 59.01741
1069.471, 68.47380
1069.953, 69.08144
1070.435, 66.11519
1070.917, 65.33065
1071.399, 65.33913
1071.881, 63.85466
1072.363, 61.39292
1072.845, 59.91607
1073.328, 59.82062
1073.810, 59.45179
1074.292, 57.25735
1074.774, 55.47101
1075.256, 55.16184
1075.738, 56.50723
1076.220, 61.85488
1076.702, 67.84156
1077.184, 68.49991
1077.667, 63.89840
1078.149, 60.04076
1078.631, 58.69854
1079.113, 59.11922
1079.595, 63.16235
1080.077, 66.40551
1080.559, 65.98740
1081.041, 63.70948
1081.524, 61.29581
1082.006, 58.88193
1082.488, 55.85976
1082.970, 50.79700
1083.452, 49.53561
1083.934, 56.31744
1084.416, 62.30400
1084.898, 65.09997
1085.380, 66.11899
1085.863, 65.17629
1086.345, 63.71751
1086.827, 65.56304
1087.309, 71.81918
1087.791, 72.49509
1088.273, 64.05395
1088.755, 57.82385
1089.237, 55.72705
1089.719, 55.37341
1090.202, 55.89460
1090.684, 56.86559
1091.166, 57.49945
1091.648, 58.02452
1092.130, 61.11709
1092.612, 67.61419
1093.094, 70.05862
1093.576, 67.51086
1094.059, 62.62661
1094.541, 55.71449
1095.023, 52.23423
1095.505, 58.52064
1095.987, 68.95925
1096.469, 67.00944
1096.951, 55.49402
1097.433, 55.29537
1097.916, 65.28687
1098.398, 70.46420
1098.880, 67.58237
1099.362, 63.36608
1099.844, 61.89405
1100.326, 62.50062
1100.808, 66.62885
1101.290, 70.78932
1101.772, 66.11968
1102.255, 56.91498
1102.737, 52.59397
1103.219, 53.82008
1103.701, 58.41003
1104.183, 65.27387
1104.665, 68.50118
1105.147, 58.26649
1105.629, 48.73564
1106.111, 55.20929
1106.594, 66.39452
1107.076, 70.92035
1107.558, 70.01929
1108.040, 67.38305
1108.522, 64.10416
1109.004, 61.66401
1109.486, 61.06726
1109.968, 60.45816
1110.451, 57.72217
1110.933, 56.46413
1111.415, 60.36353
1111.897, 65.52269
1112.379, 67.23125
1112.861, 66.32422
1113.343, 67.36577
1113.825, 72.08144
1114.307, 74.52902
1114.790, 73.18809
1115.272, 71.87025
1115.754, 71.98524
1116.236, 71.19214
1116.718, 66.99454
1117.200, 62.05394
1117.682, 61.04742
1118.164, 63.89939
1118.646, 68.12990
1119.129, 74.83206
1119.611, 75.82030
1120.093, 69.24017
1120.575, 63.36977
1121.057, 61.55108
1121.539, 62.21978
1122.021, 64.06303
1122.503, 66.64617
1122.986, 69.51588
1123.468, 72.19410
1123.950, 71.57816
1124.432, 68.19935
1124.914, 65.46162
1125.396, 64.20041
1125.878, 63.98295
1126.360, 64.61106
1126.843, 65.63652
1127.325, 66.26776
1127.807, 67.23611
1128.289, 71.56277
1128.771, 75.75880
1129.253, 71.63672
1129.735, 62.56068
1130.217, 59.82125
1130.699, 66.32025
1131.182, 72.73782
1131.664, 74.61470
1132.146, 74.43608
1132.628, 71.52956
1133.110, 69.09748
1133.592, 70.34772
1134.074, 72.95702
1134.556, 73.53782
1135.038, 72.30984
1135.521, 72.21388
1136.003, 74.93572
1136.485, 75.50790
1136.967, 71.11148
1137.449, 68.13974
1137.931, 68.21172
1138.413, 69.93462
1138.895, 73.50299
1139.378, 76.90703
1139.860, 75.87701
1140.342, 70.57690
1140.824, 69.63995
1141.306, 73.72154
1141.788, 77.69231
1142.270, 81.25082
1142.752, 81.61579
1143.234, 77.43794
1143.717, 72.81989
1144.199, 71.64449
1144.681, 72.69442
1145.163, 73.38686
1145.645, 74.16615
1146.127, 77.53265
1146.609, 82.20982
1147.091, 84.01072
1147.573, 82.16235
1148.056, 76.25101
1148.538, 65.86016
1149.020, 59.64996
1149.502, 70.91898
1149.984, 83.41871
1150.466, 80.74296
1150.948, 72.11515
1151.430, 65.92197
1151.913, 62.92467
1152.395, 62.99681
1152.877, 65.76844
1153.359, 68.83636
1153.841, 72.34513
1154.323, 74.46599
1154.805, 74.54449
1155.287, 73.42052
1155.770, 69.83778
1156.252, 66.69204
1156.734, 66.50193
1157.216, 68.53193
1157.698, 71.29439
1158.180, 74.99790
1158.662, 77.37138
1159.144, 78.70028
1159.626, 76.74416
1160.109, 70.09539
1160.591, 66.41887
1161.073, 69.51099
1161.555, 74.28402
1162.037, 75.26391
1162.519, 74.09077
1163.001, 75.72960
1163.483, 78.65954
1163.965, 75.30997
1164.448, 67.62476
1164.930, 64.76092
1165.412, 67.70876
1165.894, 71.00224
1166.376, 71.98103
1166.858, 71.17478
1167.340, 67.04704
1167.822, 63.54844
1168.305, 64.22935
1168.787, 67.58400
1169.269, 74.52238
1169.751, 81.66594
1170.233, 83.01313
1170.715, 78.21324
1171.197, 72.03655
1171.679, 62.19125
1172.161, 58.31242
1172.644, 68.28365
1173.126, 76.08701
1173.608, 75.66135
1174.090, 72.48492
1174.572, 69.23751
1175.054, 66.85788
1175.536, 67.44650
1176.018, 70.93198
1176.500, 73.56709
1176.983, 75.46661
1177.465, 75.21249
1177.947, 72.58384
1178.429, 69.20754
1178.911, 65.64441
1179.393, 63.67341
1179.875, 64.91837
1180.357, 68.11284
1180.840, 73.46930
1181.322, 77.93613
1181.804, 72.28928
1182.286, 61.94226
1182.768, 59.25751
1183.250, 63.76531
1183.732, 68.20837
1184.214, 70.15350
1184.697, 71.05142
1185.179, 71.45844
1185.661, 71.37499
1186.143, 70.24350
1186.625, 69.24850
1187.107, 68.26320
1187.589, 68.52616
1188.071, 73.33253
1188.553, 80.67139
1189.036, 82.00184
1189.518, 75.83951
1190.000, 70.08622
1190.482, 63.17243
1190.964, 62.14017
1191.446, 70.20281
1191.928, 76.16550
1192.410, 74.28805
1192.892, 69.86237
1193.375, 68.71101
1193.857, 69.40130
1194.339, 66.80420
1194.821, 62.97112
1195.303, 68.53988
1195.785, 80.04018
1196.267, 82.64611
1196.749, 75.65556
1197.232, 69.89012
1197.714, 70.05793
1198.196, 72.14246
1198.678, 75.01288
1199.160, 76.33371
1199.642, 73.70682
1200.124, 69.58322
1200.606, 64.72336
1201.089, 60.64216
1201.571, 59.79732
1202.053, 61.62404
1202.535, 62.09587
1203.017, 59.07043
1203.499, 60.42606
1203.981, 70.44131
1204.463, 75.21952
1204.945, 70.86960
1205.427, 64.63525
1205.910, 59.59044
1206.392, 56.65721
1206.874, 57.36821
1207.356, 60.29578
1207.838, 60.36823
1208.320, 58.67391
1208.802, 61.16023
1209.284, 66.91483
1209.767, 71.71841
1210.249, 74.50933
1210.731, 74.74728
1211.213, 72.18070
1211.695, 70.06314
1212.177, 72.25743
1212.659, 74.10841
1213.141, 71.64911
1213.624, 68.02099
1214.106, 64.72993
1214.588, 62.75486
1215.070, 63.98944
1215.552, 67.60463
1216.034, 69.56821
1216.516, 69.26368
1216.998, 68.32420
1217.480, 65.73031
1217.963, 65.39334
1218.445, 68.95058
1218.927, 71.05733
1219.409, 68.87317
1219.891, 65.98289
1220.373, 66.12434
1220.855, 68.31214
1221.337, 70.80914
1221.819, 73.22524
1222.302, 74.49094
1222.784, 74.48235
1223.266, 72.25090
1223.748, 68.46587
1224.230, 66.01120
1224.712, 65.81233
1225.194, 65.37328
1225.676, 63.03447
1226.159, 60.37913
1226.641, 56.82400
1227.123, 54.86444
1227.605, 56.95815
1228.087, 60.72266
1228.569, 64.91443
1229.051, 68.28435
1229.533, 67.20639
1230.016, 61.13263
1230.498, 60.63943
1230.980, 67.24552
1231.462, 71.96671
1231.944, 74.11771
1232.426, 71.59766
1232.908, 63.52636
1233.390, 57.43404
1233.872, 59.39313
1234.354, 63.43342
1234.837, 59.75423
1235.319, 53.53175
1235.801, 52.58918
1236.283, 55.69731
1236.765, 63.56175
1237.247, 72.58465
1237.729, 74.61410
1238.211, 69.29704
1238.694, 66.03390
1239.176, 68.60339
1239.658, 70.99187
1240.140, 72.91149
1240.622, 72.83430
1241.104, 67.92104
1241.586, 65.01183
1242.068, 69.30985
1242.551, 75.20262
1243.033, 74.83772
1243.515, 70.38582
1243.997, 71.16500
1244.479, 76.32083
1244.961, 77.68570
1245.443, 75.35736
1245.925, 70.33690
1246.407, 63.92624
1246.890, 61.44200
1247.372, 64.99130
1247.854, 69.34008
1248.336, 70.94794
1248.818, 71.47113
1249.300, 71.73850
1249.782, 71.74892
1250.264, 70.48948
1250.746, 69.79231
1251.229, 72.97932
1251.711, 78.11524
1252.193, 79.27239
1252.675, 76.15408
1253.157, 74.32376
1253.639, 74.43049
1254.121, 72.31973
1254.603, 67.18394
1255.086, 64.66458
1255.568, 66.54641
1256.050, 69.82449
1256.532, 72.62530
1257.014, 74.02453
1257.496, 71.06453
1257.978, 67.63062
1258.460, 71.23589
1258.943, 76.71626
1259.425, 77.32150
1259.907, 74.14380
1260.389, 69.40233
1260.871, 64.06810
1261.353, 59.69635
1261.835, 55.74193
1262.317, 56.31272
1262.799, 66.98888
1263.281, 72.91619
1263.764, 70.77039
1264.246, 66.93867
1264.728, 63.42601
1265.210, 61.59028
1265.692, 62.83524
1266.174, 66.14500
1266.656, 70.78590
##END=



