##NAMES=Hausmannite
##RRUFFID=R110179
##IDEAL CHEMISTRY=Mn^2+^Mn^3+^_2_O_4_
##LOCALITY=Cumbria, England
##OWNER=RRUFF
##SOURCE=Smithsonian
##DESCRIPTION=Druse of sharp black octahedra
##STATUS=The identification of this mineral has been confirmed by single-crystal X-ray diffraction.
##URL=rruff.info/R110179
163.9210, 64.80082
164.4031, 64.87596
164.8853, 64.86634
165.3674, 64.73336
165.8495, 64.30872
166.3316, 63.41463
166.8137, 62.66246
167.2958, 62.80278
167.7780, 63.62188
168.2601, 64.36337
168.7422, 64.53587
169.2243, 64.30508
169.7064, 64.33578
170.1885, 64.76303
170.6707, 65.41092
171.1528, 66.27324
171.6349, 67.27463
172.1170, 68.13304
172.5991, 68.63451
173.0812, 68.77219
173.5634, 68.70631
174.0455, 68.60350
174.5276, 68.12222
175.0097, 66.77383
175.4918, 64.74348
175.9739, 62.81358
176.4561, 61.98948
176.9382, 62.77670
177.4203, 62.92672
177.9024, 61.63227
178.3845, 60.39848
178.8666, 60.27635
179.3488, 61.25648
179.8309, 62.40597
180.3130, 62.38294
180.7951, 60.33578
181.2772, 59.01681
181.7593, 58.65701
182.2415, 58.76564
182.7236, 59.14177
183.2057, 59.68882
183.6878, 60.20115
184.1699, 60.34435
184.6520, 59.79250
185.1342, 59.51354
185.6163, 60.00663
186.0984, 60.57726
186.5805, 60.30556
187.0626, 58.87453
187.5447, 57.08488
188.0269, 56.36120
188.5090, 56.90201
188.9911, 57.42578
189.4732, 57.71767
189.9553, 57.80280
190.4374, 57.66771
190.9196, 57.23320
191.4017, 56.73924
191.8838, 56.58978
192.3659, 56.81285
192.8480, 56.93262
193.3301, 56.54461
193.8123, 55.83026
194.2944, 55.49201
194.7765, 55.87751
195.2586, 56.50567
195.7407, 56.93672
196.2228, 57.17095
196.7050, 57.12812
197.1871, 56.57908
197.6692, 55.55569
198.1513, 54.78164
198.6334, 54.53284
199.1155, 54.48534
199.5977, 54.44571
200.0798, 54.39602
200.5619, 54.35651
201.0440, 54.36115
201.5261, 54.42333
202.0082, 54.44131
202.4904, 54.44843
202.9725, 54.37139
203.4546, 54.04873
203.9367, 53.51469
204.4188, 53.06484
204.9009, 53.16862
205.3831, 54.14555
205.8652, 54.68177
206.3473, 54.48932
206.8294, 54.07288
207.3115, 53.66917
207.7936, 53.33817
208.2758, 53.03212
208.7579, 52.65045
209.2400, 51.97981
209.7221, 51.74401
210.2042, 52.15887
210.6863, 52.77301
211.1685, 53.40562
211.6506, 53.96745
212.1327, 54.32180
212.6148, 54.23829
213.0969, 53.36113
213.5790, 52.78635
214.0612, 52.77524
214.5433, 52.88236
215.0254, 52.67213
215.5075, 52.06787
215.9896, 51.42633
216.4717, 51.26553
216.9539, 51.82174
217.4360, 52.36162
217.9181, 53.09720
218.4002, 53.70210
218.8823, 53.73232
219.3644, 53.07547
219.8466, 52.24372
220.3287, 51.96796
220.8108, 52.36021
221.2929, 52.64261
221.7750, 52.51973
222.2571, 52.30679
222.7393, 52.56989
223.2214, 53.52226
223.7035, 54.37347
224.1856, 53.78306
224.6677, 51.87333
225.1498, 50.47298
225.6320, 50.18093
226.1141, 50.65386
226.5962, 51.59903
227.0783, 53.27691
227.5604, 54.51418
228.0425, 53.57833
228.5247, 51.00373
229.0068, 48.90400
229.4889, 48.22385
229.9710, 48.58278
230.4531, 49.24749
230.9352, 50.34249
231.4174, 51.32590
231.8995, 51.79409
232.3816, 51.84381
232.8637, 51.68266
233.3458, 51.21428
233.8279, 50.59235
234.3101, 50.35291
234.7922, 50.70864
235.2743, 51.12400
235.7564, 51.32932
236.2385, 51.36512
236.7206, 51.29285
237.2028, 51.00988
237.6849, 50.63685
238.1670, 50.75368
238.6491, 51.80440
239.1312, 52.68456
239.6133, 52.96592
240.0955, 52.79867
240.5776, 52.40738
241.0597, 51.82353
241.5418, 51.14568
242.0239, 50.91461
242.5060, 51.66813
242.9882, 52.12569
243.4703, 51.78258
243.9524, 50.96417
244.4345, 50.09077
244.9166, 49.35057
245.3987, 48.80059
245.8809, 48.77144
246.3630, 49.96363
246.8451, 50.77364
247.3272, 50.47456
247.8093, 49.73397
248.2914, 49.50031
248.7736, 50.33044
249.2557, 51.86720
249.7378, 52.63844
250.2199, 51.90352
250.7020, 51.26489
251.1841, 50.88722
251.6663, 50.73238
252.1484, 50.82881
252.6305, 51.19884
253.1126, 51.66497
253.5947, 51.66489
254.0768, 50.69784
254.5590, 49.82764
255.0411, 48.94111
255.5232, 48.24945
256.0053, 48.05631
256.4874, 48.48813
256.9695, 49.28345
257.4517, 49.81047
257.9338, 49.87479
258.4159, 49.87026
258.8980, 49.73580
259.3801, 49.56144
259.8622, 49.46568
260.3444, 49.48643
260.8265, 49.52563
261.3086, 49.39096
261.7907, 48.83524
262.2728, 48.49996
262.7549, 48.75032
263.2371, 49.04962
263.7192, 48.64880
264.2013, 47.38063
264.6834, 46.05143
265.1655, 45.92512
265.6476, 47.74298
266.1298, 49.02776
266.6119, 49.38220
267.0940, 49.38311
267.5761, 49.59336
268.0582, 50.11814
268.5403, 50.62682
269.0225, 50.71335
269.5046, 50.25573
269.9867, 49.86523
270.4688, 49.34111
270.9509, 49.02319
271.4330, 49.37057
271.9152, 50.39622
272.3973, 51.44921
272.8794, 51.83093
273.3615, 51.48484
273.8436, 51.59200
274.3257, 52.60834
274.8079, 53.77662
275.2900, 54.48963
275.7721, 54.72981
276.2542, 54.80084
276.7363, 54.80430
277.2184, 54.82728
277.7006, 55.30842
278.1827, 56.62032
278.6648, 58.09272
279.1469, 59.17513
279.6290, 59.92210
280.1111, 60.85115
280.5933, 62.31571
281.0754, 64.20216
281.5575, 65.98804
282.0396, 67.29256
282.5217, 68.94589
283.0038, 71.54781
283.4860, 74.98877
283.9681, 78.73819
284.4502, 82.62936
284.9323, 86.64520
285.4144, 90.76272
285.8965, 95.07426
286.3787, 99.26212
286.8608, 103.3122
287.3429, 107.1252
287.8250, 110.4880
288.3071, 113.5411
288.7892, 115.7439
289.2714, 116.5087
289.7535, 115.8887
290.2356, 114.0807
290.7177, 110.7568
291.1998, 106.3006
291.6819, 101.6063
292.1641, 96.72549
292.6462, 91.91610
293.1283, 87.30961
293.6104, 82.91145
294.0925, 79.05606
294.5746, 75.92818
295.0568, 73.43966
295.5389, 71.55756
296.0210, 70.46033
296.5031, 69.43178
296.9852, 67.76715
297.4673, 65.66241
297.9495, 63.59518
298.4316, 61.45986
298.9137, 59.55629
299.3958, 58.40339
299.8779, 58.09381
300.3600, 58.14458
300.8422, 58.57592
301.3243, 59.10845
301.8064, 59.20601
302.2885, 58.49665
302.7706, 57.55285
303.2527, 56.95345
303.7349, 56.69756
304.2170, 56.78619
304.6991, 57.48125
305.1812, 58.40905
305.6633, 59.05989
306.1454, 59.32261
306.6276, 59.42299
307.1097, 59.32137
307.5918, 59.05998
308.0739, 59.47146
308.5560, 61.28282
309.0381, 63.50139
309.5203, 64.92186
310.0024, 65.44918
310.4845, 65.92931
310.9666, 66.87829
311.4487, 68.24987
311.9308, 69.83733
312.4130, 71.65857
312.8951, 73.60381
313.3772, 75.60184
313.8593, 77.63999
314.3414, 79.56543
314.8235, 81.06371
315.3057, 82.40421
315.7878, 84.40447
316.2699, 87.35573
316.7520, 90.40812
317.2341, 93.19413
317.7162, 95.61941
318.1984, 97.36916
318.6805, 98.25481
319.1626, 98.42551
319.6447, 97.93410
320.1268, 96.64033
320.6089, 95.40829
321.0911, 95.45655
321.5732, 95.64098
322.0553, 94.15582
322.5374, 89.97717
323.0195, 85.11313
323.5016, 81.77140
323.9838, 79.94496
324.4659, 77.90096
324.9480, 74.61870
325.4301, 71.06918
325.9122, 68.49345
326.3943, 67.05549
326.8765, 65.94730
327.3586, 64.64719
327.8407, 63.18525
328.3228, 61.72706
328.8049, 60.20556
329.2870, 58.86116
329.7692, 57.95959
330.2513, 57.46888
330.7334, 57.08030
331.2155, 56.71558
331.6976, 56.34297
332.1797, 55.84310
332.6619, 55.13105
333.1440, 54.49684
333.6261, 54.32013
334.1082, 54.41781
334.5903, 54.34928
335.0724, 53.68287
335.5546, 52.93082
336.0367, 52.90430
336.5188, 53.68578
337.0009, 54.33369
337.4830, 54.19084
337.9651, 53.58462
338.4473, 53.13262
338.9294, 52.91752
339.4115, 52.83997
339.8936, 52.83713
340.3757, 52.90899
340.8578, 53.09536
341.3400, 53.56392
341.8221, 53.98550
342.3042, 53.78060
342.7863, 52.80260
343.2684, 52.03630
343.7505, 52.01633
344.2327, 52.56096
344.7148, 53.30597
345.1969, 54.25808
345.6790, 55.17146
346.1611, 55.74998
346.6432, 56.04131
347.1254, 56.17105
347.6075, 55.81871
348.0896, 55.49237
348.5717, 56.03532
349.0538, 57.55634
349.5359, 58.92562
350.0181, 59.14153
350.5002, 58.48120
350.9823, 58.30901
351.4644, 59.00419
351.9465, 59.94446
352.4286, 60.73456
352.9108, 61.40892
353.3929, 62.14007
353.8750, 62.98009
354.3571, 63.95980
354.8392, 65.16541
355.3214, 66.67976
355.8035, 68.18883
356.2856, 69.51911
356.7677, 70.77529
357.2498, 72.07185
357.7319, 73.40749
358.2141, 74.98882
358.6962, 77.17919
359.1783, 80.04369
359.6604, 83.08727
360.1425, 86.53319
360.6246, 89.98030
361.1068, 92.93410
361.5889, 95.40808
362.0710, 97.85863
362.5531, 100.6344
363.0352, 103.7650
363.5173, 107.1343
363.9995, 111.5006
364.4816, 115.3593
364.9637, 117.5215
365.4458, 118.5612
365.9279, 120.0318
366.4100, 122.8004
366.8922, 126.3965
367.3743, 129.2427
367.8564, 130.9450
368.3385, 132.5220
368.8206, 133.9991
369.3027, 135.4610
369.7849, 137.2244
370.2670, 139.3233
370.7491, 141.0833
371.2312, 141.5226
371.7133, 140.1814
372.1954, 138.7511
372.6776, 137.2372
373.1597, 135.6457
373.6418, 134.1751
374.1239, 132.6826
374.6060, 130.7167
375.0881, 127.9011
375.5703, 124.2505
376.0524, 119.9855
376.5345, 114.5426
377.0166, 109.1248
377.4987, 103.6215
377.9808, 98.39002
378.4630, 94.06828
378.9451, 90.95782
379.4272, 88.43825
379.9093, 84.96496
380.3914, 79.32858
380.8735, 74.75655
381.3557, 71.81251
381.8378, 69.52964
382.3199, 67.19988
382.8020, 64.71046
383.2841, 62.40411
383.7662, 60.75622
384.2484, 59.90646
384.7305, 58.68809
385.2126, 56.46708
385.6947, 54.47472
386.1768, 53.23467
386.6589, 52.51808
387.1411, 51.79840
387.6232, 50.72601
388.1053, 49.46366
388.5874, 48.63752
389.0695, 48.51573
389.5516, 48.33573
390.0338, 47.86259
390.5159, 47.29049
390.9980, 46.84576
391.4801, 46.58596
391.9622, 46.27346
392.4443, 45.48800
392.9265, 44.14274
393.4086, 43.19036
393.8907, 43.09376
394.3728, 43.10918
394.8549, 42.78025
395.3370, 42.17309
395.8192, 41.61584
396.3013, 41.35854
396.7834, 41.30987
397.2655, 41.18985
397.7476, 41.01794
398.2297, 40.72339
398.7119, 39.95339
399.1940, 39.13226
399.6761, 38.93595
400.1582, 39.79305
400.6403, 40.73555
401.1224, 40.57499
401.6046, 39.39241
402.0867, 38.63967
402.5688, 38.99464
403.0509, 39.69261
403.5330, 39.83270
404.0151, 39.41429
404.4973, 38.82518
404.9794, 37.97998
405.4615, 37.14502
405.9436, 36.90215
406.4257, 37.38597
406.9078, 37.90931
407.3900, 37.83992
407.8721, 37.30890
408.3542, 37.04036
408.8363, 37.30889
409.3184, 37.65068
409.8005, 37.87886
410.2827, 37.95372
410.7648, 37.63214
411.2469, 36.66534
411.7290, 35.52557
412.2111, 35.45019
412.6932, 37.07491
413.1754, 38.01783
413.6575, 37.28284
414.1396, 35.98603
414.6217, 35.31062
415.1038, 35.44544
415.5859, 35.83158
416.0681, 35.93545
416.5502, 35.73114
417.0323, 35.48815
417.5144, 35.16840
417.9965, 34.85631
418.4786, 34.55066
418.9608, 34.28205
419.4429, 34.05604
419.9250, 33.86581
420.4071, 33.80919
420.8892, 34.20260
421.3713, 35.85027
421.8535, 36.69303
422.3356, 36.14286
422.8177, 35.20083
423.2998, 34.54449
423.7819, 34.30798
424.2640, 34.34120
424.7462, 34.56304
425.2283, 35.01040
425.7104, 35.09764
426.1925, 34.26609
426.6746, 33.67573
427.1567, 33.77844
427.6389, 34.30858
428.1210, 34.89553
428.6031, 35.39918
429.0852, 35.72348
429.5673, 35.56435
430.0494, 34.70868
430.5316, 34.13875
431.0137, 34.35791
431.4958, 34.76210
431.9779, 35.01200
432.4600, 35.07494
432.9421, 35.05938
433.4243, 34.99858
433.9064, 34.91708
434.3885, 34.96649
434.8706, 35.26646
435.3527, 35.43292
435.8348, 35.08522
436.3170, 34.46022
436.7991, 33.92096
437.2812, 33.49242
437.7633, 33.26828
438.2454, 33.36872
438.7275, 33.77036
439.2097, 34.34380
439.6918, 35.12424
440.1739, 35.93620
440.6560, 36.60027
441.1381, 37.17694
441.6202, 37.29191
442.1024, 36.47534
442.5845, 35.34249
443.0666, 34.52125
443.5487, 34.08352
444.0308, 33.98332
444.5129, 34.26526
444.9951, 34.87268
445.4772, 35.26134
445.9593, 35.42913
446.4414, 35.41793
446.9235, 35.21305
447.4056, 34.84404
447.8878, 34.20018
448.3699, 33.26100
448.8520, 32.48453
449.3341, 32.64779
449.8162, 34.30988
450.2983, 35.32341
450.7805, 35.20021
451.2626, 34.98070
451.7447, 35.25113
452.2268, 35.89477
452.7089, 36.49020
453.1910, 36.76495
453.6732, 36.75191
454.1553, 36.54055
454.6374, 35.81124
455.1195, 35.44688
455.6016, 35.83178
456.0837, 36.42899
456.5659, 36.84976
457.0480, 37.00206
457.5301, 36.92292
458.0122, 36.37740
458.4943, 35.38907
458.9764, 35.40681
459.4586, 37.19178
459.9407, 38.91945
460.4228, 39.49461
460.9049, 39.39063
461.3870, 39.48005
461.8691, 40.21753
462.3513, 41.02021
462.8334, 40.93197
463.3155, 40.00668
463.7976, 39.72591
464.2797, 40.86850
464.7618, 42.47453
465.2440, 43.30070
465.7261, 43.34720
466.2082, 43.36734
466.6903, 43.35081
467.1724, 43.58412
467.6545, 44.61251
468.1367, 46.41820
468.6188, 48.17167
469.1009, 49.29161
469.5830, 49.90369
470.0651, 50.68478
470.5472, 51.83570
471.0294, 52.87125
471.5115, 53.69407
471.9936, 54.32255
472.4757, 54.65523
472.9578, 54.70361
473.4399, 54.85824
473.9221, 55.65070
474.4042, 57.27518
474.8863, 58.39817
475.3684, 58.83895
475.8505, 59.04636
476.3326, 59.15213
476.8148, 59.14225
477.2969, 58.93202
477.7790, 58.47613
478.2611, 57.89614
478.7432, 57.50781
479.2253, 57.50494
479.7075, 57.14244
480.1896, 56.05349
480.6717, 54.82118
481.1538, 53.67010
481.6359, 52.64804
482.1180, 51.78813
482.6002, 51.19848
483.0823, 50.76311
483.5644, 50.12761
484.0465, 49.25127
484.5286, 48.33368
485.0107, 47.46701
485.4929, 46.60240
485.9750, 45.64044
486.4571, 44.53975
486.9392, 43.54044
487.4213, 42.81213
487.9034, 42.28632
488.3856, 41.83192
488.8677, 41.42974
489.3498, 41.06069
489.8319, 40.71688
490.3140, 40.39620
490.7961, 40.07366
491.2783, 39.85048
491.7604, 39.51612
492.2425, 38.92758
492.7246, 38.16755
493.2067, 37.25092
493.6888, 36.18392
494.1710, 35.37175
494.6531, 35.53797
495.1352, 37.20826
495.6173, 38.19456
496.0994, 38.12117
496.5815, 37.83524
497.0637, 37.70971
497.5458, 37.69621
498.0279, 37.65126
498.5100, 37.51461
498.9921, 37.18663
499.4742, 36.26417
499.9564, 34.22954
500.4385, 32.93447
500.9206, 33.06562
501.4027, 33.66424
501.8848, 34.46474
502.3669, 35.29046
502.8491, 35.64771
503.3312, 34.82594
503.8133, 33.37624
504.2954, 32.93937
504.7775, 33.75356
505.2596, 34.45335
505.7418, 34.26659
506.2239, 33.67849
506.7060, 33.34886
507.1881, 33.30725
507.6702, 33.54427
508.1523, 34.51782
508.6345, 35.61835
509.1166, 35.58548
509.5987, 34.22922
510.0808, 32.89869
510.5629, 32.78556
511.0450, 33.75023
511.5272, 34.08025
512.0093, 32.94817
512.4914, 32.25189
512.9735, 33.11096
513.4556, 34.49107
513.9377, 34.86597
514.4199, 33.89117
514.9020, 32.63810
515.3841, 32.55178
515.8662, 33.91839
516.3483, 34.48065
516.8304, 33.41646
517.3126, 32.39704
517.7947, 31.83236
518.2768, 31.62107
518.7589, 31.61489
519.2410, 31.76447
519.7231, 31.95867
520.2053, 31.97969
520.6874, 31.79964
521.1695, 31.89360
521.6516, 32.60205
522.1337, 33.23620
522.6158, 33.26252
523.0980, 32.84915
523.5801, 32.47400
524.0622, 32.31797
524.5443, 32.25959
525.0264, 32.22538
525.5085, 32.19683
525.9907, 32.03993
526.4728, 31.66404
526.9549, 31.23457
527.4370, 30.98011
527.9191, 30.89621
528.4012, 30.98178
528.8834, 31.29845
529.3655, 31.73248
529.8476, 32.29801
530.3297, 32.92053
530.8118, 33.46989
531.2939, 33.89503
531.7761, 34.08771
532.2582, 33.70715
532.7403, 32.07735
533.2224, 31.13502
533.7045, 31.05675
534.1866, 31.44842
534.6688, 32.31518
535.1509, 33.46299
535.6330, 34.49149
536.1151, 35.17149
536.5972, 35.51340
537.0793, 35.51641
537.5615, 35.13049
538.0436, 34.59881
538.5257, 33.67561
539.0078, 32.89296
539.4899, 32.83085
539.9720, 33.46380
540.4542, 34.04182
540.9363, 34.08297
541.4184, 33.91291
541.9005, 34.17790
542.3826, 34.84986
542.8647, 34.94073
543.3469, 33.67974
543.8290, 31.76893
544.3111, 31.10935
544.7932, 32.25163
545.2753, 33.14231
545.7574, 33.38207
546.2396, 33.34143
546.7217, 33.24287
547.2038, 33.15552
547.6859, 33.16468
548.1680, 33.34194
548.6501, 33.64022
549.1323, 33.85018
549.6144, 33.92947
550.0965, 33.98778
550.5786, 33.96167
551.0607, 33.97945
551.5428, 34.21462
552.0250, 34.61969
552.5071, 34.90606
552.9892, 34.74091
553.4713, 34.34320
553.9534, 34.38100
554.4355, 34.92279
554.9177, 35.58517
555.3998, 36.45556
555.8819, 37.18412
556.3640, 37.26183
556.8461, 36.59898
557.3282, 35.96196
557.8104, 35.56732
558.2925, 35.39933
558.7746, 35.47933
559.2567, 35.78924
559.7388, 36.23281
560.2209, 36.78213
560.7031, 37.38245
561.1852, 37.86295
561.6673, 38.39819
562.1494, 38.54620
562.6315, 37.89824
563.1136, 37.17628
563.5958, 36.94167
564.0779, 37.14508
564.5600, 37.39734
565.0421, 37.42625
565.5242, 37.29606
566.0063, 37.17176
566.4885, 36.94649
566.9706, 37.04245
567.4527, 38.10760
567.9348, 39.11513
568.4169, 39.21889
568.8990, 38.49730
569.3812, 37.81254
569.8633, 37.60694
570.3454, 37.70651
570.8275, 37.98037
571.3096, 38.40077
571.7917, 38.59868
572.2739, 38.36476
572.7560, 37.91454
573.2381, 37.63168
573.7202, 37.55686
574.2023, 37.47070
574.6844, 37.11036
575.1666, 36.94274
575.6487, 37.60762
576.1308, 38.73493
576.6129, 39.25507
577.0950, 38.57872
577.5771, 37.37492
578.0593, 37.25922
578.5414, 38.94612
579.0235, 39.76392
579.5056, 38.73037
579.9877, 37.58965
580.4698, 37.07853
580.9520, 37.07618
581.4341, 37.19220
581.9162, 37.28220
582.3983, 37.35371
582.8804, 37.54284
583.3625, 37.80165
583.8447, 37.49899
584.3268, 36.25526
584.8089, 34.94988
585.2910, 34.61235
585.7731, 35.13762
586.2552, 35.43398
586.7374, 35.17051
587.2195, 34.90527
587.7016, 34.80092
588.1837, 34.92462
588.6658, 35.50788
589.1479, 36.58699
589.6301, 37.68985
590.1122, 38.21701
590.5943, 38.10109
591.0764, 38.04366
591.5585, 38.15725
592.0406, 38.19559
592.5228, 37.95729
593.0049, 37.68064
593.4870, 37.68818
593.9691, 38.05513
594.4512, 38.47970
594.9333, 38.75525
595.4155, 38.86146
595.8976, 38.62336
596.3797, 37.93110
596.8618, 37.34557
597.3439, 37.20508
597.8260, 37.40401
598.3082, 37.66732
598.7903, 38.08443
599.2724, 38.34087
599.7545, 38.14960
600.2366, 37.86294
600.7188, 37.83366
601.2009, 38.09277
601.6830, 38.55107
602.1651, 39.17459
602.6472, 39.89102
603.1293, 40.42761
603.6115, 40.69293
604.0936, 40.94095
604.5757, 41.20081
605.0578, 41.43974
605.5399, 41.70017
606.0220, 41.92718
606.5042, 41.92276
606.9863, 41.39066
607.4684, 40.85052
607.9505, 41.37931
608.4326, 42.94098
608.9147, 43.98915
609.3969, 43.96082
609.8790, 43.59259
610.3611, 43.69501
610.8432, 44.22214
611.3253, 44.60427
611.8074, 44.50721
612.2896, 44.53864
612.7717, 45.17681
613.2538, 46.11531
613.7359, 46.76576
614.2180, 46.97618
614.7001, 47.17971
615.1823, 48.00031
615.6644, 49.51047
616.1465, 50.07476
616.6286, 48.63462
617.1107, 47.70419
617.5928, 48.14118
618.0750, 49.23626
618.5571, 50.43917
619.0392, 51.60613
619.5213, 52.40417
620.0034, 52.12266
620.4855, 51.40273
620.9677, 51.93561
621.4498, 53.83627
621.9319, 55.40004
622.4140, 55.61589
622.8961, 55.17168
623.3782, 55.65472
623.8604, 57.56311
624.3425, 58.70894
624.8246, 57.90742
625.3067, 57.09583
625.7888, 57.78923
626.2709, 59.54837
626.7531, 61.05432
627.2352, 61.64556
627.7173, 61.87904
628.1994, 62.84426
628.6815, 64.74596
629.1636, 66.22849
629.6458, 66.80634
630.1279, 67.48627
630.6100, 69.00705
631.0921, 70.90654
631.5742, 72.21924
632.0563, 72.37761
632.5385, 72.92266
633.0206, 75.48286
633.5027, 79.08105
633.9848, 81.66525
634.4669, 82.95551
634.9490, 84.16669
635.4312, 86.21033
635.9133, 88.88562
636.3954, 91.26866
636.8775, 92.81194
637.3596, 94.78596
637.8417, 97.34061
638.3239, 100.2373
638.8060, 103.3667
639.2881, 106.6899
639.7702, 110.1275
640.2523, 113.5942
640.7344, 117.2462
641.2166, 121.2863
641.6987, 125.7217
642.1808, 130.7996
642.6629, 136.8810
643.1450, 143.1546
643.6271, 148.5912
644.1093, 153.5637
644.5914, 159.4487
645.0735, 166.3990
645.5556, 174.2998
646.0377, 183.3186
646.5198, 193.1679
647.0020, 203.2893
647.4841, 213.5996
647.9662, 224.6162
648.4483, 236.7722
648.9304, 249.9978
649.4125, 264.3779
649.8947, 279.6546
650.3768, 296.4608
650.8589, 315.1596
651.3410, 335.0580
651.8231, 355.5486
652.3052, 376.7347
652.7874, 399.4412
653.2695, 424.1924
653.7516, 450.5570
654.2337, 478.3499
654.7158, 507.2811
655.1979, 536.3331
655.6801, 565.4151
656.1622, 593.4199
656.6443, 619.6970
657.1264, 644.3259
657.6085, 664.1352
658.0906, 679.7253
658.5728, 690.5077
659.0549, 697.1074
659.5370, 698.4927
660.0191, 693.5235
660.5012, 682.1386
660.9833, 665.2293
661.4655, 642.7943
661.9476, 615.7728
662.4297, 587.2979
662.9118, 557.2940
663.3939, 526.6788
663.8760, 495.2207
664.3582, 464.0761
664.8403, 434.7062
665.3224, 407.0047
665.8045, 380.6022
666.2866, 355.1347
666.7687, 331.2682
667.2509, 309.5399
667.7330, 289.7211
668.2151, 271.5399
668.6972, 254.8463
669.1793, 239.5296
669.6614, 225.3613
670.1436, 212.3161
670.6257, 199.9736
671.1078, 188.0929
671.5899, 177.3478
672.0720, 168.1331
672.5541, 159.9043
673.0363, 152.3178
673.5184, 145.3370
674.0005, 138.8047
674.4826, 132.5561
674.9647, 126.7283
675.4468, 121.4400
675.9290, 116.6658
676.4111, 112.4621
676.8932, 108.8654
677.3753, 105.2984
677.8574, 100.9501
678.3395, 95.73470
678.8217, 91.98508
679.3038, 90.98582
679.7859, 89.86206
680.2680, 88.34181
680.7501, 86.37331
681.2322, 83.65247
681.7144, 80.33611
682.1965, 77.27809
682.6786, 75.12713
683.1607, 73.54134
683.6428, 72.01880
684.1249, 70.56438
684.6071, 69.30901
685.0892, 68.32743
685.5713, 67.39239
686.0534, 66.17652
686.5355, 64.64682
687.0176, 63.55622
687.4998, 63.48096
687.9819, 63.08438
688.4640, 61.74713
688.9461, 60.10862
689.4282, 58.77140
689.9103, 57.83190
690.3925, 57.08711
690.8746, 56.46029
691.3567, 55.85429
691.8388, 54.95897
692.3209, 53.75519
692.8030, 52.74366
693.2852, 52.00570
693.7673, 51.60292
694.2494, 51.79959
694.7315, 52.52842
695.2136, 52.73939
695.6957, 52.18549
696.1779, 51.36273
696.6600, 50.17413
697.1421, 48.96280
697.6242, 48.11327
698.1063, 47.66028
698.5884, 47.38592
699.0706, 47.12426
699.5527, 46.92284
700.0348, 47.01656
700.5169, 47.50830
700.9990, 47.59785
701.4811, 46.94975
701.9633, 46.11253
702.4454, 45.50757
702.9275, 45.08996
703.4096, 44.71404
703.8917, 44.33221
704.3738, 44.02900
704.8560, 43.68567
705.3381, 43.52462
705.8202, 44.04873
706.3023, 45.11891
706.7844, 45.86583
707.2665, 45.65627
707.7487, 44.84825
708.2308, 44.44886
708.7129, 44.58284
709.1950, 44.51986
709.6771, 43.95447
710.1592, 43.47118
710.6414, 43.66816
711.1235, 44.18129
711.6056, 44.17418
712.0877, 43.23993
712.5698, 42.41608
713.0519, 42.22260
713.5341, 42.40642
714.0162, 42.79190
714.4983, 43.28448
714.9804, 43.67289
715.4625, 43.83413
715.9446, 43.85090
716.4268, 43.91715
716.9089, 44.08026
717.3910, 44.06837
717.8731, 43.71448
718.3552, 43.40350
718.8373, 43.35389
719.3195, 43.43847
719.8016, 43.47373
720.2837, 43.42257
720.7658, 43.38712
721.2479, 43.41510
721.7300, 43.48381
722.2122, 43.72573
722.6943, 44.00261
723.1764, 43.74646
723.6585, 42.69920
724.1406, 41.51933
724.6227, 41.25671
725.1049, 42.01474
725.5870, 42.72892
726.0691, 43.64179
726.5512, 44.10175
727.0333, 43.37809
727.5154, 42.42192
727.9976, 42.33352
728.4797, 43.17869
728.9618, 43.76314
729.4439, 43.20893
729.9260, 42.50314
730.4081, 42.73545
730.8903, 43.50378
731.3724, 43.73320
731.8545, 43.13542
732.3366, 42.36446
732.8187, 42.12797
733.3008, 42.36828
733.7830, 42.35324
734.2651, 41.88837
734.7472, 41.58941
735.2293, 41.70006
735.7114, 41.93758
736.1935, 42.17030
736.6757, 42.36918
737.1578, 42.44373
737.6399, 42.20624
738.1220, 42.04597
738.6041, 42.46119
739.0862, 43.02692
739.5684, 42.94517
740.0505, 42.18758
740.5326, 41.44240
741.0147, 41.21917
741.4968, 41.33511
741.9789, 41.19527
742.4611, 40.66191
742.9432, 40.38596
743.4253, 40.53171
743.9074, 40.82088
744.3895, 41.25046
744.8716, 41.66775
745.3538, 41.74718
745.8359, 41.33108
746.3180, 40.93154
746.8001, 40.83356
747.2822, 40.82663
747.7643, 40.52300
748.2465, 40.10272
748.7286, 40.30815
749.2107, 41.47836
749.6928, 42.78931
750.1749, 42.87519
750.6570, 41.65500
751.1392, 40.94261
751.6213, 40.92579
752.1034, 40.98491
752.5855, 40.96264
753.0676, 40.83132
753.5497, 40.45364
754.0319, 39.81437
754.5140, 39.52266
754.9961, 40.16101
755.4782, 40.73074
755.9603, 40.39794
756.4424, 39.69533
756.9246, 39.56097
757.4067, 40.11866
757.8888, 40.64404
758.3709, 40.48065
758.8530, 39.84686
759.3351, 39.48279
759.8173, 39.41648
760.2994, 39.39597
760.7815, 39.40601
761.2636, 39.38478
761.7457, 39.25747
762.2278, 39.04986
762.7100, 38.88813
763.1921, 38.76611
763.6742, 38.70498
764.1563, 38.63031
764.6384, 38.68401
765.1205, 39.24168
765.6027, 40.01568
766.0848, 40.15498
766.5669, 39.22866
767.0490, 38.13855
767.5311, 38.33545
768.0132, 39.49645
768.4954, 39.70593
768.9775, 38.74582
769.4596, 37.68138
769.9417, 36.87730
770.4238, 36.47241
770.9059, 36.84614
771.3881, 38.38045
771.8702, 39.12196
772.3523, 38.50014
772.8344, 37.79779
773.3165, 37.51387
773.7986, 37.34631
774.2808, 36.78321
774.7629, 35.85672
775.2450, 35.26759
775.7271, 35.61846
776.2092, 36.44548
776.6913, 37.16610
777.1735, 37.77364
777.6556, 38.25694
778.1377, 38.61885
778.6198, 38.72701
779.1019, 38.40261
779.5840, 37.77582
780.0662, 37.54208
780.5483, 38.06176
781.0304, 38.28851
781.5125, 37.90444
781.9946, 37.47736
782.4767, 37.30664
782.9589, 37.28306
783.4410, 37.13398
783.9231, 36.73122
784.4052, 36.51801
784.8873, 37.21009
785.3694, 37.93837
785.8516, 37.34383
786.3337, 35.77774
786.8158, 34.61092
787.2979, 34.39245
787.7800, 34.75000
788.2621, 35.29863
788.7443, 36.01941
789.2264, 36.33299
789.7085, 36.00252
790.1906, 35.94006
790.6727, 36.63110
791.1548, 37.48578
791.6370, 38.03604
792.1191, 38.27082
792.6012, 38.04035
793.0833, 36.74315
793.5654, 35.69822
794.0475, 35.34120
794.5297, 35.52186
795.0118, 36.46919
795.4939, 37.83918
795.9760, 38.56729
796.4581, 38.00258
796.9402, 36.96128
797.4224, 36.65626
797.9045, 36.98957
798.3866, 37.41499
798.8687, 37.93559
799.3508, 38.04980
799.8329, 37.34721
800.3151, 36.32868
800.7972, 35.95228
801.2793, 36.42694
801.7614, 36.72046
802.2435, 36.93796
802.7256, 36.86706
803.2078, 35.91513
803.6899, 34.98824
804.1720, 35.23733
804.6541, 36.59665
805.1362, 37.76942
805.6183, 38.07044
806.1005, 37.86413
806.5826, 37.28099
807.0647, 36.52952
807.5468, 36.14591
808.0289, 36.18426
808.5110, 36.15144
808.9932, 35.63141
809.4753, 35.02215
809.9574, 35.62144
810.4395, 37.98564
810.9216, 38.97492
811.4037, 37.68645
811.8859, 36.25509
812.3680, 35.58203
812.8501, 35.48582
813.3322, 35.83820
813.8143, 36.72508
814.2964, 37.38675
814.7786, 37.73598
815.2607, 37.72412
815.7428, 37.02584
816.2249, 36.08855
816.7070, 35.52507
817.1891, 35.43958
817.6713, 35.54956
818.1534, 35.64220
818.6355, 35.79732
819.1176, 36.27130
819.5997, 36.99995
820.0818, 37.43323
820.5640, 37.44573
821.0461, 37.45231
821.5282, 37.82745
822.0103, 37.38527
822.4924, 38.10809
822.9745, 36.68295
823.4567, 35.71194
823.9388, 35.36709
824.4209, 35.27084
824.9030, 35.45935
825.3851, 35.73337
825.8672, 35.77248
826.3494, 35.54350
826.8315, 35.54203
827.3136, 36.34066
827.7957, 37.13811
828.2778, 37.24104
828.7599, 36.85710
829.2421, 36.17813
829.7242, 35.36982
830.2063, 35.02535
830.6884, 35.67796
831.1705, 36.87359
831.6526, 37.50934
832.1348, 37.57121
832.6169, 37.40397
833.0990, 36.99415
833.5811, 36.50179
834.0632, 35.90657
834.5453, 35.37370
835.0275, 35.30890
835.5096, 35.95555
835.9917, 36.34584
836.4738, 36.16850
836.9559, 36.09584
837.4380, 36.69228
837.9202, 37.32855
838.4023, 37.13598
838.8844, 36.14037
839.3665, 35.31530
839.8486, 35.17016
840.3307, 35.43826
840.8129, 36.13874
841.2950, 36.96338
841.7771, 37.22587
842.2592, 36.88657
842.7413, 36.39307
843.2234, 36.01062
843.7056, 35.75990
844.1877, 35.74529
844.6698, 36.00186
845.1519, 36.01644
845.6340, 35.64214
846.1161, 35.42241
846.5983, 35.74517
847.0804, 36.18714
847.5625, 36.06255
848.0446, 35.31976
848.5267, 34.90730
849.0089, 35.20164
849.4910, 35.39389
849.9731, 35.09306
850.4552, 34.72244
850.9373, 34.75343
851.4194, 35.07391
851.9016, 35.18256
852.3837, 34.80687
852.8658, 34.36424
853.3479, 34.27503
853.8300, 34.35848
854.3121, 34.23723
854.7943, 33.95655
855.2764, 33.90387
855.7585, 34.24912
856.2406, 34.67567
856.7227, 34.74472
857.2048, 34.49284
857.6870, 34.45105
858.1691, 34.72404
858.6512, 34.76658
859.1333, 34.30940
859.6154, 33.79911
860.0975, 33.67836
860.5797, 33.85645
861.0618, 33.80008
861.5439, 33.10659
862.0260, 32.85542
862.5081, 33.65899
862.9902, 34.43076
863.4724, 34.32044
863.9545, 33.81689
864.4366, 33.86374
864.9187, 34.67331
865.4008, 35.36000
865.8829, 35.22754
866.3651, 34.75764
866.8472, 34.50399
867.3293, 34.35939
867.8114, 33.95247
868.2935, 33.25441
868.7756, 32.72794
869.2578, 32.76265
869.7399, 33.08872
870.2220, 32.98226
870.7041, 32.41355
871.1862, 32.01841
871.6683, 31.80961
872.1505, 31.96940
872.6326, 32.81522
873.1147, 33.82481
873.5968, 34.03357
874.0789, 33.19060
874.5610, 32.90461
875.0432, 33.88390
875.5253, 34.46380
876.0074, 34.01628
876.4895, 33.22438
876.9716, 32.55545
877.4537, 32.06713
877.9359, 31.74696
878.4180, 31.65435
878.9001, 31.56768
879.3822, 31.36172
879.8643, 31.08102
880.3464, 30.51614
880.8286, 29.94409
881.3107, 30.34323
881.7928, 31.96778
882.2749, 33.30455
882.7570, 32.29868
883.2391, 29.91753
883.7213, 29.49292
884.2034, 30.88373
884.6855, 31.67522
885.1676, 31.27164
885.6497, 30.41790
886.1318, 29.56177
886.6140, 28.85446
887.0961, 28.89762
887.5782, 30.24716
888.0603, 30.90125
888.5424, 30.41538
889.0245, 29.83083
889.5067, 29.44885
889.9888, 29.25674
890.4709, 29.25445
890.9530, 29.44053
891.4351, 29.75827
891.9172, 30.61148
892.3994, 31.07809
892.8815, 30.42360
893.3636, 29.48016
893.8457, 29.07817
894.3278, 29.14142
894.8099, 29.15610
895.2921, 28.89869
895.7742, 28.59155
896.2563, 28.43231
896.7384, 28.37012
897.2205, 28.31710
897.7026, 28.28144
898.1848, 28.42264
898.6669, 28.76525
899.1490, 28.79408
899.6311, 27.90899
900.1132, 26.43795
900.5953, 25.61334
901.0775, 25.46216
901.5596, 25.73856
902.0417, 26.58570
902.5238, 27.26486
903.0059, 27.24688
903.4880, 26.87558
903.9702, 26.89410
904.4523, 27.49356
904.9344, 27.70928
905.4165, 27.26984
905.8986, 26.79795
906.3807, 26.30453
906.8629, 25.93025
907.3450, 25.85889
907.8271, 26.02375
908.3092, 26.12705
908.7913, 25.98794
909.2734, 25.99634
909.7556, 26.50178
910.2377, 27.07795
910.7198, 27.48961
911.2019, 27.63208
911.6840, 27.24831
912.1661, 26.32272
912.6483, 25.43684
913.1304, 25.03961
913.6125, 25.00690
914.0946, 25.25784
914.5767, 25.70168
915.0588, 26.08023
915.5410, 26.33877
916.0231, 26.41689
916.5052, 26.26080
916.9873, 25.99473
917.4694, 25.86164
917.9515, 25.86674
918.4337, 25.86607
918.9158, 25.87115
919.3979, 25.79533
919.8800, 25.54941
920.3621, 25.33204
920.8442, 25.36801
921.3264, 25.63416
921.8085, 25.88751
922.2906, 26.25144
922.7727, 26.39914
923.2548, 26.19206
923.7369, 25.91208
924.2191, 25.66759
924.7012, 25.44379
925.1833, 25.12067
925.6654, 24.66505
926.1475, 24.63092
926.6296, 25.78016
927.1118, 26.68744
927.5939, 26.43184
928.0760, 25.70162
928.5581, 25.22329
929.0402, 25.01057
929.5223, 24.71082
930.0045, 24.13949
930.4866, 23.63645
930.9687, 23.56314
931.4508, 23.72101
931.9329, 23.73988
932.4150, 23.71388
932.8972, 24.06567
933.3793, 24.86912
933.8614, 25.68842
934.3435, 26.19817
934.8256, 26.33268
935.3077, 25.68872
935.7899, 24.35690
936.2720, 23.74200
936.7541, 24.05113
937.2362, 24.43624
937.7183, 24.48727
938.2004, 24.37577
938.6826, 24.33110
939.1647, 24.35072
939.6468, 24.65155
940.1289, 25.64244
940.6110, 25.86498
941.0931, 24.33029
941.5753, 22.89610
942.0574, 23.10530
942.5395, 24.35806
943.0216, 24.96662
943.5037, 24.60934
943.9858, 24.58600
944.4680, 25.44376
944.9501, 26.11044
945.4322, 26.15708
945.9143, 25.84023
946.3964, 25.35946
946.8785, 24.77191
947.3607, 24.15287
947.8428, 23.40377
948.3249, 22.88382
948.8070, 22.85084
949.2891, 23.08125
949.7712, 23.54034
950.2534, 24.04355
950.7355, 24.19096
951.2176, 23.93189
951.6997, 23.77691
952.1818, 24.25542
952.6639, 24.05672
953.1461, 24.76876
953.6282, 24.29244
954.1103, 24.21714
954.5924, 24.55002
955.0745, 24.73263
955.5566, 24.48888
956.0388, 23.95721
956.5209, 23.15029
957.0030, 22.22805
957.4851, 22.12551
957.9672, 22.83741
958.4493, 23.50204
958.9315, 23.94556
959.4136, 24.12577
959.8957, 24.30469
960.3778, 23.61808
960.8599, 24.09993
961.3420, 23.89592
961.8242, 23.45007
962.3063, 24.17429
962.7884, 22.82959
963.2705, 23.16386
963.7526, 23.97581
964.2347, 24.08213
964.7169, 23.58391
965.1990, 23.22387
965.6811, 22.98485
966.1632, 22.91697
966.6453, 23.03361
967.1274, 23.30578
967.6096, 24.03423
968.0917, 24.72991
968.5738, 24.63496
969.0559, 23.75746
969.5380, 23.16836
970.0201, 23.10741
970.5023, 23.39398
970.9844, 24.51063
971.4665, 25.45456
971.9486, 25.02409
972.4307, 23.91234
972.9128, 23.65981
973.3950, 24.65421
973.8771, 25.71663
974.3592, 26.45078
974.8413, 26.65577
975.3234, 25.63083
975.8055, 24.25673
976.2877, 24.13132
976.7698, 24.99661
977.2519, 25.12554
977.7340, 23.68413
978.2161, 22.08658
978.6982, 22.05285
979.1804, 22.81111
979.6625, 22.87569
980.1446, 22.42840
980.6267, 22.21363
981.1088, 22.36700
981.5909, 22.49890
982.0731, 22.33838
982.5552, 22.02651
983.0373, 21.79859
983.5194, 21.64881
984.0015, 21.43427
984.4836, 21.15476
984.9658, 21.51081
985.4479, 22.81799
985.9300, 23.90259
986.4121, 23.58992
986.8942, 22.33991
987.3763, 21.84635
987.8585, 22.24126
988.3406, 22.54271
988.8227, 22.70997
989.3048, 22.71380
989.7869, 22.38737
990.2690, 22.19798
990.7512, 22.86653
991.2333, 24.26410
991.7154, 24.69673
992.1975, 23.44722
992.6796, 22.76235
993.1617, 23.12583
993.6439, 23.61275
994.1260, 23.95477
994.6081, 24.07325
995.0902, 23.80541
995.5723, 23.13894
996.0544, 22.48550
996.5366, 21.52020
997.0187, 21.05307
997.5008, 21.58453
997.9829, 22.27252
998.4650, 22.71017
998.9471, 22.91185
999.4293, 22.91790
999.9114, 22.72883
1000.393, 22.47640
1000.876, 22.31257
1001.358, 21.94577
1001.840, 20.68198
1002.322, 19.65270
1002.804, 20.06899
1003.286, 21.50026
1003.768, 23.02539
1004.250, 24.44234
1004.733, 24.90483
1005.215, 22.99168
1005.697, 20.98911
1006.179, 20.71377
1006.661, 21.30985
1007.143, 21.86436
1007.625, 22.15318
1008.107, 22.01330
1008.589, 21.33967
1009.072, 20.72037
1009.554, 20.75774
1010.036, 20.50193
1010.518, 20.97777
1011.000, 20.79322
1011.482, 21.00045
1011.964, 21.56320
1012.446, 21.84341
1012.929, 21.45743
1013.411, 21.02183
1013.893, 21.52388
1014.375, 22.38827
1014.857, 22.29238
1015.339, 21.50320
1015.821, 21.09717
1016.303, 21.27527
1016.785, 21.42817
1017.268, 21.11956
1017.750, 20.69884
1018.232, 20.77777
1018.714, 21.23792
1019.196, 21.65970
1019.678, 22.00639
1020.160, 22.11565
1020.642, 21.94260
1021.125, 21.51558
1021.607, 20.79184
1022.089, 20.05971
1022.571, 20.15794
1023.053, 21.01438
1023.535, 21.07175
1024.017, 20.23306
1024.499, 19.67965
1024.981, 19.78480
1025.464, 20.27919
1025.946, 20.98776
1026.428, 21.77195
1026.910, 22.18121
1027.392, 22.18633
1027.874, 22.06516
1028.356, 21.78606
1028.838, 21.58413
1029.321, 21.55685
1029.803, 21.58801
1030.285, 21.57001
1030.767, 21.51025
1031.249, 21.44731
1031.731, 21.39612
1032.213, 21.26012
1032.695, 20.94302
1033.177, 20.81191
1033.660, 21.15932
1034.142, 21.45906
1034.624, 20.97532
1035.106, 19.95700
1035.588, 20.08041
1036.070, 22.42714
1036.552, 23.23916
1037.034, 21.41846
1037.516, 19.84595
1037.999, 19.80994
1038.481, 20.28025
1038.963, 20.15438
1039.445, 19.52909
1039.927, 19.15101
1040.409, 18.98491
1040.891, 19.13546
1041.373, 20.08206
1041.855, 20.73081
1042.338, 20.18014
1042.820, 19.50148
1043.302, 20.12070
1043.784, 21.77111
1044.266, 22.37361
1044.748, 20.75189
1045.230, 19.96240
1045.712, 21.31492
1046.195, 22.13800
1046.677, 20.54906
1047.159, 18.48861
1047.641, 18.25660
1048.123, 19.63126
1048.605, 20.50978
1049.087, 20.30384
1049.569, 20.26348
1050.052, 20.97293
1050.534, 21.40271
1051.016, 20.72469
1051.498, 19.77273
1051.980, 19.62161
1052.462, 20.14326
1052.944, 20.16620
1053.426, 18.93757
1053.908, 18.31454
1054.391, 19.39968
1054.873, 20.39628
1055.355, 20.10831
1055.837, 19.44399
1056.319, 19.57464
1056.801, 20.39637
1057.283, 20.88601
1057.765, 20.73953
1058.248, 20.40154
1058.730, 19.60737
1059.212, 19.10316
1059.694, 19.67219
1060.176, 20.50024
1060.658, 20.54126
1061.140, 19.91385
1061.622, 19.57212
1062.104, 19.90041
1062.587, 20.16266
1063.069, 19.91433
1063.551, 19.73023
1064.033, 20.06207
1064.515, 20.55911
1064.997, 20.87825
1065.479, 20.96706
1065.961, 20.80740
1066.443, 20.30807
1066.926, 19.87148
1067.408, 19.67895
1067.890, 19.57683
1068.372, 19.45120
1068.854, 19.38114
1069.336, 19.54253
1069.818, 19.84402
1070.300, 19.99676
1070.782, 19.93567
1071.265, 19.63290
1071.747, 18.67181
1072.229, 17.93254
1072.711, 18.19538
1073.193, 18.76883
1073.675, 18.93398
1074.157, 18.71375
1074.639, 18.42110
1075.122, 18.13689
1075.604, 17.82871
1076.086, 17.19669
1076.568, 16.87419
1077.050, 17.52258
1077.532, 18.43591
1078.014, 18.90015
1078.496, 18.98925
1078.979, 19.07921
1079.461, 19.26901
1079.943, 19.42370
1080.425, 19.41372
1080.907, 19.43421
1081.389, 19.68180
1081.871, 19.93375
1082.353, 19.97676
1082.835, 19.85200
1083.318, 19.70157
1083.800, 19.55672
1084.282, 19.28542
1084.764, 18.41174
1085.246, 17.93495
1085.728, 18.81783
1086.210, 19.88295
1086.692, 19.93377
1087.175, 19.47979
1087.657, 19.75204
1088.139, 20.87980
1088.621, 21.36087
1089.103, 19.83972
1089.585, 18.61961
1090.067, 19.09983
1090.549, 19.85388
1091.031, 19.71524
1091.514, 19.15385
1091.996, 18.99616
1092.478, 19.31400
1092.960, 19.60331
1093.442, 19.71104
1093.924, 19.73870
1094.406, 19.70579
1094.888, 19.62566
1095.370, 19.44488
1095.853, 19.26261
1096.335, 19.24076
1096.817, 19.34817
1097.299, 19.34357
1097.781, 19.05389
1098.263, 18.93241
1098.745, 19.37423
1099.227, 19.72332
1099.709, 19.36856
1100.192, 18.95000
1100.674, 19.30741
1101.156, 20.21485
1101.638, 20.75605
1102.120, 20.72278
1102.602, 20.45433
1103.084, 19.57336
1103.566, 19.06143
1104.049, 19.71942
1104.531, 20.53527
1105.013, 20.63648
1105.495, 20.21003
1105.977, 19.76044
1106.459, 19.30475
1106.941, 19.12002
1107.423, 19.50291
1107.906, 19.81274
1108.388, 19.83780
1108.870, 19.78084
1109.352, 19.72532
1109.834, 19.70103
1110.316, 19.80100
1110.798, 20.04482
1111.280, 20.06486
1111.762, 19.44457
1112.245, 19.18545
1112.727, 19.82307
1113.209, 20.37225
1113.691, 20.14853
1114.173, 19.70202
1114.655, 19.76569
1115.137, 20.29946
1115.619, 20.73955
1116.102, 21.15145
1116.584, 21.34006
1117.066, 21.00743
1117.548, 20.90470
1118.030, 21.62789
1118.512, 22.32107
1118.994, 22.10667
1119.476, 21.18936
1119.958, 20.31028
1120.441, 19.08785
1120.923, 19.25428
1121.405, 21.82225
1121.887, 23.50427
1122.369, 23.11318
1122.851, 22.26530
1123.333, 22.14820
1123.815, 22.39108
1124.297, 22.10977
1124.780, 22.04797
1125.262, 22.02187
1125.744, 21.55274
1126.226, 21.78048
1126.708, 21.25300
1127.190, 20.95214
1127.672, 21.53444
1128.154, 22.33688
1128.636, 22.35972
1129.119, 21.70900
1129.601, 21.23290
1130.083, 20.91646
1130.565, 20.99668
1131.047, 21.55954
1131.529, 21.87869
1132.011, 21.61205
1132.493, 21.40555
1132.976, 22.01278
1133.458, 22.96750
1133.940, 22.64305
1134.422, 23.02631
1134.904, 23.32034
1135.386, 22.65664
1135.868, 23.31340
1136.350, 22.59582
1136.833, 21.60934
1137.315, 21.11778
1137.797, 20.90647
1138.279, 20.54087
1138.761, 20.16932
1139.243, 20.48296
1139.725, 21.27723
1140.207, 21.60026
1140.689, 21.37665
1141.172, 21.34206
1141.654, 21.83931
1142.136, 22.14682
1142.618, 21.26371
1143.100, 19.96341
1143.582, 19.49347
1144.064, 19.63145
1144.546, 20.04502
1145.029, 20.60704
1145.511, 21.17458
1145.993, 21.67452
1146.475, 21.91528
1146.957, 21.66225
1147.439, 21.37053
1147.921, 21.67225
1148.403, 22.03538
1148.885, 21.61364
1149.368, 20.87075
1149.850, 20.73690
1150.332, 21.20634
1150.814, 21.55114
1151.296, 21.44182
1151.778, 21.36856
1152.260, 21.76428
1152.742, 22.13376
1153.224, 22.39144
1153.707, 22.24476
1154.189, 20.97043
1154.671, 19.17500
1155.153, 18.29168
1155.635, 18.61410
1156.117, 18.93425
1156.599, 18.50604
1157.081, 18.54112
1157.563, 20.00553
1158.046, 21.40084
1158.528, 21.70671
1159.010, 21.44299
1159.492, 21.34205
1159.974, 21.40139
1160.456, 21.19658
1160.938, 20.37023
1161.420, 19.90944
1161.903, 20.04488
1162.385, 20.28061
1162.867, 20.65085
1163.349, 20.87263
1163.831, 20.61168
1164.313, 20.10487
1164.795, 19.93202
1165.277, 20.12241
1165.760, 20.40581
1166.242, 20.80207
1166.724, 21.27964
1167.206, 21.96792
1167.688, 22.23956
1168.170, 21.62834
1168.652, 20.87208
1169.134, 21.01570
1169.616, 20.45857
1170.099, 20.05346
1170.581, 20.09405
1171.063, 19.39260
1171.545, 19.45039
1172.027, 19.60456
1172.509, 19.65411
1172.991, 19.71035
1173.473, 19.85285
1173.956, 20.08255
1174.438, 20.48758
1174.920, 20.95894
1175.402, 21.12412
1175.884, 21.03376
1176.366, 20.71719
1176.848, 20.31253
1177.330, 20.53873
1177.813, 21.66276
1178.295, 22.60816
1178.777, 22.31725
1179.259, 21.50683
1179.741, 20.97161
1180.223, 20.56003
1180.705, 19.97458
1181.187, 19.36687
1181.669, 19.12473
1182.151, 19.27134
1182.634, 19.49088
1183.116, 19.64460
1183.598, 19.83402
1184.080, 20.42328
1184.562, 20.71315
1185.044, 19.73284
1185.526, 18.63220
1186.008, 18.79930
1186.490, 19.78586
1186.973, 20.25812
1187.455, 19.95777
1187.937, 19.91524
1188.419, 20.84680
1188.901, 21.28391
1189.383, 20.52456
1189.865, 19.69867
1190.347, 19.25393
1190.830, 19.13026
1191.312, 19.37432
1191.794, 19.88961
1192.276, 20.19278
1192.758, 20.21161
1193.240, 20.27589
1193.722, 20.43689
1194.204, 20.46097
1194.687, 20.21862
1195.169, 20.12212
1195.651, 20.53202
1196.133, 20.94390
1196.615, 20.48070
1197.097, 19.32153
1197.579, 18.51156
1198.061, 18.04253
1198.543, 17.80050
1199.026, 17.78115
1199.508, 18.19957
1199.990, 19.10222
1200.472, 20.04286
1200.954, 20.71515
1201.436, 20.96225
1201.918, 20.19684
1202.400, 19.03919
1202.883, 18.86381
1203.365, 19.28225
1203.847, 19.34021
1204.329, 18.98871
1204.811, 18.60934
1205.293, 18.35463
1205.775, 18.31696
1206.257, 18.64001
1206.740, 19.09043
1207.222, 19.80780
1207.704, 20.27674
1208.186, 19.75430
1208.668, 18.83347
1209.150, 18.43096
1209.632, 18.54085
1210.114, 18.50586
1210.596, 18.01641
1211.078, 17.92997
1211.561, 18.57653
1212.043, 19.42614
1212.525, 20.97939
1213.007, 21.95596
1213.489, 21.08924
1213.971, 19.49583
1214.453, 18.87810
1214.935, 19.19351
1215.417, 19.73934
1215.900, 20.74723
1216.382, 21.02570
1216.864, 20.32498
1217.346, 19.65737
1217.828, 19.27579
1218.310, 19.40348
1218.792, 20.30149
1219.274, 21.46250
1219.757, 22.00541
1220.239, 21.98233
1220.721, 21.51940
1221.203, 20.71481
1221.685, 19.84069
1222.167, 19.09157
1222.649, 19.47441
1223.131, 21.19228
1223.614, 22.47188
1224.096, 21.81906
1224.578, 20.62784
1225.060, 20.30798
1225.542, 20.42274
1226.024, 20.66331
1226.506, 20.84657
1226.988, 20.66659
1227.470, 20.22288
1227.953, 19.78676
1228.435, 19.41812
1228.917, 19.57596
1229.399, 21.11155
1229.881, 22.22664
1230.363, 22.16349
1230.845, 21.71389
1231.327, 21.05343
1231.810, 20.47535
1232.292, 20.42037
1232.774, 20.72563
1233.256, 20.72965
1233.738, 20.33119
1234.220, 20.04505
1234.702, 19.81659
1235.184, 19.96294
1235.667, 20.72042
1236.149, 21.12429
1236.631, 20.62432
1237.113, 19.78043
1237.595, 19.23488
1238.077, 18.91024
1238.559, 18.51151
1239.041, 18.11021
1239.523, 18.11953
1240.005, 18.48629
1240.488, 19.04686
1240.970, 19.63370
1241.452, 19.38768
1241.934, 17.86844
1242.416, 16.82226
1242.898, 18.62787
1243.380, 20.79084
1243.862, 20.49839
1244.344, 19.46404
1244.827, 19.69430
1245.309, 20.59161
1245.791, 20.83200
1246.273, 20.39768
1246.755, 20.29451
1247.237, 20.96156
1247.719, 21.32337
1248.201, 21.31505
1248.684, 20.72303
1249.166, 18.37280
1249.648, 16.73917
1250.130, 17.73671
1250.612, 19.71966
1251.094, 20.63214
1251.576, 20.52777
1252.058, 19.49500
1252.541, 17.19523
1253.023, 16.60811
1253.505, 17.95330
1253.987, 19.40987
1254.469, 20.56812
1254.951, 21.15195
1255.433, 20.97533
1255.915, 20.64776
1256.397, 21.02610
1256.880, 20.61898
1257.362, 21.17588
1257.844, 20.27187
1258.326, 19.86013
1258.808, 19.80934
1259.290, 19.38907
1259.772, 18.72403
1260.254, 19.12859
1260.737, 21.35030
1261.219, 22.90575
1261.701, 21.69076
1262.183, 20.55636
1262.665, 21.24822
1263.147, 22.13515
1263.629, 21.96010
1264.111, 21.26977
1264.594, 20.86253
1265.076, 20.71926
1265.558, 20.54106
1266.040, 20.50828
1266.522, 20.24960
1267.004, 20.67679
1267.486, 21.03934
1267.968, 21.26926
1268.450, 21.28154
1268.932, 21.00612
1269.415, 20.66761
1269.897, 20.50476
1270.379, 20.49017
1270.861, 20.52171
1271.343, 20.65444
1271.825, 21.27240
1272.307, 22.09747
1272.789, 22.03690
1273.271, 21.25254
1273.754, 21.28193
1274.236, 22.66410
1274.718, 23.69165
1275.200, 22.92779
1275.682, 21.97763
1276.164, 21.65283
1276.646, 21.63545
1277.128, 22.03372
1277.611, 22.35141
1278.093, 21.65606
1278.575, 22.29238
1279.057, 20.63490
1279.539, 22.54178
1280.021, 23.45743
1280.503, 22.99281
1280.985, 22.66489
1281.468, 22.75412
1281.950, 22.43924
1282.432, 21.32820
1282.914, 20.19747
1283.396, 19.64686
1283.878, 19.66400
1284.360, 20.42206
1284.842, 21.63776
1285.324, 22.50886
##END=



