##NAMES=Hausmannite
##RRUFFID=R040091
##IDEAL CHEMISTRY=Mn^2+^Mn^3+^_2_O_4_
##LOCALITY=Germany
##OWNER=RRUFF
##SOURCE=University of Arizona Mineral Museum
##DESCRIPTION=Mass of black octahedral crystals
##STATUS=The identification of this mineral has been confirmed by X-ray diffraction and chemical analysis
##URL=rruff.info/R040091
##MEASURED CHEMISTRY=(Mn^2+^_0.96_Zn_0.02_Mg_0.02_)Mn^3+^_2.00_O_4_
102.8268, 117.6351
103.3090, 114.8050
103.7911, 113.5847
104.2732, 114.8936
104.7553, 117.3923
105.2374, 119.6101
105.7195, 122.0535
106.2017, 122.4061
106.6838, 117.1525
107.1659, 108.0684
107.6480, 103.1537
108.1301, 107.7532
108.6122, 115.3788
109.0944, 116.3936
109.5765, 108.6387
110.0586, 100.4334
110.5407, 98.76496
111.0228, 103.7745
111.5049, 109.8244
111.9871, 116.2230
112.4692, 121.8724
112.9513, 125.1211
113.4334, 124.7528
113.9155, 123.9179
114.3976, 127.7299
114.8798, 138.1487
115.3619, 146.3511
115.8440, 150.0075
116.3261, 149.6659
116.8082, 144.4956
117.2903, 132.6864
117.7725, 118.0141
118.2546, 109.5939
118.7367, 111.0142
119.2188, 112.4315
119.7009, 109.0687
120.1830, 104.1883
120.6652, 102.1515
121.1473, 105.7821
121.6294, 113.9471
122.1115, 121.1075
122.5936, 126.4372
123.0757, 131.5627
123.5579, 136.1351
124.0400, 140.8615
124.5221, 146.4033
125.0042, 152.4287
125.4863, 159.0954
125.9684, 173.6257
126.4506, 207.7932
126.9327, 239.2914
127.4148, 261.1324
127.8969, 275.0899
128.3790, 287.4583
128.8611, 303.9778
129.3432, 325.7157
129.8254, 342.3763
130.3075, 356.4426
130.7896, 364.0540
131.2717, 363.2095
131.7538, 354.1086
132.2359, 337.7926
132.7181, 314.4923
133.2002, 281.0278
133.6823, 252.5268
134.1644, 227.7196
134.6465, 207.7133
135.1286, 194.3036
135.6108, 187.0823
136.0929, 182.8632
136.5750, 177.6006
137.0571, 169.1260
137.5392, 166.5926
138.0213, 175.8124
138.5035, 186.8827
138.9856, 191.0053
139.4677, 186.6329
139.9498, 180.0043
140.4319, 179.7885
140.9140, 189.3244
141.3962, 198.8549
141.8783, 207.5998
142.3604, 216.5031
142.8425, 227.3840
143.3246, 240.7852
143.8067, 254.0578
144.2889, 262.5351
144.7710, 264.1448
145.2531, 266.5811
145.7352, 270.5991
146.2173, 272.5307
146.6994, 271.9809
147.1816, 272.4070
147.6637, 271.1508
148.1458, 261.6125
148.6279, 240.5409
149.1100, 224.6905
149.5921, 221.8361
150.0743, 225.9828
150.5564, 226.0016
151.0385, 217.6162
151.5206, 205.2507
152.0027, 196.6914
152.4848, 192.2424
152.9670, 188.7293
153.4491, 184.3501
153.9312, 179.8838
154.4133, 177.5279
154.8954, 178.3823
155.3775, 181.2916
155.8597, 184.5013
156.3418, 188.7793
156.8239, 191.2323
157.3060, 189.5462
157.7881, 184.5815
158.2702, 179.4642
158.7524, 174.6621
159.2345, 171.0851
159.7166, 169.9724
160.1987, 171.9173
160.6808, 174.4106
161.1629, 176.6948
161.6451, 178.5708
162.1272, 178.3026
162.6093, 173.9573
163.0914, 168.2537
163.5735, 165.1169
164.0556, 165.3040
164.5378, 166.2073
165.0199, 166.2406
165.5020, 165.4413
165.9841, 163.7333
166.4662, 160.2356
166.9483, 156.4395
167.4305, 154.0477
167.9126, 153.3452
168.3947, 153.5932
168.8768, 154.7233
169.3589, 156.7599
169.8410, 157.7543
170.3232, 156.3505
170.8053, 153.8900
171.2874, 151.6379
171.7695, 149.6254
172.2516, 148.1929
172.7337, 148.4073
173.2159, 150.5136
173.6980, 150.9295
174.1801, 147.0395
174.6622, 141.4293
175.1443, 136.1380
175.6264, 131.1619
176.1086, 127.6045
176.5907, 127.5061
177.0728, 131.4364
177.5549, 134.2794
178.0370, 132.6548
178.5191, 129.9090
179.0013, 129.1362
179.4834, 131.3814
179.9655, 134.1228
180.4476, 133.9901
180.9297, 130.4264
181.4118, 127.4504
181.8940, 127.4587
182.3761, 128.1019
182.8582, 127.1912
183.3403, 123.8720
183.8224, 120.5693
184.3046, 121.2255
184.7867, 127.0128
185.2688, 130.4212
185.7509, 125.8530
186.2330, 119.6206
186.7151, 116.7144
187.1973, 118.6689
187.6794, 121.8951
188.1615, 121.5623
188.6436, 116.8016
189.1257, 112.7985
189.6078, 111.9035
190.0900, 111.8720
190.5721, 110.9092
191.0542, 108.4689
191.5363, 106.1848
192.0184, 106.6736
192.5005, 110.7789
192.9827, 113.4717
193.4648, 111.5537
193.9469, 108.8511
194.4290, 108.1854
194.9111, 110.2630
195.3932, 113.0923
195.8754, 114.1102
196.3575, 112.9050
196.8396, 112.0737
197.3217, 113.7643
197.8038, 115.0800
198.2859, 113.2781
198.7681, 107.7493
199.2502, 102.1320
199.7323, 101.5790
200.2144, 107.3106
200.6965, 110.7350
201.1786, 106.3040
201.6608, 101.3025
202.1429, 100.7058
202.6250, 105.3064
203.1071, 111.0669
203.5892, 113.8322
204.0713, 113.4040
204.5535, 111.5584
205.0356, 106.7362
205.5177, 101.8132
205.9998, 98.28468
206.4819, 96.36228
206.9640, 95.76052
207.4462, 96.67329
207.9283, 99.29044
208.4104, 101.2425
208.8925, 102.1111
209.3746, 102.2091
209.8567, 101.1522
210.3388, 99.09856
210.8210, 97.51249
211.3031, 98.37302
211.7852, 101.7934
212.2673, 103.6484
212.7494, 102.5781
213.2315, 100.5028
213.7137, 97.70601
214.1958, 94.56797
214.6779, 92.72661
215.1600, 94.61978
215.6421, 100.0512
216.1242, 103.2101
216.6064, 102.1374
217.0885, 100.1822
217.5706, 98.92767
218.0527, 98.44692
218.5348, 98.63170
219.0169, 100.2786
219.4991, 103.0160
219.9812, 103.2534
220.4633, 98.68544
220.9454, 94.31317
221.4275, 92.63896
221.9096, 93.38937
222.3918, 95.57616
222.8739, 100.3836
223.3560, 106.6660
223.8381, 108.2957
224.3202, 102.4602
224.8023, 96.23714
225.2845, 93.66039
225.7666, 93.70483
226.2487, 94.07612
226.7308, 92.98059
227.2129, 91.38986
227.6950, 92.76521
228.1772, 99.22910
228.6593, 104.0746
229.1414, 101.8949
229.6235, 95.86635
230.1056, 91.39829
230.5877, 91.25581
231.0699, 93.71648
231.5520, 95.68040
232.0341, 97.07038
232.5162, 98.18481
232.9983, 99.75632
233.4804, 101.0386
233.9626, 100.6819
234.4447, 97.03136
234.9268, 92.84269
235.4089, 92.64112
235.8910, 97.23582
236.3731, 100.6541
236.8553, 98.03911
237.3374, 93.31301
237.8195, 91.71165
238.3016, 95.54012
238.7837, 100.4502
239.2658, 101.6706
239.7480, 99.16531
240.2301, 97.18222
240.7122, 97.93062
241.1943, 99.84957
241.6764, 100.6505
242.1585, 99.84430
242.6407, 98.80459
243.1228, 98.52820
243.6049, 98.93380
244.0870, 99.47642
244.5691, 100.0509
245.0512, 100.6101
245.5334, 101.2835
246.0155, 102.2835
246.4976, 102.4934
246.9797, 100.6456
247.4618, 97.47057
247.9439, 95.04893
248.4261, 93.91555
248.9082, 93.78168
249.3903, 94.60527
249.8724, 96.47604
250.3545, 97.80383
250.8366, 97.70468
251.3188, 96.75613
251.8009, 95.82852
252.2830, 95.02615
252.7651, 94.55534
253.2472, 94.92062
253.7293, 96.12393
254.2115, 96.82561
254.6936, 96.08612
255.1757, 95.07195
255.6578, 95.24113
256.1399, 96.78223
256.6220, 98.64911
257.1042, 99.93958
257.5863, 100.6159
258.0684, 101.3511
258.5505, 102.5833
259.0326, 103.5656
259.5147, 103.7844
259.9969, 103.2303
260.4790, 102.0381
260.9611, 100.0726
261.4432, 97.46208
261.9253, 95.79092
262.4074, 95.03902
262.8896, 95.11895
263.3717, 96.81266
263.8538, 99.41165
264.3359, 100.8792
264.8180, 99.84324
265.3001, 97.03186
265.7823, 96.08054
266.2644, 97.92688
266.7465, 100.2046
267.2286, 103.4117
267.7107, 106.5110
268.1928, 107.6381
268.6750, 105.9296
269.1571, 102.6691
269.6392, 100.9357
270.1213, 100.5030
270.6034, 102.1644
271.0855, 108.8338
271.5677, 116.1313
272.0498, 119.0420
272.5319, 116.4491
273.0140, 112.1508
273.4961, 112.1494
273.9782, 119.7719
274.4604, 124.1688
274.9425, 123.0240
275.4246, 120.9426
275.9067, 120.4946
276.3888, 122.0780
276.8709, 124.9382
277.3531, 128.3487
277.8352, 132.2764
278.3173, 136.9562
278.7994, 141.7661
279.2815, 147.8943
279.7636, 157.2334
280.2458, 168.4157
280.7279, 177.9488
281.2100, 182.3971
281.6921, 182.7801
282.1742, 189.2975
282.6563, 207.8448
283.1385, 225.4805
283.6206, 238.5502
284.1027, 248.6384
284.5848, 257.6805
285.0669, 266.1717
285.5490, 275.1552
286.0312, 287.9969
286.5133, 308.0877
286.9954, 323.8903
287.4775, 331.3120
287.9596, 333.9178
288.4417, 334.2928
288.9239, 333.1017
289.4060, 330.3441
289.8881, 326.5570
290.3702, 322.0200
290.8523, 313.6705
291.3344, 298.1488
291.8166, 280.4403
292.2987, 264.1042
292.7808, 249.4330
293.2629, 235.3656
293.7450, 221.2816
294.2271, 207.2648
294.7093, 192.7373
295.1914, 175.4332
295.6735, 161.4894
296.1556, 157.7388
296.6377, 162.2054
297.1198, 165.8746
297.6020, 164.5630
298.0841, 160.5782
298.5662, 157.4849
299.0483, 155.5484
299.5304, 153.9079
300.0125, 151.8273
300.4947, 149.5440
300.9768, 147.9163
301.4589, 147.1582
301.9410, 146.9976
302.4231, 147.0849
302.9052, 147.5173
303.3874, 148.8712
303.8695, 151.5482
304.3516, 155.3203
304.8337, 159.3896
305.3158, 163.4660
305.7979, 168.1727
306.2801, 173.9038
306.7622, 180.3874
307.2443, 187.0908
307.7264, 193.7657
308.2085, 200.8779
308.6906, 209.1010
309.1728, 218.4587
309.6549, 229.3004
310.1370, 243.3901
310.6191, 257.9195
311.1012, 270.3793
311.5833, 280.5431
312.0655, 289.8702
312.5476, 299.7788
313.0297, 310.2670
313.5118, 321.3855
313.9939, 331.4653
314.4760, 343.7003
314.9582, 362.4749
315.4403, 384.6837
315.9224, 403.1219
316.4045, 412.8596
316.8866, 414.8956
317.3687, 415.6984
317.8509, 416.3917
318.3330, 414.0207
318.8151, 406.8416
319.2972, 397.0120
319.7793, 387.4365
320.2614, 379.3447
320.7436, 370.3557
321.2257, 355.5591
321.7078, 332.9397
322.1899, 311.3088
322.6720, 290.1873
323.1541, 271.8792
323.6363, 259.1870
324.1184, 252.0499
324.6005, 246.1832
325.0826, 237.5569
325.5647, 226.4717
326.0468, 217.2343
326.5290, 211.2074
327.0111, 205.6473
327.4932, 198.3141
327.9753, 189.8275
328.4574, 182.1318
328.9395, 175.5525
329.4217, 170.4511
329.9038, 167.9616
330.3859, 168.3907
330.8680, 169.0250
331.3501, 168.8368
331.8322, 167.5353
332.3144, 164.3903
332.7965, 156.5000
333.2786, 150.4558
333.7607, 152.5237
334.2428, 160.2295
334.7249, 165.3634
335.2070, 164.4554
335.6891, 160.3127
336.1713, 158.4373
336.6534, 159.8763
337.1355, 160.2907
337.6176, 157.8032
338.0997, 154.5199
338.5818, 152.3585
339.0640, 151.7470
339.5461, 152.6653
340.0282, 155.3950
340.5103, 160.4948
340.9924, 163.8313
341.4745, 164.4856
341.9567, 164.5738
342.4388, 164.8810
342.9209, 165.3978
343.4030, 165.6753
343.8851, 165.2845
344.3672, 164.7159
344.8494, 166.5213
345.3315, 174.1933
345.8136, 179.3322
346.2957, 179.1589
346.7778, 176.9837
347.2599, 175.7975
347.7421, 176.5692
348.2242, 178.8835
348.7063, 182.4741
349.1884, 187.6881
349.6705, 192.4895
350.1526, 196.0670
350.6348, 199.7152
351.1169, 203.6521
351.5990, 208.1416
352.0811, 213.9606
352.5632, 222.9598
353.0453, 233.8311
353.5275, 241.2198
354.0096, 243.3932
354.4917, 246.6936
354.9738, 255.4556
355.4559, 267.8991
355.9380, 281.7964
356.4202, 298.1128
356.9023, 313.9897
357.3844, 325.3560
357.8665, 333.2416
358.3486, 344.2285
358.8307, 361.1762
359.3129, 382.1652
359.7950, 404.1028
360.2771, 426.8521
360.7592, 450.3177
361.2413, 472.7984
361.7234, 496.6611
362.2056, 525.7458
362.6877, 560.5895
363.1698, 596.8478
363.6519, 630.3165
364.1340, 660.9341
364.6161, 688.9197
365.0983, 705.0572
365.5804, 728.2451
366.0625, 774.0431
366.5446, 832.8365
367.0267, 882.7020
367.5089, 910.8487
367.9910, 925.2031
368.4731, 952.9561
368.9552, 1008.885
369.4373, 1054.072
369.9194, 1080.133
370.4016, 1097.831
370.8837, 1116.219
371.3658, 1136.932
371.8479, 1154.796
372.3300, 1164.301
372.8121, 1165.320
373.2943, 1161.187
373.7764, 1154.803
374.2585, 1138.919
374.7406, 1110.548
375.2227, 1070.920
375.7048, 1022.546
376.1870, 963.5690
376.6691, 898.6377
377.1512, 835.0334
377.6333, 772.6058
378.1154, 711.3574
378.5975, 649.2859
379.0797, 589.7819
379.5618, 538.1531
380.0439, 494.7241
380.5260, 457.9982
381.0081, 429.5857
381.4902, 406.6676
381.9724, 383.8211
382.4545, 359.6559
382.9366, 335.4948
383.4187, 312.6582
383.9008, 291.1314
384.3829, 271.4382
384.8651, 253.7655
385.3472, 237.7203
385.8293, 222.5026
386.3114, 208.6324
386.7935, 198.0761
387.2756, 192.3272
387.7578, 190.0610
388.2399, 185.6824
388.7220, 176.8340
389.2041, 169.2033
389.6862, 162.9630
390.1683, 158.3282
390.6505, 156.3110
391.1326, 156.7755
391.6147, 157.1375
392.0968, 153.9609
392.5789, 146.8863
393.0610, 140.9611
393.5432, 136.0072
394.0253, 132.7565
394.5074, 132.6540
394.9895, 134.3863
395.4716, 134.9941
395.9537, 133.1564
396.4359, 129.5495
396.9180, 124.0905
397.4001, 116.6403
397.8822, 111.8959
398.3643, 113.3560
398.8464, 117.3880
399.3286, 117.4908
399.8107, 112.5146
400.2928, 107.7843
400.7749, 105.0296
401.2570, 103.8404
401.7391, 104.0913
402.2213, 105.7105
402.7034, 107.4130
403.1855, 108.0567
403.6676, 107.6013
404.1497, 106.1865
404.6318, 102.1910
405.1140, 99.07180
405.5961, 98.90698
406.0782, 100.4421
406.5603, 101.3602
407.0424, 100.5764
407.5245, 98.91143
408.0067, 98.34010
408.4888, 99.89129
408.9709, 100.2276
409.4530, 97.75188
409.9351, 95.20799
410.4172, 94.57013
410.8994, 95.65334
411.3815, 96.68355
411.8636, 96.03899
412.3457, 94.20542
412.8278, 93.43823
413.3099, 94.32837
413.7921, 94.77521
414.2742, 93.57197
414.7563, 91.30151
415.2384, 88.37847
415.7205, 84.26367
416.2026, 80.89229
416.6848, 80.51904
417.1669, 82.06329
417.6490, 81.78523
418.1311, 78.15625
418.6132, 74.82285
419.0953, 76.93127
419.5775, 85.89765
420.0596, 91.46272
420.5417, 92.14652
421.0238, 90.36895
421.5059, 85.65719
421.9880, 79.62327
422.4702, 76.55737
422.9523, 79.28853
423.4344, 85.60428
423.9165, 87.81168
424.3986, 82.16244
424.8807, 78.23635
425.3629, 77.47140
425.8450, 78.00200
426.3271, 78.43494
426.8092, 78.58729
427.2913, 79.14436
427.7734, 81.65924
428.2556, 85.66123
428.7377, 85.82336
429.2198, 79.64236
429.7019, 74.34658
430.1840, 74.82148
430.6661, 78.16825
431.1483, 80.24766
431.6304, 79.95060
432.1125, 78.43787
432.5946, 75.79156
433.0767, 72.56939
433.5588, 71.01688
434.0410, 72.00975
434.5231, 73.96324
435.0052, 74.68040
435.4873, 73.76263
435.9694, 74.51222
436.4515, 79.76241
436.9337, 84.44034
437.4158, 84.34594
437.8979, 80.76465
438.3800, 77.79082
438.8621, 77.76754
439.3442, 79.81680
439.8264, 81.08961
440.3085, 80.52071
440.7906, 81.02509
441.2727, 84.95160
441.7548, 88.31390
442.2369, 87.56258
442.7191, 82.88301
443.2012, 77.71960
443.6833, 74.48026
444.1654, 73.10632
444.6475, 73.84247
445.1296, 77.79429
445.6118, 81.02409
446.0939, 80.91270
446.5760, 79.06207
447.0581, 77.35949
447.5402, 75.77041
448.0223, 75.12403
448.5045, 76.83338
448.9866, 79.76281
449.4687, 81.21498
449.9508, 80.48299
450.4329, 79.11941
450.9150, 78.45947
451.3972, 78.46294
451.8793, 80.41768
452.3614, 87.27553
452.8435, 92.87075
453.3256, 93.98016
453.8077, 92.09141
454.2899, 89.65830
454.7720, 87.75806
455.2541, 86.52110
455.7362, 86.37389
456.2183, 87.85461
456.7004, 88.79523
457.1826, 87.79549
457.6647, 87.35130
458.1468, 89.94006
458.6289, 94.30775
459.1110, 96.36518
459.5931, 91.87012
460.0753, 85.27822
460.5574, 85.70461
461.0395, 93.55263
461.5216, 99.86404
462.0037, 100.3457
462.4858, 98.24830
462.9680, 99.10158
463.4501, 103.4960
463.9322, 107.5747
464.4143, 109.9548
464.8964, 111.6875
465.3785, 113.7123
465.8607, 116.1426
466.3428, 118.7539
466.8249, 121.3021
467.3070, 123.9430
467.7891, 127.7346
468.2712, 133.9498
468.7534, 139.7292
469.2355, 143.8327
469.7176, 148.0131
470.1997, 154.4909
470.6818, 163.2872
471.1639, 171.8158
471.6461, 176.9243
472.1282, 179.0780
472.6103, 183.3086
473.0924, 191.6166
473.5745, 197.7703
474.0566, 195.5558
474.5388, 189.9001
475.0209, 188.1146
475.5030, 193.2054
475.9851, 197.9544
476.4672, 196.6639
476.9493, 191.9492
477.4315, 189.4348
477.9136, 190.3636
478.3957, 192.3067
478.8778, 193.1004
479.3599, 192.7646
479.8420, 190.6809
480.3242, 186.0170
480.8063, 180.8357
481.2884, 175.7003
481.7705, 170.5293
482.2526, 164.7714
482.7347, 158.3322
483.2169, 152.4667
483.6990, 149.6210
484.1811, 150.4539
484.6632, 149.0506
485.1453, 143.7163
485.6274, 137.9365
486.1096, 133.6167
486.5917, 130.2523
487.0738, 126.7741
487.5559, 122.9396
488.0380, 118.7208
488.5201, 113.1989
489.0023, 107.0809
489.4844, 103.6908
489.9665, 104.4230
490.4486, 106.4539
490.9307, 106.2306
491.4128, 103.0628
491.8950, 101.1972
492.3771, 102.4231
492.8592, 103.1573
493.3413, 100.5699
493.8234, 96.35302
494.3055, 94.04417
494.7877, 95.27782
495.2698, 98.15909
495.7519, 99.11328
496.2340, 97.53089
496.7161, 96.49915
497.1982, 97.70285
497.6804, 97.97125
498.1625, 94.23963
498.6446, 88.18324
499.1267, 84.51504
499.6088, 86.22493
500.0909, 90.01422
500.5730, 93.13029
501.0551, 95.30058
501.5373, 94.26736
502.0194, 88.40063
502.5015, 81.40418
502.9836, 78.43591
503.4657, 80.48965
503.9478, 82.60113
504.4300, 84.58825
504.9121, 86.68749
505.3942, 90.08306
505.8763, 93.56956
506.3584, 94.34889
506.8405, 90.96374
507.3227, 85.80343
507.8048, 83.65946
508.2869, 85.28797
508.7690, 87.00306
509.2511, 90.19099
509.7332, 91.62892
510.2154, 87.74090
510.6975, 80.61485
511.1796, 76.32053
511.6617, 78.80142
512.1439, 83.41248
512.6260, 85.32963
513.1081, 84.92086
513.5902, 83.74238
514.0723, 82.04307
514.5544, 80.59350
515.0366, 80.56188
515.5187, 82.40965
516.0008, 83.71692
516.4829, 83.31071
516.9650, 83.54447
517.4471, 87.07664
517.9293, 91.77352
518.4114, 93.49947
518.8935, 90.44310
519.3756, 84.97598
519.8577, 80.55601
520.3398, 77.11079
520.8220, 75.38853
521.3041, 76.04996
521.7862, 77.79374
522.2683, 80.53065
522.7504, 83.64696
523.2325, 85.58085
523.7147, 85.22811
524.1968, 84.44964
524.6789, 85.61867
525.1610, 87.56704
525.6431, 86.24348
526.1252, 80.30853
526.6074, 74.21851
527.0895, 73.51046
527.5716, 79.21452
528.0537, 81.57950
528.5358, 77.65224
529.0179, 74.22549
529.5001, 73.54314
529.9822, 74.50714
530.4643, 75.77137
530.9464, 76.86059
531.4285, 77.59096
531.9106, 77.42216
532.3928, 76.45532
532.8749, 76.51378
533.3570, 78.07652
533.8391, 79.78213
534.3212, 81.05235
534.8033, 81.84122
535.2855, 81.91891
535.7676, 80.69082
536.2497, 79.83419
536.7318, 80.58173
537.2139, 81.96967
537.6960, 82.54250
538.1782, 82.13334
538.6603, 81.72488
539.1424, 82.24625
539.6245, 83.53513
540.1066, 83.89310
540.5887, 81.94544
541.0709, 81.10986
541.5530, 82.60149
542.0351, 84.86196
542.5172, 86.90075
542.9993, 88.45152
543.4814, 89.22823
543.9636, 88.85580
544.4457, 87.60640
544.9278, 85.74118
545.4099, 83.21600
545.8920, 81.34453
546.3741, 80.53944
546.8563, 80.95199
547.3384, 83.44382
547.8205, 89.64963
548.3026, 93.04288
548.7847, 90.89722
549.2668, 87.38027
549.7490, 84.45027
550.2311, 82.68198
550.7132, 82.95181
551.1953, 85.93399
551.6774, 90.08939
552.1595, 91.87233
552.6417, 90.74749
553.1238, 90.05832
553.6059, 90.91709
554.0880, 91.52263
554.5701, 89.57980
555.0522, 86.26499
555.5344, 85.58624
556.0165, 91.69071
556.4986, 97.57944
556.9807, 95.97530
557.4628, 90.30930
557.9449, 89.53006
558.4271, 96.14442
558.9092, 103.6335
559.3913, 104.4385
559.8734, 97.94944
560.3555, 92.87681
560.8376, 88.54815
561.3198, 86.54732
561.8019, 89.78170
562.2840, 94.22290
562.7661, 94.72900
563.2482, 90.34360
563.7303, 86.00150
564.2125, 86.77580
564.6946, 90.89968
565.1767, 92.84734
565.6588, 92.14458
566.1409, 91.86508
566.6230, 94.22530
567.1052, 97.73725
567.5873, 98.09402
568.0694, 93.03893
568.5515, 90.46440
569.0336, 93.61660
569.5157, 97.82193
569.9979, 99.34387
570.4800, 98.76115
570.9621, 99.01738
571.4442, 102.0435
571.9263, 105.9734
572.4084, 106.4226
572.8906, 102.8096
573.3727, 99.50517
573.8548, 96.28979
574.3369, 94.75693
574.8190, 97.26793
575.3011, 102.5680
575.7833, 106.3569
576.2654, 106.9735
576.7475, 106.5501
577.2296, 106.6963
577.7117, 106.5849
578.1938, 103.8698
578.6760, 98.27459
579.1581, 93.51789
579.6402, 93.81371
580.1223, 98.98112
580.6044, 101.7962
581.0865, 100.5492
581.5686, 99.55067
582.0507, 100.6493
582.5328, 101.8490
583.0150, 100.5334
583.4971, 96.60722
583.9792, 94.11707
584.4613, 97.38074
584.9434, 102.5951
585.4255, 103.3499
585.9077, 100.1080
586.3898, 98.26859
586.8719, 100.6757
587.3540, 104.3415
587.8361, 103.3897
588.3182, 94.51553
588.8004, 90.50742
589.2825, 94.79028
589.7646, 99.84664
590.2467, 103.0177
590.7288, 104.5635
591.2109, 105.2805
591.6931, 105.4399
592.1752, 105.0415
592.6573, 103.4766
593.1394, 101.2176
593.6215, 100.7500
594.1036, 102.6254
594.5858, 104.6613
595.0679, 105.5756
595.5500, 105.5127
596.0321, 104.9661
596.5142, 102.9420
596.9963, 102.0985
597.4785, 103.5669
597.9606, 105.7872
598.4427, 107.5556
598.9248, 108.8963
599.4069, 110.6635
599.8890, 113.6783
600.3712, 116.5834
600.8533, 115.9289
601.3354, 111.4026
601.8175, 107.9723
602.2996, 106.5406
602.7817, 106.4585
603.2639, 107.8866
603.7460, 110.3957
604.2281, 111.9209
604.7102, 111.0059
605.1923, 110.5158
605.6744, 112.2080
606.1566, 114.7336
606.6387, 116.2117
607.1208, 116.4222
607.6029, 116.6901
608.0850, 118.4271
608.5671, 121.1023
609.0493, 121.4133
609.5314, 117.8997
610.0135, 116.6886
610.4956, 121.4545
610.9777, 127.4590
611.4598, 129.7515
611.9420, 128.6067
612.4241, 128.6598
612.9062, 133.0497
613.3883, 137.3875
613.8704, 137.7299
614.3525, 135.7944
614.8347, 135.1967
615.3168, 137.0433
615.7989, 140.2652
616.2810, 144.1016
616.7631, 148.5811
617.2452, 149.2046
617.7274, 142.2275
618.2095, 138.0520
618.6916, 142.0172
619.1737, 149.1749
619.6558, 155.5262
620.1379, 160.6595
620.6201, 163.9758
621.1022, 164.1057
621.5843, 163.1191
622.0664, 162.8238
622.5485, 163.2600
623.0306, 163.8469
623.5128, 164.3014
623.9949, 165.9919
624.4770, 171.7868
624.9591, 183.0342
625.4412, 189.6881
625.9233, 188.7748
626.4055, 187.1427
626.8876, 185.7525
627.3697, 185.6618
627.8518, 188.4957
628.3339, 194.6982
628.8160, 201.7694
629.2982, 208.5298
629.7803, 215.2495
630.2624, 222.4498
630.7445, 229.9871
631.2266, 237.0095
631.7087, 243.0930
632.1909, 248.6956
632.6730, 254.4877
633.1551, 260.0863
633.6372, 267.2764
634.1193, 277.4045
634.6014, 287.6127
635.0836, 294.9305
635.5657, 302.3587
636.0478, 315.2510
636.5299, 335.7359
637.0120, 355.4088
637.4941, 367.9368
637.9763, 376.8821
638.4584, 386.0017
638.9405, 396.2072
639.4226, 410.0381
639.9047, 429.0408
640.3868, 451.7316
640.8690, 475.1181
641.3511, 498.4232
641.8332, 524.3602
642.3153, 552.7237
642.7974, 584.2275
643.2795, 617.9620
643.7617, 655.3597
644.2438, 698.6855
644.7259, 748.8781
645.2080, 803.9623
645.6901, 867.5583
646.1722, 932.8947
646.6544, 985.6553
647.1365, 1027.959
647.6186, 1077.540
648.1007, 1143.671
648.5828, 1225.253
649.0649, 1321.997
649.5471, 1438.968
650.0292, 1556.292
650.5113, 1672.531
650.9934, 1790.755
651.4755, 1910.561
651.9576, 2033.841
652.4398, 2165.519
652.9219, 2308.477
653.4040, 2452.904
653.8861, 2591.258
654.3682, 2728.658
654.8503, 2884.035
655.3325, 3049.507
655.8146, 3182.628
656.2967, 3258.482
656.7788, 3303.397
657.2609, 3378.147
657.7430, 3505.166
658.2252, 3575.590
658.7073, 3568.958
659.1894, 3528.186
659.6715, 3474.994
660.1536, 3401.889
660.6357, 3294.666
661.1179, 3145.580
661.6000, 2984.695
662.0821, 2815.717
662.5642, 2647.657
663.0463, 2489.783
663.5284, 2340.996
664.0106, 2192.657
664.4927, 2040.899
664.9748, 1891.380
665.4569, 1756.694
665.9390, 1637.948
666.4211, 1525.824
666.9033, 1420.776
667.3854, 1321.479
667.8675, 1226.550
668.3496, 1137.962
668.8317, 1060.032
669.3138, 995.5444
669.7960, 932.3170
670.2781, 861.6777
670.7602, 795.4105
671.2423, 743.5705
671.7244, 703.5845
672.2065, 669.1390
672.6887, 637.5224
673.1708, 607.5479
673.6529, 577.5590
674.1350, 547.5024
674.6171, 518.8372
675.0992, 491.7869
675.5814, 464.8600
676.0635, 435.4908
676.5456, 407.4370
677.0277, 387.8184
677.5098, 377.6219
677.9919, 367.8289
678.4741, 358.0267
678.9562, 347.5683
679.4383, 335.4777
679.9204, 322.6903
680.4025, 310.5095
680.8846, 299.3598
681.3668, 289.5551
681.8489, 282.0147
682.3310, 276.0785
682.8131, 269.1750
683.2952, 261.2373
683.7773, 254.7075
684.2595, 250.9501
684.7416, 247.8895
685.2237, 242.6691
685.7058, 234.9785
686.1879, 227.3560
686.6700, 219.5388
687.1522, 212.1421
687.6343, 205.0291
688.1164, 198.5427
688.5985, 192.6689
689.0806, 187.6017
689.5627, 184.3108
690.0449, 184.9277
690.5270, 186.5097
691.0091, 184.9471
691.4912, 180.5997
691.9733, 173.8795
692.4554, 164.6700
692.9376, 157.9235
693.4197, 159.5075
693.9018, 168.5235
694.3839, 172.5657
694.8660, 168.3869
695.3481, 164.7978
695.8303, 164.1597
696.3124, 163.6190
696.7945, 160.6842
697.2766, 156.0331
697.7587, 152.7183
698.2408, 153.4615
698.7230, 153.3151
699.2051, 146.8033
699.6872, 138.0649
700.1693, 133.7152
700.6514, 134.3497
701.1335, 136.9599
701.6157, 140.0060
702.0978, 141.8032
702.5799, 135.5866
703.0620, 118.3876
703.5441, 112.6651
704.0262, 127.8227
704.5084, 142.8410
704.9905, 141.9081
705.4726, 131.1599
705.9547, 126.3405
706.4368, 130.9800
706.9189, 134.8014
707.4011, 135.0606
707.8832, 133.9091
708.3653, 132.2438
708.8474, 130.6220
709.3295, 129.8563
709.8116, 130.2855
710.2938, 131.3532
710.7759, 133.0174
711.2580, 134.8085
711.7401, 134.3804
712.2222, 131.5098
712.7043, 129.0641
713.1865, 128.5836
713.6686, 128.6918
714.1507, 126.6680
714.6328, 121.0456
715.1149, 119.5920
715.5970, 128.1225
716.0792, 133.6693
716.5613, 129.1819
717.0434, 121.9380
717.5255, 120.2162
718.0076, 124.9150
718.4897, 129.9709
718.9719, 133.4013
719.4540, 134.4867
719.9361, 130.7942
720.4182, 124.3027
720.9003, 119.9084
721.3824, 118.8464
721.8646, 119.4904
722.3467, 120.3608
722.8288, 121.5766
723.3109, 124.0417
723.7930, 128.3863
724.2751, 131.6027
724.7573, 131.9600
725.2394, 132.4756
725.7215, 137.8640
726.2036, 145.7852
726.6857, 147.4684
727.1678, 136.2667
727.6500, 127.6400
728.1321, 128.1388
728.6142, 131.2523
729.0963, 131.5833
729.5784, 129.3844
730.0605, 126.8878
730.5427, 125.0263
731.0248, 124.4389
731.5069, 127.5190
731.9890, 132.6273
732.4711, 132.5998
732.9532, 126.7823
733.4354, 122.1357
733.9175, 122.3905
734.3996, 125.3208
734.8817, 126.8839
735.3638, 127.0054
735.8459, 126.0326
736.3281, 121.9659
736.8102, 119.2744
737.2923, 120.5835
737.7744, 123.0439
738.2565, 123.2212
738.7386, 120.8262
739.2208, 118.9707
739.7029, 119.0687
740.1850, 120.0782
740.6671, 122.4136
741.1492, 124.6727
741.6313, 124.4132
742.1135, 121.1804
742.5956, 115.7863
743.0777, 107.9936
743.5598, 99.80176
744.0419, 97.91288
744.5240, 102.6696
745.0062, 106.5445
745.4883, 107.8448
745.9704, 109.1026
746.4525, 112.9235
746.9346, 118.2632
747.4167, 120.2055
747.8989, 115.4068
748.3810, 112.4152
748.8631, 113.0668
749.3452, 114.0032
749.8273, 113.3430
750.3094, 111.5865
750.7916, 109.6877
751.2737, 107.8340
751.7558, 106.7592
752.2379, 107.3518
752.7200, 108.7847
753.2021, 110.9186
753.6843, 112.9492
754.1664, 111.3167
754.6485, 104.8332
755.1306, 99.06389
755.6127, 102.0587
756.0948, 112.6157
756.5770, 116.5334
757.0591, 111.9459
757.5412, 108.2657
758.0233, 108.7728
758.5054, 110.1785
758.9875, 108.9036
759.4697, 105.1315
759.9518, 102.7746
760.4339, 102.0532
760.9160, 102.4678
761.3981, 106.1905
761.8802, 109.1090
762.3624, 106.4368
762.8445, 100.2005
763.3266, 96.85437
763.8087, 99.72684
764.2908, 103.7160
764.7729, 104.1597
765.2551, 102.5378
765.7372, 101.2628
766.2193, 100.5536
766.7014, 100.2298
767.1835, 100.2320
767.6656, 100.2139
768.1478, 99.75896
768.6299, 98.88840
769.1120, 96.38757
769.5941, 90.77785
770.0762, 88.25377
770.5583, 93.06108
771.0405, 99.69712
771.5226, 101.1592
772.0047, 97.41339
772.4868, 95.02878
772.9689, 96.14275
773.4510, 96.21164
773.9332, 93.19936
774.4153, 89.28278
774.8974, 85.27303
775.3795, 82.10132
775.8616, 82.03996
776.3438, 87.03867
776.8259, 93.00843
777.3080, 96.90926
777.7901, 98.90228
778.2722, 98.62651
778.7543, 96.52595
779.2365, 94.87189
779.7186, 94.87312
780.2007, 95.13645
780.6828, 93.03743
781.1649, 88.49388
781.6470, 85.49469
782.1292, 84.46632
782.6113, 83.36753
783.0934, 80.87118
783.5755, 78.72727
784.0576, 79.68073
784.5397, 84.07957
785.0219, 86.21939
785.5040, 84.33882
785.9861, 82.58675
786.4682, 81.47276
786.9503, 81.10310
787.4324, 81.98280
787.9146, 83.68649
788.3967, 84.89758
788.8788, 84.99836
789.3609, 84.76109
789.8430, 85.44845
790.3251, 85.74036
790.8073, 82.72091
791.2894, 77.40826
791.7715, 74.01374
792.2536, 74.47533
792.7357, 76.96387
793.2178, 79.65071
793.7000, 82.31100
794.1821, 82.91066
794.6642, 81.28474
795.1463, 78.96791
795.6284, 75.96884
796.1105, 73.88972
796.5927, 75.08944
797.0748, 79.47284
797.5569, 81.19743
798.0390, 78.07806
798.5211, 75.64677
799.0032, 74.89283
799.4854, 74.64957
799.9675, 74.30293
800.4496, 73.87416
800.9317, 73.45107
801.4138, 72.84628
801.8959, 72.82019
802.3781, 73.95528
802.8602, 75.59102
803.3423, 78.37031
803.8244, 80.88801
804.3065, 79.80495
804.7886, 74.25239
805.2708, 68.43245
805.7529, 66.01961
806.2350, 66.37857
806.7171, 69.07567
807.1992, 73.58513
807.6813, 76.69266
808.1635, 77.57381
808.6456, 77.34645
809.1277, 76.90018
809.6098, 76.27742
810.0919, 75.70473
810.5740, 75.30215
811.0562, 74.33606
811.5383, 71.86922
812.0204, 70.37648
812.5025, 72.13383
812.9846, 75.55689
813.4667, 77.17709
813.9489, 76.86145
814.4310, 75.34325
814.9131, 70.57629
815.3952, 67.03818
815.8773, 67.25403
816.3594, 69.32948
816.8416, 71.14706
817.3237, 72.41381
817.8058, 73.90291
818.2879, 76.66611
818.7700, 78.98359
819.2521, 79.71011
819.7343, 78.93021
820.2164, 75.90377
820.6985, 71.29348
821.1806, 67.87225
821.6627, 67.21432
822.1448, 68.09489
822.6270, 68.75401
823.1091, 69.29414
823.5912, 70.67036
824.0733, 72.96263
824.5554, 73.79652
825.0375, 71.91531
825.5197, 69.42346
826.0018, 69.18823
826.4839, 71.17567
826.9660, 71.87234
827.4481, 70.62221
827.9302, 69.49206
828.4124, 68.81203
828.8945, 68.41659
829.3766, 68.46812
829.8587, 68.70427
830.3408, 68.19965
830.8229, 65.91311
831.3051, 64.93103
831.7872, 66.66874
832.2693, 68.96643
832.7514, 70.81524
833.2335, 72.23972
833.7156, 73.67635
834.1978, 75.15131
834.6799, 75.60761
835.1620, 73.28056
835.6441, 70.66307
836.1262, 70.80202
836.6083, 72.20509
837.0905, 71.77824
837.5726, 69.31302
838.0547, 66.82400
838.5368, 65.46457
839.0189, 65.59779
839.5010, 69.58996
839.9832, 76.10635
840.4653, 75.96850
840.9474, 68.41895
841.4295, 63.00954
841.9116, 64.47634
842.3937, 68.64902
842.8759, 69.29449
843.3580, 66.31785
843.8401, 65.92717
844.3222, 70.02486
844.8043, 71.72038
845.2864, 67.76719
845.7686, 63.11039
846.2507, 61.46302
846.7328, 62.57580
847.2149, 65.03072
847.6970, 71.08397
848.1791, 74.48380
848.6613, 72.82760
849.1434, 70.37651
849.6255, 69.05739
850.1076, 68.51060
850.5897, 67.84378
851.0718, 66.92444
851.5540, 66.94503
852.0361, 70.57246
852.5182, 73.08439
853.0003, 69.26991
853.4824, 63.30082
853.9645, 61.37660
854.4467, 63.50017
854.9288, 65.19246
855.4109, 63.72915
855.8930, 62.07655
856.3751, 65.29525
856.8572, 70.76472
857.3394, 71.56110
857.8215, 68.00815
858.3036, 64.66998
858.7857, 63.30019
859.2678, 63.46551
859.7499, 65.13434
860.2321, 67.71829
860.7142, 66.81601
861.1963, 61.70949
861.6784, 62.02254
862.1605, 71.62589
862.6426, 79.30420
863.1248, 75.96490
863.6069, 65.69910
864.0890, 60.51371
864.5711, 62.39149
865.0532, 63.65208
865.5353, 63.47589
866.0175, 63.85958
866.4996, 66.07735
866.9817, 68.83472
867.4638, 71.31887
867.9459, 73.42068
868.4280, 73.36810
868.9102, 68.74200
869.3923, 64.91710
869.8744, 62.82775
870.3565, 62.41503
870.8386, 64.98445
871.3207, 68.88039
871.8029, 70.62434
872.2850, 69.08015
872.7671, 66.67705
873.2492, 63.37274
873.7313, 61.08522
874.2134, 62.91918
874.6956, 66.40217
875.1777, 66.61597
875.6598, 63.30787
876.1419, 60.89176
876.6240, 62.45074
877.1061, 66.01329
877.5883, 70.21502
878.0704, 74.03092
878.5525, 74.17729
879.0346, 70.95248
879.5167, 67.95775
879.9988, 66.81586
880.4810, 66.30154
880.9631, 64.60593
881.4452, 62.16862
881.9273, 61.76305
882.4094, 63.44556
882.8915, 65.00197
883.3737, 66.00349
883.8558, 66.27557
884.3379, 65.45503
884.8200, 64.11638
885.3021, 64.22646
885.7842, 66.66739
886.2664, 67.20131
886.7485, 64.77160
887.2306, 62.50467
887.7127, 61.07848
888.1948, 60.92368
888.6769, 63.44517
889.1591, 68.69498
889.6412, 70.59387
890.1233, 64.74411
890.6054, 62.04285
891.0875, 67.14697
891.5696, 72.19118
892.0518, 71.47966
892.5339, 67.67928
893.0160, 66.47541
893.4981, 69.29669
893.9802, 70.70105
894.4623, 67.31991
894.9445, 64.21220
895.4266, 64.63021
895.9087, 66.34106
896.3908, 66.33367
896.8729, 64.92815
897.3550, 65.09288
897.8372, 68.81231
898.3193, 72.35930
898.8014, 73.75382
899.2835, 72.99603
899.7656, 67.48629
900.2477, 60.38718
900.7299, 60.09706
901.2120, 68.09669
901.6941, 75.00434
902.1762, 71.91617
902.6583, 64.86555
903.1404, 62.96782
903.6226, 64.63055
904.1047, 66.02961
904.5868, 66.59258
905.0689, 66.68975
905.5510, 66.49689
906.0331, 66.27531
906.5153, 66.16187
906.9974, 66.31929
907.4795, 68.40661
907.9616, 72.23625
908.4437, 73.22933
908.9258, 70.07410
909.4080, 65.67171
909.8900, 62.07482
910.3721, 59.54569
910.8542, 58.72926
911.3364, 59.57597
911.8185, 63.72369
912.3006, 73.42702
912.7827, 77.10316
913.2648, 67.28483
913.7469, 55.13177
914.2291, 54.91882
914.7112, 65.83017
915.1933, 71.98978
915.6754, 71.79790
916.1575, 70.23369
916.6396, 66.10961
917.1218, 63.15088
917.6039, 64.37036
918.0860, 67.70891
918.5681, 69.66710
919.0502, 70.60983
919.5323, 68.39566
920.0145, 57.07797
920.4966, 50.52174
920.9787, 56.04441
921.4608, 63.77780
921.9429, 65.69492
922.4250, 63.45977
922.9072, 63.14174
923.3893, 66.76466
923.8714, 69.05193
924.3535, 67.89107
924.8356, 65.95451
925.3177, 64.14214
925.7999, 62.67963
926.2820, 61.49704
926.7641, 60.74622
927.2462, 61.27886
927.7283, 64.70707
928.2104, 67.02706
928.6926, 64.63335
929.1747, 61.49359
929.6568, 61.87504
930.1389, 64.13980
930.6210, 64.28172
931.1031, 61.54702
931.5853, 59.53749
932.0674, 60.94801
932.5495, 63.68163
933.0316, 66.85258
933.5137, 69.46468
933.9958, 69.54343
934.4780, 67.61058
934.9601, 65.75238
935.4422, 64.83523
935.9243, 64.72504
936.4064, 66.19785
936.8885, 67.80772
937.3707, 66.33472
937.8528, 63.17686
938.3349, 62.50095
938.8170, 64.56315
939.2991, 65.77830
939.7813, 63.83813
940.2634, 61.15046
940.7455, 61.38823
941.2276, 63.72299
941.7097, 65.86135
942.1918, 67.63338
942.6740, 68.50682
943.1561, 68.35235
943.6382, 67.51562
944.1203, 66.08256
944.6024, 64.76799
945.0845, 65.86868
945.5667, 68.96962
946.0488, 69.67824
946.5309, 67.70934
947.0130, 65.78850
947.4951, 64.93520
947.9772, 64.67875
948.4594, 64.44165
948.9415, 64.42995
949.4236, 66.06896
949.9057, 69.61271
950.3878, 70.73393
950.8699, 68.44099
951.3521, 66.93765
951.8342, 68.57249
952.3163, 71.18240
952.7984, 71.62793
953.2805, 69.99398
953.7626, 68.30635
954.2448, 66.22118
954.7269, 65.54128
955.2090, 66.73363
955.6911, 69.05244
956.1732, 72.72363
956.6553, 76.31548
957.1375, 76.75900
957.6196, 73.47534
958.1017, 72.10552
958.5838, 73.70068
959.0659, 74.74213
959.5480, 74.35261
960.0302, 73.40404
960.5123, 72.22295
960.9944, 71.10405
961.4765, 70.99107
961.9586, 72.50602
962.4407, 72.84175
962.9229, 70.91412
963.4050, 69.54874
963.8871, 70.12129
964.3692, 70.88732
964.8513, 70.16061
965.3334, 68.34752
965.8156, 67.12169
966.2977, 66.17425
966.7798, 66.46342
967.2619, 69.34187
967.7440, 71.76209
968.2261, 72.55130
968.7083, 72.58842
969.1904, 72.68510
969.6725, 72.80991
970.1546, 72.64176
970.6367, 72.27992
971.1188, 71.41798
971.6010, 69.76187
972.0831, 67.91051
972.5652, 65.57833
973.0473, 63.54845
973.5294, 62.52087
974.0115, 62.59115
974.4937, 64.07588
974.9758, 68.83904
975.4579, 72.35432
975.9400, 73.48876
976.4221, 73.53704
976.9042, 73.26173
977.3864, 72.33761
977.8685, 69.42023
978.3506, 64.62472
978.8327, 62.41323
979.3148, 67.28312
979.7969, 69.94722
980.2791, 64.13825
980.7612, 58.95380
981.2433, 62.95117
981.7254, 70.73410
982.2075, 72.41979
982.6896, 66.65631
983.1718, 62.40298
983.6539, 64.02368
984.1360, 65.33879
984.6181, 63.16086
985.1002, 60.65959
985.5823, 60.64053
986.0645, 62.04744
986.5466, 62.48744
987.0287, 61.47687
987.5108, 60.87244
987.9929, 61.15485
988.4750, 62.20385
988.9572, 65.30919
989.4393, 67.98316
989.9214, 67.51575
990.4035, 65.05008
990.8856, 63.48907
991.3677, 63.55507
991.8499, 62.80430
992.3320, 58.95118
992.8141, 55.64384
993.2962, 54.43685
993.7783, 54.89622
994.2604, 57.70233
994.7426, 61.54436
995.2247, 63.38727
995.7068, 62.30800
996.1889, 61.54601
996.6710, 63.05099
997.1531, 64.61705
997.6353, 65.20827
998.1174, 65.09702
998.5995, 64.08585
999.0816, 62.72847
999.5637, 62.48055
1000.046, 63.91005
1000.528, 64.67694
1001.010, 63.03019
1001.492, 61.24264
1001.974, 60.55029
1002.456, 60.46933
1002.939, 60.35115
1003.421, 60.37003
1003.903, 61.30266
1004.385, 63.50230
1004.867, 65.43043
1005.349, 66.81779
1005.831, 67.23093
1006.313, 65.88532
1006.795, 63.83545
1007.278, 61.46379
1007.760, 59.47438
1008.242, 59.55561
1008.724, 62.46769
1009.206, 65.28646
1009.688, 67.24701
1010.170, 68.13670
1010.652, 67.25435
1011.135, 65.67587
1011.617, 64.21041
1012.099, 63.07438
1012.581, 62.40338
1013.063, 62.20555
1013.545, 62.69659
1014.027, 65.06583
1014.509, 66.82610
1014.991, 65.71737
1015.474, 64.06510
1015.956, 65.12422
1016.438, 67.57751
1016.920, 66.94770
1017.402, 61.49512
1017.884, 57.44295
1018.366, 58.33680
1018.848, 59.58195
1019.331, 58.99002
1019.813, 57.64463
1020.295, 56.55554
1020.777, 55.64968
1021.259, 54.18954
1021.741, 51.72410
1022.223, 50.78500
1022.705, 53.58940
1023.187, 56.26835
1023.670, 58.09745
1024.152, 58.30503
1024.634, 54.27559
1025.116, 48.58516
1025.598, 47.79486
1026.080, 53.90947
1026.562, 58.20918
1027.044, 57.68998
1027.526, 56.31158
1028.009, 54.05407
1028.491, 52.78436
1028.973, 55.68160
1029.455, 60.11863
1029.937, 59.65956
1030.419, 52.51424
1030.901, 48.57987
1031.383, 51.31876
1031.866, 54.87967
1032.348, 59.35360
1032.830, 62.52147
1033.312, 62.20589
1033.794, 59.78736
1034.276, 57.46116
1034.758, 55.10835
1035.240, 55.13838
1035.723, 60.39799
1036.205, 64.19080
1036.687, 65.34943
1037.169, 64.86284
1037.651, 61.34182
1038.133, 57.45039
1038.615, 58.63232
1039.097, 65.63120
1039.579, 68.30736
1040.062, 63.19492
1040.544, 59.47770
1041.026, 57.72102
1041.508, 58.04720
1041.990, 62.83728
1042.472, 67.85098
1042.954, 66.35571
1043.436, 58.44047
1043.918, 53.45712
1044.401, 51.32692
1044.883, 52.80514
1045.365, 61.10012
1045.847, 66.62376
1046.329, 63.56945
1046.811, 57.84840
1047.293, 56.76548
1047.775, 59.66191
1048.258, 60.74683
1048.740, 59.14637
1049.222, 58.94179
1049.704, 60.42663
1050.186, 63.57752
1050.668, 69.55515
1051.150, 74.12617
1051.632, 72.49397
1052.115, 66.15007
1052.597, 60.67434
1053.079, 55.82631
1053.561, 54.45737
1054.043, 57.29686
1054.525, 58.56013
1055.007, 55.99940
1055.489, 53.99109
1055.971, 56.55960
1056.453, 61.88924
1056.936, 66.12471
1057.418, 69.15047
1057.900, 67.65678
1058.382, 61.71724
1058.864, 59.75043
1059.346, 63.90856
1059.828, 67.97388
1060.310, 67.57076
1060.793, 64.86951
1061.275, 63.11020
1061.757, 62.34938
1062.239, 63.88192
1062.721, 66.85268
1063.203, 65.89955
1063.685, 60.62082
1064.167, 56.42436
1064.650, 56.28753
1065.132, 57.97577
1065.614, 59.25352
1066.096, 60.06543
1066.578, 60.10069
1067.060, 59.64164
1067.542, 59.34415
1068.024, 59.27740
1068.506, 59.23209
1068.989, 59.13216
1069.471, 59.21274
1069.953, 59.70649
1070.435, 60.45794
1070.917, 61.97269
1071.399, 63.17620
1071.881, 61.71988
1072.363, 58.71642
1072.845, 57.52610
1073.328, 58.81723
1073.810, 59.68715
1074.292, 57.80736
1074.774, 56.02113
1075.256, 56.26054
1075.738, 57.64460
1076.220, 60.47058
1076.702, 63.26809
1077.184, 63.15090
1077.667, 60.42063
1078.149, 59.37417
1078.631, 62.58327
1079.113, 65.06222
1079.595, 64.44135
1080.077, 63.04681
1080.559, 61.84880
1081.041, 60.84209
1081.524, 60.39304
1082.006, 60.06715
1082.488, 57.86134
1082.970, 51.60106
1083.452, 49.61377
1083.934, 57.09758
1084.416, 63.44687
1084.898, 66.15411
1085.380, 66.18381
1085.863, 62.14404
1086.345, 56.78027
1086.827, 56.48488
1087.309, 62.31464
1087.791, 64.92213
1088.273, 62.79094
1088.755, 60.74681
1089.237, 59.22585
1089.719, 58.35516
1090.202, 58.26214
1090.684, 58.80127
1091.166, 59.99462
1091.648, 61.63004
1092.130, 61.59914
1092.612, 59.56306
1093.094, 58.67654
1093.576, 59.45441
1094.059, 58.98028
1094.541, 55.87627
1095.023, 53.37357
1095.505, 54.62446
1095.987, 58.41690
1096.469, 62.17926
1096.951, 65.75777
1097.433, 68.44237
1097.916, 70.07648
1098.398, 68.97710
1098.880, 65.08980
1099.362, 62.15081
1099.844, 62.58215
1100.326, 64.26986
1100.808, 64.41145
1101.290, 63.85150
1101.772, 64.44661
1102.255, 65.54944
1102.737, 65.23096
1103.219, 63.84913
1103.701, 64.29586
1104.183, 67.53577
1104.665, 68.88760
1105.147, 61.79940
1105.629, 54.80965
1106.111, 55.98594
1106.594, 60.64427
1107.076, 64.76592
1107.558, 67.88606
1108.040, 70.73524
1108.522, 73.08764
1109.004, 72.24942
1109.486, 64.69042
1109.968, 58.78502
1110.451, 58.00227
1110.933, 59.22119
1111.415, 61.97502
1111.897, 64.84444
1112.379, 66.37588
1112.861, 66.73375
1113.343, 66.94008
1113.825, 67.13377
1114.307, 66.96260
1114.790, 65.58415
1115.272, 65.24861
1115.754, 67.15534
1116.236, 69.06837
1116.718, 69.44338
1117.200, 69.13834
1117.682, 69.66290
1118.164, 70.99441
1118.646, 72.10363
1119.129, 72.82776
1119.611, 74.79427
1120.093, 78.71414
1120.575, 79.51385
1121.057, 74.51863
1121.539, 70.24729
1122.021, 73.92899
1122.503, 81.78114
1122.986, 84.71874
1123.468, 83.19488
1123.950, 77.60242
1124.432, 69.38725
1124.914, 67.34315
1125.396, 72.37523
1125.878, 74.87956
1126.360, 68.87518
1126.843, 61.91972
1127.325, 62.14566
1127.807, 66.85268
1128.289, 76.03519
1128.771, 84.84969
1129.253, 83.40247
1129.735, 74.78947
1130.217, 69.30374
1130.699, 69.92028
1131.182, 72.83652
1131.664, 78.38120
1132.146, 82.20444
1132.628, 81.09216
1133.110, 78.45805
1133.592, 76.07155
1134.074, 74.17861
1134.556, 72.95245
1135.038, 72.33156
1135.521, 72.01734
1136.003, 72.26592
1136.485, 72.08418
1136.967, 71.03716
1137.449, 70.08159
1137.931, 69.40976
1138.413, 68.90279
1138.895, 68.41261
1139.378, 68.07038
1139.860, 67.83761
1140.342, 67.77449
1140.824, 71.18024
1141.306, 78.91779
1141.788, 83.59022
1142.270, 84.26133
1142.752, 83.02173
1143.234, 80.55337
1143.717, 78.09205
1144.199, 76.64039
1144.681, 76.54504
1145.163, 80.19714
1145.645, 85.44651
1146.127, 84.45502
1146.609, 78.75282
1147.091, 73.81483
1147.573, 70.91976
1148.056, 69.58107
1148.538, 69.54754
1149.020, 71.69010
1149.502, 80.94500
1149.984, 88.12092
1150.466, 81.66574
1150.948, 70.96983
1151.430, 65.87775
1151.913, 65.16666
1152.395, 64.63329
1152.877, 63.63520
1153.359, 64.04783
1153.841, 67.59171
1154.323, 70.30461
1154.805, 71.52404
1155.287, 71.38794
1155.770, 68.70634
1156.252, 65.82104
1156.734, 64.08754
1157.216, 63.92905
1157.698, 66.94483
1158.180, 73.77625
1158.662, 76.70604
1159.144, 74.64459
1159.626, 73.02663
1160.109, 72.45451
1160.591, 73.43708
1161.073, 76.56531
1161.555, 78.87859
1162.037, 76.81109
1162.519, 72.62957
1163.001, 73.16186
1163.483, 76.37526
1163.965, 72.76340
1164.448, 64.33379
1164.930, 60.55664
1165.412, 62.73830
1165.894, 66.71129
1166.376, 70.52114
1166.858, 72.57809
1167.340, 69.71367
1167.822, 66.46358
1168.305, 66.50532
1168.787, 68.85329
1169.269, 74.61100
1169.751, 80.80096
1170.233, 82.25559
1170.715, 78.56823
1171.197, 73.11770
1171.679, 63.21891
1172.161, 58.99268
1172.644, 67.91543
1173.126, 75.05191
1173.608, 74.72723
1174.090, 72.12704
1174.572, 70.18236
1175.054, 69.03950
1175.536, 69.19499
1176.018, 70.60455
1176.500, 70.80933
1176.983, 69.71449
1177.465, 68.24306
1177.947, 66.48153
1178.429, 64.32574
1178.911, 61.71593
1179.393, 60.71044
1179.875, 63.40233
1180.357, 67.07566
1180.840, 67.31632
1181.322, 65.30703
1181.804, 62.20876
1182.286, 59.35585
1182.768, 60.13587
1183.250, 63.78026
1183.732, 66.73232
1184.214, 67.80154
1184.697, 67.81256
1185.179, 66.75498
1185.661, 65.43535
1186.143, 63.72317
1186.625, 62.45032
1187.107, 62.15170
1187.589, 62.60427
1188.071, 63.53054
1188.553, 64.96904
1189.036, 67.51664
1189.518, 72.30819
1190.000, 72.29529
1190.482, 64.38264
1190.964, 61.17736
1191.446, 66.09314
1191.928, 70.40057
1192.410, 69.73769
1192.892, 67.59879
1193.375, 67.81522
1193.857, 69.49371
1194.339, 70.32052
1194.821, 70.55997
1195.303, 71.68102
1195.785, 73.13318
1196.267, 72.30793
1196.749, 69.32437
1197.232, 66.88942
1197.714, 66.17965
1198.196, 66.71754
1198.678, 70.31179
1199.160, 72.29904
1199.642, 67.46545
1200.124, 61.54227
1200.606, 59.23954
1201.089, 59.25518
1201.571, 59.78959
1202.053, 60.47891
1202.535, 60.60237
1203.017, 59.52814
1203.499, 59.68834
1203.981, 62.30546
1204.463, 63.45187
1204.945, 62.19154
1205.427, 59.78783
1205.910, 56.34279
1206.392, 53.91422
1206.874, 55.18077
1207.356, 59.03638
1207.838, 62.54810
1208.320, 65.55923
1208.802, 67.27272
1209.284, 67.73200
1209.767, 66.60316
1210.249, 64.41726
1210.731, 63.86453
1211.213, 66.15087
1211.695, 68.88288
1212.177, 71.15063
1212.659, 72.01782
1213.141, 70.07290
1213.624, 67.20042
1214.106, 64.25847
1214.588, 61.91213
1215.070, 61.44216
1215.552, 62.31108
1216.034, 61.47389
1216.516, 57.22838
1216.998, 57.17399
1217.480, 63.48066
1217.963, 68.62174
1218.445, 71.60257
1218.927, 72.84896
1219.409, 72.47346
1219.891, 70.55930
1220.373, 66.71645
1220.855, 62.70358
1221.337, 63.90833
1221.819, 68.19186
1222.302, 68.33968
1222.784, 65.31099
1223.266, 61.49057
1223.748, 58.14287
1224.230, 58.38160
1224.712, 63.02543
1225.194, 66.30634
1225.676, 63.33049
1226.159, 60.56850
1226.641, 61.77411
1227.123, 63.83027
1227.605, 64.78247
1228.087, 65.57623
1228.569, 67.67100
1229.051, 70.36366
1229.533, 71.76512
1230.016, 71.81501
1230.498, 71.79939
1230.980, 71.84501
1231.462, 71.41438
1231.944, 70.60939
1232.426, 66.60046
1232.908, 58.26623
1233.390, 53.51486
1233.872, 58.86653
1234.354, 66.92402
1234.837, 66.68520
1235.319, 62.53805
1235.801, 59.92672
1236.283, 59.82927
1236.765, 66.29375
1237.247, 75.52583
1237.729, 78.94977
1238.211, 75.50272
1238.694, 70.85738
1239.176, 65.40214
1239.658, 62.32162
1240.140, 63.14578
1240.622, 65.35541
1241.104, 70.04538
1241.586, 73.02407
1242.068, 71.15763
1242.551, 67.56898
1243.033, 66.08005
1243.515, 66.62344
1243.997, 70.47424
1244.479, 76.69283
1244.961, 74.41823
1245.443, 65.38580
1245.925, 61.56009
1246.407, 64.26808
1246.890, 67.37995
1247.372, 68.23833
1247.854, 67.67741
1248.336, 65.48754
1248.818, 63.44690
1249.300, 62.54419
1249.782, 62.55148
1250.264, 63.85023
1250.746, 65.51496
1251.229, 66.42212
1251.711, 66.88213
1252.193, 67.94563
1252.675, 69.66488
1253.157, 71.46817
1253.639, 73.92267
1254.121, 73.63012
1254.603, 70.05891
1255.086, 65.62727
1255.568, 61.03414
1256.050, 59.77866
1256.532, 64.53687
1257.014, 70.48672
1257.496, 70.89411
1257.978, 69.18044
1258.460, 71.11872
1258.943, 73.65987
1259.425, 72.26926
1259.907, 68.41551
1260.389, 64.56293
1260.871, 61.56935
1261.353, 61.05896
1261.835, 64.24924
1262.317, 66.34439
1262.799, 66.10754
1263.281, 65.86037
1263.764, 65.44783
1264.246, 66.39395
1264.728, 70.02145
1265.210, 72.47785
1265.692, 69.52798
1266.174, 65.19103
1266.656, 69.27017
1267.138, 78.10877
1267.621, 80.20432
1268.103, 77.38326
1268.585, 73.05769
1269.067, 68.44540
1269.549, 64.54823
1270.031, 61.94853
1270.513, 62.06400
1270.995, 65.37562
1271.478, 71.87998
##END=



