##NAMES=Hauyne
##RRUFFID=R070557
##IDEAL CHEMISTRY=Na_3_Ca(Si_3_Al_3_)O_12_(S^6+^O_4_)
##LOCALITY=Badakhshan, Afghanistan
##OWNER=RRUFF
##SOURCE=Farooq Hashmi
##DESCRIPTION=Sky blue fragment
##STATUS=The identification of this mineral is confirmed by single-crystal X-ray diffraction and chemical analysis.
##URL=rruff.info/R070557
##MEASURED CHEMISTRY=Na_3.00_(Ca_0.84_Na_0.16_)_Σ=1_(Si_3.05_Al_2.95_)O_12_((SO_4_)_0.89_Cl_0.11_)_Σ=1_
135.1555, 12573.81
135.6376, 12699.04
136.1197, 12776.15
136.6018, 12850.67
137.0839, 12969.33
137.5661, 13135.58
138.0482, 13283.40
138.5303, 13395.17
139.0124, 13472.88
139.4945, 13526.37
139.9766, 13540.26
140.4588, 13554.27
140.9409, 13640.89
141.4230, 13828.37
141.9051, 13996.57
142.3872, 14081.52
142.8693, 14043.84
143.3515, 14063.79
143.8336, 14156.51
144.3157, 14307.85
144.7978, 14435.23
145.2799, 14452.78
145.7620, 14469.96
146.2442, 14467.61
146.7263, 14415.97
147.2084, 14400.35
147.6905, 14450.40
148.1726, 14575.17
148.6548, 14637.41
149.1369, 14607.37
149.6190, 14535.18
150.1011, 14479.01
150.5832, 14447.35
151.0653, 14422.46
151.5475, 14402.60
152.0296, 14406.74
152.5117, 14382.02
152.9938, 14315.88
153.4759, 14221.27
153.9580, 14130.79
154.4402, 14027.79
154.9223, 13942.04
155.4044, 13887.74
155.8865, 13904.03
156.3686, 13909.38
156.8507, 13890.33
157.3329, 13847.68
157.8150, 13801.11
158.2971, 13739.80
158.7792, 13681.64
159.2613, 13643.17
159.7434, 13657.39
160.2256, 13665.75
160.7077, 13640.40
161.1898, 13565.61
161.6719, 13507.52
162.1540, 13493.19
162.6361, 13508.03
163.1183, 13524.72
163.6004, 13539.78
164.0825, 13550.01
164.5646, 13552.24
165.0467, 13534.40
165.5288, 13523.99
166.0110, 13539.25
166.4931, 13575.37
166.9752, 13607.65
167.4573, 13629.23
167.9394, 13638.95
168.4215, 13635.52
168.9037, 13598.53
169.3858, 13562.41
169.8679, 13551.15
170.3500, 13566.42
170.8321, 13587.59
171.3142, 13601.06
171.7964, 13610.89
172.2785, 13624.63
172.7606, 13663.51
173.2427, 13699.90
173.7248, 13701.55
174.2069, 13653.13
174.6891, 13600.71
175.1712, 13591.20
175.6533, 13614.96
176.1354, 13634.67
176.6175, 13611.00
177.0996, 13571.17
177.5818, 13558.99
178.0639, 13600.00
178.5460, 13659.26
179.0281, 13694.31
179.5102, 13705.78
179.9923, 13708.29
180.4745, 13703.45
180.9566, 13697.58
181.4387, 13707.12
181.9208, 13760.57
182.4029, 13828.53
182.8850, 13854.08
183.3672, 13832.17
183.8493, 13788.47
184.3314, 13744.82
184.8135, 13702.38
185.2956, 13669.23
185.7777, 13645.61
186.2599, 13634.48
186.7420, 13649.64
187.2241, 13702.30
187.7062, 13765.51
188.1883, 13796.17
188.6705, 13795.05
189.1526, 13770.95
189.6347, 13713.69
190.1168, 13631.98
190.5989, 13575.72
191.0810, 13560.66
191.5632, 13575.72
192.0453, 13593.59
192.5274, 13615.31
193.0095, 13633.46
193.4916, 13637.33
193.9737, 13627.64
194.4559, 13621.06
194.9380, 13632.96
195.4201, 13657.97
195.9022, 13647.27
196.3843, 13593.86
196.8664, 13522.71
197.3486, 13467.75
197.8307, 13429.14
198.3128, 13408.35
198.7949, 13411.75
199.2770, 13439.28
199.7591, 13464.21
200.2413, 13485.63
200.7234, 13502.01
201.2055, 13509.93
201.6876, 13508.74
202.1697, 13499.78
202.6518, 13480.62
203.1340, 13449.55
203.6161, 13422.55
204.0982, 13402.72
204.5803, 13388.81
205.0624, 13375.97
205.5445, 13366.40
206.0267, 13352.54
206.5088, 13324.33
206.9909, 13278.55
207.4730, 13234.95
207.9551, 13198.48
208.4372, 13169.30
208.9194, 13145.22
209.4015, 13128.93
209.8836, 13114.68
210.3657, 13095.04
210.8478, 13070.88
211.3299, 13039.87
211.8121, 12996.28
212.2942, 12933.35
212.7763, 12894.07
213.2584, 12887.18
213.7405, 12898.91
214.2226, 12896.47
214.7048, 12877.65
215.1869, 12850.24
215.6690, 12811.25
216.1511, 12747.58
216.6332, 12719.40
217.1153, 12744.05
217.5975, 12808.80
218.0796, 12845.93
218.5617, 12848.26
219.0438, 12834.73
219.5259, 12817.39
220.0080, 12791.87
220.4902, 12772.89
220.9723, 12765.82
221.4544, 12770.26
221.9365, 12765.01
222.4186, 12745.64
222.9007, 12722.10
223.3829, 12705.88
223.8650, 12699.92
224.3471, 12695.86
224.8292, 12692.37
225.3113, 12690.09
225.7934, 12686.11
226.2756, 12677.74
226.7577, 12670.17
227.2398, 12674.98
227.7219, 12707.06
228.2040, 12725.34
228.6861, 12708.29
229.1683, 12629.41
229.6504, 12590.14
230.1325, 12606.74
230.6146, 12658.31
231.0967, 12693.39
231.5789, 12708.45
232.0610, 12711.20
232.5431, 12703.16
233.0252, 12675.51
233.5073, 12656.04
233.9894, 12645.84
234.4716, 12644.98
234.9537, 12655.04
235.4358, 12688.04
235.9179, 12717.54
236.4000, 12721.05
236.8821, 12671.47
237.3643, 12650.62
237.8464, 12680.95
238.3285, 12759.79
238.8106, 12810.04
239.2927, 12817.13
239.7748, 12809.89
240.2570, 12816.28
240.7391, 12845.92
241.2212, 12871.48
241.7033, 12883.30
242.1854, 12877.50
242.6675, 12893.57
243.1497, 12944.18
243.6318, 13007.22
244.1139, 13055.26
244.5960, 13088.25
245.0781, 13106.88
245.5602, 13107.08
246.0424, 13080.03
246.5245, 13068.36
247.0066, 13075.93
247.4887, 13096.64
247.9708, 13119.12
248.4529, 13140.33
248.9351, 13167.80
249.4172, 13205.74
249.8993, 13260.76
250.3814, 13309.52
250.8635, 13346.62
251.3456, 13378.30
251.8278, 13424.63
252.3099, 13500.12
252.7920, 13567.46
253.2741, 13605.66
253.7562, 13602.34
254.2383, 13597.01
254.7205, 13588.25
255.2026, 13578.69
255.6847, 13582.72
256.1668, 13607.16
256.6489, 13635.41
257.1310, 13661.51
257.6132, 13699.65
258.0953, 13699.88
258.5774, 13644.22
259.0595, 13539.60
259.5416, 13457.85
260.0237, 13409.51
260.5059, 13371.55
260.9880, 13323.01
261.4701, 13256.98
261.9522, 13200.27
262.4343, 13160.43
262.9164, 13137.34
263.3986, 13114.26
263.8807, 13093.52
264.3628, 13069.32
264.8449, 13032.47
265.3270, 12973.64
265.8091, 12925.47
266.2913, 12900.63
266.7734, 12901.72
267.2555, 12882.25
267.7376, 12834.04
268.2197, 12774.58
268.7018, 12725.53
269.1840, 12688.03
269.6661, 12658.17
270.1482, 12637.31
270.6303, 12627.16
271.1124, 12610.54
271.5945, 12583.05
272.0767, 12555.09
272.5588, 12546.18
273.0409, 12562.51
273.5230, 12578.83
274.0051, 12587.88
274.4872, 12591.09
274.9694, 12575.02
275.4515, 12531.06
275.9336, 12477.16
276.4157, 12449.98
276.8978, 12453.37
277.3799, 12467.06
277.8621, 12482.99
278.3442, 12501.23
278.8263, 12517.21
279.3084, 12530.15
279.7905, 12540.11
280.2726, 12550.84
280.7548, 12564.80
281.2369, 12565.23
281.7190, 12528.70
282.2011, 12452.93
282.6832, 12414.87
283.1653, 12434.84
283.6475, 12486.30
284.1296, 12501.03
284.6117, 12475.94
285.0938, 12439.28
285.5759, 12409.38
286.0580, 12386.32
286.5402, 12363.45
287.0223, 12338.36
287.5044, 12315.01
287.9865, 12306.05
288.4686, 12312.74
288.9507, 12322.07
289.4329, 12322.13
289.9150, 12314.34
290.3971, 12311.61
290.8792, 12319.96
291.3614, 12332.24
291.8435, 12328.89
292.3256, 12309.06
292.8077, 12286.91
293.2898, 12281.33
293.7719, 12286.73
294.2541, 12274.53
294.7362, 12227.25
295.2183, 12163.75
295.7004, 12121.80
296.1825, 12101.56
296.6646, 12093.17
297.1468, 12095.63
297.6289, 12104.38
298.1110, 12103.24
298.5931, 12078.35
299.0752, 12045.51
299.5573, 12036.45
300.0395, 12051.46
300.5216, 12066.93
301.0037, 12054.75
301.4858, 12026.01
301.9679, 12008.12
302.4500, 12022.10
302.9322, 12047.45
303.4143, 12052.03
303.8964, 12035.83
304.3785, 12020.48
304.8606, 12031.29
305.3427, 12055.94
305.8249, 12070.36
306.3070, 12059.81
306.7891, 12036.55
307.2712, 12009.64
307.7533, 11978.48
308.2354, 11954.76
308.7176, 11953.95
309.1997, 11965.37
309.6818, 11971.60
310.1639, 11948.04
310.6460, 11926.76
311.1281, 11942.14
311.6103, 11996.78
312.0924, 12048.02
312.5745, 12074.13
313.0566, 12078.86
313.5387, 12067.19
314.0208, 12021.74
314.5030, 11975.54
314.9851, 11953.60
315.4672, 11959.89
315.9493, 11965.00
316.4314, 11952.74
316.9135, 11931.65
317.3957, 11912.34
317.8778, 11898.05
318.3599, 11887.38
318.8420, 11879.30
319.3241, 11873.52
319.8062, 11871.35
320.2884, 11868.10
320.7705, 11869.40
321.2526, 11882.33
321.7347, 11933.45
322.2168, 11974.17
322.6989, 11979.12
323.1811, 11937.92
323.6632, 11907.35
324.1453, 11906.61
324.6274, 11920.58
325.1095, 11931.02
325.5916, 11947.17
326.0738, 11948.72
326.5559, 11924.70
327.0380, 11866.31
327.5201, 11819.91
328.0022, 11795.93
328.4843, 11784.25
328.9665, 11771.85
329.4486, 11747.22
329.9307, 11733.45
330.4128, 11739.15
330.8949, 11771.81
331.3770, 11794.00
331.8592, 11801.29
332.3413, 11800.12
332.8234, 11797.75
333.3055, 11790.53
333.7876, 11786.56
334.2697, 11787.49
334.7519, 11793.28
335.2340, 11803.19
335.7161, 11818.72
336.1982, 11836.66
336.6803, 11853.71
337.1624, 11871.88
337.6446, 11884.12
338.1267, 11884.95
338.6088, 11872.37
339.0909, 11876.98
339.5730, 11906.17
340.0551, 11941.48
340.5373, 11960.82
341.0194, 11962.01
341.5015, 11956.27
341.9836, 11943.37
342.4657, 11924.40
342.9478, 11916.40
343.4300, 11920.75
343.9121, 11933.44
344.3942, 11949.27
344.8763, 11968.34
345.3584, 11995.51
345.8405, 12038.05
346.3227, 12090.91
346.8048, 12128.32
347.2869, 12149.06
347.7690, 12162.79
348.2511, 12176.36
348.7332, 12190.56
349.2154, 12212.31
349.6975, 12250.13
350.1796, 12294.99
350.6617, 12325.36
351.1438, 12340.97
351.6259, 12348.73
352.1081, 12352.99
352.5902, 12354.48
353.0723, 12354.79
353.5544, 12345.85
354.0365, 12341.18
354.5186, 12369.65
355.0008, 12430.12
355.4829, 12480.57
355.9650, 12485.34
356.4471, 12460.34
356.9292, 12428.88
357.4113, 12375.90
357.8935, 12339.49
358.3756, 12368.12
358.8577, 12455.45
359.3398, 12532.02
359.8219, 12549.75
360.3040, 12539.26
360.7862, 12531.89
361.2683, 12534.77
361.7504, 12545.66
362.2325, 12567.15
362.7146, 12597.60
363.1967, 12625.69
363.6789, 12640.50
364.1610, 12654.17
364.6431, 12675.70
365.1252, 12720.20
365.6073, 12757.66
366.0894, 12773.22
366.5716, 12771.82
367.0537, 12778.76
367.5358, 12807.27
368.0179, 12839.27
368.5000, 12865.09
368.9821, 12896.81
369.4643, 12907.07
369.9464, 12867.79
370.4285, 12799.49
370.9106, 12782.57
371.3927, 12874.15
371.8748, 12965.05
372.3570, 13007.04
372.8391, 12974.76
373.3212, 12939.60
373.8033, 12891.18
374.2855, 12843.11
374.7676, 12833.13
375.2497, 12881.22
375.7318, 12934.07
376.2139, 12967.71
376.6960, 12974.79
377.1782, 12990.05
377.6603, 13015.17
378.1424, 12980.86
378.6245, 13078.54
379.1066, 13140.48
379.5887, 13168.62
380.0709, 13061.68
380.5530, 13129.16
381.0351, 13126.74
381.5172, 13121.46
381.9993, 13213.49
382.4814, 13126.19
382.9636, 13216.69
383.4457, 13236.21
383.9278, 13288.21
384.4099, 13269.88
384.8920, 13273.27
385.3741, 13347.01
385.8563, 13381.81
386.3384, 13355.38
386.8205, 13409.45
387.3026, 13319.69
387.7847, 13356.14
388.2668, 13447.04
388.7490, 13424.15
389.2311, 13479.51
389.7132, 13505.06
390.1953, 13395.18
390.6774, 13520.83
391.1595, 13544.62
391.6417, 13463.83
392.1238, 13503.44
392.6059, 13494.04
393.0880, 13470.65
393.5701, 13455.64
394.0522, 13458.61
394.5344, 13476.04
395.0165, 13504.88
395.4986, 13556.52
395.9807, 13605.64
396.4628, 13632.58
396.9449, 13644.71
397.4271, 13679.66
397.9092, 13777.01
398.3913, 13879.15
398.8734, 13953.23
399.3555, 13978.27
399.8376, 13996.43
400.3198, 14007.90
400.8019, 14014.47
401.2840, 14021.89
401.7661, 14021.46
402.2482, 14030.71
402.7303, 14057.62
403.2125, 14111.25
403.6946, 14165.22
404.1767, 14226.39
404.6588, 14285.92
405.1409, 14320.56
405.6230, 14314.59
406.1052, 14321.60
406.5873, 14367.11
407.0694, 14457.31
407.5515, 14525.70
408.0336, 14563.89
408.5157, 14596.79
408.9979, 14658.77
409.4800, 14751.11
409.9621, 14854.03
410.4442, 14967.53
410.9263, 15086.16
411.4084, 15187.78
411.8906, 15270.04
412.3727, 15346.43
412.8548, 15425.72
413.3369, 15508.91
413.8190, 15599.25
414.3011, 15703.52
414.7833, 15811.63
415.2654, 15905.91
415.7475, 15987.41
416.2296, 16070.37
416.7117, 16151.08
417.1938, 16243.15
417.6760, 16371.14
418.1581, 16563.02
418.6402, 16760.60
419.1223, 16910.65
419.6044, 17026.36
420.0865, 17156.70
420.5687, 17336.67
421.0508, 17532.15
421.5329, 17715.34
422.0150, 17876.20
422.4971, 18039.27
422.9792, 18228.55
423.4614, 18424.96
423.9435, 18595.31
424.4256, 18682.76
424.9077, 18788.07
425.3898, 18957.52
425.8719, 19222.78
426.3541, 19461.07
426.8362, 19662.18
427.3183, 19838.76
427.8004, 20006.19
428.2825, 20143.49
428.7646, 20306.90
429.2468, 20517.03
429.7289, 20778.03
430.2110, 21014.74
430.6931, 21221.54
431.1752, 21412.88
431.6573, 21596.09
432.1395, 21765.79
432.6216, 21958.31
433.1037, 22190.40
433.5858, 22445.18
434.0679, 22668.37
434.5500, 22857.01
435.0322, 23028.09
435.5143, 23182.73
435.9964, 23325.89
436.4785, 23484.97
436.9606, 23669.85
437.4427, 23858.38
437.9249, 24017.72
438.4070, 24152.34
438.8891, 24274.71
439.3712, 24405.13
439.8533, 24524.47
440.3354, 24598.45
440.8176, 24617.13
441.2997, 24627.34
441.7818, 24680.67
442.2639, 24750.02
442.7460, 24787.16
443.2281, 24730.29
443.7103, 24669.31
444.1924, 24662.99
444.6745, 24715.53
445.1566, 24761.79
445.6387, 24793.34
446.1208, 24800.49
446.6030, 24774.28
447.0851, 24683.14
447.5672, 24591.01
448.0493, 24511.70
448.5314, 24443.02
449.0135, 24365.85
449.4957, 24269.96
449.9778, 24174.20
450.4599, 24089.40
450.9420, 24030.71
451.4241, 23954.26
451.9063, 23852.81
452.3884, 23735.88
452.8705, 23626.49
453.3526, 23525.07
453.8347, 23429.21
454.3168, 23344.13
454.7990, 23269.94
455.2811, 23177.16
455.7632, 23063.25
456.2453, 22935.20
456.7274, 22792.80
457.2096, 22637.66
457.6917, 22505.78
458.1738, 22420.21
458.6559, 22360.57
459.1380, 22282.93
459.6201, 22188.57
460.1023, 22079.67
460.5844, 21946.36
461.0665, 21802.62
461.5486, 21676.35
462.0307, 21582.84
462.5128, 21493.84
462.9950, 21392.96
463.4771, 21278.41
463.9592, 21149.28
464.4413, 20986.88
464.9234, 20819.80
465.4055, 20667.47
465.8877, 20533.88
466.3698, 20406.17
466.8519, 20290.36
467.3340, 20176.15
467.8161, 20050.80
468.2982, 19901.83
468.7804, 19752.93
469.2625, 19608.70
469.7446, 19470.63
470.2267, 19333.86
470.7088, 19194.12
471.1909, 19061.27
471.6731, 18943.68
472.1552, 18852.80
472.6373, 18748.61
473.1194, 18618.36
473.6015, 18472.41
474.0836, 18351.66
474.5658, 18258.45
475.0479, 18178.96
475.5300, 18108.59
476.0121, 18045.96
476.4942, 17978.93
476.9763, 17906.29
477.4585, 17827.98
477.9406, 17729.40
478.4227, 17618.81
478.9048, 17538.78
479.3869, 17544.30
479.8690, 17576.49
480.3512, 17546.95
480.8333, 17452.11
481.3154, 17350.67
481.7975, 17290.79
482.2796, 17248.27
482.7617, 17192.08
483.2439, 17087.68
483.7260, 16991.54
484.2081, 16938.20
484.6902, 16918.34
485.1723, 16887.00
485.6544, 16819.53
486.1366, 16745.62
486.6187, 16681.10
487.1008, 16636.22
487.5829, 16586.16
488.0650, 16523.54
488.5471, 16456.74
489.0293, 16401.13
489.5114, 16367.89
489.9935, 16327.44
490.4756, 16267.45
490.9577, 16188.24
491.4398, 16123.32
491.9220, 16078.19
492.4041, 16035.06
492.8862, 15970.36
493.3683, 15883.35
493.8504, 15814.47
494.3326, 15776.85
494.8147, 15756.10
495.2968, 15716.04
495.7789, 15659.30
496.2610, 15610.97
496.7431, 15599.86
497.2253, 15605.47
497.7074, 15585.63
498.1895, 15527.64
498.6716, 15477.14
499.1537, 15483.64
499.6358, 15521.24
500.1180, 15544.69
500.6001, 15523.97
501.0822, 15492.54
501.5643, 15464.38
502.0464, 15439.98
502.5285, 15422.50
503.0107, 15410.55
503.4928, 15406.76
503.9749, 15412.92
504.4570, 15455.74
504.9391, 15475.37
505.4212, 15464.37
505.9034, 15429.09
506.3855, 15384.53
506.8676, 15318.42
507.3497, 15265.08
507.8318, 15239.07
508.3139, 15242.65
508.7961, 15259.58
509.2782, 15294.75
509.7603, 15334.01
510.2424, 15360.63
510.7245, 15374.78
511.2066, 15382.76
511.6888, 15382.43
512.1709, 15379.49
512.6530, 15385.02
513.1351, 15398.56
513.6172, 15418.60
514.0994, 15446.68
514.5815, 15478.87
515.0636, 15514.00
515.5457, 15557.77
516.0278, 15584.55
516.5099, 15554.10
516.9921, 15496.57
517.4742, 15466.50
517.9563, 15509.17
518.4384, 15562.59
518.9205, 15602.33
519.4026, 15627.02
519.8848, 15647.72
520.3669, 15663.57
520.8490, 15678.91
521.3311, 15696.17
521.8132, 15707.19
522.2953, 15735.13
522.7775, 15786.14
523.2596, 15854.22
523.7417, 15920.19
524.2238, 15981.81
524.7059, 16047.67
525.1880, 16119.12
525.6702, 16195.23
526.1523, 16284.62
526.6344, 16384.78
527.1165, 16502.98
527.5986, 16651.05
528.0807, 16824.18
528.5629, 17002.99
529.0450, 17182.03
529.5271, 17361.40
530.0092, 17533.04
530.4913, 17699.87
530.9734, 17880.54
531.4556, 18087.04
531.9377, 18310.13
532.4198, 18539.02
532.9019, 18763.77
533.3840, 19017.57
533.8661, 19303.06
534.3483, 19626.96
534.8304, 19996.78
535.3125, 20461.38
535.7946, 20924.83
536.2767, 21366.96
536.7589, 21785.34
537.2410, 22219.75
537.7231, 22669.43
538.2052, 23130.58
538.6873, 23588.51
539.1694, 24021.79
539.6516, 24551.96
540.1337, 25214.09
540.6158, 25924.53
541.0979, 26545.58
541.5800, 27077.46
542.0621, 27586.73
542.5443, 28106.50
543.0264, 28631.65
543.5085, 29170.32
543.9906, 29726.70
544.4727, 30238.45
544.9548, 30687.17
545.4370, 31053.78
545.9191, 31311.27
546.4012, 31450.13
546.8833, 31485.83
547.3654, 31437.46
547.8475, 31291.59
548.3297, 31020.30
548.8118, 30600.73
549.2939, 30058.10
549.7760, 29383.27
550.2581, 28551.83
550.7402, 27708.16
551.2224, 26840.51
551.7045, 25973.95
552.1866, 25123.28
552.6687, 24276.22
553.1508, 23477.29
553.6329, 22727.18
554.1151, 22032.79
554.5972, 21397.86
555.0793, 20825.16
555.5614, 20289.18
556.0435, 19769.29
556.5256, 19275.63
557.0078, 18845.48
557.4899, 18479.03
557.9720, 18167.88
558.4541, 17906.29
558.9362, 17689.28
559.4183, 17513.32
559.9005, 17390.37
560.3826, 17286.87
560.8647, 17185.28
561.3468, 17085.40
561.8289, 16987.98
562.3110, 16881.85
562.7932, 16788.03
563.2753, 16717.23
563.7574, 16672.93
564.2395, 16639.99
564.7216, 16621.49
565.2037, 16609.90
565.6859, 16602.54
566.1680, 16612.51
566.6501, 16588.86
567.1322, 16505.54
567.6143, 16394.22
568.0964, 16357.16
568.5786, 16401.89
569.0607, 16458.39
569.5428, 16483.08
570.0249, 16487.26
570.5070, 16521.39
570.9891, 16589.40
571.4713, 16648.75
571.9534, 16646.39
572.4355, 16608.74
572.9176, 16581.95
573.3997, 16581.08
573.8818, 16593.81
574.3640, 16626.88
574.8461, 16669.41
575.3282, 16691.04
575.8103, 16650.27
576.2924, 16613.58
576.7745, 16614.77
577.2567, 16668.23
577.7388, 16709.03
578.2209, 16720.78
578.7030, 16732.74
579.1851, 16775.66
579.6672, 16870.11
580.1494, 16933.06
580.6315, 16945.14
581.1136, 16927.87
581.5957, 16936.21
582.0778, 16970.85
582.5599, 17005.05
583.0421, 17024.07
583.5242, 17032.44
584.0063, 17043.05
584.4884, 17056.04
584.9705, 17068.07
585.4526, 17090.20
585.9348, 17105.20
586.4169, 17085.55
586.8990, 16998.19
587.3811, 16918.87
587.8632, 16896.86
588.3453, 16909.80
588.8275, 16909.84
589.3096, 16859.68
589.7917, 16819.28
590.2738, 16817.30
590.7559, 16857.26
591.2380, 16869.38
591.7202, 16836.99
592.2023, 16799.30
592.6844, 16788.41
593.1665, 16811.20
593.6486, 16818.47
594.1307, 16802.38
594.6129, 16777.71
595.0950, 16768.99
595.5771, 16774.98
596.0592, 16784.01
596.5413, 16786.08
597.0234, 16790.78
597.5056, 16813.68
597.9877, 16853.35
598.4698, 16899.30
598.9519, 16964.48
599.4340, 17021.24
599.9161, 17034.30
600.3983, 16964.87
600.8804, 16937.46
601.3625, 17015.86
601.8446, 17147.92
602.3267, 17263.02
602.8088, 17358.85
603.2910, 17434.06
603.7731, 17476.45
604.2552, 17495.73
604.7373, 17544.35
605.2194, 17625.82
605.7015, 17725.23
606.1837, 17847.58
606.6658, 17988.49
607.1479, 18084.17
607.6300, 18127.72
608.1121, 18154.69
608.5942, 18186.08
609.0764, 18230.32
609.5585, 18310.23
610.0406, 18465.81
610.5227, 18613.32
611.0048, 18677.28
611.4869, 18680.46
611.9691, 18686.89
612.4512, 18713.50
612.9333, 18756.32
613.4154, 18823.11
613.8975, 18921.73
614.3796, 18988.54
614.8618, 19009.01
615.3439, 19007.66
615.8260, 18998.70
616.3081, 18977.75
616.7902, 18965.33
617.2723, 18968.26
617.7545, 18972.27
618.2366, 18942.98
618.7187, 18881.86
619.2008, 18837.72
619.6829, 18847.00
620.1650, 18875.03
620.6472, 18854.43
621.1293, 18790.49
621.6114, 18726.61
622.0935, 18708.38
622.5756, 18693.72
623.0577, 18639.25
623.5399, 18525.68
624.0220, 18417.21
624.5041, 18341.02
624.9862, 18278.35
625.4683, 18207.55
625.9504, 18120.49
626.4326, 18032.72
626.9147, 17941.78
627.3968, 17851.88
627.8789, 17775.84
628.3610, 17714.13
628.8431, 17668.51
629.3253, 17649.21
629.8074, 17650.20
630.2895, 17628.55
630.7716, 17583.47
631.2537, 17532.85
631.7358, 17487.57
632.2180, 17449.36
632.7001, 17424.02
633.1822, 17418.34
633.6643, 17410.44
634.1464, 17370.24
634.6285, 17320.20
635.1107, 17298.08
635.5928, 17325.47
636.0749, 17371.56
636.5570, 17443.80
637.0391, 17535.26
637.5212, 17583.76
638.0034, 17560.40
638.4855, 17536.42
638.9676, 17552.91
639.4497, 17618.63
639.9318, 17640.63
640.4139, 17610.26
640.8961, 17567.23
641.3782, 17557.56
641.8603, 17573.28
642.3424, 17583.25
642.8245, 17581.27
643.3066, 17568.21
643.7888, 17548.22
644.2709, 17518.12
644.7530, 17469.62
645.2351, 17377.39
645.7172, 17285.96
646.1993, 17219.65
646.6815, 17178.67
647.1636, 17142.93
647.6457, 17127.48
648.1278, 17101.84
648.6099, 17046.11
649.0920, 16942.03
649.5742, 16877.17
650.0563, 16865.52
650.5384, 16869.97
651.0205, 16835.62
651.5026, 16766.18
651.9847, 16725.60
652.4669, 16739.48
652.9490, 16771.73
653.4311, 16765.50
653.9132, 16730.03
654.3953, 16699.39
654.8774, 16703.55
655.3596, 16708.59
655.8417, 16685.14
656.3238, 16632.85
656.8059, 16584.45
657.2880, 16551.42
657.7701, 16524.62
658.2523, 16498.70
658.7344, 16472.02
659.2165, 16450.20
659.6986, 16434.89
660.1807, 16423.45
660.6628, 16415.62
661.1450, 16412.95
661.6271, 16399.45
662.1093, 16368.61
662.5914, 16330.37
663.0735, 16301.22
663.5556, 16281.21
664.0377, 16268.16
664.5198, 16270.20
665.0020, 16272.87
665.4841, 16255.89
665.9662, 16220.38
666.4483, 16198.36
666.9304, 16211.80
667.4125, 16237.17
667.8947, 16260.07
668.3768, 16278.83
668.8589, 16293.05
669.3410, 16296.69
669.8231, 16300.20
670.3052, 16318.61
670.7874, 16355.74
671.2695, 16383.57
671.7516, 16397.97
672.2337, 16398.93
672.7158, 16377.66
673.1979, 16338.82
673.6801, 16310.91
674.1622, 16320.82
674.6443, 16341.73
675.1264, 16337.81
675.6085, 16312.96
676.0906, 16302.91
676.5728, 16340.18
677.0549, 16387.21
677.5370, 16423.34
678.0191, 16449.34
678.5012, 16452.11
678.9833, 16415.39
679.4655, 16370.13
679.9476, 16346.57
680.4297, 16351.00
680.9118, 16350.74
681.3939, 16340.33
681.8760, 16326.69
682.3582, 16325.67
682.8403, 16334.90
683.3224, 16337.36
683.8045, 16317.09
684.2866, 16293.20
684.7687, 16290.55
685.2509, 16305.60
685.7330, 16321.10
686.2151, 16326.72
686.6972, 16330.95
687.1793, 16336.06
687.6614, 16339.61
688.1436, 16356.35
688.6257, 16399.80
689.1078, 16442.93
689.5899, 16463.59
690.0720, 16453.85
690.5541, 16456.54
691.0363, 16477.98
691.5184, 16504.57
692.0005, 16515.52
692.4826, 16513.30
692.9647, 16509.94
693.4468, 16509.09
693.9290, 16509.71
694.4111, 16504.52
694.8932, 16499.22
695.3753, 16509.80
695.8574, 16577.09
696.3395, 16631.62
696.8217, 16631.77
697.3038, 16573.51
697.7859, 16525.76
698.2680, 16483.08
698.7501, 16460.62
699.2322, 16472.98
699.7144, 16528.85
700.1965, 16561.17
700.6786, 16563.29
701.1607, 16564.08
701.6428, 16616.11
702.1249, 16696.73
702.6071, 16718.74
703.0892, 16645.90
703.5713, 16557.97
704.0534, 16525.15
704.5355, 16531.28
705.0176, 16547.02
705.4998, 16578.07
705.9819, 16599.98
706.4640, 16593.32
706.9461, 16567.29
707.4282, 16569.66
707.9103, 16621.95
708.3925, 16668.21
708.8746, 16684.29
709.3567, 16672.51
709.8388, 16678.17
710.3209, 16703.11
710.8030, 16729.74
711.2852, 16744.60
711.7673, 16750.45
712.2494, 16748.65
712.7315, 16736.59
713.2136, 16736.16
713.6957, 16771.57
714.1779, 16823.11
714.6600, 16868.34
715.1421, 16896.26
715.6242, 16924.30
716.1063, 16960.43
716.5884, 16995.83
717.0706, 17014.84
717.5527, 17010.20
718.0348, 17008.28
718.5169, 17018.94
718.9990, 17033.70
719.4811, 17020.86
719.9633, 16982.44
720.4454, 16952.36
720.9275, 16964.09
721.4096, 16988.04
721.8917, 16980.48
722.3738, 16944.17
722.8560, 16908.83
723.3381, 16883.85
723.8202, 16871.26
724.3023, 16875.80
724.7844, 16905.22
725.2665, 16926.11
725.7487, 16928.29
726.2308, 16929.95
726.7129, 16950.75
727.1950, 16997.30
727.6771, 17016.70
728.1592, 16997.27
728.6414, 16966.61
729.1235, 16970.98
729.6056, 16998.78
730.0877, 17010.15
730.5698, 16975.41
731.0519, 16942.82
731.5341, 16966.06
732.0162, 17023.33
732.4983, 17061.51
732.9804, 17046.80
733.4625, 17026.96
733.9446, 17016.75
734.4268, 17015.06
734.9089, 17014.34
735.3910, 17015.37
735.8731, 17015.67
736.3552, 17012.02
736.8373, 17005.79
737.3195, 17011.03
737.8016, 17028.48
738.2837, 17045.70
738.7658, 17048.33
739.2479, 17046.01
739.7300, 17054.49
740.2122, 17078.26
740.6943, 17100.82
741.1764, 17119.38
741.6585, 17129.72
742.1406, 17127.26
742.6227, 17088.98
743.1049, 17069.65
743.5870, 17074.87
744.0691, 17094.70
744.5512, 17116.57
745.0333, 17140.73
745.5154, 17158.69
745.9976, 17163.61
746.4797, 17167.04
746.9618, 17204.57
747.4439, 17262.49
747.9260, 17288.70
748.4081, 17222.30
748.8903, 17147.15
749.3724, 17128.34
749.8545, 17157.14
750.3366, 17169.07
750.8187, 17125.41
751.3008, 17086.35
751.7830, 17077.87
752.2651, 17101.71
752.7472, 17107.36
753.2293, 17090.55
753.7114, 17071.45
754.1935, 17069.53
754.6757, 17078.53
755.1578, 17062.95
755.6399, 17017.71
756.1220, 16988.65
756.6041, 17044.62
757.0862, 17124.32
757.5684, 17154.08
758.0505, 17095.23
758.5326, 17036.09
759.0147, 16988.92
759.4968, 16960.61
759.9789, 16956.74
760.4611, 16977.20
760.9432, 17027.40
761.4253, 17125.75
761.9074, 17229.68
762.3895, 17245.40
762.8716, 17182.02
763.3538, 17132.58
763.8359, 17136.23
764.3180, 17163.02
764.8001, 17183.50
765.2822, 17198.88
765.7643, 17212.02
766.2465, 17230.22
766.7286, 17241.25
767.2107, 17237.95
767.6928, 17221.36
768.1749, 17205.16
768.6570, 17188.44
769.1392, 17174.96
769.6213, 17164.40
770.1034, 17157.68
770.5855, 17166.76
771.0676, 17192.06
771.5497, 17220.62
772.0319, 17244.53
772.5140, 17264.16
772.9961, 17281.15
773.4782, 17296.00
773.9603, 17302.62
774.4424, 17282.06
774.9246, 17261.67
775.4067, 17264.72
775.8888, 17306.71
776.3709, 17346.01
776.8530, 17391.05
777.3351, 17422.90
777.8173, 17403.79
778.2994, 17333.45
778.7815, 17317.83
779.2636, 17387.57
779.7457, 17473.77
780.2278, 17467.35
780.7100, 17413.38
781.1921, 17406.25
781.6742, 17539.84
782.1563, 17652.73
782.6384, 17651.90
783.1205, 17578.63
783.6027, 17526.96
784.0848, 17507.78
784.5669, 17501.98
785.0490, 17506.20
785.5311, 17521.23
786.0132, 17560.98
786.4954, 17626.51
786.9775, 17665.79
787.4596, 17635.22
787.9417, 17576.45
788.4238, 17555.07
788.9059, 17566.27
789.3881, 17585.64
789.8702, 17612.71
790.3523, 17634.40
790.8344, 17636.40
791.3165, 17616.21
791.7986, 17622.69
792.2808, 17675.77
792.7629, 17725.17
793.2450, 17738.17
793.7271, 17715.09
794.2092, 17723.10
794.6913, 17764.04
795.1735, 17804.97
795.6556, 17804.21
796.1377, 17789.14
796.6198, 17806.05
797.1019, 17864.65
797.5840, 17922.26
798.0662, 17964.38
798.5483, 17992.54
799.0304, 18007.69
799.5125, 18007.98
799.9946, 18000.97
800.4767, 17984.79
800.9589, 17965.59
801.4410, 17953.34
801.9231, 17947.52
802.4052, 17928.60
802.8873, 17890.69
803.3694, 17851.82
803.8516, 17822.57
804.3337, 17808.52
804.8158, 17821.38
805.2979, 17899.56
805.7800, 17956.08
806.2621, 17939.56
806.7443, 17888.19
807.2264, 17872.17
807.7085, 17910.11
808.1906, 17938.99
808.6727, 17944.58
809.1548, 17937.66
809.6370, 17946.16
810.1191, 17966.64
810.6012, 17975.58
811.0833, 17960.78
811.5654, 17933.02
812.0475, 17889.90
812.5297, 17841.90
813.0118, 17819.04
813.4939, 17862.25
813.9760, 17899.89
814.4581, 17905.03
814.9402, 17885.11
815.4224, 17872.87
815.9045, 17869.74
816.3866, 17870.35
816.8687, 17877.17
817.3508, 17884.37
817.8329, 17864.99
818.3151, 17824.09
818.7972, 17798.15
819.2793, 17836.05
819.7614, 17877.76
820.2435, 17865.14
820.7256, 17798.02
821.2078, 17752.84
821.6899, 17763.27
822.1720, 17780.28
822.6541, 17783.51
823.1362, 17772.51
823.6183, 17780.13
824.1005, 17808.98
824.5826, 17839.77
825.0647, 17858.89
825.5469, 17869.75
826.0290, 17881.88
826.5111, 17895.94
826.9932, 17896.48
827.4753, 17850.36
827.9575, 17803.66
828.4396, 17798.07
828.9217, 17860.81
829.4038, 17881.27
829.8859, 17829.03
830.3680, 17779.14
830.8502, 17801.23
831.3323, 17892.00
831.8144, 17942.83
832.2965, 17944.52
832.7786, 17930.29
833.2607, 17930.22
833.7429, 17933.45
834.2250, 17921.42
834.7071, 17882.58
835.1892, 17857.35
835.6713, 17877.56
836.1534, 17906.59
836.6356, 17908.46
837.1177, 17861.86
837.5998, 17855.89
838.0819, 17908.39
838.5640, 17967.10
839.0461, 17958.59
839.5283, 17901.03
840.0104, 17862.47
840.4925, 17855.24
840.9746, 17869.74
841.4567, 17922.47
841.9388, 17982.18
842.4210, 18012.22
842.9031, 17986.19
843.3852, 17952.72
843.8673, 17902.06
844.3494, 17857.01
844.8315, 17852.06
845.3137, 17890.46
845.7958, 17921.99
846.2779, 17937.19
846.7600, 17947.39
847.2421, 17969.21
847.7242, 17996.61
848.2064, 18017.78
848.6885, 18027.83
849.1706, 18032.45
849.6527, 18028.91
850.1348, 18022.69
850.6169, 18021.25
851.0991, 18018.86
851.5812, 18037.45
852.0633, 18089.22
852.5454, 18147.88
853.0275, 18166.16
853.5096, 18148.95
853.9918, 18119.71
854.4739, 18073.05
854.9560, 18039.37
855.4381, 18061.03
855.9202, 18109.87
856.4023, 18137.19
856.8845, 18112.35
857.3666, 18085.94
857.8487, 18058.81
858.3308, 18038.39
858.8129, 18044.13
859.2950, 18079.04
859.7772, 18102.96
860.2593, 18102.06
860.7414, 18093.58
861.2235, 18114.03
861.7056, 18147.15
862.1877, 18154.54
862.6699, 18077.39
863.1520, 18020.00
863.6341, 18039.79
864.1162, 18105.36
864.5983, 18142.52
865.0804, 18144.00
865.5626, 18134.56
866.0447, 18113.76
866.5268, 18091.11
867.0089, 18082.72
867.4910, 18088.54
867.9731, 18110.14
868.4553, 18161.08
868.9374, 18210.96
869.4195, 18224.89
869.9016, 18221.35
870.3837, 18239.54
870.8658, 18334.47
871.3480, 18388.25
871.8301, 18365.54
872.3122, 18304.11
872.7943, 18294.60
873.2764, 18337.08
873.7585, 18371.28
874.2407, 18375.27
874.7228, 18366.87
875.2049, 18375.20
875.6870, 18388.48
876.1691, 18381.28
876.6512, 18324.26
877.1334, 18269.09
877.6155, 18228.64
878.0976, 18201.72
878.5797, 18189.03
879.0618, 18193.44
879.5439, 18204.34
880.0261, 18227.01
880.5082, 18243.08
880.9903, 18205.06
881.4724, 18132.58
881.9545, 18081.00
882.4366, 18082.53
882.9188, 18098.06
883.4009, 18111.92
883.8830, 18124.84
884.3651, 18138.47
884.8472, 18149.58
885.3293, 18166.08
885.8115, 18187.44
886.2936, 18216.15
886.7757, 18272.80
887.2578, 18346.91
887.7399, 18377.57
888.2220, 18321.29
888.7042, 18256.67
889.1863, 18251.92
889.6684, 18282.56
890.1505, 18308.05
890.6326, 18317.60
891.1147, 18323.38
891.5969, 18327.22
892.0790, 18328.11
892.5611, 18322.45
893.0432, 18310.67
893.5253, 18301.16
894.0074, 18294.11
894.4896, 18294.96
894.9717, 18318.36
895.4538, 18352.04
895.9359, 18375.11
896.4180, 18372.91
896.9001, 18371.40
897.3823, 18381.48
897.8644, 18391.62
898.3465, 18382.68
898.8286, 18347.79
899.3107, 18340.24
899.7928, 18372.66
900.2750, 18415.79
900.7571, 18428.32
901.2392, 18424.06
901.7213, 18432.37
902.2034, 18472.37
902.6855, 18496.76
903.1677, 18453.10
903.6498, 18401.29
904.1319, 18414.71
904.6140, 18534.31
905.0961, 18584.15
905.5782, 18537.56
906.0604, 18470.89
906.5425, 18478.32
907.0246, 18535.89
907.5067, 18578.65
907.9888, 18593.88
908.4709, 18604.33
908.9531, 18628.53
909.4352, 18651.73
909.9173, 18658.38
910.3994, 18635.55
910.8815, 18629.11
911.3636, 18642.47
911.8458, 18664.33
912.3279, 18687.91
912.8100, 18711.48
913.2921, 18726.67
913.7742, 18732.32
914.2563, 18737.99
914.7385, 18746.86
915.2206, 18761.44
915.7027, 18786.66
916.1848, 18827.15
916.6669, 18858.65
917.1490, 18881.15
917.6312, 18894.09
918.1133, 18894.39
918.5954, 18883.64
919.0775, 18873.47
919.5596, 18864.29
920.0417, 18863.69
920.5239, 18888.92
921.0060, 18916.71
921.4881, 18923.04
921.9702, 18906.51
922.4523, 18899.45
922.9344, 18903.52
923.4166, 18921.82
923.8987, 18964.06
924.3808, 19022.57
924.8629, 19047.65
925.3450, 19040.17
925.8271, 19023.33
926.3093, 18995.47
926.7914, 18976.59
927.2735, 18992.24
927.7556, 19035.55
928.2377, 19074.39
928.7198, 19097.79
929.2020, 19118.43
929.6841, 19143.64
930.1662, 19166.75
930.6483, 19156.47
931.1304, 19114.13
931.6125, 19089.63
932.0947, 19113.97
932.5768, 19151.86
933.0589, 19163.74
933.5410, 19159.14
934.0231, 19158.98
934.5052, 19171.46
934.9874, 19187.54
935.4695, 19204.69
935.9516, 19225.15
936.4337, 19257.79
936.9158, 19302.56
937.3979, 19332.80
937.8801, 19338.15
938.3622, 19337.18
938.8443, 19343.95
939.3264, 19360.77
939.8085, 19393.51
940.2906, 19470.33
940.7728, 19516.15
941.2549, 19500.21
941.7370, 19466.59
942.2191, 19458.73
942.7012, 19477.72
943.1833, 19500.85
943.6655, 19526.45
944.1476, 19554.59
944.6297, 19584.54
945.1118, 19617.49
945.5939, 19658.28
946.0760, 19713.76
946.5582, 19750.77
947.0403, 19740.23
947.5224, 19729.21
948.0045, 19747.94
948.4866, 19798.01
948.9688, 19826.51
949.4509, 19831.39
949.9330, 19838.55
950.4151, 19865.73
950.8972, 19907.12
951.3793, 19961.81
951.8615, 20028.30
952.3436, 20086.10
952.8257, 20134.08
953.3078, 20165.01
953.7899, 20165.88
954.2720, 20146.87
954.7542, 20172.36
955.2363, 20242.16
955.7184, 20326.19
956.2005, 20417.27
956.6826, 20507.46
957.1647, 20581.13
957.6469, 20647.13
958.1290, 20730.04
958.6111, 20862.06
959.0932, 20978.35
959.5753, 21055.37
960.0574, 21118.12
960.5396, 21223.84
961.0217, 21369.03
961.5038, 21519.23
961.9859, 21668.26
962.4680, 21813.64
962.9501, 21929.03
963.4323, 22046.67
963.9144, 22213.57
964.3965, 22482.49
964.8786, 22729.50
965.3607, 22917.30
965.8428, 23120.51
966.3250, 23435.49
966.8071, 23852.96
967.2892, 24244.93
967.7713, 24596.28
968.2534, 24954.83
968.7355, 25354.67
969.2177, 25789.55
969.6998, 26252.03
970.1819, 26748.81
970.6640, 27256.63
971.1461, 27790.52
971.6282, 28315.07
972.1104, 28807.30
972.5925, 29273.82
973.0746, 29751.37
973.5567, 30242.07
974.0388, 30722.36
974.5209, 31176.81
975.0031, 31625.79
975.4852, 32089.51
975.9673, 32563.66
976.4494, 32988.15
976.9315, 33343.68
977.4136, 33697.25
977.8958, 34071.34
978.3779, 34446.69
978.8600, 34772.30
979.3421, 35062.46
979.8242, 35384.73
980.3063, 35777.88
980.7885, 36188.30
981.2706, 36565.64
981.7527, 36949.89
982.2348, 37403.33
982.7169, 37948.81
983.1990, 38490.84
983.6812, 39009.90
984.1633, 39563.77
984.6454, 40249.79
985.1275, 41016.57
985.6096, 41760.79
986.0917, 42469.58
986.5739, 43148.76
987.0560, 43818.77
987.5381, 44451.17
988.0202, 45038.51
988.5023, 45583.03
988.9844, 46059.89
989.4666, 46477.45
989.9487, 46756.15
990.4308, 46826.98
990.9130, 46729.27
991.3951, 46513.98
991.8772, 46179.45
992.3593, 45712.47
992.8414, 45035.89
993.3235, 44299.73
993.8057, 43558.09
994.2878, 42798.00
994.7699, 41950.36
995.2520, 41018.21
995.7341, 40101.53
996.2162, 39242.46
996.6984, 38417.61
997.1805, 37614.13
997.6626, 36823.66
998.1447, 36054.43
998.6268, 35254.79
999.1089, 34546.04
999.5911, 33958.90
1000.073, 33423.90
1000.555, 32859.07
1001.037, 32268.64
1001.520, 31686.90
1002.002, 31114.53
1002.484, 30585.18
1002.966, 30141.50
1003.448, 29728.99
1003.930, 29300.76
1004.412, 28841.41
1004.894, 28447.49
1005.376, 28123.30
1005.859, 27842.12
1006.341, 27603.48
1006.823, 27386.01
1007.305, 27108.59
1007.787, 26792.59
1008.269, 26523.33
1008.751, 26368.35
1009.233, 26237.36
1009.716, 26099.56
1010.198, 25956.38
1010.680, 25803.57
1011.162, 25633.33
1011.644, 25506.50
1012.126, 25444.05
1012.608, 25399.94
1013.090, 25307.83
1013.572, 25199.41
1014.055, 25127.37
1014.537, 25132.43
1015.019, 25095.04
1015.501, 24971.12
1015.983, 24827.90
1016.465, 24707.04
1016.947, 24609.71
1017.429, 24546.66
1017.911, 24517.54
1018.394, 24485.15
1018.876, 24401.45
1019.358, 24321.20
1019.840, 24303.41
1020.322, 24341.17
1020.804, 24338.66
1021.286, 24287.11
1021.768, 24203.04
1022.251, 24073.67
1022.733, 23935.97
1023.215, 23881.46
1023.697, 23886.41
1024.179, 23877.81
1024.661, 23812.22
1025.143, 23756.36
1025.625, 23750.67
1026.107, 23763.11
1026.590, 23754.83
1027.072, 23719.05
1027.554, 23695.85
1028.036, 23686.88
1028.518, 23691.78
1029.000, 23724.16
1029.482, 23762.87
1029.964, 23774.03
1030.447, 23754.16
1030.929, 23753.05
1031.411, 23818.25
1031.893, 23857.38
1032.375, 23823.55
1032.857, 23742.51
1033.339, 23724.56
1033.821, 23762.55
1034.303, 23802.66
1034.786, 23829.54
1035.268, 23838.74
1035.750, 23801.31
1036.232, 23750.95
1036.714, 23754.43
1037.196, 23839.42
1037.678, 23904.01
1038.160, 23934.66
1038.642, 23956.19
1039.125, 24005.09
1039.607, 24063.62
1040.089, 24092.18
1040.571, 24083.52
1041.053, 24077.07
1041.535, 24109.90
1042.017, 24126.99
1042.499, 24085.91
1042.982, 23999.42
1043.464, 24002.44
1043.946, 24093.60
1044.428, 24165.59
1044.910, 24145.31
1045.392, 24096.54
1045.874, 24059.88
1046.356, 24041.14
1046.839, 24055.95
1047.321, 24136.45
1047.803, 24188.98
1048.285, 24197.98
1048.767, 24187.05
1049.249, 24180.82
1049.731, 24180.63
1050.213, 24191.56
1050.695, 24215.03
1051.177, 24243.28
1051.660, 24286.94
1052.142, 24321.27
1052.624, 24328.14
1053.106, 24308.75
1053.588, 24301.51
1054.070, 24307.23
1054.552, 24317.88
1055.034, 24326.91
1055.517, 24340.96
1055.999, 24371.15
1056.481, 24411.92
1056.963, 24449.44
1057.445, 24489.16
1057.927, 24506.11
1058.409, 24482.65
1058.891, 24459.22
1059.374, 24510.56
1059.856, 24610.08
1060.338, 24662.29
1060.820, 24645.74
1061.302, 24636.72
1061.784, 24698.53
1062.266, 24764.62
1062.748, 24785.84
1063.230, 24763.85
1063.713, 24774.75
1064.195, 24821.78
1064.677, 24869.93
1065.159, 24891.17
1065.641, 24913.36
1066.123, 24978.56
1066.605, 25068.69
1067.087, 25142.45
1067.569, 25171.57
1068.052, 25209.23
1068.534, 25259.24
1069.016, 25316.77
1069.498, 25380.91
1069.980, 25447.07
1070.462, 25495.43
1070.944, 25520.73
1071.426, 25571.01
1071.909, 25709.58
1072.391, 25849.32
1072.873, 25943.42
1073.355, 25994.21
1073.837, 26014.51
1074.319, 26002.54
1074.801, 26021.79
1075.283, 26120.52
1075.766, 26242.49
1076.248, 26320.26
1076.730, 26376.78
1077.212, 26452.12
1077.694, 26568.39
1078.176, 26677.76
1078.658, 26773.73
1079.140, 26871.09
1079.622, 26991.52
1080.105, 27125.23
1080.587, 27254.81
1081.069, 27377.70
1081.551, 27470.76
1082.033, 27478.09
1082.515, 27500.79
1082.997, 27594.54
1083.479, 27740.00
1083.962, 27851.42
1084.444, 27930.79
1084.926, 28020.39
1085.408, 28148.81
1085.890, 28268.14
1086.372, 28313.49
1086.854, 28331.21
1087.336, 28387.19
1087.818, 28501.20
1088.301, 28627.15
1088.783, 28775.29
1089.265, 28897.68
1089.747, 28929.75
1090.229, 28915.79
1090.711, 28947.40
1091.193, 29019.68
1091.675, 29068.26
1092.157, 29058.43
1092.640, 29032.25
1093.122, 28998.65
1093.604, 28959.09
1094.086, 28923.25
1094.568, 28886.88
1095.050, 28817.90
1095.532, 28696.61
1096.014, 28583.04
1096.497, 28535.92
1096.979, 28503.44
1097.461, 28434.38
1097.943, 28321.40
1098.425, 28230.88
1098.907, 28166.71
1099.389, 28084.25
1099.871, 27930.33
1100.354, 27759.73
1100.836, 27638.05
1101.318, 27554.43
1101.800, 27477.32
1102.282, 27411.88
1102.764, 27328.99
1103.246, 27216.95
1103.728, 27105.12
1104.210, 27042.45
1104.693, 27010.59
1105.175, 26959.12
1105.657, 26879.95
1106.139, 26803.63
1106.621, 26751.89
1107.103, 26696.73
1107.585, 26615.45
1108.067, 26519.95
1108.549, 26483.00
1109.032, 26499.13
1109.514, 26497.66
1109.996, 26440.16
1110.478, 26369.71
1110.960, 26297.91
1111.442, 26242.40
1111.924, 26232.56
1112.406, 26287.98
1112.889, 26317.17
1113.371, 26313.57
1113.853, 26309.20
1114.335, 26334.81
1114.817, 26372.91
1115.299, 26401.65
1115.781, 26420.77
1116.263, 26438.85
1116.745, 26461.68
1117.228, 26476.10
1117.710, 26479.03
1118.192, 26472.90
1118.674, 26458.40
1119.156, 26438.83
1119.638, 26422.74
1120.120, 26412.70
1120.602, 26403.94
1121.084, 26382.24
1121.567, 26375.27
1122.049, 26410.30
1122.531, 26478.46
1123.013, 26482.73
1123.495, 26429.29
1123.977, 26382.52
1124.459, 26372.29
1124.941, 26383.24
1125.424, 26424.08
1125.906, 26473.50
1126.388, 26493.63
1126.870, 26476.51
1127.352, 26469.54
1127.834, 26477.85
1128.316, 26485.00
1128.798, 26466.75
1129.281, 26445.85
1129.763, 26457.58
1130.245, 26499.53
1130.727, 26502.79
1131.209, 26445.55
1131.691, 26389.01
1132.173, 26340.94
1132.655, 26315.93
1133.137, 26369.52
1133.620, 26456.67
1134.102, 26478.99
1134.584, 26380.20
1135.066, 26321.51
1135.548, 26355.55
1136.030, 26411.58
1136.512, 26453.00
1136.994, 26481.63
1137.476, 26507.47
1137.959, 26529.06
1138.441, 26540.55
1138.923, 26550.62
1139.405, 26536.23
1139.887, 26457.34
1140.369, 26366.56
1140.851, 26334.59
1141.333, 26362.49
1141.816, 26382.39
1142.298, 26389.26
1142.780, 26383.89
1143.262, 26342.50
1143.744, 26310.74
1144.226, 26335.02
1144.708, 26406.12
1145.190, 26448.50
1145.672, 26454.88
1146.155, 26478.69
1146.637, 26544.70
1147.119, 26603.93
1147.601, 26574.84
1148.083, 26514.27
1148.565, 26498.35
1149.047, 26558.45
1149.529, 26596.96
1150.011, 26602.54
1150.494, 26613.77
1150.976, 26674.62
1151.458, 26740.62
1151.940, 26695.17
1152.422, 26582.14
1152.904, 26520.00
1153.386, 26619.63
1153.868, 26672.97
1154.351, 26638.86
1154.833, 26585.76
1155.315, 26592.06
1155.797, 26639.67
1156.279, 26668.54
1156.761, 26676.09
1157.243, 26679.80
1157.725, 26684.03
1158.208, 26690.15
1158.690, 26699.13
1159.172, 26708.54
1159.654, 26713.47
1160.136, 26713.66
1160.618, 26707.11
1161.100, 26689.60
1161.582, 26684.56
1162.064, 26730.29
1162.547, 26774.19
1163.029, 26775.85
1163.511, 26738.67
1163.993, 26705.01
1164.475, 26675.40
1164.957, 26670.23
1165.439, 26722.94
1165.921, 26766.94
1166.403, 26733.20
1166.886, 26664.36
1167.368, 26621.30
1167.850, 26615.59
1168.332, 26650.75
1168.814, 26703.85
1169.296, 26730.21
1169.778, 26731.29
1170.260, 26631.33
1170.743, 26661.82
1171.225, 26640.04
1171.707, 26616.12
1172.189, 26664.99
1172.671, 26579.73
1173.153, 26627.44
1173.635, 26622.07
1174.117, 26641.00
1174.599, 26607.32
1175.082, 26589.88
1175.564, 26625.07
1176.046, 26631.12
1176.528, 26591.39
1177.010, 26611.86
1177.492, 26524.76
1177.974, 26532.05
1178.456, 26580.08
1178.938, 26542.99
1179.421, 26564.41
1179.903, 26563.55
1180.385, 26461.40
1180.867, 26394.08
1181.349, 26380.67
1181.831, 26375.23
1182.313, 26377.64
1182.795, 26398.56
1183.278, 26427.81
1183.760, 26431.16
1184.242, 26359.34
1184.724, 26307.65
1185.206, 26318.70
1185.688, 26329.70
1186.170, 26261.27
1186.652, 26135.79
1187.135, 26096.21
1187.617, 26137.98
1188.099, 26168.12
1188.581, 26126.04
1189.063, 26073.73
1189.545, 26024.97
1190.027, 25989.27
1190.509, 25996.91
1190.991, 26039.24
1191.474, 26036.16
1191.956, 25973.24
1192.438, 25922.20
1192.920, 25955.42
1193.402, 25988.97
1193.884, 25963.40
1194.366, 25898.35
1194.848, 25880.10
1195.330, 25903.40
1195.813, 25890.33
1196.295, 25801.00
1196.777, 25726.37
1197.259, 25762.35
1197.741, 25821.86
1198.223, 25826.28
1198.705, 25775.64
1199.187, 25741.34
1199.670, 25723.45
1200.152, 25692.21
1200.634, 25608.42
1201.116, 25540.22
1201.598, 25561.94
1202.080, 25619.91
1202.562, 25637.93
1203.044, 25605.85
1203.526, 25573.15
1204.009, 25538.86
1204.491, 25528.64
1204.973, 25595.59
1205.455, 25662.06
1205.937, 25648.13
1206.419, 25583.14
1206.901, 25548.46
1207.383, 25547.54
1207.865, 25570.76
1208.348, 25620.73
1208.830, 25666.90
1209.312, 25681.03
1209.794, 25677.29
1210.276, 25660.60
1210.758, 25635.41
1211.240, 25633.00
1211.722, 25662.77
1212.205, 25666.90
1212.687, 25625.97
1213.169, 25583.14
1213.651, 25597.93
1214.133, 25630.46
1214.615, 25632.79
1215.097, 25595.83
1215.579, 25587.12
1216.062, 25615.18
1216.544, 25631.39
1217.026, 25615.43
1217.508, 25584.42
1217.990, 25544.94
1218.472, 25511.25
1218.954, 25504.77
1219.436, 25535.29
1219.918, 25567.67
1220.401, 25601.45
1220.883, 25637.34
1221.365, 25688.12
1221.847, 25728.99
1222.329, 25717.85
1222.811, 25674.97
1223.293, 25639.63
1223.775, 25608.15
1224.257, 25610.90
1224.740, 25654.31
1225.222, 25706.55
1225.704, 25765.50
1226.186, 25802.10
1226.668, 25747.29
1227.150, 25636.17
1227.632, 25594.77
1228.114, 25664.40
1228.597, 25719.43
1229.079, 25749.01
1229.561, 25754.84
1230.043, 25713.30
1230.525, 25665.91
1231.007, 25674.70
1231.489, 25733.20
1231.971, 25757.88
1232.453, 25731.63
1232.936, 25709.55
1233.418, 25699.60
1233.900, 25707.24
1234.382, 25765.23
1234.864, 25828.84
1235.346, 25838.62
1235.828, 25785.97
1236.310, 25742.83
1236.792, 25710.28
1237.275, 25695.38
1237.757, 25702.87
1238.239, 25723.68
1238.721, 25757.68
1239.203, 25791.38
1239.685, 25807.12
1240.167, 25799.60
1240.650, 25782.17
1241.132, 25752.64
1241.614, 25723.70
1242.096, 25698.34
1242.578, 25679.78
1243.060, 25668.00
1243.542, 25666.87
1244.024, 25683.82
1244.506, 25722.94
1244.989, 25776.07
1245.471, 25851.44
1245.953, 25883.48
1246.435, 25789.43
1246.917, 25669.94
1247.399, 25633.30
1247.881, 25654.03
1248.363, 25689.61
1248.845, 25751.54
1249.328, 25759.61
1249.810, 25703.79
1250.292, 25662.16
1250.774, 25719.75
1251.256, 25796.85
1251.738, 25812.74
1252.220, 25788.25
1252.702, 25781.89
1253.185, 25796.46
1253.667, 25827.06
1254.149, 25876.14
1254.631, 25911.43
1255.113, 25903.69
1255.595, 25871.62
1256.077, 25810.78
1256.559, 25740.48
1257.042, 25724.12
1257.524, 25769.15
1258.006, 25796.42
1258.488, 25793.78
1258.970, 25780.24
1259.452, 25753.84
1259.934, 25739.52
1260.416, 25769.71
1260.898, 25828.46
1261.380, 25859.09
1261.863, 25861.82
1262.345, 25869.76
1262.827, 25894.07
1263.309, 25901.29
1263.791, 25832.35
1264.273, 25768.12
1264.755, 25772.74
1265.237, 25831.08
1265.720, 25876.55
1266.202, 25909.08
1266.684, 25922.29
1267.166, 25910.04
1267.648, 25893.75
1268.130, 25881.20
1268.612, 25873.46
1269.094, 25867.37
1269.577, 25865.42
1270.059, 25890.50
1270.541, 25936.27
1271.023, 25973.96
1271.505, 25991.99
1271.987, 26003.37
1272.469, 26019.64
1272.951, 26024.50
1273.433, 26004.02
1273.916, 25965.02
1274.398, 25932.42
1274.880, 25907.82
1275.362, 25894.34
1275.844, 25895.97
1276.326, 25907.80
1276.808, 25935.32
1277.290, 25963.40
1277.772, 25981.62
1278.255, 25991.03
1278.737, 25987.12
1279.219, 25976.68
1279.701, 25983.47
1280.183, 26029.63
1280.665, 26074.77
1281.147, 26120.59
1281.629, 26149.55
1282.112, 26137.93
1282.594, 26102.24
1283.076, 26060.07
1283.558, 26021.62
1284.040, 26024.40
1284.522, 26121.63
1285.004, 26173.15
1285.486, 26161.96
1285.969, 26131.29
1286.451, 26111.80
1286.933, 26105.48
1287.415, 26123.45
1287.897, 26158.76
1288.379, 26179.97
1288.861, 26180.20
1289.343, 26184.34
1289.825, 26193.84
##END=



