##NAMES=Hauyne
##RRUFFID=R050606
##IDEAL CHEMISTRY=Na_3_Ca(Si_3_Al_3_)O_12_(S^6+^O_4_)
##LOCALITY=Ariccia, near Rome, Italy
##OWNER=RRUFF
##SOURCE=University of Arizona Mineral Museum
##DESCRIPTION=Blue crystal embedded in calcite
##STATUS=The identification of this mineral has been confirmed only by X-ray diffraction
##URL=rruff.info/R050606
92.06543, 265.9822
92.54755, 262.0121
93.02966, 262.3272
93.51178, 268.0298
93.99390, 272.0937
94.47601, 273.7617
94.95813, 273.6859
95.44025, 272.9579
95.92236, 272.3901
96.40448, 271.9046
96.88660, 271.4880
97.36871, 271.4225
97.85082, 271.4297
98.33294, 271.2718
98.81506, 270.7650
99.29717, 269.7473
99.77929, 269.4753
100.2614, 269.9645
100.7435, 270.0177
101.2256, 268.6461
101.7078, 266.5732
102.1899, 265.6088
102.6720, 266.5227
103.1541, 268.0746
103.6362, 268.9518
104.1183, 269.1596
104.6005, 269.3648
105.0826, 270.3326
105.5647, 272.2384
106.0468, 273.4674
106.5289, 272.7370
107.0110, 271.7167
107.4931, 271.4094
107.9753, 272.0927
108.4574, 273.3287
108.9395, 274.2976
109.4216, 274.9975
109.9037, 275.3414
110.3858, 275.2546
110.8680, 274.8750
111.3501, 274.2368
111.8322, 273.3310
112.3143, 272.2820
112.7964, 271.9243
113.2785, 272.9036
113.7607, 273.8155
114.2428, 274.4318
114.7249, 274.7112
115.2070, 274.6182
115.6891, 274.0936
116.1712, 273.1069
116.6534, 272.0229
117.1355, 270.7977
117.6176, 269.5070
118.0997, 268.1239
118.5818, 266.6287
119.0639, 265.2809
119.5461, 264.4892
120.0282, 264.0814
120.5103, 263.5642
120.9924, 262.6458
121.4745, 261.5220
121.9566, 260.7094
122.4388, 260.5411
122.9209, 260.2283
123.4030, 259.2922
123.8851, 257.8095
124.3672, 256.0244
124.8493, 253.8363
125.3315, 251.1523
125.8136, 249.3284
126.2957, 249.5291
126.7778, 249.8625
127.2599, 249.6157
127.7420, 248.6881
128.2242, 247.3581
128.7063, 245.9697
129.1884, 244.4529
129.6705, 243.0119
130.1526, 241.7273
130.6347, 240.4518
131.1169, 239.0178
131.5990, 237.3844
132.0811, 235.7165
132.5632, 234.3859
133.0453, 233.7269
133.5274, 233.0109
134.0096, 232.1045
134.4917, 231.1423
134.9738, 230.3283
135.4559, 229.7650
135.9380, 229.3917
136.4201, 229.0061
136.9023, 228.5898
137.3844, 228.1922
137.8665, 227.7009
138.3486, 227.1900
138.8307, 227.0742
139.3128, 227.9571
139.7950, 229.2259
140.2771, 229.4785
140.7592, 228.0326
141.2413, 226.1707
141.7234, 225.2635
142.2055, 225.4913
142.6877, 225.7606
143.1698, 225.3558
143.6519, 224.6736
144.1340, 224.1270
144.6161, 223.8012
145.0982, 223.7520
145.5803, 224.2365
146.0625, 225.8410
146.5446, 227.0128
147.0267, 227.0685
147.5088, 226.4200
147.9909, 225.6603
148.4730, 225.1102
148.9552, 224.7780
149.4373, 224.8361
149.9194, 226.0709
150.4015, 226.9884
150.8836, 227.0034
151.3657, 226.3443
151.8479, 225.6181
152.3300, 225.3814
152.8121, 225.7421
153.2942, 225.9189
153.7763, 225.9496
154.2584, 225.8176
154.7406, 225.3668
155.2227, 224.6644
155.7048, 224.0483
156.1869, 223.9353
156.6690, 224.5641
157.1511, 224.8212
157.6333, 224.2204
158.1154, 223.5245
158.5975, 223.6135
159.0796, 224.6988
159.5617, 225.8779
160.0438, 225.7876
160.5260, 224.3746
161.0081, 223.1799
161.4902, 222.4426
161.9723, 222.1634
162.4544, 222.4614
162.9365, 223.5707
163.4187, 224.8560
163.9008, 225.6579
164.3829, 226.0085
164.8650, 226.0164
165.3471, 225.5843
165.8292, 224.7823
166.3113, 224.0674
166.7935, 223.4814
167.2756, 223.0813
167.7577, 222.9170
168.2398, 222.9840
168.7219, 223.1645
169.2040, 223.3941
169.6862, 223.6956
170.1683, 223.8818
170.6504, 223.7371
171.1325, 223.5871
171.6146, 223.7768
172.0967, 224.3199
172.5789, 224.7282
173.0610, 224.0996
173.5431, 221.5172
174.0252, 220.0366
174.5073, 220.5564
174.9894, 221.6054
175.4716, 222.1194
175.9537, 221.7592
176.4358, 220.9167
176.9179, 220.3923
177.4000, 220.6316
177.8821, 220.5832
178.3643, 219.9414
178.8464, 219.1349
179.3285, 218.5868
179.8106, 218.4694
180.2927, 218.6792
180.7748, 218.9477
181.2570, 219.7619
181.7391, 220.0371
182.2212, 219.0804
182.7033, 217.6059
183.1854, 216.8604
183.6675, 217.5512
184.1497, 219.0146
184.6318, 219.0008
185.1139, 216.4848
185.5960, 214.4202
186.0781, 214.2658
186.5602, 215.4404
187.0423, 216.2816
187.5245, 215.9691
188.0066, 214.8421
188.4887, 213.8063
188.9708, 212.8179
189.4529, 211.9920
189.9350, 211.4252
190.4172, 211.1074
190.8993, 210.9276
191.3814, 210.9574
191.8635, 211.0316
192.3456, 210.9553
192.8277, 210.7556
193.3099, 210.3074
193.7920, 209.3521
194.2741, 207.8033
194.7562, 206.3821
195.2383, 205.4568
195.7204, 204.7796
196.2026, 204.1749
196.6847, 203.5888
197.1668, 203.0785
197.6489, 202.8375
198.1310, 203.1063
198.6131, 202.9373
199.0953, 201.8397
199.5774, 200.3323
200.0595, 198.7597
200.5416, 197.2144
201.0237, 195.8497
201.5058, 195.0994
201.9880, 195.5070
202.4701, 195.5476
202.9522, 194.5574
203.4343, 193.2873
203.9164, 192.5937
204.3985, 192.8812
204.8807, 193.7109
205.3628, 193.7491
205.8449, 192.3264
206.3270, 190.9041
206.8091, 189.5757
207.2912, 188.3627
207.7733, 187.2516
208.2555, 186.2389
208.7376, 185.3526
209.2197, 184.7015
209.7018, 184.6476
210.1839, 184.4310
210.6660, 183.8224
211.1482, 183.0393
211.6303, 182.4513
212.1124, 182.2748
212.5945, 182.3237
213.0766, 181.7938
213.5587, 179.9368
214.0409, 178.4294
214.5230, 177.7709
215.0051, 177.6708
215.4872, 177.6675
215.9693, 177.5840
216.4514, 177.3469
216.9336, 176.6344
217.4157, 175.1209
217.8978, 173.6708
218.3799, 172.5253
218.8620, 171.6517
219.3441, 170.9668
219.8263, 170.4583
220.3084, 170.1021
220.7905, 169.8322
221.2726, 169.7509
221.7547, 169.5759
222.2368, 169.0560
222.7190, 168.2874
223.2011, 167.6790
223.6832, 167.4768
224.1653, 167.4812
224.6474, 167.2642
225.1295, 166.7119
225.6117, 166.2114
226.0938, 166.2289
226.5759, 166.6644
227.0580, 166.6224
227.5401, 165.4594
228.0222, 163.8706
228.5043, 162.7329
228.9865, 162.1471
229.4686, 161.7967
229.9507, 161.5694
230.4328, 161.4633
230.9149, 161.0502
231.3970, 159.7602
231.8792, 158.4359
232.3613, 157.8459
232.8434, 158.1157
233.3255, 158.6585
233.8076, 159.0611
234.2897, 159.3531
234.7719, 159.1565
235.2540, 157.8494
235.7361, 156.3609
236.2182, 155.2650
236.7003, 154.6383
237.1824, 154.1938
237.6646, 153.5849
238.1467, 152.7413
238.6288, 152.1141
239.1109, 152.1906
239.5930, 152.1964
240.0751, 151.5733
240.5573, 150.3181
241.0394, 148.9995
241.5215, 148.3456
242.0036, 148.5624
242.4857, 148.5943
242.9678, 148.3719
243.4500, 147.9676
243.9321, 147.2829
244.4142, 146.3791
244.8963, 145.5178
245.3784, 145.0599
245.8605, 145.1974
246.3427, 145.0332
246.8248, 144.3610
247.3069, 143.5871
247.7890, 142.9515
248.2711, 142.4326
248.7532, 141.8202
249.2354, 140.8545
249.7175, 139.4275
250.1996, 138.1168
250.6817, 136.6975
251.1638, 135.5702
251.6459, 135.0186
252.1281, 134.9796
252.6102, 135.1805
253.0923, 135.4098
253.5744, 135.7457
254.0565, 135.5764
254.5386, 134.5162
255.0208, 133.4024
255.5029, 132.5993
255.9850, 132.0901
256.4671, 131.6557
256.9492, 131.0974
257.4313, 130.3928
257.9135, 129.8466
258.3956, 129.6684
258.8777, 129.4121
259.3598, 128.7279
259.8419, 127.7657
260.3240, 127.0008
260.8062, 126.8215
261.2883, 127.2244
261.7704, 127.4509
262.2525, 127.8423
262.7346, 127.7791
263.2167, 126.5558
263.6989, 124.6082
264.1810, 123.1425
264.6631, 123.0102
265.1452, 124.0182
265.6273, 124.4154
266.1094, 123.9272
266.5916, 123.2706
267.0737, 122.5000
267.5558, 121.7451
268.0379, 121.3259
268.5200, 121.4804
269.0021, 122.0348
269.4843, 122.2501
269.9664, 121.8574
270.4485, 121.5299
270.9306, 121.5004
271.4127, 121.6871
271.8948, 121.9238
272.3770, 122.1412
272.8591, 122.3572
273.3412, 122.6530
273.8233, 123.1573
274.3054, 123.4745
274.7875, 123.3651
275.2697, 122.9980
275.7518, 122.6922
276.2339, 122.5662
276.7160, 122.5259
277.1981, 122.3639
277.6802, 122.0235
278.1623, 121.8247
278.6444, 121.9150
279.1266, 122.1922
279.6087, 122.5511
280.0908, 123.0152
280.5729, 123.3696
281.0550, 123.2220
281.5371, 122.5854
282.0193, 121.9619
282.5014, 121.3519
282.9835, 120.8703
283.4656, 120.8318
283.9477, 121.3823
284.4298, 121.8468
284.9120, 121.2481
285.3941, 119.7596
285.8762, 118.7270
286.3583, 118.7693
286.8404, 119.2522
287.3225, 119.3691
287.8047, 119.0123
288.2868, 118.6473
288.7689, 118.7945
289.2510, 119.2613
289.7331, 119.3504
290.2152, 118.6103
290.6974, 117.6465
291.1795, 117.1615
291.6616, 117.1848
292.1437, 117.0977
292.6258, 116.3744
293.1079, 115.2916
293.5901, 114.5146
294.0722, 114.2392
294.5543, 114.1407
295.0364, 113.9664
295.5185, 113.7207
296.0006, 113.5072
296.4828, 113.4497
296.9649, 113.3987
297.4470, 113.0648
297.9291, 112.2823
298.4112, 111.5848
298.8933, 111.4922
299.3755, 111.8882
299.8576, 112.0322
300.3397, 111.5635
300.8218, 110.8519
301.3039, 110.4416
301.7860, 110.3790
302.2682, 110.2745
302.7503, 109.7398
303.2324, 108.9577
303.7145, 108.6390
304.1966, 109.1672
304.6787, 109.8031
305.1609, 109.7218
305.6430, 109.0045
306.1251, 108.2437
306.6072, 107.7072
307.0893, 107.3060
307.5714, 106.7555
308.0536, 105.8797
308.5357, 105.2673
309.0178, 105.6343
309.4999, 106.6867
309.9820, 107.7057
310.4641, 108.5651
310.9463, 109.2149
311.4284, 109.4680
311.9105, 109.2402
312.3926, 109.0651
312.8747, 109.4743
313.3568, 110.1405
313.8390, 110.4490
314.3211, 110.0254
314.8032, 109.4699
315.2853, 109.5385
315.7674, 110.2475
316.2495, 110.6841
316.7317, 110.2368
317.2138, 109.3687
317.6959, 108.7829
318.1780, 108.5487
318.6601, 108.5427
319.1422, 108.8488
319.6243, 109.3920
320.1064, 109.6300
320.5886, 109.3218
321.0707, 108.6996
321.5528, 108.0021
322.0349, 107.2041
322.5170, 106.5982
322.9991, 106.6853
323.4813, 107.1042
323.9634, 106.6353
324.4455, 104.6661
324.9276, 102.6379
325.4097, 102.2865
325.8918, 103.2691
326.3740, 103.9673
326.8561, 103.4930
327.3382, 102.4979
327.8203, 102.1451
328.3024, 102.6637
328.7845, 103.0603
329.2667, 102.2222
329.7488, 100.6839
330.2309, 99.79274
330.7130, 100.3416
331.1951, 101.2596
331.6772, 101.4843
332.1594, 101.0243
332.6415, 100.3941
333.1236, 99.66546
333.6057, 99.04430
334.0878, 98.95145
334.5699, 99.72904
335.0521, 100.4311
335.5342, 100.1743
336.0163, 99.23794
336.4984, 98.89592
336.9805, 99.79797
337.4626, 101.2000
337.9448, 101.9322
338.4269, 101.9547
338.9090, 101.8622
339.3911, 101.8468
339.8732, 101.8850
340.3553, 101.9045
340.8375, 101.8669
341.3196, 101.9113
341.8017, 102.2839
342.2838, 102.9466
342.7659, 103.4727
343.2480, 103.8731
343.7302, 104.0466
344.2123, 103.7011
344.6944, 102.8302
345.1765, 102.1188
345.6586, 102.0879
346.1407, 102.6942
346.6229, 103.3242
347.1050, 104.1308
347.5871, 104.8156
348.0692, 104.9549
348.5513, 104.7450
349.0334, 105.0645
349.5156, 106.5706
349.9977, 108.6198
350.4798, 109.3477
350.9619, 108.1023
351.4440, 107.1174
351.9261, 107.2791
352.4083, 108.1178
352.8904, 108.9096
353.3725, 109.4465
353.8546, 109.8093
354.3367, 110.0604
354.8188, 110.1181
355.3010, 110.4251
355.7831, 111.4204
356.2652, 112.4328
356.7473, 112.6742
357.2294, 112.1270
357.7115, 111.6665
358.1937, 112.1485
358.6758, 113.6256
359.1579, 114.4758
359.6400, 113.9210
360.1221, 113.5580
360.6042, 114.4946
361.0863, 116.2936
361.5685, 117.7269
362.0506, 118.0964
362.5327, 117.6090
363.0148, 117.0877
363.4969, 116.2359
363.9790, 115.7210
364.4612, 115.8422
364.9433, 116.2733
365.4254, 116.6415
365.9075, 116.8220
366.3896, 116.8897
366.8717, 116.9511
367.3539, 116.9454
367.8360, 117.0904
368.3181, 117.4783
368.8002, 117.9333
369.2823, 118.3785
369.7644, 118.7835
370.2466, 119.1009
370.7287, 119.2570
371.2108, 119.2269
371.6929, 119.4834
372.1750, 120.4132
372.6571, 121.1951
373.1393, 121.4571
373.6214, 121.4242
374.1035, 121.5362
374.5856, 122.0473
375.0677, 122.7870
375.5498, 123.2199
376.0320, 123.3977
376.5141, 123.1253
376.9962, 121.7391
377.4783, 120.3124
377.9604, 119.8739
378.4425, 120.6331
378.9247, 121.9319
379.4068, 122.9281
379.8889, 123.5799
380.3710, 124.0673
380.8531, 124.5752
381.3352, 124.7527
381.8174, 124.0994
382.2995, 122.9188
382.7816, 122.0584
383.2637, 122.2375
383.7458, 123.2906
384.2279, 124.0893
384.7101, 124.5691
385.1922, 124.8649
385.6743, 125.0228
386.1564, 125.0515
386.6385, 124.9655
387.1206, 124.7716
387.6028, 124.4545
388.0849, 123.8817
388.5670, 122.9278
389.0491, 122.3309
389.5312, 122.6640
390.0133, 123.1317
390.4955, 123.1749
390.9776, 122.7720
391.4597, 122.3478
391.9418, 122.1506
392.4239, 122.1881
392.9060, 122.6069
393.3882, 123.7450
393.8703, 124.6734
394.3524, 124.4367
394.8345, 123.5666
395.3166, 123.2411
395.7987, 124.2234
396.2809, 125.7056
396.7630, 126.5140
397.2451, 126.6062
397.7272, 126.7757
398.2093, 127.3785
398.6914, 128.2800
399.1736, 129.2829
399.6557, 130.4661
400.1378, 131.4973
400.6199, 131.9370
401.1020, 132.0689
401.5841, 132.7136
402.0662, 134.1388
402.5483, 135.8648
403.0305, 137.2451
403.5126, 138.3077
403.9947, 139.7901
404.4768, 142.1766
404.9589, 144.8053
405.4410, 147.0400
405.9232, 148.8645
406.4053, 150.6132
406.8874, 152.4671
407.3695, 154.4247
407.8516, 156.5335
408.3337, 158.7812
408.8159, 161.1594
409.2980, 163.4646
409.7801, 165.9546
410.2622, 169.1799
410.7443, 173.3764
411.2264, 177.9398
411.7086, 181.9065
412.1907, 184.8818
412.6728, 188.2030
413.1549, 191.8733
413.6370, 195.8732
414.1191, 200.3334
414.6013, 205.1558
415.0834, 209.9868
415.5655, 214.5022
416.0476, 218.7597
416.5297, 223.4732
417.0118, 229.0776
417.4940, 234.6304
417.9761, 239.9710
418.4582, 245.1908
418.9403, 250.2536
419.4224, 255.1913
419.9045, 260.2205
420.3867, 265.8028
420.8688, 272.0776
421.3509, 278.4728
421.8330, 284.6222
422.3151, 291.1312
422.7972, 298.4983
423.2794, 306.5504
423.7615, 314.6410
424.2436, 322.1488
424.7257, 329.2308
425.2078, 336.9932
425.6899, 345.3117
426.1721, 354.5890
426.6542, 365.3514
427.1363, 376.9035
427.6184, 388.5587
428.1005, 400.1546
428.5826, 411.5579
429.0648, 422.3670
429.5469, 432.6320
430.0290, 443.2602
430.5111, 454.9152
430.9932, 466.3774
431.4753, 477.0965
431.9575, 486.9559
432.4396, 495.0241
432.9217, 500.4800
433.4038, 503.9568
433.8859, 506.5454
434.3680, 508.3156
434.8502, 508.9583
435.3323, 508.4101
435.8144, 506.4064
436.2965, 502.6540
436.7786, 496.6499
437.2607, 489.6450
437.7429, 482.4536
438.2250, 474.7701
438.7071, 465.5772
439.1892, 454.3890
439.6713, 442.6194
440.1534, 432.3939
440.6356, 424.1459
441.1177, 415.4653
441.5998, 406.0152
442.0819, 396.3059
442.5640, 386.6839
443.0461, 377.2067
443.5282, 367.6436
444.0103, 357.7962
444.4925, 347.8836
444.9746, 339.2631
445.4567, 333.2025
445.9388, 326.9162
446.4209, 319.8735
446.9030, 312.6425
447.3852, 305.7035
447.8673, 299.2277
448.3494, 293.0249
448.8315, 286.7516
449.3136, 280.1844
449.7957, 274.6893
450.2779, 271.2559
450.7600, 267.9055
451.2421, 264.0842
451.7242, 259.8347
452.2063, 255.2075
452.6884, 250.1179
453.1706, 245.0513
453.6527, 241.5019
454.1348, 240.2053
454.6169, 238.1482
455.0990, 233.6611
455.5811, 228.7454
456.0633, 224.7672
456.5454, 221.8497
457.0275, 219.1578
457.5096, 216.0090
457.9917, 212.5842
458.4738, 209.5510
458.9560, 207.0945
459.4381, 204.6031
459.9202, 201.5345
460.4023, 198.1630
460.8844, 194.9697
461.3665, 192.0451
461.8487, 189.3207
462.3308, 186.7453
462.8129, 184.3261
463.2950, 182.1125
463.7771, 180.1281
464.2592, 178.2949
464.7414, 176.4912
465.2235, 174.7045
465.7056, 172.9966
466.1877, 171.2577
466.6698, 169.6704
467.1519, 168.5871
467.6341, 167.8592
468.1162, 166.8645
468.5983, 165.1963
469.0804, 162.9617
469.5625, 160.7121
470.0446, 158.2297
470.5268, 156.0171
471.0089, 154.3913
471.4910, 152.8975
471.9731, 150.9677
472.4552, 148.5813
472.9373, 146.3462
473.4195, 144.9568
473.9016, 144.4713
474.3837, 144.0670
474.8658, 144.2260
475.3479, 143.9018
475.8300, 142.6400
476.3122, 140.7731
476.7943, 138.6335
477.2764, 136.3008
477.7585, 134.1614
478.2406, 132.9689
478.7227, 132.8691
479.2049, 132.4257
479.6870, 131.1586
480.1691, 129.6959
480.6512, 128.3092
481.1333, 127.0819
481.6154, 126.3264
482.0976, 126.6757
482.5797, 127.3763
483.0618, 127.2285
483.5439, 126.2097
484.0260, 124.8182
484.5081, 123.0092
484.9902, 121.1746
485.4724, 120.1983
485.9545, 120.4441
486.4366, 120.4195
486.9187, 119.2680
487.4008, 117.7016
487.8829, 116.8551
488.3651, 116.8470
488.8472, 116.6286
489.3293, 115.1616
489.8114, 112.4528
490.2935, 110.6331
490.7756, 110.3064
491.2578, 109.9922
491.7399, 109.5288
492.2220, 108.7478
492.7041, 107.2097
493.1862, 104.8403
493.6683, 102.4453
494.1505, 101.3357
494.6326, 102.0093
495.1147, 102.0056
495.5968, 100.5071
496.0789, 99.11975
496.5610, 98.51085
497.0432, 98.43668
497.5253, 98.35003
498.0074, 97.95914
498.4895, 97.46335
498.9716, 97.39677
499.4537, 97.92738
499.9359, 97.76844
500.4180, 95.91651
500.9001, 93.89285
501.3822, 93.03027
501.8643, 93.25065
502.3464, 93.56310
502.8286, 93.57310
503.3107, 93.36097
503.7928, 92.95083
504.2749, 92.34701
504.7570, 91.92490
505.2391, 91.97559
505.7213, 92.27644
506.2034, 92.22286
506.6855, 91.66753
507.1676, 91.15405
507.6497, 90.84225
508.1318, 90.63721
508.6140, 90.40101
509.0961, 90.13187
509.5782, 90.01732
510.0603, 90.28812
510.5424, 90.90150
511.0245, 90.93649
511.5067, 89.66087
511.9888, 88.69173
512.4709, 88.49036
512.9530, 88.62914
513.4351, 88.66270
513.9172, 88.46497
514.3994, 88.16426
514.8815, 87.93094
515.3636, 87.77994
515.8457, 87.46510
516.3278, 86.73316
516.8099, 86.18271
517.2921, 86.14442
517.7742, 86.40047
518.2563, 86.67809
518.7384, 86.96336
519.2205, 86.99383
519.7026, 86.22734
520.1848, 84.81001
520.6669, 83.91354
521.1490, 83.87307
521.6311, 84.22507
522.1132, 84.71793
522.5953, 85.28622
523.0775, 85.45198
523.5596, 84.60969
524.0417, 83.80746
524.5238, 83.99937
525.0059, 84.84954
525.4880, 85.31205
525.9702, 84.92164
526.4523, 84.22195
526.9344, 84.18633
527.4165, 85.30028
527.8986, 85.79568
528.3807, 85.00757
528.8629, 84.27312
529.3450, 84.58222
529.8271, 85.53553
530.3092, 86.03142
530.7913, 85.40348
531.2734, 84.21089
531.7556, 83.91267
532.2377, 84.95369
532.7198, 85.62993
533.2019, 85.39258
533.6840, 84.97437
534.1661, 84.70532
534.6483, 84.60556
535.1304, 84.61015
535.6125, 84.73420
536.0946, 84.90600
536.5767, 84.89741
537.0588, 84.68427
537.5410, 84.80628
538.0231, 85.53383
538.5052, 86.65855
538.9873, 88.01622
539.4694, 89.73953
539.9515, 90.79469
540.4337, 90.28859
540.9158, 89.39301
541.3979, 89.32243
541.8800, 90.03671
542.3621, 90.81191
542.8442, 91.21333
543.3264, 91.33257
543.8085, 91.47849
544.2906, 91.56734
544.7726, 91.80973
545.2548, 92.48995
545.7369, 93.10596
546.2190, 93.27128
546.7011, 93.00359
547.1832, 92.55005
547.6653, 92.09421
548.1475, 91.60378
548.6296, 90.92933
549.1117, 89.97913
549.5938, 89.09021
550.0759, 88.23569
550.5580, 87.56712
551.0402, 87.35057
551.5223, 87.56507
552.0044, 87.61407
552.4865, 87.02741
552.9686, 86.09535
553.4507, 85.24227
553.9329, 84.48560
554.4150, 84.06374
554.8971, 84.28910
555.3792, 84.78250
555.8613, 84.47192
556.3434, 82.91337
556.8256, 81.82169
557.3077, 81.76987
557.7898, 82.14859
558.2719, 82.60889
558.7540, 83.00471
559.2361, 83.04830
559.7183, 82.49988
560.2004, 81.52422
560.6825, 80.76684
561.1646, 80.00684
561.6467, 79.90203
562.1288, 81.25949
562.6110, 82.62003
563.0931, 82.85134
563.5752, 82.02007
564.0573, 81.02248
564.5394, 80.39899
565.0215, 80.09793
565.5037, 80.01604
565.9858, 80.17097
566.4679, 80.44656
566.9500, 80.92733
567.4321, 81.39926
567.9142, 81.58089
568.3964, 81.45858
568.8785, 81.26272
569.3606, 81.05534
569.8427, 80.82055
570.3248, 80.47033
570.8069, 80.05287
571.2891, 79.76866
571.7712, 79.72110
572.2533, 79.90166
572.7354, 80.30367
573.2175, 81.17321
573.6996, 81.83022
574.1818, 82.14049
574.6639, 82.37346
575.1460, 82.88277
575.6281, 83.45886
576.1102, 83.43240
576.5923, 82.28366
577.0745, 80.73679
577.5566, 80.57800
578.0387, 82.14327
578.5208, 83.24824
579.0029, 83.16596
579.4850, 82.80798
579.9672, 82.93804
580.4493, 83.42540
580.9314, 83.68250
581.4135, 83.32873
581.8956, 82.79191
582.3777, 82.40534
582.8599, 82.17662
583.3420, 82.18521
583.8241, 82.50033
584.3062, 82.86044
584.7883, 82.89099
585.2704, 82.49249
585.7526, 82.24914
586.2347, 82.06161
586.7168, 82.12025
587.1989, 82.68564
587.6810, 83.49772
588.1631, 84.09609
588.6453, 84.32385
589.1274, 84.52708
589.6095, 85.39433
590.0916, 87.09309
590.5737, 87.81004
591.0558, 86.75913
591.5380, 85.83556
592.0201, 86.03043
592.5022, 86.86343
592.9843, 87.60338
593.4664, 88.01085
593.9485, 88.53938
594.4307, 89.55021
594.9128, 90.93074
595.3949, 92.53136
595.8770, 94.34216
596.3591, 96.01077
596.8412, 97.30530
597.3234, 98.23149
597.8055, 98.78863
598.2876, 98.52379
598.7697, 98.54771
599.2518, 98.99548
599.7339, 99.84191
600.2161, 101.2073
600.6982, 103.0001
601.1803, 104.7969
601.6624, 106.1962
602.1445, 107.3887
602.6266, 109.3649
603.1088, 112.6124
603.5909, 115.3462
604.0730, 116.4683
604.5551, 117.3622
605.0372, 119.1752
605.5193, 121.8425
606.0015, 124.2158
606.4836, 125.5514
606.9657, 126.4397
607.4478, 127.6910
607.9299, 129.2074
608.4120, 130.3304
608.8942, 130.7504
609.3763, 130.8108
609.8584, 131.0456
610.3405, 131.5640
610.8226, 131.8372
611.3047, 131.9948
611.7869, 131.7892
612.2690, 130.5407
612.7511, 129.0142
613.2332, 128.5845
613.7153, 129.7434
614.1974, 131.4200
614.6796, 132.1446
615.1617, 131.8729
615.6438, 131.6232
616.1259, 131.4619
616.6080, 131.2494
617.0901, 130.9613
617.5723, 130.5604
618.0544, 129.9071
618.5365, 128.8515
619.0186, 128.0161
619.5007, 128.2570
619.9828, 128.7484
620.4650, 128.0199
620.9471, 125.9834
621.4292, 123.6697
621.9113, 121.6961
622.3934, 120.0716
622.8755, 118.8722
623.3577, 118.7558
623.8398, 118.1128
624.3219, 116.4179
624.8040, 114.6383
625.2861, 113.5499
625.7682, 112.9647
626.2504, 112.1313
626.7325, 110.5696
627.2145, 108.6716
627.6967, 107.0434
628.1788, 105.6721
628.6609, 104.9442
629.1430, 105.3096
629.6251, 105.7400
630.1072, 105.0089
630.5894, 103.4944
631.0715, 102.6072
631.5536, 103.1371
632.0357, 103.6985
632.5178, 103.3388
632.9999, 102.6400
633.4821, 102.5989
633.9642, 103.3940
634.4463, 104.4272
634.9284, 105.1590
635.4105, 105.5982
635.8926, 105.8238
636.3748, 105.6795
636.8569, 105.5651
637.3390, 105.4161
637.8211, 105.4161
638.3032, 105.8200
638.7853, 106.5748
639.2675, 107.2635
639.7496, 107.6406
640.2317, 107.7833
640.7138, 107.6702
641.1959, 107.3440
641.6780, 107.4093
642.1602, 108.1776
642.6423, 109.1576
643.1244, 109.7418
643.6065, 109.8758
644.0886, 109.8140
644.5707, 109.2990
645.0529, 108.8748
645.5350, 108.7482
646.0171, 108.8567
646.4992, 109.1975
646.9813, 109.7228
647.4634, 110.1555
647.9456, 110.2193
648.4277, 109.9186
648.9098, 109.2487
649.3919, 108.0432
649.8740, 106.9075
650.3561, 106.1861
650.8383, 105.5847
651.3204, 104.6881
651.8025, 103.4472
652.2846, 102.5497
652.7667, 102.8832
653.2488, 103.2083
653.7310, 102.0282
654.2131, 99.73460
654.6952, 97.79923
655.1773, 96.84713
655.6594, 96.36671
656.1415, 95.57053
656.6237, 94.42141
657.1058, 93.13784
657.5879, 91.58749
658.0700, 90.04231
658.5521, 88.33431
659.0342, 86.78019
659.5164, 85.89650
659.9985, 85.78999
660.4806, 85.73786
660.9627, 85.00383
661.4448, 83.92821
661.9269, 83.44427
662.4091, 83.60123
662.8912, 83.39360
663.3733, 82.15266
663.8554, 80.53574
664.3375, 79.90704
664.8196, 80.76749
665.3018, 81.17866
665.7839, 80.84480
666.2660, 80.30974
666.7481, 79.87044
667.2302, 79.43317
667.7123, 78.71638
668.1945, 77.62540
668.6766, 76.55659
669.1587, 75.97816
669.6408, 75.87621
670.1229, 76.12575
670.6050, 76.90804
671.0872, 77.48318
671.5693, 77.32487
672.0514, 76.81013
672.5335, 76.61477
673.0156, 76.82853
673.4977, 76.95755
673.9799, 76.88905
674.4620, 76.65180
674.9441, 76.06396
675.4262, 75.32989
675.9083, 75.03350
676.3904, 75.43423
676.8726, 76.08370
677.3547, 76.23373
677.8368, 75.79133
678.3189, 75.47795
678.8010, 75.46054
679.2831, 75.32491
679.7653, 74.78217
680.2474, 74.10384
680.7295, 73.61780
681.2116, 73.38190
681.6937, 73.25436
682.1758, 73.23753
682.6580, 73.23782
683.1401, 72.98149
683.6222, 72.57452
684.1043, 72.68315
684.5864, 73.68625
685.0685, 74.90978
685.5507, 75.13786
686.0328, 74.05257
686.5149, 73.24644
686.9970, 72.66748
687.4791, 72.44308
687.9612, 73.02901
688.4434, 73.79504
688.9255, 73.86171
689.4076, 73.04340
689.8897, 72.21042
690.3718, 72.07678
690.8539, 72.37795
691.3361, 72.74724
691.8182, 73.14372
692.3003, 73.06884
692.7824, 72.19234
693.2645, 71.04481
693.7466, 70.45509
694.2288, 70.52551
694.7109, 70.77488
695.1930, 71.39281
695.6751, 71.95556
696.1572, 72.51614
696.6393, 72.84161
697.1215, 72.41746
697.6036, 71.23568
698.0857, 70.26445
698.5678, 70.60458
699.0499, 71.77670
699.5320, 72.28252
700.0142, 72.07987
700.4963, 72.17097
700.9784, 73.12392
701.4605, 74.17219
701.9426, 74.20110
702.4247, 73.04578
702.9069, 72.07878
703.3890, 71.13906
703.8711, 70.59505
704.3532, 70.84571
704.8353, 71.44055
705.3174, 71.77877
705.7996, 71.78390
706.2817, 71.91267
706.7638, 72.72250
707.2459, 73.86732
707.7280, 74.08387
708.2101, 73.24019
708.6923, 72.73757
709.1743, 73.13805
709.6564, 73.75652
710.1385, 73.70837
710.6207, 73.08220
711.1028, 73.02914
711.5849, 74.40246
712.0670, 75.43631
712.5491, 75.11344
713.0313, 74.29543
713.5134, 74.00054
713.9955, 74.31855
714.4776, 74.67588
714.9597, 74.62031
715.4418, 74.33894
715.9240, 74.31924
716.4061, 74.56922
716.8882, 75.03089
717.3703, 75.80457
717.8524, 76.60748
718.3345, 77.30895
718.8167, 77.85909
719.2988, 78.05308
719.7809, 77.58516
720.2630, 77.20145
720.7451, 77.37644
721.2272, 77.60467
721.7094, 77.23066
722.1915, 76.37901
722.6736, 75.71679
723.1557, 75.64336
723.6378, 75.97107
724.1199, 76.41910
724.6021, 77.02334
725.0842, 77.32114
725.5663, 77.22236
726.0484, 76.89863
726.5305, 76.23479
727.0126, 75.47964
727.4948, 75.17073
727.9769, 75.45581
728.4590, 75.80037
728.9411, 76.18494
729.4232, 76.45164
729.9053, 76.35548
730.3875, 76.03527
730.8696, 75.88969
731.3517, 76.08272
731.8338, 76.29218
732.3159, 75.95854
732.7980, 75.08440
733.2802, 74.62875
733.7623, 74.70454
734.2444, 74.89938
734.7265, 75.25661
735.2086, 75.48105
735.6907, 75.10607
736.1729, 74.08910
736.6550, 73.12783
737.1371, 72.06776
737.6192, 71.40124
738.1013, 71.72476
738.5834, 72.52246
739.0656, 72.90837
739.5477, 72.71214
740.0298, 72.52082
740.5119, 72.97547
740.9940, 73.85294
741.4761, 74.19083
741.9583, 73.91548
742.4404, 73.49193
742.9225, 72.94038
743.4046, 72.41269
743.8867, 71.96545
744.3688, 71.63853
744.8510, 71.71793
745.3331, 72.73641
745.8152, 73.52503
746.2973, 73.57737
746.7794, 73.30136
747.2615, 73.05643
747.7437, 72.89756
748.2258, 72.76449
748.7079, 72.62663
749.1900, 72.47335
749.6721, 72.30307
750.1542, 72.11411
750.6364, 71.79295
751.1185, 71.27094
751.6006, 70.79703
752.0827, 70.54188
752.5648, 70.43742
753.0469, 70.28059
753.5291, 70.00002
754.0112, 69.85635
754.4933, 70.02132
754.9754, 70.19545
755.4575, 70.11777
755.9396, 69.93835
756.4218, 70.01077
756.9039, 70.43042
757.3860, 70.78470
757.8681, 70.41977
758.3502, 70.75880
758.8323, 69.70723
759.3145, 70.67969
759.7966, 71.25475
760.2787, 70.87935
760.7608, 70.06129
761.2429, 69.34585
761.7250, 68.70502
762.2072, 68.54720
762.6893, 69.49656
763.1714, 70.08936
763.6535, 69.57444
764.1356, 68.85103
764.6177, 68.78786
765.0999, 69.35871
765.5820, 69.95066
766.0641, 70.21407
766.5462, 70.34180
767.0283, 70.73286
767.5104, 71.21916
767.9926, 70.99944
768.4747, 69.92225
768.9568, 68.96074
769.4389, 68.83779
769.9210, 69.30111
770.4031, 69.51559
770.8853, 69.24388
771.3674, 69.18997
771.8495, 69.49638
772.3316, 69.85769
772.8137, 70.21352
773.2958, 70.51582
773.7780, 70.77219
774.2601, 70.99940
774.7422, 70.87498
775.2243, 69.72924
775.7064, 68.42663
776.1885, 68.26223
776.6707, 68.95866
777.1528, 69.37479
777.6349, 69.11134
778.1170, 68.59476
778.5991, 68.31712
779.0812, 68.26881
779.5634, 68.28439
780.0455, 68.40843
780.5276, 68.49033
781.0097, 68.34692
781.4918, 68.28535
781.9739, 68.61399
782.4561, 69.24131
782.9382, 69.76891
783.4203, 70.07898
783.9024, 70.31430
784.3845, 70.65215
784.8666, 70.88442
785.3488, 70.66443
785.8309, 70.08143
786.3130, 69.54183
786.7951, 69.26659
787.2772, 69.18054
787.7593, 69.24842
788.2415, 69.46047
788.7236, 69.31904
789.2057, 68.66538
789.6878, 68.15887
790.1699, 68.08916
790.6520, 68.37836
791.1342, 69.05242
791.6162, 70.28699
792.0983, 70.83485
792.5804, 70.10006
793.0626, 69.28307
793.5447, 68.57225
794.0268, 68.20013
794.5089, 68.64290
794.9910, 69.77584
795.4731, 70.66110
795.9553, 70.55219
796.4374, 70.03498
796.9195, 70.00578
797.4016, 70.35964
797.8837, 70.70805
798.3658, 70.98953
798.8480, 70.89295
799.3301, 70.06396
799.8122, 68.85926
800.2943, 68.52969
800.7764, 69.68901
801.2585, 70.40233
801.7407, 70.38170
802.2228, 70.19953
802.7049, 69.90353
803.1870, 69.64442
803.6691, 69.66269
804.1512, 70.00991
804.6334, 70.35706
805.1155, 70.61882
805.5976, 70.74242
806.0797, 70.61500
806.5618, 70.32549
807.0439, 69.99722
807.5261, 69.69186
808.0082, 69.56954
808.4903, 69.81831
808.9724, 70.32601
809.4545, 70.67986
809.9366, 70.87641
810.4188, 70.94958
810.9009, 70.90361
811.3830, 70.72584
811.8651, 70.23373
812.3472, 69.61784
812.8293, 69.60197
813.3115, 70.75108
813.7936, 71.29091
814.2757, 70.52207
814.7578, 69.52038
815.2399, 68.54857
815.7220, 67.95076
816.2042, 68.47855
816.6863, 70.24749
817.1684, 71.80603
817.6505, 71.64169
818.1326, 70.55262
818.6147, 69.87667
819.0969, 69.61192
819.5790, 69.77380
820.0611, 70.38704
820.5432, 70.99387
821.0253, 71.13728
821.5074, 70.89238
821.9896, 70.75616
822.4717, 70.76412
822.9538, 70.79781
823.4359, 70.87164
823.9180, 70.93963
824.4001, 70.96149
824.8823, 70.96404
825.3644, 71.02271
825.8465, 71.19309
826.3286, 71.23815
826.8107, 70.76029
827.2928, 70.39970
827.7750, 70.96182
828.2571, 71.96663
828.7392, 72.36696
829.2213, 71.91405
829.7034, 71.33659
830.1855, 71.35815
830.6677, 71.75317
831.1498, 71.84319
831.6319, 71.63926
832.1140, 71.58872
832.5961, 71.83348
833.0782, 72.06015
833.5604, 72.00229
834.0425, 71.72433
834.5246, 71.47757
835.0067, 70.76347
835.4888, 70.95988
835.9709, 73.29722
836.4531, 75.13530
836.9352, 74.91532
837.4173, 73.65672
837.8994, 72.96139
838.3815, 73.13912
838.8636, 73.12496
839.3458, 72.02365
839.8279, 70.81677
840.3100, 70.39957
840.7921, 70.55008
841.2742, 70.87907
841.7563, 71.25271
842.2385, 71.56911
842.7206, 71.76092
843.2027, 71.79565
843.6848, 71.43468
844.1669, 70.66159
844.6490, 70.54862
845.1312, 71.45118
845.6133, 72.16634
846.0954, 71.82044
846.5775, 70.96426
847.0596, 70.85000
847.5417, 71.88660
848.0239, 72.38855
848.5060, 71.86825
848.9881, 71.42691
849.4702, 71.54337
849.9523, 71.83508
850.4344, 71.77325
850.9166, 71.40616
851.3987, 71.40096
851.8808, 72.49493
852.3629, 73.45982
852.8450, 73.17174
853.3271, 72.13001
853.8093, 70.79432
854.2914, 69.45999
854.7735, 68.99062
855.2556, 69.90949
855.7377, 71.30579
856.2198, 71.56763
856.7020, 70.75709
857.1841, 70.44081
857.6662, 70.71046
858.1483, 71.10306
858.6304, 71.46707
859.1125, 71.85659
859.5947, 72.40237
860.0768, 73.10550
860.5589, 73.44451
861.0410, 73.30632
861.5231, 72.97532
862.0052, 72.27930
862.4874, 71.58614
862.9695, 70.98760
863.4516, 70.61366
863.9337, 70.80241
864.4158, 71.76778
864.8979, 72.58601
865.3801, 72.63215
865.8622, 72.29137
866.3443, 71.83022
866.8264, 71.35352
867.3085, 71.07026
867.7906, 71.02455
868.2728, 71.03634
868.7549, 70.93797
869.2370, 70.77346
869.7191, 70.64324
870.2012, 70.54851
870.6833, 70.57287
871.1655, 70.72779
871.6476, 71.05143
872.1297, 71.68023
872.6118, 72.36526
873.0939, 72.42576
873.5760, 71.49221
874.0581, 71.02837
874.5402, 71.75655
875.0223, 72.08652
875.5045, 71.00941
875.9866, 69.72294
876.4687, 69.54794
876.9508, 70.44228
877.4329, 71.20847
877.9150, 71.40751
878.3972, 71.44589
878.8793, 71.47812
879.3614, 71.50420
879.8435, 71.60886
880.3256, 71.70569
880.8077, 71.48225
881.2899, 70.79086
881.7720, 70.11089
882.2541, 70.11021
882.7362, 70.54472
883.2183, 70.69337
883.7004, 70.56831
884.1826, 70.41570
884.6647, 70.30331
885.1468, 70.29882
885.6289, 70.51507
886.1110, 70.86184
886.5931, 70.80069
887.0753, 70.10080
887.5574, 69.70741
888.0395, 69.92918
888.5216, 70.13093
889.0037, 69.78801
889.4858, 69.28217
889.9680, 69.30766
890.4501, 69.98556
890.9322, 70.50349
891.4143, 70.58208
891.8964, 70.68033
892.3785, 71.23618
892.8607, 71.73483
893.3428, 71.53000
893.8249, 70.71520
894.3070, 69.86762
894.7891, 69.16532
895.2712, 68.78216
895.7534, 69.07337
896.2355, 69.67770
896.7176, 70.07175
897.1997, 70.23484
897.6818, 70.29961
898.1639, 70.31606
898.6461, 70.23354
899.1282, 69.98391
899.6103, 69.59231
900.0924, 69.02746
900.5745, 68.25764
901.0566, 68.21962
901.5388, 69.31263
902.0209, 70.26157
902.5030, 70.04504
902.9851, 69.10954
903.4672, 68.73138
903.9493, 69.14748
904.4315, 69.44786
904.9136, 69.53336
905.3957, 69.62880
905.8778, 69.84702
906.3599, 70.07313
906.8420, 70.14487
907.3242, 70.08788
907.8063, 70.16312
908.2884, 70.58675
908.7705, 70.94054
909.2526, 71.15894
909.7347, 71.16036
910.2169, 70.61204
910.6990, 69.84616
911.1811, 69.62424
911.6632, 70.19497
912.1453, 70.87708
912.6274, 71.13333
913.1096, 71.13650
913.5917, 71.16434
914.0738, 71.15676
914.5559, 70.87407
915.0380, 70.29761
915.5201, 69.66531
916.0023, 69.09855
916.4844, 68.78902
916.9665, 69.39195
917.4486, 70.89314
917.9307, 71.46141
918.4128, 70.86459
918.8950, 70.18721
919.3771, 69.78612
919.8592, 69.67892
920.3413, 69.94662
920.8234, 70.57883
921.3055, 71.01656
921.7877, 71.12093
922.2698, 71.27801
922.7519, 71.72630
923.2340, 72.03053
923.7161, 71.92538
924.1982, 71.53477
924.6804, 70.98345
925.1625, 70.19373
925.6446, 69.83931
926.1267, 70.43799
926.6088, 71.10314
927.0909, 71.41541
927.5731, 71.54079
928.0552, 71.74522
928.5373, 71.97220
929.0194, 71.83672
929.5015, 71.01498
929.9836, 70.33638
930.4658, 70.78291
930.9479, 70.44456
931.4300, 71.67004
931.9121, 71.18196
932.3942, 71.41030
932.8763, 72.64017
933.3585, 73.62843
933.8406, 73.06902
934.3227, 71.68727
934.8048, 71.31792
935.2869, 71.85295
935.7690, 72.36104
936.2512, 72.72103
936.7333, 72.87662
937.2154, 72.75558
937.6975, 72.56764
938.1796, 72.70344
938.6617, 73.19045
939.1439, 73.34208
939.6260, 73.02958
940.1081, 72.71010
940.5902, 72.31786
941.0723, 72.18738
941.5544, 72.71140
942.0366, 73.68982
942.5187, 74.45426
943.0008, 75.03568
943.4829, 75.34795
943.9650, 75.16396
944.4471, 74.98031
944.9293, 74.87833
945.4114, 74.94065
945.8935, 75.29929
946.3756, 75.91869
946.8577, 76.57275
947.3398, 77.36343
947.8220, 77.87333
948.3041, 77.60842
948.7862, 77.22606
949.2683, 77.36162
949.7504, 77.83184
950.2325, 78.11096
950.7147, 78.09683
951.1968, 78.31260
951.6789, 79.21217
952.1610, 80.47327
952.6431, 81.81319
953.1252, 83.17398
953.6074, 84.42776
954.0895, 85.57199
954.5716, 86.73289
955.0537, 87.98249
955.5358, 89.08064
956.0179, 89.40041
956.5000, 89.29317
956.9821, 90.45601
957.4642, 92.85873
957.9464, 95.66074
958.4285, 98.70705
958.9106, 101.6621
959.3927, 104.2043
959.8748, 106.5876
960.3569, 109.4315
960.8391, 112.8135
961.3212, 116.2594
961.8033, 119.6259
962.2854, 123.4195
962.7675, 127.6912
963.2496, 132.5966
963.7318, 138.3659
964.2139, 144.9219
964.6960, 151.7780
965.1781, 158.5182
965.6602, 166.2274
966.1423, 175.4533
966.6245, 184.9721
967.1066, 193.9546
967.5887, 203.2113
968.0708, 213.7995
968.5529, 225.7571
969.0350, 238.0908
969.5172, 250.6783
969.9993, 263.5182
970.4814, 276.0435
970.9635, 289.2909
971.4456, 304.4494
971.9277, 320.7300
972.4099, 336.6330
972.8920, 351.7546
973.3741, 366.6866
973.8562, 381.8943
974.3383, 396.9006
974.8204, 411.7802
975.3026, 425.8614
975.7847, 438.1811
976.2668, 448.7862
976.7489, 458.7293
977.2310, 468.4807
977.7131, 475.8579
978.1953, 478.3094
978.6774, 477.1402
979.1595, 473.9530
979.6416, 469.1468
980.1237, 463.6733
980.6058, 457.7738
981.0880, 451.4882
981.5701, 444.7770
982.0522, 438.3099
982.5343, 432.9888
983.0164, 428.9618
983.4985, 427.1140
983.9807, 427.4448
984.4628, 429.5800
984.9449, 433.5310
985.4270, 437.5645
985.9091, 440.0737
986.3912, 444.1529
986.8734, 445.1045
987.3555, 450.4922
987.8376, 454.1158
988.3197, 455.6682
988.8018, 456.1797
989.2839, 455.9960
989.7661, 455.0175
990.2482, 453.1991
990.7303, 450.4947
991.2124, 446.4139
991.6945, 440.2638
992.1766, 434.3776
992.6588, 429.3089
993.1409, 423.7730
993.6230, 416.8127
994.1051, 409.3817
994.5872, 402.4680
995.0693, 396.0857
995.5515, 390.9192
996.0336, 388.2171
996.5157, 384.8506
996.9978, 379.2734
997.4799, 374.2545
997.9620, 371.4315
998.4442, 370.0254
998.9263, 368.8907
999.4084, 367.9097
999.8905, 367.4455
1000.373, 368.1248
1000.855, 368.6276
1001.337, 368.7353
1001.819, 368.2627
1002.301, 367.0350
1002.783, 365.1319
1003.265, 362.7603
1003.747, 359.9674
1004.230, 356.4467
1004.712, 351.6657
1005.194, 346.5597
1005.676, 342.4285
1006.158, 337.7603
1006.640, 330.3160
1007.122, 320.7635
1007.604, 311.2134
1008.086, 302.3724
1008.569, 293.9285
1009.051, 285.8502
1009.533, 277.8974
1010.015, 269.7821
1010.497, 261.6373
1010.979, 253.4938
1011.461, 245.5564
1011.943, 238.4402
1012.426, 232.4753
1012.908, 226.6584
1013.390, 219.6179
1013.872, 212.1862
1014.354, 205.9924
1014.836, 200.6840
1015.318, 195.1624
1015.800, 189.2916
1016.282, 183.7283
1016.765, 178.8405
1017.247, 174.3969
1017.729, 170.2180
1018.211, 166.1870
1018.693, 161.6840
1019.175, 156.9082
1019.657, 153.1700
1020.139, 150.7250
1020.622, 148.8744
1021.104, 147.2346
1021.586, 145.4235
1022.068, 142.3214
1022.550, 138.1915
1023.032, 135.9595
1023.514, 135.6492
1023.996, 135.8538
1024.478, 136.3150
1024.961, 136.3550
1025.443, 135.3825
1025.925, 135.4337
1026.407, 134.8946
1026.889, 134.1469
1027.371, 133.8691
1027.853, 132.4660
1028.335, 131.5727
1028.818, 131.7631
1029.300, 131.9772
1029.782, 131.2922
1030.264, 130.1870
1030.746, 129.9997
1031.228, 130.9467
1031.710, 131.5041
1032.192, 131.6693
1032.674, 131.4217
1033.156, 130.5904
1033.639, 129.6466
1034.121, 128.8861
1034.603, 128.3556
1035.085, 128.2691
1035.567, 128.9516
1036.049, 128.8049
1036.531, 127.3009
1037.013, 125.9740
1037.496, 125.0864
1037.978, 124.7143
1038.460, 125.3386
1038.942, 126.4318
1039.424, 126.2630
1039.906, 124.2751
1040.388, 122.7187
1040.870, 121.9076
1041.353, 121.0796
1041.835, 119.7107
1042.317, 118.5723
1042.799, 118.5675
1043.281, 119.2430
1043.763, 119.2737
1044.245, 118.5139
1044.727, 117.4959
1045.209, 116.1037
1045.692, 114.6408
1046.174, 112.8815
1046.656, 111.3611
1047.138, 110.6284
1047.620, 110.4620
1048.102, 110.2733
1048.584, 110.0861
1049.066, 109.6053
1049.548, 108.6304
1050.031, 107.5682
1050.513, 106.1667
1050.995, 105.0666
1051.477, 105.1361
1051.959, 105.8457
1052.441, 105.7821
1052.923, 104.5930
1053.405, 103.4498
1053.888, 102.0416
1054.370, 101.4356
1054.852, 103.2017
1055.334, 104.8901
1055.816, 103.8149
1056.298, 101.1747
1056.780, 100.1779
1057.262, 101.6596
1057.745, 102.5855
1058.227, 101.6010
1058.709, 100.5498
1059.191, 100.2484
1059.673, 100.1468
1060.155, 99.69435
1060.637, 99.06989
1061.119, 98.79906
1061.601, 99.01563
1062.083, 99.05006
1062.566, 98.28941
1063.048, 97.79375
1063.530, 98.47447
1064.012, 99.21644
1064.494, 98.88682
1064.976, 97.92398
1065.458, 97.31412
1065.940, 97.25305
1066.423, 97.33088
1066.905, 97.53662
1067.387, 97.65453
1067.869, 97.45923
1068.351, 97.25126
1068.833, 97.30819
1069.315, 97.53507
1069.797, 97.79855
1070.280, 98.05134
1070.762, 98.04405
1071.244, 97.41603
1071.726, 96.84645
1072.208, 96.54678
1072.690, 96.52444
1073.172, 97.04179
1073.654, 97.71929
1074.136, 97.88500
1074.619, 97.48954
1075.101, 97.18309
1075.583, 97.35926
1076.065, 97.44944
1076.547, 96.94328
1077.029, 96.48306
1077.511, 96.65596
1077.993, 97.16074
1078.475, 97.53078
1078.958, 97.70647
1079.440, 97.85323
1079.922, 98.03283
1080.404, 98.19418
1080.886, 98.31514
1081.368, 98.40810
1081.850, 98.48509
1082.332, 98.53848
1082.814, 98.60258
1083.297, 98.63917
1083.779, 98.46835
1084.261, 97.93363
1084.743, 97.50658
1085.225, 97.47126
1085.707, 97.53825
1086.189, 97.57239
1086.671, 97.56750
1087.154, 97.39670
1087.636, 97.19763
1088.118, 97.44522
1088.600, 98.38307
1089.082, 99.16213
1089.564, 99.54206
1090.046, 99.54204
1090.528, 98.81051
1091.010, 98.00017
1091.493, 97.92166
1091.975, 98.27332
1092.457, 98.12209
1092.939, 97.20155
1093.421, 96.53803
1093.903, 96.80140
1094.385, 97.02547
1094.867, 96.71914
1095.349, 96.24442
1095.832, 95.68588
1096.314, 95.28169
1096.796, 95.53159
1097.278, 96.49870
1097.760, 97.24243
1098.242, 97.45690
1098.724, 97.42526
1099.206, 96.90013
1099.689, 96.51725
1100.171, 96.93004
1100.653, 97.63997
1101.135, 97.94179
1101.617, 97.77333
1102.099, 97.38778
1102.581, 96.43095
1103.063, 95.97598
1103.546, 96.94209
1104.028, 97.69475
1104.510, 96.78992
1104.992, 95.63732
1105.474, 96.14427
1105.956, 97.96127
1106.438, 98.94363
1106.920, 98.39422
1107.402, 97.97395
1107.885, 98.17081
1108.367, 98.23990
1108.849, 97.79578
1109.331, 97.21172
1109.813, 96.70205
1110.295, 96.33549
1110.777, 96.28078
1111.259, 96.60865
1111.741, 96.99837
1112.224, 97.31954
1112.706, 97.85405
1113.188, 99.18137
1113.670, 100.2100
1114.152, 100.0671
1114.634, 99.23544
1115.116, 98.46040
1115.598, 97.71133
1116.081, 97.43364
1116.563, 98.03636
1117.045, 98.39378
1117.527, 98.01835
1118.009, 97.95770
1118.491, 99.12743
1118.973, 100.4199
1119.455, 100.0795
1119.938, 98.43739
1120.420, 98.82444
1120.902, 102.9514
1121.384, 104.7062
1121.866, 102.7463
1122.348, 100.9548
1122.830, 100.6300
1123.312, 100.9590
1123.794, 101.2705
1124.276, 101.6007
1124.759, 102.0966
1125.241, 102.8372
1125.723, 103.2556
1126.205, 103.2148
1126.687, 103.4318
1127.169, 104.1768
1127.651, 104.8068
1128.133, 104.8037
1128.616, 104.6584
1129.098, 105.4205
1129.580, 105.0665
1130.062, 106.9584
1130.544, 105.1793
1131.026, 104.3863
1131.508, 105.0192
1131.990, 106.1675
1132.473, 107.4741
1132.955, 108.6702
1133.437, 109.4702
1133.919, 109.8512
1134.401, 109.5335
1134.883, 108.6145
1135.365, 108.2860
1135.847, 108.6056
1136.329, 109.0628
1136.812, 109.5006
1137.294, 110.2107
1137.776, 111.4811
1138.258, 112.8625
1138.740, 113.5189
1139.222, 113.6326
1139.704, 113.6815
1140.186, 113.7437
1140.668, 114.0928
1141.151, 114.7534
1141.633, 115.6047
1142.115, 116.5952
1142.597, 117.3335
1143.079, 117.3343
1143.561, 116.8565
1144.043, 115.8861
1144.525, 114.9600
1145.008, 115.4239
1145.490, 116.9518
1145.972, 118.1312
1146.454, 118.5716
1146.936, 119.0801
1147.418, 120.4617
1147.900, 121.5714
1148.382, 120.9807
1148.865, 119.8038
1149.347, 119.0459
1149.829, 118.8080
1150.311, 119.3739
1150.793, 120.4948
1151.275, 121.0912
1151.757, 120.5870
1152.239, 120.3258
1152.721, 121.5850
1153.203, 122.7295
1153.686, 122.3273
1154.168, 121.5753
1154.650, 121.7633
1155.132, 122.6235
1155.614, 123.4038
1156.096, 123.9676
1156.578, 124.1594
1157.060, 123.5354
1157.543, 123.1134
1158.025, 123.5476
1158.507, 123.8414
1158.989, 122.9940
1159.471, 121.9575
1159.953, 122.1902
1160.435, 123.4844
1160.917, 123.9876
1161.400, 123.0101
1161.882, 122.5136
1162.364, 122.9657
1162.846, 123.1955
1163.328, 122.6590
1163.810, 122.1444
1164.292, 122.2842
1164.774, 122.7827
1165.256, 123.0320
1165.739, 123.0209
1166.221, 122.9283
1166.703, 122.7163
1167.185, 122.5678
1167.667, 122.5127
1168.149, 122.5048
1168.631, 122.5398
1169.113, 122.5429
1169.595, 122.3919
1170.078, 122.2006
1170.560, 122.4331
1171.042, 123.0733
1171.524, 123.6395
1172.006, 124.0954
1172.488, 123.6921
1172.970, 122.2628
1173.452, 121.1275
1173.934, 121.1587
1174.417, 121.7247
1174.899, 122.0596
1175.381, 122.1459
1175.863, 121.7188
1176.345, 121.0501
1176.827, 121.0112
1177.309, 121.5696
1177.791, 122.2540
1178.274, 122.8429
1178.756, 122.9354
1179.238, 122.0055
1179.720, 121.0145
1180.202, 120.9396
1180.684, 121.4544
1181.166, 122.5490
1181.648, 123.7234
1182.130, 124.1468
1182.613, 123.8312
1183.095, 123.2395
1183.577, 122.4679
1184.059, 122.0774
1184.541, 122.9455
1185.023, 123.5292
1185.505, 122.4893
1185.987, 121.2978
1186.469, 121.2131
1186.952, 121.8485
1187.434, 122.6175
1187.916, 123.3930
1188.398, 123.5353
1188.880, 122.0151
1189.362, 121.4525
1189.844, 123.1940
1190.326, 124.4823
1190.809, 123.9537
1191.291, 123.1540
1191.773, 123.3677
1192.255, 124.1815
1192.737, 124.5348
1193.219, 124.3107
1193.701, 125.0755
1194.183, 127.3936
1194.666, 128.3913
1195.148, 127.3443
1195.630, 126.3877
1196.112, 126.5080
1196.594, 127.0414
1197.076, 127.2718
1197.558, 127.3431
1198.040, 127.5791
1198.522, 128.0179
1199.005, 129.3021
1199.487, 131.2517
1199.969, 132.1841
1200.451, 131.8370
1200.933, 131.4527
1201.415, 131.7176
1201.897, 131.9619
1202.379, 131.1158
1202.861, 130.1279
1203.344, 130.6614
1203.826, 132.0441
1204.308, 133.2459
1204.790, 134.2207
1205.272, 135.2617
1205.754, 136.3432
1206.236, 136.9185
1206.718, 136.5893
1207.201, 136.1916
1207.683, 136.1495
1208.165, 136.3165
1208.647, 136.5427
1209.129, 136.9719
1209.611, 138.0095
1210.093, 139.2821
1210.575, 139.8857
1211.057, 139.6775
1211.540, 139.8553
1212.022, 141.5308
1212.504, 142.1320
1212.986, 139.7952
1213.468, 138.4888
1213.950, 140.2800
1214.432, 142.7964
1214.914, 143.9633
1215.396, 144.1884
1215.879, 144.5415
1216.361, 145.0166
1216.843, 145.7944
1217.325, 147.0100
1217.807, 147.4683
1218.289, 146.8925
1218.771, 146.5087
1219.253, 146.8838
1219.736, 147.4804
1220.218, 147.7457
1220.700, 147.8417
1221.182, 147.9859
1221.664, 148.2955
1222.146, 149.4387
1222.628, 149.7783
1223.110, 151.7549
1223.593, 151.5225
1224.075, 151.8577
1224.557, 153.4054
1225.039, 154.9731
1225.521, 155.5215
1226.003, 155.7713
1226.485, 156.2964
1226.967, 156.9070
1227.449, 157.5407
1227.932, 158.0414
1228.414, 158.0056
1228.896, 157.6027
1229.378, 157.7752
1229.860, 158.9701
1230.342, 159.8567
1230.824, 159.8505
1231.306, 159.8900
1231.788, 160.2014
1232.271, 160.6879
1232.753, 161.3941
1233.235, 162.1400
1233.717, 162.6266
1234.199, 162.9328
1234.681, 163.5819
1235.163, 164.6296
1235.645, 165.8063
1236.128, 167.1485
1236.610, 168.3579
1237.092, 169.3526
1237.574, 170.4639
1238.056, 171.9524
1238.538, 173.0639
1239.020, 172.5686
1239.502, 171.2975
1239.984, 171.2859
1240.467, 172.2651
1240.949, 173.7654
1241.431, 175.4762
1241.913, 176.5978
1242.395, 177.0691
1242.877, 177.5210
1243.359, 178.2368
1243.841, 179.3083
1244.323, 181.2331
1244.806, 183.0357
1245.288, 184.1771
1245.770, 184.6920
1246.252, 183.8729
1246.734, 182.8780
1247.216, 183.8106
1247.698, 186.5376
1248.180, 188.5572
1248.662, 189.3100
1249.145, 189.8834
1249.627, 190.1644
1250.109, 190.5809
1250.591, 191.3040
1251.073, 191.9960
1251.555, 192.3441
1252.037, 192.7986
1252.519, 194.0597
1253.002, 195.8897
1253.484, 197.1664
1253.966, 197.9039
1254.448, 198.6040
1254.930, 199.2903
1255.412, 199.8850
1255.894, 200.4157
1256.376, 201.4883
1256.859, 203.4187
1257.341, 205.2338
1257.823, 205.6421
1258.305, 205.7830
1258.787, 207.2697
1259.269, 209.3178
1259.751, 211.1513
1260.233, 212.5995
1260.715, 213.2547
1261.198, 213.3952
1261.680, 214.2214
1262.162, 216.2075
1262.644, 217.9481
1263.126, 218.6328
1263.608, 219.5629
1264.090, 221.5917
1264.572, 223.3979
1265.054, 224.1809
1265.537, 224.4663
1266.019, 224.5725
1266.501, 224.7198
1266.983, 225.7018
1267.465, 227.5857
1267.947, 229.7228
1268.429, 232.2327
1268.911, 233.3236
1269.394, 232.7027
1269.876, 232.5262
1270.358, 233.6916
1270.840, 235.4084
1271.322, 237.0279
1271.804, 238.5808
1272.286, 240.1297
1272.768, 241.6465
1273.250, 242.8640
1273.733, 244.1301
1274.215, 246.5395
1274.697, 249.4763
1275.179, 250.9842
1275.661, 250.6797
1276.143, 250.1938
1276.625, 249.9554
1277.107, 250.0560
1277.589, 250.2670
1278.072, 251.1561
1278.554, 253.4395
1279.036, 256.0456
1279.518, 258.4863
1280.000, 260.3858
1280.482, 260.8197
1280.964, 262.6625
1281.446, 263.7877
1281.929, 264.3298
1282.411, 265.9387
1282.893, 265.6182
1283.375, 265.8325
1283.857, 267.1856
1284.339, 268.1997
1284.821, 268.0216
1285.303, 267.6543
1285.786, 268.0806
1286.268, 269.2568
##END=



