##NAMES=Hauyne
##RRUFFID=R070557
##IDEAL CHEMISTRY=Na_3_Ca(Si_3_Al_3_)O_12_(S^6+^O_4_)
##LOCALITY=Badakhshan, Afghanistan
##OWNER=RRUFF
##SOURCE=Farooq Hashmi
##DESCRIPTION=Sky blue fragment
##STATUS=The identification of this mineral is confirmed by single-crystal X-ray diffraction and chemical analysis.
##URL=rruff.info/R070557
##MEASURED CHEMISTRY=Na_3.00_(Ca_0.84_Na_0.16_)_Σ=1_(Si_3.05_Al_2.95_)O_12_((SO_4_)_0.89_Cl_0.11_)_Σ=1_
151.4228, 1612.021
151.9049, 1630.999
152.3870, 1655.536
152.8692, 1684.517
153.3513, 1716.872
153.8334, 1748.369
154.3155, 1764.784
154.7976, 1752.532
155.2797, 1746.484
155.7619, 1753.582
156.2440, 1764.889
156.7261, 1772.645
157.2082, 1773.788
157.6903, 1769.188
158.1724, 1760.308
158.6546, 1730.702
159.1367, 1718.026
159.6188, 1738.509
160.1009, 1771.401
160.5830, 1793.321
161.0651, 1793.023
161.5473, 1776.372
162.0294, 1763.013
162.5115, 1753.401
162.9936, 1746.471
163.4757, 1744.564
163.9578, 1744.490
164.4400, 1741.132
164.9221, 1731.448
165.4042, 1717.783
165.8863, 1711.050
166.3684, 1715.573
166.8505, 1721.747
167.3327, 1728.835
167.8148, 1736.397
168.2969, 1744.451
168.7790, 1753.279
169.2611, 1762.142
169.7432, 1765.974
170.2254, 1754.759
170.7075, 1750.047
171.1896, 1766.151
171.6717, 1791.655
172.1538, 1804.588
172.6359, 1790.704
173.1181, 1754.273
173.6002, 1729.540
174.0823, 1715.953
174.5644, 1712.075
175.0465, 1725.537
175.5286, 1748.698
176.0108, 1766.160
176.4929, 1768.133
176.9750, 1756.263
177.4571, 1746.262
177.9392, 1736.689
178.4213, 1730.000
178.9035, 1728.998
179.3856, 1731.630
179.8677, 1733.222
180.3498, 1730.622
180.8319, 1724.237
181.3140, 1719.559
181.7962, 1712.188
182.2783, 1710.339
182.7604, 1723.089
183.2425, 1744.501
183.7246, 1759.207
184.2067, 1756.167
184.6889, 1736.880
185.1710, 1723.889
185.6531, 1714.534
186.1352, 1712.200
186.6173, 1722.438
187.0994, 1741.408
187.5816, 1759.479
188.0637, 1770.809
188.5458, 1775.519
189.0279, 1775.775
189.5100, 1765.307
189.9921, 1757.652
190.4743, 1762.284
190.9564, 1774.765
191.4385, 1782.123
191.9206, 1774.707
192.4027, 1753.768
192.8848, 1740.936
193.3670, 1744.554
193.8491, 1746.050
194.3312, 1734.083
194.8133, 1713.267
195.2954, 1697.801
195.7775, 1698.508
196.2597, 1713.445
196.7418, 1715.054
197.2239, 1687.294
197.7060, 1665.297
198.1881, 1666.394
198.6702, 1684.604
199.1524, 1703.107
199.6345, 1710.585
200.1166, 1708.518
200.5987, 1716.241
201.0808, 1757.986
201.5629, 1782.460
202.0451, 1757.083
202.5272, 1698.689
203.0093, 1648.934
203.4914, 1634.573
203.9735, 1650.914
204.4556, 1656.128
204.9378, 1634.593
205.4199, 1620.874
205.9020, 1632.931
206.3841, 1661.308
206.8662, 1685.892
207.3483, 1695.277
207.8305, 1690.702
208.3126, 1680.270
208.7947, 1657.552
209.2768, 1637.121
209.7589, 1620.988
210.2410, 1609.969
210.7232, 1606.139
211.2053, 1611.563
211.6874, 1623.766
212.1695, 1629.333
212.6516, 1630.120
213.1337, 1623.083
213.6159, 1597.386
214.0980, 1564.797
214.5801, 1545.743
215.0622, 1551.986
215.5443, 1576.364
216.0264, 1588.702
216.5086, 1571.777
216.9907, 1563.143
217.4728, 1579.005
217.9549, 1604.149
218.4370, 1614.660
218.9191, 1598.351
219.4013, 1565.146
219.8834, 1547.523
220.3655, 1563.797
220.8476, 1575.149
221.3297, 1576.669
221.8118, 1572.325
222.2940, 1566.415
222.7761, 1560.776
223.2582, 1555.546
223.7403, 1551.107
224.2224, 1547.879
224.7046, 1545.046
225.1867, 1541.020
225.6688, 1538.052
226.1509, 1539.619
226.6330, 1546.873
227.1151, 1556.092
227.5973, 1559.330
228.0794, 1550.163
228.5615, 1544.490
229.0436, 1544.983
229.5257, 1547.572
230.0078, 1549.417
230.4900, 1549.500
230.9721, 1547.601
231.4542, 1542.749
231.9363, 1530.625
232.4184, 1523.838
232.9005, 1525.539
233.3827, 1529.756
233.8648, 1533.128
234.3469, 1534.601
234.8290, 1533.995
235.3111, 1530.778
235.7932, 1523.765
236.2754, 1516.965
236.7575, 1508.395
237.2396, 1501.403
237.7217, 1496.958
238.2038, 1495.688
238.6859, 1498.792
239.1681, 1509.996
239.6502, 1533.763
240.1323, 1547.407
240.6144, 1541.329
241.0965, 1533.231
241.5786, 1531.263
242.0608, 1535.083
242.5429, 1539.171
243.0250, 1538.408
243.5071, 1532.466
243.9892, 1525.410
244.4713, 1516.208
244.9535, 1506.754
245.4356, 1495.659
245.9177, 1484.574
246.3998, 1477.770
246.8819, 1479.980
247.3640, 1490.290
247.8462, 1497.231
248.3283, 1497.459
248.8104, 1498.496
249.2925, 1503.312
249.7746, 1511.096
250.2567, 1520.713
250.7389, 1535.017
251.2210, 1549.970
251.7031, 1548.592
252.1852, 1520.057
252.6673, 1495.146
253.1494, 1490.200
253.6316, 1496.349
254.1137, 1500.345
254.5958, 1495.909
255.0779, 1486.686
255.5600, 1478.725
256.0421, 1471.292
256.5243, 1467.424
257.0064, 1472.849
257.4885, 1481.257
257.9706, 1485.076
258.4527, 1480.821
258.9348, 1473.668
259.4170, 1469.284
259.8991, 1467.735
260.3812, 1468.156
260.8633, 1473.601
261.3454, 1478.901
261.8275, 1476.401
262.3097, 1462.070
262.7918, 1447.646
263.2739, 1442.841
263.7560, 1446.618
264.2381, 1451.778
264.7202, 1458.216
265.2024, 1462.372
265.6845, 1458.121
266.1666, 1442.858
266.6487, 1429.981
267.1308, 1429.079
267.6129, 1435.604
268.0951, 1437.772
268.5772, 1431.726
269.0593, 1422.132
269.5414, 1413.921
270.0235, 1405.896
270.5056, 1404.878
270.9878, 1420.506
271.4699, 1441.249
271.9520, 1450.968
272.4341, 1446.194
272.9162, 1435.343
273.3983, 1427.393
273.8805, 1423.004
274.3626, 1417.392
274.8447, 1408.597
275.3268, 1399.563
275.8089, 1390.622
276.2910, 1382.620
276.7732, 1380.893
277.2553, 1392.448
277.7374, 1419.160
278.2195, 1430.825
278.7016, 1416.157
279.1837, 1398.952
279.6659, 1389.704
280.1480, 1387.781
280.6301, 1388.713
281.1122, 1389.794
281.5943, 1390.918
282.0764, 1390.966
282.5586, 1390.161
283.0407, 1388.090
283.5228, 1387.415
284.0049, 1384.845
284.4870, 1372.901
284.9691, 1347.226
285.4513, 1315.022
285.9334, 1300.364
286.4155, 1320.686
286.8976, 1334.852
287.3797, 1337.047
287.8618, 1332.992
288.3440, 1327.204
288.8261, 1321.335
289.3082, 1315.954
289.7903, 1312.295
290.2724, 1311.530
290.7545, 1309.428
291.2367, 1303.151
291.7188, 1297.397
292.2009, 1296.206
292.6830, 1299.522
293.1651, 1302.778
293.6472, 1300.525
294.1294, 1292.160
294.6115, 1285.948
295.0936, 1284.020
295.5757, 1282.612
296.0578, 1282.741
296.5399, 1282.511
297.0221, 1275.983
297.5042, 1252.913
297.9863, 1219.118
298.4684, 1199.626
298.9505, 1199.519
299.4326, 1203.600
299.9148, 1205.474
300.3969, 1204.868
300.8790, 1200.519
301.3611, 1186.964
301.8432, 1172.824
302.3253, 1172.278
302.8075, 1186.584
303.2896, 1200.411
303.7717, 1207.793
304.2538, 1208.396
304.7359, 1201.816
305.2180, 1182.515
305.7002, 1164.027
306.1823, 1156.563
306.6644, 1157.808
307.1465, 1159.505
307.6286, 1158.989
308.1107, 1156.535
308.5929, 1152.178
309.0750, 1144.792
309.5571, 1138.853
310.0392, 1137.629
310.5213, 1137.853
311.0034, 1133.747
311.4856, 1123.816
311.9677, 1113.811
312.4498, 1112.008
312.9319, 1123.680
313.4140, 1127.236
313.8961, 1111.835
314.3783, 1096.690
314.8604, 1099.944
315.3425, 1119.223
315.8246, 1135.230
316.3067, 1130.044
316.7888, 1102.331
317.2710, 1082.037
317.7531, 1069.772
318.2352, 1063.565
318.7173, 1068.755
319.1994, 1078.969
319.6815, 1082.828
320.1637, 1072.949
320.6458, 1053.855
321.1279, 1042.833
321.6100, 1044.528
322.0921, 1047.401
322.5742, 1050.461
323.0564, 1053.123
323.5385, 1056.372
324.0206, 1060.515
324.5027, 1060.888
324.9848, 1046.600
325.4669, 1012.284
325.9491, 991.5048
326.4312, 999.8511
326.9133, 1016.242
327.3954, 1029.894
327.8775, 1039.697
328.3596, 1046.241
328.8418, 1049.084
329.3239, 1048.808
329.8060, 1048.837
330.2881, 1051.521
330.7702, 1050.334
331.2523, 1035.543
331.7345, 1012.110
332.2166, 995.2714
332.6987, 995.8795
333.1808, 1002.106
333.6629, 997.6482
334.1451, 982.3510
334.6272, 971.8818
335.1093, 978.3254
335.5914, 996.3298
336.0735, 1004.901
336.5556, 996.4586
337.0378, 987.6941
337.5199, 984.9091
338.0020, 987.2220
338.4841, 993.9651
338.9662, 1005.560
339.4483, 1018.558
339.9305, 1025.973
340.4126, 1025.177
340.8947, 1023.078
341.3768, 1018.166
341.8589, 1013.103
342.3410, 1010.883
342.8232, 1011.613
343.3053, 1012.065
343.7874, 1007.639
344.2695, 995.7455
344.7516, 994.1915
345.2337, 1015.374
345.7159, 1034.052
346.1980, 1038.988
346.6801, 1033.972
347.1622, 1028.633
347.6443, 1029.076
348.1265, 1034.017
348.6086, 1038.455
349.0907, 1042.909
349.5728, 1045.773
350.0549, 1044.839
350.5370, 1043.116
351.0192, 1044.353
351.5013, 1050.060
351.9834, 1056.121
352.4655, 1056.769
352.9476, 1051.874
353.4297, 1048.693
353.9119, 1049.722
354.3940, 1052.190
354.8761, 1051.886
355.3582, 1048.849
355.8403, 1050.174
356.3224, 1063.831
356.8046, 1082.831
357.2867, 1095.126
357.7688, 1099.095
358.2509, 1097.291
358.7330, 1088.736
359.2151, 1074.589
359.6973, 1068.109
360.1794, 1077.593
360.6615, 1087.877
361.1436, 1088.178
361.6257, 1081.437
362.1078, 1077.446
362.5900, 1081.625
363.0721, 1091.219
363.5542, 1097.349
364.0363, 1099.044
364.5184, 1098.410
365.0005, 1093.047
365.4827, 1086.752
365.9648, 1083.565
366.4469, 1084.279
366.9290, 1086.376
367.4111, 1085.742
367.8932, 1079.870
368.3754, 1081.489
368.8575, 1101.086
369.3396, 1118.510
369.8217, 1126.271
370.3038, 1125.048
370.7859, 1117.617
371.2681, 1102.398
371.7502, 1084.004
372.2323, 1080.370
372.7144, 1098.931
373.1965, 1113.569
373.6786, 1109.583
374.1608, 1097.519
374.6429, 1087.525
375.1250, 1080.921
375.6071, 1079.395
376.0892, 1088.232
376.5714, 1104.983
377.0535, 1116.549
377.5356, 1120.051
378.0177, 1116.215
378.4998, 1100.375
378.9819, 1071.119
379.4641, 1054.865
379.9462, 1068.721
380.4283, 1091.457
380.9104, 1101.039
381.3925, 1096.394
381.8746, 1090.830
382.3568, 1095.058
382.8389, 1108.452
383.3210, 1115.502
383.8031, 1109.981
384.2852, 1106.351
384.7673, 1109.945
385.2495, 1117.482
385.7316, 1124.664
386.2137, 1129.700
386.6958, 1132.400
387.1779, 1131.531
387.6600, 1123.726
388.1422, 1120.525
388.6243, 1127.678
389.1064, 1135.151
389.5885, 1136.448
390.0706, 1104.948
390.5527, 1138.871
391.0349, 1158.542
391.5170, 1164.726
391.9991, 1117.032
392.4812, 1138.911
392.9633, 1132.908
393.4454, 1125.763
393.9276, 1157.434
394.4097, 1117.576
394.8918, 1148.632
395.3739, 1151.380
395.8560, 1167.084
396.3381, 1154.734
396.8203, 1151.049
397.3024, 1175.427
397.7845, 1184.266
398.2666, 1168.687
398.7487, 1185.214
399.2308, 1144.376
399.7130, 1153.878
400.1951, 1185.097
400.6772, 1160.166
401.1593, 1158.553
401.6414, 1161.913
402.1235, 1176.926
402.6057, 1203.262
403.0878, 1216.994
403.5699, 1203.372
404.0520, 1193.792
404.5341, 1193.703
405.0162, 1201.694
405.4984, 1217.366
405.9805, 1240.655
406.4626, 1265.737
406.9447, 1281.873
407.4268, 1286.527
407.9089, 1294.709
408.3911, 1309.953
408.8732, 1328.142
409.3553, 1347.491
409.8374, 1367.750
410.3195, 1387.964
410.8016, 1407.431
411.2838, 1426.524
411.7659, 1447.163
412.2480, 1469.942
412.7301, 1489.078
413.2122, 1496.500
413.6943, 1498.665
414.1765, 1516.117
414.6586, 1561.253
415.1407, 1604.885
415.6228, 1633.315
416.1049, 1651.986
416.5870, 1668.119
417.0692, 1683.761
417.5513, 1702.889
418.0334, 1732.016
418.5155, 1775.997
418.9976, 1813.988
419.4797, 1847.046
419.9619, 1874.237
420.4440, 1887.122
420.9261, 1893.619
421.4082, 1912.401
421.8903, 1957.107
422.3724, 2019.319
422.8546, 2071.550
423.3367, 2112.080
423.8188, 2146.434
424.3009, 2167.138
424.7830, 2187.807
425.2651, 2221.536
425.7473, 2270.635
426.2294, 2322.100
426.7115, 2365.007
427.1936, 2402.094
427.6757, 2442.828
428.1578, 2489.197
428.6400, 2536.462
429.1221, 2580.944
429.6042, 2623.105
430.0863, 2664.822
430.5684, 2710.603
431.0505, 2752.015
431.5327, 2778.288
432.0148, 2796.823
432.4969, 2826.272
432.9790, 2874.794
433.4611, 2932.265
433.9432, 2978.466
434.4254, 3010.227
434.9075, 3035.627
435.3896, 3049.853
435.8717, 3062.578
436.3538, 3081.186
436.8359, 3104.217
437.3181, 3124.111
437.8002, 3134.857
438.2823, 3138.135
438.7644, 3140.032
439.2465, 3136.282
439.7286, 3141.099
440.2108, 3175.873
440.6929, 3214.286
441.1750, 3225.341
441.6571, 3198.602
442.1392, 3169.750
442.6213, 3168.132
443.1035, 3183.769
443.5856, 3190.126
444.0677, 3181.827
444.5498, 3167.509
445.0319, 3156.148
445.5140, 3147.838
445.9962, 3130.036
446.4783, 3091.144
446.9604, 3054.528
447.4425, 3033.140
447.9246, 3022.001
448.4067, 3010.889
448.8889, 2995.405
449.3710, 2976.978
449.8531, 2959.164
450.3352, 2944.076
450.8173, 2924.465
451.2994, 2894.324
451.7816, 2864.869
452.2637, 2846.312
452.7458, 2835.024
453.2279, 2816.044
453.7100, 2772.879
454.1921, 2718.384
454.6743, 2686.171
455.1564, 2679.910
455.6385, 2676.314
456.1206, 2670.577
456.6027, 2658.260
457.0848, 2631.205
457.5670, 2582.979
458.0491, 2539.250
458.5312, 2513.161
459.0133, 2496.878
459.4954, 2482.336
459.9775, 2467.511
460.4597, 2448.718
460.9418, 2422.237
461.4239, 2388.067
461.9060, 2351.900
462.3881, 2312.823
462.8702, 2272.431
463.3524, 2226.523
463.8345, 2181.363
464.3166, 2144.765
464.7987, 2119.312
465.2808, 2100.438
465.7629, 2085.253
466.2451, 2074.851
466.7272, 2051.495
467.2093, 2002.961
467.6914, 1955.224
468.1735, 1926.642
468.6556, 1911.839
469.1378, 1895.850
469.6199, 1876.353
470.1020, 1851.307
470.5841, 1815.403
471.0662, 1771.171
471.5483, 1729.018
472.0305, 1691.299
472.5126, 1661.705
472.9947, 1648.546
473.4768, 1665.822
473.9589, 1665.903
474.4410, 1633.228
474.9232, 1596.268
475.4053, 1574.615
475.8874, 1565.389
476.3695, 1554.411
476.8516, 1531.927
477.3337, 1502.385
477.8159, 1480.647
478.2980, 1470.246
478.7801, 1459.009
479.2622, 1443.453
479.7443, 1426.577
480.2264, 1409.311
480.7086, 1391.993
481.1907, 1377.239
481.6728, 1371.461
482.1549, 1367.769
482.6370, 1350.149
483.1191, 1317.166
483.6013, 1288.649
484.0834, 1277.202
484.5655, 1279.307
485.0476, 1280.434
485.5297, 1283.538
486.0118, 1281.929
486.4940, 1272.058
486.9761, 1258.196
487.4582, 1243.899
487.9403, 1230.180
488.4224, 1217.033
488.9045, 1204.135
489.3867, 1191.587
489.8688, 1183.153
490.3509, 1182.653
490.8330, 1180.318
491.3151, 1172.210
491.7972, 1161.175
492.2794, 1149.704
492.7615, 1137.996
493.2436, 1128.819
493.7257, 1125.569
494.2078, 1126.741
494.6899, 1129.185
495.1721, 1133.169
495.6542, 1133.100
496.1363, 1121.857
496.6184, 1100.318
497.1005, 1088.139
497.5826, 1093.297
498.0648, 1098.035
498.5469, 1097.153
499.0290, 1091.949
499.5111, 1084.652
499.9932, 1075.899
500.4753, 1064.506
500.9575, 1047.945
501.4396, 1025.041
501.9217, 1005.114
502.4038, 987.0926
502.8859, 973.7224
503.3680, 971.0101
503.8502, 972.1930
504.3323, 963.6402
504.8144, 935.4697
505.2965, 909.3480
505.7786, 909.8240
506.2607, 929.4448
506.7429, 941.8505
507.2250, 940.3882
507.7071, 933.1035
508.1892, 927.8123
508.6713, 924.6404
509.1534, 922.7803
509.6356, 924.9540
510.1177, 925.4319
510.5998, 922.9789
511.0819, 917.0040
511.5641, 904.8352
512.0461, 885.6606
512.5283, 866.5255
513.0104, 859.4384
513.4925, 866.1668
513.9746, 869.0208
514.4567, 861.8649
514.9388, 857.5932
515.4210, 869.1530
515.9031, 888.6498
516.3852, 897.1553
516.8673, 882.0378
517.3494, 864.0079
517.8315, 860.2074
518.3137, 866.5665
518.7958, 871.8329
519.2779, 872.6586
519.7600, 873.5858
520.2421, 881.4955
520.7242, 899.7127
521.2064, 905.1762
521.6885, 889.0964
522.1706, 871.8648
522.6527, 859.2887
523.1348, 850.6561
523.6169, 843.6689
524.0991, 837.3358
524.5812, 834.2033
525.0633, 840.3300
525.5454, 855.4083
526.0275, 863.3087
526.5096, 859.4072
526.9918, 853.6329
527.4739, 854.5997
527.9560, 859.8781
528.4381, 862.2477
528.9202, 854.8699
529.4023, 850.5209
529.8845, 857.2595
530.3666, 871.2609
530.8487, 886.6073
531.3308, 901.5311
531.8129, 916.0077
532.2950, 929.9138
532.7772, 943.0996
533.2593, 957.3853
533.7414, 976.1931
534.2235, 991.9042
534.7056, 999.0305
535.1877, 1003.338
535.6699, 1012.867
536.1520, 1030.246
536.6341, 1049.722
537.1162, 1066.503
537.5983, 1081.086
538.0804, 1094.491
538.5626, 1106.634
539.0447, 1118.744
539.5268, 1131.905
540.0089, 1145.904
540.4910, 1158.846
540.9731, 1171.758
541.4553, 1182.559
541.9374, 1192.509
542.4195, 1199.220
542.9016, 1197.915
543.3837, 1189.157
543.8658, 1181.271
544.3480, 1184.887
544.8301, 1197.208
545.3122, 1192.780
545.7943, 1164.454
546.2764, 1136.720
546.7585, 1120.914
547.2407, 1109.737
547.7228, 1095.194
548.2049, 1076.260
548.6870, 1056.176
549.1691, 1038.090
549.6512, 1018.742
550.1334, 992.2377
550.6155, 959.4802
551.0976, 928.6270
551.5797, 904.2921
552.0618, 886.3457
552.5439, 874.7400
553.0261, 877.7104
553.5082, 872.6273
553.9903, 845.4120
554.4724, 821.2913
554.9545, 822.9034
555.4366, 844.4846
555.9188, 857.7735
556.4009, 838.6616
556.8830, 808.5351
557.3651, 805.3132
557.8472, 826.8455
558.3293, 841.4744
558.8115, 836.8008
559.2936, 824.5898
559.7757, 821.8787
560.2578, 832.6993
560.7399, 835.9573
561.2220, 825.0563
561.7042, 812.9011
562.1863, 805.2443
562.6684, 801.1531
563.1505, 798.1600
563.6326, 795.2399
564.1147, 793.0212
564.5969, 792.0607
565.0790, 792.3169
565.5611, 795.8019
566.0432, 804.8943
566.5253, 813.2726
567.0074, 816.2733
567.4896, 815.4077
567.9717, 813.6306
568.4538, 809.6765
568.9359, 807.2750
569.4180, 810.6476
569.9001, 815.5830
570.3823, 815.2067
570.8644, 808.8400
571.3465, 801.9916
571.8286, 799.3354
572.3107, 800.8383
572.7928, 807.2070
573.2750, 825.7907
573.7571, 836.1445
574.2392, 823.7241
574.7213, 807.9980
575.2034, 808.5397
575.6855, 826.6462
576.1677, 841.3316
576.6498, 836.9373
577.1319, 824.8392
577.6140, 820.0041
578.0961, 822.1775
578.5782, 824.8787
579.0604, 824.4824
579.5425, 824.8517
580.0246, 835.2990
580.5067, 869.5395
580.9888, 882.1753
581.4709, 851.4647
581.9531, 823.6567
582.4352, 826.6777
582.9173, 848.2158
583.3994, 860.9411
583.8815, 851.6168
584.3636, 835.0377
584.8458, 827.5642
585.3279, 828.1503
585.8100, 833.0168
586.2921, 842.7055
586.7742, 850.5701
587.2563, 849.9799
587.7385, 841.7719
588.2206, 838.0025
588.7027, 840.4397
589.1848, 844.5544
589.6669, 851.1308
590.1490, 857.8459
590.6312, 861.2851
591.1133, 861.7800
591.5954, 864.0292
592.0775, 872.2572
592.5597, 885.1476
593.0418, 900.5425
593.5239, 920.0009
594.0060, 929.6533
594.4882, 916.9532
594.9703, 899.7197
595.4524, 908.3830
595.9345, 946.3804
596.4166, 973.4284
596.8987, 978.7051
597.3809, 976.0353
597.8630, 965.7800
598.3451, 955.7214
598.8272, 962.0947
599.3093, 991.5578
599.7914, 1028.870
600.2736, 1048.650
600.7557, 1049.398
601.2378, 1065.045
601.7199, 1107.147
602.2020, 1145.136
602.6841, 1152.598
603.1663, 1145.761
603.6484, 1155.400
604.1305, 1191.491
604.6126, 1228.720
605.0947, 1257.448
605.5768, 1281.947
606.0590, 1306.007
606.5411, 1330.582
607.0232, 1358.188
607.5053, 1391.565
607.9874, 1426.282
608.4695, 1448.432
608.9517, 1455.975
609.4338, 1457.245
609.9159, 1446.514
610.3980, 1436.924
610.8801, 1440.246
611.3622, 1453.438
611.8444, 1462.795
612.3265, 1458.724
612.8086, 1455.282
613.2907, 1465.678
613.7728, 1482.333
614.2549, 1490.634
614.7371, 1487.187
615.2192, 1479.086
615.7013, 1473.503
616.1834, 1470.242
616.6655, 1465.226
617.1476, 1459.361
617.6298, 1450.010
618.1119, 1433.852
618.5940, 1415.546
619.0761, 1398.276
619.5582, 1382.351
620.0403, 1369.693
620.5225, 1366.674
621.0046, 1363.156
621.4867, 1346.033
621.9688, 1319.072
622.4509, 1295.477
622.9330, 1280.605
623.4152, 1270.422
623.8973, 1259.194
624.3794, 1247.222
624.8615, 1232.286
625.3436, 1209.064
625.8257, 1189.976
626.3079, 1182.675
626.7900, 1180.344
627.2721, 1174.349
627.7542, 1163.199
628.2363, 1147.438
628.7184, 1121.312
629.2006, 1093.880
629.6827, 1077.582
630.1648, 1072.353
630.6469, 1072.759
631.1290, 1076.324
631.6111, 1081.046
632.0933, 1081.676
632.5754, 1075.638
633.0575, 1072.710
633.5396, 1073.386
634.0217, 1077.217
634.5038, 1089.301
634.9860, 1103.494
635.4681, 1106.149
635.9502, 1089.193
636.4323, 1071.359
636.9144, 1062.695
637.3965, 1062.247
637.8787, 1072.622
638.3608, 1092.031
638.8429, 1106.430
639.3250, 1105.134
639.8071, 1092.967
640.2892, 1089.256
640.7714, 1102.230
641.2535, 1103.198
641.7356, 1079.012
642.2177, 1050.748
642.6998, 1029.154
643.1819, 1013.606
643.6641, 1000.670
644.1462, 989.5616
644.6283, 980.3051
645.1104, 976.2634
645.5925, 972.9655
646.0746, 960.5762
646.5568, 938.3713
647.0389, 916.6285
647.5210, 904.1980
648.0031, 899.5491
648.4852, 894.6799
648.9673, 890.0073
649.4495, 884.0358
649.9316, 877.1219
650.4137, 868.1710
650.8958, 853.5645
651.3779, 835.1077
651.8600, 823.3611
652.3422, 826.2739
652.8243, 831.8918
653.3064, 835.0275
653.7885, 834.9500
654.2706, 828.9731
654.7527, 817.2505
655.2349, 805.6758
655.7170, 800.6622
656.1991, 800.4784
656.6812, 792.3356
657.1633, 771.1138
657.6454, 758.1234
658.1276, 764.6783
658.6097, 776.4494
659.0918, 780.1332
659.5739, 775.9749
660.0560, 768.0512
660.5381, 748.2759
661.0203, 734.4115
661.5024, 744.6535
661.9845, 764.0599
662.4666, 767.2828
662.9487, 749.8591
663.4308, 729.4530
663.9130, 723.4727
664.3951, 729.1049
664.8772, 733.4532
665.3593, 736.9455
665.8414, 736.6427
666.3235, 730.3161
666.8057, 721.3372
667.2878, 713.1374
667.7699, 705.5964
668.2520, 700.5809
668.7341, 698.6238
669.2162, 698.7946
669.6984, 701.4772
670.1805, 705.6948
670.6626, 711.2802
671.1447, 717.6317
671.6268, 721.9222
672.1089, 720.6445
672.5911, 715.5468
673.0732, 709.2235
673.5553, 701.4184
674.0374, 706.3848
674.5195, 734.8023
675.0016, 765.1116
675.4838, 766.9421
675.9659, 734.2806
676.4480, 715.6048
676.9301, 723.5118
677.4122, 729.0903
677.8943, 719.4895
678.3765, 705.6133
678.8586, 701.4495
679.3407, 708.3319
679.8228, 713.6874
680.3049, 703.9037
680.7870, 689.3506
681.2692, 689.2639
681.7513, 700.9642
682.2334, 708.8352
682.7155, 707.6644
683.1976, 700.7299
683.6797, 690.4664
684.1619, 675.9863
684.6440, 673.0214
685.1261, 694.0623
685.6082, 709.0215
686.0903, 707.8131
686.5724, 700.4227
687.0546, 695.8013
687.5367, 694.6437
688.0188, 692.4030
688.5009, 682.7975
688.9830, 674.8858
689.4651, 681.4465
689.9473, 695.5236
690.4294, 698.9659
690.9115, 687.3672
691.3936, 674.7326
691.8757, 677.3167
692.3578, 692.6509
692.8400, 695.3533
693.3221, 679.2661
693.8042, 669.2433
694.2863, 676.9399
694.7684, 688.9568
695.2505, 690.7960
695.7327, 683.2106
696.2148, 677.3126
696.6969, 673.7806
697.1790, 673.5402
697.6611, 678.4450
698.1432, 686.1461
698.6254, 695.6973
699.1075, 705.6785
699.5896, 711.0283
700.0717, 706.5276
700.5538, 695.7775
701.0359, 686.4291
701.5181, 678.5554
702.0002, 673.7406
702.4823, 672.4363
702.9644, 674.3899
703.4465, 680.3497
703.9286, 690.0732
704.4108, 696.4396
704.8929, 697.1210
705.3750, 697.6638
705.8571, 698.4324
706.3392, 699.6075
706.8214, 702.2506
707.3035, 705.5949
707.7856, 706.6177
708.2677, 702.1607
708.7498, 697.4484
709.2319, 698.4237
709.7141, 703.0745
710.1962, 707.3994
710.6783, 710.4615
711.1604, 711.1182
711.6425, 708.2849
712.1246, 702.6967
712.6068, 696.6668
713.0889, 688.8979
713.5710, 684.8076
714.0531, 685.2000
714.5352, 689.3185
715.0173, 700.7770
715.4995, 715.2908
715.9816, 720.9252
716.4637, 710.0466
716.9458, 701.0700
717.4279, 703.4969
717.9100, 708.6472
718.3922, 706.4600
718.8743, 699.2280
719.3564, 697.1882
719.8385, 706.2985
720.3206, 718.2510
720.8027, 719.2683
721.2849, 711.3412
721.7670, 707.8040
722.2491, 710.0820
722.7312, 715.8827
723.2133, 725.6137
723.6954, 735.9720
724.1776, 738.8537
724.6597, 731.2335
725.1418, 722.7912
725.6239, 709.9919
726.1060, 700.2845
726.5881, 699.4622
727.0703, 702.5522
727.5524, 701.7305
728.0345, 694.9477
728.5166, 688.0540
728.9987, 684.0784
729.4808, 682.2545
729.9630, 680.4200
730.4451, 679.8421
730.9272, 686.9128
731.4093, 703.7896
731.8914, 719.7095
732.3735, 718.4717
732.8557, 701.1530
733.3378, 693.7112
733.8199, 698.4015
734.3020, 705.8317
734.7841, 716.2182
735.2662, 724.4995
735.7484, 722.6381
736.2305, 710.2039
736.7126, 700.4085
737.1947, 689.7056
737.6768, 686.9177
738.1589, 707.2075
738.6411, 729.2915
739.1232, 726.4765
739.6053, 699.4769
740.0874, 674.4259
740.5695, 667.3005
741.0516, 671.2243
741.5338, 680.6680
742.0159, 693.5474
742.4980, 703.5125
742.9801, 709.2151
743.4622, 710.6452
743.9443, 707.0933
744.4265, 700.1268
744.9086, 697.3247
745.3907, 701.5584
745.8728, 700.8069
746.3549, 687.7687
746.8370, 676.8096
747.3192, 682.0997
747.8013, 696.0165
748.2834, 699.3857
748.7655, 683.7657
749.2476, 671.2020
749.7297, 666.8222
750.2119, 669.0820
750.6940, 682.3130
751.1761, 700.3322
751.6582, 710.3434
752.1403, 706.9255
752.6224, 696.5097
753.1046, 679.4796
753.5867, 662.0375
754.0688, 668.1426
754.5509, 696.8452
755.0330, 712.0640
755.5151, 696.0513
755.9973, 668.4078
756.4794, 659.9580
756.9615, 673.6796
757.4436, 681.7753
757.9257, 681.3358
758.4078, 680.0667
758.8900, 682.2480
759.3721, 683.3299
759.8542, 676.7922
760.3363, 662.9031
760.8184, 654.5046
761.3005, 658.1016
761.7827, 664.0038
762.2648, 671.2646
762.7469, 675.7920
763.2290, 668.7648
763.7111, 652.3354
764.1932, 642.0355
764.6754, 650.6351
765.1575, 666.8352
765.6396, 671.5360
766.1217, 667.2067
766.6038, 665.7717
767.0859, 669.3070
767.5681, 673.3961
768.0502, 675.1609
768.5323, 674.8435
769.0144, 673.0429
769.4965, 669.1804
769.9786, 665.2814
770.4608, 658.9193
770.9429, 655.7699
771.4250, 662.9041
771.9071, 673.4644
772.3892, 673.4493
772.8713, 655.7137
773.3535, 652.2138
773.8356, 693.3361
774.3177, 730.0598
774.7998, 721.3066
775.2819, 688.3140
775.7640, 668.5159
776.2462, 671.5253
776.7283, 679.3488
777.2104, 675.3058
777.6925, 665.9524
778.1746, 664.7843
778.6567, 670.0130
779.1389, 672.1974
779.6210, 668.6158
780.1031, 664.1597
780.5852, 663.2902
781.0673, 665.8476
781.5494, 671.8123
782.0316, 684.2864
782.5137, 690.1570
782.9958, 682.1234
783.4779, 673.7783
783.9600, 677.2704
784.4421, 688.7037
784.9243, 695.1731
785.4064, 695.9421
785.8885, 692.1312
786.3706, 676.2205
786.8527, 662.9774
787.3348, 666.3943
787.8170, 679.1526
788.2991, 684.3807
788.7812, 676.0025
789.2633, 668.7150
789.7454, 679.0066
790.2275, 694.6895
790.7097, 694.8706
791.1918, 683.6926
791.6739, 680.5178
792.1560, 691.8832
792.6381, 704.7018
793.1202, 703.6385
793.6024, 690.5590
794.0845, 676.1483
794.5666, 658.6407
795.0487, 652.6531
795.5308, 666.1230
796.0129, 683.1430
796.4951, 688.8406
796.9772, 684.3046
797.4593, 680.8342
797.9414, 676.9000
798.4235, 676.3069
798.9056, 683.8167
799.3878, 690.4328
799.8699, 689.4800
800.3520, 683.6121
800.8341, 679.1351
801.3162, 677.6857
801.7983, 677.7686
802.2805, 679.6469
802.7626, 681.8619
803.2447, 682.3010
803.7268, 682.0175
804.2089, 684.2919
804.6910, 690.0522
805.1732, 695.3700
805.6553, 694.4412
806.1374, 690.3125
806.6195, 692.4578
807.1016, 700.1957
807.5837, 706.6566
808.0659, 709.8304
808.5480, 711.8102
809.0301, 714.8420
809.5122, 718.4827
809.9943, 719.9763
810.4764, 720.6673
810.9586, 714.6030
811.4407, 692.9510
811.9228, 674.9133
812.4049, 677.8694
812.8870, 694.2535
813.3691, 702.5771
813.8513, 699.2891
814.3334, 694.3624
814.8155, 685.3356
815.2976, 679.0787
815.7797, 681.3600
816.2618, 688.2694
816.7440, 693.5112
817.2261, 695.5647
817.7082, 697.2444
818.1903, 703.7489
818.6724, 707.8740
819.1545, 697.0991
819.6367, 679.2397
820.1188, 672.0937
820.6009, 678.8273
821.0830, 689.8262
821.5651, 699.0371
822.0472, 703.9044
822.5294, 693.6133
823.0115, 670.2706
823.4936, 660.7009
823.9757, 669.8969
824.4578, 686.2021
824.9399, 704.4207
825.4221, 720.4164
825.9042, 721.9897
826.3863, 701.2676
826.8684, 692.3432
827.3505, 705.7737
827.8326, 714.3438
828.3148, 699.5210
828.7969, 678.1877
829.2790, 673.7598
829.7611, 688.0534
830.2432, 698.2168
830.7253, 699.3110
831.2075, 698.3559
831.6896, 695.5104
832.1717, 693.4932
832.6538, 696.3974
833.1359, 702.9402
833.6180, 706.3755
834.1002, 701.8078
834.5823, 697.1278
835.0644, 701.9103
835.5465, 708.4975
836.0286, 703.8885
836.5107, 690.3099
836.9929, 678.3171
837.4750, 672.6955
837.9571, 674.8762
838.4392, 694.2388
838.9213, 723.0308
839.4034, 727.3859
839.8856, 707.9533
840.3677, 688.2310
840.8498, 675.2947
841.3319, 670.7191
841.8140, 677.9528
842.2961, 694.9013
842.7783, 703.6730
843.2604, 702.6263
843.7425, 697.9568
844.2246, 687.9130
844.7067, 678.6169
845.1888, 673.4422
845.6710, 672.4337
846.1531, 676.6321
846.6352, 693.4702
847.1173, 699.5533
847.5994, 681.5880
848.0815, 666.4623
848.5637, 669.8076
849.0458, 681.2687
849.5279, 686.5101
850.0100, 683.4639
850.4921, 680.2869
850.9742, 682.1818
851.4564, 682.9032
851.9385, 674.6288
852.4206, 665.0391
852.9027, 666.4426
853.3848, 677.5076
853.8669, 686.2497
854.3491, 686.5055
854.8312, 679.7014
855.3133, 660.6445
855.7954, 637.9919
856.2775, 633.3954
856.7596, 645.5502
857.2418, 656.8995
857.7239, 659.6765
858.2060, 660.9708
858.6881, 673.4705
859.1702, 693.7595
859.6523, 693.4741
860.1345, 670.6923
860.6166, 658.1239
861.0987, 666.8007
861.5808, 679.0012
862.0629, 678.4409
862.5450, 667.4511
863.0272, 658.3740
863.5093, 649.4182
863.9914, 647.3899
864.4735, 657.2071
864.9556, 667.8014
865.4377, 672.4883
865.9199, 674.3680
866.4020, 679.6155
866.8841, 689.2772
867.3662, 697.8400
867.8483, 707.0678
868.3304, 712.4194
868.8126, 713.2482
869.2947, 708.7371
869.7768, 692.5176
870.2589, 668.3056
870.7410, 656.8317
871.2231, 674.2753
871.7053, 692.8461
872.1874, 698.9471
872.6695, 697.5983
873.1516, 691.2612
873.6337, 682.5033
874.1158, 675.6427
874.5980, 672.4204
875.0801, 670.4082
875.5622, 667.4680
876.0443, 664.3259
876.5264, 662.1160
877.0085, 660.6682
877.4907, 659.5254
877.9728, 658.4999
878.4549, 656.8085
878.9370, 653.0396
879.4191, 649.7362
879.9012, 655.7560
880.3834, 669.3535
880.8655, 672.5471
881.3476, 662.8412
881.8297, 653.1636
882.3118, 650.2387
882.7939, 652.9672
883.2761, 660.9211
883.7582, 674.9456
884.2403, 680.7453
884.7224, 676.6218
885.2045, 668.9841
885.6866, 656.5754
886.1688, 646.6243
886.6509, 647.3801
887.1330, 657.4921
887.6151, 665.0451
888.0972, 670.9301
888.5793, 672.7217
889.0615, 665.6972
889.5436, 659.4332
890.0257, 658.0354
890.5078, 660.4193
890.9899, 666.7732
891.4720, 679.2809
891.9542, 682.0675
892.4363, 659.6487
892.9184, 642.3694
893.4005, 647.2650
893.8826, 659.8064
894.3647, 665.7371
894.8469, 664.5575
895.3290, 661.9979
895.8111, 658.3604
896.2932, 657.6123
896.7753, 666.7225
897.2574, 675.9999
897.7396, 674.4871
898.2217, 665.6181
898.7038, 658.2645
899.1859, 655.1441
899.6680, 652.3731
900.1501, 643.4891
900.6323, 635.7789
901.1144, 641.1434
901.5965, 654.5152
902.0786, 666.3441
902.5607, 674.2381
903.0428, 676.5276
903.5250, 671.4314
904.0071, 664.4120
904.4892, 664.3362
904.9713, 669.5361
905.4534, 674.5950
905.9355, 679.0462
906.4177, 682.1636
906.8998, 683.7059
907.3819, 682.7241
907.8640, 676.7880
908.3461, 668.1972
908.8282, 669.9963
909.3104, 682.9159
909.7925, 693.3024
910.2746, 698.9711
910.7567, 701.3015
911.2388, 700.4661
911.7209, 698.1485
912.2031, 698.1431
912.6852, 700.7530
913.1673, 704.3131
913.6494, 710.4401
914.1315, 713.4235
914.6136, 711.2860
915.0958, 705.3152
915.5779, 693.9920
916.0600, 678.8494
916.5421, 675.7509
917.0242, 697.6530
917.5063, 709.5097
917.9885, 697.7263
918.4706, 688.5276
918.9527, 697.3903
919.4348, 715.1509
919.9169, 729.1121
920.3990, 739.6698
920.8812, 739.9216
921.3633, 718.3390
921.8455, 700.1402
922.3276, 693.3884
922.8097, 693.0134
923.2918, 696.9948
923.7739, 703.3961
924.2560, 707.3884
924.7382, 706.3788
925.2203, 706.6710
925.7024, 713.4662
926.1845, 719.4253
926.6666, 719.4827
927.1487, 715.4586
927.6309, 708.4399
928.1130, 699.7112
928.5951, 695.7635
929.0772, 702.8403
929.5593, 712.0244
930.0414, 715.6735
930.5236, 718.9628
931.0057, 733.0813
931.4878, 751.9747
931.9699, 755.5914
932.4520, 736.0743
932.9341, 716.2401
933.4163, 717.1675
933.8984, 727.1957
934.3805, 733.2700
934.8626, 736.2940
935.3447, 739.5753
935.8268, 743.2583
936.3090, 743.7991
936.7911, 738.0543
937.2732, 732.1365
937.7553, 736.5777
938.2374, 746.4700
938.7195, 749.4228
939.2017, 746.4187
939.6838, 745.6126
940.1659, 749.6852
940.6480, 754.8113
941.1301, 757.5950
941.6122, 758.3332
942.0944, 755.3484
942.5765, 750.3721
943.0586, 755.3513
943.5407, 771.2527
944.0228, 785.1504
944.5049, 790.3230
944.9871, 790.6782
945.4692, 790.9730
945.9513, 791.6853
946.4334, 798.5734
946.9155, 811.8954
947.3976, 818.9579
947.8798, 816.1170
948.3619, 812.1790
948.8440, 813.5574
949.3261, 819.3871
949.8082, 827.9604
950.2903, 839.6022
950.7725, 851.1805
951.2546, 863.6338
951.7367, 869.0875
952.2188, 861.1681
952.7009, 855.2070
953.1830, 869.2918
953.6652, 900.3607
954.1473, 926.8609
954.6294, 950.2676
955.1115, 961.8559
955.5936, 954.0264
956.0757, 951.2509
956.5579, 968.1743
957.0400, 994.4844
957.5221, 1012.357
958.0042, 1020.296
958.4863, 1040.063
958.9684, 1078.608
959.4506, 1113.733
959.9327, 1137.177
960.4148, 1162.572
960.8969, 1200.765
961.3790, 1247.333
961.8611, 1289.448
962.3433, 1323.094
962.8254, 1364.994
963.3075, 1417.692
963.7896, 1475.006
964.2717, 1530.394
964.7538, 1593.538
965.2360, 1675.295
965.7181, 1773.248
966.2002, 1871.577
966.6823, 1975.306
967.1644, 2070.544
967.6465, 2146.504
968.1287, 2225.827
968.6108, 2315.180
969.0929, 2413.890
969.5750, 2528.088
970.0571, 2656.590
970.5392, 2763.111
971.0214, 2821.584
971.5035, 2890.244
971.9856, 2992.567
972.4677, 3092.847
972.9498, 3170.310
973.4319, 3231.291
973.9141, 3286.275
974.3962, 3335.523
974.8783, 3385.314
975.3604, 3429.925
975.8425, 3484.341
976.3246, 3563.620
976.8068, 3644.902
977.2889, 3705.219
977.7710, 3754.152
978.2531, 3817.454
978.7352, 3901.344
979.2173, 3991.796
979.6995, 4080.371
980.1816, 4180.612
980.6637, 4301.315
981.1458, 4434.229
981.6279, 4571.461
982.1100, 4712.952
982.5922, 4863.100
983.0743, 5028.524
983.5564, 5188.762
984.0385, 5339.439
984.5206, 5479.124
985.0027, 5609.549
985.4849, 5727.426
985.9670, 5832.053
986.4491, 5921.929
986.9312, 5988.309
987.4133, 6036.056
987.8954, 6047.549
988.3776, 6012.377
988.8597, 5941.732
989.3418, 5833.788
989.8239, 5700.659
990.3060, 5558.558
990.7881, 5410.563
991.2703, 5254.607
991.7524, 5082.081
992.2345, 4911.569
992.7166, 4750.705
993.1987, 4596.186
993.6808, 4444.875
994.1630, 4298.211
994.6451, 4158.676
995.1272, 4027.925
995.6093, 3894.895
996.0914, 3744.655
996.5735, 3604.464
997.0557, 3502.155
997.5378, 3404.666
998.0199, 3269.498
998.5020, 3112.007
998.9841, 2979.837
999.4662, 2887.431
999.9484, 2797.724
1000.430, 2690.689
1000.913, 2585.039
1001.395, 2488.729
1001.877, 2401.688
1002.359, 2325.978
1002.841, 2258.607
1003.323, 2189.733
1003.805, 2111.888
1004.287, 2049.326
1004.770, 2024.833
1005.252, 2007.165
1005.734, 1976.351
1006.216, 1940.403
1006.698, 1908.735
1007.180, 1882.671
1007.662, 1861.413
1008.144, 1847.903
1008.626, 1830.138
1009.109, 1789.597
1009.591, 1756.834
1010.073, 1761.652
1010.555, 1782.017
1011.037, 1787.247
1011.519, 1776.035
1012.001, 1768.372
1012.483, 1772.493
1012.966, 1778.617
1013.448, 1783.639
1013.930, 1788.087
1014.412, 1790.262
1014.894, 1793.233
1015.376, 1804.662
1015.858, 1823.284
1016.340, 1832.317
1016.822, 1825.714
1017.305, 1809.061
1017.787, 1782.432
1018.269, 1748.606
1018.751, 1708.959
1019.233, 1663.978
1019.715, 1606.844
1020.197, 1539.481
1020.679, 1495.717
1021.161, 1507.580
1021.644, 1515.602
1022.126, 1494.245
1022.608, 1467.978
1023.090, 1454.859
1023.572, 1448.155
1024.054, 1431.914
1024.536, 1404.304
1025.018, 1388.994
1025.500, 1402.811
1025.983, 1414.725
1026.465, 1415.341
1026.947, 1411.115
1027.429, 1404.286
1027.911, 1396.684
1028.393, 1391.115
1028.875, 1388.019
1029.357, 1384.583
1029.840, 1375.160
1030.322, 1372.481
1030.804, 1387.983
1031.286, 1403.005
1031.768, 1404.308
1032.250, 1396.703
1032.732, 1387.944
1033.214, 1377.497
1033.697, 1375.844
1034.179, 1391.856
1034.661, 1405.739
1035.143, 1413.594
1035.625, 1418.184
1036.107, 1417.492
1036.589, 1416.030
1037.071, 1424.953
1037.553, 1448.784
1038.036, 1459.466
1038.518, 1441.071
1039.000, 1433.198
1039.482, 1452.668
1039.964, 1472.068
1040.446, 1473.296
1040.928, 1463.505
1041.410, 1456.253
1041.892, 1451.354
1042.375, 1450.136
1042.857, 1454.369
1043.339, 1458.858
1043.821, 1462.907
1044.303, 1466.789
1044.785, 1471.415
1045.267, 1475.322
1045.749, 1474.875
1046.232, 1469.076
1046.714, 1468.349
1047.196, 1475.206
1047.678, 1479.947
1048.160, 1480.370
1048.642, 1478.951
1049.124, 1475.893
1049.606, 1474.258
1050.089, 1481.946
1050.571, 1499.864
1051.053, 1501.517
1051.535, 1482.401
1052.017, 1471.093
1052.499, 1473.732
1052.981, 1483.245
1053.463, 1497.908
1053.945, 1508.806
1054.427, 1495.704
1054.910, 1461.306
1055.392, 1453.654
1055.874, 1473.848
1056.356, 1484.109
1056.838, 1476.843
1057.320, 1471.946
1057.802, 1481.457
1058.284, 1496.932
1058.767, 1505.919
1059.249, 1509.328
1059.731, 1511.133
1060.213, 1511.620
1060.695, 1514.781
1061.177, 1520.589
1061.659, 1517.452
1062.141, 1498.489
1062.624, 1481.673
1063.106, 1496.401
1063.588, 1527.607
1064.070, 1534.017
1064.552, 1522.623
1065.034, 1512.488
1065.516, 1508.000
1065.998, 1514.804
1066.480, 1535.449
1066.963, 1558.381
1067.445, 1574.252
1067.927, 1582.994
1068.409, 1581.776
1068.891, 1574.508
1069.373, 1565.128
1069.855, 1557.087
1070.337, 1559.521
1070.819, 1575.539
1071.302, 1593.126
1071.784, 1605.117
1072.266, 1611.903
1072.748, 1609.473
1073.230, 1605.066
1073.712, 1608.326
1074.194, 1617.468
1074.676, 1627.261
1075.159, 1635.990
1075.641, 1640.454
1076.123, 1634.710
1076.605, 1629.579
1077.087, 1633.060
1077.569, 1637.917
1078.051, 1634.883
1078.533, 1629.557
1079.016, 1633.749
1079.498, 1649.122
1079.980, 1663.859
1080.462, 1672.398
1080.944, 1682.938
1081.426, 1703.801
1081.908, 1720.763
1082.390, 1720.638
1082.872, 1713.602
1083.354, 1714.930
1083.837, 1725.252
1084.319, 1734.274
1084.801, 1739.110
1085.283, 1746.278
1085.765, 1758.577
1086.247, 1769.965
1086.729, 1779.631
1087.212, 1785.428
1087.694, 1782.698
1088.176, 1773.442
1088.658, 1773.485
1089.140, 1787.561
1089.622, 1794.819
1090.104, 1789.784
1090.586, 1793.674
1091.068, 1817.835
1091.551, 1841.739
1092.033, 1843.322
1092.515, 1831.783
1092.997, 1840.155
1093.479, 1869.445
1093.961, 1882.826
1094.443, 1878.209
1094.925, 1883.825
1095.407, 1908.113
1095.890, 1931.460
1096.372, 1938.746
1096.854, 1937.448
1097.336, 1941.513
1097.818, 1949.112
1098.300, 1952.530
1098.782, 1952.715
1099.264, 1954.948
1099.747, 1959.995
1100.229, 1965.286
1100.711, 1969.570
1101.193, 1971.069
1101.675, 1959.000
1102.157, 1949.538
1102.639, 1975.842
1103.121, 2018.999
1103.604, 2042.315
1104.086, 2046.043
1104.568, 2049.178
1105.050, 2058.816
1105.532, 2074.224
1106.014, 2103.199
1106.496, 2128.077
1106.978, 2132.163
1107.460, 2128.923
1107.943, 2129.528
1108.425, 2135.385
1108.907, 2147.738
1109.389, 2166.774
1109.871, 2182.617
1110.353, 2189.334
1110.835, 2196.577
1111.317, 2208.255
1111.799, 2220.065
1112.282, 2227.380
1112.764, 2234.481
1113.246, 2251.179
1113.728, 2276.991
1114.210, 2287.420
1114.692, 2267.707
1115.174, 2262.073
1115.656, 2278.991
1116.139, 2297.317
1116.621, 2310.295
1117.103, 2320.092
1117.585, 2328.291
1118.067, 2335.266
1118.549, 2342.483
1119.031, 2350.052
1119.513, 2356.798
1119.995, 2362.665
1120.478, 2366.449
1120.960, 2367.148
1121.442, 2375.709
1121.924, 2401.731
1122.406, 2432.431
1122.888, 2442.309
1123.370, 2437.444
1123.852, 2441.949
1124.334, 2453.546
1124.817, 2460.384
1125.299, 2462.012
1125.781, 2468.324
1126.263, 2484.127
1126.745, 2504.174
1127.227, 2523.271
1127.709, 2543.712
1128.191, 2576.288
1128.674, 2606.816
1129.156, 2608.576
1129.638, 2591.142
1130.120, 2580.222
1130.602, 2583.037
1131.084, 2597.410
1131.566, 2629.679
1132.048, 2662.699
1132.531, 2693.823
1133.013, 2717.127
1133.495, 2722.340
1133.977, 2720.839
1134.459, 2728.097
1134.941, 2744.383
1135.423, 2760.261
1135.905, 2772.790
1136.387, 2788.985
1136.870, 2815.155
1137.352, 2834.978
1137.834, 2838.067
1138.316, 2841.758
1138.798, 2863.568
1139.280, 2893.802
1139.762, 2903.118
1140.244, 2887.494
1140.726, 2900.946
1141.209, 2947.805
1141.691, 2986.563
1142.173, 3009.378
1142.655, 3019.912
1143.137, 3018.843
1143.619, 3017.698
1144.101, 3033.869
1144.583, 3060.631
1145.066, 3078.601
1145.548, 3090.873
1146.030, 3107.854
1146.512, 3129.695
1146.994, 3153.373
1147.476, 3177.184
1147.958, 3196.652
1148.440, 3208.418
1148.922, 3214.747
1149.405, 3209.427
1149.887, 3207.345
1150.369, 3229.862
1150.851, 3263.866
1151.333, 3285.758
1151.815, 3295.999
1152.297, 3313.302
1152.779, 3345.529
1153.261, 3377.740
1153.744, 3413.625
1154.226, 3438.284
1154.708, 3428.943
1155.190, 3421.784
1155.672, 3457.422
1156.154, 3511.673
1156.636, 3532.264
1157.118, 3514.410
1157.601, 3519.233
1158.083, 3552.929
1158.565, 3590.451
1159.047, 3631.849
1159.529, 3664.796
1160.011, 3682.963
1160.493, 3694.227
1160.975, 3707.660
1161.458, 3721.045
1161.940, 3720.924
1162.422, 3713.475
1162.904, 3740.640
1163.386, 3795.469
1163.868, 3828.304
1164.350, 3829.247
1164.832, 3831.940
1165.314, 3858.067
1165.797, 3887.281
1166.279, 3895.222
1166.761, 3897.893
1167.243, 3908.201
1167.725, 3928.367
1168.207, 3968.874
1168.689, 4019.822
1169.171, 4053.082
1169.653, 4060.931
1170.136, 4071.362
1170.618, 4094.815
1171.100, 4120.665
1171.582, 4148.168
1172.064, 4174.420
1172.546, 4191.984
1173.028, 4211.987
1173.510, 4256.228
1173.993, 4316.622
1174.475, 4334.672
1174.957, 4286.857
1175.439, 4292.125
1175.921, 4365.340
1176.403, 4429.059
1176.885, 4461.946
1177.367, 4485.252
1177.849, 4513.391
1178.332, 4541.977
1178.814, 4559.349
1179.296, 4572.417
1179.778, 4608.361
1180.260, 4659.453
##END=



