##NAMES=Hauyne
##RRUFFID=R070121
##IDEAL CHEMISTRY=Na_3_Ca(Si_3_Al_3_)O_12_(S^6+^O_4_)
##LOCALITY=Hesse, Germany
##OWNER=RRUFF
##SOURCE=Michael Scott
##DESCRIPTION=Blue cut gemstones
##STATUS=The identification of this mineral has been confirmed by single-crystal X-ray diffraction.
##URL=rruff.info/R070121
138.6662, 2169.922
139.1483, 2218.772
139.6305, 2285.052
140.1126, 2345.522
140.5947, 2386.670
141.0768, 2434.557
141.5589, 2499.991
142.0410, 2580.452
142.5232, 2665.648
143.0053, 2744.899
143.4874, 2815.783
143.9695, 2902.279
144.4516, 3009.546
144.9337, 3126.935
145.4159, 3254.725
145.8980, 3390.539
146.3801, 3527.828
146.8622, 3660.119
147.3443, 3785.717
147.8264, 3914.976
148.3086, 4060.524
148.7907, 4198.627
149.2728, 4311.831
149.7549, 4403.629
150.2370, 4493.653
150.7191, 4605.005
151.2013, 4747.140
151.6834, 4864.331
152.1655, 4956.084
152.6476, 5027.654
153.1297, 5075.976
153.6118, 5103.785
154.0940, 5122.164
154.5761, 5142.472
155.0582, 5166.044
155.5403, 5184.670
156.0224, 5200.792
156.5045, 5210.928
156.9867, 5209.013
157.4688, 5195.893
157.9509, 5182.258
158.4330, 5179.437
158.9151, 5190.462
159.3972, 5201.644
159.8793, 5209.592
160.3615, 5219.944
160.8436, 5236.515
161.3257, 5259.859
161.8078, 5289.338
162.2899, 5323.400
162.7720, 5362.121
163.2542, 5413.904
163.7363, 5492.301
164.2184, 5576.061
164.7005, 5641.964
165.1826, 5687.298
165.6647, 5733.055
166.1469, 5804.010
166.6290, 5901.563
167.1111, 5984.513
167.5932, 6040.242
168.0753, 6084.643
168.5574, 6131.864
169.0396, 6183.392
169.5217, 6240.521
170.0038, 6309.904
170.4859, 6389.408
170.9680, 6454.379
171.4501, 6492.412
171.9323, 6518.155
172.4144, 6548.464
172.8965, 6585.562
173.3786, 6622.072
173.8607, 6649.946
174.3428, 6671.206
174.8250, 6694.061
175.3071, 6725.995
175.7892, 6757.959
176.2713, 6776.725
176.7534, 6779.659
177.2355, 6778.832
177.7177, 6779.603
178.1998, 6783.528
178.6819, 6796.939
179.1640, 6831.615
179.6461, 6872.585
180.1283, 6896.485
180.6104, 6899.078
181.0925, 6900.943
181.5746, 6917.289
182.0567, 6943.699
182.5388, 6973.738
183.0210, 7011.089
183.5031, 7048.843
183.9852, 7075.952
184.4673, 7091.159
184.9494, 7101.605
185.4315, 7102.977
185.9137, 7103.646
186.3958, 7118.789
186.8779, 7163.964
187.3600, 7218.769
187.8421, 7251.062
188.3242, 7255.832
188.8064, 7257.636
189.2885, 7265.509
189.7706, 7279.752
190.2527, 7303.292
190.7348, 7342.489
191.2169, 7385.721
191.6991, 7412.250
192.1812, 7416.672
192.6633, 7427.075
193.1454, 7466.710
193.6275, 7516.675
194.1096, 7557.180
194.5918, 7581.234
195.0739, 7596.144
195.5560, 7609.048
196.0381, 7617.811
196.5202, 7634.206
197.0023, 7673.840
197.4845, 7719.185
197.9666, 7753.192
198.4487, 7769.065
198.9308, 7779.480
199.4129, 7805.344
199.8950, 7852.388
200.3771, 7884.589
200.8593, 7867.645
201.3414, 7841.221
201.8235, 7839.128
202.3056, 7871.837
202.7877, 7911.845
203.2698, 7922.047
203.7520, 7896.280
204.2341, 7884.041
204.7162, 7914.816
205.1983, 7954.698
205.6804, 7979.774
206.1625, 7985.895
206.6447, 7985.982
207.1268, 7992.469
207.6089, 8005.664
208.0910, 8021.944
208.5731, 8044.324
209.0552, 8066.941
209.5374, 8084.713
210.0195, 8097.391
210.5016, 8110.870
210.9837, 8131.279
211.4658, 8158.858
211.9479, 8186.166
212.4301, 8213.004
212.9122, 8238.422
213.3943, 8263.345
213.8764, 8287.245
214.3585, 8306.016
214.8406, 8310.374
215.3228, 8301.329
215.8049, 8309.027
216.2870, 8349.846
216.7691, 8392.682
217.2512, 8413.826
217.7333, 8419.956
218.2155, 8435.950
218.6976, 8492.889
219.1797, 8582.405
219.6618, 8635.752
220.1439, 8626.307
220.6260, 8614.358
221.1082, 8628.248
221.5903, 8662.712
222.0724, 8705.728
222.5545, 8755.477
223.0366, 8808.260
223.5187, 8847.713
224.0009, 8866.487
224.4830, 8884.518
224.9651, 8914.099
225.4472, 8948.434
225.9293, 8977.204
226.4114, 8995.341
226.8936, 9004.856
227.3757, 9008.407
227.8578, 9001.696
228.3399, 8999.400
228.8220, 9009.057
229.3041, 9025.351
229.7863, 9042.336
230.2684, 9057.423
230.7505, 9073.489
231.2326, 9095.635
231.7147, 9124.896
232.1968, 9156.484
232.6790, 9192.563
233.1611, 9228.392
233.6432, 9260.725
234.1253, 9289.210
234.6074, 9311.659
235.0895, 9320.226
235.5717, 9311.870
236.0538, 9315.964
236.5359, 9357.363
237.0180, 9403.053
237.5001, 9422.686
237.9822, 9411.687
238.4644, 9403.662
238.9465, 9436.011
239.4286, 9507.515
239.9107, 9567.079
240.3928, 9600.959
240.8749, 9623.578
241.3571, 9646.852
241.8392, 9670.563
242.3213, 9688.881
242.8034, 9694.870
243.2855, 9690.909
243.7676, 9689.023
244.2497, 9687.318
244.7319, 9693.086
245.2140, 9712.551
245.6961, 9743.135
246.1782, 9776.026
246.6603, 9812.639
247.1424, 9848.296
247.6246, 9870.323
248.1067, 9876.672
248.5888, 9873.482
249.0709, 9848.703
249.5530, 9818.188
250.0351, 9815.000
250.5173, 9874.211
250.9994, 9952.010
251.4815, 9975.610
251.9636, 9934.504
252.4457, 9901.846
252.9278, 9932.996
253.4100, 9992.868
253.8921, 10029.30
254.3742, 10026.76
254.8563, 10008.63
255.3384, 9990.000
255.8205, 9971.347
256.3027, 9968.959
256.7848, 9997.857
257.2669, 10041.38
257.7490, 10074.29
258.2311, 10095.88
258.7133, 10107.29
259.1954, 10103.04
259.6775, 10087.60
260.1596, 10079.18
260.6417, 10084.60
261.1238, 10096.54
261.6060, 10102.72
262.0880, 10101.79
262.5702, 10110.96
263.0523, 10151.96
263.5344, 10204.70
264.0165, 10228.33
264.4986, 10211.50
264.9807, 10182.64
265.4629, 10169.74
265.9450, 10171.41
266.4271, 10177.96
266.9092, 10195.23
267.3913, 10212.29
267.8734, 10214.35
268.3556, 10200.45
268.8377, 10187.25
269.3198, 10188.12
269.8019, 10202.22
270.2840, 10212.99
270.7661, 10221.27
271.2483, 10225.54
271.7304, 10221.16
272.2125, 10210.67
272.6946, 10206.45
273.1767, 10218.81
273.6588, 10239.82
274.1410, 10237.84
274.6231, 10186.09
275.1052, 10149.40
275.5873, 10160.12
276.0694, 10197.49
276.5515, 10225.10
277.0337, 10229.09
277.5158, 10217.46
277.9979, 10205.21
278.4800, 10193.70
278.9621, 10178.68
279.4442, 10147.49
279.9264, 10119.04
280.4085, 10118.52
280.8906, 10149.15
281.3727, 10185.12
281.8548, 10195.54
282.3369, 10172.80
282.8191, 10150.18
283.3012, 10122.61
283.7833, 10099.41
284.2654, 10086.67
284.7475, 10083.64
285.2296, 10086.05
285.7118, 10091.78
286.1939, 10100.72
286.6760, 10099.06
287.1581, 10080.60
287.6402, 10059.10
288.1223, 10039.09
288.6045, 10018.37
289.0866, 9991.604
289.5687, 9955.649
290.0508, 9914.394
290.5329, 9881.587
291.0150, 9866.915
291.4972, 9847.195
291.9793, 9819.932
292.4614, 9787.458
292.9435, 9747.821
293.4256, 9701.811
293.9077, 9659.617
294.3899, 9640.719
294.8720, 9659.372
295.3541, 9660.498
295.8362, 9627.514
296.3183, 9590.275
296.8004, 9569.405
297.2826, 9561.611
297.7647, 9545.370
298.2468, 9493.392
298.7289, 9406.290
299.2110, 9352.691
299.6931, 9355.383
300.1753, 9366.467
300.6574, 9370.684
301.1395, 9369.842
301.6216, 9370.097
302.1037, 9378.566
302.5858, 9385.669
303.0680, 9364.560
303.5501, 9304.596
304.0322, 9244.797
304.5143, 9187.668
304.9964, 9142.727
305.4785, 9124.620
305.9607, 9140.682
306.4428, 9164.879
306.9249, 9171.854
307.4070, 9161.637
307.8891, 9140.583
308.3712, 9101.570
308.8534, 9060.514
309.3355, 9032.508
309.8176, 9017.306
310.2997, 9005.528
310.7818, 8999.172
311.2639, 8991.940
311.7461, 8963.027
312.2282, 8902.979
312.7103, 8844.880
313.1924, 8822.892
313.6745, 8826.602
314.1566, 8824.085
314.6388, 8803.477
315.1209, 8777.592
315.6030, 8759.601
316.0851, 8748.835
316.5672, 8735.427
317.0493, 8713.994
317.5315, 8685.799
318.0136, 8655.037
318.4957, 8614.633
318.9778, 8582.649
319.4599, 8574.241
319.9420, 8577.959
320.4242, 8570.947
320.9063, 8544.926
321.3884, 8511.635
321.8705, 8490.013
322.3526, 8486.379
322.8347, 8478.062
323.3169, 8462.487
323.7990, 8443.071
324.2811, 8420.270
324.7632, 8395.251
325.2453, 8373.166
325.7274, 8360.015
326.2096, 8356.819
326.6917, 8340.753
327.1738, 8296.612
327.6559, 8257.605
328.1380, 8235.066
328.6201, 8225.167
329.1023, 8222.639
329.5844, 8225.474
330.0665, 8228.283
330.5486, 8213.253
331.0307, 8156.809
331.5128, 8121.037
331.9950, 8130.953
332.4771, 8148.612
332.9592, 8139.365
333.4413, 8098.401
333.9234, 8051.131
334.4055, 8029.822
334.8877, 8039.426
335.3698, 8043.317
335.8519, 8040.474
336.3340, 8031.896
336.8161, 8010.473
337.2982, 7983.279
337.7804, 7967.771
338.2625, 7981.617
338.7446, 8010.981
339.2267, 8012.575
339.7088, 7975.171
340.1909, 7940.616
340.6731, 7930.179
341.1552, 7930.397
341.6373, 7927.688
342.1194, 7918.545
342.6015, 7908.062
343.0836, 7904.046
343.5658, 7904.888
344.0479, 7894.469
344.5300, 7860.396
345.0121, 7825.655
345.4942, 7819.563
345.9763, 7840.932
346.4584, 7858.116
346.9406, 7861.402
347.4227, 7853.661
347.9048, 7832.364
348.3869, 7796.998
348.8690, 7771.443
349.3511, 7778.104
349.8333, 7812.555
350.3154, 7831.290
350.7975, 7827.111
351.2796, 7815.482
351.7617, 7795.947
352.2438, 7774.623
352.7260, 7765.972
353.2081, 7776.967
353.6902, 7798.558
354.1723, 7812.368
354.6544, 7819.368
355.1365, 7814.917
355.6187, 7787.592
356.1008, 7756.568
356.5829, 7736.959
357.0650, 7730.129
357.5471, 7728.237
358.0292, 7724.190
358.5114, 7717.918
358.9935, 7711.272
359.4756, 7708.178
359.9577, 7700.398
360.4398, 7678.704
360.9219, 7652.804
361.4041, 7638.485
361.8862, 7644.194
362.3683, 7659.385
362.8504, 7662.356
363.3325, 7651.355
363.8146, 7632.964
364.2968, 7591.629
364.7789, 7555.113
365.2610, 7545.081
365.7431, 7561.746
366.2252, 7583.671
366.7073, 7596.612
367.1895, 7601.028
367.6716, 7598.207
368.1537, 7585.387
368.6358, 7571.260
369.1179, 7557.500
369.6000, 7546.729
370.0822, 7546.042
370.5643, 7567.006
371.0464, 7587.824
371.5285, 7583.047
372.0106, 7556.524
372.4927, 7535.865
372.9749, 7534.091
373.4570, 7540.537
373.9391, 7534.041
374.4212, 7510.681
374.9033, 7493.793
375.3854, 7501.086
375.8676, 7511.882
376.3497, 7496.173
376.8318, 7452.047
377.3139, 7410.946
377.7960, 7402.139
378.2781, 7426.903
378.7603, 7439.188
379.2424, 7432.571
379.7245, 7423.100
380.2066, 7414.395
380.6887, 7406.737
381.1708, 7400.617
381.6530, 7396.253
382.1351, 7391.913
382.6172, 7384.143
383.0993, 7372.257
383.5814, 7358.018
384.0635, 7344.681
384.5457, 7326.808
385.0278, 7294.698
385.5099, 7252.844
385.9920, 7219.208
386.4741, 7210.492
386.9562, 7222.491
387.4384, 7228.866
387.9205, 7227.078
388.4026, 7224.382
388.8847, 7227.658
389.3668, 7230.193
389.8489, 7221.957
390.3311, 7197.907
390.8132, 7172.129
391.2953, 7160.127
391.7774, 7160.012
392.2595, 7156.556
392.7416, 7142.983
393.2238, 7130.995
393.7059, 7138.850
394.1880, 7163.852
394.6701, 7178.857
395.1522, 7165.776
395.6343, 7147.298
396.1165, 7149.271
396.5986, 7169.638
397.0807, 7185.246
397.5628, 7181.415
398.0449, 7163.531
398.5270, 7152.068
399.0092, 7146.915
399.4913, 7147.374
399.9734, 7157.025
400.4555, 7170.345
400.9376, 7184.690
401.4197, 7198.125
401.9019, 7203.976
402.3840, 7192.359
402.8661, 7159.192
403.3482, 7140.035
403.8303, 7147.405
404.3124, 7155.910
404.7946, 7154.953
405.2767, 7150.871
405.7588, 7156.465
406.2409, 7179.031
406.7230, 7207.275
407.2051, 7214.117
407.6873, 7189.967
408.1694, 7189.595
408.6515, 7246.249
409.1336, 7312.244
409.6157, 7358.321
410.0978, 7383.297
410.5800, 7394.167
411.0621, 7385.601
411.5442, 7368.263
412.0263, 7362.771
412.5084, 7370.407
412.9905, 7386.006
413.4727, 7409.790
413.9548, 7438.699
414.4369, 7463.089
414.9190, 7474.453
415.4011, 7495.154
415.8832, 7540.355
416.3654, 7599.298
416.8475, 7656.092
417.3296, 7707.171
417.8117, 7753.538
418.2938, 7796.897
418.7759, 7837.840
419.2581, 7870.809
419.7402, 7877.825
420.2223, 7896.717
420.7044, 7952.433
421.1865, 8029.699
421.6686, 8100.373
422.1508, 8150.602
422.6329, 8187.876
423.1150, 8226.284
423.5971, 8261.080
424.0792, 8310.018
424.5613, 8398.021
425.0435, 8481.432
425.5256, 8525.751
426.0077, 8538.464
426.4898, 8558.564
426.9719, 8612.718
427.4540, 8693.174
427.9361, 8784.582
428.4182, 8892.260
428.9004, 8987.262
429.3825, 9048.250
429.8646, 9092.011
430.3467, 9141.608
430.8288, 9194.692
431.3109, 9265.052
431.7931, 9375.994
432.2752, 9504.229
432.7573, 9605.883
433.2394, 9672.875
433.7215, 9731.114
434.2036, 9804.155
434.6858, 9891.912
435.1679, 9975.349
435.6500, 10060.82
436.1321, 10135.22
436.6142, 10188.98
437.0963, 10230.69
437.5785, 10273.46
438.0606, 10321.88
438.5427, 10370.64
439.0248, 10410.67
439.5069, 10439.93
439.9890, 10467.37
440.4712, 10497.05
440.9533, 10521.04
441.4354, 10535.87
441.9175, 10542.42
442.3996, 10543.69
442.8817, 10542.42
443.3639, 10534.63
443.8460, 10509.13
444.3281, 10463.80
444.8102, 10425.55
445.2923, 10412.00
445.7744, 10399.03
446.2566, 10357.00
446.7387, 10285.57
447.2208, 10215.28
447.7029, 10162.43
448.1850, 10113.66
448.6671, 10052.32
449.1493, 9978.563
449.6314, 9901.525
450.1135, 9826.227
450.5956, 9753.074
451.0777, 9682.224
451.5598, 9618.181
452.0420, 9550.802
452.5241, 9467.246
453.0062, 9387.636
453.4883, 9336.709
453.9704, 9312.884
454.4525, 9288.318
454.9347, 9235.423
455.4168, 9156.399
455.8989, 9086.083
456.3810, 9029.773
456.8631, 8973.997
457.3452, 8916.191
457.8274, 8856.468
458.3095, 8796.666
458.7916, 8737.156
459.2737, 8670.227
459.7558, 8581.089
460.2379, 8476.275
460.7201, 8385.148
461.2022, 8312.986
461.6843, 8250.583
462.1664, 8196.727
462.6485, 8148.264
463.1306, 8093.018
463.6128, 8025.232
464.0949, 7955.726
464.5770, 7881.412
465.0591, 7811.140
465.5412, 7769.840
466.0233, 7764.842
466.5055, 7761.303
466.9876, 7710.336
467.4697, 7595.998
467.9518, 7512.481
468.4339, 7480.887
468.9160, 7453.439
469.3982, 7416.317
469.8803, 7370.599
470.3624, 7318.768
470.8445, 7261.388
471.3266, 7204.272
471.8087, 7157.958
472.2909, 7123.837
472.7730, 7089.212
473.2551, 7056.942
473.7372, 7018.249
474.2193, 6960.343
474.7014, 6890.958
475.1836, 6835.193
475.6657, 6810.188
476.1478, 6794.887
476.6299, 6767.441
477.1120, 6730.369
477.5941, 6696.823
478.0763, 6672.134
478.5584, 6650.991
479.0405, 6625.292
479.5226, 6592.458
480.0047, 6563.341
480.4868, 6543.938
480.9690, 6522.954
481.4511, 6488.126
481.9332, 6446.429
482.4153, 6417.320
482.8974, 6411.683
483.3795, 6416.992
483.8617, 6405.000
484.3438, 6372.759
484.8259, 6331.914
485.3080, 6262.393
485.7901, 6202.946
486.2722, 6183.820
486.7544, 6193.977
487.2365, 6194.380
487.7186, 6155.388
488.2007, 6103.913
488.6828, 6087.445
489.1649, 6104.127
489.6471, 6105.886
490.1292, 6071.384
490.6113, 6020.219
491.0934, 5979.378
491.5755, 5947.337
492.0576, 5929.178
492.5398, 5942.289
493.0219, 5955.685
493.5040, 5946.009
493.9861, 5916.707
494.4682, 5880.924
494.9503, 5845.418
495.4325, 5811.247
495.9146, 5781.257
496.3967, 5753.334
496.8788, 5734.688
497.3609, 5736.899
497.8430, 5737.830
498.3252, 5721.154
498.8073, 5692.665
499.2894, 5671.553
499.7715, 5671.534
500.2536, 5680.251
500.7357, 5677.202
501.2179, 5662.310
501.7000, 5641.287
502.1821, 5612.262
502.6642, 5582.570
503.1463, 5564.916
503.6284, 5559.494
504.1106, 5543.917
504.5927, 5505.449
505.0748, 5462.835
505.5569, 5422.199
506.0390, 5388.593
506.5211, 5376.312
507.0033, 5393.259
507.4854, 5421.388
507.9675, 5423.776
508.4496, 5383.896
508.9317, 5358.394
509.4138, 5354.581
509.8959, 5357.197
510.3781, 5366.935
510.8602, 5377.225
511.3423, 5374.565
511.8244, 5349.385
512.3065, 5317.217
512.7886, 5303.380
513.2708, 5306.817
513.7529, 5304.027
514.2350, 5289.408
514.7171, 5267.937
515.1992, 5238.003
515.6813, 5202.003
516.1635, 5183.828
516.6456, 5205.335
517.1277, 5227.012
517.6098, 5223.236
518.0919, 5203.675
518.5740, 5186.930
519.0562, 5179.498
519.5383, 5177.375
520.0204, 5174.555
520.5025, 5169.522
520.9846, 5172.520
521.4667, 5198.374
521.9489, 5216.221
522.4310, 5215.082
522.9131, 5201.388
523.3952, 5180.488
523.8773, 5152.785
524.3594, 5132.859
524.8416, 5137.358
525.3237, 5163.088
525.8058, 5198.823
526.2879, 5247.969
526.7700, 5288.326
527.2521, 5300.175
527.7343, 5288.617
528.2164, 5282.847
528.6985, 5287.068
529.1806, 5291.347
529.6627, 5282.878
530.1448, 5277.910
530.6270, 5299.488
531.1091, 5348.552
531.5912, 5405.643
532.0733, 5454.677
532.5554, 5495.414
533.0375, 5524.338
533.5197, 5532.164
534.0018, 5544.803
534.4839, 5567.270
534.9660, 5597.122
535.4481, 5632.634
535.9302, 5673.514
536.4124, 5720.508
536.8945, 5779.641
537.3766, 5842.480
537.8587, 5894.926
538.3408, 5936.546
538.8229, 5969.312
539.3051, 5989.458
539.7872, 6008.832
540.2693, 6055.309
540.7514, 6152.091
541.2335, 6217.928
541.7156, 6225.983
542.1978, 6223.924
542.6799, 6245.274
543.1620, 6281.327
543.6441, 6305.915
544.1262, 6305.391
544.6083, 6288.662
545.0905, 6274.622
545.5726, 6266.126
546.0547, 6239.924
546.5368, 6191.696
547.0189, 6126.511
547.5010, 6037.549
547.9832, 5935.539
548.4653, 5849.502
548.9474, 5797.719
549.4295, 5749.068
549.9116, 5681.707
550.3937, 5602.307
550.8759, 5523.429
551.3580, 5447.984
551.8401, 5377.689
552.3222, 5313.951
552.8043, 5256.908
553.2864, 5207.408
553.7686, 5168.787
554.2507, 5133.945
554.7328, 5105.721
555.2149, 5078.668
555.6970, 5045.290
556.1791, 5005.842
556.6613, 4970.475
557.1434, 4949.604
557.6255, 4939.088
558.1076, 4924.652
558.5897, 4904.898
559.0718, 4897.195
559.5540, 4915.203
560.0361, 4943.169
560.5182, 4952.337
561.0003, 4941.131
561.4824, 4925.860
561.9645, 4904.139
562.4467, 4883.354
562.9288, 4867.976
563.4109, 4857.905
563.8930, 4852.256
564.3751, 4850.694
564.8572, 4851.841
565.3394, 4854.225
565.8215, 4858.818
566.3036, 4859.073
566.7857, 4852.092
567.2678, 4844.119
567.7499, 4839.747
568.2321, 4836.379
568.7142, 4827.742
569.1963, 4807.940
569.6784, 4794.264
570.1605, 4803.391
570.6426, 4825.034
571.1248, 4841.002
571.6069, 4848.551
572.0890, 4853.695
572.5711, 4861.680
573.0532, 4870.611
573.5353, 4869.179
574.0175, 4832.656
574.4996, 4823.026
574.9817, 4870.564
575.4638, 4923.453
575.9459, 4944.564
576.4280, 4935.821
576.9102, 4919.452
577.3923, 4905.248
577.8744, 4894.612
578.3565, 4890.758
578.8386, 4893.346
579.3207, 4896.027
579.8029, 4895.206
580.2850, 4899.388
580.7671, 4923.438
581.2492, 4968.772
581.7313, 4988.599
582.2134, 4958.260
582.6956, 4930.651
583.1777, 4932.011
583.6598, 4944.042
584.1419, 4940.201
584.6240, 4916.304
585.1061, 4891.536
585.5883, 4885.775
586.0704, 4896.005
586.5525, 4901.984
587.0346, 4902.123
587.5167, 4903.222
587.9988, 4910.566
588.4810, 4917.767
588.9631, 4917.205
589.4452, 4908.493
589.9273, 4898.025
590.4094, 4881.162
590.8915, 4868.809
591.3737, 4873.224
591.8558, 4889.303
592.3379, 4902.830
592.8200, 4908.227
593.3021, 4912.135
593.7842, 4925.470
594.2664, 4950.457
594.7485, 4969.329
595.2306, 4973.324
595.7127, 4983.451
596.1948, 5014.897
596.6769, 5052.350
597.1591, 5074.134
597.6412, 5074.943
598.1233, 5077.776
598.6054, 5097.456
599.0875, 5127.850
599.5696, 5162.382
600.0518, 5199.537
600.5339, 5234.656
601.0160, 5265.413
601.4981, 5291.669
601.9802, 5311.929
602.4623, 5317.873
602.9445, 5338.161
603.4266, 5378.158
603.9087, 5425.662
604.3908, 5482.407
604.8729, 5541.017
605.3550, 5588.001
605.8372, 5617.310
606.3193, 5645.872
606.8014, 5700.554
607.2835, 5767.077
607.7656, 5797.741
608.2477, 5785.935
608.7299, 5772.023
609.2120, 5781.728
609.6941, 5806.751
610.1762, 5821.216
610.6583, 5812.279
611.1404, 5814.523
611.6226, 5842.079
612.1047, 5868.842
612.5868, 5881.475
613.0689, 5879.861
613.5510, 5865.069
614.0331, 5835.991
614.5153, 5803.957
614.9974, 5786.615
615.4795, 5781.711
615.9616, 5770.376
616.4437, 5748.059
616.9258, 5728.810
617.4080, 5723.792
617.8901, 5729.291
618.3722, 5730.759
618.8543, 5729.576
619.3364, 5722.543
619.8185, 5699.886
620.3007, 5678.695
620.7828, 5676.754
621.2649, 5688.537
621.7470, 5695.272
622.2291, 5686.851
622.7112, 5666.766
623.1934, 5636.598
623.6755, 5596.188
624.1576, 5569.125
624.6397, 5565.093
625.1218, 5558.323
625.6039, 5522.342
626.0861, 5469.384
626.5682, 5444.989
627.0503, 5476.075
627.5324, 5491.303
628.0145, 5455.181
628.4966, 5407.163
628.9788, 5383.442
629.4609, 5382.959
629.9430, 5388.130
630.4251, 5389.695
630.9072, 5384.926
631.3893, 5364.407
631.8715, 5326.265
632.3535, 5298.767
632.8356, 5290.134
633.3177, 5283.460
633.7999, 5259.159
634.2820, 5228.502
634.7641, 5224.474
635.2462, 5270.510
635.7283, 5304.387
636.2104, 5296.040
636.6926, 5272.818
637.1747, 5259.254
637.6568, 5256.917
638.1389, 5258.032
638.6210, 5257.954
639.1031, 5258.808
639.5853, 5268.075
640.0674, 5287.924
640.5495, 5294.016
641.0316, 5279.577
641.5137, 5258.514
641.9958, 5233.976
642.4780, 5210.449
642.9601, 5200.727
643.4422, 5218.521
643.9243, 5222.888
644.4064, 5186.743
644.8885, 5140.387
645.3707, 5110.538
645.8528, 5097.927
646.3349, 5095.127
646.8170, 5098.651
647.2991, 5103.608
647.7813, 5101.124
648.2634, 5091.025
648.7455, 5076.095
649.2276, 5055.575
649.7097, 5032.033
650.1918, 5003.269
650.6740, 4973.560
651.1561, 4951.206
651.6382, 4937.731
652.1203, 4928.999
652.6024, 4928.682
653.0845, 4928.661
653.5667, 4922.730
654.0488, 4910.969
654.5309, 4894.574
655.0130, 4874.055
655.4951, 4852.207
655.9772, 4831.927
656.4594, 4813.081
656.9415, 4803.254
657.4236, 4806.792
657.9057, 4808.564
658.3878, 4802.602
658.8699, 4788.659
659.3521, 4765.480
659.8342, 4729.121
660.3163, 4698.647
660.7984, 4676.271
661.2805, 4662.708
661.7626, 4665.616
662.2448, 4676.370
662.7269, 4678.703
663.2090, 4666.666
663.6911, 4648.079
664.1732, 4629.694
664.6553, 4612.226
665.1375, 4602.166
665.6196, 4600.946
666.1017, 4600.492
666.5838, 4598.081
667.0659, 4593.945
667.5480, 4587.931
668.0302, 4579.623
668.5123, 4572.452
668.9944, 4567.108
669.4765, 4562.449
669.9586, 4562.164
670.4407, 4560.302
670.9229, 4544.164
671.4050, 4513.262
671.8871, 4488.037
672.3692, 4490.854
672.8513, 4511.774
673.3334, 4522.980
673.8156, 4524.340
674.2977, 4522.070
674.7798, 4517.521
675.2619, 4511.293
675.7440, 4502.697
676.2261, 4491.146
676.7083, 4487.817
677.1904, 4503.109
677.6725, 4512.605
678.1546, 4508.380
678.6367, 4497.513
679.1188, 4484.070
679.6010, 4470.226
680.0831, 4460.613
680.5652, 4461.146
681.0473, 4463.191
681.5294, 4450.690
682.0115, 4427.766
682.4937, 4415.331
682.9758, 4418.620
683.4579, 4421.880
683.9400, 4410.511
684.4221, 4388.165
684.9042, 4376.910
685.3864, 4387.482
685.8685, 4391.894
686.3506, 4381.458
686.8327, 4371.614
687.3148, 4372.820
687.7969, 4381.808
688.2791, 4391.187
688.7612, 4401.490
689.2433, 4402.079
689.7254, 4373.959
690.2075, 4334.667
690.6896, 4313.125
691.1718, 4311.781
691.6539, 4324.775
692.1360, 4350.262
692.6181, 4380.113
693.1002, 4397.506
693.5823, 4401.330
694.0645, 4396.130
694.5466, 4374.684
695.0287, 4354.397
695.5108, 4343.119
695.9929, 4336.938
696.4750, 4329.685
696.9572, 4319.845
697.4393, 4316.901
697.9214, 4328.376
698.4035, 4344.735
698.8856, 4364.199
699.3677, 4381.194
699.8499, 4382.526
700.3320, 4365.075
700.8141, 4343.632
701.2962, 4334.692
701.7783, 4336.439
702.2604, 4338.547
702.7426, 4342.043
703.2247, 4339.785
703.7068, 4324.829
704.1889, 4309.835
704.6710, 4310.886
705.1531, 4327.349
705.6353, 4338.943
706.1174, 4344.191
706.5995, 4345.310
707.0816, 4345.107
707.5637, 4339.542
708.0458, 4317.428
708.5280, 4284.787
709.0101, 4265.815
709.4922, 4278.953
709.9743, 4302.592
710.4564, 4302.765
710.9385, 4285.170
711.4207, 4276.467
711.9028, 4280.912
712.3849, 4289.477
712.8670, 4296.596
713.3491, 4302.658
713.8312, 4309.352
714.3134, 4322.767
714.7955, 4324.347
715.2776, 4299.337
715.7597, 4278.862
716.2418, 4283.651
716.7239, 4298.155
717.2061, 4294.329
717.6882, 4264.014
718.1703, 4241.830
718.6524, 4257.042
719.1345, 4283.796
719.6166, 4290.578
720.0988, 4282.643
720.5809, 4279.728
721.0630, 4288.755
721.5451, 4304.504
722.0272, 4323.957
722.5093, 4345.310
722.9915, 4341.335
723.4736, 4298.669
723.9557, 4278.286
724.4378, 4314.979
724.9199, 4360.226
725.4020, 4357.777
725.8842, 4316.225
726.3663, 4291.927
726.8484, 4303.642
727.3305, 4315.960
727.8126, 4315.201
728.2947, 4312.421
728.7769, 4323.007
729.2590, 4342.060
729.7411, 4347.548
730.2232, 4324.427
730.7053, 4297.333
731.1874, 4304.621
731.6696, 4336.208
732.1517, 4353.558
732.6338, 4352.575
733.1159, 4342.232
733.5980, 4326.025
734.0801, 4306.936
734.5623, 4290.279
735.0444, 4272.777
735.5265, 4269.424
736.0086, 4296.182
736.4907, 4317.649
736.9728, 4319.302
737.4550, 4312.824
737.9371, 4310.585
738.4192, 4314.029
738.9013, 4319.350
739.3834, 4325.694
739.8655, 4332.646
740.3477, 4341.516
740.8298, 4350.181
741.3119, 4354.826
741.7940, 4354.906
742.2761, 4352.437
742.7582, 4348.175
743.2404, 4344.176
743.7225, 4347.714
744.2046, 4359.382
744.6867, 4365.322
745.1688, 4361.759
745.6509, 4356.873
746.1331, 4354.592
746.6152, 4355.981
747.0973, 4365.704
747.5794, 4396.393
748.0615, 4410.795
748.5436, 4395.069
749.0258, 4376.475
749.5079, 4367.171
749.9900, 4364.562
750.4721, 4364.050
750.9542, 4364.441
751.4363, 4364.286
751.9185, 4363.007
752.4006, 4360.362
752.8827, 4352.374
753.3648, 4342.811
753.8469, 4346.134
754.3290, 4365.562
754.8112, 4382.838
755.2933, 4378.259
755.7754, 4357.298
756.2575, 4348.111
756.7396, 4352.564
757.2217, 4361.370
757.7039, 4375.292
758.1860, 4389.250
758.6681, 4396.735
759.1502, 4401.149
759.6323, 4416.502
760.1144, 4457.195
760.5966, 4481.840
761.0787, 4475.166
761.5608, 4459.313
762.0429, 4441.289
762.5250, 4426.712
763.0071, 4425.191
763.4893, 4439.470
763.9714, 4454.385
764.4535, 4454.143
764.9356, 4448.410
765.4177, 4454.704
765.8998, 4470.279
766.3820, 4483.176
766.8641, 4489.633
767.3462, 4490.325
767.8283, 4484.910
768.3104, 4474.888
768.7925, 4470.005
769.2747, 4471.595
769.7568, 4473.814
770.2389, 4475.124
770.7210, 4477.633
771.2031, 4485.008
771.6852, 4494.750
772.1674, 4498.064
772.6495, 4483.853
773.1316, 4485.737
773.6137, 4530.763
774.0958, 4573.262
774.5779, 4579.091
775.0601, 4563.074
775.5422, 4553.692
776.0243, 4558.884
776.5064, 4565.181
776.9885, 4560.184
777.4706, 4550.526
777.9528, 4543.244
778.4349, 4540.128
778.9170, 4550.412
779.3991, 4575.934
779.8812, 4599.363
780.3633, 4603.507
780.8455, 4593.597
781.3276, 4591.910
781.8097, 4599.583
782.2918, 4612.229
782.7739, 4637.229
783.2560, 4652.368
783.7382, 4634.476
784.2203, 4598.140
784.7024, 4583.709
785.1845, 4600.854
785.6666, 4612.399
786.1487, 4609.885
786.6309, 4605.966
787.1130, 4606.513
787.5951, 4609.713
788.0772, 4610.590
788.5593, 4609.221
789.0414, 4614.910
789.5236, 4640.999
790.0057, 4670.642
790.4878, 4685.958
790.9699, 4690.132
791.4520, 4687.420
791.9341, 4679.951
792.4163, 4673.614
792.8984, 4671.901
793.3805, 4676.638
793.8626, 4699.965
794.3447, 4743.967
794.8268, 4749.114
795.3090, 4699.133
795.7911, 4653.866
796.2732, 4643.059
796.7552, 4655.451
797.2374, 4673.789
797.7195, 4701.051
798.2016, 4720.118
798.6837, 4722.332
799.1658, 4727.873
799.6479, 4749.311
800.1301, 4770.541
800.6122, 4776.849
801.0943, 4768.817
801.5764, 4755.438
802.0585, 4731.148
802.5406, 4717.240
803.0228, 4738.489
803.5049, 4769.885
803.9870, 4778.965
804.4691, 4769.107
804.9512, 4761.258
805.4333, 4764.857
805.9155, 4775.199
806.3976, 4793.721
806.8797, 4813.940
807.3618, 4802.798
807.8439, 4761.452
808.3260, 4740.668
808.8082, 4759.876
809.2903, 4786.707
809.7724, 4784.946
810.2545, 4759.207
810.7366, 4752.777
811.2188, 4773.841
811.7009, 4795.355
812.1830, 4819.900
812.6651, 4837.327
813.1472, 4833.999
813.6293, 4821.145
814.1115, 4824.347
814.5936, 4854.910
815.0757, 4868.734
815.5578, 4839.325
816.0399, 4809.728
816.5220, 4805.979
817.0042, 4815.582
817.4863, 4819.009
817.9684, 4814.061
818.4505, 4814.784
818.9326, 4836.782
819.4147, 4859.618
819.8969, 4859.433
820.3790, 4843.885
820.8611, 4824.556
821.3432, 4805.205
821.8253, 4793.319
822.3074, 4793.748
822.7896, 4799.815
823.2717, 4799.875
823.7538, 4794.353
824.2359, 4792.867
824.7180, 4796.803
825.2001, 4794.432
825.6823, 4778.387
826.1644, 4761.650
826.6465, 4761.057
827.1286, 4776.173
827.6107, 4784.058
828.0928, 4784.440
828.5750, 4778.087
829.0571, 4754.125
829.5392, 4734.146
830.0213, 4733.245
830.5034, 4744.862
830.9855, 4754.811
831.4677, 4760.736
831.9498, 4766.328
832.4319, 4775.746
832.9140, 4781.967
833.3961, 4778.035
833.8782, 4769.191
834.3604, 4765.613
834.8425, 4767.334
835.3246, 4761.015
835.8067, 4730.620
836.2888, 4698.588
836.7709, 4694.218
837.2531, 4707.252
837.7352, 4719.601
838.2173, 4727.203
838.6994, 4723.831
839.1815, 4705.495
839.6636, 4683.326
840.1458, 4676.478
840.6279, 4683.565
841.1100, 4686.313
841.5921, 4684.907
842.0742, 4674.176
842.5563, 4648.384
843.0385, 4625.418
843.5206, 4625.354
844.0027, 4645.138
844.4848, 4658.054
844.9669, 4665.231
845.4490, 4662.931
845.9312, 4639.316
846.4133, 4619.584
846.8954, 4624.471
847.3775, 4638.493
847.8596, 4632.738
848.3417, 4599.769
848.8239, 4580.950
849.3060, 4595.537
849.7881, 4612.463
850.2702, 4618.670
850.7523, 4619.613
851.2344, 4623.581
851.7166, 4629.226
852.1987, 4626.695
852.6808, 4609.047
853.1629, 4588.190
853.6450, 4572.511
854.1271, 4559.845
854.6093, 4539.343
855.0914, 4519.352
855.5735, 4529.594
856.0556, 4579.027
856.5377, 4634.355
857.0198, 4667.284
857.5020, 4676.481
857.9841, 4649.140
858.4662, 4590.762
858.9483, 4538.228
859.4304, 4498.934
859.9125, 4474.056
860.3947, 4465.366
860.8768, 4469.640
861.3589, 4481.695
861.8410, 4504.340
862.3231, 4515.847
862.8052, 4514.773
863.2874, 4504.912
863.7695, 4481.906
864.2516, 4458.507
864.7337, 4450.768
865.2158, 4458.417
865.6979, 4463.060
866.1801, 4463.846
866.6622, 4462.800
867.1443, 4451.345
867.6264, 4446.947
868.1085, 4470.271
868.5906, 4503.903
869.0728, 4512.448
869.5549, 4486.568
870.0370, 4468.681
870.5191, 4481.692
871.0012, 4494.658
871.4833, 4491.357
871.9655, 4477.995
872.4476, 4458.797
872.9297, 4437.203
873.4118, 4421.524
873.8939, 4417.216
874.3760, 4414.918
874.8582, 4402.179
875.3403, 4389.242
875.8224, 4396.493
876.3045, 4416.073
876.7866, 4421.209
877.2687, 4403.889
877.7509, 4380.678
878.2330, 4356.679
878.7151, 4349.200
879.1972, 4428.670
879.6793, 4568.450
880.1614, 4610.430
880.6436, 4532.413
881.1257, 4444.950
881.6078, 4412.037
882.0899, 4414.890
882.5720, 4421.817
883.0541, 4432.933
883.5363, 4445.516
884.0184, 4462.446
884.5005, 4465.310
884.9826, 4443.603
885.4647, 4419.060
885.9468, 4412.948
886.4290, 4421.182
886.9111, 4422.057
887.3932, 4409.779
887.8753, 4402.372
888.3574, 4396.527
888.8395, 4400.516
889.3217, 4428.522
889.8038, 4462.294
890.2859, 4479.128
890.7680, 4478.501
891.2501, 4475.311
891.7322, 4468.419
892.2144, 4462.632
892.6965, 4459.147
893.1786, 4457.097
893.6607, 4454.442
894.1428, 4453.060
894.6249, 4459.659
895.1071, 4477.888
895.5892, 4485.943
896.0713, 4457.280
896.5534, 4432.880
897.0355, 4449.820
897.5176, 4483.540
897.9998, 4497.768
898.4819, 4492.624
898.9640, 4495.518
899.4461, 4524.219
899.9282, 4550.233
900.4103, 4535.382
900.8925, 4508.275
901.3746, 4516.624
901.8567, 4549.945
902.3388, 4568.261
902.8209, 4561.517
903.3030, 4557.179
903.7852, 4582.878
904.2673, 4618.875
904.7494, 4624.434
905.2315, 4606.456
905.7136, 4587.936
906.1957, 4572.875
906.6779, 4572.844
907.1600, 4594.220
907.6421, 4622.398
908.1242, 4635.953
908.6063, 4638.090
909.0884, 4655.510
909.5706, 4689.961
910.0527, 4704.036
910.5348, 4685.854
911.0169, 4671.100
911.4990, 4685.905
911.9811, 4718.809
912.4633, 4743.034
912.9454, 4757.901
913.4275, 4769.101
913.9096, 4777.180
914.3917, 4779.458
914.8738, 4770.245
915.3560, 4762.396
915.8381, 4769.710
916.3202, 4789.013
916.8023, 4802.443
917.2844, 4801.389
917.7665, 4810.220
918.2487, 4842.475
918.7308, 4868.224
919.2129, 4870.732
919.6950, 4864.921
920.1771, 4867.099
920.6592, 4877.472
921.1414, 4888.937
921.6235, 4898.720
922.1056, 4912.355
922.5877, 4926.949
923.0698, 4949.852
923.5519, 4998.129
924.0341, 5052.836
924.5162, 5078.802
924.9983, 5070.046
925.4804, 5064.976
925.9625, 5081.527
926.4446, 5099.733
926.9268, 5112.270
927.4089, 5119.601
927.8910, 5120.523
928.3731, 5117.078
928.8552, 5111.795
929.3373, 5104.587
929.8195, 5106.597
930.3016, 5132.884
930.7837, 5163.736
931.2658, 5179.238
931.7479, 5188.554
932.2300, 5209.616
932.7122, 5240.873
933.1943, 5263.528
933.6764, 5266.115
934.1585, 5267.526
934.6406, 5290.732
935.1227, 5321.538
935.6049, 5337.228
936.0870, 5342.432
936.5691, 5352.110
937.0512, 5369.075
937.5333, 5385.251
938.0154, 5395.803
938.4976, 5399.807
938.9797, 5381.423
939.4618, 5359.051
939.9439, 5396.634
940.4260, 5483.400
940.9081, 5537.404
941.3903, 5532.480
941.8724, 5526.055
942.3545, 5578.283
942.8366, 5657.500
943.3187, 5678.811
943.8008, 5651.744
944.2830, 5637.567
944.7651, 5642.531
945.2472, 5657.847
945.7293, 5679.762
946.2114, 5708.299
946.6935, 5744.592
947.1757, 5786.713
947.6578, 5825.855
948.1399, 5862.328
948.6220, 5886.917
949.1041, 5897.067
949.5862, 5905.978
950.0684, 5920.819
950.5505, 5938.035
951.0326, 5950.782
951.5147, 5959.551
951.9968, 5981.151
952.4789, 6018.849
952.9611, 6051.453
953.4432, 6072.813
953.9253, 6095.181
954.4074, 6124.827
954.8895, 6163.405
955.3716, 6217.869
955.8538, 6292.239
956.3359, 6342.417
956.8180, 6354.697
957.3001, 6379.565
957.7822, 6432.911
958.2643, 6492.822
958.7465, 6541.347
959.2286, 6585.354
959.7107, 6645.473
960.1928, 6729.461
960.6749, 6798.636
961.1570, 6830.449
961.6391, 6888.751
962.1212, 7002.939
962.6033, 7134.924
963.0854, 7257.375
963.5676, 7372.491
964.0497, 7484.565
964.5318, 7585.652
965.0139, 7703.513
965.4960, 7846.620
965.9781, 7995.745
966.4603, 8145.085
966.9424, 8298.726
967.4245, 8460.581
967.9066, 8630.201
968.3887, 8803.216
968.8708, 8964.107
969.3530, 9158.311
969.8351, 9444.374
970.3172, 9695.431
970.7993, 9847.596
971.2814, 9956.004
971.7635, 10063.86
972.2457, 10177.76
972.7278, 10322.31
973.2099, 10534.23
973.6920, 10715.58
974.1741, 10825.10
974.6563, 10931.33
975.1384, 11076.56
975.6205, 11228.49
976.1026, 11345.93
976.5847, 11430.02
977.0668, 11508.46
977.5490, 11576.61
978.0311, 11656.61
978.5132, 11753.45
978.9953, 11863.67
979.4774, 11985.77
979.9595, 12119.67
980.4417, 12262.42
980.9238, 12415.71
981.4059, 12595.53
981.8880, 12827.48
982.3701, 13051.58
982.8522, 13236.65
983.3344, 13424.93
983.8165, 13661.33
984.2986, 13907.61
984.7807, 14099.75
985.2628, 14237.20
985.7449, 14391.45
986.2271, 14613.38
986.7092, 14810.67
987.1913, 14943.59
987.6734, 15047.65
988.1555, 15145.38
988.6376, 15231.69
989.1198, 15302.84
989.6019, 15355.33
990.0840, 15367.60
990.5661, 15314.27
991.0482, 15246.08
991.5303, 15179.37
992.0125, 15111.09
992.4946, 15044.50
992.9767, 14972.37
993.4588, 14890.08
993.9409, 14794.24
994.4230, 14665.16
994.9052, 14461.17
995.3873, 14275.43
995.8694, 14168.14
996.3515, 14079.75
996.8336, 13965.77
997.3157, 13836.81
997.7979, 13712.05
998.2800, 13595.87
998.7621, 13488.11
999.2442, 13389.07
999.7263, 13296.96
1000.208, 13224.15
1000.691, 13145.06
1001.173, 13031.90
1001.655, 12901.38
1002.137, 12777.27
1002.619, 12665.58
1003.101, 12573.90
1003.583, 12511.11
1004.065, 12458.80
1004.547, 12414.78
1005.030, 12372.02
1005.512, 12329.22
1005.994, 12282.01
1006.476, 12220.19
1006.958, 12145.33
1007.440, 12078.63
1007.922, 12025.83
1008.404, 11987.80
1008.887, 11978.68
1009.369, 11970.52
1009.851, 11926.16
1010.333, 11876.86
1010.815, 11885.75
1011.297, 11948.63
1011.779, 11972.32
1012.261, 11893.66
1012.743, 11824.78
1013.226, 11833.03
1013.708, 11848.32
1014.190, 11816.95
1014.672, 11763.48
1015.154, 11719.85
1015.636, 11692.49
1016.118, 11684.97
1016.600, 11719.46
1017.083, 11731.65
1017.565, 11670.85
1018.047, 11608.75
1018.529, 11596.91
1019.011, 11607.11
1019.493, 11596.55
1019.975, 11567.45
1020.457, 11558.70
1020.939, 11591.31
1021.422, 11620.61
1021.904, 11625.39
1022.386, 11630.92
1022.868, 11645.60
1023.350, 11672.62
1023.832, 11722.64
1024.314, 11788.77
1024.796, 11839.37
1025.279, 11858.43
1025.761, 11887.34
1026.243, 11947.04
1026.725, 12005.90
1027.207, 12052.38
1027.689, 12088.32
1028.171, 12099.09
1028.653, 12101.44
1029.135, 12158.13
1029.618, 12306.47
1030.100, 12420.76
1030.582, 12457.67
1031.064, 12484.61
1031.546, 12521.82
1032.028, 12562.32
1032.510, 12588.89
1032.992, 12614.71
1033.474, 12684.24
1033.957, 12823.48
1034.439, 12918.91
1034.921, 12916.84
1035.403, 12931.07
1035.885, 12993.62
1036.367, 13078.36
1036.849, 13182.05
1037.331, 13289.92
1037.814, 13365.80
1038.296, 13399.68
1038.778, 13449.39
1039.260, 13516.88
1039.742, 13597.31
1040.224, 13696.94
1040.706, 13800.77
1041.188, 13905.79
1041.671, 14005.79
1042.153, 14089.74
1042.635, 14156.36
1043.117, 14219.55
1043.599, 14269.97
1044.081, 14338.46
1044.563, 14440.20
1045.045, 14540.39
1045.527, 14622.82
1046.010, 14693.49
1046.492, 14756.71
1046.974, 14814.58
1047.456, 14899.74
1047.938, 15024.89
1048.420, 15131.85
1048.902, 15211.57
1049.384, 15287.70
1049.866, 15375.66
1050.349, 15447.10
1050.831, 15461.94
1051.313, 15439.90
1051.795, 15476.52
1052.277, 15580.25
1052.759, 15677.01
1053.241, 15763.90
1053.723, 15839.50
1054.205, 15900.78
1054.688, 15970.52
1055.170, 16073.30
1055.652, 16189.36
1056.134, 16265.93
1056.616, 16304.61
1057.098, 16348.01
1057.580, 16397.22
1058.062, 16470.14
1058.545, 16571.41
1059.027, 16658.18
1059.509, 16698.22
1059.991, 16724.21
1060.473, 16788.73
1060.955, 16887.19
1061.437, 17010.52
1061.919, 17152.05
1062.401, 17270.73
1062.884, 17362.51
1063.366, 17455.57
1063.848, 17564.29
1064.330, 17673.05
1064.812, 17755.39
1065.294, 17831.54
1065.776, 17947.73
1066.258, 18088.94
1066.740, 18220.84
1067.223, 18337.42
1067.705, 18429.20
1068.187, 18496.02
1068.669, 18580.55
1069.151, 18728.17
1069.633, 18891.00
1070.115, 19016.03
1070.597, 19118.56
1071.080, 19215.29
1071.562, 19310.25
1072.044, 19409.84
1072.526, 19513.39
1073.008, 19600.35
1073.490, 19640.84
1073.972, 19716.74
1074.454, 19919.86
1074.937, 20152.68
1075.419, 20347.37
1075.901, 20500.33
1076.383, 20604.48
1076.865, 20670.01
1077.347, 20722.30
1077.829, 20753.85
1078.311, 20844.47
1078.793, 21079.76
1079.276, 21316.18
1079.758, 21489.75
1080.240, 21625.76
1080.722, 21730.90
1081.204, 21823.96
1081.686, 21939.08
1082.168, 22082.26
1082.650, 22238.34
1083.132, 22422.34
1083.615, 22594.75
1084.097, 22740.94
1084.579, 22879.96
1085.061, 23022.04
1085.543, 23161.95
1086.025, 23284.56
1086.507, 23391.73
1086.989, 23531.75
1087.472, 23728.56
1087.954, 23905.24
1088.436, 24051.90
1088.918, 24190.58
1089.400, 24321.51
1089.882, 24463.90
1090.364, 24641.56
1090.846, 24841.15
1091.328, 25015.23
1091.811, 25161.45
1092.293, 25303.52
1092.775, 25439.02
1093.257, 25593.39
1093.739, 25776.33
1094.221, 25949.70
1094.703, 26084.99
1095.185, 26214.66
1095.667, 26392.25
1096.150, 26611.61
1096.632, 26852.88
1097.114, 27109.06
1097.596, 27332.08
1098.078, 27516.92
1098.560, 27685.11
1099.042, 27846.01
1099.524, 27987.56
1100.007, 28084.07
1100.489, 28183.46
1100.971, 28376.25
1101.453, 28626.62
1101.935, 28878.13
1102.417, 29118.34
1102.899, 29331.95
1103.381, 29518.35
1103.864, 29693.97
1104.346, 29864.18
1104.828, 30039.03
1105.310, 30229.60
1105.792, 30425.58
1106.274, 30607.03
1106.756, 30796.21
1107.238, 31041.04
1107.720, 31319.80
1108.203, 31555.22
1108.685, 31723.33
1109.167, 31891.72
1109.649, 32078.32
1110.131, 32280.86
1110.613, 32503.99
1111.095, 32736.56
1111.577, 32978.74
1112.059, 33219.30
1112.542, 33440.79
1113.024, 33641.82
1113.506, 33846.58
1113.988, 34054.37
1114.470, 34268.02
1114.952, 34494.71
1115.434, 34715.04
1115.916, 34914.01
1116.399, 35119.11
1116.881, 35356.68
1117.363, 35617.48
1117.845, 35875.71
1118.327, 36133.37
1118.809, 36366.84
1119.291, 36573.43
1119.773, 36772.29
1120.255, 36966.98
1120.738, 37141.18
1121.220, 37278.15
1121.702, 37441.34
1122.184, 37728.34
1122.666, 38092.68
1123.148, 38392.68
1123.630, 38637.59
1124.112, 38867.74
1124.594, 39090.30
1125.077, 39314.59
1125.559, 39545.01
1126.041, 39789.12
1126.523, 40062.50
1127.005, 40311.11
1127.487, 40431.51
1127.969, 40523.12
1128.451, 40724.46
1128.934, 40991.95
1129.416, 41245.73
1129.898, 41482.45
1130.380, 41738.53
1130.862, 42026.46
1131.344, 42311.13
1131.826, 42584.13
1132.308, 42836.53
1132.791, 43043.92
1133.273, 43250.65
1133.755, 43489.56
1134.237, 43752.55
1134.719, 44040.96
1135.201, 44347.05
1135.683, 44611.55
1136.165, 44793.89
1136.647, 45003.11
1137.130, 45242.94
1137.612, 45512.99
1138.094, 45847.79
1138.576, 46157.53
1139.058, 46359.65
1139.540, 46510.40
1140.022, 46728.21
1140.504, 47012.65
1140.986, 47272.90
1141.469, 47504.34
1141.951, 47767.09
1142.433, 48069.71
1142.915, 48355.57
1143.397, 48597.47
1143.879, 48847.08
1144.361, 49162.39
1144.843, 49500.62
1145.326, 49774.89
1145.808, 50004.91
1146.290, 50238.53
1146.772, 50481.02
1147.254, 50739.00
1147.736, 51015.24
1148.218, 51323.50
1148.700, 51672.49
1149.182, 52010.32
1149.665, 52296.00
1150.147, 52557.91
1150.629, 52795.76
1151.111, 53043.69
1151.593, 53352.64
1152.075, 53692.50
1152.557, 54011.36
1153.039, 54299.90
1153.521, 54569.36
1154.004, 54807.45
1154.486, 55054.92
1154.968, 55294.13
1155.450, 55575.64
1155.932, 55954.95
1156.414, 56341.68
1156.896, 56666.23
1157.378, 56957.70
1157.861, 57279.40
1158.343, 57633.20
1158.825, 57966.69
1159.307, 58274.74
1159.789, 58604.34
1160.271, 58964.36
1160.753, 59325.50
1161.235, 59678.92
1161.718, 60010.95
1162.200, 60305.08
1162.682, 60584.06
1163.164, 60889.77
1163.646, 61221.88
1164.128, 61597.92
1164.610, 62000.70
1165.092, 62370.46
1165.574, 62706.18
1166.057, 63045.56
1166.539, 63403.88
1167.021, 63798.52
1167.503, 64274.00
1167.985, 64747.39
1168.467, 65169.96
1168.949, 65550.26
1169.431, 65865.79
1169.913, 66167.38
1170.396, 66520.38
1170.878, 66929.02
1171.360, 67363.77
1171.842, 67841.19
1172.324, 68283.32
1172.806, 68638.73
1173.288, 69026.15
1173.770, 69495.06
1174.253, 69956.73
1174.735, 70359.83
1175.217, 70733.20
1175.699, 71115.04
1176.181, 71507.57
1176.663, 71931.28
1177.145, 72387.20
1177.627, 72835.23
1178.109, 73274.13
1178.592, 73757.18
1179.074, 74294.98
1179.556, 74806.65
1180.038, 75238.82
1180.520, 75669.95
1181.002, 76227.27
1181.484, 76819.00
1181.966, 77284.47
1182.448, 77688.55
1182.931, 78107.93
1183.413, 78566.82
1183.895, 79118.43
##END=



