##NAMES=Hauyne
##RRUFFID=R050606
##IDEAL CHEMISTRY=Na_3_Ca(Si_3_Al_3_)O_12_(S^6+^O_4_)
##LOCALITY=Ariccia, near Rome, Italy
##OWNER=RRUFF
##SOURCE=University of Arizona Mineral Museum
##DESCRIPTION=Blue crystal embedded in calcite
##STATUS=The identification of this mineral has been confirmed only by X-ray diffraction
##URL=rruff.info/R050606
91.11523, 49.89949
91.59735, 49.82115
92.07947, 49.92048
92.56158, 50.13214
93.04370, 50.24965
93.52582, 50.03441
94.00793, 49.65040
94.49006, 49.50731
94.97218, 49.72422
95.45429, 50.01322
95.93641, 49.79071
96.41853, 49.07234
96.90064, 48.49900
97.38276, 48.51155
97.86488, 49.08190
98.34699, 50.02007
98.82911, 51.52323
99.31123, 53.25185
99.79334, 53.89040
100.2755, 53.19603
100.7576, 52.23371
101.2397, 52.09314
101.7218, 53.04028
102.2039, 53.48475
102.6861, 52.84382
103.1682, 51.13152
103.6503, 50.43865
104.1324, 51.29070
104.6145, 52.57414
105.0966, 52.82141
105.5788, 51.07911
106.0609, 49.96145
106.5430, 50.33502
107.0251, 52.81100
107.5072, 54.59903
107.9893, 55.39066
108.4715, 55.57980
108.9536, 55.87380
109.4357, 56.04823
109.9178, 56.53270
110.3999, 57.43470
110.8820, 58.51851
111.3642, 60.38898
111.8463, 63.63073
112.3284, 67.75262
112.8105, 71.41322
113.2926, 73.72762
113.7747, 76.07635
114.2569, 79.12856
114.7390, 83.19173
115.2211, 87.75541
115.7032, 92.52334
116.1853, 97.60278
116.6674, 103.5113
117.1496, 110.5730
117.6317, 118.5580
118.1138, 127.2019
118.5959, 136.0155
119.0780, 145.8953
119.5602, 157.0421
120.0423, 169.5705
120.5244, 183.7395
121.0065, 200.4285
121.4886, 218.7099
121.9707, 237.4403
122.4529, 256.7401
122.9350, 275.7387
123.4171, 293.3903
123.8992, 309.5621
124.3813, 325.5416
124.8634, 342.9904
125.3456, 361.1011
125.8277, 378.1104
126.3098, 392.2704
126.7919, 404.9024
127.2740, 417.5357
127.7561, 430.1068
128.2383, 443.4390
128.7204, 458.6664
129.2025, 475.6120
129.6846, 493.3454
130.1667, 510.5561
130.6488, 527.8561
131.1310, 548.6097
131.6131, 573.9443
132.0952, 601.5193
132.5773, 626.9587
133.0594, 650.3270
133.5415, 673.8889
134.0237, 700.3466
134.5058, 729.5187
134.9879, 756.4794
135.4700, 780.2724
135.9521, 801.6534
136.4343, 824.1699
136.9164, 848.4666
137.3985, 871.5287
137.8806, 890.6563
138.3627, 905.4631
138.8448, 919.8750
139.3270, 935.0428
139.8091, 950.7936
140.2912, 964.7986
140.7733, 976.9739
141.2554, 987.7814
141.7375, 997.1495
142.2197, 1004.250
142.7018, 1012.363
143.1839, 1022.127
143.6660, 1033.496
144.1481, 1046.526
144.6302, 1061.515
145.1124, 1077.827
145.5945, 1094.415
146.0766, 1111.489
146.5587, 1128.792
147.0408, 1146.000
147.5230, 1162.477
148.0051, 1180.780
148.4872, 1196.535
148.9693, 1206.667
149.4514, 1216.307
149.9335, 1225.449
150.4157, 1234.316
150.8978, 1242.949
151.3799, 1252.123
151.8620, 1259.932
152.3441, 1266.221
152.8262, 1271.315
153.3084, 1275.630
153.7905, 1279.030
154.2726, 1281.839
154.7547, 1284.215
155.2368, 1286.177
155.7189, 1287.604
156.2011, 1288.342
156.6832, 1288.513
157.1653, 1288.405
157.6474, 1287.603
158.1295, 1286.825
158.6116, 1286.337
159.0938, 1285.266
159.5759, 1285.671
160.0580, 1289.242
160.5401, 1294.958
161.0222, 1299.375
161.5044, 1300.586
161.9865, 1300.558
162.4686, 1300.591
162.9507, 1300.594
163.4328, 1301.145
163.9149, 1302.730
164.3971, 1305.178
164.8792, 1307.578
165.3613, 1309.186
165.8434, 1310.702
166.3255, 1312.784
166.8076, 1316.627
167.2898, 1320.217
167.7719, 1322.437
168.2540, 1323.381
168.7361, 1323.753
169.2182, 1322.488
169.7003, 1321.312
170.1825, 1322.288
170.6646, 1328.842
171.1467, 1336.006
171.6288, 1339.706
172.1109, 1339.994
172.5931, 1339.345
173.0752, 1339.273
173.5573, 1339.447
174.0394, 1339.336
174.5215, 1337.721
175.0036, 1336.198
175.4858, 1336.998
175.9679, 1340.191
176.4500, 1343.493
176.9321, 1345.256
177.4142, 1345.702
177.8963, 1345.322
178.3785, 1343.093
178.8606, 1340.564
179.3427, 1340.552
179.8248, 1343.261
180.3069, 1346.578
180.7890, 1348.694
181.2712, 1349.705
181.7533, 1349.848
182.2354, 1348.753
182.7175, 1346.922
183.1996, 1345.219
183.6818, 1343.537
184.1639, 1342.569
184.6460, 1343.790
185.1281, 1346.736
185.6102, 1349.030
186.0923, 1349.002
186.5745, 1347.356
187.0566, 1346.366
187.5387, 1346.223
188.0208, 1346.379
188.5029, 1346.239
188.9850, 1345.803
189.4672, 1344.955
189.9493, 1343.103
190.4314, 1340.620
190.9135, 1339.494
191.3956, 1340.067
191.8777, 1341.431
192.3599, 1342.260
192.8420, 1342.548
193.3241, 1342.706
193.8062, 1343.033
194.2883, 1343.474
194.7704, 1343.380
195.2526, 1342.543
195.7347, 1341.412
196.2168, 1340.773
196.6989, 1340.621
197.1810, 1340.716
197.6632, 1341.075
198.1453, 1341.684
198.6274, 1341.890
199.1095, 1341.612
199.5916, 1340.969
200.0737, 1340.031
200.5559, 1338.695
201.0380, 1337.770
201.5201, 1338.194
202.0022, 1340.193
202.4843, 1340.618
202.9664, 1339.020
203.4486, 1336.105
203.9307, 1333.181
204.4128, 1330.111
204.8949, 1327.768
205.3770, 1327.001
205.8591, 1328.136
206.3413, 1328.330
206.8234, 1327.052
207.3055, 1324.994
207.7876, 1323.989
208.2697, 1324.236
208.7519, 1324.863
209.2340, 1325.672
209.7161, 1326.913
210.1982, 1326.863
210.6803, 1325.047
211.1624, 1322.095
211.6446, 1319.655
212.1267, 1317.764
212.6088, 1316.386
213.0909, 1315.569
213.5730, 1315.445
214.0551, 1315.468
214.5373, 1315.613
215.0194, 1315.927
215.5015, 1316.621
215.9836, 1317.997
216.4657, 1319.180
216.9478, 1319.613
217.4300, 1318.917
217.9121, 1318.757
218.3942, 1319.626
218.8763, 1320.888
219.3584, 1320.401
219.8405, 1316.980
220.3227, 1313.912
220.8048, 1313.073
221.2869, 1315.506
221.7690, 1317.039
222.2511, 1317.180
222.7333, 1316.430
223.2154, 1316.302
223.6975, 1317.174
224.1796, 1318.074
224.6617, 1318.580
225.1438, 1318.705
225.6260, 1318.449
226.1081, 1317.582
226.5902, 1316.444
227.0723, 1316.115
227.5544, 1317.324
228.0365, 1318.226
228.5187, 1317.783
229.0008, 1315.023
229.4829, 1313.268
229.9650, 1312.688
230.4471, 1313.051
230.9292, 1313.794
231.4114, 1315.028
231.8935, 1316.401
232.3756, 1317.877
232.8577, 1320.067
233.3398, 1320.814
233.8220, 1319.619
234.3041, 1317.117
234.7862, 1314.833
235.2683, 1312.567
235.7504, 1310.850
236.2325, 1309.966
236.7147, 1310.268
237.1968, 1310.648
237.6789, 1311.184
238.1610, 1311.840
238.6431, 1312.461
239.1252, 1312.844
239.6074, 1313.615
240.0895, 1315.324
240.5716, 1318.964
241.0537, 1320.547
241.5358, 1319.006
242.0179, 1315.919
242.5001, 1314.429
242.9822, 1315.313
243.4643, 1316.468
243.9464, 1317.115
244.4285, 1316.992
244.9106, 1317.004
245.3928, 1316.752
245.8749, 1316.800
246.3570, 1318.436
246.8391, 1323.184
247.3212, 1326.823
247.8034, 1327.630
248.2855, 1324.677
248.7676, 1322.873
249.2497, 1322.801
249.7318, 1323.464
250.2139, 1323.140
250.6961, 1320.642
251.1782, 1319.438
251.6603, 1321.099
252.1424, 1326.494
252.6245, 1329.650
253.1066, 1329.842
253.5888, 1328.515
254.0709, 1327.416
254.5530, 1326.374
255.0351, 1325.935
255.5172, 1326.469
255.9993, 1328.125
256.4815, 1329.045
256.9636, 1328.970
257.4457, 1328.411
257.9278, 1327.834
258.4099, 1326.941
258.8921, 1326.738
259.3742, 1327.782
259.8563, 1330.100
260.3384, 1331.396
260.8205, 1331.608
261.3026, 1330.869
261.7848, 1328.963
262.2669, 1325.097
262.7490, 1322.333
263.2311, 1321.492
263.7132, 1322.457
264.1953, 1323.684
264.6775, 1325.654
265.1596, 1327.074
265.6417, 1326.327
266.1238, 1322.349
266.6059, 1320.011
267.0880, 1320.761
267.5702, 1323.995
268.0523, 1325.450
268.5344, 1324.670
269.0165, 1323.079
269.4986, 1321.534
269.9807, 1319.853
270.4629, 1319.010
270.9450, 1319.283
271.4271, 1320.446
271.9092, 1321.683
272.3913, 1323.106
272.8734, 1324.274
273.3556, 1324.695
273.8377, 1324.173
274.3198, 1324.217
274.8019, 1325.071
275.2840, 1326.489
275.7661, 1327.909
276.2483, 1329.386
276.7304, 1330.611
277.2125, 1331.082
277.6946, 1330.688
278.1768, 1331.514
278.6589, 1334.207
279.1410, 1337.508
279.6231, 1338.716
280.1052, 1337.628
280.5873, 1335.956
281.0695, 1334.449
281.5516, 1333.103
282.0337, 1331.850
282.5158, 1330.617
282.9979, 1329.632
283.4800, 1329.325
283.9622, 1329.707
284.4443, 1330.288
284.9264, 1330.945
285.4085, 1331.634
285.8906, 1332.094
286.3727, 1332.292
286.8549, 1332.314
287.3370, 1332.101
287.8191, 1331.673
288.3012, 1331.634
288.7833, 1332.478
289.2654, 1333.877
289.7476, 1334.752
290.2297, 1335.132
290.7118, 1334.855
291.1939, 1333.034
291.6760, 1330.084
292.1581, 1328.510
292.6403, 1329.934
293.1224, 1332.775
293.6045, 1333.482
294.0866, 1332.056
294.5687, 1329.291
295.0508, 1324.536
295.5330, 1318.715
296.0151, 1315.279
296.4972, 1315.672
296.9793, 1318.017
297.4614, 1319.252
297.9435, 1319.498
298.4257, 1319.638
298.9078, 1320.582
299.3899, 1321.865
299.8720, 1322.367
300.3541, 1321.674
300.8362, 1320.627
301.3184, 1320.238
301.8005, 1320.396
302.2826, 1320.652
302.7647, 1320.280
303.2469, 1319.981
303.7290, 1321.108
304.2111, 1324.161
304.6932, 1327.203
305.1753, 1327.895
305.6574, 1327.037
306.1396, 1326.503
306.6217, 1327.422
307.1038, 1329.021
307.5859, 1331.000
308.0680, 1333.503
308.5501, 1334.665
309.0323, 1331.140
309.5144, 1325.639
309.9965, 1322.488
310.4786, 1325.781
310.9607, 1330.406
311.4428, 1332.342
311.9250, 1331.606
312.4071, 1331.029
312.8892, 1332.881
313.3713, 1335.548
313.8534, 1337.335
314.3355, 1336.298
314.8177, 1335.498
315.2998, 1337.039
315.7819, 1340.429
316.2640, 1343.088
316.7461, 1342.912
317.2282, 1342.048
317.7104, 1342.164
318.1925, 1344.278
318.6746, 1346.424
319.1567, 1348.569
319.6388, 1350.318
320.1209, 1350.560
320.6031, 1346.421
321.0852, 1342.572
321.5673, 1341.878
322.0494, 1346.910
322.5315, 1349.964
323.0136, 1347.401
323.4958, 1342.240
323.9779, 1339.379
324.4600, 1342.468
324.9421, 1345.460
325.4242, 1346.260
325.9064, 1344.304
326.3885, 1342.344
326.8706, 1339.500
327.3527, 1337.221
327.8348, 1336.984
328.3170, 1341.652
328.7991, 1345.348
329.2812, 1346.845
329.7633, 1346.080
330.2454, 1345.577
330.7275, 1345.468
331.2097, 1345.464
331.6918, 1345.316
332.1739, 1344.541
332.6560, 1344.362
333.1381, 1345.120
333.6202, 1346.569
334.1024, 1347.500
334.5845, 1347.352
335.0666, 1347.477
335.5487, 1348.842
336.0308, 1352.364
336.5129, 1354.406
336.9951, 1354.504
337.4772, 1353.395
337.9593, 1352.416
338.4414, 1351.438
338.9235, 1351.120
339.4056, 1352.182
339.8878, 1354.851
340.3699, 1355.719
340.8520, 1354.192
341.3341, 1352.036
341.8162, 1351.345
342.2983, 1352.151
342.7805, 1354.153
343.2626, 1357.898
343.7447, 1362.787
344.2268, 1365.223
344.7089, 1364.891
345.1910, 1363.911
345.6732, 1364.293
346.1553, 1365.859
346.6374, 1367.213
347.1195, 1367.884
347.6016, 1368.418
348.0837, 1370.272
348.5659, 1373.378
349.0480, 1376.202
349.5301, 1377.381
350.0122, 1377.512
350.4944, 1378.075
350.9765, 1379.356
351.4586, 1380.855
351.9407, 1381.729
352.4228, 1382.250
352.9049, 1383.274
353.3871, 1386.125
353.8692, 1389.357
354.3513, 1390.700
354.8334, 1389.947
355.3155, 1389.217
355.7976, 1390.285
356.2798, 1392.455
356.7619, 1394.631
357.2440, 1396.491
357.7261, 1398.054
358.2082, 1398.820
358.6903, 1398.990
359.1725, 1400.060
359.6546, 1404.153
360.1367, 1408.841
360.6188, 1411.913
361.1009, 1412.196
361.5830, 1411.747
362.0652, 1410.764
362.5473, 1409.666
363.0294, 1409.478
363.5115, 1411.766
363.9936, 1414.139
364.4757, 1415.054
364.9579, 1413.508
365.4400, 1413.345
365.9221, 1417.528
366.4042, 1422.871
366.8863, 1425.336
367.3684, 1420.646
367.8506, 1416.837
368.3327, 1416.312
368.8148, 1419.478
369.2969, 1421.532
369.7790, 1420.869
370.2611, 1420.193
370.7433, 1421.511
371.2254, 1427.078
371.7075, 1430.910
372.1896, 1431.031
372.6717, 1428.911
373.1538, 1431.083
373.6360, 1440.263
374.1181, 1449.271
374.6002, 1454.820
375.0823, 1456.689
375.5645, 1455.520
376.0466, 1449.911
376.5287, 1442.839
377.0108, 1439.297
377.4929, 1439.803
377.9750, 1441.734
378.4572, 1444.797
378.9393, 1448.772
379.4214, 1451.137
379.9035, 1451.656
380.3856, 1451.529
380.8677, 1451.715
381.3499, 1452.223
381.8320, 1453.248
382.3141, 1455.051
382.7962, 1457.139
383.2783, 1458.279
383.7604, 1458.528
384.2426, 1459.086
384.7247, 1461.016
385.2068, 1463.794
385.6889, 1466.233
386.1710, 1468.074
386.6531, 1469.997
387.1353, 1473.819
387.6174, 1478.436
388.0995, 1481.036
388.5816, 1479.193
389.0637, 1475.388
389.5458, 1471.289
390.0280, 1466.994
390.5101, 1464.555
390.9922, 1467.007
391.4743, 1471.399
391.9564, 1474.478
392.4385, 1474.664
392.9207, 1474.044
393.4028, 1472.952
393.8849, 1471.773
394.3670, 1471.700
394.8491, 1474.233
395.3312, 1477.219
395.8134, 1479.162
396.2955, 1478.939
396.7776, 1480.289
397.2597, 1485.876
397.7418, 1492.906
398.2239, 1497.766
398.7061, 1498.064
399.1882, 1498.082
399.6703, 1498.460
400.1524, 1499.182
400.6346, 1501.022
401.1167, 1504.441
401.5988, 1508.558
402.0809, 1512.820
402.5630, 1517.361
403.0451, 1521.723
403.5273, 1525.466
404.0094, 1529.075
404.4915, 1534.141
404.9736, 1541.403
405.4557, 1548.290
405.9378, 1553.425
406.4200, 1556.556
406.9021, 1560.838
407.3842, 1566.401
407.8663, 1572.720
408.3484, 1579.302
408.8305, 1586.199
409.3127, 1592.884
409.7948, 1598.930
410.2769, 1604.874
410.7590, 1612.276
411.2411, 1621.200
411.7232, 1630.519
412.2054, 1639.298
412.6875, 1647.973
413.1696, 1657.370
413.6517, 1667.736
414.1338, 1678.832
414.6159, 1690.437
415.0981, 1702.462
415.5802, 1714.617
416.0623, 1725.908
416.5444, 1737.662
417.0265, 1751.280
417.5086, 1766.861
417.9908, 1782.308
418.4729, 1795.519
418.9550, 1808.090
419.4371, 1821.488
419.9192, 1836.515
420.4013, 1852.205
420.8835, 1868.046
421.3656, 1884.168
421.8477, 1901.295
422.3298, 1920.359
422.8119, 1939.692
423.2940, 1958.614
423.7762, 1976.501
424.2583, 1995.243
424.7404, 2015.432
425.2225, 2036.197
425.7047, 2057.043
426.1868, 2076.493
426.6689, 2097.711
427.1510, 2121.879
427.6331, 2148.660
428.1152, 2175.232
428.5974, 2202.151
429.0795, 2228.526
429.5616, 2254.353
430.0437, 2279.854
430.5258, 2303.615
431.0079, 2325.674
431.4901, 2345.541
431.9722, 2362.224
432.4543, 2375.569
432.9364, 2386.797
433.4185, 2396.702
433.9006, 2404.749
434.3828, 2407.878
434.8649, 2405.941
435.3470, 2401.005
435.8291, 2395.214
436.3112, 2387.985
436.7933, 2377.468
437.2755, 2363.028
437.7576, 2345.808
438.2397, 2326.899
438.7218, 2306.504
439.2039, 2285.233
439.6860, 2261.830
440.1682, 2238.432
440.6503, 2218.310
441.1324, 2201.546
441.6145, 2184.793
442.0966, 2165.950
442.5787, 2146.025
443.0609, 2126.099
443.5430, 2106.206
444.0251, 2086.583
444.5072, 2067.208
444.9893, 2048.136
445.4714, 2029.402
445.9536, 2009.156
446.4357, 1990.648
446.9178, 1975.841
447.3999, 1966.851
447.8820, 1956.113
448.3641, 1941.904
448.8463, 1926.815
449.3284, 1913.401
449.8105, 1902.516
450.2926, 1892.081
450.7747, 1881.623
451.2569, 1871.275
451.7390, 1862.153
452.2211, 1854.204
452.7032, 1847.300
453.1853, 1842.175
453.6674, 1839.009
454.1496, 1832.383
454.6317, 1821.061
455.1138, 1808.631
455.5959, 1801.022
456.0780, 1797.719
456.5602, 1793.770
457.0423, 1786.902
457.5244, 1778.673
458.0065, 1772.754
458.4886, 1768.931
458.9707, 1763.991
459.4529, 1753.990
459.9350, 1741.899
460.4171, 1732.627
460.8992, 1727.200
461.3813, 1723.217
461.8634, 1719.472
462.3456, 1715.790
462.8277, 1711.951
463.3098, 1707.569
463.7919, 1703.192
464.2740, 1698.919
464.7561, 1694.774
465.2383, 1691.147
465.7204, 1688.670
466.2025, 1686.340
466.6846, 1683.481
467.1667, 1678.944
467.6488, 1675.574
468.1310, 1674.715
468.6131, 1674.738
469.0952, 1672.902
469.5773, 1667.730
470.0594, 1663.098
470.5415, 1660.247
471.0237, 1659.096
471.5058, 1656.612
471.9879, 1652.449
472.4700, 1647.746
472.9521, 1642.917
473.4342, 1637.841
473.9164, 1635.022
474.3985, 1635.232
474.8806, 1636.606
475.3627, 1636.279
475.8448, 1634.313
476.3270, 1631.254
476.8091, 1626.405
477.2912, 1621.025
477.7733, 1617.762
478.2554, 1616.531
478.7375, 1616.041
479.2197, 1616.510
479.7018, 1616.711
480.1839, 1614.387
480.6660, 1607.862
481.1481, 1602.312
481.6302, 1602.320
482.1124, 1605.428
482.5945, 1607.474
483.0766, 1606.352
483.5587, 1604.375
484.0408, 1602.542
484.5229, 1600.880
485.0051, 1598.622
485.4872, 1594.225
485.9693, 1590.180
486.4514, 1588.104
486.9335, 1589.930
487.4156, 1590.338
487.8978, 1588.696
488.3799, 1585.995
488.8620, 1583.686
489.3441, 1581.809
489.8262, 1580.339
490.3083, 1579.712
490.7905, 1579.588
491.2726, 1576.951
491.7547, 1571.241
492.2368, 1565.696
492.7189, 1562.965
493.2010, 1562.680
493.6832, 1562.828
494.1653, 1563.378
494.6474, 1563.686
495.1295, 1562.661
495.6116, 1560.664
496.0938, 1558.803
496.5759, 1556.957
497.0580, 1555.882
497.5401, 1557.297
498.0222, 1560.631
498.5044, 1562.920
498.9865, 1561.874
499.4686, 1559.508
499.9507, 1557.169
500.4328, 1554.813
500.9149, 1553.491
501.3971, 1554.042
501.8792, 1555.630
502.3613, 1557.279
502.8434, 1560.070
503.3255, 1561.507
503.8076, 1560.307
504.2898, 1557.178
504.7719, 1555.420
505.2540, 1555.440
505.7361, 1556.204
506.2182, 1557.656
506.7003, 1560.154
507.1825, 1560.524
507.6646, 1557.948
508.1467, 1555.004
508.6288, 1554.970
509.1109, 1557.843
509.5930, 1560.018
510.0752, 1560.829
510.5573, 1560.545
511.0394, 1558.992
511.5215, 1556.471
512.0037, 1554.824
512.4858, 1555.799
512.9679, 1557.953
513.4500, 1559.105
513.9321, 1559.194
514.4142, 1559.490
514.8964, 1561.042
515.3785, 1563.180
515.8606, 1565.209
516.3427, 1567.099
516.8248, 1568.603
517.3069, 1569.411
517.7891, 1569.781
518.2712, 1570.197
518.7533, 1570.810
519.2354, 1571.423
519.7175, 1571.756
520.1996, 1571.822
520.6818, 1572.815
521.1639, 1575.250
521.6460, 1577.998
522.1281, 1580.348
522.6102, 1582.135
523.0923, 1584.282
523.5745, 1586.972
524.0566, 1589.761
524.5387, 1591.990
525.0208, 1593.669
525.5029, 1595.136
525.9850, 1596.068
526.4672, 1597.218
526.9493, 1600.633
527.4314, 1606.132
527.9135, 1611.757
528.3956, 1616.538
528.8777, 1620.730
529.3599, 1624.226
529.8420, 1626.957
530.3241, 1630.545
530.8062, 1637.106
531.2883, 1644.797
531.7704, 1651.343
532.2526, 1654.882
532.7347, 1659.041
533.2168, 1664.829
533.6989, 1672.053
534.1810, 1680.406
534.6631, 1691.157
535.1453, 1701.680
535.6274, 1710.945
536.1095, 1719.036
536.5916, 1727.310
537.0737, 1735.187
537.5558, 1744.302
538.0380, 1755.997
538.5201, 1770.730
539.0022, 1785.755
539.4843, 1800.834
539.9664, 1815.892
540.4485, 1830.197
540.9307, 1843.820
541.4128, 1858.116
541.8949, 1873.571
542.3770, 1889.615
542.8591, 1905.998
543.3412, 1922.355
543.8234, 1938.018
544.3055, 1953.068
544.7876, 1966.878
545.2697, 1978.659
545.7518, 1988.309
546.2339, 1996.219
546.7161, 2004.661
547.1982, 2010.341
547.6803, 2010.516
548.1624, 2003.623
548.6445, 1992.460
549.1266, 1976.950
549.6088, 1957.494
550.0909, 1934.719
550.5730, 1906.833
551.0551, 1878.451
551.5372, 1850.531
552.0193, 1823.122
552.5015, 1797.795
552.9836, 1774.617
553.4657, 1753.260
553.9478, 1733.175
554.4299, 1714.485
554.9120, 1698.884
555.3942, 1686.770
555.8763, 1676.658
556.3584, 1666.861
556.8405, 1657.766
557.3226, 1650.493
557.8047, 1645.878
558.2869, 1642.388
558.7690, 1638.816
559.2511, 1635.235
559.7332, 1631.877
560.2154, 1629.244
560.6975, 1626.552
561.1796, 1623.006
561.6617, 1618.565
562.1439, 1615.297
562.6260, 1614.479
563.1081, 1614.366
563.5902, 1613.886
564.0723, 1612.651
564.5544, 1611.902
565.0366, 1611.730
565.5187, 1611.929
566.0008, 1612.273
566.4829, 1612.791
566.9650, 1613.148
567.4471, 1613.042
567.9293, 1612.904
568.4114, 1613.931
568.8935, 1616.052
569.3756, 1618.464
569.8577, 1621.229
570.3398, 1623.792
570.8220, 1624.770
571.3041, 1624.224
571.7862, 1623.706
572.2683, 1624.528
572.7504, 1625.822
573.2325, 1626.669
573.7147, 1626.635
574.1968, 1626.865
574.6789, 1627.896
575.1610, 1629.414
575.6431, 1631.026
576.1252, 1632.976
576.6074, 1634.683
577.0895, 1636.299
577.5716, 1637.656
578.0537, 1637.811
578.5358, 1635.744
579.0179, 1634.915
579.5001, 1637.270
579.9822, 1642.540
580.4643, 1645.873
580.9464, 1647.037
581.4285, 1647.799
581.9106, 1650.162
582.3928, 1653.406
582.8749, 1654.971
583.3570, 1654.325
583.8391, 1652.985
584.3212, 1651.891
584.8033, 1651.219
585.2855, 1651.253
585.7676, 1651.814
586.2497, 1653.414
586.7318, 1657.239
587.2139, 1662.400
587.6960, 1666.357
588.1782, 1668.031
588.6603, 1668.811
589.1424, 1668.776
589.6245, 1667.856
590.1066, 1667.893
590.5887, 1669.592
591.0709, 1671.175
591.5530, 1671.308
592.0351, 1669.664
592.5172, 1669.046
592.9993, 1669.762
593.4814, 1670.869
593.9636, 1671.110
594.4457, 1670.671
594.9278, 1670.376
595.4099, 1670.189
595.8920, 1670.774
596.3741, 1673.577
596.8563, 1677.910
597.3384, 1681.932
597.8205, 1684.364
598.3026, 1686.519
598.7847, 1689.187
599.2668, 1692.352
599.7490, 1695.512
600.2311, 1698.252
600.7132, 1701.127
601.1953, 1704.400
601.6774, 1708.052
602.1595, 1712.137
602.6417, 1716.803
603.1238, 1721.733
603.6059, 1726.873
604.0880, 1732.538
604.5701, 1736.429
605.0522, 1737.841
605.5344, 1738.162
606.0165, 1739.656
606.4986, 1742.188
606.9807, 1744.843
607.4628, 1747.371
607.9449, 1749.784
608.4271, 1752.172
608.9092, 1754.495
609.3913, 1756.427
609.8735, 1757.646
610.3556, 1758.564
610.8377, 1759.444
611.3198, 1760.306
611.8019, 1761.110
612.2841, 1761.773
612.7662, 1762.411
613.2483, 1763.207
613.7304, 1764.779
614.2125, 1764.819
614.6946, 1762.162
615.1768, 1759.162
615.6589, 1759.046
616.1410, 1762.354
616.6231, 1764.462
617.1052, 1764.357
617.5873, 1762.940
618.0695, 1762.253
618.5516, 1762.025
619.0337, 1760.691
619.5158, 1756.479
619.9979, 1751.495
620.4800, 1748.641
620.9622, 1747.531
621.4443, 1746.194
621.9264, 1743.863
622.4085, 1740.748
622.8906, 1736.367
623.3727, 1730.286
623.8549, 1725.983
624.3370, 1725.568
624.8191, 1726.039
625.3012, 1725.426
625.7833, 1723.122
626.2654, 1721.039
626.7476, 1719.188
627.2297, 1717.521
627.7118, 1716.382
628.1939, 1715.822
628.6760, 1713.489
629.1581, 1707.963
629.6403, 1701.942
630.1224, 1700.637
630.6045, 1702.994
631.0866, 1704.982
631.5687, 1703.290
632.0508, 1701.365
632.5330, 1703.376
633.0151, 1708.440
633.4972, 1711.720
633.9793, 1708.736
634.4614, 1705.490
634.9435, 1705.415
635.4257, 1709.550
635.9078, 1712.822
636.3899, 1715.045
636.8720, 1716.382
637.3541, 1716.388
637.8362, 1714.146
638.3184, 1715.057
638.8005, 1720.140
639.2826, 1726.381
639.7647, 1729.866
640.2468, 1730.909
640.7289, 1731.596
641.2111, 1732.362
641.6932, 1733.114
642.1753, 1733.755
642.6574, 1734.298
643.1395, 1734.766
643.6216, 1734.431
644.1038, 1734.706
644.5859, 1737.156
645.0680, 1741.147
645.5501, 1743.766
646.0322, 1743.554
646.5143, 1742.565
646.9965, 1741.123
647.4786, 1739.108
647.9607, 1739.151
648.4428, 1742.609
648.9249, 1745.374
649.4070, 1744.182
649.8892, 1739.140
650.3713, 1735.145
650.8534, 1732.460
651.3355, 1730.231
651.8176, 1727.448
652.2997, 1724.434
652.7819, 1722.047
653.2640, 1720.840
653.7461, 1719.293
654.2282, 1715.858
654.7103, 1711.468
655.1924, 1707.525
655.6746, 1704.270
656.1567, 1701.661
656.6388, 1700.268
657.1209, 1699.542
657.6030, 1697.887
658.0851, 1694.342
658.5673, 1691.695
659.0494, 1691.401
659.5316, 1692.751
660.0137, 1690.744
660.4958, 1685.048
660.9779, 1679.871
661.4600, 1678.186
661.9421, 1678.862
662.4243, 1679.050
662.9064, 1678.677
663.3885, 1678.237
663.8706, 1678.350
664.3527, 1678.440
664.8348, 1677.783
665.3170, 1676.012
665.7991, 1674.571
666.2812, 1673.546
666.7633, 1673.277
667.2454, 1674.219
667.7275, 1677.881
668.2097, 1680.062
668.6918, 1680.423
669.1739, 1679.494
669.6560, 1677.726
670.1381, 1674.978
670.6202, 1673.100
671.1024, 1672.831
671.5845, 1673.241
672.0666, 1672.049
672.5487, 1669.866
673.0308, 1669.102
673.5129, 1672.627
673.9951, 1676.778
674.4772, 1678.141
674.9593, 1677.276
675.4414, 1676.674
675.9235, 1677.829
676.4056, 1678.983
676.8878, 1679.266
677.3699, 1678.593
677.8520, 1677.977
678.3341, 1677.064
678.8162, 1676.753
679.2983, 1677.963
679.7805, 1680.889
680.2626, 1682.138
680.7447, 1681.484
681.2268, 1680.277
681.7089, 1679.602
682.1910, 1679.407
682.6732, 1679.648
683.1553, 1680.367
683.6374, 1681.228
684.1195, 1682.543
684.6016, 1683.630
685.0837, 1683.619
685.5659, 1681.395
686.0480, 1679.306
686.5301, 1677.192
687.0122, 1675.799
687.4943, 1676.415
687.9764, 1680.386
688.4586, 1683.672
688.9407, 1685.627
689.4228, 1686.487
689.9049, 1686.564
690.3870, 1685.828
690.8691, 1685.603
691.3513, 1686.917
691.8334, 1688.688
692.3155, 1689.013
692.7976, 1688.055
693.2797, 1686.651
693.7618, 1685.153
694.2440, 1683.489
694.7261, 1680.787
695.2082, 1677.220
695.6903, 1676.157
696.1724, 1681.202
696.6545, 1686.469
697.1367, 1689.251
697.6188, 1689.205
698.1009, 1689.279
698.5830, 1689.651
699.0651, 1689.782
699.5472, 1688.440
700.0294, 1686.046
700.5115, 1687.002
700.9936, 1692.030
701.4757, 1696.975
701.9578, 1696.672
702.4399, 1693.781
702.9221, 1692.458
703.4042, 1693.917
703.8863, 1696.157
704.3684, 1699.232
704.8505, 1702.040
705.3326, 1703.267
705.8148, 1700.204
706.2969, 1698.905
706.7790, 1700.468
707.2611, 1703.536
707.7432, 1705.930
708.2253, 1707.775
708.7075, 1708.203
709.1896, 1706.432
709.6718, 1703.951
710.1539, 1704.278
710.6360, 1706.769
711.1181, 1708.701
711.6002, 1707.934
712.0823, 1706.743
712.5645, 1707.452
713.0466, 1709.484
713.5287, 1710.670
714.0108, 1708.401
714.4929, 1706.907
714.9750, 1708.625
715.4572, 1713.185
715.9393, 1715.920
716.4214, 1715.890
716.9035, 1716.005
717.3856, 1718.150
717.8677, 1721.991
718.3499, 1723.135
718.8320, 1721.505
719.3141, 1720.066
719.7962, 1722.034
720.2783, 1725.279
720.7604, 1726.014
721.2426, 1723.802
721.7247, 1722.450
722.2068, 1725.060
722.6889, 1728.792
723.1710, 1731.600
723.6531, 1733.120
724.1353, 1733.820
724.6174, 1733.197
725.0995, 1732.335
725.5816, 1732.314
726.0637, 1733.385
726.5458, 1733.325
727.0280, 1731.618
727.5101, 1729.897
727.9922, 1730.901
728.4743, 1733.552
728.9564, 1734.563
729.4385, 1732.554
729.9207, 1730.345
730.4028, 1730.643
730.8849, 1732.015
731.3670, 1732.474
731.8491, 1730.064
732.3312, 1728.356
732.8134, 1728.679
733.2955, 1729.899
733.7776, 1730.236
734.2597, 1729.545
734.7418, 1728.401
735.2239, 1726.627
735.7061, 1724.859
736.1882, 1724.897
736.6703, 1726.495
737.1524, 1727.636
737.6345, 1726.911
738.1166, 1725.959
738.5988, 1726.931
739.0809, 1729.212
739.5630, 1731.043
740.0451, 1731.993
740.5272, 1732.027
741.0093, 1730.124
741.4915, 1726.884
741.9736, 1726.189
742.4557, 1729.584
742.9378, 1732.449
743.4199, 1732.778
743.9020, 1731.156
744.3842, 1731.370
744.8663, 1733.419
745.3484, 1734.975
745.8305, 1734.116
746.3126, 1732.131
746.7947, 1730.739
747.2769, 1729.999
747.7590, 1729.932
748.2411, 1730.883
748.7232, 1732.275
749.2053, 1734.309
749.6874, 1737.279
750.1696, 1737.738
750.6517, 1733.191
751.1338, 1729.516
751.6159, 1730.780
752.0980, 1737.302
752.5801, 1740.139
753.0623, 1738.888
753.5444, 1737.075
754.0265, 1738.078
754.5086, 1740.483
754.9907, 1741.506
755.4728, 1740.823
755.9550, 1739.694
756.4371, 1738.515
756.9192, 1737.495
757.4013, 1736.786
757.8835, 1736.404
758.3656, 1736.478
758.8477, 1737.449
759.3298, 1738.435
759.8120, 1738.699
760.2941, 1738.168
760.7762, 1737.710
761.2583, 1737.426
761.7404, 1737.068
762.2225, 1735.878
762.7047, 1734.484
763.1868, 1734.456
763.6689, 1736.305
764.1510, 1738.646
764.6331, 1741.321
765.1152, 1743.625
765.5974, 1744.731
766.0795, 1742.923
766.5616, 1742.415
767.0437, 1744.129
767.5258, 1746.571
768.0079, 1747.865
768.4901, 1747.770
768.9722, 1748.340
769.4543, 1750.008
769.9364, 1751.748
770.4185, 1751.665
770.9006, 1750.529
771.3828, 1750.443
771.8649, 1752.344
772.3470, 1754.634
772.8291, 1757.049
773.3112, 1758.972
773.7933, 1759.544
774.2755, 1756.847
774.7576, 1755.240
775.2397, 1755.894
775.7218, 1757.308
776.2039, 1756.839
776.6860, 1754.229
777.1682, 1752.246
777.6503, 1751.485
778.1324, 1751.509
778.6145, 1751.420
779.0966, 1751.538
779.5787, 1752.860
780.0609, 1757.132
780.5430, 1760.632
781.0251, 1760.190
781.5072, 1757.605
781.9893, 1756.178
782.4714, 1757.375
782.9536, 1758.704
783.4357, 1759.966
783.9178, 1761.189
784.3999, 1762.365
784.8820, 1763.485
785.3641, 1765.061
785.8463, 1767.580
786.3284, 1770.072
786.8105, 1770.735
787.2926, 1770.064
787.7747, 1769.251
788.2568, 1768.175
788.7390, 1767.712
789.2211, 1768.623
789.7032, 1770.401
790.1853, 1771.899
790.6674, 1773.184
791.1495, 1773.785
791.6317, 1773.394
792.1138, 1772.421
792.5959, 1771.795
793.0780, 1771.529
793.5601, 1771.720
794.0422, 1772.577
794.5244, 1773.728
795.0065, 1774.892
795.4886, 1775.962
795.9707, 1776.614
796.4528, 1776.443
796.9349, 1776.165
797.4171, 1775.552
797.8992, 1775.091
798.3813, 1776.137
798.8634, 1779.605
799.3455, 1782.538
799.8276, 1784.132
800.3098, 1784.898
800.7919, 1786.006
801.2740, 1787.432
801.7561, 1789.000
802.2382, 1790.704
802.7203, 1792.390
803.2025, 1794.378
803.6846, 1796.204
804.1667, 1796.837
804.6488, 1794.588
805.1309, 1792.577
805.6130, 1791.542
806.0952, 1791.433
806.5773, 1792.330
807.0594, 1794.531
807.5416, 1796.877
808.0237, 1799.402
808.5058, 1801.503
808.9879, 1801.433
809.4700, 1799.645
809.9521, 1798.077
810.4343, 1797.467
810.9164, 1797.396
811.3985, 1797.950
811.8806, 1798.757
812.3627, 1799.042
812.8448, 1797.707
813.3270, 1796.966
813.8091, 1797.364
814.2912, 1798.453
814.7733, 1799.191
815.2554, 1799.491
815.7375, 1800.365
816.2197, 1802.311
816.7018, 1804.565
817.1839, 1806.168
817.6660, 1807.051
818.1481, 1806.961
818.6302, 1805.005
819.1124, 1803.079
819.5945, 1801.679
820.0766, 1800.996
820.5587, 1801.545
821.0408, 1804.564
821.5229, 1806.402
822.0051, 1806.327
822.4872, 1805.203
822.9693, 1804.437
823.4514, 1804.012
823.9335, 1803.778
824.4156, 1803.660
824.8978, 1803.755
825.3799, 1803.864
825.8620, 1804.309
826.3441, 1805.637
826.8262, 1809.261
827.3083, 1812.117
827.7905, 1812.493
828.2726, 1812.231
828.7547, 1813.978
829.2368, 1818.605
829.7189, 1821.327
830.2010, 1821.287
830.6832, 1819.744
831.1653, 1817.873
831.6474, 1815.953
832.1295, 1814.740
832.6116, 1814.619
833.0938, 1814.787
833.5759, 1814.678
834.0580, 1814.627
834.5401, 1815.024
835.0222, 1817.241
835.5043, 1817.776
835.9865, 1815.605
836.4686, 1813.075
836.9507, 1813.083
837.4328, 1815.507
837.9149, 1817.014
838.3970, 1817.120
838.8792, 1817.083
839.3613, 1818.772
839.8434, 1820.865
840.3255, 1821.113
840.8076, 1818.298
841.2897, 1816.917
841.7719, 1820.060
842.2540, 1823.975
842.7361, 1825.754
843.2182, 1824.646
843.7003, 1824.349
844.1824, 1824.985
844.6646, 1825.953
845.1467, 1827.014
845.6288, 1827.946
846.1109, 1828.182
846.5930, 1827.671
847.0751, 1826.571
847.5573, 1823.148
848.0394, 1820.540
848.5215, 1822.014
849.0036, 1829.092
849.4857, 1832.178
849.9678, 1828.735
850.4500, 1825.154
850.9321, 1825.303
851.4142, 1828.774
851.8963, 1830.725
852.3784, 1831.205
852.8605, 1831.291
853.3427, 1831.552
853.8248, 1831.959
854.3069, 1832.605
854.7890, 1833.447
855.2711, 1834.050
855.7532, 1834.249
856.2354, 1834.136
856.7175, 1833.391
857.1996, 1832.241
857.6818, 1832.610
858.1639, 1834.682
858.6460, 1836.757
859.1281, 1837.988
859.6102, 1839.404
860.0923, 1839.853
860.5745, 1841.133
861.0566, 1841.969
861.5387, 1842.148
862.0208, 1841.774
862.5029, 1840.286
862.9850, 1838.311
863.4672, 1837.798
863.9493, 1839.357
864.4314, 1840.907
864.9135, 1841.954
865.3956, 1842.842
865.8777, 1844.599
866.3599, 1846.923
866.8420, 1848.332
867.3241, 1847.812
867.8062, 1847.155
868.2883, 1847.344
868.7704, 1848.334
869.2526, 1850.074
869.7347, 1853.475
870.2168, 1856.342
870.6989, 1858.878
871.1810, 1860.362
871.6631, 1859.093
872.1453, 1855.296
872.6274, 1853.430
873.1095, 1854.460
873.5916, 1855.824
874.0737, 1854.200
874.5558, 1851.703
875.0380, 1851.217
875.5201, 1854.178
876.0022, 1856.316
876.4843, 1855.399
876.9664, 1854.425
877.4485, 1855.823
877.9307, 1860.361
878.4128, 1861.182
878.8949, 1857.813
879.3770, 1854.624
879.8591, 1856.441
880.3412, 1860.310
880.8234, 1860.997
881.3055, 1858.296
881.7876, 1856.485
882.2697, 1858.420
882.7518, 1860.870
883.2339, 1861.752
883.7161, 1861.196
884.1982, 1863.016
884.6803, 1868.089
885.1624, 1871.845
885.6445, 1871.187
886.1266, 1868.132
886.6088, 1867.536
887.0909, 1868.910
887.5730, 1870.208
888.0551, 1870.619
888.5372, 1870.488
889.0193, 1869.506
889.5015, 1868.129
889.9836, 1867.725
890.4657, 1868.550
890.9478, 1869.911
891.4299, 1872.059
891.9120, 1874.099
892.3942, 1873.313
892.8763, 1870.706
893.3584, 1870.875
893.8405, 1876.683
894.3226, 1882.021
894.8047, 1881.374
895.2869, 1878.044
895.7690, 1876.090
896.2511, 1876.946
896.7332, 1878.068
897.2153, 1879.521
897.6974, 1881.089
898.1796, 1882.830
898.6617, 1884.597
899.1438, 1884.895
899.6259, 1883.512
900.1080, 1882.228
900.5901, 1882.679
901.0723, 1883.853
901.5544, 1884.832
902.0365, 1885.459
902.5186, 1886.343
903.0007, 1887.913
903.4828, 1889.206
903.9650, 1889.424
904.4471, 1888.832
904.9292, 1890.558
905.4113, 1894.465
905.8935, 1897.026
906.3756, 1894.307
906.8577, 1890.515
907.3398, 1889.998
907.8220, 1892.118
908.3041, 1894.062
908.7862, 1894.583
909.2683, 1895.517
909.7504, 1897.396
910.2325, 1899.807
910.7147, 1901.914
911.1968, 1903.713
911.6789, 1904.574
912.1610, 1903.886
912.6431, 1903.155
913.1252, 1904.542
913.6074, 1906.877
914.0895, 1908.333
914.5716, 1907.536
915.0537, 1907.297
915.5358, 1908.070
916.0179, 1909.495
916.5001, 1911.558
916.9822, 1914.349
917.4643, 1916.101
917.9464, 1916.694
918.4285, 1916.476
918.9106, 1915.404
919.3928, 1913.940
919.8749, 1912.326
920.3570, 1910.581
920.8391, 1910.037
921.3212, 1913.690
921.8033, 1915.845
922.2855, 1912.982
922.7676, 1905.978
923.2497, 1904.921
923.7318, 1909.957
924.2139, 1914.939
924.6960, 1916.584
925.1782, 1916.434
925.6603, 1915.313
926.1424, 1913.976
926.6245, 1914.492
927.1066, 1919.778
927.5887, 1924.188
928.0709, 1925.938
928.5530, 1926.542
929.0351, 1929.349
929.5172, 1934.544
929.9993, 1936.683
930.4814, 1934.059
930.9636, 1930.663
931.4457, 1931.502
931.9278, 1934.245
932.4099, 1935.498
932.8920, 1933.702
933.3741, 1933.150
933.8563, 1936.084
934.3384, 1939.416
934.8205, 1941.033
935.3026, 1940.857
935.7847, 1941.519
936.2668, 1943.054
936.7490, 1944.756
937.2311, 1946.559
937.7132, 1947.930
938.1953, 1947.599
938.6774, 1945.936
939.1595, 1945.387
939.6417, 1947.888
940.1238, 1950.116
940.6059, 1950.900
941.0880, 1950.929
941.5701, 1952.721
942.0522, 1956.210
942.5344, 1958.348
943.0165, 1957.850
943.4986, 1956.483
943.9807, 1955.409
944.4628, 1955.010
944.9449, 1955.906
945.4271, 1959.673
945.9092, 1962.415
946.3913, 1963.609
946.8734, 1964.076
947.3555, 1964.486
947.8376, 1964.843
948.3198, 1964.722
948.8019, 1964.039
949.2840, 1964.932
949.7661, 1970.832
950.2482, 1977.888
950.7303, 1981.929
951.2125, 1982.754
951.6946, 1986.156
952.1767, 1994.566
952.6588, 2002.587
953.1409, 2008.585
953.6230, 2012.738
954.1052, 2015.168
954.5873, 2016.201
955.0695, 2017.840
955.5516, 2020.453
956.0337, 2024.652
956.5158, 2031.681
956.9979, 2040.304
957.4800, 2048.639
957.9622, 2056.832
958.4443, 2063.655
958.9264, 2068.087
959.4085, 2073.036
959.8906, 2081.971
960.3727, 2094.286
960.8549, 2107.466
961.3370, 2121.354
961.8191, 2136.740
962.3012, 2155.601
962.7833, 2175.215
963.2654, 2191.994
963.7476, 2205.934
964.2297, 2227.953
964.7118, 2259.913
965.1939, 2292.272
965.6760, 2320.605
966.1581, 2346.888
966.6403, 2374.387
967.1224, 2403.822
967.6045, 2438.160
968.0866, 2483.297
968.5687, 2527.714
969.0508, 2565.476
969.5330, 2601.244
970.0151, 2642.091
970.4972, 2688.497
970.9793, 2736.217
971.4614, 2784.779
971.9435, 2833.815
972.4257, 2883.209
972.9078, 2932.457
973.3899, 2982.129
973.8720, 3032.107
974.3541, 3079.008
974.8362, 3119.721
975.3184, 3159.931
975.8005, 3203.821
976.2826, 3249.780
976.7647, 3282.710
977.2468, 3302.589
977.7289, 3315.181
978.2111, 3323.367
978.6932, 3324.989
979.1753, 3315.758
979.6574, 3298.689
980.1395, 3279.440
980.6216, 3256.491
981.1038, 3235.641
981.5859, 3216.495
982.0680, 3200.698
982.5501, 3190.967
983.0322, 3186.770
983.5143, 3184.087
983.9965, 3182.460
984.4786, 3184.557
984.9607, 3194.108
985.4428, 3206.785
985.9249, 3219.891
986.4070, 3233.138
986.8892, 3245.823
987.3713, 3258.405
987.8534, 3268.739
988.3355, 3276.425
988.8176, 3280.798
989.2997, 3280.384
989.7819, 3275.396
990.2640, 3266.319
990.7461, 3251.174
991.2282, 3235.401
991.7103, 3222.650
992.1924, 3209.495
992.6746, 3191.787
993.1567, 3168.159
993.6388, 3147.104
994.1209, 3129.195
994.6030, 3112.247
995.0851, 3093.800
995.5673, 3075.356
996.0494, 3058.551
996.5315, 3043.550
997.0136, 3031.307
997.4957, 3022.759
997.9778, 3016.259
998.4600, 3011.684
998.9421, 3008.693
999.4242, 3006.239
999.9063, 3004.421
1000.388, 3004.757
1000.871, 3009.115
1001.353, 3012.351
1001.835, 3010.973
1002.317, 3005.354
1002.799, 2995.481
1003.281, 2978.755
1003.763, 2964.491
1004.245, 2954.483
1004.728, 2942.482
1005.210, 2922.332
1005.692, 2896.402
1006.174, 2871.873
1006.656, 2848.524
1007.138, 2823.629
1007.620, 2794.807
1008.102, 2764.897
1008.584, 2733.335
1009.067, 2701.669
1009.549, 2674.241
1010.031, 2651.186
1010.513, 2628.089
1010.995, 2603.891
1011.477, 2579.991
1011.959, 2558.183
1012.441, 2538.049
1012.924, 2519.458
1013.406, 2502.997
1013.888, 2484.921
1014.370, 2462.772
1014.852, 2441.579
1015.334, 2424.043
1015.816, 2409.610
1016.298, 2394.436
1016.780, 2378.771
1017.263, 2363.472
1017.745, 2348.641
1018.227, 2334.768
1018.709, 2322.500
1019.191, 2311.520
1019.673, 2300.871
1020.155, 2289.234
1020.637, 2282.098
1021.120, 2280.902
1021.602, 2280.674
1022.084, 2275.035
1022.566, 2266.798
1023.048, 2261.238
1023.530, 2258.880
1024.012, 2257.021
1024.494, 2254.555
1024.976, 2252.409
1025.458, 2250.516
1025.941, 2249.298
1026.423, 2251.267
1026.905, 2256.202
1027.387, 2259.933
1027.869, 2260.718
1028.351, 2260.267
1028.833, 2259.657
1029.316, 2258.950
1029.798, 2258.207
1030.280, 2257.281
1030.762, 2256.592
1031.244, 2256.110
1031.726, 2255.893
1032.208, 2256.577
1032.690, 2257.416
1033.172, 2255.502
1033.655, 2251.502
1034.137, 2249.100
1034.619, 2252.716
1035.101, 2255.374
1035.583, 2253.665
1036.065, 2249.712
1036.547, 2247.367
1037.029, 2246.736
1037.511, 2245.523
1037.994, 2243.436
1038.476, 2240.319
1038.958, 2234.481
1039.440, 2228.584
1039.922, 2225.698
1040.404, 2226.497
1040.886, 2227.856
1041.368, 2230.716
1041.851, 2231.529
1042.333, 2227.954
1042.815, 2222.004
1043.297, 2218.934
1043.779, 2217.991
1044.261, 2217.071
1044.743, 2215.374
1045.225, 2213.522
1045.708, 2211.895
1046.190, 2210.094
1046.672, 2207.490
1047.154, 2203.862
1047.636, 2201.659
1048.118, 2200.938
1048.600, 2200.686
1049.082, 2199.892
1049.564, 2199.330
1050.047, 2200.568
1050.529, 2202.917
1051.011, 2202.831
1051.493, 2198.421
1051.975, 2195.215
1052.457, 2194.687
1052.939, 2194.768
1053.421, 2191.491
1053.903, 2186.493
1054.386, 2183.652
1054.868, 2183.915
1055.350, 2184.531
1055.832, 2184.435
1056.314, 2184.243
1056.796, 2184.415
1057.278, 2184.852
1057.760, 2184.665
1058.243, 2183.873
1058.725, 2182.556
1059.207, 2179.997
1059.689, 2178.112
1060.171, 2179.717
1060.653, 2182.617
1061.135, 2183.557
1061.617, 2181.284
1062.099, 2178.749
1062.582, 2175.418
1063.064, 2173.424
1063.546, 2175.851
1064.028, 2180.249
1064.510, 2180.876
1064.992, 2178.516
1065.474, 2178.054
1065.956, 2184.431
1066.438, 2189.087
1066.921, 2189.360
1067.403, 2187.417
1067.885, 2186.630
1068.367, 2186.965
1068.849, 2188.122
1069.331, 2190.100
1069.813, 2192.562
1070.295, 2196.119
1070.778, 2199.411
1071.260, 2200.866
1071.742, 2200.671
1072.224, 2202.137
1072.706, 2205.633
1073.188, 2208.467
1073.670, 2209.388
1074.152, 2209.744
1074.635, 2211.926
1075.117, 2214.657
1075.599, 2215.577
1076.081, 2211.632
1076.563, 2212.191
1077.045, 2220.229
1077.527, 2228.374
1078.009, 2230.938
1078.491, 2229.421
1078.974, 2229.415
1079.456, 2230.796
1079.938, 2232.887
1080.420, 2235.827
1080.902, 2238.904
1081.384, 2241.854
1081.866, 2244.780
1082.348, 2247.867
1082.831, 2251.120
1083.313, 2254.437
1083.795, 2257.799
1084.277, 2260.870
1084.759, 2262.559
1085.241, 2264.443
1085.723, 2268.772
1086.205, 2275.009
1086.688, 2277.991
1087.170, 2276.389
1087.652, 2275.573
1088.134, 2276.620
1088.616, 2279.473
1089.098, 2285.387
1089.580, 2292.551
1090.062, 2298.078
1090.544, 2301.398
1091.026, 2303.160
1091.509, 2302.059
1091.991, 2301.787
1092.473, 2304.731
1092.955, 2309.440
1093.437, 2310.522
1093.919, 2308.584
1094.401, 2306.127
1094.883, 2303.908
1095.366, 2301.746
1095.848, 2299.305
1096.330, 2297.050
1096.812, 2295.441
1097.294, 2294.534
1097.776, 2293.819
1098.258, 2293.296
1098.740, 2292.179
1099.223, 2289.272
1099.705, 2286.102
1100.187, 2284.250
1100.669, 2283.088
1101.151, 2280.972
1101.633, 2277.656
1102.115, 2273.685
1102.597, 2268.882
1103.079, 2264.170
1103.562, 2260.760
1104.044, 2258.019
1104.526, 2255.095
1105.008, 2251.958
1105.490, 2249.075
1105.972, 2246.617
1106.454, 2244.526
1106.936, 2242.902
1107.418, 2241.596
1107.901, 2240.347
1108.383, 2239.198
1108.865, 2238.326
1109.347, 2237.835
1109.829, 2237.216
1110.311, 2235.757
1110.793, 2234.594
1111.275, 2234.406
1111.758, 2234.964
1112.240, 2234.636
1112.722, 2233.613
1113.204, 2234.067
1113.686, 2237.958
1114.168, 2241.251
1114.650, 2239.936
1115.132, 2237.263
1115.615, 2236.948
1116.097, 2239.619
1116.579, 2240.663
1117.061, 2239.904
1117.543, 2239.826
1118.025, 2243.606
1118.507, 2247.575
1118.989, 2246.455
1119.471, 2249.228
1119.953, 2250.763
1120.436, 2249.429
1120.918, 2252.349
1121.400, 2249.618
1121.882, 2246.514
1122.364, 2249.393
1122.846, 2254.642
1123.328, 2255.635
1123.810, 2252.837
1124.293, 2250.958
1124.775, 2252.694
1125.257, 2253.672
1125.739, 2252.732
1126.221, 2251.430
1126.703, 2252.509
1127.185, 2255.165
1127.667, 2257.116
1128.150, 2258.079
1128.632, 2258.104
1129.114, 2255.774
1129.596, 2254.208
1130.078, 2255.232
1130.560, 2257.620
1131.042, 2257.077
1131.524, 2254.163
1132.006, 2252.606
1132.489, 2253.548
1132.971, 2255.180
1133.453, 2256.073
1133.935, 2257.348
1134.417, 2260.305
1134.899, 2264.775
1135.381, 2266.937
1135.863, 2266.802
1136.346, 2265.945
1136.828, 2264.588
1137.310, 2263.534
1137.792, 2263.713
1138.274, 2264.534
1138.756, 2265.341
1139.238, 2266.284
1139.720, 2265.992
1140.203, 2264.124
1140.685, 2263.331
1141.167, 2266.507
1141.649, 2270.741
1142.131, 2272.906
1142.613, 2273.253
1143.095, 2272.212
1143.577, 2267.448
1144.059, 2266.661
1144.542, 2271.289
1145.024, 2276.265
1145.506, 2276.124
1145.988, 2273.600
1146.470, 2273.999
1146.952, 2276.591
1147.434, 2277.522
1147.916, 2272.208
1148.398, 2270.316
1148.881, 2274.401
1149.363, 2279.803
1149.845, 2279.256
1150.327, 2275.532
1150.809, 2276.764
1151.291, 2283.195
1151.773, 2286.887
1152.255, 2281.638
1152.738, 2276.620
1153.220, 2274.567
1153.702, 2274.247
1154.184, 2272.425
1154.666, 2270.056
1155.148, 2272.188
1155.630, 2280.152
1156.112, 2285.551
1156.594, 2280.867
1157.077, 2275.512
1157.559, 2274.425
1158.041, 2276.245
1158.523, 2276.362
1159.005, 2274.894
1159.487, 2272.585
1159.969, 2269.227
1160.451, 2266.746
1160.933, 2267.792
1161.416, 2269.123
1161.898, 2267.890
1162.380, 2264.528
1162.862, 2263.969
1163.344, 2266.126
1163.826, 2267.893
1164.308, 2267.912
1164.790, 2267.456
1165.273, 2267.608
1165.755, 2267.729
1166.237, 2266.996
1166.719, 2265.249
1167.201, 2263.994
1167.683, 2263.206
1168.165, 2262.718
1168.647, 2262.675
1169.130, 2262.509
1169.612, 2261.205
1170.094, 2259.613
1170.576, 2259.110
1171.058, 2259.927
1171.540, 2261.604
1172.022, 2264.479
1172.504, 2265.700
1172.986, 2261.238
1173.469, 2255.798
1173.951, 2255.153
1174.433, 2257.545
1174.915, 2258.536
1175.397, 2256.483
1175.879, 2257.148
1176.361, 2261.653
1176.843, 2264.823
1177.326, 2260.391
1177.808, 2253.217
1178.290, 2249.206
1178.772, 2247.926
1179.254, 2246.754
1179.736, 2244.624
1180.218, 2244.166
1180.700, 2245.917
1181.182, 2248.444
1181.665, 2251.206
1182.147, 2253.210
1182.629, 2252.406
1183.111, 2249.129
1183.593, 2246.137
1184.075, 2243.197
1184.557, 2242.627
1185.039, 2245.884
1185.521, 2248.876
1186.004, 2244.518
1186.486, 2236.880
1186.968, 2232.422
1187.450, 2231.740
1187.932, 2232.313
1188.414, 2235.517
1188.896, 2235.801
1189.378, 2230.481
1189.861, 2224.337
1190.343, 2226.496
1190.825, 2232.931
1191.307, 2236.380
1191.789, 2235.609
1192.271, 2234.065
1192.753, 2231.450
1193.235, 2230.257
1193.718, 2231.993
1194.200, 2234.476
1194.682, 2232.483
1195.164, 2228.413
1195.646, 2227.443
1196.128, 2231.173
1196.610, 2234.548
1197.092, 2237.171
1197.574, 2237.966
1198.057, 2235.721
1198.539, 2232.278
1199.021, 2231.763
1199.503, 2233.277
1199.985, 2235.026
1200.467, 2236.985
1200.949, 2237.457
1201.431, 2235.461
1201.913, 2233.180
1202.396, 2231.322
1202.878, 2230.199
1203.360, 2230.995
1203.842, 2233.133
1204.324, 2235.121
1204.806, 2236.605
1205.288, 2237.773
1205.770, 2238.721
1206.253, 2239.302
1206.735, 2239.603
1207.217, 2239.358
1207.699, 2236.833
1208.181, 2233.199
1208.663, 2231.539
1209.145, 2233.957
1209.627, 2236.558
1210.109, 2239.639
1210.592, 2241.171
1211.074, 2238.363
1211.556, 2233.471
1212.038, 2234.103
1212.520, 2238.650
1213.002, 2242.565
1213.484, 2243.833
1213.966, 2244.991
1214.448, 2246.601
1214.931, 2247.792
1215.413, 2247.766
1215.895, 2246.824
1216.377, 2245.283
1216.859, 2243.530
1217.341, 2242.762
1217.823, 2243.785
1218.305, 2245.553
1218.788, 2248.817
1219.270, 2251.013
1219.752, 2248.405
1220.234, 2243.611
1220.716, 2244.234
1221.198, 2248.721
1221.680, 2251.370
1222.162, 2248.221
1222.645, 2245.883
1223.127, 2244.906
1223.609, 2244.885
1224.091, 2246.167
1224.573, 2247.827
1225.055, 2247.415
1225.537, 2245.480
1226.019, 2244.322
1226.501, 2245.833
1226.984, 2246.398
1227.466, 2245.454
1227.948, 2244.220
1228.430, 2243.531
1228.912, 2243.581
1229.394, 2245.176
1229.876, 2247.928
1230.358, 2250.190
1230.841, 2251.761
1231.323, 2252.315
1231.805, 2251.571
1232.287, 2250.516
1232.769, 2249.945
1233.251, 2249.877
1233.733, 2251.061
1234.215, 2252.971
1234.698, 2252.941
1235.180, 2249.830
1235.662, 2246.300
1236.144, 2242.023
1236.626, 2239.813
1237.108, 2245.598
1237.590, 2253.173
1238.072, 2253.440
1238.554, 2247.830
1239.036, 2246.205
1239.519, 2251.029
1240.001, 2254.043
1240.483, 2254.033
1240.965, 2253.035
1241.447, 2252.874
1241.929, 2252.974
1242.411, 2252.359
1242.893, 2251.385
1243.376, 2252.061
1243.858, 2255.055
1244.340, 2256.804
1244.822, 2256.767
1245.304, 2255.944
1245.786, 2253.919
1246.268, 2252.691
1246.750, 2254.640
1247.233, 2259.146
1247.715, 2263.166
1248.197, 2266.853
1248.679, 2268.696
1249.161, 2268.446
1249.643, 2266.856
1250.125, 2262.098
1250.607, 2258.520
1251.089, 2261.032
1251.572, 2267.114
1252.054, 2269.298
1252.536, 2267.580
1253.018, 2267.903
1253.500, 2271.186
1253.982, 2274.411
1254.464, 2275.899
1254.946, 2275.970
1255.428, 2273.949
1255.911, 2271.113
1256.393, 2270.039
1256.875, 2270.602
1257.357, 2271.642
1257.839, 2273.015
1258.321, 2274.419
1258.803, 2276.911
1259.285, 2277.753
1259.768, 2274.663
1260.250, 2270.616
1260.732, 2272.437
1261.214, 2278.383
1261.696, 2280.944
1262.178, 2279.220
1262.660, 2277.390
1263.142, 2277.476
1263.625, 2277.581
1264.107, 2276.883
1264.589, 2276.258
1265.071, 2277.719
1265.553, 2277.244
1266.035, 2280.576
1266.517, 2278.633
1266.999, 2278.192
1267.481, 2280.336
1267.964, 2284.691
1268.446, 2292.448
1268.928, 2299.545
1269.410, 2299.147
1269.892, 2294.708
1270.374, 2291.377
1270.856, 2289.645
1271.338, 2288.029
1271.820, 2285.122
1272.303, 2286.406
1272.785, 2294.199
1273.267, 2301.511
1273.749, 2297.250
1274.231, 2289.829
1274.713, 2289.819
1275.195, 2296.523
1275.677, 2299.337
1276.160, 2297.294
1276.642, 2294.833
1277.124, 2292.434
1277.606, 2291.742
1278.088, 2295.949
1278.570, 2301.108
1279.052, 2305.019
1279.534, 2306.981
1280.016, 2304.491
1280.499, 2297.367
1280.981, 2293.747
1281.463, 2294.781
1281.945, 2296.625
1282.427, 2296.761
1282.909, 2296.589
1283.391, 2296.841
1283.873, 2297.340
1284.356, 2297.503
1284.838, 2297.527
1285.320, 2299.247
1285.802, 2302.724
1286.284, 2304.958
1286.766, 2302.902
1287.248, 2301.130
1287.730, 2301.148
1288.213, 2301.974
1288.695, 2302.269
1289.177, 2302.216
1289.659, 2302.192
1290.141, 2302.272
1290.623, 2302.749
1291.105, 2304.446
1291.587, 2305.308
1292.069, 2304.854
1292.552, 2304.074
1293.034, 2303.894
1293.516, 2304.237
1293.998, 2304.930
1294.480, 2306.043
1294.962, 2308.279
1295.444, 2312.964
1295.926, 2313.903
1296.408, 2309.908
1296.891, 2305.655
1297.373, 2305.358
1297.855, 2306.755
1298.337, 2308.425
1298.819, 2310.231
1299.301, 2311.380
1299.783, 2311.728
1300.265, 2313.650
1300.748, 2317.366
1301.230, 2319.315
1301.712, 2314.473
1302.194, 2310.194
1302.676, 2310.356
##END=



