##NAMES=Hazenite
##RRUFFID=R100029
##IDEAL CHEMISTRY=KNaMg_2_(P^5+^O_4_)_2_&#183;14H_2_O
##LOCALITY=Mono Lake, California, USA
##OWNER=RRUFF
##SOURCE=Hexiong Yang
##DESCRIPTION=Sprays of colorless bladed crystals, co-type sample
##STATUS=The identification of this mineral is confirmed by single-crystal X-ray diffraction and chemical analysis.
##URL=rruff.info/R100029
91.53320, 373.3451
92.01532, 373.7625
92.49744, 372.9427
92.97955, 375.7649
93.46167, 378.0446
93.94379, 377.3024
94.42590, 376.0341
94.90802, 374.2524
95.39014, 371.0198
95.87225, 366.2134
96.35437, 360.8514
96.83649, 355.0461
97.31860, 349.4088
97.80072, 344.5647
98.28284, 340.4227
98.76495, 336.6370
99.24707, 333.4160
99.72919, 331.3671
100.2113, 329.3382
100.6934, 326.8508
101.1755, 324.0712
101.6577, 321.4134
102.1398, 319.1665
102.6219, 317.2666
103.1040, 316.0697
103.5861, 315.6428
104.0682, 315.5674
104.5504, 315.9192
105.0325, 316.5776
105.5146, 316.9487
105.9967, 316.0764
106.4788, 313.3156
106.9609, 310.8242
107.4431, 308.8500
107.9252, 307.1465
108.4073, 305.3307
108.8894, 303.1920
109.3715, 301.0768
109.8536, 299.7069
110.3358, 299.2295
110.8179, 298.6349
111.3000, 297.1842
111.7821, 294.9815
112.2642, 293.0451
112.7463, 291.7398
113.2285, 290.9418
113.7106, 290.6086
114.1927, 290.8474
114.6748, 291.2457
115.1569, 291.3530
115.6390, 291.3318
116.1212, 290.5143
116.6033, 288.0553
117.0854, 285.0616
117.5675, 282.7141
118.0496, 281.6843
118.5317, 281.5791
119.0139, 280.5064
119.4960, 276.6903
119.9781, 273.7701
120.4602, 272.6558
120.9423, 272.8863
121.4244, 273.6303
121.9066, 274.2821
122.3887, 274.8362
122.8708, 275.3741
123.3529, 276.2786
123.8350, 276.8554
124.3171, 276.5762
124.7993, 275.5169
125.2814, 274.3060
125.7635, 273.5281
126.2456, 273.2720
126.7277, 273.3029
127.2098, 273.7009
127.6920, 274.3458
128.1741, 275.2532
128.6562, 276.5003
129.1383, 277.6254
129.6204, 277.9805
130.1025, 277.6700
130.5847, 277.0814
131.0668, 276.3945
131.5489, 275.5585
132.0310, 274.3516
132.5131, 272.4451
132.9952, 270.4346
133.4774, 268.6979
133.9595, 267.2531
134.4416, 266.2492
134.9237, 266.0939
135.4058, 266.9910
135.8879, 267.3206
136.3701, 266.2484
136.8522, 264.8530
137.3343, 263.6354
137.8164, 262.7311
138.2985, 262.1196
138.7806, 261.8571
139.2628, 262.5070
139.7449, 262.4200
140.2270, 260.7622
140.7091, 258.7396
141.1912, 257.5034
141.6733, 257.5748
142.1555, 258.5377
142.6376, 258.9719
143.1197, 258.4697
143.6018, 257.8412
144.0839, 257.1042
144.5660, 256.2957
145.0482, 255.5193
145.5303, 254.8815
146.0124, 254.2859
146.4945, 252.9841
146.9766, 250.0143
147.4587, 247.4378
147.9409, 246.5052
148.4230, 246.9014
148.9051, 247.0905
149.3872, 245.8427
149.8693, 243.4396
150.3514, 241.8055
150.8336, 241.6868
151.3157, 241.9099
151.7978, 241.3967
152.2799, 240.0506
152.7620, 238.4791
153.2441, 236.8907
153.7263, 235.3964
154.2084, 234.2315
154.6905, 233.5964
155.1726, 233.3374
155.6547, 233.1643
156.1368, 233.2002
156.6190, 233.0847
157.1011, 232.5216
157.5832, 231.6891
158.0653, 230.9221
158.5474, 230.4175
159.0295, 230.1666
159.5117, 230.0857
159.9938, 230.7307
160.4759, 230.9624
160.9580, 230.0974
161.4401, 228.4268
161.9222, 226.7263
162.4044, 225.7060
162.8865, 225.4760
163.3686, 225.2698
163.8507, 225.1249
164.3328, 224.9679
164.8149, 224.7797
165.2971, 224.5510
165.7792, 224.2830
166.2613, 223.9880
166.7434, 223.7275
167.2255, 223.2221
167.7076, 222.1606
168.1898, 221.0990
168.6719, 220.5143
169.1540, 220.4733
169.6361, 220.5838
170.1182, 220.2469
170.6003, 219.0859
171.0825, 218.4816
171.5646, 218.9351
172.0467, 219.8084
172.5288, 220.3716
173.0109, 220.4044
173.4930, 220.1859
173.9752, 220.2360
174.4573, 220.6570
174.9394, 220.7258
175.4215, 219.8539
175.9036, 218.4782
176.3857, 217.6751
176.8679, 217.9910
177.3500, 218.5972
177.8321, 218.2825
178.3142, 216.9666
178.7963, 215.7384
179.2784, 215.4432
179.7606, 215.9396
180.2427, 216.0600
180.7248, 215.1178
181.2069, 214.0147
181.6890, 213.5852
182.1711, 213.9072
182.6533, 214.4395
183.1354, 214.7989
183.6175, 215.0227
184.0996, 214.7824
184.5817, 213.3151
185.0638, 211.7658
185.5460, 210.8182
186.0281, 210.6160
186.5102, 210.8188
186.9923, 211.0883
187.4744, 211.6899
187.9565, 211.5957
188.4387, 210.0363
188.9208, 208.2197
189.4029, 206.9954
189.8850, 206.6190
190.3671, 206.7894
190.8492, 206.9565
191.3314, 207.1718
191.8135, 207.2842
192.2956, 207.1114
192.7777, 206.9283
193.2598, 207.0426
193.7419, 207.5650
194.2241, 208.2818
194.7062, 208.6785
195.1883, 208.6078
195.6704, 208.3324
196.1525, 207.5018
196.6346, 206.5844
197.1168, 206.2575
197.5989, 206.8425
198.0810, 207.8975
198.5631, 208.1116
199.0452, 206.7456
199.5273, 205.5791
200.0095, 204.9016
200.4916, 204.6015
200.9737, 204.5432
201.4558, 204.7117
201.9379, 204.9966
202.4200, 205.0661
202.9022, 204.8227
203.3843, 204.5886
203.8664, 204.3551
204.3485, 204.2000
204.8306, 204.3714
205.3127, 205.0528
205.7949, 206.0549
206.2770, 206.9649
206.7591, 207.8691
207.2412, 208.5366
207.7233, 208.7559
208.2054, 208.5811
208.6876, 208.3096
209.1697, 207.9053
209.6518, 207.5983
210.1339, 207.6933
210.6160, 208.2700
211.0981, 209.0517
211.5803, 209.8425
212.0624, 210.6409
212.5445, 211.4945
213.0266, 212.4860
213.5087, 213.4919
213.9908, 214.3280
214.4730, 214.9152
214.9551, 215.5983
215.4372, 216.8863
215.9193, 218.9295
216.4014, 220.6743
216.8836, 221.4131
217.3657, 221.9722
217.8478, 222.9696
218.3299, 224.5559
218.8120, 226.2872
219.2941, 227.5122
219.7763, 228.0612
220.2584, 228.6519
220.7405, 229.3647
221.2226, 230.1910
221.7047, 231.1738
222.1868, 232.3164
222.6690, 233.5113
223.1511, 234.6006
223.6332, 235.6006
224.1153, 236.4512
224.5974, 237.0282
225.0795, 237.5542
225.5617, 238.2123
226.0438, 239.0466
226.5259, 239.9386
227.0080, 240.6198
227.4901, 240.6106
227.9722, 241.3281
228.4544, 243.6305
228.9365, 246.0792
229.4186, 247.3834
229.9007, 247.2433
230.3828, 246.4791
230.8649, 246.5551
231.3471, 248.5262
231.8292, 249.6324
232.3113, 249.1106
232.7934, 248.2446
233.2755, 248.3561
233.7576, 249.7258
234.2398, 251.2924
234.7219, 251.2683
235.2040, 248.5475
235.6861, 246.0249
236.1682, 243.7326
236.6503, 241.6112
237.1325, 239.8119
237.6146, 238.3447
238.0967, 236.7153
238.5788, 234.1337
239.0609, 230.0736
239.5430, 226.2287
240.0252, 222.4200
240.5073, 218.9787
240.9894, 216.4693
241.4715, 215.0080
241.9536, 213.8476
242.4357, 211.8987
242.9179, 208.8911
243.4000, 206.3432
243.8821, 204.6059
244.3642, 203.3079
244.8463, 202.1758
245.3284, 201.1687
245.8106, 200.0185
246.2927, 198.2124
246.7748, 195.6988
247.2569, 193.7769
247.7390, 192.8449
248.2211, 192.5091
248.7033, 192.4102
249.1854, 192.5312
249.6675, 192.6172
250.1496, 192.4717
250.6317, 192.0961
251.1138, 191.3607
251.5960, 189.6880
252.0781, 187.8676
252.5602, 187.0652
253.0423, 187.5296
253.5244, 188.1983
254.0065, 188.1451
254.4887, 187.5707
254.9708, 186.9656
255.4529, 186.3707
255.9350, 185.8455
256.4171, 185.3874
256.8992, 184.9257
257.3813, 184.8580
257.8635, 186.0815
258.3456, 187.8611
258.8277, 188.9000
259.3098, 188.3257
259.7919, 187.1053
260.2740, 186.6722
260.7562, 187.1893
261.2383, 187.7854
261.7204, 187.9240
262.2025, 187.8537
262.6846, 187.8405
263.1667, 187.8744
263.6489, 188.1010
264.1310, 188.9367
264.6131, 190.6272
265.0952, 191.8539
265.5773, 191.4797
266.0594, 190.5501
266.5416, 190.0140
267.0237, 190.1580
267.5058, 190.6838
267.9879, 191.0859
268.4700, 191.2099
268.9521, 191.9375
269.4343, 194.6040
269.9164, 197.4686
270.3985, 199.0388
270.8806, 198.8892
271.3627, 198.1274
271.8448, 198.1104
272.3270, 198.9753
272.8091, 199.8674
273.2912, 200.6499
273.7733, 201.3553
274.2554, 201.9237
274.7375, 202.3619
275.2197, 202.8834
275.7018, 203.8083
276.1839, 205.2171
276.6660, 206.4740
277.1481, 207.1113
277.6302, 207.8525
278.1124, 209.2168
278.5945, 211.1622
279.0766, 213.0829
279.5587, 214.3437
280.0408, 214.8778
280.5229, 215.3962
281.0051, 215.6637
281.4872, 216.1593
281.9693, 217.2294
282.4514, 218.7534
282.9335, 220.3176
283.4156, 221.6158
283.8978, 222.6486
284.3799, 223.3931
284.8620, 223.5583
285.3441, 223.7054
285.8262, 224.1247
286.3083, 224.6797
286.7905, 225.0467
287.2726, 224.9510
287.7547, 224.4489
288.2368, 224.0884
288.7189, 223.9487
289.2010, 223.8711
289.6832, 223.8028
290.1653, 223.7668
290.6474, 223.8400
291.1295, 224.1027
291.6116, 224.4476
292.0938, 224.4236
292.5759, 223.8293
293.0580, 223.1183
293.5401, 222.3770
294.0222, 221.5847
294.5043, 220.7058
294.9865, 219.7215
295.4686, 218.6756
295.9507, 217.7085
296.4328, 217.0619
296.9149, 216.0331
297.3970, 214.0009
297.8792, 211.9070
298.3613, 210.6825
298.8434, 210.5730
299.3255, 210.9668
299.8076, 210.9610
300.2897, 210.7847
300.7719, 209.5849
301.2540, 206.3704
301.7361, 202.9818
302.2182, 200.5002
302.7003, 199.1352
303.1824, 198.4508
303.6646, 198.0773
304.1467, 198.2943
304.6288, 197.7796
305.1109, 195.9956
305.5930, 193.9946
306.0751, 192.1748
306.5573, 190.5797
307.0394, 189.0777
307.5215, 187.4886
308.0036, 185.7569
308.4857, 184.6577
308.9678, 185.0247
309.4500, 185.2255
309.9321, 184.7093
310.4142, 183.6613
310.8963, 182.5011
311.3784, 181.4700
311.8605, 180.5881
312.3427, 180.0446
312.8248, 180.5623
313.3069, 180.5524
313.7890, 179.2287
314.2711, 177.3697
314.7532, 176.0275
315.2354, 175.7472
315.7175, 176.1298
316.1996, 176.0237
316.6817, 175.0586
317.1638, 174.1633
317.6459, 173.2800
318.1281, 172.5872
318.6102, 172.3492
319.0923, 172.6199
319.5744, 173.0745
320.0565, 173.1184
320.5386, 172.3922
321.0208, 172.0988
321.5029, 172.6568
321.9850, 173.3107
322.4671, 173.6179
322.9492, 173.5174
323.4313, 173.2011
323.9135, 172.8752
324.3956, 172.5630
324.8777, 172.1132
325.3598, 171.0262
325.8419, 170.2611
326.3240, 170.6110
326.8062, 171.6644
327.2883, 172.2507
327.7704, 171.2922
328.2525, 168.9257
328.7346, 167.5975
329.2167, 168.5340
329.6989, 169.1661
330.1810, 168.5788
330.6631, 167.3606
331.1452, 166.4794
331.6273, 166.5044
332.1094, 167.0385
332.5916, 166.7591
333.0737, 164.8551
333.5558, 163.5368
334.0379, 163.3269
334.5200, 163.7001
335.0021, 164.2584
335.4843, 164.8597
335.9664, 165.4448
336.4485, 165.9559
336.9306, 166.4779
337.4127, 166.6600
337.8948, 165.9316
338.3770, 165.2750
338.8591, 165.5207
339.3412, 166.5969
339.8233, 167.5634
340.3055, 167.2196
340.7876, 165.3530
341.2697, 164.3501
341.7518, 164.9861
342.2339, 165.7944
342.7160, 166.4220
343.1982, 166.7751
343.6803, 166.6987
344.1624, 165.8642
344.6445, 164.5520
345.1266, 164.2966
345.6087, 166.0069
346.0909, 167.2971
346.5730, 167.1702
347.0551, 166.3171
347.5372, 165.5776
348.0193, 165.2814
348.5014, 165.2666
348.9836, 165.3005
349.4657, 165.4679
349.9478, 165.3960
350.4299, 164.5011
350.9120, 163.6277
351.3941, 163.4817
351.8763, 164.1826
352.3584, 165.1618
352.8405, 165.8488
353.3226, 166.2371
353.8047, 166.6950
354.2868, 167.5845
354.7690, 168.1986
355.2511, 167.8990
355.7332, 166.8795
356.2153, 165.9830
356.6974, 165.7520
357.1795, 166.0822
357.6617, 166.6533
358.1438, 167.6739
358.6259, 168.4805
359.1080, 168.6083
359.5901, 168.3077
360.0722, 167.9451
360.5544, 167.6227
361.0365, 167.3269
361.5186, 166.8947
362.0007, 166.2489
362.4828, 166.1311
362.9649, 167.3289
363.4471, 168.9529
363.9292, 169.9951
364.4113, 170.2910
364.8934, 170.2921
365.3755, 170.3108
365.8576, 170.3263
366.3398, 170.1845
366.8219, 169.7194
367.3040, 169.2856
367.7861, 169.2657
368.2682, 169.6235
368.7503, 170.0881
369.2325, 170.7309
369.7146, 171.3623
370.1967, 171.5484
370.6788, 171.1738
371.1609, 170.8661
371.6430, 171.3424
372.1252, 172.2913
372.6073, 172.6553
373.0894, 171.4416
373.5715, 170.2791
374.0536, 170.8271
374.5357, 172.7762
375.0179, 174.2480
375.5000, 174.2031
375.9821, 173.2141
376.4642, 172.7132
376.9463, 173.0128
377.4284, 173.0284
377.9106, 171.9260
378.3927, 170.3735
378.8748, 169.5877
379.3569, 169.9307
379.8390, 170.7854
380.3211, 171.4528
380.8033, 171.9355
381.2854, 172.1446
381.7675, 172.1536
382.2496, 171.8279
382.7317, 170.7185
383.2138, 168.9789
383.6960, 167.6416
384.1781, 167.5507
384.6602, 168.6105
385.1423, 169.3481
385.6244, 169.9200
386.1065, 170.0703
386.5887, 169.4359
387.0708, 168.3707
387.5529, 167.4378
388.0350, 166.8800
388.5171, 166.6055
388.9992, 166.4128
389.4814, 166.3382
389.9635, 166.3029
390.4456, 166.4511
390.9277, 166.5447
391.4098, 166.2798
391.8919, 165.6820
392.3741, 165.1292
392.8562, 165.0307
393.3383, 165.4495
393.8204, 165.8522
394.3025, 166.3349
394.7846, 166.7068
395.2668, 166.9500
395.7489, 167.0299
396.2310, 166.8563
396.7131, 166.3518
397.1952, 165.6430
397.6773, 165.1416
398.1595, 164.7129
398.6416, 164.7627
399.1237, 165.7511
399.6058, 166.9265
400.0879, 167.6019
400.5700, 167.6398
401.0522, 167.4727
401.5343, 167.6335
402.0164, 168.1830
402.4985, 168.6985
402.9806, 169.2240
403.4627, 169.6491
403.9449, 169.8446
404.4270, 169.8935
404.9091, 169.9951
405.3912, 170.2415
405.8733, 170.6453
406.3554, 171.3001
406.8376, 172.3659
407.3197, 173.2919
407.8018, 173.6895
408.2839, 173.9161
408.7660, 174.3969
409.2481, 175.3014
409.7303, 176.1142
410.2124, 176.0491
410.6945, 175.1996
411.1766, 175.1045
411.6587, 176.5584
412.1408, 178.2674
412.6230, 178.9408
413.1051, 178.7113
413.5872, 178.5245
414.0693, 178.8221
414.5514, 179.3902
415.0335, 179.9884
415.5157, 180.6311
415.9978, 180.9746
416.4799, 180.5910
416.9620, 179.7613
417.4441, 179.3588
417.9262, 179.4454
418.4084, 179.9225
418.8905, 181.1238
419.3726, 182.6873
419.8547, 183.6099
420.3368, 183.4845
420.8189, 182.8055
421.3011, 182.3234
421.7832, 182.0738
422.2653, 181.8596
422.7474, 181.4097
423.2295, 181.1578
423.7116, 181.8013
424.1938, 183.2034
424.6759, 184.2050
425.1580, 183.7764
425.6401, 182.0379
426.1222, 181.2399
426.6043, 182.1723
427.0865, 182.9700
427.5686, 183.3057
428.0507, 183.1874
428.5328, 182.4881
429.0149, 181.1794
429.4970, 179.7470
429.9792, 179.0768
430.4613, 179.6375
430.9434, 179.9508
431.4255, 179.9136
431.9076, 179.7686
432.3897, 179.6949
432.8719, 179.6498
433.3540, 179.4340
433.8361, 178.8488
434.3182, 177.9679
434.8003, 177.3333
435.2824, 177.1698
435.7646, 176.9170
436.2467, 176.3273
436.7288, 175.6423
437.2109, 175.2100
437.6930, 175.1449
438.1751, 175.0147
438.6573, 174.0418
439.1394, 172.1172
439.6215, 170.9469
440.1036, 171.3783
440.5857, 171.9368
441.0678, 171.6725
441.5500, 170.7104
442.0321, 169.5943
442.5142, 168.4297
442.9963, 167.3477
443.4784, 166.6496
443.9605, 166.3863
444.4427, 166.1044
444.9248, 165.5288
445.4069, 164.8233
445.8890, 164.3217
446.3711, 164.1612
446.8532, 163.8537
447.3354, 162.8443
447.8175, 161.5276
448.2996, 160.9184
448.7817, 161.3405
449.2638, 161.8402
449.7459, 161.2412
450.2281, 159.4564
450.7102, 158.3643
451.1923, 158.7039
451.6744, 159.1577
452.1565, 158.8569
452.6386, 157.9639
453.1208, 157.0336
453.6029, 156.3193
454.0850, 155.8587
454.5671, 155.7649
455.0492, 156.6819
455.5313, 157.0795
456.0135, 156.7189
456.4956, 155.9839
456.9777, 154.9557
457.4598, 153.7863
457.9419, 152.9407
458.4240, 152.9819
458.9062, 153.9335
459.3883, 154.0517
459.8704, 151.9551
460.3525, 150.5797
460.8346, 151.1351
461.3167, 152.5564
461.7989, 153.4665
462.2810, 153.3391
462.7631, 152.7185
463.2452, 152.4698
463.7273, 152.6918
464.2094, 152.6789
464.6916, 151.9553
465.1737, 151.3489
465.6558, 151.6065
466.1379, 152.4566
466.6200, 152.8794
467.1021, 151.9845
467.5843, 150.4504
468.0664, 149.6649
468.5485, 149.7043
469.0306, 149.9407
469.5127, 150.2763
469.9948, 150.5357
470.4770, 150.4275
470.9591, 149.8494
471.4412, 149.2575
471.9233, 148.8053
472.4054, 148.5118
472.8875, 148.5002
473.3697, 148.8126
473.8518, 149.0891
474.3339, 148.9715
474.8160, 148.4599
475.2981, 148.0929
475.7802, 147.9603
476.2624, 147.8736
476.7445, 147.6914
477.2266, 147.5018
477.7087, 147.4833
478.1908, 147.7068
478.6729, 148.0965
479.1551, 148.5482
479.6372, 149.2707
480.1193, 149.5300
480.6014, 149.2045
481.0835, 148.5930
481.5656, 147.5405
482.0478, 146.3280
482.5299, 145.6246
483.0120, 145.9406
483.4941, 146.9611
483.9762, 147.4978
484.4583, 147.4272
484.9405, 147.1052
485.4226, 146.3144
485.9047, 145.5160
486.3868, 145.1537
486.8689, 145.2484
487.3510, 145.3555
487.8332, 145.0072
488.3153, 144.3280
488.7974, 143.9318
489.2795, 143.9008
489.7616, 144.0071
490.2437, 144.2923
490.7259, 144.5834
491.2080, 144.5503
491.6901, 143.9375
492.1722, 143.3821
492.6543, 143.5303
493.1364, 144.1123
493.6186, 144.2887
494.1007, 143.7847
494.5828, 143.0971
495.0649, 142.8061
495.5470, 142.9604
496.0291, 142.9901
496.5113, 142.6683
496.9934, 142.4121
497.4755, 142.6274
497.9576, 143.1033
498.4397, 143.2317
498.9218, 142.6950
499.4040, 141.9017
499.8861, 141.8311
500.3682, 143.4196
500.8503, 143.9767
501.3324, 142.5018
501.8145, 140.9740
502.2967, 140.7493
502.7788, 141.6077
503.2609, 142.4480
503.7430, 142.4871
504.2251, 141.9427
504.7072, 141.6726
505.1894, 141.8134
505.6715, 141.9142
506.1536, 141.6749
506.6357, 141.4722
507.1178, 141.7359
507.5999, 142.4812
508.0821, 143.0866
508.5642, 143.0469
509.0463, 142.5161
509.5284, 141.8587
510.0105, 141.0226
510.4926, 140.3857
510.9748, 140.1783
511.4569, 140.3578
511.9390, 140.8326
512.4211, 141.9002
512.9032, 142.7030
513.3853, 142.6987
513.8674, 142.1795
514.3495, 141.4927
514.8317, 140.7142
515.3138, 140.2644
515.7959, 140.6880
516.2780, 142.0875
516.7601, 142.7708
517.2422, 142.0699
517.7244, 141.5254
518.2065, 141.7602
518.6886, 142.4400
519.1707, 143.1407
519.6528, 143.6906
520.1349, 144.0121
520.6171, 143.8755
521.0992, 143.0482
521.5813, 142.7169
522.0634, 143.3293
522.5455, 144.0212
523.0276, 144.5793
523.5098, 144.9793
523.9919, 145.1588
524.4740, 145.0111
524.9561, 144.8635
525.4382, 145.2259
525.9203, 146.1038
526.4025, 147.1123
526.8846, 148.3238
527.3667, 149.4126
527.8488, 150.0062
528.3309, 150.1749
528.8130, 150.3683
529.2952, 150.8105
529.7773, 151.2604
530.2594, 151.2971
530.7415, 151.0799
531.2236, 151.4216
531.7057, 152.7843
532.1879, 154.5919
532.6700, 155.6955
533.1521, 155.5468
533.6342, 155.9647
534.1163, 157.5350
534.5984, 159.2054
535.0806, 160.3109
535.5627, 160.9076
536.0448, 161.3384
536.5269, 161.8009
537.0090, 162.2881
537.4911, 162.7274
537.9733, 162.9061
538.4554, 163.5292
538.9375, 165.2195
539.4196, 166.9111
539.9017, 167.7951
540.3839, 168.0118
540.8660, 168.4114
541.3481, 169.7920
541.8302, 171.5847
542.3123, 172.3745
542.7944, 172.0312
543.2766, 171.8282
543.7587, 172.2696
544.2408, 173.1124
544.7229, 174.0613
545.2050, 175.1606
545.6871, 176.0010
546.1693, 176.1273
546.6514, 176.1162
547.1335, 176.7961
547.6156, 178.0709
548.0977, 178.9929
548.5798, 178.9273
549.0620, 178.1819
549.5441, 177.7982
550.0262, 177.7904
550.5083, 178.1673
550.9904, 179.7097
551.4725, 181.0441
551.9547, 180.8655
552.4368, 179.4025
552.9189, 177.9240
553.4010, 177.3856
553.8831, 177.5577
554.3652, 177.5635
554.8474, 177.4214
555.3295, 177.0679
555.8116, 176.3926
556.2937, 175.5600
556.7758, 174.6147
557.2579, 173.5878
557.7401, 172.6358
558.2222, 171.9252
558.7043, 171.3229
559.1864, 170.5121
559.6685, 169.4881
560.1506, 168.6528
560.6328, 168.2172
561.1149, 168.0794
561.5970, 168.1226
562.0791, 168.5698
562.5612, 168.4806
563.0433, 167.1973
563.5255, 165.6741
564.0076, 164.7760
564.4897, 164.4279
564.9718, 163.9624
565.4539, 162.9312
565.9360, 161.5431
566.4182, 160.5298
566.9003, 160.1593
567.3824, 159.6517
567.8645, 158.7415
568.3466, 157.8723
568.8287, 157.4859
569.3109, 157.4289
569.7930, 157.1046
570.2751, 156.0289
570.7572, 154.5680
571.2393, 153.5265
571.7214, 152.9436
572.2036, 152.3314
572.6857, 151.5099
573.1678, 150.6338
573.6499, 149.8851
574.1320, 149.2618
574.6141, 148.6425
575.0963, 148.0532
575.5784, 147.4099
576.0605, 146.6418
576.5426, 145.7577
577.0247, 144.7845
577.5068, 143.7359
577.9890, 142.6156
578.4711, 141.4096
578.9532, 139.9833
579.4353, 138.8294
579.9174, 138.1834
580.3995, 137.5386
580.8817, 136.5623
581.3638, 135.4240
581.8459, 134.4505
582.3280, 133.7892
582.8101, 133.4068
583.2922, 133.4148
583.7744, 133.8746
584.2565, 133.7326
584.7386, 132.3403
585.2207, 131.0454
585.7029, 131.0432
586.1850, 131.8638
586.6671, 132.3059
587.1492, 131.8928
587.6313, 131.2776
588.1135, 131.0046
588.5956, 130.8839
589.0777, 130.3379
589.5598, 129.2060
590.0419, 128.1809
590.5240, 128.1079
591.0062, 129.0595
591.4883, 129.2749
591.9704, 128.1229
592.4525, 127.0947
592.9346, 126.6145
593.4167, 126.4240
593.8989, 126.1730
594.3810, 125.8035
594.8631, 125.5689
595.3452, 125.8014
595.8273, 126.4508
596.3094, 126.9871
596.7916, 127.5570
597.2737, 127.6858
597.7558, 126.8129
598.2379, 125.5599
598.7200, 124.4242
599.2021, 123.4089
599.6843, 122.9815
600.1664, 123.9801
600.6485, 125.4118
601.1306, 125.7490
601.6127, 124.9771
602.0948, 124.1272
602.5770, 123.7940
603.0591, 123.7778
603.5412, 123.5166
604.0233, 122.5236
604.5054, 122.1080
604.9875, 122.7586
605.4697, 123.5468
605.9518, 123.8682
606.4339, 123.8213
606.9160, 123.8151
607.3981, 124.0885
607.8802, 124.4760
608.3624, 124.6828
608.8445, 124.7140
609.3266, 124.5019
609.8087, 123.8875
610.2908, 123.2182
610.7729, 122.5890
611.2551, 122.0940
611.7372, 122.0692
612.2193, 123.1449
612.7014, 124.0336
613.1835, 123.4501
613.6656, 122.0510
614.1478, 121.3811
614.6299, 121.8182
615.1120, 122.4405
615.5941, 122.2978
616.0762, 121.3845
616.5583, 120.6927
617.0405, 120.2839
617.5226, 120.0156
618.0047, 119.7806
618.4868, 119.7259
618.9689, 120.1091
619.4510, 120.8960
619.9332, 121.6817
620.4153, 122.2108
620.8974, 122.4508
621.3795, 122.1358
621.8616, 121.1135
622.3438, 120.3765
622.8259, 120.5008
623.3080, 120.9099
623.7901, 120.6965
624.2722, 119.8039
624.7543, 119.3920
625.2365, 120.4206
625.7186, 121.5039
626.2007, 121.1851
626.6828, 119.9489
627.1649, 119.3448
627.6470, 120.0344
628.1292, 121.2382
628.6113, 121.6979
629.0934, 121.2379
629.5755, 120.7611
630.0576, 119.8810
630.5397, 119.4127
631.0219, 120.1559
631.5040, 121.2418
631.9861, 121.2823
632.4682, 119.8400
632.9503, 118.4048
633.4324, 118.5695
633.9146, 119.8361
634.3967, 120.6331
634.8788, 120.8127
635.3609, 120.7418
635.8430, 120.5945
636.3251, 120.3678
636.8073, 120.0264
637.2894, 119.4473
637.7715, 119.0570
638.2536, 119.1615
638.7357, 119.2786
639.2178, 118.8529
639.7000, 118.1014
640.1821, 117.7122
640.6642, 118.0694
641.1463, 118.8981
641.6284, 119.8433
642.1105, 121.1115
642.5927, 121.2844
643.0748, 119.2608
643.5569, 117.3683
644.0390, 117.0348
644.5211, 117.7158
645.0032, 118.3180
645.4854, 118.5404
645.9675, 118.7512
646.4496, 119.4262
646.9317, 120.1933
647.4138, 120.2316
647.8959, 119.4686
648.3781, 118.6574
648.8602, 118.3595
649.3423, 118.4716
649.8244, 118.5130
650.3065, 118.2869
650.7886, 118.2947
651.2708, 118.9110
651.7529, 119.4486
652.2350, 119.3041
652.7171, 118.6738
653.1992, 118.2011
653.6813, 118.2276
654.1635, 118.5651
654.6456, 119.1270
655.1277, 119.8552
655.6098, 119.9059
656.0919, 118.8971
656.5740, 117.8269
657.0562, 117.6494
657.5383, 118.2176
658.0204, 118.3532
658.5025, 117.5003
658.9846, 116.9089
659.4667, 117.2145
659.9489, 117.7931
660.4310, 117.9378
660.9131, 117.6287
661.3952, 117.3442
661.8773, 117.4470
662.3594, 117.8172
662.8416, 118.0531
663.3237, 118.1142
663.8058, 118.2063
664.2879, 118.5581
664.7700, 118.7421
665.2521, 118.3601
665.7343, 117.5597
666.2164, 116.8445
666.6985, 116.3181
667.1806, 115.9614
667.6627, 115.7496
668.1448, 115.7001
668.6270, 115.9673
669.1091, 116.5420
669.5912, 116.9379
670.0733, 116.6439
670.5554, 115.8283
671.0375, 115.7586
671.5197, 117.3537
672.0018, 118.1717
672.4839, 117.3080
672.9660, 116.2069
673.4481, 115.8967
673.9302, 116.2508
674.4124, 116.5232
674.8945, 116.2559
675.3766, 115.8749
675.8587, 116.0119
676.3408, 116.5317
676.8229, 116.8124
677.3051, 116.7143
677.7872, 116.3930
678.2693, 115.9487
678.7514, 115.3948
679.2335, 114.8830
679.7156, 114.0954
680.1978, 113.7678
680.6799, 114.5140
681.1620, 115.3778
681.6441, 115.4042
682.1262, 114.7394
682.6083, 114.2923
683.0905, 114.7121
683.5726, 115.4783
684.0547, 115.5352
684.5368, 114.8841
685.0189, 114.3754
685.5010, 114.2006
685.9832, 114.1341
686.4653, 114.0549
686.9474, 113.9331
687.4295, 113.6367
687.9116, 112.7364
688.3937, 112.2472
688.8759, 112.8960
689.3580, 113.8086
689.8401, 114.1351
690.3222, 113.8272
690.8043, 113.1643
691.2864, 112.2456
691.7686, 111.3990
692.2507, 111.6157
692.7328, 113.1556
693.2149, 114.0655
693.6970, 113.7395
694.1791, 113.2348
694.6613, 113.3858
695.1434, 113.8903
695.6255, 114.0449
696.1076, 113.5410
696.5897, 113.0947
697.0718, 113.1479
697.5540, 113.3672
698.0361, 113.3137
698.5182, 112.9997
699.0003, 112.7538
699.4824, 112.7905
699.9645, 112.9535
700.4467, 112.7964
700.9288, 112.1245
701.4109, 111.8892
701.8930, 112.6598
702.3751, 113.2370
702.8572, 112.8000
703.3394, 111.8632
703.8215, 111.3258
704.3036, 111.4589
704.7857, 111.6399
705.2678, 111.3990
705.7499, 111.0564
706.2321, 111.1998
706.7142, 111.7336
707.1963, 111.8930
707.6784, 111.2361
708.1605, 110.2559
708.6426, 109.9644
709.1248, 110.5980
709.6069, 111.0805
710.0890, 111.4695
710.5711, 111.6263
711.0532, 111.1980
711.5353, 110.6569
712.0175, 110.7310
712.4996, 111.5919
712.9817, 112.3198
713.4638, 112.1382
713.9459, 111.6096
714.4280, 111.6513
714.9102, 112.1397
715.3923, 112.2058
715.8744, 111.4463
716.3565, 110.4318
716.8386, 110.0079
717.3207, 110.2614
717.8029, 110.4873
718.2850, 110.7147
718.7671, 110.8718
719.2492, 110.9206
719.7313, 110.9066
720.2134, 110.8694
720.6956, 110.8156
721.1777, 110.7408
721.6598, 110.6206
722.1419, 110.4925
722.6240, 110.3671
723.1061, 110.2702
723.5883, 110.3032
724.0704, 110.4970
724.5525, 110.8472
725.0346, 111.4358
725.5167, 112.2384
725.9988, 112.3981
726.4810, 111.2228
726.9631, 110.3966
727.4452, 110.2198
727.9273, 110.3628
728.4094, 110.6482
728.8915, 111.0282
729.3737, 111.4805
729.8558, 112.1658
730.3379, 112.6281
730.8200, 112.2379
731.3021, 111.2486
731.7842, 110.2070
732.2664, 109.2247
732.7485, 108.7457
733.2306, 109.1904
733.7127, 110.3109
734.1948, 111.1404
734.6769, 111.6860
735.1591, 111.9129
735.6412, 111.5715
736.1233, 111.1884
736.6054, 111.1440
737.0875, 111.2227
737.5696, 110.8947
738.0518, 109.8897
738.5339, 109.0945
739.0160, 109.4235
739.4981, 110.3598
739.9802, 111.0533
740.4623, 111.4258
740.9445, 111.4513
741.4266, 111.0762
741.9087, 110.5300
742.3908, 110.2364
742.8729, 110.2746
743.3550, 110.2180
743.8372, 110.0163
744.3193, 109.7751
744.8014, 109.4608
745.2835, 109.1574
745.7656, 108.9258
746.2477, 108.7831
746.7299, 108.7980
747.2120, 109.1269
747.6941, 109.5443
748.1762, 109.6995
748.6583, 109.7180
749.1404, 110.1301
749.6226, 111.0744
750.1047, 111.8440
750.5868, 111.6416
751.0689, 110.5860
751.5510, 109.9840
752.0331, 110.0898
752.5153, 110.1659
752.9974, 110.1943
753.4795, 110.0683
753.9616, 109.3683
754.4437, 108.4344
754.9258, 108.4079
755.4080, 110.2785
755.8901, 111.8756
756.3722, 111.1586
756.8543, 109.5057
757.3364, 109.1360
757.8185, 110.0804
758.3007, 110.9029
758.7828, 110.7354
759.2649, 109.9374
759.7470, 109.1445
760.2291, 108.1832
760.7112, 108.1464
761.1934, 109.9262
761.6755, 111.2807
762.1576, 110.5752
762.6397, 109.1266
763.1218, 108.6318
763.6039, 109.3257
764.0861, 110.0434
764.5682, 110.4895
765.0503, 110.7132
765.5324, 110.6282
766.0145, 110.3786
766.4966, 110.2086
766.9788, 110.1954
767.4609, 110.3216
767.9430, 110.6406
768.4251, 111.0556
768.9072, 111.0119
769.3893, 110.4050
769.8715, 109.9003
770.3536, 109.7688
770.8357, 109.6269
771.3178, 108.8518
771.7999, 107.6786
772.2820, 107.3513
772.7642, 108.6512
773.2463, 109.8433
773.7284, 110.5168
774.2105, 110.8448
774.6926, 110.8965
775.1747, 110.7407
775.6569, 110.5023
776.1390, 110.2465
776.6211, 109.8951
777.1032, 109.1673
777.5853, 108.1978
778.0674, 107.8112
778.5496, 108.1144
779.0317, 108.5737
779.5138, 108.9145
779.9959, 109.2925
780.4780, 110.0498
780.9601, 111.4056
781.4423, 112.2322
781.9244, 112.4735
782.4065, 112.2845
782.8886, 111.1989
783.3707, 110.0242
783.8528, 109.7705
784.3350, 110.4316
784.8171, 110.9722
785.2992, 110.6088
785.7813, 109.9727
786.2634, 109.8014
786.7455, 110.0488
787.2277, 110.7247
787.7098, 111.8135
788.1919, 112.6567
788.6740, 112.6849
789.1561, 112.1374
789.6382, 111.9179
790.1204, 112.2955
790.6025, 112.3449
791.0846, 111.4779
791.5667, 110.8807
792.0488, 111.3605
792.5309, 112.3274
793.0131, 112.8559
793.4952, 112.7606
793.9773, 112.4792
794.4594, 112.0848
794.9415, 111.7063
795.4236, 111.3767
795.9058, 111.1769
796.3879, 111.3987
796.8700, 112.0788
797.3521, 112.6456
797.8342, 112.4186
798.3163, 111.6058
798.7985, 111.3181
799.2806, 111.6316
799.7627, 112.0236
800.2448, 112.3943
800.7269, 112.7903
801.2090, 113.3548
801.6912, 113.9980
802.1733, 114.2767
802.6554, 114.0219
803.1375, 113.6684
803.6196, 113.2341
804.1017, 112.7835
804.5839, 112.2838
805.0660, 111.8241
805.5481, 111.6005
806.0302, 111.6858
806.5123, 111.8646
806.9944, 111.9192
807.4766, 111.9078
807.9587, 111.9573
808.4408, 112.0740
808.9229, 112.2993
809.4050, 112.6711
809.8871, 113.0058
810.3693, 113.0577
810.8514, 112.8313
811.3335, 112.7491
811.8156, 112.8108
812.2977, 113.0209
812.7798, 113.9006
813.2620, 114.4558
813.7441, 113.5515
814.2262, 111.7933
814.7083, 110.9876
815.1904, 111.9682
815.6725, 113.0657
816.1547, 113.4158
816.6368, 113.3416
817.1189, 113.1782
817.6010, 112.9368
818.0831, 112.4379
818.5652, 111.6156
819.0474, 110.8594
819.5295, 110.6830
820.0116, 111.0472
820.4937, 111.7941
820.9758, 113.1235
821.4579, 113.5195
821.9401, 112.0731
822.4222, 110.2670
822.9043, 109.6910
823.3864, 110.3054
823.8685, 110.7636
824.3506, 111.0792
824.8328, 111.2271
825.3149, 111.0171
825.7970, 110.8040
826.2791, 110.7888
826.7612, 110.9896
827.2433, 111.5065
827.7255, 112.4600
828.2076, 113.0809
828.6897, 112.2356
829.1718, 110.8810
829.6539, 110.7476
830.1360, 111.6669
830.6182, 112.4811
831.1003, 112.7517
831.5824, 112.7348
832.0645, 112.7326
832.5466, 112.7305
833.0287, 112.5136
833.5109, 111.9586
833.9930, 111.5506
834.4751, 111.3228
834.9572, 111.3504
835.4393, 112.0914
835.9214, 113.1436
836.4036, 113.2126
836.8857, 111.4634
837.3678, 110.2282
837.8499, 110.3243
838.3320, 110.8987
838.8141, 111.6072
839.2963, 112.2522
839.7784, 112.5238
840.2605, 112.3509
840.7426, 112.1775
841.2247, 112.4917
841.7068, 113.0362
842.1890, 113.2151
842.6711, 113.1257
843.1532, 113.4671
843.6353, 114.4464
844.1174, 115.1039
844.5995, 114.5177
845.0817, 112.9846
845.5638, 111.7868
846.0459, 110.7426
846.5280, 110.5798
847.0101, 111.9998
847.4922, 113.4672
847.9744, 114.3616
848.4565, 114.7449
848.9386, 114.5615
849.4207, 113.6913
849.9028, 113.1174
850.3849, 113.3075
850.8671, 113.6510
851.3492, 113.9105
851.8313, 114.0379
852.3134, 113.8537
852.7955, 113.4431
853.2776, 113.3269
853.7598, 113.9733
854.2419, 114.8334
854.7240, 115.0662
855.2061, 114.7865
855.6882, 114.3490
856.1703, 113.8098
856.6525, 113.4860
857.1346, 113.5506
857.6167, 113.9600
858.0988, 114.7112
858.5809, 115.9338
859.0630, 116.6188
859.5452, 116.5709
860.0273, 116.3306
860.5094, 115.9041
860.9915, 115.4734
861.4736, 115.1379
861.9557, 114.9245
862.4379, 114.9700
862.9200, 115.4547
863.4021, 115.9857
863.8842, 116.5268
864.3663, 116.9744
864.8484, 117.1522
865.3306, 117.1728
865.8127, 117.3912
866.2948, 117.9369
866.7769, 118.3117
867.2590, 117.7591
867.7411, 116.7897
868.2233, 116.5714
868.7054, 116.9823
869.1875, 117.2799
869.6696, 117.2532
870.1517, 116.8481
870.6339, 115.8613
871.1160, 114.6331
871.5981, 114.8521
872.0802, 117.0435
872.5623, 118.8242
873.0444, 120.0627
873.5266, 120.6939
874.0087, 120.3833
874.4908, 119.5598
874.9729, 119.0188
875.4550, 118.8109
875.9371, 118.6001
876.4193, 118.1460
876.9014, 117.9161
877.3835, 118.3834
877.8656, 118.9896
878.3477, 119.1205
878.8298, 118.7797
879.3120, 118.2792
879.7941, 117.5503
880.2762, 117.3094
880.7583, 118.9249
881.2404, 121.2014
881.7225, 121.8025
882.2047, 120.8879
882.6868, 120.1057
883.1689, 120.1705
883.6510, 120.7178
884.1331, 121.3573
884.6152, 122.0631
885.0974, 122.6598
885.5795, 123.1729
886.0616, 123.3355
886.5437, 122.9659
887.0258, 122.5119
887.5079, 122.2350
887.9901, 122.1952
888.4722, 122.6498
888.9543, 124.0497
889.4364, 125.0902
889.9185, 125.5734
890.4006, 125.9319
890.8828, 126.4326
891.3649, 126.8498
891.8470, 126.6801
892.3291, 125.9629
892.8112, 125.8232
893.2933, 127.2309
893.7755, 128.7613
894.2576, 129.5089
894.7397, 129.8793
895.2218, 130.1978
895.7039, 130.6342
896.1860, 131.5414
896.6682, 133.1166
897.1503, 134.7776
897.6324, 135.7255
898.1145, 136.2171
898.5966, 136.9660
899.0787, 137.9909
899.5609, 139.3882
900.0430, 141.2226
900.5251, 142.9627
901.0072, 144.0669
901.4893, 144.6755
901.9714, 145.4631
902.4536, 146.5143
902.9357, 147.3825
903.4178, 147.7020
903.8999, 148.4324
904.3820, 150.3672
904.8641, 152.8594
905.3463, 154.7263
905.8284, 155.8406
906.3105, 157.3372
906.7926, 159.9275
907.2747, 162.0955
907.7568, 162.9928
908.2390, 163.5976
908.7211, 164.7018
909.2032, 166.3045
909.6853, 168.1240
910.1674, 170.0646
910.6495, 172.1738
911.1317, 174.4700
911.6138, 176.9751
912.0959, 179.8913
912.5780, 182.9904
913.0601, 185.7732
913.5422, 188.1129
914.0244, 190.1316
914.5065, 191.7929
914.9886, 193.4538
915.4707, 196.0794
915.9528, 199.4785
916.4349, 202.3607
916.9171, 204.5255
917.3992, 207.0175
917.8813, 210.4730
918.3634, 214.3076
918.8455, 217.6124
919.3276, 220.3880
919.8098, 222.5848
920.2919, 223.7833
920.7740, 225.5141
921.2561, 228.3628
921.7382, 231.5820
922.2203, 234.7858
922.7025, 237.8736
923.1846, 240.5019
923.6667, 242.6084
924.1488, 244.4228
924.6309, 245.4981
925.1130, 246.8216
925.5952, 249.4941
926.0773, 252.2829
926.5594, 253.2910
927.0415, 252.6164
927.5236, 252.6918
928.0057, 255.3411
928.4879, 257.8314
928.9700, 258.0765
929.4521, 257.3980
929.9342, 257.1886
930.4163, 257.4947
930.8984, 258.1123
931.3806, 258.9191
931.8627, 259.2397
932.3448, 258.0621
932.8269, 256.1217
933.3090, 255.1588
933.7911, 254.8331
934.2733, 253.6459
934.7554, 251.3286
935.2375, 248.6409
935.7196, 246.0660
936.2017, 243.5865
936.6838, 241.2613
937.1660, 239.1057
937.6481, 236.6705
938.1302, 233.8625
938.6123, 231.2178
939.0944, 229.0040
939.5765, 226.8141
940.0587, 224.2036
940.5408, 221.2292
941.0229, 218.4204
941.5050, 215.4613
941.9871, 213.2497
942.4692, 212.7683
942.9514, 211.9576
943.4335, 209.8638
943.9156, 207.0699
944.3977, 204.2844
944.8798, 201.5557
945.3619, 198.6555
945.8441, 195.1134
946.3262, 191.9574
946.8083, 189.7422
947.2904, 187.9002
947.7725, 186.0807
948.2546, 184.1808
948.7368, 182.0195
949.2189, 179.5214
949.7010, 177.2994
950.1831, 176.1766
950.6652, 175.1120
951.1473, 172.9347
951.6295, 170.0920
952.1116, 167.3222
952.5937, 164.7852
953.0758, 162.5027
953.5579, 160.4936
954.0400, 158.5681
954.5222, 156.3858
955.0043, 154.0943
955.4864, 152.1893
955.9685, 150.6308
956.4506, 148.8497
956.9327, 146.6785
957.4149, 144.7166
957.8970, 143.5641
958.3791, 142.8491
958.8612, 141.2196
959.3433, 140.0716
959.8254, 136.9564
960.3076, 136.9112
960.7897, 136.2648
961.2718, 133.9556
961.7539, 130.9046
962.2360, 128.1349
962.7181, 125.6616
963.2003, 124.1118
963.6824, 124.3557
964.1645, 123.6927
964.6466, 120.7666
965.1287, 118.2643
965.6108, 118.2320
966.0930, 119.2296
966.5751, 119.0752
967.0572, 117.6104
967.5393, 116.2803
968.0214, 114.9644
968.5035, 114.1629
968.9857, 114.7175
969.4678, 115.1916
969.9499, 114.2976
970.4320, 112.4949
970.9141, 110.9253
971.3962, 109.8736
971.8784, 108.9434
972.3605, 107.9445
972.8426, 107.0316
973.3247, 106.3798
973.8068, 105.8366
974.2889, 105.0863
974.7711, 104.2314
975.2532, 103.7909
975.7353, 104.0654
976.2174, 104.3741
976.6995, 104.1700
977.1816, 103.5800
977.6638, 102.4801
978.1459, 101.2014
978.6280, 100.6997
979.1101, 101.0449
979.5922, 101.1791
980.0743, 100.2609
980.5565, 99.19601
981.0386, 99.79784
981.5207, 101.4790
982.0028, 102.0946
982.4849, 101.6090
982.9670, 100.8037
983.4492, 99.93961
983.9313, 99.19584
984.4134, 98.71936
984.8955, 98.53336
985.3776, 98.85854
985.8597, 99.72533
986.3419, 100.0222
986.8240, 99.58154
987.3061, 99.10942
987.7882, 98.94030
988.2703, 98.75072
988.7524, 98.06886
989.2346, 96.98491
989.7167, 96.48167
990.1988, 96.61581
990.6809, 97.20750
991.1630, 98.55019
991.6451, 99.77496
992.1273, 100.5409
992.6094, 100.8594
993.0915, 100.6589
993.5736, 99.90587
994.0557, 99.29578
994.5378, 98.90552
995.0200, 98.55267
995.5021, 97.96513
995.9842, 97.68009
996.4663, 98.24926
996.9484, 99.19762
997.4305, 99.81656
997.9127, 100.0594
998.3948, 99.85216
998.8769, 98.45226
999.3590, 97.57525
999.8411, 98.00176
1000.323, 98.90895
1000.805, 100.0526
1001.287, 101.0594
1001.770, 101.1744
1002.252, 100.1869
1002.734, 99.28486
1003.216, 98.92126
1003.698, 98.83448
1004.180, 99.15981
1004.662, 99.47105
1005.144, 99.30184
1005.627, 98.70701
1006.109, 97.83139
1006.591, 96.68940
1007.073, 96.04399
1007.555, 96.90785
1008.037, 98.05220
1008.519, 98.32932
1009.001, 98.05392
1009.483, 97.69158
1009.966, 97.33243
1010.448, 96.97649
1010.930, 96.63491
1011.412, 96.11176
1011.894, 94.89597
1012.376, 93.59248
1012.858, 93.20735
1013.340, 93.49586
1013.823, 93.84993
1014.305, 94.13694
1014.787, 94.39266
1015.269, 94.62977
1015.751, 94.93609
1016.233, 95.73544
1016.715, 96.61122
1017.197, 96.06209
1017.679, 94.42641
1018.162, 93.38879
1018.644, 93.30626
1019.126, 93.70912
1019.608, 94.34379
1020.090, 94.84450
1020.572, 94.39675
1021.054, 93.17868
1021.536, 92.48824
1022.018, 92.31775
1022.501, 92.16094
1022.983, 91.89683
1023.465, 91.49207
1023.947, 90.86154
1024.429, 90.29581
1024.911, 90.61285
1025.393, 91.84946
1025.875, 92.04433
1026.358, 91.05399
1026.840, 90.18022
1027.322, 89.73466
1027.804, 89.61390
1028.286, 89.79784
1028.768, 90.14514
1029.250, 90.30177
1029.732, 90.25056
1030.214, 90.09982
1030.697, 89.74874
1031.179, 89.68023
1031.661, 90.13046
1032.143, 90.67531
1032.625, 91.13051
1033.107, 91.29648
1033.589, 90.44083
1034.071, 88.01461
1034.553, 87.15092
1035.036, 88.78574
1035.518, 89.91653
1036.000, 89.50143
1036.482, 88.76966
1036.964, 88.72653
1037.446, 89.08862
1037.928, 88.96994
1038.410, 88.06413
1038.893, 87.77110
1039.375, 88.60101
1039.857, 89.23486
1040.339, 89.36926
1040.821, 89.19934
1041.303, 88.63248
1041.785, 87.90722
1042.267, 87.74919
1042.750, 88.35269
1043.232, 88.86878
1043.714, 89.51325
1044.196, 89.76284
1044.678, 89.13545
1045.160, 88.40816
1045.642, 88.14805
1046.124, 88.22303
1046.606, 88.32699
1047.089, 88.50133
1047.571, 88.43986
1048.053, 87.92410
1048.535, 87.42090
1049.017, 86.97252
1049.499, 86.65777
1049.981, 86.57271
1050.463, 86.65505
1050.945, 86.76329
1051.428, 86.87166
1051.910, 87.07640
1052.392, 87.56582
1052.874, 87.92709
1053.356, 88.18502
1053.838, 88.12314
1054.320, 87.46178
1054.802, 86.39739
1055.285, 85.06199
1055.767, 83.36992
1056.249, 82.90765
1056.731, 85.73026
1057.213, 87.67677
1057.695, 86.27753
1058.177, 84.33025
1058.659, 84.13686
1059.141, 84.95814
1059.624, 85.03749
1060.106, 84.07368
1060.588, 83.50746
1061.070, 84.27139
1061.552, 84.88213
1062.034, 84.50029
1062.516, 83.98723
1062.998, 84.21452
1063.480, 84.70932
1063.963, 84.45962
1064.445, 83.35721
1064.927, 82.57017
1065.409, 82.80889
1065.891, 83.05893
1066.373, 82.77188
1066.855, 82.47384
1067.337, 82.51093
1067.820, 82.84358
1068.302, 83.66972
1068.784, 84.83607
1069.266, 85.04516
1069.748, 83.01106
1070.230, 81.32976
1070.712, 81.51383
1071.194, 82.10013
1071.677, 82.08839
1072.159, 81.70431
1072.641, 81.24728
1073.123, 80.83976
1073.605, 80.81136
1074.087, 81.56639
1074.569, 82.02809
1075.051, 81.18679
1075.533, 80.41118
1076.016, 80.93019
1076.498, 81.95039
1076.980, 82.44453
1077.462, 82.35423
1077.944, 82.06477
1078.426, 81.60152
1078.908, 81.32676
1079.390, 81.70082
1079.873, 81.99113
1080.355, 81.48491
1080.837, 80.79092
1081.319, 80.67625
1081.801, 81.04490
1082.283, 81.36021
1082.765, 81.47654
1083.247, 81.46701
1083.729, 81.22211
1084.212, 81.03123
1084.694, 81.40014
1085.176, 81.63371
1085.658, 80.53169
1086.140, 78.80865
1086.622, 78.47495
1087.104, 80.07896
1087.586, 81.18886
1088.068, 80.25396
1088.551, 79.25317
1089.033, 79.10593
1089.515, 79.37470
1089.997, 79.84300
1090.479, 80.35481
1090.961, 80.80075
1091.443, 81.13647
1091.925, 81.00713
1092.408, 79.47993
1092.890, 78.55714
1093.372, 79.80271
1093.854, 81.15688
1094.336, 80.89429
1094.818, 79.89034
1095.300, 79.62809
1095.782, 80.17728
1096.265, 80.45767
1096.747, 80.07256
1097.229, 79.54595
1097.711, 78.78426
1098.193, 78.23389
1098.675, 78.37577
1099.157, 78.71843
1099.639, 78.47021
1100.121, 77.84940
1100.604, 78.07369
1101.086, 79.84315
1101.568, 81.06880
1102.050, 81.00184
1102.532, 80.53606
1103.014, 79.73058
1103.496, 78.98194
1103.978, 78.60517
1104.460, 78.56632
1104.943, 78.74144
1105.425, 79.14689
1105.907, 79.56802
1106.389, 80.15252
1106.871, 80.49306
1107.353, 80.19901
1107.835, 79.89693
1108.317, 80.09063
1108.800, 80.53821
1109.282, 80.82795
1109.764, 80.93025
1110.246, 80.90128
1110.728, 80.59438
1111.210, 80.38772
1111.692, 80.62847
1112.174, 80.63737
1112.656, 79.68285
1113.139, 78.58479
1113.621, 78.57117
1114.103, 79.50097
1114.585, 79.70442
1115.067, 78.21910
1115.549, 77.73853
1116.031, 79.38696
1116.513, 80.42641
1116.995, 79.45379
1117.478, 78.13056
1117.960, 77.93075
1118.442, 78.52382
1118.924, 78.80765
1119.406, 78.55785
1119.888, 78.95994
1120.370, 80.74956
1120.852, 81.61500
1121.335, 80.70714
1121.817, 79.35964
1122.299, 78.15001
1122.781, 77.37942
1123.263, 77.77364
1123.745, 79.37121
1124.227, 80.00746
1124.709, 79.29984
1125.192, 79.07378
1125.674, 79.84097
1126.156, 80.11241
1126.638, 78.93911
1127.120, 77.65738
1127.602, 78.00261
1128.084, 79.50412
1128.566, 79.71095
1129.048, 78.41680
1129.531, 77.71396
1130.013, 77.75602
1130.495, 77.98202
1130.977, 78.25950
1131.459, 78.38164
1131.941, 78.15295
1132.423, 77.74335
1132.905, 77.56905
1133.387, 77.59943
1133.870, 77.20653
1134.352, 76.42068
1134.834, 76.18958
1135.316, 76.68966
1135.798, 77.33285
1136.280, 77.81362
1136.762, 78.05877
1137.244, 77.90060
1137.727, 77.50347
1138.209, 77.37113
1138.691, 77.44714
1139.173, 77.45407
1139.655, 77.40415
1140.137, 77.65136
1140.619, 78.27590
1141.101, 78.63597
1141.583, 78.09030
1142.066, 77.39221
1142.548, 78.12552
1143.030, 77.30340
1143.512, 78.68061
1143.994, 76.85632
1144.476, 75.97247
1144.958, 76.28437
1145.440, 76.66402
1145.922, 76.53859
1146.405, 76.40361
1146.887, 76.82359
1147.369, 77.38395
1147.851, 77.80333
1148.333, 77.93054
1148.815, 77.26587
1149.297, 76.17729
1149.779, 75.63834
1150.262, 75.89172
1150.744, 76.30620
1151.226, 76.61464
1151.708, 76.83217
1152.190, 77.11155
1152.672, 77.15999
1153.154, 76.45444
1153.636, 75.51890
1154.119, 75.08492
1154.601, 75.18339
1155.083, 75.47178
1155.565, 75.92238
1156.047, 76.31925
1156.529, 76.64502
1157.011, 76.83386
1157.493, 76.84399
1157.975, 76.71699
1158.458, 76.36901
1158.940, 75.95093
1159.422, 75.73466
1159.904, 75.74284
1160.386, 75.96545
1160.868, 76.69369
1161.350, 77.18499
1161.832, 77.06914
1162.314, 77.09658
1162.797, 77.98182
1163.279, 78.74128
1163.761, 78.06889
1164.243, 76.38594
1164.725, 75.72957
1165.207, 76.46275
1165.689, 76.95818
1166.171, 77.18835
1166.654, 77.23531
1167.136, 77.03999
1167.618, 76.91729
1168.100, 77.11771
1168.582, 77.41301
1169.064, 77.41575
1169.546, 77.14968
1170.028, 76.76779
1170.510, 76.26112
1170.993, 76.09544
1171.475, 76.32751
1171.957, 76.19450
1172.439, 75.38908
1172.921, 74.72063
1173.403, 74.94922
1173.885, 75.67618
1174.367, 76.33184
1174.849, 76.77467
1175.332, 76.18485
1175.814, 74.92894
1176.296, 74.52467
1176.778, 75.13192
1177.260, 76.00861
1177.742, 76.79024
1178.224, 77.10852
1178.706, 76.24570
1179.189, 75.14734
1179.671, 75.11141
1180.153, 75.58208
1180.635, 75.83763
1181.117, 75.86951
1181.599, 75.83169
1182.081, 75.76176
1182.563, 75.60381
1183.046, 75.26006
1183.528, 75.06883
1184.010, 75.31326
1184.492, 75.68288
1184.974, 76.14999
1185.456, 76.48164
1185.938, 76.31977
1186.420, 75.86797
1186.902, 75.68295
1187.385, 75.87623
1187.867, 75.83434
1188.349, 74.89455
1188.831, 74.52959
1189.313, 75.58456
1189.795, 76.58446
1190.277, 76.86506
1190.759, 76.70834
1191.241, 76.26696
1191.724, 75.63746
1192.206, 75.23616
1192.688, 75.21997
1193.170, 74.67879
1193.652, 73.25192
1194.134, 72.44622
1194.616, 72.65776
1195.098, 73.23162
1195.581, 73.86889
1196.063, 74.48238
1196.545, 74.99350
1197.027, 75.34013
1197.509, 75.13717
1197.991, 74.43517
1198.473, 74.05281
1198.955, 74.02908
1199.438, 74.24807
1199.920, 74.64015
1200.402, 74.71432
1200.884, 74.11636
1201.366, 73.33810
1201.848, 72.82355
1202.330, 72.71825
1202.812, 73.64197
1203.294, 75.02862
1203.776, 75.77909
1204.259, 75.88352
1204.741, 75.65346
1205.223, 75.23726
1205.705, 74.92220
1206.187, 74.94069
1206.669, 74.92196
1207.151, 74.25558
1207.633, 73.83751
1208.116, 74.89971
1208.598, 76.20184
1209.080, 76.27193
1209.562, 75.32291
1210.044, 74.07047
1210.526, 72.55405
1211.008, 71.95996
1211.490, 73.28319
1211.973, 74.37298
1212.455, 74.75450
1212.937, 74.92137
1213.419, 75.06048
1213.901, 75.11250
1214.383, 74.91977
1214.865, 74.63459
1215.347, 74.89222
1215.829, 75.93444
1216.312, 75.72688
1216.794, 73.95535
1217.276, 72.42445
1217.758, 71.36396
1218.240, 71.22311
1218.722, 72.32390
1219.204, 73.73640
1219.686, 74.50269
1220.168, 74.63795
1220.651, 73.73438
1221.133, 72.27800
1221.615, 72.69497
1222.097, 74.44891
1222.579, 74.77966
1223.061, 73.43798
1223.543, 72.27682
1224.025, 72.17866
1224.508, 72.75748
1224.990, 74.13221
1225.472, 75.45189
1225.954, 75.83461
1226.436, 75.70687
1226.918, 75.41755
1227.400, 75.05169
1227.882, 74.59138
1228.365, 74.10534
1228.847, 73.83329
1229.329, 73.85265
1229.811, 74.04593
1230.293, 74.80884
1230.775, 75.14415
1231.257, 74.20695
1231.739, 73.30869
1232.221, 73.54879
1232.703, 74.11501
1233.186, 73.89175
1233.668, 73.02994
1234.150, 72.52432
1234.632, 72.40708
1235.114, 72.55334
1235.596, 73.01297
1236.078, 73.48820
1236.560, 73.89894
1237.043, 74.46949
1237.525, 75.39709
1238.007, 76.08211
1238.489, 75.65365
1238.971, 74.54060
1239.453, 73.79295
1239.935, 73.39043
1240.417, 73.37112
1240.900, 73.64473
1241.382, 74.02429
1241.864, 74.39174
1242.346, 74.38597
1242.828, 73.81313
1243.310, 73.32415
1243.792, 73.51135
1244.274, 73.90382
1244.756, 74.27011
1245.239, 74.52085
1245.721, 74.40576
1246.203, 74.21713
1246.685, 74.53183
1247.167, 75.24416
1247.649, 75.52803
1248.131, 75.11114
1248.613, 74.70887
1249.095, 74.28941
1249.578, 74.07614
1250.060, 74.19933
1250.542, 74.40840
1251.024, 74.70562
1251.506, 74.79768
1251.988, 74.20930
1252.470, 74.39365
1252.952, 74.20544
1253.435, 73.95602
1253.917, 74.05555
1254.399, 73.45012
1254.881, 73.34537
1255.363, 73.92032
1255.845, 74.40937
1256.327, 74.45168
1256.809, 74.08346
1257.292, 73.16555
1257.774, 72.27442
1258.256, 72.23869
1258.738, 72.70493
1259.220, 73.39542
1259.702, 74.08273
1260.184, 74.43599
1260.666, 74.48231
1261.148, 74.42533
1261.630, 74.31911
1262.113, 74.25083
1262.595, 74.19553
1263.077, 74.26796
1263.559, 74.75481
1264.041, 75.06326
1264.523, 74.62751
1265.005, 74.15871
1265.487, 74.41525
1265.970, 75.00797
1266.452, 75.02976
1266.934, 74.47258
1267.416, 73.87875
1267.898, 73.20528
1268.380, 72.88154
1268.862, 72.97225
1269.344, 72.88782
1269.827, 72.43150
1270.309, 72.25012
1270.791, 72.82925
1271.273, 73.77505
1271.755, 74.84727
1272.237, 75.67220
1272.719, 75.23868
1273.201, 74.23562
1273.683, 73.88185
1274.166, 74.03478
1274.648, 74.12322
1275.130, 74.02906
1275.612, 73.84770
1276.094, 73.51269
1276.576, 73.54282
1277.058, 74.76550
1277.540, 75.52901
1278.022, 74.78548
1278.505, 73.82568
1278.987, 73.42166
1279.469, 73.32827
1279.951, 73.20496
1280.433, 73.15517
1280.915, 73.72987
1281.397, 75.13600
1281.879, 75.51789
1282.362, 74.76741
1282.844, 74.13382
1283.326, 73.81355
1283.808, 74.05643
1284.290, 74.95292
1284.772, 75.74525
1285.254, 75.78779
1285.736, 75.08218
##END=



