##NAMES=Heazlewoodite
##RRUFFID=R061074
##IDEAL CHEMISTRY=Ni_3_S_2_
##LOCALITY=Tasmania, Australia
##OWNER=RRUFF
##SOURCE=Michael Scott
##DESCRIPTION=Pale gray metallic massive
##STATUS=The identification of this mineral has been confirmed by single-crystal X-ray diffraction.
##URL=rruff.info/R061074
141.8140, 1723.824
142.2961, 1715.420
142.7782, 1707.753
143.2603, 1696.187
143.7425, 1696.647
144.2246, 1716.293
144.7067, 1751.656
145.1888, 1772.533
145.6709, 1771.211
146.1530, 1762.706
146.6352, 1758.406
147.1173, 1762.813
147.5994, 1764.866
148.0815, 1763.099
148.5636, 1757.324
149.0457, 1748.169
149.5279, 1724.761
150.0100, 1701.769
150.4921, 1696.387
150.9742, 1737.976
151.4563, 1768.663
151.9384, 1770.885
152.4206, 1728.527
152.9027, 1701.198
153.3848, 1701.532
153.8669, 1718.179
154.3490, 1732.037
154.8311, 1748.897
155.3133, 1755.840
155.7954, 1745.661
156.2775, 1700.809
156.7596, 1666.547
157.2417, 1656.267
157.7238, 1664.203
158.2060, 1672.790
158.6881, 1676.810
159.1702, 1680.216
159.6523, 1685.434
160.1344, 1693.667
160.6165, 1703.133
161.0986, 1715.111
161.5808, 1728.898
162.0629, 1739.268
162.5450, 1746.270
163.0271, 1748.025
163.5092, 1742.880
163.9913, 1720.558
164.4735, 1698.968
164.9556, 1688.974
165.4377, 1691.113
165.9198, 1693.444
166.4019, 1687.962
166.8840, 1678.828
167.3662, 1671.850
167.8483, 1665.762
168.3304, 1664.951
168.8125, 1675.987
169.2946, 1701.854
169.7767, 1725.536
170.2589, 1736.576
170.7410, 1736.504
171.2231, 1728.970
171.7052, 1708.804
172.1873, 1684.938
172.6694, 1666.510
173.1516, 1653.660
173.6337, 1648.902
174.1158, 1660.131
174.5979, 1683.502
175.0800, 1704.311
175.5621, 1712.827
176.0443, 1713.234
176.5264, 1711.306
177.0085, 1706.040
177.4906, 1702.094
177.9727, 1708.513
178.4548, 1724.003
178.9370, 1736.833
179.4191, 1733.184
179.9012, 1719.952
180.3833, 1713.905
180.8654, 1724.074
181.3475, 1741.053
181.8297, 1747.336
182.3118, 1742.869
182.7939, 1736.503
183.2760, 1734.282
183.7581, 1736.458
184.2402, 1744.415
184.7224, 1765.841
185.2045, 1792.309
185.6866, 1797.217
186.1687, 1778.138
186.6508, 1754.438
187.1329, 1748.316
187.6151, 1758.308
188.0972, 1771.515
188.5793, 1786.855
189.0614, 1802.096
189.5435, 1804.077
190.0257, 1789.561
190.5078, 1771.350
190.9899, 1770.399
191.4720, 1786.610
191.9541, 1801.047
192.4362, 1801.471
192.9183, 1789.646
193.4005, 1785.695
193.8826, 1792.311
194.3647, 1804.118
194.8468, 1810.709
195.3289, 1811.603
195.8110, 1811.801
196.2932, 1813.710
196.7753, 1817.293
197.2574, 1823.025
197.7395, 1831.685
198.2216, 1841.726
198.7037, 1850.125
199.1859, 1857.249
199.6680, 1860.757
200.1501, 1858.177
200.6322, 1849.046
201.1143, 1839.888
201.5964, 1832.513
202.0786, 1825.554
202.5607, 1812.184
203.0428, 1790.351
203.5249, 1768.510
204.0070, 1755.913
204.4891, 1755.053
204.9713, 1746.862
205.4534, 1724.102
205.9355, 1690.180
206.4176, 1671.015
206.8997, 1670.094
207.3818, 1676.578
207.8640, 1679.691
208.3461, 1677.583
208.8282, 1679.920
209.3103, 1691.276
209.7924, 1711.306
210.2745, 1721.336
210.7567, 1717.362
211.2388, 1709.559
211.7209, 1682.462
212.2030, 1722.887
212.6851, 1749.393
213.1672, 1762.728
213.6494, 1723.445
214.1315, 1752.108
214.6136, 1753.541
215.0957, 1753.856
215.5778, 1792.083
216.0599, 1760.452
216.5421, 1798.078
217.0242, 1808.057
217.5063, 1830.689
217.9884, 1825.923
218.4705, 1829.619
218.9526, 1860.722
219.4348, 1853.904
219.9169, 1841.985
220.3990, 1830.054
220.8811, 1829.516
221.3632, 1845.343
221.8453, 1853.785
222.3274, 1853.116
222.8096, 1846.182
223.2917, 1838.406
223.7738, 1830.082
224.2559, 1820.495
224.7380, 1809.465
225.2201, 1796.971
225.7023, 1782.558
226.1844, 1764.879
226.6665, 1745.658
227.1486, 1727.858
227.6307, 1708.340
228.1128, 1695.249
228.5950, 1694.176
229.0771, 1714.589
229.5592, 1724.038
230.0413, 1716.788
230.5234, 1699.085
231.0055, 1689.669
231.4877, 1692.313
231.9698, 1698.098
232.4519, 1703.245
232.9340, 1709.494
233.4161, 1710.921
233.8982, 1704.014
234.3804, 1692.039
234.8625, 1689.686
235.3446, 1706.256
235.8267, 1720.256
236.3088, 1718.530
236.7909, 1691.074
237.2731, 1668.479
237.7552, 1651.133
238.2373, 1639.828
238.7194, 1640.060
239.2015, 1661.045
239.6836, 1681.925
240.1658, 1688.228
240.6479, 1669.101
241.1300, 1657.671
241.6121, 1658.826
242.0942, 1670.651
242.5763, 1680.392
243.0585, 1685.669
243.5406, 1691.609
244.0227, 1703.829
244.5048, 1733.380
244.9869, 1745.201
245.4690, 1727.661
245.9512, 1685.679
246.4333, 1662.218
246.9154, 1665.804
247.3975, 1677.730
247.8796, 1685.112
248.3617, 1685.949
248.8439, 1686.622
249.3260, 1688.722
249.8081, 1691.804
250.2902, 1689.873
250.7723, 1677.037
251.2544, 1666.322
251.7366, 1669.583
252.2187, 1696.713
252.7008, 1716.035
253.1829, 1721.629
253.6650, 1714.475
254.1471, 1707.743
254.6292, 1700.326
255.1114, 1694.546
255.5935, 1693.442
256.0756, 1701.308
256.5577, 1703.212
257.0398, 1693.826
257.5219, 1674.664
258.0041, 1666.221
258.4862, 1672.373
258.9683, 1683.934
259.4504, 1694.514
259.9325, 1705.959
260.4146, 1711.251
260.8968, 1707.292
261.3789, 1695.135
261.8610, 1687.508
262.3431, 1686.110
262.8252, 1686.781
263.3073, 1685.369
263.7895, 1679.957
264.2716, 1678.118
264.7537, 1681.539
265.2358, 1689.861
265.7179, 1700.419
266.2000, 1715.608
266.6822, 1728.900
267.1643, 1733.374
267.6464, 1725.769
268.1285, 1720.904
268.6106, 1722.452
269.0927, 1729.436
269.5749, 1734.863
270.0570, 1739.759
270.5391, 1740.797
271.0212, 1731.661
271.5033, 1707.930
271.9854, 1695.244
272.4676, 1702.240
272.9497, 1725.029
273.4318, 1737.328
273.9139, 1736.856
274.3960, 1731.896
274.8781, 1728.821
275.3603, 1727.496
275.8424, 1729.550
276.3245, 1737.727
276.8066, 1749.504
277.2887, 1749.923
277.7708, 1736.188
278.2530, 1720.818
278.7351, 1716.547
279.2172, 1724.436
279.6993, 1727.653
280.1814, 1720.675
280.6635, 1707.462
281.1457, 1703.852
281.6278, 1711.377
282.1099, 1720.891
282.5920, 1721.548
283.0741, 1713.395
283.5562, 1716.833
284.0384, 1742.046
284.5205, 1778.267
285.0026, 1786.992
285.4847, 1765.569
285.9668, 1741.487
286.4489, 1737.343
286.9311, 1751.666
287.4132, 1769.781
287.8953, 1791.003
288.3774, 1812.574
288.8595, 1825.109
289.3416, 1828.348
289.8238, 1833.021
290.3059, 1854.466
290.7880, 1887.296
291.2701, 1901.035
291.7522, 1882.384
292.2343, 1851.386
292.7165, 1848.368
293.1986, 1872.259
293.6807, 1900.090
294.1628, 1914.439
294.6449, 1919.215
295.1270, 1926.232
295.6092, 1938.229
296.0913, 1952.181
296.5734, 1963.754
297.0555, 1973.125
297.5376, 1982.054
298.0197, 1989.436
298.5019, 1997.442
298.9839, 2012.798
299.4661, 2040.372
299.9482, 2067.324
300.4303, 2074.764
300.9124, 2066.345
301.3945, 2058.752
301.8766, 2066.829
302.3588, 2081.010
302.8409, 2085.938
303.3230, 2077.750
303.8051, 2064.959
304.2872, 2055.938
304.7693, 2049.288
305.2515, 2040.276
305.7336, 2021.370
306.2157, 2000.895
306.6978, 1989.514
307.1799, 1990.317
307.6620, 1993.598
308.1442, 1993.257
308.6263, 1989.724
309.1084, 1983.858
309.5905, 1973.509
310.0726, 1962.645
310.5547, 1953.206
311.0369, 1944.699
311.5190, 1941.837
312.0011, 1952.341
312.4832, 1969.964
312.9653, 1983.857
313.4474, 1986.651
313.9296, 1986.584
314.4117, 1988.206
314.8938, 1991.965
315.3759, 1996.637
315.8580, 2002.694
316.3401, 2009.055
316.8223, 2014.177
317.3044, 2015.763
317.7865, 2017.569
318.2686, 2019.575
318.7507, 2021.456
319.2328, 2029.563
319.7150, 2054.985
320.1971, 2083.904
320.6792, 2102.650
321.1613, 2101.934
321.6434, 2096.453
322.1255, 2088.012
322.6077, 2076.768
323.0898, 2068.706
323.5719, 2065.728
324.0540, 2065.862
324.5361, 2067.622
325.0182, 2075.067
325.5004, 2079.488
325.9825, 2079.396
326.4646, 2074.897
326.9467, 2068.110
327.4288, 2053.328
327.9109, 2040.109
328.3931, 2034.367
328.8752, 2047.232
329.3573, 2052.464
329.8394, 2045.037
330.3215, 2027.827
330.8036, 2015.208
331.2858, 2009.338
331.7679, 2005.885
332.2500, 2003.024
332.7321, 2002.195
333.2142, 1998.682
333.6964, 1989.180
334.1785, 1977.608
334.6606, 1975.985
335.1427, 1988.404
335.6248, 2003.147
336.1069, 2014.415
336.5891, 2020.481
337.0712, 2029.475
337.5533, 2041.258
338.0354, 2056.083
338.5175, 2075.292
338.9996, 2100.574
339.4818, 2124.299
339.9639, 2142.454
340.4460, 2154.924
340.9281, 2168.457
341.4102, 2182.791
341.8923, 2198.808
342.3745, 2217.958
342.8566, 2240.129
343.3387, 2265.047
343.8208, 2295.638
344.3029, 2329.623
344.7850, 2350.838
345.2672, 2357.553
345.7493, 2360.507
346.2314, 2370.402
346.7135, 2386.525
347.1956, 2404.197
347.6777, 2424.186
348.1599, 2443.528
348.6420, 2455.377
349.1241, 2459.638
349.6062, 2458.479
350.0883, 2456.447
350.5704, 2450.359
351.0526, 2432.219
351.5347, 2398.051
352.0168, 2353.412
352.4989, 2298.088
352.9810, 2235.859
353.4631, 2181.954
353.9453, 2156.074
354.4274, 2142.052
354.9095, 2117.153
355.3916, 2071.696
355.8737, 2026.990
356.3558, 1998.913
356.8380, 1984.919
357.3201, 1976.896
357.8022, 1974.674
358.2843, 1974.388
358.7664, 1974.776
359.2485, 1977.594
359.7307, 1973.175
360.2128, 1948.100
360.6949, 1913.802
361.1770, 1888.850
361.6591, 1883.753
362.1412, 1885.722
362.6233, 1890.858
363.1054, 1899.446
363.5876, 1905.618
364.0697, 1910.074
364.5518, 1910.362
365.0339, 1904.015
365.5160, 1876.539
365.9981, 1856.760
366.4803, 1857.245
366.9624, 1877.952
367.4445, 1886.868
367.9266, 1865.415
368.4087, 1841.883
368.8908, 1835.265
369.3730, 1840.923
369.8551, 1871.871
370.3372, 1888.900
370.8193, 1892.758
371.3014, 1843.996
371.7835, 1863.182
372.2657, 1855.137
372.7478, 1845.976
373.2299, 1874.725
373.7120, 1833.617
374.1941, 1861.765
374.6762, 1862.267
375.1584, 1875.422
375.6405, 1861.178
376.1226, 1855.397
376.6047, 1877.023
377.0868, 1883.474
377.5689, 1866.076
378.0511, 1880.036
378.5332, 1837.970
379.0153, 1845.067
379.4974, 1873.375
379.9795, 1857.356
380.4616, 1871.816
380.9438, 1858.753
381.4259, 1857.262
381.9080, 1840.481
382.3901, 1824.699
382.8722, 1829.376
383.3543, 1849.002
383.8365, 1861.910
384.3186, 1860.274
384.8007, 1851.996
385.2828, 1847.417
385.7649, 1846.513
386.2470, 1848.853
386.7292, 1856.206
387.2113, 1866.048
387.6934, 1875.470
388.1755, 1885.347
388.6576, 1891.287
389.1397, 1886.313
389.6219, 1874.372
390.1040, 1864.327
390.5861, 1861.046
391.0682, 1861.156
391.5503, 1864.198
392.0324, 1871.368
392.5146, 1873.127
392.9967, 1856.992
393.4788, 1835.183
393.9609, 1822.847
394.4430, 1832.746
394.9251, 1844.902
395.4073, 1852.139
395.8894, 1854.250
396.3715, 1856.902
396.8536, 1864.443
397.3357, 1871.006
397.8178, 1872.522
398.3000, 1864.477
398.7821, 1856.277
399.2642, 1848.180
399.7463, 1840.383
400.2284, 1833.326
400.7105, 1823.265
401.1927, 1818.187
401.6748, 1823.119
402.1569, 1846.139
402.6390, 1858.262
403.1211, 1854.576
403.6032, 1843.531
404.0854, 1840.469
404.5675, 1847.776
405.0496, 1856.241
405.5317, 1863.327
406.0138, 1869.052
406.4959, 1872.436
406.9781, 1873.339
407.4602, 1872.272
407.9423, 1870.494
408.4244, 1867.905
408.9065, 1860.200
409.3886, 1842.323
409.8708, 1821.437
410.3529, 1818.447
410.8350, 1832.879
411.3171, 1849.408
411.7992, 1855.358
412.2813, 1854.611
412.7635, 1856.964
413.2456, 1864.951
413.7277, 1873.660
414.2098, 1879.602
414.6919, 1882.117
415.1740, 1879.402
415.6562, 1863.358
416.1383, 1845.708
416.6204, 1839.962
417.1025, 1848.308
417.5846, 1856.197
418.0667, 1852.623
418.5489, 1844.074
419.0310, 1838.684
419.5131, 1840.558
419.9952, 1844.767
420.4773, 1850.402
420.9594, 1857.053
421.4416, 1862.459
421.9237, 1866.526
422.4058, 1868.628
422.8879, 1868.248
423.3700, 1860.235
423.8521, 1856.310
424.3342, 1860.819
424.8163, 1869.950
425.2985, 1874.492
425.7806, 1868.631
426.2627, 1865.105
426.7448, 1868.911
427.2269, 1882.343
427.7090, 1893.023
428.1912, 1901.516
428.6733, 1906.764
429.1554, 1906.466
429.6375, 1899.188
430.1196, 1892.288
430.6017, 1887.149
431.0839, 1883.773
431.5660, 1882.440
432.0481, 1883.552
432.5302, 1884.633
433.0123, 1884.629
433.4944, 1883.304
433.9766, 1876.748
434.4587, 1861.320
434.9408, 1847.326
435.4229, 1856.646
435.9050, 1884.679
436.3871, 1906.982
436.8693, 1904.110
437.3514, 1889.338
437.8335, 1882.873
438.3156, 1886.176
438.7977, 1891.021
439.2798, 1890.227
439.7620, 1886.818
440.2441, 1885.233
440.7262, 1885.780
441.2083, 1889.775
441.6904, 1902.375
442.1725, 1920.964
442.6547, 1932.136
443.1368, 1923.837
443.6189, 1910.505
444.1010, 1901.473
444.5831, 1901.535
445.0652, 1900.098
445.5474, 1892.043
446.0295, 1881.783
446.5116, 1877.375
446.9937, 1883.770
447.4758, 1891.643
447.9579, 1900.219
448.4401, 1910.189
448.9222, 1913.675
449.4043, 1905.045
449.8864, 1896.360
450.3685, 1900.668
450.8506, 1925.759
451.3328, 1937.622
451.8149, 1926.592
452.2970, 1901.406
452.7791, 1892.917
453.2612, 1902.972
453.7433, 1916.290
454.2255, 1923.196
454.7076, 1924.792
455.1897, 1931.089
455.6718, 1944.056
456.1539, 1955.661
456.6360, 1952.923
457.1182, 1939.514
457.6003, 1928.997
458.0824, 1927.167
458.5645, 1931.068
459.0466, 1940.146
459.5287, 1953.553
460.0109, 1962.127
460.4930, 1954.211
460.9751, 1940.581
461.4572, 1933.356
461.9393, 1938.189
462.4214, 1943.645
462.9036, 1944.960
463.3857, 1942.653
463.8678, 1937.830
464.3499, 1921.438
464.8320, 1910.856
465.3141, 1915.998
465.7963, 1940.599
466.2784, 1960.321
466.7605, 1969.490
467.2426, 1974.111
467.7247, 1979.274
468.2068, 1988.423
468.6890, 1992.640
469.1711, 1988.783
469.6532, 1979.462
470.1353, 1976.009
470.6174, 1982.957
471.0995, 1985.744
471.5817, 1973.113
472.0638, 1941.883
472.5459, 1927.328
473.0280, 1931.787
473.5101, 1946.483
473.9922, 1965.405
474.4744, 1987.426
474.9565, 1997.491
475.4386, 1985.249
475.9207, 1961.948
476.4028, 1949.403
476.8849, 1947.265
477.3671, 1950.625
477.8492, 1962.250
478.3313, 1975.157
478.8134, 1977.019
479.2955, 1961.855
479.7776, 1948.192
480.2598, 1952.897
480.7419, 1968.421
481.2240, 1981.595
481.7061, 1989.343
482.1882, 1991.532
482.6703, 1986.761
483.1525, 1975.079
483.6346, 1962.512
484.1167, 1944.065
484.5988, 1929.555
485.0809, 1925.342
485.5630, 1949.133
486.0451, 1961.007
486.5273, 1951.855
487.0094, 1932.470
487.4915, 1928.498
487.9736, 1951.317
488.4557, 1968.409
488.9378, 1966.914
489.4200, 1946.073
489.9021, 1933.308
490.3842, 1929.902
490.8663, 1930.623
491.3484, 1930.231
491.8305, 1928.840
492.3127, 1930.061
492.7948, 1934.982
493.2769, 1942.113
493.7590, 1951.251
494.2411, 1961.483
494.7232, 1966.834
495.2054, 1959.132
495.6875, 1946.446
496.1696, 1939.782
496.6517, 1939.918
497.1338, 1944.766
497.6159, 1958.758
498.0981, 1974.622
498.5802, 1983.621
499.0623, 1977.342
499.5444, 1969.475
500.0265, 1965.610
500.5086, 1964.706
500.9908, 1963.292
501.4729, 1957.516
501.9550, 1953.580
502.4371, 1955.286
502.9192, 1966.728
503.4013, 1971.383
503.8835, 1963.701
504.3656, 1953.168
504.8477, 1950.203
505.3298, 1958.383
505.8119, 1964.511
506.2940, 1964.591
506.7762, 1961.454
507.2583, 1968.594
507.7404, 1988.546
508.2225, 2004.248
508.7046, 2002.767
509.1867, 1987.298
509.6689, 1977.634
510.1510, 1975.091
510.6331, 1975.696
511.1152, 1975.240
511.5973, 1974.415
512.0795, 1975.275
512.5616, 1981.346
513.0437, 1986.332
513.5258, 1983.026
514.0079, 1972.937
514.4901, 1962.252
514.9722, 1948.131
515.4542, 1938.680
515.9363, 1942.236
516.4185, 1964.399
516.9006, 1981.166
517.3827, 1979.496
517.8648, 1971.800
518.3469, 1971.721
518.8290, 1993.564
519.3112, 2008.098
519.7933, 2009.989
520.2754, 2001.381
520.7575, 1991.908
521.2396, 1979.800
521.7217, 1970.030
522.2039, 1964.475
522.6860, 1962.979
523.1681, 1968.820
523.6502, 1984.672
524.1323, 2000.605
524.6144, 2002.412
525.0966, 1991.772
525.5787, 1982.419
526.0608, 1976.853
526.5429, 1976.015
527.0250, 1984.246
527.5071, 1999.838
527.9893, 2013.946
528.4714, 2025.656
528.9535, 2030.996
529.4356, 2021.636
529.9177, 1994.531
530.3998, 1974.206
530.8820, 1982.930
531.3641, 2001.349
531.8462, 2009.267
532.3283, 1987.178
532.8104, 1970.107
533.2925, 1970.254
533.7747, 1982.407
534.2568, 1986.271
534.7389, 1972.666
535.2210, 1960.892
535.7031, 1958.524
536.1852, 1967.265
536.6674, 1972.011
537.1495, 1971.178
537.6316, 1969.019
538.1137, 1967.483
538.5958, 1966.165
539.0779, 1977.091
539.5601, 2008.459
540.0422, 2043.294
540.5243, 2043.559
541.0064, 2014.302
541.4885, 1989.241
541.9706, 1991.609
542.4528, 2006.479
542.9349, 2013.062
543.4170, 2010.761
543.8991, 2007.243
544.3812, 2006.897
544.8633, 2008.182
545.3455, 2009.468
545.8276, 2009.609
546.3097, 2010.923
546.7918, 2017.461
547.2739, 2025.231
547.7560, 2026.813
548.2382, 2007.981
548.7203, 1997.083
549.2024, 2005.839
549.6845, 2033.705
550.1666, 2045.069
550.6487, 2032.667
551.1309, 2015.553
551.6130, 2005.264
552.0951, 2002.266
552.5772, 2003.453
553.0593, 2010.072
553.5414, 2017.658
554.0236, 2018.838
554.5057, 2014.490
554.9878, 2010.805
555.4699, 2009.745
555.9520, 2010.824
556.4341, 2014.640
556.9163, 2020.552
557.3984, 2025.141
557.8805, 2024.317
558.3626, 2022.363
558.8447, 2023.889
559.3268, 2030.257
559.8090, 2035.019
560.2911, 2034.451
560.7732, 2031.433
561.2553, 2028.929
561.7374, 2028.999
562.2195, 2027.610
562.7017, 2021.607
563.1838, 2013.841
563.6659, 2013.444
564.1480, 2025.982
564.6301, 2035.175
565.1122, 2032.990
565.5944, 2019.517
566.0765, 2014.278
566.5586, 2018.382
567.0407, 2025.965
567.5228, 2032.781
568.0049, 2038.848
568.4871, 2044.525
568.9692, 2050.603
569.4513, 2054.412
569.9334, 2050.932
570.4155, 2042.626
570.8976, 2035.551
571.3798, 2035.115
571.8619, 2034.729
572.3440, 2026.613
572.8261, 2012.561
573.3082, 2006.076
573.7903, 2021.651
574.2725, 2039.140
574.7546, 2045.795
575.2367, 2033.560
575.7188, 2028.240
576.2009, 2035.592
576.6830, 2046.433
577.1652, 2050.723
577.6473, 2046.441
578.1294, 2040.948
578.6115, 2034.357
579.0936, 2028.084
579.5757, 2026.592
580.0579, 2030.090
580.5400, 2034.498
581.0221, 2038.570
581.5042, 2041.859
581.9863, 2043.055
582.4684, 2042.116
582.9506, 2040.048
583.4327, 2037.590
583.9148, 2034.502
584.3969, 2030.075
584.8790, 2023.005
585.3611, 2017.520
585.8433, 2013.266
586.3254, 2012.634
586.8075, 2019.139
587.2896, 2044.398
587.7717, 2065.310
588.2538, 2075.735
588.7360, 2076.932
589.2181, 2075.291
589.7002, 2069.258
590.1823, 2062.817
590.6644, 2057.820
591.1465, 2054.312
591.6287, 2049.934
592.1108, 2043.478
592.5929, 2040.033
593.0750, 2049.498
593.5571, 2068.405
594.0392, 2077.219
594.5214, 2069.497
595.0035, 2056.281
595.4856, 2048.102
595.9677, 2044.832
596.4498, 2021.195
596.9319, 2054.217
597.4141, 2073.320
597.8962, 2079.252
598.3783, 2032.565
598.8604, 2053.824
599.3425, 2047.854
599.8246, 2040.766
600.3068, 2071.590
600.7889, 2032.556
601.2710, 2062.777
601.7531, 2065.353
602.2352, 2080.582
602.7173, 2068.412
603.1995, 2064.706
603.6816, 2088.405
604.1637, 2096.930
604.6458, 2081.606
605.1279, 2097.639
605.6100, 2057.648
606.0922, 2066.819
606.5743, 2064.273
607.0564, 2052.719
607.5385, 2043.002
608.0206, 2035.654
608.5027, 2035.055
608.9849, 2053.495
609.4670, 2074.211
609.9491, 2081.183
610.4312, 2067.875
610.9133, 2055.904
611.3954, 2052.847
611.8776, 2053.279
612.3597, 2051.216
612.8418, 2041.612
613.3239, 2037.305
613.8060, 2040.920
614.2881, 2049.987
614.7703, 2059.364
615.2524, 2070.076
615.7345, 2076.006
616.2166, 2072.743
616.6987, 2063.052
617.1808, 2056.563
617.6630, 2053.314
618.1451, 2053.999
618.6272, 2063.026
619.1093, 2074.906
619.5914, 2079.678
620.0735, 2074.662
620.5557, 2072.801
621.0378, 2090.265
621.5199, 2112.067
622.0020, 2121.807
622.4841, 2100.947
622.9662, 2084.344
623.4484, 2081.490
623.9305, 2086.694
624.4126, 2086.461
624.8947, 2076.605
625.3768, 2068.479
625.8589, 2065.246
626.3411, 2066.364
626.8232, 2067.968
627.3053, 2070.021
627.7874, 2073.011
628.2695, 2078.764
628.7516, 2085.934
629.2338, 2090.320
629.7159, 2091.821
630.1980, 2089.238
630.6801, 2077.286
631.1622, 2062.089
631.6443, 2052.112
632.1265, 2050.811
632.6086, 2052.981
633.0907, 2059.197
633.5728, 2066.809
634.0549, 2071.251
634.5370, 2072.170
635.0192, 2068.943
635.5013, 2059.949
635.9834, 2046.239
636.4655, 2033.644
636.9476, 2020.771
637.4297, 2012.123
637.9119, 2011.239
638.3939, 2017.322
638.8760, 2019.192
639.3582, 2016.172
639.8403, 2015.115
640.3224, 2026.910
640.8045, 2044.314
641.2866, 2051.211
641.7687, 2041.775
642.2509, 2032.862
642.7330, 2040.866
643.2151, 2056.232
643.6972, 2065.757
644.1793, 2056.200
644.6614, 2050.614
645.1436, 2060.345
645.6257, 2078.937
646.1078, 2085.449
646.5899, 2071.774
647.0720, 2059.040
647.5541, 2054.309
648.0363, 2056.724
648.5184, 2055.624
649.0005, 2050.088
649.4826, 2046.761
649.9647, 2052.432
650.4468, 2064.184
650.9290, 2071.194
651.4111, 2072.333
651.8932, 2074.718
652.3753, 2092.466
652.8574, 2112.238
653.3395, 2115.651
653.8217, 2088.437
654.3038, 2062.433
654.7859, 2048.556
655.2680, 2044.366
655.7501, 2046.370
656.2322, 2056.919
656.7144, 2070.990
657.1965, 2093.782
657.6786, 2119.150
658.1607, 2121.263
658.6428, 2093.963
659.1249, 2066.681
659.6071, 2051.620
660.0892, 2047.310
660.5713, 2048.323
661.0534, 2054.593
661.5355, 2063.105
662.0176, 2073.563
662.4998, 2083.983
662.9819, 2091.613
663.4640, 2095.938
663.9461, 2098.477
664.4282, 2097.152
664.9103, 2095.878
665.3925, 2098.397
665.8746, 2118.761
666.3567, 2124.708
666.8388, 2103.784
667.3209, 2072.780
667.8030, 2061.025
668.2852, 2076.416
668.7673, 2084.604
669.2494, 2073.355
669.7315, 2053.058
670.2136, 2055.794
670.6957, 2080.043
671.1779, 2102.948
671.6600, 2107.881
672.1421, 2105.927
672.6242, 2115.644
673.1063, 2135.501
673.5884, 2147.551
674.0706, 2133.456
674.5527, 2113.802
675.0348, 2103.905
675.5169, 2109.150
675.9990, 2110.744
676.4811, 2102.303
676.9633, 2092.187
677.4454, 2085.935
677.9275, 2083.371
678.4096, 2085.940
678.8917, 2095.383
679.3738, 2107.235
679.8560, 2115.559
680.3381, 2120.377
680.8202, 2121.922
681.3023, 2119.823
681.7844, 2115.123
682.2665, 2104.892
682.7487, 2092.712
683.2308, 2088.880
683.7129, 2109.682
684.1950, 2129.424
684.6771, 2130.860
685.1592, 2116.086
685.6414, 2108.034
686.1235, 2120.354
686.6056, 2130.113
687.0877, 2126.716
687.5698, 2108.241
688.0519, 2102.103
688.5341, 2110.750
689.0162, 2124.483
689.4983, 2139.200
689.9804, 2153.270
690.4625, 2155.325
690.9446, 2142.879
691.4268, 2128.775
691.9089, 2125.440
692.3910, 2128.709
692.8731, 2132.713
693.3552, 2136.984
693.8373, 2139.607
694.3195, 2138.057
694.8016, 2134.669
695.2837, 2133.299
695.7658, 2135.074
696.2479, 2138.272
696.7300, 2144.556
697.2122, 2151.550
697.6943, 2151.279
698.1764, 2142.415
698.6585, 2133.351
699.1406, 2125.940
699.6227, 2121.394
700.1049, 2125.873
700.5870, 2138.218
701.0691, 2148.402
701.5512, 2146.218
702.0333, 2141.039
702.5154, 2142.719
702.9976, 2152.117
703.4797, 2161.418
703.9618, 2171.926
704.4439, 2178.339
704.9260, 2175.872
705.4081, 2159.452
705.8903, 2148.461
706.3724, 2123.417
706.8545, 2155.415
707.3366, 2173.495
707.8187, 2178.404
708.3008, 2130.693
708.7830, 2150.930
709.2651, 2143.936
709.7472, 2135.826
710.2293, 2165.626
710.7114, 2125.569
711.1935, 2154.767
711.6757, 2156.320
712.1578, 2170.526
712.6399, 2157.333
713.1220, 2152.603
713.6041, 2175.280
714.0862, 2182.782
714.5684, 2166.435
715.0505, 2181.445
715.5326, 2140.431
716.0147, 2148.579
716.4968, 2146.817
716.9789, 2146.977
717.4611, 2148.152
717.9432, 2147.317
718.4253, 2144.604
718.9074, 2142.691
719.3895, 2142.977
719.8716, 2145.356
720.3538, 2151.634
720.8359, 2162.055
721.3180, 2167.987
721.8001, 2161.283
722.2822, 2151.239
722.7643, 2144.104
723.2465, 2140.132
723.7286, 2140.539
724.2107, 2148.981
724.6928, 2157.392
725.1749, 2155.667
725.6570, 2142.500
726.1392, 2139.134
726.6213, 2150.394
727.1034, 2163.984
727.5855, 2161.345
728.0676, 2148.183
728.5497, 2138.054
729.0319, 2134.497
729.5140, 2136.683
729.9961, 2148.108
730.4782, 2164.174
730.9603, 2176.406
731.4424, 2182.526
731.9246, 2184.667
732.4067, 2181.269
732.8888, 2174.521
733.3709, 2172.412
733.8530, 2176.700
734.3351, 2178.750
734.8173, 2174.671
735.2994, 2166.393
735.7815, 2159.216
736.2636, 2153.188
736.7457, 2148.638
737.2278, 2144.428
737.7100, 2142.796
738.1921, 2148.107
738.6742, 2159.865
739.1563, 2168.676
739.6384, 2170.309
740.1205, 2168.577
740.6027, 2164.708
741.0848, 2158.121
741.5669, 2153.252
742.0490, 2149.178
742.5311, 2148.475
743.0132, 2155.560
743.4954, 2169.606
743.9775, 2176.793
744.4596, 2175.974
744.9417, 2171.152
745.4238, 2162.286
745.9059, 2153.275
746.3881, 2127.848
746.8702, 2162.018
747.3523, 2182.269
747.8344, 2189.349
748.3165, 2143.810
748.7986, 2166.218
749.2808, 2161.396
749.7629, 2155.457
750.2450, 2187.428
750.7271, 2149.542
751.2092, 2180.912
751.6913, 2184.636
752.1735, 2201.014
752.6556, 2189.992
753.1377, 2187.434
753.6198, 2212.282
754.1019, 2221.955
754.5840, 2207.780
755.0662, 2175.197
755.5483, 2156.035
756.0304, 2147.231
756.5125, 2147.960
756.9946, 2155.076
757.4767, 2179.845
757.9589, 2195.904
758.4410, 2193.652
758.9231, 2178.143
759.4052, 2174.449
759.8873, 2184.104
760.3694, 2194.639
760.8516, 2201.167
761.3337, 2203.837
761.8158, 2200.965
762.2979, 2193.500
762.7800, 2187.888
763.2621, 2193.451
763.7442, 2198.187
764.2263, 2190.824
764.7084, 2170.470
765.1906, 2155.791
765.6727, 2148.669
766.1548, 2149.513
766.6369, 2161.795
767.1190, 2187.432
767.6011, 2201.250
768.0833, 2202.522
768.5654, 2195.053
769.0475, 2176.176
769.5296, 2151.312
770.0117, 2136.668
770.4938, 2133.830
770.9760, 2134.281
771.4581, 2130.246
771.9402, 2127.295
772.4223, 2131.309
772.9044, 2146.122
773.3865, 2159.706
773.8687, 2171.047
774.3508, 2180.015
774.8329, 2186.708
775.3150, 2191.546
775.7971, 2192.117
776.2792, 2188.033
776.7614, 2180.654
777.2435, 2167.247
777.7256, 2151.900
778.2077, 2147.845
778.6898, 2160.855
779.1719, 2176.274
779.6541, 2185.490
780.1362, 2150.076
780.6183, 2180.369
781.1004, 2196.744
781.5825, 2199.948
782.0646, 2150.532
782.5468, 2169.063
783.0289, 2160.364
783.5110, 2150.549
783.9931, 2178.643
784.4752, 2136.881
784.9573, 2164.374
785.4395, 2164.222
785.9216, 2176.722
786.4037, 2161.824
786.8858, 2155.389
787.3679, 2176.360
787.8500, 2182.156
788.3322, 2178.068
788.8143, 2185.363
789.2964, 2179.370
789.7785, 2172.889
790.2606, 2167.049
790.7427, 2162.450
791.2249, 2161.631
791.7070, 2165.089
792.1891, 2168.029
792.6712, 2169.361
793.1533, 2168.783
793.6354, 2163.361
794.1176, 2155.048
794.5997, 2150.606
795.0818, 2155.643
795.5639, 2163.301
796.0460, 2172.865
796.5281, 2182.542
797.0103, 2184.419
797.4924, 2168.371
797.9745, 2158.149
798.4566, 2162.405
798.9387, 2177.423
799.4208, 2185.619
799.9030, 2186.897
800.3851, 2184.538
800.8672, 2180.610
801.3493, 2173.979
801.8314, 2159.515
802.3135, 2139.617
802.7957, 2124.882
803.2778, 2118.912
803.7599, 2120.842
804.2420, 2135.033
804.7241, 2160.638
805.2062, 2174.720
805.6884, 2173.587
806.1705, 2167.445
806.6526, 2157.905
807.1347, 2146.654
807.6168, 2145.812
808.0989, 2155.021
808.5811, 2166.134
809.0632, 2176.595
809.5453, 2184.147
810.0274, 2183.690
810.5095, 2176.145
810.9916, 2171.190
811.4738, 2174.824
811.9559, 2179.934
812.4380, 2182.608
812.9201, 2182.720
813.4022, 2186.687
813.8843, 2196.215
814.3665, 2204.431
814.8486, 2207.605
815.3307, 2206.156
815.8128, 2198.331
816.2949, 2184.911
816.7770, 2178.254
817.2592, 2197.931
817.7413, 2220.352
818.2234, 2221.089
818.7055, 2197.473
819.1876, 2185.548
819.6697, 2203.282
820.1519, 2224.460
820.6340, 2239.514
821.1161, 2248.381
821.5982, 2250.353
822.0803, 2244.493
822.5624, 2238.615
823.0446, 2241.252
823.5267, 2246.992
824.0088, 2243.067
824.4909, 2229.384
824.9730, 2217.967
825.4551, 2212.027
825.9373, 2213.896
826.4194, 2229.924
826.9015, 2265.159
827.3836, 2280.573
827.8657, 2265.995
828.3478, 2248.059
828.8300, 2242.318
829.3121, 2248.012
829.7942, 2254.564
830.2763, 2262.013
830.7584, 2268.339
831.2405, 2271.344
831.7227, 2272.637
832.2048, 2274.984
832.6869, 2278.605
833.1690, 2278.062
833.6511, 2259.639
834.1332, 2247.445
834.6154, 2258.371
835.0975, 2295.866
835.5796, 2309.004
836.0617, 2292.048
836.5438, 2273.013
837.0259, 2274.693
837.5081, 2289.519
837.9902, 2297.896
838.4723, 2299.270
838.9544, 2293.883
839.4365, 2272.854
839.9186, 2252.054
840.4008, 2244.804
840.8829, 2253.506
841.3650, 2260.528
841.8471, 2266.749
842.3292, 2268.069
842.8113, 2258.168
843.2935, 2238.500
843.7756, 2240.592
844.2577, 2265.174
844.7398, 2289.248
845.2219, 2297.363
845.7040, 2295.093
846.1862, 2285.374
846.6683, 2269.381
847.1504, 2259.620
847.6325, 2269.035
848.1146, 2278.351
848.5967, 2275.567
849.0789, 2260.902
849.5610, 2261.809
850.0431, 2283.168
850.5252, 2301.116
851.0073, 2296.778
851.4894, 2279.395
851.9716, 2278.207
852.4537, 2290.837
852.9358, 2300.782
853.4179, 2294.162
853.9000, 2284.896
854.3821, 2279.485
854.8643, 2278.728
855.3464, 2288.961
855.8285, 2323.048
856.3106, 2345.562
856.7927, 2338.588
857.2748, 2309.323
857.7570, 2296.695
858.2391, 2299.856
858.7212, 2300.749
859.2033, 2281.768
859.6854, 2260.485
860.1675, 2256.414
860.6497, 2266.637
861.1318, 2277.826
861.6139, 2289.333
862.0960, 2296.590
862.5781, 2296.357
863.0602, 2290.915
863.5424, 2291.694
864.0245, 2299.974
864.5066, 2304.532
864.9887, 2299.139
865.4708, 2289.270
865.9529, 2284.104
866.4351, 2282.854
866.9172, 2282.812
867.3993, 2282.912
867.8814, 2283.854
868.3635, 2286.129
868.8456, 2289.632
869.3278, 2294.081
869.8099, 2301.153
870.2920, 2304.663
870.7741, 2301.279
871.2562, 2296.065
871.7383, 2304.308
872.2205, 2321.609
872.7026, 2327.629
873.1847, 2305.309
873.6668, 2283.621
874.1489, 2290.781
874.6310, 2312.398
875.1132, 2323.516
875.5953, 2307.366
876.0774, 2297.017
876.5595, 2298.559
877.0416, 2303.540
877.5237, 2294.468
878.0059, 2272.469
878.4880, 2265.945
878.9701, 2285.022
879.4522, 2306.621
879.9343, 2302.275
880.4164, 2285.623
880.8986, 2276.635
881.3807, 2286.635
881.8628, 2293.267
882.3449, 2284.421
882.8270, 2276.133
883.3091, 2286.661
883.7913, 2320.477
884.2734, 2340.213
884.7555, 2342.021
885.2375, 2334.927
885.7197, 2323.082
886.2018, 2311.025
886.6839, 2307.596
887.1660, 2315.603
887.6481, 2323.816
888.1302, 2326.806
888.6124, 2328.259
889.0945, 2330.084
889.5766, 2331.206
890.0587, 2339.798
890.5408, 2358.707
891.0229, 2374.555
891.5051, 2372.604
891.9872, 2359.992
892.4693, 2356.014
892.9514, 2361.208
893.4335, 2365.796
893.9156, 2364.912
894.3978, 2360.684
894.8799, 2352.457
895.3620, 2339.988
895.8441, 2335.207
896.3262, 2341.970
896.8083, 2347.613
897.2905, 2345.572
897.7726, 2338.066
898.2547, 2331.434
898.7368, 2326.074
899.2189, 2323.907
899.7010, 2328.914
900.1832, 2335.047
900.6653, 2337.797
901.1474, 2337.870
901.6295, 2339.272
902.1116, 2346.815
902.5938, 2347.398
903.0759, 2334.429
903.5580, 2315.277
904.0401, 2310.249
904.5222, 2318.144
905.0043, 2330.783
905.4865, 2349.905
905.9686, 2364.993
906.4507, 2360.758
906.9328, 2347.328
907.4149, 2342.426
907.8970, 2365.009
908.3792, 2375.895
908.8613, 2367.990
909.3434, 2350.981
909.8255, 2335.063
910.3076, 2320.754
910.7897, 2320.437
911.2719, 2339.061
911.7540, 2358.400
912.2361, 2356.060
912.7182, 2345.035
913.2003, 2341.917
913.6824, 2354.390
914.1646, 2362.671
914.6467, 2360.709
915.1288, 2357.006
915.6109, 2358.208
916.0930, 2364.727
916.5751, 2367.760
917.0573, 2367.150
917.5394, 2363.356
918.0215, 2351.162
918.5036, 2339.237
918.9857, 2339.369
919.4678, 2352.316
919.9500, 2365.400
920.4321, 2378.498
920.9142, 2386.966
921.3963, 2388.314
921.8784, 2383.185
922.3605, 2374.457
922.8427, 2361.675
923.3248, 2356.288
923.8069, 2370.341
924.2890, 2390.874
924.7711, 2403.684
925.2532, 2409.168
925.7354, 2408.433
926.2175, 2403.718
926.6996, 2389.614
927.1817, 2353.929
927.6638, 2313.620
928.1459, 2307.797
928.6281, 2339.048
929.1102, 2367.393
929.5923, 2383.888
930.0744, 2392.844
930.5565, 2399.251
931.0386, 2402.358
931.5208, 2400.404
932.0029, 2388.107
932.4850, 2379.803
932.9671, 2381.336
933.4492, 2386.256
933.9313, 2389.870
934.4135, 2392.361
934.8956, 2391.117
935.3777, 2385.689
935.8598, 2379.179
936.3419, 2371.872
936.8240, 2366.669
937.3062, 2369.379
937.7883, 2381.042
938.2704, 2390.193
938.7525, 2389.946
939.2346, 2389.096
939.7167, 2391.829
940.1989, 2397.795
940.6810, 2399.908
941.1631, 2397.706
941.6452, 2401.515
942.1273, 2425.693
942.6094, 2453.340
943.0916, 2460.821
943.5737, 2453.401
944.0558, 2449.097
944.5379, 2466.401
945.0200, 2471.401
945.5021, 2448.782
945.9843, 2413.747
946.4664, 2403.227
946.9485, 2417.285
947.4306, 2425.088
947.9127, 2417.357
948.3948, 2406.112
948.8770, 2403.142
949.3591, 2406.198
949.8412, 2412.682
950.3233, 2426.138
950.8054, 2434.195
951.2875, 2430.902
951.7697, 2426.785
952.2518, 2432.932
952.7339, 2449.353
953.2160, 2455.586
953.6981, 2450.385
954.1802, 2441.639
954.6624, 2435.945
955.1445, 2429.752
955.6266, 2414.526
956.1087, 2389.990
956.5908, 2383.970
957.0729, 2419.549
957.5551, 2447.826
958.0372, 2450.564
958.5193, 2433.279
959.0014, 2416.586
959.4835, 2400.989
959.9656, 2391.917
960.4478, 2394.472
960.9299, 2401.841
961.4120, 2409.334
961.8941, 2417.335
962.3762, 2426.898
962.8583, 2442.826
963.3405, 2452.093
963.8226, 2451.375
964.3047, 2446.826
964.7868, 2448.651
965.2689, 2454.715
965.7510, 2454.238
966.2332, 2444.181
966.7153, 2435.389
967.1974, 2438.800
967.6795, 2445.192
968.1616, 2445.245
968.6437, 2435.353
969.1259, 2433.917
969.6080, 2444.778
970.0901, 2454.218
970.5722, 2450.803
971.0543, 2439.762
971.5364, 2438.897
972.0186, 2446.624
972.5007, 2453.228
972.9828, 2454.880
973.4649, 2452.972
973.9470, 2445.762
974.4291, 2435.516
974.9113, 2428.681
975.3934, 2424.518
975.8755, 2428.000
976.3576, 2443.446
976.8397, 2459.479
977.3218, 2454.625
977.8040, 2438.326
978.2861, 2430.124
978.7682, 2437.669
979.2503, 2448.014
979.7324, 2461.881
980.2145, 2472.898
980.6967, 2474.862
981.1788, 2465.861
981.6609, 2463.482
982.1430, 2468.433
982.6251, 2474.571
983.1072, 2479.295
983.5894, 2480.837
984.0715, 2472.748
984.5536, 2456.756
985.0357, 2450.672
985.5178, 2471.247
985.9999, 2488.331
986.4821, 2491.640
986.9642, 2486.608
987.4463, 2491.823
987.9284, 2506.119
988.4105, 2518.736
988.8926, 2526.421
989.3748, 2529.972
989.8569, 2528.696
990.3390, 2524.268
990.8211, 2519.050
991.3032, 2514.490
991.7853, 2506.662
992.2675, 2492.397
992.7496, 2481.401
993.2317, 2488.951
993.7138, 2507.886
994.1959, 2511.807
994.6780, 2499.241
995.1602, 2482.478
995.6423, 2463.014
996.1244, 2447.430
996.6065, 2439.629
997.0886, 2439.522
997.5707, 2448.536
998.0529, 2470.137
998.5350, 2485.038
999.0171, 2483.500
999.4992, 2475.150
999.9813, 2476.465
1000.463, 2483.771
1000.946, 2489.022
1001.428, 2487.005
1001.910, 2485.883
1002.392, 2488.122
1002.874, 2491.721
1003.356, 2494.996
1003.838, 2497.947
1004.320, 2501.912
1004.802, 2507.660
1005.285, 2504.962
1005.767, 2472.799
1006.249, 2435.896
1006.731, 2419.335
1007.213, 2424.966
1007.695, 2437.335
1008.177, 2458.045
1008.659, 2479.262
1009.141, 2502.032
1009.624, 2521.005
1010.106, 2511.926
1010.588, 2482.469
1011.070, 2464.334
1011.552, 2477.372
1012.034, 2493.845
1012.516, 2498.842
1012.998, 2497.430
1013.481, 2496.533
1013.963, 2497.130
1014.445, 2494.991
1014.927, 2489.145
1015.409, 2483.611
1015.891, 2482.663
1016.373, 2484.436
1016.855, 2486.292
1017.337, 2487.944
1017.820, 2488.745
1018.302, 2488.971
1018.784, 2487.465
1019.266, 2481.886
1019.748, 2474.849
1020.230, 2478.520
1020.712, 2492.330
1021.194, 2501.407
1021.677, 2496.797
1022.159, 2493.124
1022.641, 2509.574
1023.123, 2533.497
1023.605, 2546.723
1024.087, 2539.452
1024.569, 2534.503
1025.051, 2533.215
1025.533, 2531.032
1026.016, 2519.215
1026.498, 2503.852
1026.980, 2505.586
1027.462, 2523.825
1027.944, 2542.598
1028.426, 2522.795
1028.908, 2554.468
1029.390, 2572.221
1029.873, 2576.804
1030.355, 2528.767
1030.837, 2548.677
1031.319, 2541.358
1031.801, 2532.921
1032.283, 2562.395
1032.765, 2522.011
1033.247, 2550.884
1033.729, 2552.111
1034.212, 2565.990
1034.694, 2552.471
1035.176, 2547.415
1035.658, 2569.766
1036.140, 2576.941
1036.622, 2560.268
1037.104, 2574.952
1037.586, 2533.611
1038.068, 2541.433
1038.551, 2570.465
1039.033, 2540.750
1039.515, 2550.960
1039.997, 2570.543
1040.479, 2568.945
1040.961, 2539.951
1041.443, 2522.861
1041.925, 2525.785
1042.408, 2537.971
1042.890, 2551.322
1043.372, 2563.086
1043.854, 2568.403
1044.336, 2565.102
1044.818, 2563.169
1045.300, 2566.461
1045.782, 2568.571
1046.265, 2565.354
1046.747, 2558.424
1047.229, 2557.775
1047.711, 2561.954
1048.193, 2562.696
1048.675, 2547.583
1049.157, 2536.315
1049.639, 2543.833
1050.121, 2561.138
1050.604, 2571.953
1051.086, 2574.230
1051.568, 2578.343
1052.050, 2586.170
1052.532, 2590.666
1053.014, 2582.558
1053.496, 2567.720
1053.978, 2551.867
1054.460, 2535.947
1054.943, 2527.683
1055.425, 2535.447
1055.907, 2542.671
1056.389, 2544.035
1056.871, 2541.795
1057.353, 2542.265
1057.835, 2545.005
1058.317, 2547.691
1058.800, 2548.820
1059.282, 2551.229
1059.764, 2561.507
1060.246, 2570.748
1060.728, 2568.305
1061.210, 2550.052
1061.692, 2538.350
1062.174, 2533.077
1062.656, 2535.921
1063.139, 2558.148
1063.621, 2582.685
1064.103, 2584.040
1064.585, 2567.434
1065.067, 2556.146
1065.549, 2560.925
1066.031, 2565.189
1066.513, 2565.292
1066.995, 2565.716
1067.478, 2575.961
1067.960, 2592.960
1068.442, 2606.689
1068.924, 2615.939
1069.406, 2616.845
1069.888, 2595.829
1070.370, 2575.707
1070.852, 2573.047
1071.334, 2586.237
1071.817, 2591.925
1072.299, 2589.643
1072.781, 2588.448
1073.263, 2593.830
1073.745, 2600.302
1074.227, 2603.344
1074.709, 2602.879
1075.191, 2598.350
1075.674, 2578.733
1076.156, 2576.661
1076.638, 2598.424
1077.120, 2623.059
1077.602, 2633.537
1078.084, 2631.513
1078.566, 2613.041
1079.048, 2581.680
1079.531, 2565.285
1080.013, 2594.564
1080.495, 2619.761
1080.977, 2623.531
1081.459, 2613.678
1081.941, 2605.258
1082.423, 2598.533
1082.905, 2596.432
1083.387, 2599.927
1083.870, 2606.419
1084.352, 2618.200
1084.834, 2629.039
1085.316, 2633.164
1085.798, 2630.193
1086.280, 2621.813
1086.762, 2606.418
1087.244, 2593.708
1087.726, 2588.357
1088.209, 2588.401
1088.691, 2595.320
1089.173, 2604.418
1089.655, 2605.937
1090.137, 2583.380
1090.619, 2573.887
1091.101, 2550.772
1091.583, 2583.772
1092.066, 2602.856
1092.548, 2608.766
1093.030, 2562.057
1093.512, 2583.295
1093.994, 2577.303
1094.476, 2570.194
1094.958, 2600.995
1095.440, 2561.939
1095.922, 2592.140
1096.405, 2594.697
1096.887, 2609.904
1097.369, 2597.713
1097.851, 2610.111
1098.333, 2622.059
1098.815, 2620.347
1099.297, 2617.049
1099.779, 2627.023
1100.261, 2653.782
1100.744, 2661.611
1101.226, 2645.611
1101.708, 2630.879
1102.190, 2629.517
1102.672, 2634.890
1103.154, 2637.488
1103.636, 2638.522
1104.118, 2640.597
1104.601, 2647.998
1105.083, 2649.932
1105.565, 2643.981
1106.047, 2635.502
1106.529, 2626.375
1107.011, 2618.629
1107.493, 2624.287
1107.975, 2640.937
1108.458, 2651.164
1108.940, 2636.968
1109.422, 2624.514
1109.904, 2624.870
1110.386, 2632.653
1110.868, 2641.384
1111.350, 2650.823
1111.832, 2650.910
1112.314, 2639.121
1112.797, 2629.094
1113.279, 2631.765
1113.761, 2641.279
1114.243, 2659.208
1114.725, 2683.008
1115.207, 2680.539
1115.689, 2644.792
1116.171, 2623.358
1116.653, 2637.143
1117.136, 2661.661
1117.618, 2664.884
1118.100, 2657.597
1118.582, 2655.920
1119.064, 2667.126
1119.546, 2672.261
1120.028, 2668.458
1120.510, 2663.800
1120.993, 2662.744
1121.475, 2664.794
1121.957, 2672.052
1122.439, 2681.670
1122.921, 2684.617
1123.403, 2670.554
1123.885, 2658.294
1124.367, 2650.529
1124.849, 2646.721
1125.332, 2646.818
1125.814, 2650.458
1126.296, 2656.752
1126.778, 2665.353
1127.260, 2671.388
1127.742, 2667.437
1128.224, 2664.858
1128.706, 2674.215
1129.188, 2687.699
1129.671, 2685.757
1130.153, 2668.296
1130.635, 2653.090
1131.117, 2642.289
1131.599, 2641.148
1132.081, 2666.656
1132.563, 2694.612
1133.045, 2700.050
1133.528, 2681.883
1134.010, 2675.319
1134.492, 2682.615
1134.974, 2687.115
1135.456, 2679.896
1135.938, 2671.488
1136.420, 2680.229
1136.902, 2694.845
1137.385, 2697.650
1137.867, 2675.426
1138.349, 2666.418
1138.831, 2674.377
1139.313, 2686.626
1139.795, 2698.107
1140.277, 2706.748
1140.759, 2705.897
1141.241, 2698.627
1141.724, 2693.725
1142.206, 2696.308
1142.688, 2699.501
1143.170, 2705.141
1143.652, 2706.822
1144.134, 2694.781
1144.616, 2673.146
1145.098, 2653.505
1145.580, 2637.631
1146.063, 2633.810
1146.545, 2663.701
1147.027, 2685.177
1147.509, 2680.047
1147.991, 2662.314
1148.473, 2657.031
1148.955, 2663.218
1149.437, 2677.235
1149.920, 2699.990
1150.402, 2713.508
1150.884, 2698.547
1151.366, 2677.479
1151.848, 2662.140
1152.330, 2653.105
1152.812, 2655.120
1153.294, 2668.079
1153.776, 2677.825
1154.259, 2679.589
1154.741, 2677.738
1155.223, 2669.216
1155.705, 2663.262
1156.187, 2673.049
1156.669, 2700.218
1157.151, 2714.265
1157.633, 2713.804
1158.115, 2713.776
1158.598, 2725.193
1159.080, 2735.986
1159.562, 2730.598
1160.044, 2716.407
1160.526, 2704.947
1161.008, 2696.174
1161.490, 2694.897
1161.972, 2702.358
1162.455, 2711.798
1162.937, 2720.457
1163.419, 2726.417
1163.901, 2721.239
1164.383, 2710.672
1164.865, 2713.542
1165.347, 2751.214
1165.829, 2768.128
1166.312, 2754.247
1166.794, 2732.914
1167.276, 2729.261
1167.758, 2736.176
1168.240, 2742.454
1168.722, 2746.893
1169.204, 2747.229
1169.686, 2737.984
1170.168, 2731.511
1170.651, 2730.126
1171.133, 2732.550
1171.615, 2738.272
1172.097, 2745.898
1172.579, 2751.413
1173.061, 2754.092
1173.543, 2758.801
1174.025, 2778.932
1174.507, 2785.721
1174.990, 2762.817
1175.472, 2726.285
1175.954, 2720.692
1176.436, 2737.372
1176.918, 2747.647
1177.400, 2741.331
1177.882, 2738.501
1178.364, 2751.962
1178.847, 2767.509
1179.329, 2780.400
1179.811, 2788.572
1180.293, 2775.660
1180.775, 2747.179
1181.257, 2731.674
1181.739, 2748.480
1182.221, 2764.480
1182.703, 2760.720
1183.186, 2701.486
1183.668, 2737.593
1184.150, 2759.783
1184.632, 2768.801
1185.114, 2725.200
1185.596, 2749.545
1186.078, 2746.661
1186.560, 2742.660
1187.042, 2776.569
1187.525, 2740.630
1188.007, 2773.937
1188.489, 2779.599
1188.971, 2797.913
1189.453, 2788.830
1189.935, 2788.209
1190.417, 2814.994
1190.899, 2826.605
1191.382, 2788.745
1191.864, 2747.037
1192.346, 2741.326
1192.828, 2774.499
1193.310, 2787.410
1193.792, 2773.701
1194.274, 2755.377
1194.756, 2744.512
1195.238, 2740.273
1195.721, 2743.571
1196.203, 2753.157
1196.685, 2767.179
1197.167, 2786.540
1197.649, 2794.787
1198.131, 2787.165
1198.613, 2780.480
1199.095, 2798.188
1199.578, 2816.409
1200.060, 2810.751
1200.542, 2784.890
1201.024, 2766.738
1201.506, 2756.015
1201.988, 2764.879
1202.470, 2804.183
1202.952, 2835.600
1203.434, 2804.012
1203.917, 2759.294
1204.399, 2759.229
1204.881, 2804.739
1205.363, 2818.256
1205.845, 2796.847
1206.327, 2782.629
1206.809, 2796.187
1207.291, 2812.120
1207.773, 2795.646
1208.256, 2772.471
1208.738, 2779.433
1209.220, 2822.487
1209.702, 2833.839
1210.184, 2809.896
1210.666, 2794.309
1211.148, 2816.936
1211.630, 2844.863
1212.113, 2842.321
1212.595, 2825.684
1213.077, 2819.948
1213.559, 2831.307
1214.041, 2826.335
1214.523, 2802.883
1215.005, 2785.539
1215.487, 2794.479
1215.969, 2812.207
1216.452, 2828.869
1216.934, 2840.397
1217.416, 2837.746
1217.898, 2813.854
1218.380, 2807.776
1218.862, 2822.193
1219.344, 2833.096
1219.826, 2812.229
1220.308, 2789.666
1220.791, 2797.210
1221.273, 2822.748
1221.755, 2836.393
1222.237, 2833.705
1222.719, 2836.578
1223.201, 2846.762
1223.683, 2858.420
1224.165, 2870.299
1224.648, 2878.487
1225.130, 2877.247
1225.612, 2869.225
1226.094, 2862.994
1226.576, 2857.905
1227.058, 2862.003
1227.540, 2877.681
1228.022, 2885.576
1228.505, 2853.459
1228.987, 2819.954
1229.469, 2824.162
1229.951, 2854.916
1230.433, 2862.722
1230.915, 2844.041
1231.397, 2841.345
1231.879, 2862.841
1232.361, 2887.849
1232.844, 2904.991
1233.326, 2912.545
1233.808, 2905.669
1234.290, 2887.673
1234.772, 2865.995
1235.254, 2839.799
1235.736, 2837.402
1236.218, 2868.686
1236.700, 2898.063
1237.183, 2890.533
1237.665, 2873.187
1238.147, 2868.991
1238.629, 2873.499
1239.111, 2862.733
1239.593, 2837.208
1240.075, 2819.540
1240.557, 2814.561
1241.040, 2821.889
1241.522, 2858.325
1242.004, 2890.831
1242.486, 2892.029
1242.968, 2869.461
1243.450, 2863.250
1243.932, 2871.632
1244.414, 2876.353
1244.896, 2871.584
1245.379, 2863.448
1245.861, 2843.977
1246.343, 2834.882
1246.825, 2854.055
1247.307, 2894.420
1247.789, 2920.122
1248.271, 2931.799
1248.753, 2932.454
1249.235, 2918.364
1249.718, 2907.154
1250.200, 2907.335
1250.682, 2914.557
1251.164, 2932.153
1251.646, 2953.544
1252.128, 2937.874
1252.610, 2895.823
1253.092, 2869.109
1253.575, 2879.237
1254.057, 2891.943
1254.539, 2895.724
1255.021, 2898.571
1255.503, 2905.422
1255.985, 2914.768
1256.467, 2921.280
1256.949, 2925.694
1257.432, 2930.349
1257.914, 2939.041
1258.396, 2941.451
1258.878, 2932.673
1259.360, 2923.459
1259.842, 2921.559
1260.324, 2924.254
1260.806, 2921.321
1261.288, 2917.048
1261.771, 2923.323
1262.253, 2961.254
1262.735, 2976.000
1263.217, 2956.958
1263.699, 2934.132
1264.181, 2928.821
1264.663, 2933.927
1265.145, 2940.354
1265.627, 2945.765
1266.110, 2944.638
1266.592, 2924.043
1267.074, 2921.679
1267.556, 2943.451
1268.038, 2960.730
1268.520, 2946.504
1269.002, 2920.535
1269.484, 2901.141
1269.967, 2891.777
1270.449, 2903.385
1270.931, 2946.317
1271.413, 2974.664
1271.895, 2986.896
1272.377, 2989.797
1272.859, 2981.868
1273.341, 2973.018
1273.823, 2971.304
1274.306, 2975.604
1274.788, 2983.670
1275.270, 2996.515
1275.752, 3006.065
1276.234, 3012.133
1276.716, 3013.779
1277.198, 3004.349
1277.680, 2996.799
1278.162, 3003.846
1278.645, 3015.277
1279.127, 3014.264
1279.609, 3000.980
1280.091, 3003.849
1280.573, 3022.535
1281.055, 3035.978
1281.537, 3027.652
1282.019, 3016.401
1282.502, 3009.687
1282.984, 3004.354
1283.466, 2992.396
1283.948, 2977.925
1284.430, 2992.137
1284.912, 3030.370
1285.394, 3050.316
1285.876, 3062.205
1286.359, 3066.473
1286.841, 3040.279
1287.323, 3053.417
1287.805, 3050.792
1288.287, 3047.521
1288.769, 3066.195
1289.251, 3044.431
1289.733, 3062.756
1290.215, 3065.079
1290.698, 3074.729
1291.180, 3068.516
1291.662, 3067.201
1292.144, 3081.751
1292.626, 3087.517
1293.108, 3079.479
1293.590, 3089.591
1294.072, 3067.273
1294.554, 3073.413
1295.037, 3091.834
1295.519, 3051.728
1296.001, 3044.688
1296.483, 3055.381
1296.965, 3073.517
1297.447, 3097.650
1297.929, 3119.385
1298.411, 3118.910
1298.894, 3092.439
1299.376, 3070.497
1299.858, 3054.840
1300.340, 3046.650
##END=



