##NAMES=Hedenbergite
##RRUFFID=R070236
##IDEAL CHEMISTRY=CaFe^2+^Si_2_O_6_
##LOCALITY=Dal'Negorsk, Primorskiy Kray; far eastern, Russia
##OWNER=RRUFF
##SOURCE=Michael Scott
##DESCRIPTION=Gemmy drab to olive green orthorhombic prisms lining vug
##STATUS=The identification of this mineral is confirmed by single-crystal X-ray diffraction and chemical analysis.
##URL=rruff.info/R070236
##MEASURED CHEMISTRY=Ca_1.00_(Fe^2+^_0.67_Mg_0.17_Mn^2+^_0.16_)_Î£=1_Si_2.00_O_6_
154.9651, 6497.831
155.4472, 6538.162
155.9293, 6538.359
156.4115, 6549.836
156.8936, 6596.671
157.3757, 6666.344
157.8578, 6716.240
158.3399, 6717.111
158.8221, 6703.962
159.3042, 6699.639
159.7863, 6714.256
160.2684, 6733.891
160.7505, 6754.465
161.2326, 6776.330
161.7148, 6800.796
162.1969, 6830.945
162.6790, 6863.145
163.1611, 6893.513
163.6432, 6913.033
164.1253, 6936.837
164.6075, 6979.262
165.0896, 7041.045
165.5717, 7093.468
166.0538, 7110.021
166.5359, 7108.924
167.0180, 7116.318
167.5002, 7149.482
167.9823, 7191.216
168.4644, 7229.335
168.9465, 7262.783
169.4286, 7293.785
169.9107, 7325.086
170.3929, 7355.045
170.8750, 7381.025
171.3571, 7390.117
171.8392, 7399.213
172.3213, 7431.534
172.8034, 7496.693
173.2856, 7561.803
173.7677, 7593.687
174.2498, 7598.970
174.7319, 7599.955
175.2140, 7608.131
175.6961, 7621.026
176.1783, 7633.747
176.6604, 7642.499
177.1425, 7655.789
177.6246, 7688.675
178.1067, 7738.218
178.5888, 7787.600
179.0710, 7825.966
179.5531, 7854.593
180.0352, 7875.530
180.5173, 7889.623
180.9994, 7895.594
181.4815, 7884.442
181.9637, 7856.766
182.4458, 7834.333
182.9279, 7839.422
183.4100, 7866.234
183.8921, 7892.675
184.3742, 7910.438
184.8564, 7924.712
185.3385, 7950.143
185.8206, 7988.030
186.3027, 8023.964
186.7848, 8042.929
187.2669, 8046.310
187.7491, 8045.140
188.2312, 8036.880
188.7133, 8026.759
189.1954, 8038.185
189.6775, 8074.532
190.1596, 8117.092
190.6418, 8148.904
191.1239, 8169.577
191.6060, 8172.541
192.0881, 8143.842
192.5702, 8088.854
193.0524, 8056.125
193.5345, 8048.651
194.0166, 8055.695
194.4987, 8062.219
194.9808, 8068.004
195.4629, 8076.618
195.9451, 8091.504
196.4272, 8112.657
196.9093, 8129.622
197.3914, 8141.868
197.8735, 8150.245
198.3556, 8155.795
198.8378, 8158.248
199.3199, 8159.527
199.8020, 8161.042
200.2841, 8162.975
200.7662, 8162.003
201.2483, 8157.182
201.7305, 8150.038
202.2126, 8141.971
202.6947, 8130.610
203.1768, 8127.180
203.6589, 8140.997
204.1410, 8174.486
204.6232, 8208.107
205.1053, 8242.793
205.5874, 8275.366
206.0695, 8294.789
206.5516, 8299.453
207.0337, 8295.190
207.5159, 8281.658
207.9980, 8254.476
208.4801, 8240.640
208.9622, 8246.434
209.4443, 8268.047
209.9264, 8286.724
210.4086, 8301.021
210.8907, 8315.355
211.3728, 8333.791
211.8549, 8358.631
212.3370, 8379.690
212.8191, 8393.063
213.3013, 8400.459
213.7834, 8419.647
214.2655, 8457.951
214.7476, 8496.383
215.2297, 8516.144
215.7118, 8509.124
216.1940, 8506.561
216.6761, 8514.931
217.1582, 8533.716
217.6403, 8551.550
218.1224, 8569.520
218.6045, 8584.826
219.0867, 8591.194
219.5688, 8577.168
220.0509, 8582.836
220.5330, 8626.666
221.0151, 8710.803
221.4972, 8754.225
221.9794, 8737.437
222.4615, 8702.171
222.9436, 8693.280
223.4257, 8721.296
223.9078, 8754.823
224.3899, 8789.058
224.8721, 8825.240
225.3542, 8850.541
225.8363, 8858.085
226.3184, 8861.467
226.8005, 8878.600
227.2827, 8919.246
227.7648, 8954.470
228.2469, 8973.627
228.7290, 8972.684
229.2111, 8987.974
229.6932, 9030.373
230.1754, 9080.006
230.6575, 9110.627
231.1396, 9113.406
231.6217, 9112.146
232.1038, 9111.838
232.5859, 9111.644
233.0681, 9118.498
233.5502, 9141.179
234.0323, 9164.608
234.5144, 9166.079
234.9965, 9136.372
235.4786, 9099.641
235.9608, 9057.662
236.4429, 9003.831
236.9250, 8979.161
237.4071, 8997.127
237.8892, 9036.150
238.3713, 9063.492
238.8535, 9079.602
239.3356, 9082.987
239.8177, 9069.436
240.2998, 9031.054
240.7819, 9005.396
241.2640, 8990.803
241.7462, 8989.458
242.2283, 9008.127
242.7104, 9063.722
243.1925, 9111.398
243.6746, 9133.883
244.1567, 9121.406
244.6389, 9117.522
245.1210, 9126.123
245.6031, 9140.963
246.0852, 9149.577
246.5673, 9143.649
247.0494, 9145.896
247.5316, 9168.652
248.0137, 9224.617
248.4958, 9256.216
248.9779, 9250.268
249.4600, 9227.177
249.9421, 9226.570
250.4243, 9261.647
250.9064, 9295.583
251.3885, 9315.566
251.8706, 9319.889
252.3527, 9313.272
252.8348, 9284.132
253.3170, 9251.196
253.7991, 9254.005
254.2812, 9310.942
254.7633, 9368.358
255.2454, 9406.679
255.7275, 9421.947
256.2097, 9430.098
256.6918, 9425.518
257.1739, 9417.578
257.6560, 9425.211
258.1381, 9455.781
258.6202, 9486.873
259.1024, 9510.868
259.5845, 9526.968
260.0666, 9537.556
260.5487, 9539.486
261.0308, 9538.277
261.5129, 9543.901
261.9951, 9556.864
262.4772, 9575.383
262.9593, 9599.340
263.4414, 9630.005
263.9235, 9662.495
264.4056, 9701.593
264.8878, 9738.389
265.3699, 9754.216
265.8520, 9739.841
266.3341, 9731.271
266.8162, 9744.609
267.2983, 9783.724
267.7805, 9819.512
268.2626, 9851.617
268.7447, 9880.436
269.2268, 9905.938
269.7089, 9927.173
270.1910, 9948.478
270.6732, 9974.194
271.1553, 10005.84
271.6374, 10023.40
272.1195, 10021.97
272.6016, 10013.67
273.0837, 10020.05
273.5659, 10044.52
274.0480, 10066.30
274.5301, 10077.04
275.0122, 10076.34
275.4943, 10071.96
275.9764, 10060.15
276.4586, 10051.73
276.9407, 10065.53
277.4228, 10103.49
277.9049, 10145.30
278.3870, 10189.59
278.8691, 10235.20
279.3513, 10248.29
279.8334, 10219.18
280.3155, 10182.45
280.7976, 10188.51
281.2798, 10239.03
281.7619, 10292.66
282.2440, 10337.08
282.7261, 10372.28
283.2082, 10393.69
283.6903, 10397.29
284.1725, 10401.98
284.6546, 10438.36
285.1367, 10504.60
285.6188, 10560.69
286.1009, 10585.96
286.5830, 10588.93
287.0652, 10604.80
287.5473, 10633.56
288.0294, 10674.32
288.5115, 10731.29
288.9936, 10802.69
289.4757, 10871.41
289.9579, 10933.66
290.4400, 10989.00
290.9221, 11035.91
291.4042, 11073.85
291.8863, 11109.94
292.3684, 11145.57
292.8506, 11183.57
293.3327, 11238.46
293.8148, 11333.09
294.2969, 11437.28
294.7790, 11479.53
295.2611, 11459.85
295.7433, 11444.85
296.2254, 11502.59
296.7075, 11612.85
297.1896, 11716.54
297.6717, 11798.94
298.1538, 11866.56
298.6360, 11923.97
299.1181, 11972.41
299.6002, 12020.12
300.0823, 12074.58
300.5644, 12133.24
301.0465, 12192.24
301.5287, 12252.63
302.0108, 12310.30
302.4929, 12360.61
302.9750, 12403.93
303.4571, 12439.71
303.9392, 12472.39
304.4214, 12496.24
304.9035, 12503.06
305.3856, 12486.21
305.8677, 12459.02
306.3498, 12432.80
306.8319, 12406.19
307.3141, 12373.61
307.7962, 12327.00
308.2783, 12275.53
308.7604, 12229.43
309.2425, 12197.48
309.7246, 12158.41
310.2068, 12097.10
310.6889, 12017.66
311.1710, 11930.33
311.6531, 11821.80
312.1352, 11718.28
312.6173, 11644.42
313.0995, 11615.67
313.5816, 11585.18
314.0637, 11525.45
314.5458, 11448.86
315.0279, 11378.27
315.5100, 11322.14
315.9922, 11274.55
316.4743, 11232.94
316.9564, 11197.44
317.4385, 11166.14
317.9206, 11138.13
318.4027, 11114.02
318.8849, 11094.67
319.3670, 11076.17
319.8491, 11066.11
320.3312, 11070.91
320.8133, 11094.35
321.2954, 11112.16
321.7776, 11111.39
322.2597, 11105.96
322.7418, 11110.70
323.2239, 11130.58
323.7060, 11157.99
324.1881, 11193.48
324.6703, 11237.77
325.1524, 11280.78
325.6345, 11330.70
326.1166, 11373.89
326.5987, 11399.48
327.0808, 11375.84
327.5630, 11371.92
328.0451, 11403.57
328.5272, 11468.78
329.0093, 11524.16
329.4914, 11564.85
329.9735, 11598.93
330.4557, 11630.98
330.9378, 11660.01
331.4199, 11688.11
331.9020, 11709.83
332.3841, 11729.90
332.8662, 11774.39
333.3484, 11858.03
333.8305, 11943.12
334.3126, 12007.06
334.7947, 12037.90
335.2768, 12084.20
335.7589, 12156.24
336.2411, 12240.61
336.7232, 12307.29
337.2053, 12356.19
337.6874, 12386.12
338.1695, 12392.15
338.6516, 12371.14
339.1338, 12355.14
339.6159, 12349.17
340.0980, 12341.41
340.5801, 12307.62
341.0622, 12244.20
341.5443, 12184.06
342.0265, 12142.66
342.5086, 12117.80
342.9907, 12085.06
343.4728, 12044.11
343.9549, 11997.63
344.4370, 11948.28
344.9192, 11896.51
345.4013, 11843.50
345.8834, 11787.77
346.3655, 11732.31
346.8476, 11685.50
347.3297, 11647.36
347.8119, 11620.81
348.2940, 11618.47
348.7761, 11631.60
349.2582, 11632.25
349.7403, 11600.83
350.2225, 11565.27
350.7046, 11570.34
351.1867, 11611.87
351.6688, 11657.32
352.1509, 11689.19
352.6331, 11708.55
353.1152, 11713.97
353.5973, 11696.36
354.0794, 11681.38
354.5615, 11688.63
355.0436, 11716.66
355.5258, 11761.08
356.0079, 11834.24
356.4900, 11914.54
356.9721, 11980.39
357.4542, 12022.73
357.9363, 12070.21
358.4185, 12139.50
358.9006, 12224.76
359.3827, 12315.83
359.8648, 12414.94
360.3469, 12513.96
360.8290, 12606.04
361.3112, 12689.00
361.7933, 12779.62
362.2754, 12876.74
362.7575, 12987.31
363.2396, 13119.45
363.7217, 13295.84
364.2039, 13471.40
364.6860, 13630.01
365.1681, 13771.84
365.6502, 13925.00
366.1323, 14100.92
366.6144, 14285.29
367.0966, 14468.96
367.5787, 14646.34
368.0608, 14827.26
368.5429, 15017.00
369.0250, 15212.98
369.5071, 15397.59
369.9893, 15569.22
370.4714, 15730.64
370.9535, 15885.23
371.4356, 16040.88
371.9177, 16168.31
372.3998, 16265.93
372.8820, 16335.99
373.3641, 16383.43
373.8462, 16410.73
374.3283, 16409.22
374.8104, 16377.34
375.2925, 16315.47
375.7747, 16212.41
376.2568, 16063.23
376.7389, 15881.02
377.2210, 15679.76
377.7031, 15458.48
378.1852, 15233.78
378.6674, 15010.43
379.1495, 14787.48
379.6316, 14544.12
380.1137, 14279.55
380.5958, 14020.50
381.0779, 13795.17
381.5601, 13597.89
382.0422, 13418.24
382.5243, 13253.25
383.0064, 13099.62
383.4885, 12948.02
383.9706, 12798.86
384.4528, 12665.63
384.9349, 12568.88
385.4170, 12490.08
385.8991, 12389.06
386.3812, 12247.82
386.8633, 12120.22
387.3455, 12069.19
387.8276, 12070.71
388.3097, 12069.08
388.7918, 12034.21
389.2739, 11986.39
389.7560, 11942.03
390.2382, 11903.00
390.7203, 11860.15
391.2024, 11796.16
391.6845, 11730.02
392.1666, 11682.87
392.6487, 11676.64
393.1309, 11677.29
393.6130, 11673.03
394.0951, 11663.94
394.5772, 11654.73
395.0593, 11647.65
395.5414, 11640.14
396.0236, 11630.69
396.5057, 11618.99
396.9878, 11605.36
397.4699, 11584.89
397.9520, 11561.91
398.4341, 11550.07
398.9163, 11556.16
399.3984, 11566.48
399.8805, 11577.75
400.3626, 11593.58
400.8447, 11598.23
401.3268, 11582.15
401.8090, 11561.96
402.2911, 11563.27
402.7732, 11595.58
403.2553, 11625.01
403.7374, 11645.02
404.2195, 11655.31
404.7017, 11647.74
405.1838, 11617.69
405.6659, 11581.94
406.1480, 11550.02
406.6301, 11521.45
407.1122, 11517.30
407.5944, 11549.77
408.0765, 11600.22
408.5586, 11623.67
409.0407, 11620.64
409.5228, 11608.76
410.0049, 11592.50
410.4871, 11576.31
410.9692, 11575.53
411.4513, 11594.78
411.9334, 11617.09
412.4155, 11621.72
412.8976, 11613.52
413.3798, 11606.46
413.8619, 11604.79
414.3440, 11608.59
414.8261, 11620.15
415.3082, 11639.47
415.7903, 11658.18
416.2725, 11672.00
416.7546, 11681.87
417.2367, 11689.20
417.7188, 11695.97
418.2009, 11698.35
418.6830, 11689.31
419.1652, 11672.95
419.6473, 11664.61
420.1294, 11668.51
420.6115, 11682.36
421.0937, 11707.70
421.5758, 11755.46
422.0579, 11790.46
422.5400, 11802.86
423.0221, 11801.02
423.5042, 11798.56
423.9864, 11785.25
424.4685, 11783.72
424.9506, 11807.39
425.4327, 11860.11
425.9148, 11881.16
426.3969, 11848.06
426.8791, 11808.93
427.3612, 11809.64
427.8433, 11866.89
428.3254, 11911.61
428.8075, 11933.86
429.2896, 11937.08
429.7718, 11927.92
430.2539, 11902.76
430.7360, 11884.13
431.2181, 11887.52
431.7002, 11911.61
432.1823, 11937.39
432.6645, 11963.56
433.1466, 11992.71
433.6287, 12033.79
434.1108, 12083.01
434.5929, 12121.37
435.0750, 12138.27
435.5572, 12140.19
436.0393, 12134.35
436.5214, 12121.20
437.0035, 12110.37
437.4856, 12108.24
437.9677, 12113.51
438.4499, 12125.73
438.9320, 12149.99
439.4141, 12172.26
439.8962, 12182.91
440.3783, 12183.75
440.8604, 12179.80
441.3426, 12171.28
441.8247, 12160.11
442.3068, 12145.42
442.7889, 12125.04
443.2710, 12111.32
443.7531, 12112.87
444.2353, 12120.71
444.7174, 12124.96
445.1995, 12109.57
445.6816, 12106.57
446.1637, 12132.96
446.6458, 12183.80
447.1280, 12206.16
447.6101, 12176.40
448.0922, 12144.20
448.5743, 12138.51
449.0564, 12172.15
449.5385, 12199.01
450.0207, 12219.63
450.5028, 12231.36
450.9849, 12225.01
451.4670, 12196.36
451.9491, 12171.21
452.4312, 12158.73
452.9134, 12158.27
453.3955, 12165.80
453.8776, 12182.03
454.3597, 12200.77
454.8418, 12220.83
455.3239, 12239.54
455.8061, 12241.93
456.2882, 12215.52
456.7703, 12185.67
457.2524, 12195.51
457.7345, 12236.07
458.2166, 12270.96
458.6988, 12269.96
459.1809, 12256.00
459.6630, 12253.21
460.1451, 12264.73
460.6272, 12282.43
461.1093, 12308.85
461.5915, 12336.02
462.0736, 12353.43
462.5557, 12342.74
463.0378, 12336.31
463.5199, 12354.29
464.0020, 12391.79
464.4842, 12412.25
464.9663, 12392.71
465.4484, 12365.29
465.9305, 12346.23
466.4126, 12335.58
466.8947, 12334.54
467.3769, 12350.83
467.8590, 12373.33
468.3411, 12382.40
468.8232, 12367.57
469.3053, 12360.50
469.7874, 12372.58
470.2696, 12402.37
470.7517, 12422.91
471.2338, 12433.14
471.7159, 12437.26
472.1980, 12435.26
472.6801, 12427.45
473.1623, 12428.30
473.6444, 12441.67
474.1265, 12460.91
474.6086, 12472.18
475.0907, 12477.48
475.5728, 12489.73
476.0550, 12521.77
476.5371, 12563.15
477.0192, 12599.47
477.5013, 12630.54
477.9834, 12650.83
478.4655, 12645.46
478.9477, 12630.08
479.4298, 12625.43
479.9119, 12643.33
480.3940, 12666.13
480.8761, 12688.83
481.3582, 12709.69
481.8404, 12723.37
482.3225, 12708.21
482.8046, 12701.88
483.2867, 12728.57
483.7688, 12807.52
484.2509, 12859.61
484.7331, 12850.14
485.2152, 12825.20
485.6973, 12829.00
486.1794, 12885.34
486.6615, 12928.83
487.1436, 12942.94
487.6258, 12937.02
488.1079, 12958.03
488.5900, 13013.68
489.0721, 13074.75
489.5542, 13127.14
490.0363, 13171.11
490.5185, 13210.32
491.0006, 13247.13
491.4827, 13270.45
491.9648, 13251.39
492.4470, 13199.54
492.9291, 13168.84
493.4112, 13188.14
493.8933, 13230.06
494.3754, 13257.82
494.8575, 13271.91
495.3397, 13273.90
495.8218, 13250.16
496.3039, 13222.01
496.7860, 13218.84
497.2681, 13254.57
497.7502, 13276.72
498.2324, 13247.64
498.7145, 13191.08
499.1966, 13138.78
499.6787, 13080.30
500.1608, 13047.87
500.6429, 13071.01
501.1251, 13144.21
501.6072, 13179.81
502.0893, 13136.80
502.5714, 13086.36
503.0535, 13061.44
503.5356, 13071.59
504.0178, 13084.24
504.4999, 13097.02
504.9820, 13114.47
505.4641, 13151.25
505.9462, 13215.81
506.4283, 13252.88
506.9105, 13233.25
507.3926, 13176.73
507.8747, 13165.86
508.3568, 13202.59
508.8389, 13249.52
509.3210, 13283.21
509.8032, 13306.03
510.2853, 13323.88
510.7674, 13336.60
511.2495, 13348.23
511.7316, 13357.49
512.2137, 13369.07
512.6959, 13392.23
513.1780, 13448.96
513.6601, 13503.66
514.1422, 13529.98
514.6243, 13531.25
515.1064, 13532.00
515.5886, 13534.77
516.0707, 13544.96
516.5528, 13566.81
517.0349, 13607.05
517.5170, 13646.33
517.9991, 13694.72
518.4813, 13736.31
518.9634, 13747.96
519.4455, 13706.61
519.9276, 13675.04
520.4097, 13667.78
520.8918, 13681.35
521.3740, 13693.77
521.8561, 13706.22
522.3382, 13713.64
522.8203, 13713.85
523.3024, 13706.72
523.7845, 13685.82
524.2667, 13646.84
524.7488, 13608.76
525.2309, 13601.78
525.7130, 13616.11
526.1951, 13616.71
526.6772, 13576.63
527.1594, 13530.97
527.6415, 13528.45
528.1236, 13559.73
528.6057, 13583.79
529.0878, 13570.08
529.5699, 13544.74
530.0521, 13527.98
530.5342, 13524.68
531.0163, 13518.98
531.4984, 13500.19
531.9805, 13478.76
532.4626, 13465.72
532.9448, 13458.30
533.4269, 13465.16
533.9090, 13496.60
534.3911, 13544.03
534.8732, 13570.92
535.3553, 13565.38
535.8375, 13562.19
536.3196, 13578.34
536.8017, 13615.27
537.2838, 13644.53
537.7659, 13664.73
538.2480, 13682.71
538.7302, 13704.88
539.2123, 13731.27
539.6944, 13761.13
540.1765, 13794.83
540.6586, 13830.94
541.1407, 13871.69
541.6229, 13914.76
542.1050, 13952.38
542.5871, 13959.18
543.0692, 13972.59
543.5513, 14037.99
544.0334, 14156.53
544.5156, 14262.77
544.9977, 14319.36
545.4798, 14354.89
545.9619, 14390.60
546.4440, 14427.76
546.9261, 14469.38
547.4083, 14514.19
547.8904, 14564.40
548.3725, 14623.63
548.8546, 14699.14
549.3367, 14773.60
549.8188, 14850.85
550.3010, 14927.40
550.7831, 14957.82
551.2652, 14934.10
551.7473, 14890.81
552.2294, 14849.13
552.7115, 14808.79
553.1937, 14771.29
553.6758, 14738.85
554.1579, 14700.44
554.6400, 14637.77
555.1221, 14557.25
555.6042, 14478.66
556.0864, 14410.64
556.5685, 14344.72
557.0506, 14269.87
557.5327, 14189.65
558.0148, 14118.48
558.4969, 14059.94
558.9791, 14015.08
559.4612, 13987.14
559.9433, 13979.04
560.4254, 13974.44
560.9075, 13978.67
561.3896, 13980.44
561.8718, 13969.18
562.3539, 13930.17
562.8360, 13903.59
563.3181, 13896.67
563.8002, 13902.11
564.2823, 13902.40
564.7645, 13896.39
565.2466, 13890.40
565.7287, 13887.88
566.2108, 13887.51
566.6929, 13880.23
567.1750, 13865.63
567.6572, 13854.89
568.1393, 13865.35
568.6214, 13885.26
569.1035, 13887.23
569.5856, 13862.18
570.0677, 13839.01
570.5499, 13847.25
571.0320, 13871.94
571.5141, 13889.45
571.9962, 13883.69
572.4783, 13876.51
572.9604, 13872.77
573.4426, 13873.74
573.9247, 13885.14
574.4068, 13921.79
574.8889, 13956.31
575.3710, 13977.92
575.8531, 13984.35
576.3353, 13988.96
576.8174, 13992.89
577.2995, 13993.25
577.7816, 13984.40
578.2637, 13964.80
578.7458, 13953.02
579.2280, 13951.69
579.7101, 13959.41
580.1922, 13979.26
580.6743, 14008.40
581.1564, 14030.80
581.6385, 14033.05
582.1207, 14027.62
582.6028, 14031.22
583.0849, 14042.74
583.5670, 14053.55
584.0491, 14053.17
584.5313, 14053.49
585.0134, 14066.95
585.4955, 14103.16
585.9776, 14126.93
586.4597, 14114.26
586.9418, 14090.77
587.4240, 14086.35
587.9061, 14121.99
588.3882, 14144.88
588.8703, 14145.14
589.3524, 14130.21
589.8345, 14120.12
590.3167, 14113.72
590.7988, 14117.24
591.2809, 14139.53
591.7630, 14174.82
592.2451, 14187.55
592.7272, 14176.73
593.2094, 14167.78
593.6915, 14184.37
594.1736, 14217.36
594.6557, 14252.72
595.1378, 14290.43
595.6199, 14317.88
596.1021, 14310.93
596.5842, 14291.41
597.0663, 14290.49
597.5485, 14348.75
598.0306, 14395.35
598.5127, 14405.11
598.9948, 14383.75
599.4769, 14356.50
599.9590, 14303.78
600.4412, 14271.10
600.9233, 14280.67
601.4054, 14336.54
601.8875, 14368.73
602.3696, 14370.88
602.8517, 14364.28
603.3339, 14365.11
603.8160, 14373.03
604.2981, 14384.15
604.7802, 14397.93
605.2623, 14414.90
605.7444, 14437.25
606.2266, 14463.43
606.7087, 14488.23
607.1908, 14510.48
607.6729, 14530.46
608.1550, 14554.55
608.6371, 14577.78
609.1193, 14584.73
609.6014, 14541.87
610.0835, 14504.62
610.5656, 14504.87
611.0477, 14550.57
611.5298, 14586.31
612.0120, 14617.46
612.4941, 14630.84
612.9762, 14608.73
613.4583, 14528.85
613.9404, 14500.49
614.4225, 14544.88
614.9047, 14612.28
615.3868, 14623.32
615.8689, 14583.40
616.3510, 14563.70
616.8331, 14590.47
617.3152, 14640.77
617.7974, 14685.62
618.2795, 14724.75
618.7616, 14759.59
619.2437, 14800.88
619.7258, 14830.54
620.2079, 14825.58
620.6901, 14785.50
621.1722, 14759.61
621.6543, 14768.94
622.1364, 14795.32
622.6185, 14828.98
623.1006, 14877.82
623.5828, 14914.18
624.0649, 14930.74
624.5470, 14941.52
625.0291, 14966.08
625.5112, 15009.18
625.9933, 15039.76
626.4755, 15049.68
626.9576, 15047.13
627.4397, 15047.45
627.9218, 15050.28
628.4039, 15052.89
628.8860, 15037.79
629.3682, 15030.26
629.8503, 15080.49
630.3324, 15179.78
630.8145, 15261.49
631.2966, 15266.44
631.7787, 15253.19
632.2609, 15266.17
632.7430, 15321.10
633.2251, 15362.52
633.7072, 15352.68
634.1893, 15341.50
634.6714, 15373.27
635.1536, 15477.18
635.6357, 15558.68
636.1178, 15603.47
636.5999, 15629.77
637.0820, 15668.82
637.5641, 15720.75
638.0463, 15778.37
638.5284, 15837.94
639.0105, 15903.45
639.4926, 15988.80
639.9747, 16091.24
640.4568, 16192.05
640.9390, 16268.57
641.4211, 16346.99
641.9032, 16451.11
642.3853, 16582.10
642.8674, 16730.55
643.3495, 16893.72
643.8317, 17072.05
644.3138, 17268.05
644.7959, 17481.98
645.2780, 17713.97
645.7601, 17972.86
646.2422, 18241.04
646.7244, 18498.12
647.2065, 18736.46
647.6886, 18994.37
648.1707, 19282.42
648.6528, 19583.54
649.1349, 19861.74
649.6171, 20120.95
650.0992, 20396.69
650.5813, 20717.77
651.0634, 21056.82
651.5455, 21381.78
652.0276, 21696.59
652.5098, 22006.80
652.9919, 22322.64
653.4740, 22629.91
653.9561, 22921.88
654.4382, 23198.97
654.9203, 23453.41
655.4025, 23692.05
655.8846, 23902.17
656.3667, 24074.14
656.8488, 24210.91
657.3309, 24303.58
657.8130, 24357.54
658.2952, 24358.72
658.7773, 24298.54
659.2594, 24173.70
659.7415, 23944.65
660.2236, 23579.57
660.7057, 23139.83
661.1879, 22701.10
661.6700, 22261.38
662.1521, 21820.12
662.6342, 21376.95
663.1163, 20932.21
663.5984, 20473.11
664.0806, 20005.54
664.5627, 19573.20
665.0448, 19199.97
665.5269, 18858.94
666.0090, 18537.04
666.4911, 18235.69
666.9733, 17963.66
667.4554, 17723.29
667.9375, 17507.58
668.4196, 17313.15
668.9017, 17139.07
669.3839, 16976.18
669.8660, 16822.38
670.3481, 16687.93
670.8302, 16604.06
671.3123, 16547.67
671.7944, 16465.70
672.2766, 16323.15
672.7587, 16182.60
673.2408, 16079.24
673.7229, 16007.43
674.2050, 15953.89
674.6871, 15926.21
675.1693, 15904.69
675.6514, 15887.23
676.1335, 15872.12
676.6156, 15850.64
677.0977, 15820.69
677.5798, 15789.33
678.0620, 15760.01
678.5441, 15732.19
679.0262, 15699.49
679.5083, 15660.77
679.9904, 15631.52
680.4725, 15635.64
680.9547, 15654.16
681.4368, 15650.76
681.9189, 15619.22
682.4010, 15585.82
682.8831, 15569.87
683.3652, 15560.39
683.8474, 15546.27
684.3295, 15519.03
684.8116, 15496.56
685.2937, 15479.15
685.7758, 15468.92
686.2579, 15472.26
686.7401, 15499.67
687.2222, 15510.42
687.7043, 15491.80
688.1864, 15457.43
688.6685, 15439.03
689.1506, 15436.00
689.6328, 15439.11
690.1149, 15444.38
690.5970, 15453.25
691.0791, 15476.24
691.5612, 15508.22
692.0433, 15522.90
692.5255, 15485.43
693.0076, 15443.14
693.4897, 15427.88
693.9718, 15444.48
694.4539, 15458.61
694.9360, 15467.79
695.4182, 15471.22
695.9003, 15466.91
696.3824, 15451.78
696.8645, 15442.19
697.3466, 15438.70
697.8287, 15439.26
698.3109, 15446.89
698.7930, 15458.33
699.2751, 15451.92
699.7572, 15418.33
700.2393, 15387.06
700.7214, 15397.38
701.2036, 15429.44
701.6857, 15450.04
702.1678, 15438.58
702.6499, 15423.92
703.1320, 15415.23
703.6141, 15411.25
704.0963, 15408.94
704.5784, 15408.79
705.0605, 15408.90
705.5426, 15408.16
706.0247, 15407.43
706.5068, 15411.43
706.9890, 15420.85
707.4711, 15429.28
707.9532, 15433.61
708.4353, 15434.44
708.9174, 15428.53
709.3995, 15417.40
709.8817, 15416.33
710.3638, 15453.24
710.8459, 15493.59
711.3280, 15504.82
711.8101, 15481.04
712.2922, 15451.77
712.7744, 15406.67
713.2565, 15372.88
713.7386, 15370.00
714.2207, 15416.85
714.7028, 15444.94
715.1849, 15448.73
715.6671, 15443.81
716.1492, 15444.76
716.6313, 15451.80
717.1134, 15473.26
717.5955, 15517.59
718.0776, 15553.35
718.5598, 15520.61
719.0419, 15453.67
719.5240, 15420.11
720.0061, 15477.36
720.4882, 15532.22
720.9703, 15534.25
721.4525, 15503.42
721.9346, 15485.24
722.4167, 15491.47
722.8988, 15503.81
723.3809, 15523.53
723.8630, 15546.41
724.3452, 15553.37
724.8273, 15542.27
725.3094, 15530.28
725.7915, 15521.67
726.2736, 15519.32
726.7557, 15538.45
727.2379, 15575.51
727.7200, 15602.53
728.2021, 15585.72
728.6842, 15562.32
729.1663, 15567.61
729.6484, 15605.46
730.1306, 15634.04
730.6127, 15648.13
731.0948, 15643.17
731.5769, 15611.67
732.0590, 15539.17
732.5411, 15501.67
733.0233, 15506.48
733.5054, 15529.91
733.9875, 15554.23
734.4696, 15579.06
734.9517, 15600.77
735.4338, 15619.11
735.9160, 15634.25
736.3981, 15646.96
736.8802, 15656.40
737.3623, 15661.77
737.8444, 15664.75
738.3266, 15659.88
738.8087, 15628.65
739.2908, 15593.82
739.7729, 15590.76
740.2551, 15646.49
740.7372, 15685.52
741.2193, 15694.57
741.7014, 15686.35
742.1835, 15689.14
742.6656, 15703.11
743.1478, 15708.88
743.6299, 15697.26
744.1120, 15677.86
744.5941, 15657.92
745.0762, 15641.92
745.5583, 15643.26
746.0405, 15692.70
746.5226, 15738.89
747.0047, 15748.17
747.4868, 15726.60
747.9689, 15711.83
748.4510, 15707.70
748.9332, 15711.92
749.4153, 15725.45
749.8974, 15747.57
750.3795, 15774.95
750.8616, 15810.25
751.3438, 15829.91
751.8259, 15800.64
752.3080, 15748.45
752.7901, 15738.89
753.2722, 15771.77
753.7543, 15811.27
754.2365, 15839.03
754.7186, 15859.71
755.2007, 15877.98
755.6828, 15896.12
756.1649, 15902.08
756.6470, 15889.28
757.1292, 15867.78
757.6113, 15837.79
758.0934, 15789.72
758.5755, 15781.22
759.0576, 15819.99
759.5397, 15872.51
760.0219, 15910.35
760.5040, 15933.70
760.9861, 15939.77
761.4682, 15926.20
761.9503, 15906.03
762.4324, 15882.96
762.9146, 15861.81
763.3967, 15847.86
763.8788, 15840.39
764.3609, 15843.67
764.8430, 15876.07
765.3251, 15909.49
765.8073, 15906.69
766.2894, 15852.83
766.7715, 15822.96
767.2536, 15832.44
767.7357, 15860.94
768.2178, 15871.03
768.7000, 15869.39
769.1821, 15886.67
769.6642, 15950.74
770.1463, 16008.17
770.6284, 16001.72
771.1105, 15956.89
771.5927, 15922.94
772.0748, 15924.81
772.5569, 15927.88
773.0390, 15924.13
773.5211, 15915.92
774.0032, 15908.65
774.4854, 15901.73
774.9675, 15897.75
775.4496, 15896.61
775.9317, 15899.66
776.4138, 15916.69
776.8959, 15943.66
777.3781, 15959.28
777.8602, 15939.15
778.3423, 15913.60
778.8244, 15905.23
779.3065, 15912.89
779.7886, 15930.03
780.2708, 15972.74
780.7529, 16005.35
781.2350, 16015.11
781.7171, 16004.18
782.1992, 15989.13
782.6813, 15965.71
783.1635, 15955.90
783.6456, 15981.54
784.1277, 16027.83
784.6098, 16042.95
785.0919, 16029.70
785.5740, 16016.58
786.0562, 16016.12
786.5383, 16027.91
787.0204, 16063.92
787.5025, 16124.10
787.9846, 16151.70
788.4667, 16094.96
788.9489, 16039.68
789.4310, 16026.92
789.9131, 16060.60
790.3952, 16059.29
790.8773, 16015.16
791.3594, 15972.65
791.8416, 15969.24
792.3237, 15992.71
792.8058, 16012.61
793.2879, 16027.56
793.7700, 16039.30
794.2521, 16040.30
794.7343, 16044.57
795.2164, 16069.28
795.6985, 16126.36
796.1806, 16157.40
796.6627, 16143.51
797.1448, 16117.65
797.6270, 16101.15
798.1091, 16096.25
798.5912, 16077.51
799.0733, 16040.25
799.5554, 16012.86
800.0375, 16027.12
800.5197, 16069.62
801.0018, 16124.07
801.4839, 16192.27
801.9660, 16234.70
802.4481, 16199.28
802.9302, 16145.00
803.4124, 16122.98
803.8945, 16160.08
804.3766, 16186.42
804.8587, 16201.80
805.3408, 16206.66
805.8229, 16194.78
806.3051, 16166.38
806.7872, 16160.78
807.2693, 16184.17
807.7514, 16212.92
808.2335, 16224.34
808.7156, 16224.77
809.1978, 16222.84
809.6799, 16219.05
810.1620, 16217.40
810.6441, 16223.46
811.1262, 16230.25
811.6083, 16230.74
812.0905, 16222.30
812.5726, 16212.01
813.0547, 16196.34
813.5368, 16186.09
814.0189, 16201.33
814.5010, 16236.12
814.9832, 16250.86
815.4653, 16234.07
815.9474, 16221.71
816.4295, 16271.16
816.9116, 16334.44
817.3937, 16346.28
817.8759, 16246.83
818.3580, 16182.07
818.8401, 16203.43
819.3222, 16258.73
819.8043, 16304.73
820.2864, 16342.92
820.7686, 16363.43
821.2507, 16363.04
821.7328, 16351.38
822.2149, 16339.04
822.6970, 16325.42
823.1791, 16305.26
823.6613, 16271.29
824.1434, 16251.86
824.6255, 16279.13
825.1076, 16325.41
825.5897, 16359.49
826.0718, 16373.15
826.5540, 16376.96
827.0361, 16365.11
827.5182, 16350.36
828.0003, 16351.80
828.4824, 16369.11
828.9645, 16368.70
829.4467, 16340.56
829.9288, 16315.18
830.4109, 16338.75
830.8930, 16384.34
831.3751, 16409.41
831.8572, 16394.24
832.3394, 16377.35
832.8215, 16358.80
833.3036, 16352.99
833.7857, 16380.30
834.2678, 16468.09
834.7499, 16502.14
835.2321, 16460.64
835.7142, 16398.48
836.1963, 16382.67
836.6784, 16404.36
837.1605, 16436.14
837.6426, 16476.72
838.1248, 16507.56
838.6069, 16502.90
839.0890, 16485.97
839.5711, 16483.00
840.0532, 16510.69
840.5353, 16531.82
841.0175, 16543.43
841.4996, 16548.52
841.9817, 16546.90
842.4638, 16537.88
842.9459, 16541.20
843.4280, 16560.72
843.9102, 16582.41
844.3923, 16589.06
844.8744, 16588.20
845.3565, 16588.48
845.8386, 16586.54
846.3207, 16605.13
846.8029, 16686.48
847.2850, 16770.91
847.7671, 16803.84
848.2492, 16758.49
848.7313, 16732.72
849.2134, 16728.93
849.6956, 16739.13
850.1777, 16766.88
850.6598, 16802.71
851.1419, 16807.08
851.6240, 16772.09
852.1061, 16739.29
852.5883, 16747.16
853.0704, 16767.55
853.5525, 16772.97
854.0346, 16750.88
854.5167, 16741.20
854.9988, 16757.09
855.4810, 16771.56
855.9631, 16762.97
856.4452, 16730.83
856.9273, 16703.64
857.4094, 16682.03
857.8915, 16666.75
858.3737, 16654.16
858.8558, 16650.72
859.3379, 16669.67
859.8200, 16714.11
860.3021, 16754.04
860.7842, 16789.68
861.2664, 16805.66
861.7485, 16787.97
862.2306, 16730.81
862.7127, 16696.61
863.1948, 16685.79
863.6769, 16694.94
864.1591, 16739.35
864.6412, 16797.79
865.1233, 16814.36
865.6054, 16790.56
866.0875, 16767.73
866.5696, 16771.74
867.0518, 16783.56
867.5339, 16789.88
868.0160, 16789.60
868.4981, 16800.90
868.9802, 16831.55
869.4623, 16857.87
869.9445, 16870.82
870.4266, 16870.06
870.9087, 16843.64
871.3908, 16794.90
871.8729, 16762.31
872.3550, 16774.68
872.8372, 16808.15
873.3193, 16858.45
873.8014, 16917.63
874.2835, 16944.02
874.7656, 16886.61
875.2477, 16845.23
875.7299, 16849.28
876.2120, 16887.24
876.6941, 16915.95
877.1762, 16935.33
877.6583, 16952.90
878.1404, 16979.98
878.6226, 16998.18
879.1047, 16969.48
879.5869, 16912.10
880.0690, 16872.23
880.5511, 16864.96
881.0332, 16881.14
881.5153, 16939.18
881.9974, 17012.03
882.4796, 17041.96
882.9617, 17020.54
883.4438, 17003.19
883.9259, 17002.03
884.4080, 17012.82
884.8901, 17039.38
885.3723, 17071.95
885.8544, 17086.35
886.3365, 17059.74
886.8186, 17036.96
887.3007, 17035.82
887.7828, 17051.38
888.2650, 17078.21
888.7471, 17125.27
889.2292, 17156.81
889.7113, 17166.89
890.1934, 17167.65
890.6755, 17176.43
891.1577, 17189.11
891.6398, 17190.69
892.1219, 17175.76
892.6040, 17163.21
893.0861, 17160.64
893.5682, 17169.94
894.0504, 17197.08
894.5325, 17262.81
895.0146, 17289.70
895.4967, 17257.78
895.9788, 17223.87
896.4609, 17247.73
896.9431, 17316.26
897.4252, 17340.35
897.9073, 17314.82
898.3894, 17290.68
898.8715, 17316.15
899.3536, 17352.79
899.8358, 17368.56
900.3179, 17358.99
900.8000, 17341.51
901.2821, 17294.06
901.7642, 17275.70
902.2463, 17330.85
902.7285, 17442.78
903.2106, 17483.28
903.6927, 17454.34
904.1748, 17415.57
904.6569, 17402.64
905.1390, 17398.02
905.6212, 17381.41
906.1033, 17356.72
906.5854, 17341.37
907.0675, 17320.38
907.5496, 17439.46
908.0317, 17506.26
908.5139, 17523.57
908.9960, 17343.21
909.4781, 17418.11
909.9602, 17390.71
910.4423, 17359.12
910.9244, 17469.94
911.4066, 17318.33
911.8887, 17426.89
912.3708, 17431.60
912.8529, 17483.84
913.3350, 17433.16
913.8171, 17359.28
914.2993, 17437.33
914.7814, 17479.93
915.2635, 17485.96
915.7456, 17466.14
916.2277, 17416.84
916.7098, 17364.27
917.1920, 17339.54
917.6741, 17331.36
918.1562, 17322.91
918.6383, 17308.75
919.1204, 17301.85
919.6025, 17310.15
920.0847, 17324.01
920.5668, 17338.37
921.0489, 17354.11
921.5310, 17364.63
922.0131, 17370.03
922.4952, 17369.38
922.9774, 17359.51
923.4595, 17344.24
923.9416, 17326.33
924.4237, 17306.77
924.9058, 17294.56
925.3879, 17303.99
925.8701, 17309.97
926.3522, 17294.95
926.8343, 17264.66
927.3164, 17273.91
927.7985, 17328.74
928.2806, 17366.79
928.7628, 17347.20
929.2449, 17305.60
929.7270, 17301.02
930.2091, 17320.73
930.6912, 17330.18
931.1733, 17305.27
931.6555, 17279.46
932.1376, 17254.13
932.6197, 17237.88
933.1018, 17249.51
933.5839, 17293.21
934.0660, 17336.64
934.5482, 17377.68
935.0303, 17406.11
935.5124, 17403.13
935.9945, 17380.18
936.4766, 17353.43
936.9587, 17315.12
937.4409, 17304.55
937.9230, 17368.01
938.4051, 17438.61
938.8872, 17460.52
939.3693, 17420.99
939.8514, 17413.38
940.3336, 17442.20
940.8157, 17471.69
941.2978, 17461.55
941.7799, 17438.83
942.2620, 17446.56
942.7441, 17485.55
943.2263, 17522.26
943.7084, 17559.90
944.1905, 17572.72
944.6726, 17538.62
945.1547, 17469.76
945.6368, 17444.25
946.1190, 17463.55
946.6011, 17499.54
947.0832, 17551.06
947.5653, 17599.96
948.0474, 17617.39
948.5295, 17613.95
949.0117, 17614.35
949.4938, 17618.94
949.9759, 17640.70
950.4580, 17701.82
950.9401, 17765.86
951.4222, 17764.61
951.9044, 17696.37
952.3865, 17671.06
952.8686, 17714.45
953.3507, 17763.80
953.8328, 17741.06
954.3149, 17689.79
954.7971, 17666.12
955.2792, 17688.34
955.7613, 17710.77
956.2434, 17730.78
956.7255, 17743.46
957.2076, 17738.24
957.6898, 17716.54
958.1719, 17739.26
958.6540, 17805.71
959.1361, 17857.59
959.6182, 17828.96
960.1003, 17788.13
960.5825, 17806.51
961.0646, 17874.43
961.5467, 17921.88
962.0288, 17925.56
962.5109, 17923.03
962.9930, 17920.43
963.4752, 17918.93
963.9573, 17924.08
964.4394, 17934.15
964.9215, 17937.44
965.4036, 17925.20
965.8857, 17915.02
966.3679, 17922.21
966.8500, 17939.48
967.3321, 17957.21
967.8142, 17965.38
968.2963, 17994.24
968.7784, 18058.10
969.2606, 18113.49
969.7427, 18100.96
970.2248, 18042.18
970.7069, 18017.17
971.1890, 18031.79
971.6711, 18055.05
972.1533, 18073.23
972.6354, 18087.72
973.1175, 18100.89
973.5996, 18112.44
974.0817, 18108.15
974.5638, 18078.70
975.0460, 18067.41
975.5281, 18100.14
976.0102, 18155.11
976.4923, 18188.01
976.9744, 18204.02
977.4565, 18218.43
977.9387, 18225.34
978.4208, 18246.44
978.9029, 18315.28
979.3850, 18389.83
979.8671, 18406.29
980.3492, 18350.35
980.8314, 18321.05
981.3135, 18331.94
981.7956, 18357.99
982.2777, 18362.66
982.7598, 18369.03
983.2419, 18417.68
983.7241, 18520.69
984.2062, 18612.71
984.6883, 18676.69
985.1704, 18721.41
985.6525, 18744.46
986.1346, 18749.13
986.6168, 18768.79
987.0989, 18803.38
987.5810, 18850.48
988.0631, 18925.57
988.5452, 18998.60
989.0273, 19025.11
989.5095, 19027.05
989.9916, 19060.94
990.4737, 19154.94
990.9558, 19256.16
991.4379, 19359.95
991.9200, 19464.99
992.4022, 19567.16
992.8843, 19667.51
993.3664, 19771.74
993.8485, 19877.66
994.3306, 20001.79
994.8127, 20159.65
995.2949, 20338.32
995.7770, 20518.26
996.2591, 20688.34
996.7412, 20933.66
997.2233, 21268.04
997.7054, 21618.84
998.1876, 21917.09
998.6697, 22209.47
999.1518, 22607.03
999.6339, 23098.43
1000.116, 23640.78
1000.598, 24218.77
1001.080, 24845.87
1001.562, 25514.19
1002.044, 26243.31
1002.527, 27107.51
1003.009, 28108.22
1003.491, 29126.67
1003.973, 30119.68
1004.455, 31138.37
1004.937, 32254.70
1005.419, 33404.82
1005.901, 34483.32
1006.384, 35442.73
1006.866, 36449.17
1007.348, 37567.08
1007.830, 38658.31
1008.312, 39665.95
1008.794, 40579.44
1009.276, 41378.27
1009.758, 42053.09
1010.240, 42559.03
1010.723, 42948.22
1011.205, 43082.95
1011.687, 42876.04
1012.169, 42333.90
1012.651, 41514.19
1013.133, 40375.50
1013.615, 39068.98
1014.097, 37586.08
1014.580, 36017.17
1015.062, 34450.70
1015.544, 32922.28
1016.026, 31487.20
1016.508, 30164.21
1016.990, 28939.66
1017.472, 27778.72
1017.954, 26751.71
1018.436, 25900.24
1018.919, 25226.31
1019.401, 24636.83
1019.883, 24131.87
1020.365, 23694.79
1020.847, 23318.23
1021.329, 23003.15
1021.811, 22771.10
1022.293, 22601.04
1022.776, 22436.02
1023.258, 22251.07
1023.740, 22096.01
1024.222, 21983.20
1024.704, 21888.91
1025.186, 21776.92
1025.668, 21656.40
1026.150, 21564.16
1026.632, 21505.84
1027.115, 21460.63
1027.597, 21423.35
1028.079, 21388.89
1028.561, 21359.54
1029.043, 21334.10
1029.525, 21271.46
1030.007, 21167.06
1030.489, 21073.76
1030.972, 21034.52
1031.454, 20999.00
1031.936, 20881.74
1032.418, 20714.61
1032.900, 20567.90
1033.382, 20481.21
1033.864, 20389.28
1034.346, 20281.95
1034.828, 20171.52
1035.311, 20071.75
1035.793, 19981.71
1036.275, 19901.98
1036.757, 19831.94
1037.239, 19768.17
1037.721, 19715.17
1038.203, 19661.35
1038.685, 19604.04
1039.167, 19541.03
1039.650, 19447.59
1040.132, 19311.32
1040.614, 19202.69
1041.096, 19152.39
1041.578, 19133.84
1042.060, 19120.20
1042.542, 19105.27
1043.024, 19074.15
1043.507, 18998.57
1043.989, 18957.04
1044.471, 18989.28
1044.953, 19028.83
1045.435, 19025.51
1045.917, 18981.68
1046.399, 18915.96
1046.881, 18830.85
1047.364, 18763.45
1047.846, 18752.47
1048.328, 18755.24
1048.810, 18738.05
1049.292, 18709.14
1049.774, 18709.62
1050.256, 18753.37
1050.738, 18775.83
1051.220, 18759.14
1051.703, 18729.81
1052.185, 18730.94
1052.667, 18744.50
1053.149, 18737.25
1053.631, 18696.75
1054.113, 18663.64
1054.595, 18647.42
1055.077, 18642.97
1055.559, 18651.18
1056.042, 18669.72
1056.524, 18691.57
1057.006, 18713.42
1057.488, 18708.33
1057.970, 18619.72
1058.452, 18542.87
1058.934, 18551.21
1059.416, 18608.38
1059.899, 18644.34
1060.381, 18654.13
1060.863, 18652.62
1061.345, 18638.37
1061.827, 18624.03
1062.309, 18624.57
1062.791, 18632.33
1063.273, 18629.30
1063.755, 18615.00
1064.238, 18627.26
1064.720, 18721.81
1065.202, 18782.81
1065.684, 18760.75
1066.166, 18693.02
1066.648, 18690.38
1067.130, 18739.17
1067.612, 18776.49
1068.094, 18782.22
1068.577, 18772.15
1069.059, 18744.16
1069.541, 18712.70
1070.023, 18689.62
1070.505, 18673.38
1070.987, 18680.36
1071.469, 18713.57
1071.951, 18741.38
1072.434, 18729.71
1072.916, 18709.71
1073.398, 18723.59
1073.880, 18761.63
1074.362, 18787.76
1074.844, 18788.18
1075.326, 18786.96
1075.808, 18786.61
1076.291, 18786.33
1076.773, 18789.70
1077.255, 18791.81
1077.737, 18768.97
1078.219, 18715.69
1078.701, 18688.19
1079.183, 18754.51
1079.665, 18813.83
1080.147, 18809.39
1080.630, 18754.45
1081.112, 18726.35
1081.594, 18724.56
1082.076, 18734.80
1082.558, 18758.92
1083.040, 18779.16
1083.522, 18768.81
1084.004, 18749.74
1084.486, 18753.45
1084.969, 18795.77
1085.451, 18823.00
1085.933, 18831.47
1086.415, 18837.78
1086.897, 18859.25
1087.379, 18884.61
1087.861, 18891.81
1088.343, 18884.26
1088.826, 18878.01
1089.308, 18886.54
1089.790, 18885.62
1090.272, 18867.14
1090.754, 18842.23
1091.236, 18827.32
1091.718, 18821.22
1092.200, 18819.22
1092.682, 18820.91
1093.165, 18823.10
1093.647, 18814.12
1094.129, 18814.49
1094.611, 18846.92
1095.093, 18903.04
1095.575, 18920.25
1096.057, 18897.17
1096.539, 18867.58
1097.022, 18838.45
1097.504, 18819.95
1097.986, 18819.59
1098.468, 18838.05
1098.950, 18882.46
1099.432, 18987.65
1099.914, 19017.27
1100.396, 18948.86
1100.879, 18876.25
1101.361, 18876.29
1101.843, 18914.51
1102.325, 18928.92
1102.807, 18922.03
1103.289, 18905.85
1103.771, 18846.38
1104.253, 18836.38
1104.735, 18919.10
1105.218, 19019.45
1105.700, 19017.05
1106.182, 18936.46
1106.664, 18894.09
1107.146, 18902.66
1107.628, 18930.93
1108.110, 18989.90
1108.592, 19032.33
1109.074, 19017.01
1109.557, 18964.02
1110.039, 18960.20
1110.521, 19006.36
1111.003, 19032.20
1111.485, 19008.53
1111.967, 18984.24
1112.449, 19025.75
1112.931, 19080.33
1113.414, 19082.23
1113.896, 19007.97
1114.378, 18976.47
1114.860, 18995.42
1115.342, 19023.73
1115.824, 19040.98
1116.306, 19051.31
1116.788, 19055.85
1117.271, 19059.28
1117.753, 19072.19
1118.235, 19123.40
1118.717, 19141.59
1119.199, 19106.99
1119.681, 19068.66
1120.163, 19087.85
1120.645, 19140.51
1121.127, 19145.43
1121.609, 19105.77
1122.092, 19085.96
1122.574, 19151.93
1123.056, 19201.67
1123.538, 19197.85
1124.020, 19162.07
1124.502, 19127.99
1124.984, 19097.95
1125.466, 19098.35
1125.949, 19138.00
1126.431, 19172.57
1126.913, 19164.87
1127.395, 19145.80
1127.877, 19139.88
1128.359, 19144.64
1128.841, 19129.43
1129.323, 19092.21
1129.806, 19070.73
1130.288, 19079.64
1130.770, 19107.47
1131.252, 19160.52
1131.734, 19217.13
1132.216, 19246.68
1132.698, 19239.54
1133.180, 19228.45
1133.662, 19211.84
1134.145, 19198.24
1134.627, 19198.76
1135.109, 19201.71
1135.591, 19180.74
1136.073, 19147.55
1136.555, 19132.35
1137.037, 19159.14
1137.519, 19182.94
1138.001, 19203.17
1138.484, 19215.42
1138.966, 19201.70
1139.448, 19179.73
1139.930, 19209.20
1140.412, 19284.31
1140.894, 19324.10
1141.376, 19248.31
1141.858, 19194.56
1142.341, 19207.11
1142.823, 19251.42
1143.305, 19262.44
1143.787, 19248.52
1144.269, 19249.95
1144.751, 19275.04
1145.233, 19297.16
1145.715, 19302.96
1146.198, 19298.88
1146.680, 19283.46
1147.162, 19262.42
1147.644, 19268.56
1148.126, 19299.35
1148.608, 19318.35
1149.090, 19307.97
1149.572, 19299.64
1150.054, 19324.62
1150.536, 19357.65
1151.019, 19376.19
1151.501, 19379.69
1151.983, 19362.15
1152.465, 19321.78
1152.947, 19302.18
1153.429, 19338.82
1153.911, 19393.29
1154.393, 19440.22
1154.876, 19475.85
1155.358, 19489.73
1155.840, 19468.63
1156.322, 19476.44
1156.804, 19523.85
1157.286, 19547.84
1157.768, 19465.42
1158.250, 19352.93
1158.733, 19293.55
1159.215, 19287.64
1159.697, 19330.34
1160.179, 19472.03
1160.661, 19539.82
1161.143, 19496.72
1161.625, 19424.11
1162.107, 19406.98
1162.589, 19428.55
1163.072, 19476.11
1163.554, 19544.26
1164.036, 19575.23
1164.518, 19526.30
1165.000, 19487.98
1165.482, 19486.25
1165.964, 19497.80
1166.446, 19467.09
1166.928, 19419.93
1167.411, 19420.03
1167.893, 19486.23
1168.375, 19547.53
1168.857, 19591.75
1169.339, 19611.80
1169.821, 19597.25
1170.303, 19561.22
1170.785, 19537.49
1171.268, 19524.96
1171.750, 19518.85
1172.232, 19515.80
1172.714, 19524.25
1173.196, 19552.54
1173.678, 19589.97
1174.160, 19636.80
1174.642, 19688.14
1175.125, 19709.39
1175.607, 19701.66
1176.089, 19669.13
1176.571, 19571.90
1177.053, 19505.64
1177.535, 19535.83
1178.017, 19600.18
1178.499, 19646.93
1178.981, 19676.46
1179.464, 19689.76
1179.946, 19687.89
1180.428, 19683.62
1180.910, 19672.39
1181.392, 19674.66
1181.874, 19717.86
1182.356, 19773.53
1182.838, 19800.53
1183.320, 19798.69
1183.803, 19767.28
1184.285, 19704.82
1184.767, 19662.15
1185.249, 19703.06
1185.731, 19751.94
1186.213, 19756.43
1186.695, 19726.82
1187.177, 19687.96
1187.660, 19637.09
1188.142, 19623.34
1188.624, 19657.60
1189.106, 19706.67
1189.588, 19765.79
1190.070, 19807.29
1190.552, 19797.50
1191.034, 19744.32
1191.516, 19705.87
1191.999, 19681.86
1192.481, 19675.23
1192.963, 19687.37
1193.445, 19713.40
1193.927, 19765.34
1194.409, 19817.27
1194.891, 19836.26
1195.373, 19819.79
1195.855, 19831.58
1196.338, 19877.81
1196.820, 19896.78
1197.302, 19853.46
1197.784, 19795.99
1198.266, 19763.18
1198.748, 19754.86
1199.230, 19781.32
1199.712, 19854.77
1200.195, 19873.41
1200.677, 19827.71
1201.159, 19795.03
1201.641, 19829.64
1202.123, 19881.86
1202.605, 19883.22
1203.087, 19867.16
1203.569, 19896.35
1204.052, 20016.50
1204.534, 20054.11
1205.016, 19998.46
1205.498, 19926.20
1205.980, 19868.25
1206.462, 19839.55
1206.944, 19883.70
1207.426, 19965.85
1207.908, 20001.97
1208.391, 19967.81
1208.873, 19937.73
1209.355, 19912.89
1209.837, 19901.09
1210.319, 19914.31
1210.801, 19939.95
1211.283, 19968.02
1211.765, 19996.27
1212.247, 20018.77
1212.730, 20038.82
1213.212, 20037.02
1213.694, 20004.30
1214.176, 19983.70
1214.658, 20041.39
1215.140, 20116.37
1215.622, 20133.56
1216.104, 20099.54
1216.587, 20077.85
1217.069, 20076.71
1217.551, 20074.35
1218.033, 20067.23
1218.515, 20058.29
1218.997, 20045.91
1219.479, 20036.90
1219.961, 20039.70
1220.443, 20054.73
1220.926, 20075.92
1221.408, 20107.76
1221.890, 20122.59
1222.372, 20109.23
1222.854, 20093.43
1223.336, 20109.59
1223.818, 20138.34
1224.300, 20156.92
1224.782, 20162.32
1225.265, 20177.24
1225.747, 20208.53
1226.229, 20213.24
1226.711, 20168.95
1227.193, 20118.35
1227.675, 20106.18
1228.157, 20121.43
1228.639, 20157.84
1229.122, 20217.60
1229.604, 20260.88
1230.086, 20288.71
1230.568, 20293.52
1231.050, 20266.63
1231.532, 20227.60
1232.014, 20182.77
1232.496, 20148.12
1232.979, 20146.76
1233.461, 20183.05
1233.943, 20221.72
1234.425, 20263.98
1234.907, 20292.62
1235.389, 20293.35
1235.871, 20286.90
1236.353, 20292.44
1236.835, 20304.25
1237.318, 20317.82
1237.800, 20336.14
1238.282, 20320.17
1238.764, 20266.81
1239.246, 20246.94
1239.728, 20334.95
1240.210, 20428.32
1240.692, 20426.67
1241.175, 20384.52
1241.657, 20381.02
1242.139, 20429.77
1242.621, 20430.65
1243.103, 20383.18
1243.585, 20343.91
1244.067, 20368.09
1244.549, 20389.57
1245.031, 20331.04
1245.514, 20261.90
1245.996, 20287.04
1246.478, 20419.27
1246.960, 20485.48
1247.442, 20485.57
1247.924, 20476.47
1248.406, 20497.18
1248.888, 20515.99
1249.370, 20512.08
1249.853, 20497.53
1250.335, 20488.70
1250.817, 20485.35
1251.299, 20475.34
1251.781, 20458.48
1252.263, 20439.23
1252.745, 20397.22
1253.227, 20381.73
1253.710, 20439.09
1254.192, 20515.09
1254.674, 20536.65
1255.156, 20512.93
1255.638, 20513.28
1256.120, 20539.31
1256.602, 20557.75
1257.084, 20541.56
1257.567, 20524.58
1258.049, 20509.71
1258.531, 20508.77
1259.013, 20557.51
1259.495, 20633.93
1259.977, 20646.07
1260.459, 20593.54
1260.941, 20553.14
1261.423, 20580.63
1261.906, 20593.84
1262.388, 20563.98
1262.870, 20529.49
1263.352, 20552.18
1263.834, 20611.06
1264.316, 20668.70
1264.798, 20718.40
1265.280, 20732.71
1265.762, 20664.57
1266.245, 20623.99
1266.727, 20633.80
1267.209, 20669.87
1267.691, 20720.56
1268.173, 20764.59
1268.655, 20749.92
1269.137, 20678.27
1269.619, 20659.20
1270.102, 20729.85
1270.584, 20778.12
1271.066, 20776.90
1271.548, 20758.91
1272.030, 20759.92
1272.512, 20771.04
1272.994, 20788.63
1273.476, 20809.26
1273.958, 20802.38
1274.441, 20758.42
1274.923, 20731.98
1275.405, 20736.18
1275.887, 20756.32
1276.369, 20800.18
1276.851, 20834.62
1277.333, 20811.42
1277.815, 20743.92
1278.297, 20724.88
1278.780, 20756.83
1279.262, 20786.23
1279.744, 20800.31
1280.226, 20812.76
1280.708, 20830.68
1281.190, 20855.62
1281.672, 20900.97
1282.154, 20952.09
1282.637, 20937.95
1283.119, 20868.84
1283.601, 20849.78
1284.083, 20909.82
1284.565, 20968.46
1285.047, 20972.99
1285.529, 20967.18
1286.011, 20971.38
1286.494, 20982.97
1286.976, 21006.37
1287.458, 21030.64
1287.940, 21004.81
1288.422, 20907.73
1288.904, 20853.05
1289.386, 20925.30
1289.868, 20990.95
1290.350, 21004.83
1290.833, 20990.52
1291.315, 20992.21
1291.797, 21001.68
1292.279, 21000.30
1292.761, 20982.31
1293.243, 20976.57
1293.725, 20989.84
1294.207, 21006.02
1294.689, 21023.64
1295.172, 21032.94
1295.654, 21009.40
1296.136, 20974.49
1296.618, 20955.24
1297.100, 20956.98
1297.582, 20969.65
1298.064, 20993.19
1298.546, 21032.62
1299.029, 21099.61
1299.511, 21150.39
1299.993, 21111.15
1300.475, 21053.41
1300.957, 21064.00
1301.439, 21127.98
1301.921, 21122.91
1302.403, 21051.30
1302.885, 20986.39
1303.368, 20943.47
1303.850, 20931.22
1304.332, 20961.22
1304.814, 21023.10
1305.296, 21124.60
1305.778, 21241.29
1306.260, 21286.06
1306.742, 21270.22
1307.224, 21235.62
1307.707, 21187.95
1308.189, 21147.67
1308.671, 21111.40
1309.153, 21105.57
1309.635, 21154.75
1310.117, 21221.72
1310.599, 21217.59
1311.081, 21173.84
1311.564, 21153.50
1312.046, 21171.33
1312.528, 21192.31
1313.010, 21213.54
1313.492, 21235.91
1313.974, 21265.54
1314.456, 21281.48
1314.938, 21235.02
##END=



