##NAMES=Hedenbergite
##RRUFFID=R070136
##IDEAL CHEMISTRY=CaFe^2+^Si_2_O_6_
##LOCALITY=Vesper Peak, Snohomish County, Washington, USA
##OWNER=RRUFF
##SOURCE=Mark Mauthner
##DESCRIPTION=Brownish green prismatic crystals with transparent sections
##STATUS=The identification of this mineral has been made only by X-ray diffraction.
##URL=rruff.info/R070136
114.0229, 296.7510
114.5050, 330.6722
114.9871, 366.7488
115.4692, 398.2567
115.9514, 421.6306
116.4335, 453.9090
116.9156, 504.8675
117.3977, 569.3344
117.8798, 637.4647
118.3619, 697.3255
118.8441, 763.3602
119.3262, 846.7638
119.8083, 952.7049
120.2904, 1072.051
120.7725, 1197.105
121.2546, 1329.445
121.7368, 1476.700
122.2189, 1641.872
122.7010, 1824.803
123.1831, 2028.368
123.6652, 2271.789
124.1473, 2525.652
124.6295, 2777.153
125.1116, 3028.243
125.5937, 3224.874
126.0758, 3323.047
126.5579, 3327.281
127.0400, 3251.621
127.5222, 3064.813
128.0043, 2805.512
128.4864, 2554.959
128.9685, 2315.717
129.4506, 2090.122
129.9328, 1870.677
130.4149, 1658.769
130.8970, 1474.502
131.3791, 1339.722
131.8612, 1248.342
132.3433, 1168.953
132.8255, 1096.947
133.3076, 1033.501
133.7897, 983.5471
134.2718, 948.2141
134.7539, 919.6742
135.2360, 890.8591
135.7182, 861.1672
136.2003, 835.7600
136.6824, 814.4175
137.1645, 797.5098
137.6466, 791.6859
138.1287, 798.7285
138.6109, 813.6625
139.0930, 830.9953
139.5751, 851.7795
140.0572, 871.3834
140.5393, 885.4117
141.0214, 889.6490
141.5036, 909.3184
141.9857, 950.7380
142.4678, 1004.585
142.9499, 1049.628
143.4320, 1076.281
143.9141, 1107.230
144.3963, 1153.067
144.8784, 1221.916
145.3605, 1292.042
145.8426, 1370.688
146.3247, 1452.853
146.8068, 1511.494
147.2890, 1546.212
147.7711, 1557.064
148.2532, 1543.507
148.7353, 1487.799
149.2174, 1428.746
149.6995, 1366.454
150.1817, 1298.779
150.6638, 1245.756
151.1459, 1211.828
151.6280, 1190.863
152.1101, 1177.047
152.5922, 1172.386
153.0744, 1172.665
153.5565, 1176.586
154.0386, 1183.411
154.5207, 1196.317
155.0028, 1221.770
155.4849, 1252.703
155.9671, 1277.916
156.4492, 1294.433
156.9313, 1305.368
157.4134, 1312.079
157.8955, 1315.442
158.3777, 1313.466
158.8598, 1297.007
159.3419, 1273.155
159.8240, 1262.707
160.3061, 1281.556
160.7882, 1310.782
161.2704, 1337.811
161.7525, 1354.157
162.2346, 1373.703
162.7167, 1400.059
163.1988, 1433.835
163.6809, 1476.415
164.1631, 1536.081
164.6452, 1602.476
165.1273, 1665.358
165.6094, 1723.537
166.0915, 1774.591
166.5736, 1820.245
167.0558, 1860.722
167.5379, 1884.650
168.0200, 1872.581
168.5021, 1840.813
168.9842, 1814.087
169.4663, 1795.186
169.9485, 1790.478
170.4306, 1807.242
170.9127, 1847.355
171.3948, 1901.538
171.8769, 1963.217
172.3590, 2032.943
172.8412, 2111.912
173.3233, 2203.108
173.8054, 2302.388
174.2875, 2403.037
174.7696, 2502.388
175.2517, 2608.065
175.7339, 2735.637
176.2160, 2880.941
176.6981, 3019.208
177.1802, 3146.423
177.6623, 3255.903
178.1444, 3334.625
178.6266, 3384.326
179.1087, 3398.108
179.5908, 3354.350
180.0729, 3256.226
180.5550, 3140.598
181.0371, 3032.049
181.5193, 2929.314
182.0014, 2831.559
182.4835, 2731.771
182.9656, 2639.385
183.4477, 2571.427
183.9298, 2528.730
184.4120, 2505.268
184.8941, 2495.487
185.3762, 2499.688
185.8583, 2519.993
186.3404, 2565.144
186.8225, 2627.567
187.3047, 2681.021
187.7868, 2723.146
188.2689, 2765.064
188.7510, 2827.346
189.2331, 2907.793
189.7152, 2978.359
190.1974, 3029.155
190.6795, 3059.638
191.1616, 3068.115
191.6437, 3055.808
192.1258, 3017.881
192.6080, 2943.370
193.0901, 2830.667
193.5722, 2699.066
194.0543, 2552.499
194.5364, 2392.559
195.0185, 2236.792
195.5007, 2086.169
195.9828, 1942.019
196.4649, 1809.529
196.9470, 1686.609
197.4291, 1576.349
197.9112, 1482.729
198.3934, 1406.317
198.8755, 1334.246
199.3576, 1263.860
199.8397, 1197.122
200.3218, 1141.871
200.8039, 1099.604
201.2861, 1063.582
201.7682, 1027.427
202.2503, 990.0274
202.7324, 961.1632
203.2145, 944.9574
203.6966, 939.3044
204.1788, 928.9917
204.6609, 912.3670
205.1430, 895.1980
205.6251, 883.6445
206.1072, 879.0295
206.5893, 874.0699
207.0715, 866.5387
207.5536, 856.6464
208.0357, 849.7384
208.5178, 847.3662
208.9999, 845.4824
209.4820, 837.8501
209.9642, 821.3045
210.4463, 809.3511
210.9284, 807.4438
211.4105, 816.7592
211.8926, 821.6066
212.3747, 819.5853
212.8569, 815.7327
213.3390, 818.0066
213.8211, 828.6657
214.3032, 839.6628
214.7853, 848.5217
215.2674, 855.0781
215.7496, 859.5687
216.2317, 860.6438
216.7138, 860.6471
217.1959, 863.1518
217.6780, 866.4339
218.1601, 875.8293
218.6423, 895.9326
219.1244, 934.3195
219.6065, 959.6494
220.0886, 965.7571
220.5707, 961.5751
221.0528, 970.0806
221.5350, 997.3505
222.0171, 1026.789
222.4992, 1050.188
222.9813, 1062.507
223.4634, 1081.139
223.9455, 1106.710
224.4277, 1139.128
224.9098, 1176.444
225.3919, 1220.166
225.8740, 1267.322
226.3561, 1316.993
226.8382, 1368.718
227.3204, 1423.274
227.8025, 1481.852
228.2846, 1543.016
228.7667, 1600.615
229.2488, 1648.215
229.7310, 1699.118
230.2131, 1764.749
230.6952, 1858.784
231.1773, 1938.243
231.6594, 2003.138
232.1415, 2051.742
232.6237, 2073.641
233.1058, 2069.446
233.5879, 2037.808
234.0700, 1974.080
234.5521, 1860.787
235.0342, 1750.736
235.5164, 1651.798
235.9985, 1563.379
236.4806, 1473.503
236.9627, 1378.663
237.4448, 1287.821
237.9269, 1206.089
238.4091, 1128.446
238.8912, 1071.400
239.3733, 1043.901
239.8554, 1045.689
240.3375, 1037.096
240.8196, 1011.830
241.3018, 982.4821
241.7839, 960.1995
242.2660, 947.3321
242.7481, 937.1613
243.2302, 929.0505
243.7123, 923.0904
244.1945, 916.7256
244.6766, 908.0612
245.1587, 900.8158
245.6408, 899.5059
246.1229, 908.8641
246.6050, 914.9751
247.0872, 913.0117
247.5693, 901.6927
248.0514, 898.4108
248.5335, 907.6935
249.0156, 920.9857
249.4977, 927.6330
249.9799, 922.5665
250.4620, 920.9825
250.9441, 928.1317
251.4262, 945.6068
251.9083, 956.8027
252.3904, 959.4917
252.8726, 957.8224
253.3547, 955.7769
253.8368, 950.1002
254.3189, 950.7275
254.8010, 961.7694
255.2831, 984.9781
255.7653, 1005.919
256.2474, 1024.910
256.7295, 1041.162
257.2116, 1052.460
257.6937, 1055.874
258.1758, 1060.763
258.6580, 1069.607
259.1401, 1082.618
259.6222, 1098.898
260.1043, 1120.721
260.5864, 1143.445
261.0685, 1159.375
261.5507, 1165.507
262.0328, 1172.056
262.5149, 1181.337
262.9970, 1193.026
263.4791, 1210.983
263.9612, 1237.804
264.4434, 1268.397
264.9255, 1294.931
265.4076, 1315.727
265.8897, 1337.049
266.3718, 1360.675
266.8539, 1386.245
267.3361, 1416.393
267.8182, 1453.449
268.3003, 1491.809
268.7824, 1522.531
269.2645, 1542.791
269.7466, 1564.162
270.2288, 1590.927
270.7109, 1623.233
271.1930, 1658.255
271.6751, 1697.522
272.1572, 1737.895
272.6393, 1774.500
273.1215, 1806.538
273.6036, 1838.361
274.0857, 1872.562
274.5678, 1909.426
275.0499, 1940.861
275.5320, 1966.077
276.0142, 1987.819
276.4963, 2008.872
276.9784, 2028.550
277.4605, 2052.499
277.9426, 2084.433
278.4247, 2123.999
278.9069, 2161.208
279.3890, 2194.345
279.8711, 2228.311
280.3532, 2272.318
280.8354, 2327.406
281.3175, 2380.301
281.7996, 2422.590
282.2817, 2455.817
282.7638, 2497.606
283.2459, 2549.561
283.7281, 2605.454
284.2102, 2654.900
284.6923, 2697.828
285.1744, 2746.701
285.6565, 2810.512
286.1386, 2885.993
286.6208, 2948.507
287.1029, 2995.030
287.5850, 3040.802
288.0671, 3107.908
288.5492, 3194.900
289.0313, 3283.403
289.5135, 3364.771
289.9956, 3441.548
290.4777, 3525.225
290.9598, 3616.906
291.4419, 3711.066
291.9240, 3799.056
292.4062, 3883.006
292.8883, 3972.647
293.3704, 4076.688
293.8525, 4188.919
294.3346, 4297.173
294.8167, 4400.418
295.2989, 4500.465
295.7810, 4592.758
296.2631, 4680.992
296.7452, 4781.613
297.2273, 4900.764
297.7094, 5035.092
298.1916, 5184.649
298.6737, 5348.559
299.1558, 5515.838
299.6379, 5670.448
300.1200, 5819.155
300.6021, 5982.893
301.0843, 6181.175
301.5664, 6391.031
302.0485, 6579.051
302.5306, 6747.342
303.0127, 6913.738
303.4948, 7103.285
303.9770, 7300.590
304.4591, 7484.147
304.9412, 7664.218
305.4233, 7811.989
305.9054, 7897.894
306.3875, 7923.328
306.8697, 7905.393
307.3518, 7857.507
307.8339, 7772.370
308.3160, 7639.979
308.7981, 7437.257
309.2802, 7203.742
309.7624, 6969.093
310.2445, 6731.677
310.7266, 6488.165
311.2087, 6232.104
311.6908, 5968.476
312.1729, 5700.628
312.6551, 5403.069
313.1372, 5126.360
313.6193, 4906.556
314.1014, 4734.819
314.5835, 4577.640
315.0656, 4419.080
315.5478, 4267.989
316.0299, 4130.024
316.5120, 4001.205
316.9941, 3892.407
317.4762, 3812.750
317.9583, 3758.073
318.4405, 3714.881
318.9226, 3682.427
319.4047, 3658.376
319.8868, 3640.831
320.3689, 3624.519
320.8510, 3622.380
321.3332, 3637.409
321.8153, 3668.746
322.2974, 3714.317
322.7795, 3784.998
323.2616, 3861.097
323.7437, 3932.974
324.2259, 3990.260
324.7080, 4060.469
325.1901, 4150.210
325.6722, 4254.568
326.1543, 4363.276
326.6364, 4475.657
327.1186, 4593.229
327.6007, 4716.793
328.0828, 4847.423
328.5649, 4981.298
329.0470, 5118.444
329.5291, 5259.039
330.0113, 5404.620
330.4934, 5567.764
330.9755, 5720.758
331.4576, 5852.238
331.9397, 5953.195
332.4218, 6070.862
332.9040, 6215.568
333.3861, 6369.679
333.8682, 6507.886
334.3503, 6616.840
334.8324, 6741.521
335.3145, 6902.343
335.7967, 7102.434
336.2788, 7269.461
336.7609, 7396.111
337.2430, 7504.002
337.7251, 7619.217
338.2072, 7753.394
338.6894, 7852.342
339.1715, 7911.285
339.6536, 7926.959
340.1357, 7875.487
340.6178, 7753.387
341.0999, 7574.257
341.5821, 7336.079
342.0642, 7041.920
342.5463, 6728.400
343.0284, 6401.084
343.5105, 6062.332
343.9926, 5718.951
344.4748, 5370.282
344.9569, 5044.893
345.4390, 4774.914
345.9211, 4553.571
346.4032, 4342.687
346.8853, 4135.598
347.3675, 3938.030
347.8496, 3763.501
348.3317, 3612.057
348.8138, 3477.335
349.2959, 3360.838
349.7780, 3259.853
350.2602, 3162.791
350.7423, 3067.066
351.2244, 2981.307
351.7065, 2915.623
352.1887, 2867.833
352.6708, 2833.036
353.1529, 2815.013
353.6350, 2805.579
354.1171, 2792.195
354.5992, 2771.906
355.0814, 2760.217
355.5635, 2769.899
356.0456, 2796.612
356.5277, 2832.709
357.0098, 2871.608
357.4919, 2921.000
357.9741, 2990.045
358.4562, 3079.114
358.9383, 3172.129
359.4204, 3248.471
359.9025, 3327.687
360.3846, 3431.568
360.8668, 3586.367
361.3489, 3750.207
361.8310, 3897.696
362.3131, 4032.156
362.7952, 4190.370
363.2773, 4385.564
363.7595, 4605.822
364.2416, 4842.422
364.7237, 5093.719
365.2058, 5362.461
365.6879, 5649.887
366.1700, 5954.994
366.6522, 6267.993
367.1343, 6578.449
367.6164, 6903.498
368.0985, 7253.954
368.5806, 7634.252
369.0627, 8032.758
369.5449, 8458.270
370.0270, 8897.768
370.5091, 9344.542
370.9912, 9821.182
371.4733, 10276.41
371.9554, 10689.64
372.4376, 11062.81
372.9197, 11401.61
373.4018, 11723.37
373.8839, 11990.32
374.3660, 12152.53
374.8481, 12204.11
375.3303, 12165.50
375.8124, 12042.01
376.2945, 11834.57
376.7766, 11525.04
377.2587, 11102.15
377.7408, 10612.69
378.2230, 10087.41
378.7051, 9530.084
379.1872, 8958.647
379.6693, 8372.859
380.1514, 7781.973
380.6335, 7229.184
381.1157, 6709.722
381.5978, 6229.236
382.0799, 5796.010
382.5620, 5405.178
383.0441, 5040.240
383.5262, 4695.214
384.0084, 4374.327
384.4905, 4075.403
384.9726, 3799.333
385.4547, 3552.484
385.9368, 3339.276
386.4189, 3152.309
386.9011, 2981.380
387.3832, 2824.620
387.8653, 2679.247
388.3474, 2542.013
388.8295, 2413.364
389.3116, 2296.639
389.7938, 2196.194
390.2759, 2107.731
390.7580, 2028.955
391.2401, 1960.332
391.7222, 1897.321
392.2043, 1841.878
392.6865, 1789.447
393.1686, 1734.311
393.6507, 1669.871
394.1328, 1608.571
394.6149, 1554.422
395.0970, 1507.222
395.5792, 1464.596
396.0613, 1425.312
396.5434, 1391.041
397.0255, 1362.351
397.5076, 1347.520
397.9897, 1328.898
398.4719, 1303.013
398.9540, 1272.403
399.4361, 1244.209
399.9182, 1219.789
400.4003, 1196.293
400.8824, 1172.543
401.3646, 1147.714
401.8467, 1124.745
402.3288, 1103.331
402.8109, 1084.074
403.2930, 1068.067
403.7751, 1055.599
404.2573, 1045.932
404.7394, 1041.304
405.2215, 1041.109
405.7036, 1027.927
406.1857, 997.7061
406.6678, 967.1494
407.1500, 954.8310
407.6321, 960.7729
408.1142, 964.4783
408.5963, 961.5552
409.0784, 953.8338
409.5605, 944.4501
410.0427, 933.4849
410.5248, 923.6876
411.0069, 918.2722
411.4890, 915.4307
411.9711, 909.5221
412.4532, 898.5912
412.9354, 888.1819
413.4175, 887.9260
413.8996, 894.1356
414.3817, 896.4927
414.8638, 885.3792
415.3459, 870.0936
415.8281, 860.3710
416.3102, 856.9178
416.7923, 855.0176
417.2744, 851.1606
417.7565, 847.2385
418.2386, 845.6464
418.7208, 843.6714
419.2029, 847.4465
419.6850, 867.1103
420.1671, 898.9479
420.6492, 917.1896
421.1313, 902.8203
421.6135, 879.3284
422.0956, 860.7019
422.5777, 851.8472
423.0598, 843.9104
423.5420, 832.6285
424.0241, 821.7807
424.5062, 820.3858
424.9883, 835.8647
425.4704, 852.6923
425.9525, 866.9714
426.4347, 878.7050
426.9168, 887.1729
427.3989, 890.9579
427.8810, 892.9662
428.3631, 896.4180
428.8452, 901.2886
429.3274, 907.7245
429.8095, 915.9999
430.2916, 925.8332
430.7737, 935.0829
431.2558, 943.3240
431.7379, 952.7903
432.2201, 964.4274
432.7022, 978.3781
433.1843, 997.7177
433.6664, 1024.700
434.1485, 1053.039
434.6306, 1071.879
435.1128, 1082.177
435.5949, 1090.135
436.0770, 1098.953
436.5591, 1107.786
437.0412, 1115.289
437.5233, 1121.533
438.0055, 1125.284
438.4876, 1129.310
438.9697, 1129.499
439.4518, 1119.129
439.9339, 1085.119
440.4160, 1048.381
440.8982, 1024.684
441.3803, 1011.881
441.8624, 994.6391
442.3445, 957.6570
442.8266, 919.0891
443.3087, 892.0380
443.7909, 884.9181
444.2730, 879.3439
444.7551, 874.7922
445.2372, 868.8074
445.7193, 856.2278
446.2014, 824.8096
446.6836, 798.1108
447.1657, 783.2420
447.6478, 782.2403
448.1299, 782.3961
448.6120, 786.5831
449.0941, 789.3336
449.5763, 784.0751
450.0584, 766.1550
450.5405, 752.7354
451.0226, 747.2281
451.5047, 748.1299
451.9868, 749.4330
452.4690, 751.3345
452.9511, 752.8204
453.4332, 752.7117
453.9153, 751.2076
454.3974, 751.9539
454.8795, 756.2643
455.3617, 759.7189
455.8438, 752.9371
456.3259, 738.4351
456.8080, 728.5922
457.2901, 733.7814
457.7722, 745.3228
458.2544, 749.8352
458.7365, 747.5219
459.2186, 742.6027
459.7007, 735.7863
460.1828, 729.0166
460.6649, 724.8340
461.1471, 724.7143
461.6292, 726.0691
462.1113, 728.1392
462.5934, 730.6121
463.0755, 732.6644
463.5576, 734.6244
464.0398, 735.6071
464.5219, 734.5413
465.0040, 730.2657
465.4861, 728.1906
465.9682, 729.8904
466.4503, 733.8486
466.9325, 738.6559
467.4146, 747.9820
467.8967, 752.9795
468.3788, 750.0767
468.8609, 740.8608
469.3430, 737.6555
469.8252, 743.6173
470.3073, 749.9704
470.7894, 750.9161
471.2715, 745.2148
471.7536, 741.7441
472.2357, 740.7905
472.7179, 742.3179
473.2000, 746.3765
473.6821, 752.9625
474.1642, 761.8075
474.6463, 774.9392
475.1284, 789.7660
475.6106, 797.3412
476.0927, 797.6642
476.5748, 799.2183
477.0569, 811.8461
477.5390, 830.1162
478.0211, 844.1885
478.5033, 850.7808
478.9854, 854.6221
479.4675, 854.8870
479.9496, 855.1579
480.4317, 864.2644
480.9138, 895.3573
481.3960, 929.4684
481.8781, 954.9036
482.3602, 969.6965
482.8423, 984.2172
483.3244, 998.5556
483.8065, 1015.528
484.2887, 1037.783
484.7708, 1069.593
485.2529, 1101.815
485.7350, 1131.688
486.2171, 1161.000
486.6992, 1197.650
487.1814, 1245.145
487.6635, 1294.140
488.1456, 1340.929
488.6277, 1385.022
489.1098, 1426.958
489.5919, 1464.818
490.0741, 1504.691
490.5562, 1557.751
491.0383, 1624.844
491.5204, 1687.263
492.0026, 1739.915
492.4847, 1785.320
492.9668, 1833.470
493.4489, 1883.402
493.9310, 1923.042
494.4131, 1946.520
494.8953, 1952.864
495.3774, 1937.135
495.8595, 1895.646
496.3416, 1845.059
496.8237, 1800.519
497.3058, 1755.553
497.7880, 1698.196
498.2701, 1612.025
498.7522, 1522.841
499.2343, 1442.579
499.7164, 1371.744
500.1985, 1307.721
500.6807, 1252.885
501.1628, 1204.073
501.6449, 1159.291
502.1270, 1121.231
502.6091, 1083.141
503.0912, 1037.756
503.5734, 994.5867
504.0555, 970.4976
504.5376, 975.9174
505.0197, 980.1532
505.5018, 975.5649
505.9839, 962.5578
506.4661, 945.2320
506.9482, 921.0005
507.4303, 900.4843
507.9124, 894.4908
508.3945, 901.9394
508.8766, 906.8049
509.3588, 905.8820
509.8409, 904.9913
510.3230, 915.2101
510.8051, 933.8214
511.2872, 949.3623
511.7693, 953.2353
512.2515, 952.6906
512.7336, 954.8650
513.2157, 960.0228
513.6978, 969.8705
514.1799, 988.5793
514.6620, 1010.915
515.1442, 1031.585
515.6263, 1046.233
516.1084, 1064.750
516.5905, 1095.826
517.0726, 1132.673
517.5547, 1161.458
518.0369, 1171.747
518.5190, 1182.450
519.0011, 1198.053
519.4832, 1218.691
519.9653, 1242.561
520.4474, 1274.101
520.9296, 1302.794
521.4117, 1319.519
521.8938, 1320.794
522.3759, 1327.845
522.8580, 1346.524
523.3401, 1366.164
523.8223, 1364.567
524.3044, 1341.998
524.7865, 1316.357
525.2686, 1297.650
525.7507, 1280.948
526.2328, 1251.205
526.7150, 1209.079
527.1971, 1169.276
527.6792, 1144.391
528.1613, 1129.061
528.6434, 1115.199
529.1255, 1101.482
529.6077, 1088.560
530.0898, 1077.477
530.5719, 1067.470
531.0540, 1056.895
531.5361, 1040.288
532.0182, 1027.781
532.5004, 1024.331
532.9825, 1030.178
533.4646, 1036.664
533.9467, 1043.629
534.4288, 1050.618
534.9109, 1057.402
535.3931, 1063.476
535.8752, 1070.067
536.3573, 1075.992
536.8394, 1083.561
537.3215, 1096.573
537.8036, 1115.085
538.2858, 1138.366
538.7679, 1166.527
539.2500, 1199.388
539.7321, 1235.634
540.2142, 1275.278
540.6964, 1322.048
541.1785, 1382.998
541.6606, 1452.403
542.1427, 1516.410
542.6248, 1571.368
543.1069, 1629.578
543.5891, 1702.750
544.0712, 1785.691
544.5533, 1870.251
545.0354, 1948.208
545.5175, 2032.067
545.9996, 2130.042
546.4818, 2240.624
546.9639, 2349.278
547.4460, 2445.301
547.9281, 2544.962
548.4102, 2656.938
548.8923, 2783.957
549.3745, 2915.999
549.8566, 3060.835
550.3387, 3203.165
550.8208, 3330.741
551.3029, 3449.542
551.7850, 3530.136
552.2672, 3570.905
552.7493, 3568.042
553.2314, 3503.720
553.7135, 3378.134
554.1956, 3224.636
554.6777, 3052.777
555.1599, 2867.836
555.6420, 2680.960
556.1241, 2491.389
556.6062, 2310.090
557.0883, 2145.905
557.5704, 1997.296
558.0526, 1863.174
558.5347, 1742.410
559.0168, 1636.561
559.4989, 1554.057
559.9810, 1487.941
560.4631, 1425.354
560.9453, 1362.695
561.4274, 1303.297
561.9095, 1247.213
562.3916, 1193.647
562.8737, 1151.437
563.3558, 1125.209
563.8380, 1105.604
564.3201, 1087.326
564.8022, 1070.797
565.2843, 1054.383
565.7664, 1037.907
566.2485, 1021.631
566.7307, 1003.770
567.2128, 984.8561
567.6949, 972.6422
568.1770, 974.8547
568.6591, 981.3884
569.1412, 970.4224
569.6234, 944.9534
570.1055, 923.3282
570.5876, 922.0102
571.0697, 928.1512
571.5518, 928.4207
572.0339, 919.9708
572.5161, 913.3593
572.9982, 917.3043
573.4803, 923.8052
573.9624, 924.5909
574.4445, 909.6451
574.9266, 898.9129
575.4088, 896.5554
575.8909, 900.0431
576.3730, 902.6234
576.8551, 904.0140
577.3372, 905.0419
577.8193, 906.1237
578.3015, 907.2252
578.7836, 907.5278
579.2657, 907.2767
579.7478, 905.0731
580.2299, 896.6317
580.7120, 884.3113
581.1942, 880.7786
581.6763, 889.7673
582.1584, 901.1385
582.6405, 903.1524
583.1226, 898.7147
583.6047, 893.8133
584.0869, 888.5389
584.5690, 885.7516
585.0511, 888.7621
585.5332, 896.4440
586.0153, 903.0699
586.4974, 903.3582
586.9796, 904.8962
587.4617, 913.2665
587.9438, 933.7548
588.4259, 943.2378
588.9080, 933.3376
589.3901, 919.8912
589.8723, 918.3747
590.3544, 932.2297
590.8365, 944.9656
591.3186, 955.2840
591.8007, 962.7260
592.2828, 963.7373
592.7650, 958.7905
593.2471, 958.4624
593.7292, 972.6183
594.2113, 992.3408
594.6934, 1000.534
595.1755, 997.9323
595.6577, 992.7710
596.1398, 986.9033
596.6219, 983.2204
597.1040, 985.1367
597.5862, 994.3329
598.0683, 1004.729
598.5504, 1016.099
599.0325, 1026.555
599.5146, 1033.795
599.9968, 1034.196
600.4789, 1035.571
600.9610, 1039.576
601.4431, 1044.943
601.9252, 1046.995
602.4073, 1043.353
602.8895, 1042.968
603.3716, 1050.194
603.8537, 1064.103
604.3358, 1078.054
604.8179, 1092.036
605.3000, 1104.836
605.7822, 1115.403
606.2643, 1123.896
606.7464, 1130.928
607.2285, 1136.266
607.7106, 1141.278
608.1927, 1147.171
608.6749, 1153.448
609.1570, 1159.249
609.6391, 1164.674
610.1212, 1169.247
610.6033, 1169.222
611.0854, 1167.481
611.5676, 1174.653
612.0497, 1204.774
612.5318, 1230.275
613.0139, 1240.445
613.4960, 1234.011
613.9781, 1237.880
614.4603, 1255.031
614.9424, 1275.199
615.4245, 1288.164
615.9066, 1294.584
616.3887, 1311.043
616.8708, 1341.304
617.3530, 1373.801
617.8351, 1393.938
618.3172, 1404.376
618.7993, 1411.336
619.2814, 1413.255
619.7635, 1416.731
620.2457, 1427.549
620.7278, 1444.312
621.2099, 1462.945
621.6920, 1482.617
622.1741, 1503.149
622.6563, 1525.416
623.1384, 1549.876
623.6205, 1570.746
624.1026, 1585.357
624.5847, 1599.102
625.0668, 1613.973
625.5490, 1628.053
626.0311, 1653.434
626.5132, 1694.359
626.9953, 1738.152
627.4774, 1763.621
627.9595, 1773.866
628.4417, 1795.631
628.9238, 1841.697
629.4059, 1893.934
629.8880, 1924.249
630.3701, 1939.802
630.8522, 1962.521
631.3344, 2008.659
631.8165, 2061.317
632.2986, 2110.594
632.7807, 2156.296
633.2628, 2200.565
633.7449, 2237.635
634.2271, 2278.925
634.7092, 2331.647
635.1913, 2399.172
635.6734, 2467.258
636.1555, 2531.471
636.6376, 2600.898
637.1198, 2689.093
637.6019, 2796.429
638.0840, 2896.192
638.5661, 2979.573
639.0482, 3062.281
639.5303, 3169.308
640.0125, 3298.928
640.4946, 3439.732
640.9767, 3583.645
641.4588, 3738.726
641.9409, 3907.514
642.4230, 4092.511
642.9052, 4297.683
643.3873, 4527.343
643.8694, 4777.571
644.3515, 5048.999
644.8336, 5340.124
645.3157, 5653.700
645.7979, 5975.045
646.2800, 6330.813
646.7621, 6734.853
647.2442, 7193.538
647.7263, 7691.489
648.2084, 8236.628
648.6906, 8817.118
649.1727, 9399.401
649.6548, 9995.399
650.1369, 10643.46
650.6190, 11357.93
651.1011, 12125.76
651.5833, 12921.74
652.0654, 13747.18
652.5475, 14606.25
653.0296, 15496.32
653.5117, 16424.64
653.9938, 17396.73
654.4760, 18419.63
654.9581, 19465.31
655.4402, 20553.38
655.9223, 21642.49
656.4044, 22725.18
656.8865, 23828.67
657.3687, 24831.17
657.8508, 25763.36
658.3329, 26540.36
658.8150, 27094.17
659.2971, 27423.88
659.7792, 27493.50
660.2614, 27294.99
660.7435, 26839.22
661.2256, 26104.29
661.7077, 25120.83
662.1898, 23966.30
662.6719, 22596.95
663.1541, 21141.70
663.6362, 19643.88
664.1183, 18120.22
664.6004, 16657.80
665.0825, 15226.95
665.5646, 13899.91
666.0468, 12707.66
666.5289, 11653.94
667.0110, 10705.84
667.4931, 9880.525
667.9752, 9128.858
668.4573, 8429.094
668.9395, 7777.411
669.4216, 7198.955
669.9037, 6704.037
670.3858, 6258.159
670.8679, 5822.135
671.3500, 5407.111
671.8322, 5050.851
672.3143, 4771.849
672.7964, 4526.992
673.2785, 4289.214
673.7606, 4061.537
674.2427, 3852.118
674.7249, 3665.994
675.2070, 3492.369
675.6891, 3328.653
676.1712, 3176.808
676.6533, 3040.617
677.1354, 2925.271
677.6176, 2818.241
678.0997, 2717.089
678.5818, 2621.518
679.0639, 2532.206
679.5460, 2449.521
680.0281, 2373.810
680.5103, 2308.987
680.9924, 2250.414
681.4745, 2188.741
681.9566, 2122.723
682.4387, 2058.246
682.9208, 1993.824
683.4030, 1935.264
683.8851, 1890.142
684.3672, 1868.698
684.8493, 1841.277
685.3314, 1791.903
685.8135, 1736.516
686.2957, 1694.377
686.7778, 1672.273
687.2599, 1650.001
687.7420, 1624.000
688.2241, 1597.548
688.7062, 1581.061
689.1884, 1574.583
689.6705, 1560.326
690.1526, 1525.176
690.6347, 1483.380
691.1168, 1461.839
691.5989, 1457.243
692.0811, 1454.134
692.5632, 1444.528
693.0453, 1432.513
693.5274, 1418.980
694.0095, 1404.104
694.4916, 1394.520
694.9738, 1397.802
695.4559, 1401.843
695.9380, 1399.860
696.4201, 1389.668
696.9022, 1382.590
697.3843, 1379.251
697.8665, 1377.892
698.3486, 1376.370
698.8307, 1374.927
699.3128, 1377.617
699.7949, 1386.349
700.2770, 1393.911
700.7592, 1389.434
701.2413, 1378.041
701.7234, 1369.637
702.2055, 1370.603
702.6876, 1371.359
703.1697, 1368.208
703.6519, 1361.241
704.1340, 1350.587
704.6161, 1335.932
705.0982, 1317.609
705.5803, 1293.797
706.0624, 1266.111
706.5446, 1243.289
707.0267, 1226.401
707.5088, 1209.720
707.9909, 1189.313
708.4730, 1167.025
708.9551, 1149.977
709.4373, 1137.966
709.9194, 1129.229
710.4015, 1127.011
710.8836, 1124.916
711.3657, 1114.546
711.8478, 1094.106
712.3300, 1076.243
712.8121, 1066.798
713.2942, 1060.987
713.7763, 1055.241
714.2584, 1047.807
714.7405, 1043.478
715.2227, 1041.948
715.7048, 1043.789
716.1869, 1052.829
716.6690, 1069.542
717.1511, 1074.790
717.6332, 1063.091
718.1154, 1045.507
718.5975, 1036.722
719.0796, 1034.349
719.5617, 1032.566
720.0438, 1029.971
720.5259, 1026.376
721.0081, 1019.479
721.4902, 1011.544
721.9723, 1007.929
722.4544, 1013.176
722.9365, 1019.624
723.4186, 1027.691
723.9008, 1035.860
724.3829, 1034.812
724.8650, 1021.962
725.3471, 1009.198
725.8292, 1002.082
726.3113, 999.4911
726.7935, 996.8096
727.2756, 994.0674
727.7577, 991.5643
728.2398, 990.0268
728.7219, 988.5817
729.2040, 984.7631
729.6862, 977.9456
730.1683, 976.3321
730.6504, 991.5026
731.1325, 1007.161
731.6146, 1010.468
732.0967, 994.7589
732.5789, 985.6459
733.0610, 985.9619
733.5431, 988.5792
734.0252, 986.1193
734.5073, 978.7027
734.9894, 969.8292
735.4716, 958.8062
735.9537, 950.8455
736.4358, 955.5659
736.9179, 967.6023
737.4000, 976.2366
737.8821, 978.3067
738.3643, 976.1169
738.8464, 965.8741
739.3286, 953.0650
739.8107, 947.7399
740.2928, 959.8361
740.7749, 968.4401
741.2570, 969.3176
741.7391, 965.4452
742.2213, 965.4908
742.7034, 970.0484
743.1855, 973.9966
743.6676, 975.3160
744.1497, 974.9423
744.6318, 974.8939
745.1140, 975.0244
745.5961, 974.5977
746.0782, 971.3540
746.5603, 968.8724
747.0424, 972.5128
747.5245, 981.3448
748.0067, 983.1786
748.4888, 964.5095
748.9709, 948.5723
749.4530, 945.8085
749.9351, 957.2128
750.4172, 962.8685
750.8994, 961.1296
751.3815, 959.4783
751.8636, 965.0796
752.3457, 975.4670
752.8278, 980.9741
753.3099, 980.9813
753.7921, 978.4366
754.2742, 973.2965
754.7563, 968.1372
755.2384, 966.2532
755.7205, 969.6809
756.2026, 971.2465
756.6848, 966.1786
757.1669, 960.1257
757.6490, 958.0740
758.1311, 962.2607
758.6132, 964.6182
759.0953, 964.9069
759.5775, 963.0896
760.0596, 956.2729
760.5417, 946.0912
761.0238, 944.4320
761.5059, 956.4043
761.9880, 969.7640
762.4702, 971.7220
762.9523, 966.3253
763.4344, 960.0775
763.9165, 953.6067
764.3986, 948.4874
764.8807, 945.0231
765.3629, 943.2016
765.8450, 943.0114
766.3271, 945.3955
766.8092, 947.3611
767.2913, 948.7813
767.7734, 948.9941
768.2556, 944.5482
768.7377, 936.1714
769.2198, 931.4262
769.7019, 937.5140
770.1840, 945.2066
770.6661, 941.5823
771.1483, 930.1315
771.6304, 921.7703
772.1125, 924.3954
772.5946, 927.8690
773.0767, 928.3734
773.5588, 926.0625
774.0410, 922.2150
774.5231, 913.7200
775.0052, 910.7380
775.4873, 920.3412
775.9694, 938.8916
776.4515, 947.3893
776.9337, 946.0825
777.4158, 941.9009
777.8979, 937.7249
778.3800, 934.2190
778.8621, 932.3224
779.3442, 932.0117
779.8264, 932.0895
780.3085, 932.3959
780.7906, 932.6661
781.2727, 932.6381
781.7548, 932.2217
782.2369, 932.2132
782.7191, 932.3062
783.2012, 933.4617
783.6833, 937.3403
784.1654, 943.3115
784.6475, 946.3206
785.1296, 946.1824
785.6118, 944.4943
786.0939, 940.6747
786.5760, 937.0090
787.0581, 937.0238
787.5402, 941.8979
788.0223, 945.6758
788.5045, 945.8669
788.9866, 944.3301
789.4687, 942.4597
789.9508, 940.3616
790.4329, 937.5862
790.9150, 933.8679
791.3972, 929.9870
791.8793, 926.0445
792.3614, 922.3989
792.8435, 920.7864
793.3256, 921.5004
793.8077, 923.9443
794.2899, 928.6672
794.7720, 934.3300
795.2541, 939.6726
795.7362, 945.3790
796.2183, 948.5345
796.7004, 945.3382
797.1826, 941.1623
797.6647, 942.1122
798.1468, 951.4959
798.6289, 953.7418
799.1110, 945.6822
799.5931, 935.0120
800.0753, 933.1148
800.5574, 937.6306
801.0395, 939.3009
801.5216, 934.0273
802.0037, 930.7305
802.4858, 942.2540
802.9680, 958.4235
803.4501, 965.5325
803.9322, 946.1337
804.4143, 936.1824
804.8964, 944.6519
805.3785, 960.1937
805.8607, 965.3775
806.3428, 958.6141
806.8249, 952.3953
807.3070, 949.0461
807.7891, 947.0577
808.2712, 943.3889
808.7534, 939.2002
809.2355, 937.6725
809.7176, 941.6632
810.1997, 946.0022
810.6818, 946.6304
811.1639, 945.8745
811.6461, 947.9611
812.1282, 958.5303
812.6103, 964.0638
813.0924, 960.8419
813.5745, 953.6311
814.0566, 952.9504
814.5388, 958.6869
815.0209, 963.1091
815.5030, 963.7231
815.9851, 962.5057
816.4672, 961.2546
816.9493, 960.2780
817.4315, 960.2587
817.9136, 962.1882
818.3957, 964.3041
818.8778, 966.2633
819.3599, 967.9400
819.8420, 969.0679
820.3242, 969.5265
820.8063, 969.7717
821.2884, 969.9625
821.7705, 969.9116
822.2526, 967.3669
822.7347, 963.4635
823.2169, 965.1538
823.6990, 980.4771
824.1811, 995.5697
824.6632, 995.4099
825.1453, 985.5723
825.6274, 978.2404
826.1096, 977.8718
826.5917, 979.6105
827.0738, 983.1201
827.5559, 987.7161
828.0380, 992.0473
828.5201, 996.4016
829.0023, 998.5710
829.4844, 996.8940
829.9665, 994.2319
830.4486, 994.0541
830.9307, 997.0035
831.4128, 1004.956
831.8950, 1023.874
832.3771, 1042.812
832.8592, 1057.713
833.3413, 1068.152
833.8234, 1072.184
834.3055, 1063.288
834.7877, 1059.836
835.2698, 1065.520
835.7519, 1078.264
836.2340, 1093.805
836.7161, 1111.874
837.1982, 1132.061
837.6804, 1155.138
838.1625, 1178.603
838.6446, 1196.631
839.1267, 1213.161
839.6088, 1236.448
840.0909, 1271.509
840.5731, 1311.679
841.0552, 1354.588
841.5373, 1401.853
842.0194, 1458.166
842.5015, 1525.392
842.9836, 1593.359
843.4658, 1659.672
843.9479, 1725.805
844.4300, 1788.521
844.9121, 1852.215
845.3942, 1929.667
845.8763, 2033.445
846.3585, 2142.232
846.8406, 2239.816
847.3227, 2334.549
847.8048, 2444.022
848.2869, 2582.956
848.7690, 2713.260
849.2512, 2826.986
849.7333, 2931.741
850.2154, 3046.567
850.6975, 3169.020
851.1796, 3269.962
851.6617, 3343.129
852.1439, 3385.702
852.6260, 3400.958
853.1081, 3382.561
853.5902, 3320.080
854.0723, 3181.271
854.5544, 3033.272
855.0366, 2880.197
855.5187, 2728.170
856.0008, 2584.153
856.4829, 2447.018
856.9650, 2320.671
857.4471, 2208.347
857.9293, 2103.122
858.4114, 1990.054
858.8935, 1877.635
859.3756, 1785.992
859.8577, 1727.353
860.3398, 1674.541
860.8220, 1612.860
861.3041, 1550.121
861.7862, 1495.852
862.2683, 1447.060
862.7504, 1415.832
863.2325, 1410.241
863.7147, 1409.649
864.1968, 1384.806
864.6789, 1341.448
865.1610, 1308.412
865.6431, 1291.271
866.1252, 1281.133
866.6074, 1273.688
867.0895, 1267.573
867.5716, 1261.107
868.0537, 1253.679
868.5358, 1246.683
869.0179, 1239.312
869.5001, 1233.267
869.9822, 1231.095
870.4643, 1233.190
870.9464, 1229.631
871.4285, 1219.237
871.9106, 1209.325
872.3928, 1208.788
872.8749, 1212.046
873.3570, 1210.205
873.8391, 1201.135
874.3212, 1195.081
874.8033, 1202.138
875.2855, 1207.755
875.7676, 1199.909
876.2497, 1174.156
876.7318, 1170.979
877.2139, 1195.011
877.6960, 1221.014
878.1782, 1229.175
878.6603, 1225.378
879.1424, 1221.138
879.6245, 1217.186
880.1067, 1215.640
880.5888, 1220.286
881.0709, 1225.545
881.5530, 1227.379
882.0352, 1225.507
882.5173, 1226.208
882.9994, 1230.109
883.4815, 1235.010
883.9636, 1239.081
884.4457, 1243.479
884.9279, 1253.769
885.4100, 1269.292
885.8921, 1284.630
886.3742, 1299.032
886.8563, 1309.904
887.3384, 1311.945
887.8206, 1307.588
888.3027, 1310.160
888.7848, 1327.153
889.2669, 1341.750
889.7490, 1348.571
890.2311, 1350.716
890.7133, 1357.604
891.1954, 1368.923
891.6775, 1381.238
892.1596, 1394.844
892.6417, 1406.467
893.1238, 1408.550
893.6060, 1406.505
894.0881, 1411.430
894.5702, 1435.624
895.0523, 1455.375
895.5344, 1465.527
896.0165, 1470.524
896.4987, 1476.915
896.9808, 1484.558
897.4629, 1498.223
897.9450, 1520.294
898.4271, 1544.124
898.9092, 1560.334
899.3914, 1572.969
899.8735, 1588.381
900.3556, 1611.023
900.8377, 1631.511
901.3198, 1646.671
901.8019, 1659.407
902.2841, 1672.915
902.7662, 1688.520
903.2483, 1696.203
903.7304, 1693.925
904.2125, 1691.512
904.6946, 1703.014
905.1768, 1719.890
905.6589, 1726.968
906.1410, 1721.160
906.6231, 1715.678
907.1052, 1716.749
907.5873, 1719.875
908.0695, 1723.031
908.5516, 1726.650
909.0337, 1724.172
909.5158, 1714.238
909.9979, 1704.669
910.4800, 1703.005
910.9622, 1705.003
911.4443, 1703.348
911.9264, 1697.369
912.4085, 1683.647
912.8906, 1652.043
913.3727, 1620.174
913.8549, 1599.264
914.3370, 1586.969
914.8191, 1567.873
915.3012, 1539.669
915.7833, 1512.429
916.2654, 1490.874
916.7476, 1471.780
917.2297, 1446.079
917.7118, 1416.699
918.1939, 1392.505
918.6760, 1380.265
919.1581, 1371.278
919.6403, 1364.505
920.1224, 1357.517
920.6045, 1345.275
921.0866, 1324.856
921.5687, 1306.428
922.0508, 1290.883
922.5330, 1279.213
923.0151, 1276.948
923.4972, 1279.916
923.9793, 1275.089
924.4614, 1257.918
924.9435, 1238.483
925.4257, 1218.179
925.9078, 1201.283
926.3899, 1194.396
926.8720, 1206.739
927.3541, 1200.736
927.8362, 1170.414
928.3184, 1137.459
928.8005, 1120.528
929.2826, 1116.333
929.7647, 1115.404
930.2468, 1117.053
930.7289, 1117.779
931.2111, 1113.965
931.6932, 1109.647
932.1753, 1108.278
932.6574, 1110.035
933.1395, 1107.727
933.6216, 1099.183
934.1038, 1092.424
934.5859, 1092.055
935.0680, 1095.359
935.5501, 1093.339
936.0322, 1087.695
936.5143, 1085.496
936.9965, 1095.110
937.4786, 1104.354
937.9607, 1106.479
938.4428, 1103.161
938.9249, 1098.947
939.4070, 1092.968
939.8892, 1088.981
940.3713, 1088.050
940.8534, 1088.415
941.3355, 1086.361
941.8176, 1083.188
942.2997, 1083.227
942.7819, 1088.486
943.2640, 1093.904
943.7461, 1094.387
944.2282, 1094.903
944.7103, 1101.007
945.1924, 1115.634
945.6746, 1126.904
946.1567, 1134.517
946.6388, 1139.404
947.1209, 1140.671
947.6030, 1140.128
948.0851, 1143.447
948.5673, 1150.624
949.0494, 1156.089
949.5315, 1153.296
950.0136, 1150.823
950.4957, 1153.142
950.9778, 1160.153
951.4600, 1172.089
951.9421, 1190.719
952.4242, 1206.739
952.9063, 1214.318
953.3884, 1219.054
953.8705, 1235.430
954.3527, 1258.564
954.8348, 1274.701
955.3169, 1268.533
955.7990, 1264.871
956.2811, 1274.552
956.7632, 1291.225
957.2454, 1304.900
957.7275, 1314.535
958.2096, 1327.708
958.6917, 1346.291
959.1738, 1365.143
959.6559, 1378.407
960.1381, 1387.613
960.6202, 1393.076
961.1023, 1392.740
961.5844, 1401.048
962.0665, 1436.603
962.5486, 1470.286
963.0308, 1482.092
963.5129, 1470.642
963.9950, 1475.688
964.4771, 1498.859
964.9592, 1520.270
965.4413, 1525.383
965.9235, 1522.643
966.4056, 1520.847
966.8877, 1520.528
967.3698, 1522.740
967.8519, 1532.112
968.3340, 1538.677
968.8162, 1538.739
969.2983, 1535.428
969.7804, 1536.657
970.2625, 1542.258
970.7446, 1547.097
971.2267, 1548.500
971.7089, 1552.322
972.1910, 1568.873
972.6731, 1589.752
973.1552, 1603.752
973.6373, 1605.080
974.1194, 1605.103
974.6016, 1598.499
975.0837, 1599.668
975.5658, 1627.505
976.0479, 1676.343
976.5300, 1708.020
977.0121, 1721.138
977.4943, 1730.944
977.9764, 1746.249
978.4585, 1764.092
978.9406, 1782.230
979.4227, 1800.725
979.9048, 1820.712
980.3870, 1842.010
980.8691, 1865.072
981.3512, 1888.993
981.8333, 1915.637
982.3154, 1952.027
982.7975, 1995.327
983.2797, 2035.012
983.7618, 2062.431
984.2439, 2093.194
984.7260, 2140.435
985.2081, 2192.354
985.6902, 2230.756
986.1724, 2245.623
986.6545, 2287.492
987.1366, 2362.885
987.6187, 2446.257
988.1008, 2508.935
988.5829, 2563.188
989.0651, 2629.385
989.5472, 2709.526
990.0293, 2794.838
990.5114, 2884.791
990.9935, 2976.255
991.4756, 3062.691
991.9578, 3148.581
992.4399, 3263.710
992.9220, 3408.240
993.4041, 3559.767
993.8862, 3702.223
994.3683, 3852.398
994.8505, 4025.306
995.3326, 4221.901
995.8147, 4441.022
996.2968, 4679.288
996.7789, 4949.940
997.2610, 5249.383
997.7432, 5581.977
998.2253, 5946.994
998.7074, 6343.839
999.1895, 6802.567
999.6716, 7328.099
1000.154, 7915.788
1000.636, 8540.395
1001.118, 9249.395
1001.600, 10089.70
1002.082, 11067.11
1002.564, 12138.76
1003.046, 13306.36
1003.529, 14588.92
1004.011, 16004.79
1004.493, 17546.46
1004.975, 19257.82
1005.457, 21102.39
1005.939, 23029.04
1006.421, 25003.93
1006.903, 27090.55
1007.385, 29349.89
1007.868, 31737.05
1008.350, 34219.70
1008.832, 36827.88
1009.314, 39482.30
1009.796, 42163.09
1010.278, 44752.90
1010.760, 47285.46
1011.242, 49514.52
1011.725, 51302.96
1012.207, 52641.01
1012.689, 52972.86
1013.171, 52153.13
1013.653, 50461.33
1014.135, 47825.11
1014.617, 44443.16
1015.099, 40858.28
1015.581, 37117.39
1016.064, 33467.25
1016.546, 29897.03
1017.028, 26611.09
1017.510, 23743.54
1017.992, 21249.22
1018.474, 19045.10
1018.956, 17124.09
1019.438, 15471.21
1019.921, 14102.30
1020.403, 12937.71
1020.885, 11941.30
1021.367, 11087.14
1021.849, 10349.54
1022.331, 9724.636
1022.813, 9175.066
1023.295, 8703.643
1023.778, 8288.816
1024.260, 7925.519
1024.742, 7609.310
1025.224, 7338.953
1025.706, 7112.561
1026.188, 6917.945
1026.670, 6757.502
1027.152, 6614.568
1027.634, 6483.614
1028.117, 6356.652
1028.599, 6217.169
1029.081, 6038.668
1029.563, 5896.714
1030.045, 5806.952
1030.527, 5720.981
1031.009, 5591.524
1031.491, 5431.580
1031.974, 5289.279
1032.456, 5162.799
1032.938, 5023.354
1033.420, 4837.128
1033.902, 4655.139
1034.384, 4512.313
1034.866, 4391.673
1035.348, 4235.466
1035.830, 4042.585
1036.313, 3873.230
1036.795, 3750.550
1037.277, 3642.211
1037.759, 3511.004
1038.241, 3372.644
1038.723, 3250.271
1039.205, 3153.245
1039.687, 3061.292
1040.169, 2974.518
1040.652, 2888.372
1041.134, 2795.172
1041.616, 2699.129
1042.098, 2618.250
1042.580, 2551.327
1043.062, 2491.000
1043.544, 2437.387
1044.026, 2384.978
1044.509, 2330.909
1044.991, 2276.980
1045.473, 2225.517
1045.955, 2176.301
1046.437, 2133.522
1046.919, 2098.643
1047.401, 2066.551
1047.883, 2033.304
1048.365, 1998.585
1048.848, 1959.906
1049.330, 1914.917
1049.812, 1881.518
1050.294, 1872.613
1050.776, 1855.950
1051.258, 1810.793
1051.740, 1750.334
1052.222, 1724.668
1052.704, 1725.525
1053.187, 1718.481
1053.669, 1679.075
1054.151, 1639.656
1054.633, 1616.016
1055.115, 1600.668
1055.597, 1582.566
1056.079, 1559.468
1056.561, 1549.523
1057.044, 1555.584
1057.526, 1558.849
1058.008, 1539.902
1058.490, 1510.733
1058.972, 1481.550
1059.454, 1453.724
1059.936, 1432.812
1060.418, 1422.791
1060.901, 1414.016
1061.383, 1404.799
1061.865, 1394.777
1062.347, 1380.311
1062.829, 1364.255
1063.311, 1357.006
1063.793, 1365.210
1064.275, 1369.601
1064.757, 1356.077
1065.240, 1338.592
1065.722, 1327.790
1066.204, 1324.066
1066.686, 1320.869
1067.168, 1318.346
1067.650, 1311.205
1068.132, 1287.049
1068.614, 1264.448
1069.096, 1266.578
1069.579, 1283.547
1070.061, 1289.249
1070.543, 1272.693
1071.025, 1261.170
1071.507, 1258.835
1071.989, 1257.785
1072.471, 1245.913
1072.953, 1228.785
1073.436, 1219.118
1073.918, 1218.361
1074.400, 1217.269
1074.882, 1212.423
1075.364, 1205.478
1075.846, 1195.619
1076.328, 1184.782
1076.810, 1182.740
1077.292, 1188.243
1077.775, 1187.499
1078.257, 1173.354
1078.739, 1157.954
1079.221, 1148.941
1079.703, 1144.940
1080.185, 1145.111
1080.667, 1150.547
1081.149, 1153.792
1081.631, 1154.837
1082.114, 1153.601
1082.596, 1150.522
1083.078, 1144.809
1083.560, 1131.624
1084.042, 1114.496
1084.524, 1104.752
1085.006, 1116.323
1085.488, 1120.490
1085.971, 1110.173
1086.453, 1096.091
1086.935, 1093.962
1087.417, 1100.771
1087.899, 1106.039
1088.381, 1108.586
1088.863, 1106.862
1089.345, 1096.302
1089.828, 1084.758
1090.310, 1077.269
1090.792, 1072.569
1091.274, 1062.556
1091.756, 1047.095
1092.238, 1038.994
1092.720, 1044.261
1093.202, 1053.934
1093.684, 1062.243
1094.167, 1068.178
1094.649, 1070.113
1095.131, 1066.674
1095.613, 1063.329
1096.095, 1059.889
1096.577, 1057.177
1097.059, 1057.708
1097.541, 1058.377
1098.024, 1050.950
1098.506, 1038.401
1098.988, 1029.977
1099.470, 1035.561
1099.952, 1035.906
1100.434, 1026.118
1100.916, 1013.032
1101.398, 1003.213
1101.880, 997.0729
1102.363, 999.7571
1102.845, 1011.401
1103.327, 1017.914
1103.809, 1003.118
1104.291, 988.8459
1104.773, 990.2396
1105.255, 1001.084
1105.737, 999.5923
1106.219, 985.6571
1106.702, 974.0206
1107.184, 968.1985
1107.666, 966.2045
1108.148, 968.3360
1108.630, 971.8663
1109.112, 973.9168
1109.594, 973.8774
1110.076, 974.5435
1110.559, 976.7094
1111.041, 976.0994
1111.523, 968.5822
1112.005, 958.8727
1112.487, 954.4495
1112.969, 953.8537
1113.451, 954.0186
1113.933, 957.7670
1114.416, 955.9636
1114.898, 945.8442
1115.380, 934.3616
1115.862, 926.4644
1116.344, 922.4792
1116.826, 928.0467
1117.308, 941.0395
1117.790, 945.4740
1118.272, 921.0286
1118.755, 901.5839
1119.237, 901.7536
1119.719, 911.6819
1120.201, 914.3267
1120.683, 910.2585
1121.165, 905.6411
1121.647, 901.2766
1122.129, 897.6526
1122.611, 895.9738
1123.094, 894.4771
1123.576, 892.5544
1124.058, 889.8471
1124.540, 882.0117
1125.022, 868.1644
1125.504, 860.2642
1125.986, 864.0997
1126.468, 870.8735
1126.951, 872.0207
1127.433, 869.6073
1127.915, 865.9633
1128.397, 860.9211
1128.879, 856.3439
1129.361, 851.9749
1129.843, 848.9194
1130.325, 847.9661
1130.807, 848.5906
1131.290, 852.9312
1131.772, 857.8554
1132.254, 855.7183
1132.736, 834.0676
1133.218, 820.5236
1133.700, 819.7307
1134.182, 822.7012
1134.664, 820.2888
1135.146, 814.6575
1135.629, 814.1612
1136.111, 817.9615
1136.593, 817.7703
1137.075, 801.3323
1137.557, 791.0921
1138.039, 798.3914
1138.521, 811.2704
1139.003, 805.6345
1139.486, 785.2272
1139.968, 775.2174
1140.450, 779.8763
1140.932, 786.3927
1141.414, 788.4396
1141.896, 787.4117
1142.378, 783.4236
1142.860, 777.1818
1143.343, 771.2546
1143.825, 765.5968
1144.307, 759.7283
1144.789, 752.5040
1145.271, 748.2763
1145.753, 755.5130
1146.235, 764.8557
1146.717, 765.6098
1147.199, 756.6086
1147.682, 750.6114
1148.164, 747.6478
1148.646, 747.4335
1149.128, 752.7613
1149.610, 756.9907
1150.092, 749.4246
1150.574, 736.1435
1151.056, 727.5178
1151.538, 727.7201
1152.021, 726.7451
1152.503, 723.7731
1152.985, 722.4966
1153.467, 730.1122
1153.949, 738.7124
1154.431, 730.9611
1154.913, 712.7366
1155.395, 703.3420
1155.878, 717.9955
1156.360, 728.3337
1156.842, 731.4358
1157.324, 730.7793
1157.806, 729.1475
1158.288, 727.1577
1158.770, 726.5403
1159.252, 727.2360
1159.734, 727.2907
1160.217, 725.4903
1160.699, 723.4723
1161.181, 721.5901
1161.663, 719.7855
1162.145, 717.7020
1162.627, 715.6214
1163.109, 715.2345
1163.591, 717.1611
1164.073, 716.4639
1164.556, 707.0966
1165.038, 698.5511
1165.520, 694.9036
1166.002, 695.1838
1166.484, 697.0309
1166.966, 700.0419
1167.448, 702.2858
1167.930, 703.4275
1168.413, 702.8758
1168.895, 695.2644
1169.377, 690.7426
1169.859, 698.9103
1170.341, 717.8212
1170.823, 721.1284
1171.305, 710.0856
1171.787, 700.1437
1172.270, 699.2828
1172.752, 699.5654
1173.234, 693.9919
1173.716, 688.1107
1174.198, 688.8537
1174.680, 697.6915
1175.162, 699.4272
1175.644, 694.0382
1176.126, 688.7712
1176.609, 688.6380
1177.091, 690.0464
1177.573, 690.9747
1178.055, 691.3625
1178.537, 690.6813
1179.019, 687.9741
1179.501, 690.6323
1179.983, 699.6123
1180.465, 706.9984
1180.948, 704.4629
1181.430, 699.1709
1181.912, 696.0089
1182.394, 695.7448
1182.876, 700.8634
1183.358, 714.5190
1183.840, 718.2681
1184.322, 708.2803
1184.805, 696.9194
1185.287, 698.8700
1185.769, 704.5158
1186.251, 703.1131
1186.733, 694.7581
1187.215, 688.1433
1187.697, 683.4843
1188.179, 681.0417
1188.661, 680.9084
1189.144, 682.9003
1189.626, 690.1248
1190.108, 697.3411
1190.590, 696.1104
1191.072, 684.8545
1191.554, 681.0855
1192.036, 687.8036
1192.518, 694.9632
1193.000, 701.0974
1193.483, 702.2507
1193.965, 685.4434
1194.447, 663.1528
1194.929, 655.0257
1195.411, 668.8303
1195.893, 677.0180
1196.375, 676.8257
1196.857, 675.4001
1197.340, 676.3188
1197.822, 677.4930
1198.304, 673.7144
1198.786, 668.1156
1199.268, 666.5027
1199.750, 672.6233
1200.232, 677.3049
1200.714, 680.3958
1201.197, 681.4460
1201.679, 679.1296
1202.161, 675.4359
1202.643, 672.4218
1203.125, 671.3055
1203.607, 674.7583
1204.089, 690.8445
1204.571, 699.5103
1205.053, 699.0950
1205.536, 694.5881
1206.018, 687.2297
1206.500, 679.8681
1206.982, 681.5139
1207.464, 688.3864
1207.946, 688.5955
1208.428, 667.3591
1208.910, 657.3905
1209.392, 663.5013
1209.875, 673.9968
1210.357, 677.7021
1210.839, 677.7955
1211.321, 681.3841
1211.803, 687.4470
1212.285, 690.1705
1212.767, 684.2556
1213.249, 680.9169
1213.732, 682.8522
1214.214, 684.1235
1214.696, 675.1466
1215.178, 661.8167
1215.660, 654.2209
1216.142, 652.8945
1216.624, 655.8323
1217.106, 666.8960
1217.589, 674.5382
1218.071, 676.5800
1218.553, 674.9841
1219.035, 669.9280
1219.517, 664.1605
1219.999, 662.9351
1220.481, 666.6176
1220.963, 670.5146
1221.445, 675.9207
1221.927, 676.8526
1222.410, 671.1649
1222.892, 661.8173
1223.374, 647.9021
1223.856, 635.6440
1224.338, 639.0330
1224.820, 661.1326
1225.302, 672.5774
1225.784, 665.2018
1226.267, 658.2952
1226.749, 657.5883
1227.231, 659.9973
1227.713, 662.0491
1228.195, 663.2256
1228.677, 661.8713
1229.159, 656.9809
1229.641, 656.2015
1230.124, 661.7958
1230.606, 666.3054
1231.088, 666.7122
1231.570, 665.0797
1232.052, 663.8487
1232.534, 663.1879
1233.016, 663.0158
1233.498, 662.8857
1233.980, 666.6095
1234.463, 675.6575
1234.945, 683.6291
1235.427, 688.2837
1235.909, 689.4275
1236.391, 684.4863
1236.873, 676.7589
1237.355, 670.9706
1237.837, 667.5674
1238.320, 669.5779
1238.802, 678.7892
1239.284, 684.8046
1239.766, 680.1306
1240.248, 672.4386
1240.730, 671.6868
1241.212, 674.6937
1241.694, 676.0771
1242.177, 673.2671
1242.659, 678.5415
1243.141, 693.5833
1243.623, 704.2523
1244.105, 698.3231
1244.587, 688.5392
1245.069, 689.2229
1245.551, 694.7255
1246.033, 695.5780
1246.516, 689.1510
1246.998, 689.5618
1247.480, 697.5990
1247.962, 701.8673
1248.444, 691.4250
1248.926, 677.9563
1249.408, 670.0211
1249.890, 666.1565
1250.372, 663.2067
1250.855, 660.0300
1251.337, 665.7028
1251.819, 680.2036
1252.301, 694.3051
1252.783, 703.7004
1253.265, 708.5961
1253.747, 708.0076
1254.229, 703.3290
1254.712, 695.7694
1255.194, 684.8383
1255.676, 678.9922
1256.158, 678.2510
1256.640, 679.8876
1257.122, 684.6687
1257.604, 688.5620
1258.086, 688.1937
1258.568, 686.6043
1259.051, 687.1224
1259.533, 689.6506
1260.015, 694.1340
1260.497, 700.1121
1260.979, 703.3292
1261.461, 699.8719
1261.943, 694.9415
1262.425, 690.2206
1262.907, 685.2819
1263.390, 679.1086
1263.872, 672.2595
1264.354, 666.0621
1264.836, 661.2145
1265.318, 661.8719
1265.800, 680.3922
1266.282, 689.3647
1266.764, 679.1043
1267.247, 664.4998
1267.729, 664.2849
1268.211, 673.2871
1268.693, 679.6667
1269.175, 682.5365
1269.657, 681.3630
1270.139, 672.3875
1270.621, 664.3664
1271.104, 658.1702
1271.586, 653.7628
1272.068, 651.0591
1272.550, 650.1929
1273.032, 652.2247
1273.514, 656.5424
1273.996, 659.7830
1274.478, 661.2721
1274.960, 662.0845
1275.443, 662.3975
1275.925, 661.8389
1276.407, 657.8502
1276.889, 654.3585
1277.371, 658.4389
1277.853, 667.5916
1278.335, 669.1384
1278.817, 660.9343
1279.299, 652.4022
1279.782, 644.2703
1280.264, 639.4814
1280.746, 645.3813
1281.228, 651.5572
1281.710, 646.1133
1282.192, 634.1801
1282.674, 632.5574
1283.156, 641.9813
1283.639, 645.5187
1284.121, 640.9471
1284.603, 636.5370
1285.085, 638.0022
1285.567, 641.8774
1286.049, 649.2905
1286.531, 655.8716
1287.013, 651.4847
1287.495, 637.8641
1287.978, 629.3677
1288.460, 627.4075
1288.942, 628.5613
1289.424, 632.7142
1289.906, 637.7640
1290.388, 644.4529
1290.870, 649.6848
1291.352, 646.9580
1291.834, 639.1228
1292.317, 633.1520
1292.799, 629.9247
1293.281, 630.9815
1293.763, 642.3724
1294.245, 650.0826
1294.727, 651.5314
1295.209, 649.1401
1295.691, 644.0301
1296.174, 638.2429
1296.656, 634.6164
1297.138, 633.4280
1297.620, 635.3746
1298.102, 641.8337
1298.584, 646.4319
1299.066, 647.9774
1299.548, 648.8779
1300.031, 651.7945
1300.513, 655.2115
1300.995, 658.6636
1301.477, 661.1619
1301.959, 659.1553
1302.441, 651.9854
1302.923, 646.8934
1303.405, 644.9213
1303.887, 643.6090
1304.370, 638.0466
##END=



