##NAMES=Hedenbergite
##RRUFFID=R050030
##IDEAL CHEMISTRY=CaFe^2+^Si_2_O_6_
##LOCALITY=Heroult, Ontario, Canada
##OWNER=RRUFF
##SOURCE=University of Arizona Mineral Museum
##DESCRIPTION=Green fragments
##STATUS=The identification of this mineral has been confirmed by X-ray diffraction and chemical analysis
##URL=rruff.info/R050030
##MEASURED CHEMISTRY=(Ca_.993_Na_.007_)(Fe_.860_Mn_.111_Mg_.029_)(Si_.993_Al_.007_)_2_O_6_
134.7162, 832.5688
135.1983, 854.7114
135.6804, 877.8904
136.1626, 901.2920
136.6447, 926.4591
137.1268, 957.3369
137.6089, 995.2012
138.0910, 1033.489
138.5731, 1067.724
139.0553, 1097.344
139.5374, 1127.190
140.0195, 1156.446
140.5016, 1186.248
140.9837, 1220.121
141.4658, 1259.876
141.9480, 1301.378
142.4301, 1341.979
142.9122, 1382.692
143.3943, 1420.650
143.8764, 1459.201
144.3585, 1497.698
144.8407, 1518.316
145.3228, 1514.549
145.8049, 1497.642
146.2870, 1477.735
146.7691, 1455.615
147.2512, 1429.692
147.7334, 1396.308
148.2155, 1350.036
148.6976, 1319.485
149.1797, 1309.923
149.6618, 1314.620
150.1439, 1324.617
150.6261, 1342.147
151.1082, 1362.862
151.5903, 1386.954
152.0724, 1419.028
152.5545, 1443.886
153.0366, 1453.266
153.5188, 1454.819
154.0009, 1463.543
154.4830, 1494.291
154.9651, 1523.277
155.4472, 1539.949
155.9293, 1536.154
156.4115, 1530.004
156.8936, 1523.193
157.3757, 1516.316
157.8578, 1511.308
158.3399, 1503.910
158.8221, 1501.345
159.3042, 1508.243
159.7863, 1531.620
160.2684, 1558.848
160.7505, 1584.992
161.2326, 1610.911
161.7148, 1641.458
162.1969, 1679.518
162.6790, 1723.087
163.1611, 1769.694
163.6432, 1825.815
164.1253, 1879.443
164.6075, 1923.311
165.0896, 1957.124
165.5717, 1988.262
166.0538, 2019.895
166.5359, 2051.619
167.0180, 2082.921
167.5002, 2109.157
167.9823, 2137.908
168.4644, 2173.575
168.9465, 2216.014
169.4286, 2268.597
169.9107, 2336.254
170.3929, 2415.718
170.8750, 2501.937
171.3571, 2589.229
171.8392, 2682.310
172.3213, 2786.534
172.8034, 2902.123
173.2856, 3026.771
173.7677, 3160.308
174.2498, 3302.107
174.7319, 3447.393
175.2140, 3605.034
175.6961, 3761.900
176.1783, 3899.304
176.6604, 4015.971
177.1425, 4105.543
177.6246, 4158.928
178.1067, 4176.576
178.5888, 4164.566
179.0710, 4122.504
179.5531, 4054.148
180.0352, 3963.342
180.5173, 3836.841
180.9994, 3703.837
181.4815, 3608.870
181.9637, 3551.063
182.4458, 3528.662
182.9279, 3546.942
183.4100, 3601.017
183.8921, 3672.814
184.3742, 3759.963
184.8564, 3860.458
185.3385, 3967.825
185.8206, 4083.050
186.3027, 4204.356
186.7848, 4340.762
187.2669, 4488.057
187.7491, 4619.819
188.2312, 4736.254
188.7133, 4830.143
189.1954, 4881.629
189.6775, 4892.953
190.1596, 4849.133
190.6418, 4721.405
191.1239, 4511.134
191.6060, 4263.483
192.0881, 3979.657
192.5702, 3665.594
193.0524, 3371.675
193.5345, 3098.608
194.0166, 2845.530
194.4987, 2613.416
194.9808, 2401.713
195.4629, 2218.721
195.9451, 2076.921
196.4272, 1973.797
196.9093, 1877.057
197.3914, 1784.163
197.8735, 1700.030
198.3556, 1636.490
198.8378, 1595.937
199.3199, 1561.842
199.8020, 1525.316
200.2841, 1486.117
200.7662, 1453.124
201.2483, 1427.704
201.7305, 1407.993
202.2126, 1389.861
202.6947, 1373.476
203.1768, 1358.042
203.6589, 1342.057
204.1410, 1324.872
204.6232, 1313.141
205.1053, 1308.757
205.5874, 1309.643
206.0695, 1309.294
206.5516, 1307.838
207.0337, 1304.817
207.5159, 1299.068
207.9980, 1289.667
208.4801, 1282.534
208.9622, 1278.891
209.4443, 1278.061
209.9264, 1276.369
210.4086, 1272.775
210.8907, 1270.406
211.3728, 1271.375
211.8549, 1275.539
212.3370, 1283.977
212.8191, 1298.863
213.3013, 1318.841
213.7834, 1333.641
214.2655, 1342.747
214.7476, 1347.512
215.2297, 1347.965
215.7118, 1341.623
216.1940, 1337.450
216.6761, 1334.811
217.1582, 1334.147
217.6403, 1348.379
218.1224, 1383.893
218.6045, 1425.514
219.0867, 1459.043
219.5688, 1482.332
220.0509, 1501.767
220.5330, 1516.870
221.0151, 1527.678
221.4972, 1541.570
221.9794, 1558.543
222.4615, 1578.719
222.9436, 1602.659
223.4257, 1631.274
223.9078, 1662.137
224.3899, 1693.817
224.8721, 1726.439
225.3542, 1763.895
225.8363, 1808.194
226.3184, 1855.714
226.8005, 1902.832
227.2827, 1947.896
227.7648, 1995.295
228.2469, 2047.513
228.7290, 2105.693
229.2111, 2158.823
229.6932, 2208.071
230.1754, 2250.711
230.6575, 2284.366
231.1396, 2311.306
231.6217, 2324.645
232.1038, 2322.065
232.5859, 2302.648
233.0681, 2272.092
233.5502, 2229.826
234.0323, 2177.086
234.5144, 2113.691
234.9965, 2034.547
235.4786, 1953.760
235.9608, 1872.255
236.4429, 1787.066
236.9250, 1720.047
237.4071, 1677.367
237.8892, 1649.577
238.3713, 1622.322
238.8535, 1595.707
239.3356, 1569.413
239.8177, 1542.839
240.2998, 1514.831
240.7819, 1490.756
241.2640, 1470.336
241.7462, 1453.617
242.2283, 1440.574
242.7104, 1431.572
243.1925, 1425.708
243.6746, 1423.612
244.1567, 1427.461
244.6389, 1427.133
245.1210, 1419.686
245.6031, 1409.818
246.0852, 1406.747
246.5673, 1415.924
247.0494, 1422.558
247.5316, 1420.206
248.0137, 1404.505
248.4958, 1394.601
248.9779, 1391.700
249.4600, 1393.997
249.9421, 1398.276
250.4243, 1404.492
250.9064, 1412.845
251.3885, 1424.374
251.8706, 1441.549
252.3527, 1453.788
252.8348, 1460.674
253.3170, 1462.906
253.7991, 1460.633
254.2812, 1450.269
254.7633, 1442.293
255.2454, 1440.528
255.7275, 1445.610
256.2097, 1455.077
256.6918, 1470.816
257.1739, 1489.531
257.6560, 1504.996
258.1381, 1515.476
258.6202, 1526.391
259.1024, 1540.969
259.5845, 1561.345
260.0666, 1575.254
260.5487, 1579.493
261.0308, 1579.668
261.5129, 1587.209
261.9951, 1605.547
262.4772, 1622.860
262.9593, 1633.070
263.4414, 1633.501
263.9235, 1639.880
264.4056, 1652.527
264.8878, 1670.957
265.3699, 1696.205
265.8520, 1731.695
266.3341, 1764.869
266.8162, 1791.481
267.2983, 1810.963
267.7805, 1824.580
268.2626, 1828.317
268.7447, 1830.559
269.2268, 1848.524
269.7089, 1887.640
270.1910, 1922.822
270.6732, 1941.377
271.1553, 1940.349
271.6374, 1952.528
272.1195, 1982.186
272.6016, 2018.838
273.0837, 2043.331
273.5659, 2053.172
274.0480, 2064.201
274.5301, 2083.252
275.0122, 2110.556
275.4943, 2136.626
275.9764, 2160.273
276.4586, 2184.921
276.9407, 2217.580
277.4228, 2258.999
277.9049, 2298.237
278.3870, 2327.774
278.8691, 2348.432
279.3513, 2380.452
279.8334, 2426.047
280.3155, 2477.315
280.7976, 2523.700
281.2798, 2564.556
281.7619, 2606.259
282.2440, 2650.365
282.7261, 2697.041
283.2082, 2748.527
283.6903, 2805.715
284.1725, 2864.429
284.6546, 2917.179
285.1367, 2963.993
285.6188, 3017.596
286.1009, 3082.453
286.5830, 3157.688
287.0652, 3243.433
287.5473, 3340.817
288.0294, 3437.303
288.5115, 3511.286
288.9936, 3567.082
289.4757, 3637.193
289.9579, 3739.484
290.4400, 3862.441
290.9221, 3975.074
291.4042, 4076.301
291.8863, 4180.718
292.3684, 4310.117
292.8506, 4457.572
293.3327, 4594.364
293.8148, 4706.896
294.2969, 4806.717
294.7790, 4920.778
295.2611, 5049.602
295.7433, 5177.403
296.2254, 5289.675
296.7075, 5391.935
297.1896, 5495.010
297.6717, 5602.805
298.1538, 5715.140
298.6360, 5832.466
299.1181, 5955.198
299.6002, 6075.487
300.0823, 6189.552
300.5644, 6297.898
301.0465, 6404.502
301.5287, 6519.598
302.0108, 6621.759
302.4929, 6688.004
302.9750, 6719.659
303.4571, 6720.672
303.9392, 6691.840
304.4214, 6634.967
304.9035, 6550.333
305.3856, 6435.925
305.8677, 6299.934
306.3498, 6146.617
306.8319, 5978.494
307.3141, 5800.601
307.7962, 5619.518
308.2783, 5431.028
308.7604, 5224.422
309.2425, 4991.560
309.7246, 4763.028
310.2068, 4551.200
310.6889, 4357.451
311.1710, 4182.687
311.6531, 4028.485
312.1352, 3892.418
312.6173, 3777.885
313.0995, 3693.953
313.5816, 3610.112
314.0637, 3499.917
314.5458, 3380.183
315.0279, 3281.586
315.5100, 3231.328
315.9922, 3193.663
316.4743, 3146.736
316.9564, 3082.178
317.4385, 3032.685
317.9206, 3014.605
318.4027, 3016.784
318.8849, 3023.635
319.3670, 3025.654
319.8491, 3036.325
320.3312, 3063.725
320.8133, 3111.683
321.2954, 3157.000
321.7776, 3188.690
322.2597, 3218.314
322.7418, 3258.192
323.2239, 3311.037
323.7060, 3373.357
324.1881, 3448.448
324.6703, 3537.809
325.1524, 3621.302
325.6345, 3692.392
326.1166, 3758.876
326.5987, 3827.620
327.0808, 3897.235
327.5630, 3970.679
328.0451, 4047.549
328.5272, 4127.977
329.0093, 4216.309
329.4914, 4320.315
329.9735, 4423.109
330.4557, 4512.161
330.9378, 4575.261
331.4199, 4646.158
331.9020, 4729.056
332.3841, 4822.297
332.8662, 4919.144
333.3484, 5022.608
333.8305, 5123.671
334.3126, 5219.830
334.7947, 5312.907
335.2768, 5393.612
335.7589, 5464.964
336.2411, 5521.578
336.7232, 5552.022
337.2053, 5555.655
337.6874, 5534.129
338.1695, 5489.213
338.6516, 5422.264
339.1338, 5320.536
339.6159, 5178.731
340.0980, 5011.416
340.5801, 4844.888
341.0622, 4677.515
341.5443, 4506.646
342.0265, 4317.217
342.5086, 4115.943
342.9907, 3955.088
343.4728, 3841.741
343.9549, 3746.373
344.4370, 3629.173
344.9192, 3494.525
345.4013, 3379.222
345.8834, 3301.924
346.3655, 3253.146
346.8476, 3214.173
347.3297, 3185.281
347.8119, 3161.728
348.2940, 3136.550
348.7761, 3113.026
349.2582, 3101.392
349.7403, 3105.338
350.2225, 3121.273
350.7046, 3144.173
351.1867, 3174.411
351.6688, 3213.310
352.1509, 3264.953
352.6331, 3325.121
353.1152, 3386.658
353.5973, 3445.182
354.0794, 3509.991
354.5615, 3587.686
355.0436, 3678.130
355.5258, 3780.907
356.0079, 3896.245
356.4900, 4023.564
356.9721, 4162.347
357.4542, 4312.456
357.9363, 4474.246
358.4185, 4645.646
358.9006, 4829.104
359.3827, 5028.858
359.8648, 5247.654
360.3469, 5482.310
360.8290, 5732.724
361.3112, 6000.847
361.7933, 6277.170
362.2754, 6558.120
362.7575, 6848.019
363.2396, 7152.849
363.7217, 7477.133
364.2039, 7809.195
364.6860, 8141.740
365.1681, 8476.021
365.6502, 8829.538
366.1323, 9235.193
366.6144, 9644.635
367.0966, 10025.72
367.5787, 10339.48
368.0608, 10667.16
368.5429, 11034.57
369.0250, 11427.83
369.5071, 11767.27
369.9893, 12037.79
370.4714, 12271.08
370.9535, 12488.51
371.4356, 12722.45
371.9177, 12862.16
372.3998, 12900.70
372.8820, 12846.67
373.3641, 12723.45
373.8462, 12542.46
374.3283, 12263.94
374.8104, 11858.39
375.2925, 11311.95
375.7747, 10755.75
376.2568, 10182.21
376.7389, 9604.630
377.2210, 9043.494
377.7031, 8498.596
378.1852, 7975.408
378.6674, 7471.255
379.1495, 6989.444
379.6316, 6514.376
380.1137, 6046.931
380.5958, 5614.349
381.0779, 5258.095
381.5601, 4964.372
382.0422, 4690.826
382.5243, 4419.941
383.0064, 4165.807
383.4885, 3956.997
383.9706, 3787.931
384.4528, 3632.019
384.9349, 3465.987
385.4170, 3301.158
385.8991, 3152.301
386.3812, 3020.531
386.8633, 2903.811
387.3455, 2803.141
387.8276, 2716.157
388.3097, 2635.816
388.7918, 2561.367
389.2739, 2491.376
389.7560, 2424.550
390.2382, 2360.697
390.7203, 2301.109
391.2024, 2244.567
391.6845, 2193.518
392.1666, 2150.115
392.6487, 2120.825
393.1309, 2094.385
393.6130, 2069.211
394.0951, 2044.572
394.5772, 2014.685
395.0593, 1969.062
395.5414, 1923.381
396.0236, 1887.902
396.5057, 1874.981
396.9878, 1859.194
397.4699, 1838.612
397.9520, 1813.619
398.4341, 1785.375
398.9163, 1743.568
399.3984, 1709.337
399.8805, 1693.101
400.3626, 1705.900
400.8447, 1702.556
401.3268, 1671.798
401.8090, 1633.235
402.2911, 1615.851
402.7732, 1628.427
403.2553, 1639.749
403.7374, 1641.733
404.2195, 1634.785
404.7017, 1625.331
405.1838, 1612.122
405.6659, 1599.693
406.1480, 1594.399
406.6301, 1596.418
407.1122, 1591.670
407.5944, 1575.447
408.0765, 1553.203
408.5586, 1537.129
409.0407, 1527.105
409.5228, 1521.851
410.0049, 1525.631
410.4871, 1533.699
410.9692, 1530.705
411.4513, 1512.884
411.9334, 1492.868
412.4155, 1485.710
412.8976, 1488.053
413.3798, 1490.373
413.8619, 1487.727
414.3440, 1483.193
414.8261, 1480.039
415.3082, 1478.322
415.7903, 1476.362
416.2725, 1470.819
416.7546, 1465.238
417.2367, 1463.729
417.7188, 1473.224
418.2009, 1480.882
418.6830, 1477.154
419.1652, 1465.711
419.6473, 1460.169
420.1294, 1470.591
420.6115, 1483.989
421.0937, 1493.329
421.5758, 1495.402
422.0579, 1497.953
422.5400, 1502.135
423.0221, 1507.362
423.5042, 1512.828
423.9864, 1521.616
424.4685, 1527.011
424.9506, 1525.485
425.4327, 1516.004
425.9148, 1513.300
426.3969, 1518.899
426.8791, 1529.513
427.3612, 1543.994
427.8433, 1565.989
428.3254, 1579.145
428.8075, 1576.495
429.2896, 1565.228
429.7718, 1573.422
430.2539, 1605.397
430.7360, 1633.995
431.2181, 1637.309
431.7002, 1617.879
432.1823, 1614.638
432.6645, 1631.941
433.1466, 1657.391
433.6287, 1675.697
434.1108, 1687.556
434.5929, 1696.393
435.0750, 1705.188
435.5572, 1711.018
436.0393, 1706.960
436.5214, 1693.381
437.0035, 1678.039
437.4856, 1665.869
437.9677, 1656.164
438.4499, 1648.797
438.9320, 1646.958
439.4141, 1641.953
439.8962, 1627.141
440.3783, 1604.344
440.8604, 1577.816
441.3426, 1534.165
441.8247, 1499.227
442.3068, 1493.974
442.7889, 1529.319
443.2710, 1552.385
443.7531, 1539.207
444.2353, 1510.406
444.7174, 1488.551
445.1995, 1478.463
445.6816, 1474.008
446.1637, 1477.700
446.6458, 1488.287
447.1280, 1492.537
447.6101, 1486.466
448.0922, 1478.429
448.5743, 1472.961
449.0564, 1470.803
449.5385, 1469.162
450.0207, 1468.059
450.5028, 1467.349
450.9849, 1467.204
451.4670, 1468.049
451.9491, 1467.170
452.4312, 1461.700
452.9134, 1452.921
453.3955, 1451.905
453.8776, 1459.528
454.3597, 1468.598
454.8418, 1472.487
455.3239, 1471.897
455.8061, 1469.446
456.2882, 1465.366
456.7703, 1460.210
457.2524, 1450.996
457.7345, 1440.089
458.2166, 1437.094
458.6988, 1457.379
459.1809, 1483.799
459.6630, 1497.045
460.1451, 1494.190
460.6272, 1486.253
461.1093, 1475.631
461.5915, 1465.422
462.0736, 1459.726
462.5557, 1461.297
463.0378, 1466.210
463.5199, 1477.177
464.0020, 1492.367
464.4842, 1499.000
464.9663, 1483.449
465.4484, 1466.678
465.9305, 1459.561
466.4126, 1464.979
466.8947, 1475.964
467.3769, 1498.128
467.8590, 1523.350
468.3411, 1538.386
468.8232, 1539.949
469.3053, 1537.066
469.7874, 1528.765
470.2696, 1516.005
470.7517, 1519.777
471.2338, 1545.215
471.7159, 1571.328
472.1980, 1576.063
472.6801, 1560.114
473.1623, 1554.061
473.6444, 1564.204
474.1265, 1582.053
474.6086, 1592.408
475.0907, 1596.656
475.5728, 1603.774
476.0550, 1619.750
476.5371, 1641.266
477.0192, 1662.748
477.5013, 1684.075
477.9834, 1706.876
478.4655, 1733.536
478.9477, 1762.185
479.4298, 1789.816
479.9119, 1813.054
480.3940, 1838.676
480.8761, 1868.788
481.3582, 1903.739
481.8404, 1944.279
482.3225, 2000.644
482.8046, 2054.392
483.2867, 2095.887
483.7688, 2119.577
484.2509, 2147.449
484.7331, 2182.081
485.2152, 2221.253
485.6973, 2264.334
486.1794, 2315.914
486.6615, 2363.464
487.1436, 2403.821
487.6258, 2438.967
488.1079, 2479.533
488.5900, 2528.046
489.0721, 2574.326
489.5542, 2611.997
490.0363, 2641.170
490.5185, 2671.478
491.0006, 2704.884
491.4827, 2732.811
491.9648, 2739.125
492.4470, 2727.670
492.9291, 2720.593
493.4112, 2736.194
493.8933, 2751.018
494.3754, 2725.911
494.8575, 2664.512
495.3397, 2591.297
495.8218, 2512.146
496.3039, 2433.420
496.7860, 2363.146
497.2681, 2302.265
497.7502, 2246.320
498.2324, 2194.780
498.7145, 2145.826
499.1966, 2095.981
499.6787, 2035.506
500.1608, 1983.365
500.6429, 1944.214
501.1251, 1918.176
501.6072, 1904.931
502.0893, 1915.670
502.5714, 1929.019
503.0535, 1935.410
503.5356, 1933.690
504.0178, 1926.804
504.4999, 1910.272
504.9820, 1892.744
505.4641, 1887.914
505.9462, 1897.639
506.4283, 1910.467
506.9105, 1923.650
507.3926, 1937.272
507.8747, 1950.954
508.3568, 1964.623
508.8389, 1980.879
509.3210, 2004.761
509.8032, 2032.967
510.2853, 2055.001
510.7674, 2067.753
511.2495, 2082.062
511.7316, 2107.477
512.2137, 2142.887
512.6959, 2185.461
513.1780, 2247.500
513.6601, 2305.484
514.1422, 2339.179
514.6243, 2352.153
515.1064, 2369.602
515.5886, 2408.311
516.0707, 2449.806
516.5528, 2481.884
517.0349, 2497.452
517.5170, 2515.848
517.9991, 2544.292
518.4813, 2574.292
518.9634, 2595.396
519.4455, 2608.433
519.9276, 2610.823
520.4097, 2599.774
520.8918, 2577.193
521.3740, 2555.411
521.8561, 2536.724
522.3382, 2511.227
522.8203, 2469.038
523.3024, 2411.652
523.7845, 2360.371
524.2667, 2317.906
524.7488, 2274.392
525.2309, 2210.205
525.7130, 2132.054
526.1951, 2064.592
526.6772, 2017.290
527.1594, 1982.927
527.6415, 1957.642
528.1236, 1939.802
528.6057, 1921.597
529.0878, 1898.032
529.5699, 1872.969
530.0521, 1849.251
530.5342, 1826.839
531.0163, 1806.643
531.4984, 1785.970
531.9805, 1768.724
532.4626, 1758.928
532.9448, 1755.561
533.4269, 1762.147
533.9090, 1786.310
534.3911, 1821.503
534.8732, 1839.434
535.3553, 1829.031
535.8375, 1822.490
536.3196, 1835.081
536.8017, 1867.940
537.2838, 1899.402
537.7659, 1929.993
538.2480, 1958.425
538.7302, 1979.206
539.2123, 1994.778
539.6944, 2021.744
540.1765, 2066.664
540.6586, 2119.091
541.1407, 2167.052
541.6229, 2211.239
542.1050, 2254.882
542.5871, 2301.062
543.0692, 2346.661
543.5513, 2385.840
544.0334, 2418.127
544.5156, 2456.292
544.9977, 2511.761
545.4798, 2572.440
545.9619, 2628.216
546.4440, 2674.430
546.9261, 2719.851
547.4083, 2765.847
547.8904, 2811.928
548.3725, 2857.169
548.8546, 2907.693
549.3367, 2947.947
549.8188, 2974.279
550.3010, 2986.962
550.7831, 2991.084
551.2652, 2989.396
551.7473, 2969.799
552.2294, 2921.393
552.7115, 2845.756
553.1937, 2756.125
553.6758, 2650.519
554.1579, 2543.527
554.6400, 2452.537
555.1221, 2374.427
555.6042, 2302.045
556.0864, 2233.507
556.5685, 2167.637
557.0506, 2101.007
557.5327, 2035.689
558.0148, 1980.594
558.4969, 1944.510
558.9791, 1916.505
559.4612, 1891.399
559.9433, 1869.384
560.4254, 1846.696
560.9075, 1821.338
561.3896, 1795.837
561.8718, 1771.545
562.3539, 1743.019
562.8360, 1725.651
563.3181, 1725.200
563.8002, 1734.529
564.2823, 1737.251
564.7645, 1733.150
565.2466, 1722.756
565.7287, 1701.119
566.2108, 1672.993
566.6929, 1666.199
567.1750, 1681.657
567.6572, 1698.867
568.1393, 1700.210
568.6214, 1690.892
569.1035, 1679.325
569.5856, 1664.941
570.0677, 1655.826
570.5499, 1666.871
571.0320, 1685.827
571.5141, 1693.406
571.9962, 1668.905
572.4783, 1645.275
572.9604, 1637.443
573.4426, 1642.696
573.9247, 1645.918
574.4068, 1639.611
574.8889, 1635.617
575.3710, 1639.692
575.8531, 1654.320
576.3353, 1663.490
576.8174, 1665.578
577.2995, 1664.484
577.7816, 1663.754
578.2637, 1663.497
578.7458, 1662.411
579.2280, 1660.261
579.7101, 1657.287
580.1922, 1652.969
580.6743, 1647.792
581.1564, 1644.488
581.6385, 1644.372
582.1207, 1646.814
582.6028, 1652.226
583.0849, 1660.115
583.5670, 1666.997
584.0491, 1671.245
584.5313, 1673.375
585.0134, 1673.523
585.4955, 1671.224
585.9776, 1668.572
586.4597, 1663.099
586.9418, 1658.843
587.4240, 1660.639
587.9061, 1673.073
588.3882, 1684.800
588.8703, 1696.893
589.3524, 1706.889
589.8345, 1705.130
590.3167, 1687.597
590.7988, 1673.824
591.2809, 1674.151
591.7630, 1685.583
592.2451, 1692.068
592.7272, 1693.348
593.2094, 1696.039
593.6915, 1706.610
594.1736, 1722.311
594.6557, 1740.294
595.1378, 1762.108
595.6199, 1776.000
596.1021, 1763.894
596.5842, 1740.620
597.0663, 1727.281
597.5485, 1742.015
598.0306, 1756.261
598.5127, 1759.230
598.9948, 1753.733
599.4769, 1752.497
599.9590, 1759.338
600.4412, 1766.775
600.9233, 1771.675
601.4054, 1773.618
601.8875, 1780.721
602.3696, 1794.741
602.8517, 1809.498
603.3339, 1819.412
603.8160, 1824.864
604.2981, 1829.214
604.7802, 1832.537
605.2623, 1835.752
605.7444, 1838.908
606.2266, 1842.830
606.7087, 1849.833
607.1908, 1866.828
607.6729, 1881.073
608.1550, 1876.940
608.6371, 1860.735
609.1193, 1852.821
609.6014, 1874.565
610.0835, 1895.229
610.5656, 1894.695
611.0477, 1866.647
611.5298, 1859.450
612.0120, 1890.635
612.4941, 1926.980
612.9762, 1945.052
613.4583, 1937.708
613.9404, 1938.083
614.4225, 1948.888
614.9047, 1965.219
615.3868, 1982.610
615.8689, 2000.724
616.3510, 2012.544
616.8331, 2013.394
617.3152, 2010.370
617.7974, 2015.717
618.2795, 2027.140
618.7616, 2035.987
619.2437, 2032.843
619.7258, 2028.740
620.2079, 2029.731
620.6901, 2036.346
621.1722, 2052.927
621.6543, 2091.211
622.1364, 2132.910
622.6185, 2165.708
623.1006, 2186.015
623.5828, 2203.961
624.0649, 2216.065
624.5470, 2229.000
625.0291, 2253.984
625.5112, 2295.523
625.9933, 2322.992
626.4755, 2325.299
626.9576, 2317.770
627.4397, 2333.906
627.9218, 2371.081
628.4039, 2409.258
628.8860, 2436.646
629.3682, 2460.489
629.8503, 2489.900
630.3324, 2524.613
630.8145, 2561.580
631.2966, 2598.441
631.7787, 2636.885
632.2609, 2678.276
632.7430, 2723.359
633.2251, 2769.303
633.7072, 2811.648
634.1893, 2856.635
634.6714, 2909.104
635.1536, 2967.266
635.6357, 3038.406
636.1178, 3126.883
636.5999, 3223.585
637.0820, 3305.459
637.5641, 3370.751
638.0463, 3458.016
638.5284, 3586.823
639.0105, 3739.847
639.4926, 3885.706
639.9747, 4026.956
640.4568, 4173.630
640.9390, 4314.943
641.4211, 4477.736
641.9032, 4690.880
642.3853, 4955.340
642.8674, 5242.659
643.3495, 5546.081
643.8317, 5864.651
644.3138, 6201.339
644.7959, 6551.983
645.2780, 6926.952
645.7601, 7323.042
646.2422, 7744.440
646.7244, 8205.461
647.2065, 8707.523
647.6886, 9224.710
648.1707, 9754.962
648.6528, 10286.27
649.1349, 10795.20
649.6171, 11284.65
650.0992, 11789.41
650.5813, 12333.47
651.0634, 12896.89
651.5455, 13454.44
652.0276, 14011.92
652.5098, 14573.82
652.9919, 15172.34
653.4740, 15754.24
653.9561, 16290.37
654.4382, 16778.37
654.9203, 17216.58
655.4025, 17637.21
655.8846, 17983.09
656.3667, 18217.49
656.8488, 18351.98
657.3309, 18339.15
657.8130, 18175.86
658.2952, 17869.33
658.7773, 17405.65
659.2594, 16789.25
659.7415, 16120.42
660.2236, 15423.83
660.7057, 14685.09
661.1879, 13867.34
661.6700, 12994.12
662.1521, 12140.33
662.6342, 11321.34
663.1163, 10551.49
663.5984, 9842.571
664.0806, 9192.775
664.5627, 8583.416
665.0448, 8018.051
665.5269, 7494.179
666.0090, 7005.925
666.4911, 6554.758
666.9733, 6160.824
667.4554, 5831.649
667.9375, 5544.809
668.4196, 5288.327
668.9017, 5060.661
669.3839, 4843.495
669.8660, 4635.570
670.3481, 4439.508
670.8302, 4256.155
671.3123, 4088.036
671.7944, 3941.072
672.2766, 3824.315
672.7587, 3720.027
673.2408, 3617.869
673.7229, 3519.303
674.2050, 3425.129
674.6871, 3331.344
675.1693, 3246.854
675.6514, 3175.793
676.1335, 3115.734
676.6156, 3056.048
677.0977, 2995.139
677.5798, 2938.539
678.0620, 2889.893
678.5441, 2848.247
679.0262, 2810.144
679.5083, 2775.614
679.9904, 2738.823
680.4725, 2688.047
680.9547, 2633.954
681.4368, 2596.767
681.9189, 2580.522
682.4010, 2567.967
682.8831, 2547.260
683.3652, 2524.723
683.8474, 2507.339
684.3295, 2503.042
684.8116, 2493.781
685.2937, 2473.326
685.7758, 2448.076
686.2579, 2425.505
686.7401, 2403.817
687.2222, 2390.349
687.7043, 2388.350
688.1864, 2393.666
688.6685, 2398.854
689.1506, 2403.555
689.6328, 2401.832
690.1149, 2385.969
690.5970, 2365.391
691.0791, 2354.542
691.5612, 2351.955
692.0433, 2350.388
692.5255, 2342.977
693.0076, 2337.605
693.4897, 2340.378
693.9718, 2352.460
694.4539, 2363.557
694.9360, 2370.871
695.4182, 2378.131
695.9003, 2388.292
696.3824, 2403.311
696.8645, 2411.352
697.3466, 2410.509
697.8287, 2407.693
698.3109, 2413.392
698.7930, 2424.743
699.2751, 2425.617
699.7572, 2411.835
700.2393, 2392.211
700.7214, 2373.724
701.2036, 2356.163
701.6857, 2339.198
702.1678, 2323.804
702.6499, 2307.714
703.1320, 2289.542
703.6141, 2270.060
704.0963, 2251.185
704.5784, 2234.414
705.0605, 2215.698
705.5426, 2192.437
706.0247, 2166.616
706.5068, 2148.865
706.9890, 2140.114
707.4711, 2130.798
707.9532, 2113.866
708.4353, 2093.256
708.9174, 2080.965
709.3995, 2076.125
709.8817, 2070.768
710.3638, 2056.311
710.8459, 2040.990
711.3280, 2033.220
711.8101, 2034.725
712.2922, 2035.219
712.7744, 2029.223
713.2565, 2023.165
713.7386, 2021.520
714.2207, 2026.683
714.7028, 2030.613
715.1849, 2034.552
715.6671, 2035.145
716.1492, 2025.564
716.6313, 2007.157
717.1134, 1996.866
717.5955, 2000.197
718.0776, 2004.194
718.5598, 1987.327
719.0419, 1960.354
719.5240, 1944.303
720.0061, 1952.562
720.4882, 1966.002
720.9703, 1980.124
721.4525, 1992.793
721.9346, 1999.210
722.4167, 1994.728
722.8988, 1989.167
723.3809, 1983.752
723.8630, 1978.657
724.3452, 1974.306
724.8273, 1970.532
725.3094, 1968.837
725.7915, 1971.836
726.2736, 1976.763
726.7557, 1974.225
727.2379, 1965.479
727.7200, 1960.409
728.2021, 1970.776
728.6842, 1983.716
729.1663, 1989.338
729.6484, 1986.670
730.1306, 1979.276
730.6127, 1956.577
731.0948, 1939.327
731.5769, 1940.931
732.0590, 1968.998
732.5411, 1983.520
733.0233, 1981.672
733.5054, 1972.615
733.9875, 1961.215
734.4696, 1948.721
734.9517, 1946.303
735.4338, 1956.445
735.9160, 1968.897
736.3981, 1975.988
736.8802, 1977.802
737.3623, 1973.548
737.8444, 1958.162
738.3266, 1946.139
738.8087, 1941.664
739.2908, 1944.239
739.7729, 1954.032
740.2551, 1980.143
740.7372, 1996.378
741.2193, 1997.871
741.7014, 1989.510
742.1835, 1979.196
742.6656, 1966.915
743.1478, 1959.329
743.6299, 1958.256
744.1120, 1963.313
744.5941, 1977.861
745.0762, 1998.575
745.5583, 2015.606
746.0405, 2020.308
746.5226, 2023.308
747.0047, 2030.348
747.4868, 2040.866
747.9689, 2050.790
748.4510, 2061.874
748.9332, 2069.354
749.4153, 2071.638
749.8974, 2068.864
750.3795, 2060.978
750.8616, 2046.858
751.3438, 2036.462
751.8259, 2038.823
752.3080, 2049.002
752.7901, 2055.405
753.2722, 2057.890
753.7543, 2059.887
754.2365, 2063.701
754.7186, 2067.964
755.2007, 2072.178
755.6828, 2076.848
756.1649, 2078.117
756.6470, 2071.241
757.1292, 2064.421
757.6113, 2063.582
758.0934, 2071.497
758.5755, 2071.867
759.0576, 2062.898
759.5397, 2052.368
760.0219, 2048.552
760.5040, 2049.821
760.9861, 2052.049
761.4682, 2055.242
761.9503, 2055.664
762.4324, 2047.769
762.9146, 2036.510
763.3967, 2027.551
763.8788, 2021.500
764.3609, 2019.129
764.8430, 2025.622
765.3251, 2033.021
765.8073, 2031.349
766.2894, 2017.591
766.7715, 2007.106
767.2536, 2003.150
767.7357, 2001.264
768.2178, 1988.603
768.7000, 1970.080
769.1821, 1968.657
769.6642, 2005.199
770.1463, 2039.464
770.6284, 2027.077
771.1105, 1988.681
771.5927, 1964.180
772.0748, 1986.209
772.5569, 1999.579
773.0390, 1984.440
773.5211, 1953.127
774.0032, 1937.554
774.4854, 1941.847
774.9675, 1946.546
775.4496, 1946.126
775.9317, 1942.144
776.4138, 1937.056
776.8959, 1931.436
777.3781, 1928.152
777.8602, 1929.065
778.3423, 1932.689
778.8244, 1941.117
779.3065, 1952.083
779.7886, 1956.277
780.2708, 1939.253
780.7529, 1927.610
781.2350, 1935.181
781.7171, 1958.250
782.1992, 1958.406
782.6813, 1929.232
783.1635, 1902.717
783.6456, 1897.829
784.1277, 1907.795
784.6098, 1908.565
785.0919, 1901.411
785.5740, 1898.842
786.0562, 1917.539
786.5383, 1938.013
787.0204, 1942.349
787.5025, 1929.594
787.9846, 1916.970
788.4667, 1905.344
788.9489, 1898.107
789.4310, 1898.542
789.9131, 1907.425
790.3952, 1907.770
790.8773, 1897.605
791.3594, 1888.087
791.8416, 1889.928
792.3237, 1898.574
792.8058, 1901.089
793.2879, 1896.964
793.7700, 1893.328
794.2521, 1894.499
794.7343, 1898.683
795.2164, 1905.363
795.6985, 1915.772
796.1806, 1922.777
796.6627, 1926.489
797.1448, 1925.998
797.6270, 1918.578
798.1091, 1902.319
798.5912, 1896.396
799.0733, 1902.642
799.5554, 1909.710
800.0375, 1904.738
800.5197, 1893.215
801.0018, 1885.057
801.4839, 1881.618
801.9660, 1881.962
802.4481, 1888.635
802.9302, 1896.917
803.4124, 1902.721
803.8945, 1903.952
804.3766, 1906.242
804.8587, 1910.777
805.3408, 1914.801
805.8229, 1914.888
806.3051, 1911.079
806.7872, 1910.490
807.2693, 1914.187
807.7514, 1918.284
808.2335, 1920.155
808.7156, 1919.353
809.1978, 1914.584
809.6799, 1904.323
810.1620, 1894.361
810.6441, 1881.952
811.1262, 1874.008
811.6083, 1878.787
812.0905, 1908.936
812.5726, 1920.760
813.0547, 1906.881
813.5368, 1887.044
814.0189, 1887.238
814.5010, 1903.383
814.9832, 1910.275
815.4653, 1902.247
815.9474, 1892.459
816.4295, 1894.787
816.9116, 1901.760
817.3937, 1903.697
817.8759, 1894.521
818.3580, 1887.556
818.8401, 1886.586
819.3222, 1888.356
819.8043, 1890.267
820.2864, 1892.561
820.7686, 1893.340
821.2507, 1891.640
821.7328, 1890.792
822.2149, 1899.661
822.6970, 1912.499
823.1791, 1911.610
823.6613, 1886.806
824.1434, 1868.757
824.6255, 1889.541
825.1076, 1922.993
825.5897, 1939.699
826.0718, 1916.491
826.5540, 1902.305
827.0361, 1900.623
827.5182, 1903.985
828.0003, 1902.103
828.4824, 1895.126
828.9645, 1895.786
829.4467, 1906.899
829.9288, 1922.062
830.4109, 1936.642
830.8930, 1949.551
831.3751, 1959.187
831.8572, 1964.552
832.3394, 1967.698
832.8215, 1967.583
833.3036, 1966.546
833.7857, 1966.387
834.2678, 1964.431
834.7499, 1972.276
835.2321, 1993.257
835.7142, 2017.965
836.1963, 2032.882
836.6784, 2041.356
837.1605, 2055.608
837.6426, 2078.535
838.1248, 2104.200
838.6069, 2126.109
839.0890, 2149.128
839.5711, 2178.861
840.0532, 2223.010
840.5353, 2261.668
841.0175, 2290.772
841.4996, 2317.158
841.9817, 2346.675
842.4638, 2379.416
842.9459, 2416.282
843.4280, 2457.885
843.9102, 2500.870
844.3923, 2540.571
844.8744, 2579.672
845.3565, 2623.032
845.8386, 2674.045
846.3207, 2721.151
846.8029, 2762.783
847.2850, 2796.173
847.7671, 2818.326
848.2492, 2823.355
848.7313, 2836.476
849.2134, 2864.195
849.6956, 2883.099
850.1777, 2862.228
850.6598, 2812.604
851.1419, 2775.299
851.6240, 2756.650
852.1061, 2733.461
852.5883, 2683.041
853.0704, 2622.638
853.5525, 2565.618
854.0346, 2511.890
854.5167, 2472.556
854.9988, 2461.782
855.4810, 2447.413
855.9631, 2399.674
856.4452, 2317.535
856.9273, 2261.102
857.4094, 2233.003
857.8915, 2215.776
858.3737, 2201.057
858.8558, 2185.108
859.3379, 2160.083
859.8200, 2124.229
860.3021, 2096.135
860.7842, 2085.884
861.2664, 2083.875
861.7485, 2087.732
862.2306, 2099.597
862.7127, 2091.481
863.1948, 2057.842
863.6769, 2028.345
864.1591, 2029.106
864.6412, 2048.376
865.1233, 2058.307
865.6054, 2058.613
866.0875, 2057.543
866.5696, 2062.573
867.0518, 2065.717
867.5339, 2060.390
868.0160, 2045.619
868.4981, 2034.204
868.9802, 2024.673
869.4623, 2021.914
869.9445, 2032.536
870.4266, 2051.611
870.9087, 2054.167
871.3908, 2041.591
871.8729, 2028.464
872.3550, 2023.049
872.8372, 2021.255
873.3193, 2018.698
873.8014, 2016.229
874.2835, 2019.260
874.7656, 2032.987
875.2477, 2048.052
875.7299, 2063.951
876.2120, 2079.033
876.6941, 2086.128
877.1762, 2085.241
877.6583, 2084.127
878.1404, 2088.324
878.6226, 2091.761
879.1047, 2082.383
879.5869, 2065.719
880.0690, 2055.766
880.5511, 2065.113
881.0332, 2073.567
881.5153, 2075.994
881.9974, 2073.502
882.4796, 2065.835
882.9617, 2050.473
883.4438, 2045.065
883.9259, 2055.954
884.4080, 2074.233
884.8901, 2087.954
885.3723, 2097.844
885.8544, 2105.204
886.3365, 2106.840
886.8186, 2111.892
887.3007, 2129.717
887.7828, 2151.024
888.2650, 2162.221
888.7471, 2157.717
889.2292, 2157.757
889.7113, 2164.934
890.1934, 2174.910
890.6755, 2184.009
891.1577, 2191.331
891.6398, 2192.320
892.1219, 2184.060
892.6040, 2180.251
893.0861, 2195.850
893.5682, 2217.231
894.0504, 2230.351
894.5325, 2224.920
895.0146, 2234.806
895.4967, 2268.354
895.9788, 2301.747
896.4609, 2312.224
896.9431, 2303.651
897.4252, 2299.946
897.9073, 2302.394
898.3894, 2303.619
898.8715, 2291.395
899.3536, 2280.236
899.8358, 2285.882
900.3179, 2311.625
900.8000, 2327.788
901.2821, 2327.959
901.7642, 2323.213
902.2463, 2316.193
902.7285, 2308.101
903.2106, 2308.516
903.6927, 2317.186
904.1748, 2327.075
904.6569, 2334.900
905.1390, 2341.180
905.6212, 2349.762
906.1033, 2358.112
906.5854, 2355.848
907.0675, 2323.793
907.5496, 2300.956
908.0317, 2302.361
908.5139, 2316.970
908.9960, 2307.214
909.4781, 2272.992
909.9602, 2245.712
910.4423, 2240.047
910.9244, 2240.957
911.4066, 2228.347
911.8887, 2209.583
912.3708, 2198.079
912.8529, 2210.865
913.3350, 2214.968
913.8171, 2196.385
914.2993, 2172.367
914.7814, 2170.476
915.2635, 2193.721
915.7456, 2195.804
916.2277, 2166.306
916.7098, 2131.341
917.1920, 2124.677
917.6741, 2131.035
918.1562, 2127.582
918.6383, 2107.220
919.1204, 2085.991
919.6025, 2061.170
920.0847, 2043.541
920.5668, 2042.828
921.0489, 2062.669
921.5310, 2072.778
922.0131, 2072.264
922.4952, 2069.293
922.9774, 2072.862
923.4595, 2076.980
923.9416, 2071.730
924.4237, 2057.038
924.9058, 2041.002
925.3879, 2020.680
925.8701, 2006.180
926.3522, 2002.270
926.8343, 2007.801
927.3164, 2013.389
927.7985, 2018.781
928.2806, 2027.222
928.7628, 2045.052
929.2449, 2062.062
929.7270, 2059.975
930.2091, 2043.822
930.6912, 2027.165
931.1733, 2011.346
931.6555, 2000.927
932.1376, 1999.685
932.6197, 2003.766
933.1018, 2007.640
933.5839, 2011.485
934.0660, 2013.727
934.5482, 2013.648
935.0303, 2013.314
935.5124, 2016.808
935.9945, 2021.549
936.4766, 2021.918
936.9587, 2012.923
937.4409, 2009.864
937.9230, 2025.828
938.4051, 2043.412
938.8872, 2047.947
939.3693, 2035.885
939.8514, 2032.644
940.3336, 2039.186
940.8157, 2048.030
941.2978, 2053.926
941.7799, 2057.782
942.2620, 2060.179
942.7441, 2061.345
943.2263, 2063.925
943.7084, 2071.076
944.1905, 2077.539
944.6726, 2081.279
945.1547, 2082.558
945.6368, 2082.135
946.1190, 2079.777
946.6011, 2079.687
947.0832, 2083.967
947.5653, 2091.283
948.0474, 2100.002
948.5295, 2110.381
949.0117, 2123.007
949.4938, 2146.483
949.9759, 2161.014
950.4580, 2159.381
950.9401, 2150.115
951.4222, 2144.957
951.9044, 2143.873
952.3865, 2147.469
952.8686, 2156.807
953.3507, 2166.182
953.8328, 2164.350
954.3149, 2161.390
954.7971, 2172.521
955.2792, 2206.368
955.7613, 2231.257
956.2434, 2241.205
956.7255, 2242.528
957.2076, 2234.774
957.6898, 2218.570
958.1719, 2219.013
958.6540, 2235.898
959.1361, 2254.832
959.6182, 2269.326
960.1003, 2278.816
960.5825, 2282.141
961.0646, 2279.836
961.5467, 2274.522
962.0288, 2257.847
962.5109, 2252.958
962.9930, 2271.067
963.4752, 2299.435
963.9573, 2303.007
964.4394, 2285.834
964.9215, 2272.823
965.4036, 2271.859
965.8857, 2278.357
966.3679, 2293.144
966.8500, 2311.200
967.3321, 2326.166
967.8142, 2337.504
968.2963, 2343.861
968.7784, 2342.314
969.2606, 2341.571
969.7427, 2355.232
970.2248, 2377.203
970.7069, 2381.146
971.1890, 2365.351
971.6711, 2355.229
972.1533, 2368.451
972.6354, 2392.218
973.1175, 2422.657
973.5996, 2458.710
974.0817, 2480.781
974.5638, 2484.198
975.0460, 2490.707
975.5281, 2513.551
976.0102, 2541.434
976.4923, 2543.885
976.9744, 2530.658
977.4565, 2530.404
977.9387, 2563.979
978.4208, 2602.868
978.9029, 2646.143
979.3850, 2684.492
979.8671, 2701.023
980.3492, 2688.804
980.8314, 2697.268
981.3135, 2734.759
981.7956, 2780.344
982.2777, 2814.517
982.7598, 2840.963
983.2419, 2862.065
983.7241, 2876.513
984.2062, 2900.313
984.6883, 2945.106
985.1704, 2993.614
985.6525, 3037.392
986.1346, 3077.724
986.6168, 3127.662
987.0989, 3187.185
987.5810, 3255.579
988.0631, 3342.671
988.5452, 3430.162
989.0273, 3489.295
989.5095, 3534.865
989.9916, 3604.744
990.4737, 3722.797
990.9558, 3840.601
991.4379, 3951.398
991.9200, 4059.613
992.4022, 4160.605
992.8843, 4262.000
993.3664, 4404.567
993.8485, 4597.854
994.3306, 4810.742
994.8127, 5017.717
995.2949, 5238.091
995.7770, 5484.590
996.2591, 5753.655
996.7412, 6064.882
997.2233, 6412.162
997.7054, 6813.289
998.1876, 7278.812
998.6697, 7804.146
999.1518, 8374.132
999.6339, 9000.276
1000.116, 9732.338
1000.598, 10621.62
1001.080, 11595.86
1001.562, 12624.50
1002.044, 13729.41
1002.527, 14997.45
1003.009, 16426.16
1003.491, 17919.58
1003.973, 19438.28
1004.455, 20994.75
1004.937, 22584.65
1005.419, 24202.51
1005.901, 25820.46
1006.384, 27427.92
1006.866, 29046.23
1007.348, 30703.63
1007.830, 32320.89
1008.312, 33879.14
1008.794, 35357.03
1009.276, 36725.84
1009.758, 37958.04
1010.240, 38881.15
1010.723, 39486.04
1011.205, 39659.63
1011.687, 39332.23
1012.169, 38495.91
1012.651, 37186.91
1013.133, 35318.17
1013.615, 33207.36
1014.097, 30848.34
1014.580, 28391.64
1015.062, 26007.74
1015.544, 23723.57
1016.026, 21562.59
1016.508, 19531.48
1016.990, 17696.12
1017.472, 16100.70
1017.954, 14706.74
1018.436, 13489.15
1018.919, 12455.29
1019.401, 11572.61
1019.883, 10841.26
1020.365, 10209.89
1020.847, 9666.437
1021.329, 9194.294
1021.811, 8782.759
1022.293, 8430.884
1022.776, 8128.409
1023.258, 7888.913
1023.740, 7675.031
1024.222, 7488.628
1024.704, 7317.042
1025.186, 7143.987
1025.668, 6971.909
1026.150, 6815.001
1026.632, 6674.543
1027.115, 6546.469
1027.597, 6448.060
1028.079, 6344.471
1028.561, 6207.636
1029.043, 6039.330
1029.525, 5869.340
1030.007, 5699.038
1030.489, 5539.601
1030.972, 5404.937
1031.454, 5275.012
1031.936, 5113.707
1032.418, 4933.951
1032.900, 4766.057
1033.382, 4622.645
1033.864, 4484.916
1034.346, 4350.199
1034.828, 4220.714
1035.311, 4101.613
1035.793, 3991.300
1036.275, 3887.730
1036.757, 3789.881
1037.239, 3692.407
1037.721, 3575.678
1038.203, 3471.126
1038.685, 3411.557
1039.167, 3391.909
1039.650, 3352.491
1040.132, 3289.144
1040.614, 3224.838
1041.096, 3167.395
1041.578, 3115.114
1042.060, 3067.478
1042.542, 3024.045
1043.024, 2983.286
1043.507, 2944.631
1043.989, 2910.023
1044.471, 2881.097
1044.953, 2854.079
1045.435, 2826.450
1045.917, 2798.182
1046.399, 2764.573
1046.881, 2726.208
1047.364, 2693.617
1047.846, 2678.207
1048.328, 2667.048
1048.810, 2654.229
1049.292, 2638.198
1049.774, 2613.788
1050.256, 2576.189
1050.738, 2548.067
1051.220, 2535.784
1051.703, 2529.709
1052.185, 2516.075
1052.667, 2499.391
1053.149, 2488.171
1053.631, 2485.694
1054.113, 2481.031
1054.595, 2474.382
1055.077, 2460.837
1055.559, 2433.239
1056.042, 2395.729
1056.524, 2379.237
1057.006, 2381.084
1057.488, 2379.376
1057.970, 2352.199
1058.452, 2328.041
1058.934, 2330.282
1059.416, 2346.093
1059.899, 2350.734
1060.381, 2340.969
1060.863, 2329.172
1061.345, 2315.633
1061.827, 2303.003
1062.309, 2294.603
1062.791, 2288.366
1063.273, 2280.730
1063.755, 2271.433
1064.238, 2265.035
1064.720, 2271.259
1065.202, 2268.161
1065.684, 2243.264
1066.166, 2209.078
1066.648, 2205.989
1067.130, 2227.157
1067.612, 2240.062
1068.094, 2231.187
1068.577, 2219.383
1069.059, 2215.637
1069.541, 2214.646
1070.023, 2211.439
1070.505, 2205.946
1070.987, 2196.234
1071.469, 2181.294
1071.951, 2170.743
1072.434, 2176.321
1072.916, 2186.112
1073.398, 2186.692
1073.880, 2179.349
1074.362, 2169.549
1074.844, 2158.504
1075.326, 2143.333
1075.808, 2119.085
1076.291, 2098.479
1076.773, 2105.973
1077.255, 2130.942
1077.737, 2142.343
1078.219, 2135.241
1078.701, 2124.307
1079.183, 2112.993
1079.665, 2103.707
1080.147, 2096.121
1080.630, 2091.205
1081.112, 2098.030
1081.594, 2115.983
1082.076, 2125.921
1082.558, 2118.258
1083.040, 2104.465
1083.522, 2090.432
1084.004, 2078.448
1084.486, 2071.955
1084.969, 2072.157
1085.451, 2075.154
1085.933, 2081.607
1086.415, 2088.264
1086.897, 2095.168
1087.379, 2099.329
1087.861, 2094.161
1088.343, 2081.133
1088.826, 2066.836
1089.308, 2048.241
1089.790, 2036.754
1090.272, 2037.174
1090.754, 2041.950
1091.236, 2037.388
1091.718, 2026.367
1092.200, 2023.331
1092.682, 2030.980
1093.165, 2038.644
1093.647, 2040.545
1094.129, 2039.379
1094.611, 2035.444
1095.093, 2029.678
1095.575, 2029.405
1096.057, 2034.926
1096.539, 2038.188
1097.022, 2035.046
1097.504, 2030.690
1097.986, 2032.665
1098.468, 2035.793
1098.950, 2032.588
1099.432, 2019.275
1099.914, 2004.879
1100.396, 1986.632
1100.879, 1976.989
1101.361, 1995.228
1101.843, 2023.661
1102.325, 2025.322
1102.807, 2006.007
1103.289, 1988.648
1103.771, 1981.915
1104.253, 1977.678
1104.735, 1973.733
1105.218, 1972.084
1105.700, 1978.781
1106.182, 1990.857
1106.664, 1993.335
1107.146, 1984.494
1107.628, 1971.506
1108.110, 1944.935
1108.592, 1929.691
1109.074, 1950.878
1109.557, 1994.373
1110.039, 1997.890
1110.521, 1960.819
1111.003, 1933.520
1111.485, 1932.068
1111.967, 1941.320
1112.449, 1954.844
1112.931, 1966.772
1113.414, 1970.120
1113.896, 1962.882
1114.378, 1953.272
1114.860, 1940.432
1115.342, 1929.019
1115.824, 1922.968
1116.306, 1918.817
1116.788, 1907.642
1117.271, 1894.462
1117.753, 1890.380
1118.235, 1911.415
1118.717, 1923.046
1119.199, 1921.660
1119.681, 1913.543
1120.163, 1900.324
1120.645, 1886.051
1121.127, 1885.453
1121.609, 1897.558
1122.092, 1907.501
1122.574, 1907.914
1123.056, 1904.408
1123.538, 1897.161
1124.020, 1888.879
1124.502, 1886.026
1124.984, 1887.720
1125.466, 1886.484
1125.949, 1880.952
1126.431, 1872.980
1126.913, 1857.372
1127.395, 1845.454
1127.877, 1848.703
1128.359, 1864.460
1128.841, 1871.455
1129.323, 1869.185
1129.806, 1867.867
1130.288, 1873.245
1130.770, 1876.733
1131.252, 1865.648
1131.734, 1849.258
1132.216, 1840.436
1132.698, 1843.520
1133.180, 1843.503
1133.662, 1840.465
1134.145, 1833.890
1134.627, 1818.360
1135.109, 1802.389
1135.591, 1803.708
1136.073, 1815.406
1136.555, 1819.945
1137.037, 1805.180
1137.519, 1792.727
1138.001, 1782.028
1138.484, 1777.778
1138.966, 1791.970
1139.448, 1814.638
1139.930, 1817.661
1140.412, 1802.104
1140.894, 1791.451
1141.376, 1800.957
1141.858, 1809.561
1142.341, 1811.709
1142.823, 1809.952
1143.305, 1807.565
1143.787, 1805.246
1144.269, 1808.410
1144.751, 1819.097
1145.233, 1822.289
1145.715, 1798.085
1146.198, 1775.712
1146.680, 1774.084
1147.162, 1787.093
1147.644, 1783.832
1148.126, 1765.718
1148.608, 1752.476
1149.090, 1751.367
1149.572, 1753.627
1150.054, 1752.873
1150.536, 1752.198
1151.019, 1754.598
1151.501, 1760.217
1151.983, 1768.663
1152.465, 1780.319
1152.947, 1786.393
1153.429, 1778.586
1153.911, 1767.093
1154.393, 1759.400
1154.876, 1755.506
1155.358, 1756.137
1155.840, 1763.070
1156.322, 1768.698
1156.804, 1773.263
1157.286, 1774.439
1157.768, 1768.076
1158.250, 1758.844
1158.733, 1750.137
1159.215, 1743.479
1159.697, 1744.463
1160.179, 1761.236
1160.661, 1768.274
1161.143, 1760.286
1161.625, 1748.651
1162.107, 1744.263
1162.589, 1746.198
1163.072, 1757.006
1163.554, 1775.596
1164.036, 1783.589
1164.518, 1765.805
1165.000, 1755.748
1165.482, 1764.378
1165.964, 1779.711
1166.446, 1780.118
1166.928, 1770.305
1167.411, 1760.072
1167.893, 1750.997
1168.375, 1743.167
1168.857, 1735.405
1169.339, 1730.421
1169.821, 1729.524
1170.303, 1732.056
1170.785, 1737.956
1171.268, 1745.727
1171.750, 1750.776
1172.232, 1751.910
1172.714, 1749.359
1173.196, 1734.889
1173.678, 1725.352
1174.160, 1735.968
1174.642, 1761.303
1175.125, 1759.264
1175.607, 1735.359
1176.089, 1720.106
1176.571, 1736.796
1177.053, 1753.361
1177.535, 1753.347
1178.017, 1748.425
1178.499, 1750.180
1178.981, 1758.473
1179.464, 1758.214
1179.946, 1749.876
1180.428, 1743.656
1180.910, 1749.922
1181.392, 1755.699
1181.874, 1751.933
1182.356, 1744.332
1182.838, 1742.414
1183.320, 1746.475
1183.803, 1745.735
1184.285, 1739.175
1184.767, 1733.943
1185.249, 1738.723
1185.731, 1743.482
1186.213, 1736.625
1186.695, 1725.003
1187.177, 1730.585
1187.660, 1755.069
1188.142, 1770.579
1188.624, 1772.222
1189.106, 1766.662
1189.588, 1756.632
1190.070, 1744.403
1190.552, 1728.203
1191.034, 1710.393
1191.516, 1706.502
1191.999, 1717.878
1192.481, 1731.838
1192.963, 1746.931
1193.445, 1757.371
1193.927, 1752.125
1194.409, 1742.861
1194.891, 1742.487
1195.373, 1752.057
1195.855, 1757.587
1196.338, 1759.009
1196.820, 1756.869
1197.302, 1749.857
1197.784, 1742.586
1198.266, 1741.980
1198.748, 1743.147
1199.230, 1738.962
1199.712, 1727.329
1200.195, 1720.241
1200.677, 1717.926
1201.159, 1718.859
1201.641, 1725.357
1202.123, 1730.795
1202.605, 1719.901
1203.087, 1705.484
1203.569, 1711.298
1204.052, 1754.497
1204.534, 1769.184
1205.016, 1751.142
1205.498, 1730.515
1205.980, 1728.704
1206.462, 1734.959
1206.944, 1739.728
1207.426, 1742.393
1207.908, 1740.992
1208.391, 1733.127
1208.873, 1727.911
1209.355, 1725.500
1209.837, 1726.718
1210.319, 1735.882
1210.801, 1746.231
1211.283, 1750.799
1211.765, 1749.773
1212.247, 1743.543
1212.730, 1728.783
1213.212, 1721.342
1213.694, 1723.979
1214.176, 1728.792
1214.658, 1728.646
1215.140, 1726.074
1215.622, 1720.092
1216.104, 1713.384
1216.587, 1722.202
1217.069, 1756.097
1217.551, 1772.730
1218.033, 1762.629
1218.515, 1745.159
1218.997, 1740.352
1219.479, 1741.114
1219.961, 1738.771
1220.443, 1733.275
1220.926, 1733.796
1221.408, 1742.819
1221.890, 1749.119
1222.372, 1750.206
1222.854, 1747.316
1223.336, 1737.391
1223.818, 1727.206
1224.300, 1725.704
1224.782, 1734.346
1225.265, 1740.595
1225.747, 1744.789
1226.229, 1744.129
1226.711, 1736.405
1227.193, 1727.227
1227.675, 1719.729
1228.157, 1716.822
1228.639, 1725.920
1229.122, 1749.780
1229.604, 1752.668
1230.086, 1729.909
1230.568, 1719.026
1231.050, 1741.251
1231.532, 1767.173
1232.014, 1757.500
1232.496, 1734.739
1232.979, 1728.574
1233.461, 1743.789
1233.943, 1749.787
1234.425, 1745.737
1234.907, 1739.916
1235.389, 1733.425
1235.871, 1731.375
1236.353, 1746.347
1236.835, 1764.671
1237.318, 1765.495
1237.800, 1744.683
1238.282, 1737.478
1238.764, 1744.491
1239.246, 1753.890
1239.728, 1763.715
1240.210, 1767.347
1240.692, 1750.093
1241.175, 1728.034
1241.657, 1724.592
1242.139, 1744.237
1242.621, 1753.874
1243.103, 1753.516
1243.585, 1752.075
1244.067, 1758.955
1244.549, 1762.497
1245.031, 1748.044
1245.514, 1729.272
1245.996, 1727.390
1246.478, 1744.924
1246.960, 1744.053
1247.442, 1725.232
1247.924, 1710.811
1248.406, 1718.673
1248.888, 1731.248
1249.370, 1740.482
1249.853, 1747.721
1250.335, 1755.760
1250.817, 1764.338
1251.299, 1765.740
1251.781, 1760.200
1252.263, 1756.293
1252.745, 1759.981
1253.227, 1765.790
1253.710, 1773.697
1254.192, 1780.456
1254.674, 1782.406
1255.156, 1779.547
1255.638, 1768.944
1256.120, 1751.525
1256.602, 1739.371
1257.084, 1746.392
1257.567, 1750.108
1258.049, 1739.840
1258.531, 1727.226
1259.013, 1733.078
1259.495, 1750.255
1259.977, 1748.681
1260.459, 1728.301
1260.941, 1714.994
1261.423, 1725.468
1261.906, 1739.005
1262.388, 1753.718
1262.870, 1764.667
1263.352, 1760.922
1263.834, 1748.988
1264.316, 1745.102
1264.798, 1749.886
1265.280, 1750.978
1265.762, 1737.746
1266.245, 1733.000
1266.727, 1743.685
1267.209, 1757.517
1267.691, 1756.982
1268.173, 1748.423
1268.655, 1741.736
1269.137, 1737.744
1269.619, 1733.275
1270.102, 1723.740
1270.584, 1726.213
1271.066, 1747.453
1271.548, 1770.758
1272.030, 1773.396
1272.512, 1766.812
1272.994, 1764.239
1273.476, 1766.391
1273.958, 1764.882
1274.441, 1758.841
1274.923, 1752.164
1275.405, 1745.320
1275.887, 1739.988
1276.369, 1739.713
1276.851, 1740.396
1277.333, 1736.241
1277.815, 1728.888
1278.297, 1729.385
1278.780, 1737.918
1279.262, 1752.697
1279.744, 1775.454
1280.226, 1790.226
1280.708, 1775.129
1281.190, 1755.502
1281.672, 1752.419
1282.154, 1759.553
1282.637, 1750.325
1283.119, 1727.204
1283.601, 1715.862
1284.083, 1723.440
1284.565, 1729.259
1285.047, 1712.581
1285.529, 1700.668
1286.011, 1708.485
1286.494, 1728.742
1286.976, 1744.014
1287.458, 1753.766
1287.940, 1754.543
1288.422, 1744.623
1288.904, 1734.320
1289.386, 1718.753
1289.868, 1717.881
1290.350, 1746.751
1290.833, 1782.154
1291.315, 1768.278
1291.797, 1728.947
1292.279, 1714.368
1292.761, 1737.798
1293.243, 1746.315
1293.725, 1726.933
1294.207, 1711.714
1294.689, 1711.865
1295.172, 1719.151
1295.654, 1722.523
1296.136, 1725.092
1296.618, 1732.432
1297.100, 1745.988
1297.582, 1750.044
1298.064, 1741.929
1298.546, 1743.691
1299.029, 1766.795
1299.511, 1787.228
1299.993, 1771.643
1300.475, 1746.958
1300.957, 1742.351
1301.439, 1754.616
1301.921, 1756.336
1302.403, 1747.895
1302.885, 1741.025
1303.368, 1739.294
##END=



