##NAMES=Hedleyite
##RRUFFID=R100114
##IDEAL CHEMISTRY=Bi_7_Te_3_
##LOCALITY=Good Hope mine, Hedley, British Columbia, Canada
##OWNER=RRUFF
##SOURCE=Robert Woodside
##DESCRIPTION=Tin-white platy masses
##STATUS=The identification of this mineral has been confirmed by single-crystal X-ray diffraction.
##URL=rruff.info/R100114
91.72986, 108.0103
92.21198, 107.2653
92.69409, 104.4946
93.17621, 101.3444
93.65833, 98.72563
94.14044, 96.65389
94.62256, 94.52209
95.10468, 92.33547
95.58678, 89.97622
96.06890, 87.16056
96.55102, 83.99378
97.03313, 81.17966
97.51525, 79.64827
97.99737, 79.89237
98.47948, 79.42198
98.96160, 77.61540
99.44372, 75.47469
99.92583, 73.66100
100.4080, 72.38722
100.8901, 71.43306
101.3722, 70.27669
101.8543, 68.55666
102.3364, 67.00945
102.8185, 65.65627
103.3007, 64.47750
103.7828, 63.44389
104.2649, 62.52208
104.7470, 61.73365
105.2291, 61.22386
105.7112, 61.34469
106.1933, 61.34465
106.6755, 60.86679
107.1576, 59.92989
107.6397, 58.73969
108.1218, 57.24810
108.6039, 55.61123
109.0860, 54.36832
109.5682, 53.94382
110.0503, 53.81748
110.5324, 53.15699
111.0145, 51.69131
111.4966, 50.34269
111.9787, 49.64772
112.4609, 49.48118
112.9430, 49.67175
113.4251, 50.43339
113.9072, 51.68093
114.3893, 52.21563
114.8714, 51.38282
115.3536, 50.38258
115.8357, 49.68965
116.3178, 49.27387
116.7999, 48.86391
117.2820, 48.09402
117.7641, 46.66349
118.2463, 45.82686
118.7284, 45.94393
119.2105, 46.26873
119.6926, 46.38555
120.1747, 46.19854
120.6568, 45.86182
121.1390, 45.62074
121.6211, 45.32512
122.1032, 45.41881
122.5853, 46.53278
123.0674, 47.83350
123.5495, 48.22794
124.0317, 47.22145
124.5138, 45.38186
124.9959, 44.15693
125.4780, 43.67655
125.9601, 43.30629
126.4422, 42.86928
126.9243, 42.36853
127.4065, 41.79765
127.8886, 41.03896
128.3707, 40.29827
128.8528, 39.91534
129.3349, 40.03680
129.8170, 40.29260
130.2992, 40.38906
130.7813, 40.33815
131.2634, 40.05293
131.7455, 39.24072
132.2276, 38.26240
132.7097, 37.44617
133.1919, 36.91969
133.6740, 36.61231
134.1561, 36.34426
134.6382, 36.05278
135.1203, 35.92270
135.6024, 36.03919
136.0846, 36.31245
136.5667, 36.63257
137.0488, 36.93833
137.5309, 37.23098
138.0130, 37.50216
138.4951, 38.01940
138.9773, 38.24572
139.4594, 37.91867
139.9415, 37.17727
140.4236, 36.30923
140.9057, 35.52958
141.3878, 34.81667
141.8699, 34.47115
142.3521, 34.78814
142.8342, 35.14679
143.3163, 35.30220
143.7984, 35.20253
144.2805, 34.79113
144.7626, 33.85857
145.2448, 32.26461
145.7269, 31.40538
146.2090, 31.85080
146.6911, 32.82544
147.1732, 33.56767
147.6553, 33.95477
148.1375, 34.07035
148.6196, 33.88535
149.1017, 33.45544
149.5838, 33.04129
150.0659, 32.82407
150.5480, 32.70158
151.0302, 32.32543
151.5123, 31.35713
151.9944, 30.53345
152.4765, 30.51152
152.9586, 31.20777
153.4408, 31.98952
153.9229, 32.42507
154.4050, 32.51209
154.8871, 32.44639
155.3692, 32.05307
155.8513, 31.65474
156.3335, 31.37254
156.8156, 31.23154
157.2977, 31.24374
157.7798, 31.48719
158.2619, 32.12159
158.7440, 32.50956
159.2262, 32.68765
159.7083, 32.60464
160.1904, 32.03920
160.6725, 31.00524
161.1546, 29.89180
161.6367, 29.42616
162.1189, 30.37478
162.6010, 30.83576
163.0831, 30.36143
163.5652, 29.64008
164.0473, 29.37298
164.5294, 29.81553
165.0115, 30.61597
165.4937, 30.91366
165.9758, 30.26717
166.4579, 29.73515
166.9400, 29.57507
167.4221, 29.56804
167.9042, 29.35157
168.3864, 28.73666
168.8685, 27.89352
169.3506, 27.26536
169.8327, 26.63928
170.3148, 26.48625
170.7969, 27.38030
171.2791, 29.00398
171.7612, 30.24820
172.2433, 30.51875
172.7254, 30.14953
173.2075, 29.95479
173.6896, 30.01496
174.1718, 30.09587
174.6539, 30.09531
175.1360, 30.01373
175.6181, 29.66887
176.1002, 28.66971
176.5823, 27.51113
177.0645, 26.71995
177.5466, 26.40871
178.0287, 26.43466
178.5108, 26.65059
178.9929, 27.08536
179.4750, 27.61783
179.9572, 28.51584
180.4393, 29.35291
180.9214, 29.67706
181.4035, 29.28015
181.8856, 28.47667
182.3677, 27.92272
182.8499, 27.68351
183.3320, 27.60797
183.8141, 27.67350
184.2962, 27.84496
184.7783, 28.12326
185.2604, 28.51867
185.7425, 28.96299
186.2247, 29.21086
186.7068, 29.14472
187.1889, 28.99856
187.6710, 28.80478
188.1531, 28.55292
188.6352, 28.20705
189.1174, 27.74312
189.5995, 27.19269
190.0816, 26.73819
190.5637, 26.14348
191.0458, 25.90594
191.5279, 26.37531
192.0101, 27.25046
192.4922, 28.04688
192.9743, 28.48689
193.4564, 28.59090
193.9385, 28.48778
194.4206, 28.06644
194.9028, 27.61308
195.3849, 27.17639
195.8670, 26.77668
196.3491, 26.44868
196.8312, 26.20165
197.3133, 26.05853
197.7955, 26.07293
198.2776, 26.46819
198.7597, 26.80199
199.2418, 26.74128
199.7239, 26.34659
200.2060, 26.02762
200.6882, 26.03575
201.1703, 26.30528
201.6524, 26.58615
202.1345, 26.99951
202.6166, 27.29367
203.0987, 27.09919
203.5808, 26.39580
204.0630, 25.92875
204.5451, 26.47024
205.0272, 27.37175
205.5093, 27.64395
205.9914, 26.81524
206.4735, 25.67859
206.9557, 25.29552
207.4378, 25.84260
207.9199, 26.32215
208.4020, 26.06819
208.8841, 25.59145
209.3662, 25.44281
209.8484, 25.91250
210.3305, 26.54855
210.8126, 26.44816
211.2947, 25.19742
211.7768, 24.28912
212.2589, 24.34954
212.7411, 24.87209
213.2232, 25.45540
213.7053, 25.96634
214.1874, 26.34268
214.6695, 26.39144
215.1516, 25.82963
215.6338, 25.45209
216.1159, 25.54474
216.5980, 25.80820
217.0801, 25.91134
217.5622, 25.69985
218.0443, 25.33916
218.5265, 25.30297
219.0086, 25.84292
219.4907, 26.37210
219.9728, 27.08148
220.4549, 27.64756
220.9370, 27.59898
221.4192, 26.72001
221.9013, 25.39743
222.3834, 24.77907
222.8655, 25.59091
223.3476, 26.30527
223.8297, 27.02112
224.3118, 27.53142
224.7940, 27.46778
225.2761, 26.66039
225.7582, 25.47020
226.2403, 24.95135
226.7224, 26.02155
227.2045, 26.68697
227.6867, 26.44892
228.1688, 25.82778
228.6509, 25.52435
229.1330, 25.84487
229.6151, 26.52725
230.0972, 26.89763
230.5794, 26.93790
231.0615, 26.72994
231.5436, 25.91510
232.0257, 24.93819
232.5078, 24.54260
232.9899, 25.06878
233.4721, 26.07012
233.9542, 26.59895
234.4363, 26.64630
234.9184, 26.40866
235.4005, 25.57260
235.8826, 24.53504
236.3648, 24.07343
236.8469, 24.55367
237.3290, 25.41908
237.8111, 25.64707
238.2932, 25.16029
238.7753, 24.73894
239.2575, 24.79681
239.7396, 25.09496
240.2217, 25.03891
240.7038, 24.31704
241.1859, 23.52145
241.6680, 23.59615
242.1502, 24.53483
242.6323, 25.23291
243.1144, 24.98986
243.5965, 24.15374
244.0786, 23.62823
244.5607, 23.65179
245.0428, 23.91205
245.5250, 24.13695
246.0071, 24.32707
246.4892, 24.45597
246.9713, 24.51595
247.4534, 24.50534
247.9355, 24.39659
248.4177, 24.11650
248.8998, 23.85686
249.3819, 23.75680
249.8640, 23.79201
250.3461, 23.89492
250.8282, 24.05621
251.3104, 24.26073
251.7925, 24.49902
252.2746, 24.93435
252.7567, 25.10737
253.2388, 24.55299
253.7209, 23.56189
254.2031, 22.78934
254.6852, 22.73289
255.1673, 23.19263
255.6494, 23.36499
256.1315, 23.03905
256.6136, 22.75862
257.0958, 22.81325
257.5779, 23.06209
258.0600, 23.27795
258.5421, 23.33311
259.0242, 23.26730
259.5063, 23.22730
259.9885, 23.26939
260.4706, 23.23800
260.9527, 22.97113
261.4348, 22.64262
261.9169, 22.51013
262.3990, 22.73949
262.8812, 23.17184
263.3633, 23.32793
263.8454, 23.01698
264.3275, 22.74423
264.8096, 22.62571
265.2917, 22.60176
265.7739, 22.62568
266.2560, 22.68095
266.7381, 22.74121
267.2202, 22.74449
267.7023, 22.68160
268.1844, 22.56983
268.6666, 22.45014
269.1487, 22.27421
269.6308, 21.90878
270.1129, 21.32121
270.5950, 20.75548
271.0771, 20.71607
271.5593, 21.52968
272.0414, 22.24845
272.5235, 22.92066
273.0056, 23.41957
273.4877, 23.57012
273.9698, 23.36294
274.4520, 23.01983
274.9341, 22.87520
275.4162, 23.01288
275.8983, 23.18596
276.3804, 23.51704
276.8625, 23.78690
277.3446, 23.83413
277.8268, 23.65138
278.3089, 23.36182
278.7910, 23.10167
279.2731, 22.85699
279.7552, 22.69919
280.2373, 22.74088
280.7195, 22.75718
281.2016, 22.64401
281.6837, 22.39247
282.1658, 22.00917
282.6479, 21.43866
283.1300, 20.56719
283.6122, 20.36383
284.0943, 21.46581
284.5764, 22.51553
285.0585, 22.91832
285.5406, 22.79011
286.0227, 22.60130
286.5049, 22.74681
286.9870, 23.21301
287.4691, 23.13587
287.9512, 21.85912
288.4333, 20.78875
288.9154, 20.49800
289.3976, 20.70080
289.8797, 20.77418
290.3618, 20.31124
290.8439, 19.47953
291.3260, 19.22722
291.8081, 20.24587
292.2903, 21.03259
292.7724, 21.30462
293.2545, 21.20834
293.7366, 20.87270
294.2187, 20.34162
294.7008, 19.78229
295.1830, 19.64820
295.6651, 20.40322
296.1472, 21.03837
296.6293, 21.44854
297.1114, 21.75252
297.5935, 22.19299
298.0757, 22.82783
298.5578, 23.30439
299.0399, 22.98368
299.5220, 21.08816
300.0041, 19.84413
300.4862, 19.50657
300.9684, 19.64948
301.4505, 20.08283
301.9326, 20.71130
302.4147, 21.28736
302.8968, 21.49369
303.3789, 21.17391
303.8611, 21.08431
304.3432, 21.32545
304.8253, 21.68894
305.3074, 22.26748
305.7895, 22.93144
306.2716, 23.13980
306.7538, 22.28040
307.2359, 20.24427
307.7180, 19.45906
308.2001, 21.11708
308.6822, 22.60918
309.1643, 22.58486
309.6465, 21.43307
310.1286, 20.30586
310.6107, 19.93867
311.0928, 20.22336
311.5749, 20.43299
312.0570, 20.66955
312.5392, 20.73161
313.0213, 20.41693
313.5034, 19.92312
313.9855, 19.53556
314.4676, 19.37854
314.9497, 19.44553
315.4319, 19.74042
315.9140, 20.59786
316.3961, 21.19969
316.8782, 21.40980
317.3603, 21.36477
317.8424, 21.18286
318.3245, 20.90214
318.8066, 20.54509
319.2888, 20.12096
319.7709, 19.49890
320.2530, 19.17187
320.7351, 19.30677
321.2172, 19.60963
321.6993, 19.92610
322.1815, 20.20534
322.6636, 20.36479
323.1457, 20.27189
323.6278, 19.84262
324.1099, 19.84992
324.5920, 20.93105
325.0742, 21.79326
325.5563, 21.53589
326.0384, 20.44741
326.5205, 19.51452
327.0026, 19.45336
327.4847, 20.17333
327.9669, 20.64657
328.4490, 20.80367
328.9311, 20.83508
329.4132, 20.67023
329.8953, 20.43085
330.3774, 20.36222
330.8596, 20.59613
331.3417, 20.94099
331.8238, 20.87372
332.3059, 19.56451
332.7880, 18.87652
333.2701, 19.39767
333.7523, 20.30374
334.2344, 20.78666
334.7165, 20.61977
335.1986, 20.11662
335.6807, 19.71252
336.1628, 19.39619
336.6450, 19.23591
337.1271, 19.19293
337.6092, 19.31328
338.0913, 19.75219
338.5734, 20.43707
339.0555, 21.05272
339.5377, 21.30074
340.0198, 21.15474
340.5019, 20.96834
340.9840, 21.00974
341.4661, 20.74799
341.9482, 19.52961
342.4304, 17.87803
342.9125, 16.92277
343.3946, 17.42183
343.8767, 19.01145
344.3588, 19.91654
344.8409, 19.31449
345.3231, 18.92266
345.8052, 19.16221
346.2873, 19.57854
346.7694, 19.58086
347.2515, 18.96957
347.7336, 18.11355
348.2158, 17.73747
348.6979, 18.20337
349.1800, 18.51146
349.6621, 18.52661
350.1442, 18.50530
350.6263, 18.68328
351.1085, 19.04539
351.5906, 19.34020
352.0727, 19.24479
352.5548, 18.65130
353.0369, 18.39348
353.5190, 18.93696
354.0012, 19.35137
354.4833, 19.19928
354.9654, 18.66253
355.4475, 18.15807
355.9296, 17.96684
356.4117, 18.04304
356.8939, 18.12324
357.3760, 18.19198
357.8581, 18.28848
358.3402, 18.56950
358.8223, 18.81799
359.3044, 18.69527
359.7865, 18.07464
360.2686, 17.34132
360.7508, 17.25573
361.2329, 18.15995
361.7150, 18.82165
362.1971, 19.09608
362.6792, 19.12551
363.1613, 18.86627
363.6435, 18.38050
364.1256, 17.93573
364.6077, 17.85938
365.0898, 18.18424
365.5719, 18.32163
366.0540, 18.12764
366.5362, 17.89020
367.0183, 17.61479
367.5004, 17.38821
367.9825, 17.39490
368.4646, 17.82868
368.9467, 18.49865
369.4289, 18.79597
369.9110, 18.51082
370.3931, 18.31467
370.8752, 18.52533
371.3573, 18.88556
371.8394, 19.16761
372.3216, 19.30759
372.8037, 19.33744
373.2858, 19.25767
373.7679, 19.05756
374.2500, 18.90858
374.7321, 18.90088
375.2143, 18.90737
375.6964, 18.85611
376.1785, 18.74041
376.6606, 18.54880
377.1427, 18.12561
377.6248, 17.59855
378.1070, 17.52407
378.5891, 18.17284
379.0712, 18.74476
379.5533, 18.44385
380.0354, 17.70312
380.5175, 17.38740
380.9997, 18.11816
381.4818, 19.06604
381.9639, 19.07752
382.4460, 18.13091
382.9281, 17.33451
383.4102, 17.23092
383.8924, 17.53031
384.3745, 17.76089
384.8566, 17.93299
385.3387, 17.96544
385.8208, 17.70659
386.3029, 17.26935
386.7851, 16.93918
387.2672, 16.77367
387.7493, 16.75556
388.2314, 16.92723
388.7135, 17.26892
389.1956, 17.58978
389.6778, 18.05059
390.1599, 18.34926
390.6420, 17.96283
391.1241, 16.92824
391.6062, 16.16714
392.0883, 16.45045
392.5705, 17.51819
393.0526, 17.91650
393.5347, 16.88385
394.0168, 16.07439
394.4989, 16.34391
394.9810, 17.27008
395.4632, 18.09930
395.9453, 18.58017
396.4274, 18.70456
396.9095, 18.38872
397.3916, 17.24202
397.8737, 16.61327
398.3559, 17.03922
398.8380, 17.67866
399.3201, 17.75155
399.8022, 17.24238
400.2843, 16.74346
400.7664, 16.81894
401.2485, 17.49691
401.7307, 17.78735
402.2128, 17.54342
402.6949, 17.13846
403.1770, 16.30645
403.6591, 15.46452
404.1412, 15.40836
404.6234, 16.53403
405.1055, 18.24012
405.5876, 19.04423
406.0697, 18.33552
406.5518, 17.69837
407.0339, 17.04137
407.5161, 16.56782
407.9982, 16.46373
408.4803, 16.72117
408.9624, 17.16029
409.4445, 17.64757
409.9266, 18.19397
410.4088, 18.57299
410.8909, 18.76076
411.3730, 18.78441
411.8551, 18.57593
412.3372, 18.22560
412.8193, 17.87295
413.3015, 17.59026
413.7836, 17.33009
414.2657, 16.97499
414.7478, 16.47524
415.2299, 16.02746
415.7120, 15.33918
416.1942, 14.95286
416.6763, 15.58774
417.1584, 17.22903
417.6405, 18.61560
418.1226, 18.36842
418.6047, 16.77772
419.0869, 15.91737
419.5690, 16.29315
420.0511, 16.75238
420.5332, 16.42235
421.0153, 15.64096
421.4974, 15.09145
421.9796, 15.05659
422.4617, 15.29418
422.9438, 15.58674
423.4259, 15.93184
423.9080, 16.17216
424.3901, 16.14867
424.8723, 16.07530
425.3544, 16.34131
425.8365, 17.04322
426.3186, 17.58089
426.8007, 17.75574
427.2828, 17.58338
427.7650, 16.94725
428.2471, 15.78550
428.7292, 14.66927
429.2113, 14.11434
429.6934, 14.15208
430.1755, 14.30568
430.6577, 14.77426
431.1398, 15.16977
431.6219, 15.11863
432.1040, 14.81126
432.5861, 14.80739
433.0682, 15.41266
433.5504, 16.30241
434.0325, 16.69499
434.5146, 16.13527
434.9967, 15.81829
435.4788, 15.89123
435.9609, 16.14848
436.4431, 16.52513
436.9252, 16.95185
437.4073, 17.22476
437.8894, 17.10938
438.3715, 16.58743
438.8536, 16.39417
439.3358, 16.82944
439.8179, 17.26612
440.3000, 17.76507
440.7821, 18.11697
441.2642, 17.94590
441.7463, 17.09844
442.2284, 16.00792
442.7105, 15.47557
443.1927, 15.63748
443.6748, 15.94027
444.1569, 16.62388
444.6390, 17.19675
445.1211, 17.29568
445.6032, 17.01450
446.0854, 16.76539
446.5675, 16.89682
447.0496, 17.28635
447.5317, 17.47562
448.0138, 17.45958
448.4959, 17.25186
448.9781, 16.67870
449.4602, 15.99338
449.9423, 15.44310
450.4244, 15.06925
450.9065, 14.87564
451.3886, 14.90291
451.8708, 15.12590
452.3529, 15.44927
452.8350, 15.91171
453.3171, 16.34856
453.7992, 16.64510
454.2813, 16.80080
454.7635, 16.69635
455.2456, 15.99801
455.7277, 15.25407
456.2098, 14.97835
456.6919, 15.12998
457.1740, 15.40639
457.6562, 15.70213
458.1383, 15.96608
458.6204, 16.01791
459.1025, 15.63967
459.5846, 15.53207
460.0667, 15.95592
460.5489, 16.63187
461.0310, 17.45136
461.5131, 18.31518
461.9952, 18.81957
462.4773, 18.50862
462.9594, 17.34502
463.4416, 16.59263
463.9237, 16.28781
464.4058, 16.31758
464.8879, 17.12490
465.3700, 18.09532
465.8521, 18.19872
466.3343, 17.07123
466.8164, 15.64227
467.2985, 15.77433
467.7806, 18.52767
468.2627, 19.52131
468.7448, 16.38872
469.2270, 13.46202
469.7091, 12.96128
470.1912, 14.34707
470.6733, 15.80930
471.1554, 16.24831
471.6375, 16.01357
472.1197, 15.98965
472.6018, 16.23284
473.0839, 16.48009
473.5660, 16.74605
474.0481, 16.90266
474.5302, 16.74935
475.0124, 16.25127
475.4945, 15.82253
475.9766, 15.86402
476.4587, 16.16266
476.9408, 16.14624
477.4229, 15.70187
477.9051, 15.20082
478.3872, 14.79813
478.8693, 14.57381
479.3514, 14.78718
479.8335, 15.96816
480.3156, 17.01410
480.7978, 17.33866
481.2798, 17.11767
481.7620, 16.60015
482.2441, 15.83691
482.7262, 15.16874
483.2083, 15.12825
483.6904, 16.00298
484.1725, 16.45836
484.6547, 16.23897
485.1368, 15.86813
485.6189, 15.42536
486.1010, 15.06338
486.5831, 15.14012
487.0652, 15.89312
487.5474, 16.98390
488.0295, 17.39519
488.5116, 16.67705
488.9937, 16.11296
489.4758, 15.76119
489.9579, 15.59453
490.4401, 15.70327
490.9222, 16.01535
491.4043, 16.27081
491.8864, 16.24458
492.3685, 15.98989
492.8506, 15.76250
493.3328, 15.57952
493.8149, 15.38397
494.2970, 15.05621
494.7791, 14.75262
495.2612, 14.68849
495.7433, 14.93411
496.2255, 15.15488
496.7076, 14.99860
497.1897, 14.61273
497.6718, 14.44754
498.1539, 14.58296
498.6360, 14.88880
499.1182, 15.37364
499.6003, 15.96695
500.0824, 16.30611
500.5645, 16.16471
501.0466, 15.97672
501.5287, 15.95721
502.0109, 16.05410
502.4930, 16.19129
502.9751, 16.34760
503.4572, 16.43318
503.9393, 16.29319
504.4214, 15.79927
504.9036, 15.55059
505.3857, 15.89564
505.8678, 16.11606
506.3499, 15.68828
506.8320, 14.89170
507.3141, 14.30736
507.7963, 14.23859
508.2784, 14.55840
508.7605, 15.04286
509.2426, 15.88551
509.7247, 16.37217
510.2068, 16.17915
510.6890, 15.83032
511.1711, 15.43485
511.6532, 15.10427
512.1353, 15.12674
512.6174, 15.93879
513.0995, 17.06149
513.5817, 17.28708
514.0638, 16.47086
514.5459, 15.67219
515.0280, 15.26999
515.5101, 15.10871
515.9922, 14.97823
516.4744, 14.87239
516.9565, 14.81738
517.4386, 14.86466
517.9207, 14.95052
518.4028, 14.97907
518.8849, 14.94441
519.3671, 14.91002
519.8492, 14.91899
520.3313, 14.96210
520.8134, 14.99328
521.2955, 14.99974
521.7776, 15.01345
522.2598, 14.97324
522.7419, 14.98040
523.2240, 15.20772
523.7061, 15.63931
524.1882, 16.02728
524.6703, 16.11006
525.1525, 15.89957
525.6346, 15.83913
526.1167, 16.17744
526.5988, 16.33594
527.0809, 15.97635
527.5630, 15.50440
528.0452, 15.38151
528.5273, 15.71307
529.0094, 16.17298
529.4915, 16.49705
529.9736, 16.67689
530.4557, 16.59793
530.9379, 16.16028
531.4200, 15.65713
531.9021, 15.16476
532.3842, 14.75099
532.8663, 14.56282
533.3484, 14.72467
533.8306, 14.91890
534.3127, 14.92118
534.7948, 14.79474
535.2769, 14.65910
535.7590, 14.53245
536.2411, 14.50510
536.7233, 14.72969
537.2054, 15.22292
537.6875, 15.37793
538.1696, 14.76114
538.6517, 14.32160
539.1339, 14.52864
539.6160, 15.09330
540.0981, 15.60284
540.5802, 15.91412
541.0623, 16.10480
541.5444, 16.28846
542.0266, 16.49062
542.5087, 16.54051
542.9907, 16.32374
543.4728, 16.07004
543.9550, 15.74947
544.4371, 15.46830
544.9192, 15.42485
545.4013, 15.71968
545.8834, 16.06428
546.3655, 16.14128
546.8477, 15.95355
547.3298, 15.46506
547.8119, 14.45261
548.2940, 13.55421
548.7761, 13.35512
549.2582, 13.70132
549.7404, 14.25355
550.2225, 15.35005
550.7046, 16.20870
551.1867, 16.06501
551.6688, 15.32591
552.1509, 14.99529
552.6331, 15.39079
553.1152, 15.95045
553.5973, 15.95662
554.0794, 15.28339
554.5615, 14.80952
555.0436, 14.57740
555.5258, 14.46565
556.0079, 14.45238
556.4900, 14.52293
556.9721, 14.69423
557.4542, 14.96654
557.9363, 15.24074
558.4185, 15.40431
558.9006, 15.46698
559.3827, 15.30934
559.8648, 14.66029
560.3469, 14.14797
560.8290, 14.14883
561.3112, 14.44475
561.7933, 14.66783
562.2754, 14.69780
562.7575, 14.65769
563.2396, 14.59805
563.7217, 14.55401
564.2039, 14.67196
564.6860, 15.00039
565.1681, 15.41320
565.6502, 15.84929
566.1323, 16.28919
566.6144, 16.52635
567.0966, 16.49649
567.5787, 16.34096
568.0608, 16.15803
568.5429, 15.86545
569.0250, 15.19284
569.5071, 14.13587
569.9893, 13.20563
570.4714, 13.04589
570.9535, 13.70640
571.4356, 14.24334
571.9177, 14.84940
572.3998, 15.06199
572.8820, 14.30357
573.3641, 13.34264
573.8462, 13.08767
574.3283, 13.75374
574.8104, 14.73417
575.2925, 15.69155
575.7747, 16.52211
576.2568, 16.60302
576.7389, 15.67258
577.2210, 14.88456
577.7031, 15.08674
578.1852, 15.88445
578.6674, 16.29341
579.1495, 16.15270
579.6316, 15.94311
580.1137, 15.77029
580.5958, 15.66921
581.0779, 15.79119
581.5601, 16.09336
582.0422, 16.20488
582.5243, 15.81491
583.0064, 15.01714
583.4885, 14.34669
583.9706, 13.67949
584.4528, 13.34227
584.9349, 13.64404
585.4170, 14.04914
585.8991, 14.09491
586.3812, 13.81457
586.8633, 13.59445
587.3455, 13.71515
587.8276, 14.08889
588.3097, 14.46471
588.7918, 14.82108
589.2739, 15.36292
589.7560, 16.49479
590.2382, 17.50909
590.7203, 17.45235
591.2024, 16.34663
591.6845, 15.40124
592.1666, 14.94669
592.6487, 14.83842
593.1309, 15.11166
593.6130, 15.64432
594.0951, 16.07305
594.5772, 16.23567
595.0593, 16.22507
595.5414, 16.19917
596.0236, 16.16204
596.5057, 16.09490
596.9878, 15.88364
597.4699, 15.76517
597.9520, 15.97904
598.4341, 16.31758
598.9163, 16.38901
599.3984, 16.02284
599.8805, 15.55204
600.3626, 15.46237
600.8447, 15.74078
601.3268, 15.88603
601.8090, 15.75830
602.2911, 15.67622
602.7732, 16.07450
603.2553, 16.64562
603.7374, 16.68311
604.2195, 15.72998
604.7017, 14.93348
605.1838, 15.09828
605.6659, 15.70552
606.1480, 15.90647
606.6301, 15.59218
607.1122, 15.27102
607.5944, 15.38293
608.0765, 15.85287
608.5586, 16.11338
609.0407, 16.08265
609.5228, 15.93522
610.0049, 15.42784
610.4871, 15.00487
610.9692, 15.10590
611.4513, 15.66764
611.9334, 16.24417
612.4155, 16.58360
612.8976, 16.67803
613.3798, 16.38366
613.8619, 15.63490
614.3440, 15.21929
614.8261, 15.57958
615.3082, 16.11799
615.7903, 15.98562
616.2725, 15.24242
616.7546, 14.93563
617.2367, 15.85714
617.7188, 16.73344
618.2009, 16.62330
618.6830, 15.81869
619.1652, 14.88803
619.6473, 14.04406
620.1294, 13.50681
620.6115, 13.65015
621.0936, 14.61275
621.5757, 15.20051
622.0579, 15.10318
622.5400, 14.98188
623.0221, 14.89771
623.5042, 14.93098
623.9863, 15.24289
624.4684, 15.85845
624.9506, 16.43127
625.4326, 16.59771
625.9147, 16.50168
626.3969, 16.52273
626.8790, 16.68090
627.3611, 16.97119
627.8432, 17.51089
628.3253, 18.08822
628.8074, 18.14500
629.2896, 17.48860
629.7717, 17.03483
630.2538, 17.22602
630.7359, 17.39890
631.2180, 16.86279
631.7001, 15.89820
632.1823, 15.34047
632.6644, 15.62404
633.1465, 16.32503
633.6286, 16.68515
634.1107, 16.67537
634.5928, 16.44930
635.0750, 15.74384
635.5571, 15.17082
636.0392, 14.99731
636.5213, 15.15250
637.0034, 15.59536
637.4855, 16.46071
637.9677, 17.13507
638.4498, 16.97722
638.9319, 16.37063
639.4140, 16.06901
639.8961, 16.17182
640.3782, 16.36266
640.8604, 16.45293
641.3425, 16.42682
641.8246, 16.21585
642.3067, 15.50350
642.7888, 15.04747
643.2709, 14.82591
643.7531, 14.88679
644.2352, 15.49505
644.7173, 16.41807
645.1994, 17.06816
645.6815, 17.09876
646.1636, 16.75714
646.6458, 16.33715
647.1279, 15.84042
647.6100, 15.74354
648.0921, 16.35616
648.5742, 16.90995
649.0563, 16.52587
649.5385, 15.52709
650.0206, 15.16285
650.5027, 16.01006
650.9848, 16.84985
651.4669, 17.17213
651.9490, 17.23998
652.4312, 17.41630
652.9133, 17.71489
653.3954, 17.82064
653.8775, 17.44132
654.3596, 16.74949
654.8417, 16.52712
655.3239, 17.10522
655.8060, 17.36085
656.2881, 16.69526
656.7702, 16.01101
657.2523, 15.80270
657.7344, 16.02028
658.2166, 16.42327
658.6987, 17.09932
659.1808, 17.67248
659.6629, 17.66935
660.1450, 17.27598
660.6271, 17.02923
661.1093, 17.05501
661.5914, 17.14862
662.0735, 17.11700
662.5556, 16.97543
663.0377, 16.94174
663.5198, 17.13351
664.0020, 17.28041
664.4841, 17.42662
664.9662, 17.46683
665.4483, 17.18180
665.9304, 16.67971
666.4125, 16.40722
666.8947, 16.74864
667.3768, 17.32476
667.8589, 17.39763
668.3410, 16.98132
668.8231, 16.57410
669.3052, 16.24349
669.7874, 16.07614
670.2695, 16.26587
670.7516, 16.76351
671.2337, 16.95772
671.7158, 16.45526
672.1979, 16.11831
672.6801, 16.39845
673.1622, 16.88424
673.6443, 17.10999
674.1264, 17.03569
674.6085, 16.91402
675.0906, 16.92699
675.5728, 17.06002
676.0549, 17.32821
676.5370, 17.82853
677.0191, 18.01913
677.5012, 17.60257
677.9833, 17.05151
678.4655, 16.72237
678.9476, 16.57609
679.4297, 16.47311
679.9118, 16.27264
680.3939, 16.24597
680.8760, 16.69261
681.3582, 17.36271
681.8403, 18.02361
682.3224, 18.55662
682.8045, 18.51717
683.2866, 17.40425
683.7687, 15.58559
684.2509, 14.88267
684.7330, 15.74337
685.2151, 16.74260
685.6972, 18.32864
686.1793, 19.43012
686.6614, 19.03317
687.1436, 17.61583
687.6257, 16.60325
688.1078, 16.66610
688.5899, 17.04652
689.0720, 17.10438
689.5541, 16.96400
690.0363, 16.92529
690.5184, 17.03900
691.0005, 17.13153
691.4826, 17.03265
691.9647, 16.83230
692.4468, 16.98344
692.9290, 18.09652
693.4111, 18.56387
693.8932, 17.73651
694.3753, 16.83039
694.8574, 16.62381
695.3395, 16.92736
695.8217, 17.14989
696.3038, 17.02665
696.7859, 16.77796
697.2680, 16.47232
697.7501, 16.23244
698.2322, 16.67150
698.7144, 17.93195
699.1965, 18.96578
699.6786, 18.99684
700.1607, 18.31097
700.6428, 17.90557
701.1249, 17.96116
701.6071, 18.01445
702.0892, 18.07094
702.5713, 18.11328
703.0534, 18.09647
703.5355, 18.06399
704.0176, 18.14315
704.4998, 18.39935
704.9819, 18.59571
705.4640, 18.26157
705.9461, 17.57797
706.4282, 17.51954
706.9103, 18.25410
707.3925, 19.00358
707.8745, 19.46821
708.3566, 19.56296
708.8387, 18.93611
709.3209, 17.03017
709.8030, 16.07012
710.2851, 16.99231
710.7672, 18.10527
711.2493, 18.47562
711.7314, 18.35989
712.2136, 18.33701
712.6957, 18.59353
713.1778, 18.77746
713.6599, 18.38314
714.1420, 17.54457
714.6241, 16.87953
715.1063, 16.33311
715.5884, 16.46701
716.0705, 17.94333
716.5526, 19.75549
717.0347, 20.24913
717.5168, 19.28729
717.9990, 18.43332
718.4811, 17.69636
718.9632, 17.22528
719.4453, 17.14678
719.9274, 17.35099
720.4095, 17.80489
720.8917, 18.43448
721.3738, 18.91912
721.8559, 18.87866
722.3380, 18.50026
722.8201, 18.48246
723.3022, 18.86690
723.7844, 19.28368
724.2665, 19.76252
724.7486, 20.02077
725.2307, 19.57302
725.7128, 18.49375
726.1949, 17.84889
726.6771, 17.91461
727.1592, 18.14808
727.6413, 18.53263
728.1234, 18.88998
728.6055, 19.06426
729.0876, 19.02098
729.5698, 18.72282
730.0519, 18.07961
730.5340, 17.33661
731.0161, 17.02490
731.4982, 17.15414
731.9803, 17.40437
732.4625, 17.70552
732.9446, 18.19086
733.4267, 19.23548
733.9088, 20.52131
734.3909, 20.87525
734.8730, 19.77357
735.3552, 18.74057
735.8373, 17.78197
736.3194, 17.25398
736.8015, 17.79931
737.2836, 18.97396
737.7657, 19.63829
738.2479, 19.26981
738.7300, 18.59959
739.2121, 18.81917
739.6942, 19.76909
740.1763, 19.79084
740.6584, 18.51335
741.1406, 17.72441
741.6227, 18.54025
742.1048, 20.14824
742.5869, 21.09871
743.0690, 21.34755
743.5511, 21.28415
744.0333, 20.83109
744.5154, 20.18881
744.9975, 19.11133
745.4796, 18.05776
745.9617, 17.74420
746.4438, 18.27269
746.9260, 19.00715
747.4081, 19.52444
747.8902, 19.75561
748.3723, 19.34636
748.8544, 18.28292
749.3365, 17.43380
749.8187, 16.99691
750.3008, 16.98000
750.7829, 17.49159
751.2650, 18.51387
751.7471, 19.39228
752.2292, 20.49761
752.7114, 20.97550
753.1935, 20.00218
753.6756, 18.87072
754.1577, 18.68194
754.6398, 19.33585
755.1219, 20.18596
755.6041, 21.00607
756.0862, 21.52292
756.5683, 21.15734
757.0504, 20.14895
757.5325, 19.56592
758.0146, 19.56336
758.4968, 19.44754
758.9789, 18.65373
759.4610, 17.65077
759.9431, 17.66619
760.4252, 19.43599
760.9073, 20.48553
761.3895, 20.42305
761.8716, 20.12873
762.3537, 19.72759
762.8358, 19.41561
763.3179, 19.47890
763.8000, 19.96728
764.2822, 20.49039
764.7643, 20.81737
765.2464, 20.98219
765.7285, 21.02658
766.2106, 20.95379
766.6927, 20.70593
767.1749, 20.24844
767.6570, 19.89476
768.1391, 20.03646
768.6212, 20.64370
769.1033, 20.99535
769.5854, 21.12024
770.0676, 20.93097
770.5497, 20.06708
771.0318, 19.20210
771.5139, 18.81937
771.9960, 18.82487
772.4781, 18.83210
772.9603, 18.65657
773.4424, 18.58268
773.9245, 18.85825
774.4066, 19.32877
774.8887, 19.85423
775.3708, 20.36683
775.8530, 20.66833
776.3351, 20.63662
776.8172, 20.45208
777.2993, 20.49508
777.7814, 20.82362
778.2635, 20.94135
778.7457, 20.72003
779.2278, 20.53340
779.7099, 20.68315
780.1920, 20.87160
780.6741, 20.64235
781.1563, 19.94707
781.6384, 19.44510
782.1205, 19.24476
782.6026, 19.33356
783.0847, 20.03112
783.5668, 20.86675
784.0490, 21.04294
784.5311, 20.50660
785.0132, 19.97776
785.4953, 20.03773
785.9774, 20.48871
786.4595, 20.90570
786.9417, 21.28744
787.4238, 21.46081
787.9059, 21.32548
788.3880, 21.21303
788.8701, 21.43686
789.3522, 21.86952
789.8343, 21.98703
790.3164, 21.49978
790.7985, 21.24584
791.2806, 21.59008
791.7628, 21.85555
792.2449, 21.56763
792.7270, 20.97292
793.2091, 20.44906
793.6912, 20.11454
794.1733, 20.04315
794.6555, 20.48554
795.1376, 21.13945
795.6197, 21.47235
796.1018, 21.50711
796.5839, 21.41585
797.0660, 21.24731
797.5482, 21.09837
798.0303, 21.10652
798.5124, 21.24655
798.9945, 21.06495
799.4766, 20.09015
799.9587, 19.70051
800.4409, 20.94729
800.9230, 22.09069
801.4051, 21.84306
801.8872, 20.67342
802.3693, 19.90070
802.8514, 19.85410
803.3336, 20.17401
803.8157, 20.95438
804.2978, 21.81323
804.7799, 22.46727
805.2620, 22.82038
805.7441, 22.57888
806.2263, 21.63305
806.7084, 20.70041
807.1905, 20.95991
807.6726, 22.21747
808.1547, 22.49428
808.6368, 21.59572
809.1190, 20.80932
809.6011, 20.56445
810.0832, 20.60113
810.5653, 20.66247
811.0474, 20.74921
811.5295, 20.86116
812.0117, 21.08040
812.4938, 21.21263
812.9759, 21.08967
813.4580, 20.97251
813.9401, 21.19918
814.4222, 21.60653
814.9044, 21.66444
815.3865, 21.07590
815.8686, 20.47790
816.3507, 20.59489
816.8328, 21.11730
817.3149, 21.41027
817.7971, 21.45530
818.2792, 21.50801
818.7613, 21.68478
819.2434, 21.87956
819.7255, 21.90293
820.2076, 21.73847
820.6898, 21.95651
821.1719, 23.01993
821.6540, 23.50091
822.1361, 22.24891
822.6182, 20.96128
823.1003, 21.49020
823.5825, 23.32723
824.0646, 24.00140
824.5467, 21.92342
825.0288, 20.32181
825.5109, 20.95012
825.9930, 22.23942
826.4752, 22.76790
826.9573, 22.57042
827.4394, 22.18407
827.9215, 21.84159
828.4036, 21.60802
828.8857, 21.59848
829.3679, 21.76409
829.8500, 21.96611
830.3321, 22.19862
830.8142, 22.25943
831.2963, 22.04541
831.7784, 21.72649
832.2606, 21.47759
832.7427, 21.30054
833.2248, 21.29228
833.7069, 21.74820
834.1890, 21.90711
834.6711, 21.35992
835.1533, 20.80608
835.6354, 20.77316
836.1175, 21.07415
836.5996, 21.15165
837.0817, 20.75282
837.5638, 20.49943
838.0460, 20.96911
838.5281, 21.55468
839.0102, 21.49744
839.4923, 21.02541
839.9744, 20.82905
840.4565, 21.13810
840.9387, 21.63028
841.4208, 22.02411
841.9029, 22.28259
842.3850, 22.21459
842.8671, 21.80963
843.3492, 21.29686
843.8314, 20.65156
844.3135, 20.19336
844.7956, 20.27424
845.2777, 20.75946
845.7598, 20.97954
846.2419, 20.41137
846.7241, 20.41773
847.2062, 21.80526
847.6883, 22.87866
848.1704, 22.45272
848.6525, 21.37694
849.1346, 21.04955
849.6168, 21.74345
850.0989, 22.26559
850.5810, 21.74668
851.0631, 21.01542
851.5452, 20.90008
852.0273, 21.11016
852.5095, 20.94868
852.9916, 20.36550
853.4737, 20.04458
853.9558, 20.57207
854.4379, 21.48777
854.9200, 21.77258
855.4022, 21.43557
855.8843, 20.75200
856.3664, 19.62406
856.8485, 18.80452
857.3306, 18.81550
857.8127, 19.23022
858.2949, 19.24088
858.7770, 18.70556
859.2591, 18.40801
859.7412, 18.29024
860.2233, 18.47626
860.7054, 19.34244
861.1876, 20.26141
861.6697, 20.60151
862.1518, 20.45247
862.6339, 20.44900
863.1160, 21.09423
863.5981, 21.39148
864.0803, 20.13737
864.5624, 18.55124
865.0445, 18.34066
865.5266, 19.20015
866.0087, 19.70574
866.4908, 19.26219
866.9730, 18.55023
867.4551, 18.41341
867.9372, 18.71954
868.4193, 18.88833
868.9014, 18.91736
869.3835, 18.94761
869.8657, 19.01003
870.3478, 19.12856
870.8299, 19.35821
871.3120, 19.65333
871.7941, 19.74905
872.2762, 19.54508
872.7583, 19.33369
873.2404, 19.27695
873.7225, 19.04963
874.2047, 18.32542
874.6868, 17.43491
875.1689, 16.75279
875.6510, 16.31499
876.1331, 16.39645
876.6152, 17.70629
877.0974, 18.89462
877.5795, 19.09401
878.0616, 18.68377
878.5437, 17.99341
879.0258, 17.22585
879.5079, 16.74909
879.9901, 16.79362
880.4722, 17.18449
880.9543, 17.97201
881.4364, 18.88346
881.9185, 18.80259
882.4006, 17.74799
882.8828, 17.07610
883.3649, 17.42217
883.8470, 18.15029
884.3291, 18.41924
884.8112, 18.23958
885.2933, 17.87690
885.7755, 17.18064
886.2576, 16.72527
886.7397, 16.73119
887.2218, 16.86718
887.7039, 16.91788
888.1860, 16.89935
888.6682, 16.87458
889.1503, 16.91851
889.6324, 16.77886
890.1145, 16.10293
890.5966, 15.57828
891.0787, 15.60600
891.5609, 15.98676
892.0430, 16.58635
892.5251, 17.29534
893.0072, 17.66087
893.4893, 17.22121
893.9714, 16.59165
894.4536, 16.39123
894.9357, 16.40064
895.4178, 16.14822
895.8999, 15.68063
896.3820, 15.59347
896.8641, 16.21719
897.3463, 16.86326
897.8284, 16.23617
898.3105, 14.58423
898.7926, 14.00554
899.2747, 14.57858
899.7568, 15.16816
900.2390, 15.44572
900.7211, 15.57481
901.2032, 15.68918
901.6853, 15.80056
902.1674, 16.01257
902.6495, 16.63200
903.1317, 16.71236
903.6138, 15.59240
904.0959, 14.64389
904.5780, 14.70642
905.0601, 15.17896
905.5422, 15.21769
906.0244, 14.73475
906.5065, 14.29092
906.9886, 13.82783
907.4707, 13.66559
907.9528, 14.30378
908.4349, 15.06676
908.9171, 15.14352
909.3992, 14.67610
909.8813, 14.36147
910.3634, 14.49748
910.8455, 14.93090
911.3276, 15.95642
911.8098, 16.94624
912.2919, 16.54383
912.7740, 15.14830
913.2561, 14.34406
913.7382, 14.58351
914.2203, 15.05243
914.7025, 15.00055
915.1846, 14.58716
915.6667, 14.29991
916.1488, 14.14002
916.6309, 13.82361
917.1130, 13.24602
917.5952, 12.88699
918.0773, 13.02929
918.5594, 13.50699
919.0415, 14.05615
919.5236, 14.70437
920.0057, 15.26417
920.4879, 16.02487
920.9700, 16.22071
921.4521, 15.07031
921.9342, 13.85663
922.4163, 13.50603
922.8984, 13.81509
923.3806, 14.16664
923.8627, 14.57103
924.3448, 14.80368
924.8269, 14.78057
925.3090, 14.59797
925.7911, 14.21372
926.2733, 13.75991
926.7554, 13.30911
927.2375, 12.93388
927.7196, 12.93249
928.2017, 13.81843
928.6838, 14.56456
929.1660, 13.73364
929.6481, 12.41396
930.1302, 12.57646
930.6123, 13.97063
931.0944, 14.97634
931.5765, 14.91142
932.0587, 14.39614
932.5408, 14.05774
933.0229, 13.88230
933.5050, 13.90909
933.9871, 14.10473
934.4692, 13.99300
934.9514, 13.44378
935.4335, 13.14605
935.9156, 13.66888
936.3977, 14.56696
936.8798, 14.64934
937.3619, 13.63706
937.8441, 13.50206
938.3262, 14.70758
938.8083, 15.61397
939.2904, 15.58994
939.7725, 15.17282
940.2546, 14.85623
940.7368, 14.63205
941.2189, 14.42099
941.7010, 14.05385
942.1831, 13.95588
942.6652, 14.65085
943.1473, 15.06525
943.6295, 14.37348
944.1116, 13.24277
944.5937, 12.55379
945.0758, 12.41677
945.5579, 12.53863
946.0400, 13.12238
946.5222, 13.56865
947.0043, 13.46394
947.4864, 13.14988
947.9685, 12.79373
948.4506, 12.56813
948.9327, 12.87826
949.4149, 13.88149
949.8970, 14.80640
950.3791, 14.91656
950.8612, 14.64964
951.3433, 14.59738
951.8254, 14.65170
952.3076, 14.45332
952.7897, 13.99170
953.2718, 13.66283
953.7539, 13.73407
954.2360, 13.97436
954.7181, 14.01365
955.2002, 13.88003
955.6823, 13.70583
956.1644, 13.49670
956.6465, 13.28705
957.1287, 13.07990
957.6108, 12.94390
958.0929, 12.94560
958.5750, 13.07454
959.0571, 13.34082
959.5392, 13.83912
960.0214, 13.94142
960.5035, 13.39085
960.9856, 13.04477
961.4677, 13.49429
961.9498, 14.09823
962.4319, 13.89067
962.9141, 12.84773
963.3962, 12.29319
963.8783, 12.56575
964.3604, 12.80958
964.8425, 12.81131
965.3246, 12.90805
965.8068, 13.45813
966.2889, 14.15246
966.7710, 14.44124
967.2531, 14.24442
967.7352, 13.99611
968.2173, 13.84655
968.6995, 13.58644
969.1816, 13.00389
969.6637, 12.38082
970.1458, 11.80333
970.6279, 11.43569
971.1100, 11.75027
971.5922, 13.02009
972.0743, 13.97467
972.5564, 13.53712
973.0385, 12.78930
973.5206, 12.65578
974.0027, 12.87433
974.4849, 13.10869
974.9670, 13.21357
975.4491, 12.88347
975.9312, 11.83438
976.4133, 10.93958
976.8954, 11.41228
977.3776, 12.58835
977.8597, 13.43963
978.3418, 13.87812
978.8239, 13.68023
979.3060, 12.86399
979.7881, 12.13134
980.2703, 12.08186
980.7524, 12.36259
981.2345, 12.10624
981.7166, 11.47748
982.1987, 11.68208
982.6808, 12.77060
983.1630, 13.37468
983.6451, 12.91260
984.1272, 12.32991
984.6093, 12.73589
985.0914, 13.83178
985.5735, 14.20741
986.0557, 13.80311
986.5378, 12.97150
987.0199, 11.50347
987.5020, 10.58054
987.9841, 10.97302
988.4662, 11.82847
988.9484, 11.88945
989.4305, 11.16209
989.9126, 10.90584
990.3947, 11.41271
990.8768, 11.74277
991.3589, 11.72871
991.8411, 11.58451
992.3232, 11.19017
992.8053, 10.86522
993.2874, 11.40681
993.7695, 13.07174
994.2516, 13.70809
994.7338, 11.73081
995.2159, 10.89564
995.6980, 13.31051
996.1801, 15.71694
996.6622, 15.65285
997.1443, 14.08113
997.6265, 13.01418
998.1086, 12.75065
998.5907, 12.74470
999.0728, 13.05373
999.5549, 13.35613
1000.037, 13.69734
1000.519, 13.81918
1001.001, 13.23318
1001.483, 12.26234
1001.966, 11.80079
1002.448, 12.17060
1002.930, 12.54693
1003.412, 12.59669
1003.894, 12.40631
1004.376, 11.63762
1004.858, 10.91428
1005.340, 11.33419
1005.822, 12.61240
1006.305, 13.29056
1006.787, 12.65070
1007.269, 11.99798
1007.751, 12.64964
1008.233, 13.67134
1008.715, 13.93126
1009.197, 13.72665
1009.679, 13.76471
1010.161, 14.09672
1010.644, 14.24636
1011.126, 13.93132
1011.608, 13.40296
1012.090, 12.79076
1012.572, 12.25984
1013.054, 12.20826
1013.536, 12.52602
1014.018, 12.90844
1014.501, 13.23829
1014.983, 13.23029
1015.465, 12.61419
1015.947, 11.94964
1016.429, 12.40575
1016.911, 13.58930
1017.393, 13.87128
1017.875, 13.32622
1018.357, 13.08861
1018.840, 13.47209
1019.322, 13.87769
1019.804, 13.81737
1020.286, 13.45240
1020.768, 13.06500
1021.250, 12.67606
1021.732, 12.62648
1022.214, 12.94152
1022.697, 13.14213
1023.179, 13.07447
1023.661, 12.85681
1024.143, 12.57986
1024.625, 12.26143
1025.107, 11.90020
1025.589, 11.46193
1026.071, 11.42510
1026.553, 11.84653
1027.036, 12.53028
1027.518, 13.55021
1028.000, 14.35147
1028.482, 14.34752
1028.964, 13.71808
1029.446, 13.17419
1029.928, 12.69107
1030.410, 12.43274
1030.892, 12.56010
1031.375, 12.43835
1031.857, 11.65925
1032.339, 10.86263
1032.821, 10.66685
1033.303, 11.01042
1033.785, 11.62774
1034.267, 12.79532
1034.749, 13.55013
1035.232, 13.89681
1035.714, 13.78443
1036.196, 12.88287
1036.678, 11.86279
1037.160, 11.35716
1037.642, 11.32511
1038.124, 11.54630
1038.606, 12.28928
1039.089, 12.75556
1039.571, 12.92208
1040.053, 12.83944
1040.535, 12.30272
1041.017, 11.69783
1041.499, 11.36767
1041.981, 11.29352
1042.463, 11.38156
1042.945, 11.60995
1043.427, 12.04015
1043.910, 13.30172
1044.392, 13.98494
1044.874, 13.21886
1045.356, 11.93774
1045.838, 10.76767
1046.320, 9.855910
1046.802, 9.712048
1047.284, 10.85561
1047.767, 11.69491
1048.249, 11.81000
1048.731, 11.84590
1049.213, 11.98789
1049.695, 12.23054
1050.177, 12.78023
1050.659, 13.43581
1051.141, 13.38409
1051.624, 12.08587
1052.106, 11.19542
1052.588, 11.37231
1053.070, 11.65030
1053.552, 11.55978
1054.034, 11.38716
1054.516, 11.42290
1054.998, 11.64887
1055.480, 11.94159
1055.963, 12.34390
1056.445, 12.57456
1056.927, 12.57845
1057.409, 12.36318
1057.891, 11.61354
1058.373, 10.89711
1058.855, 10.79864
1059.337, 11.22434
1059.819, 11.78307
1060.302, 12.43308
1060.784, 12.98280
1061.266, 13.49756
1061.748, 13.73978
1062.230, 13.40089
1062.712, 12.88336
1063.194, 12.46416
1063.676, 12.23474
1064.159, 12.39116
1064.641, 13.05875
1065.123, 13.47629
1065.605, 13.33222
1066.087, 12.87510
1066.569, 11.82083
1067.051, 10.85833
1067.533, 10.87599
1068.016, 11.48592
1068.498, 11.57607
1068.980, 10.84116
1069.462, 10.41890
1069.944, 11.08911
1070.426, 11.82498
1070.908, 12.07767
1071.390, 12.16050
1071.872, 12.41956
1072.354, 12.73725
1072.837, 12.73303
1073.319, 12.33685
1073.801, 12.16446
1074.283, 12.91310
1074.765, 13.40197
1075.247, 12.63252
1075.729, 11.70807
1076.211, 11.65656
1076.694, 12.15125
1077.176, 12.50457
1077.658, 12.57842
1078.140, 12.53404
1078.622, 12.51503
1079.104, 12.28203
1079.586, 11.27475
1080.068, 10.43847
1080.550, 10.74947
1081.033, 11.65107
1081.515, 12.24864
1081.997, 12.41360
1082.479, 12.51419
1082.961, 12.80752
1083.443, 12.83081
1083.925, 12.15470
1084.407, 11.35151
1084.890, 10.74238
1085.372, 10.32775
1085.854, 10.02520
1086.336, 9.864460
1086.818, 10.06394
1087.300, 10.91471
1087.782, 11.50716
1088.264, 11.25205
1088.746, 10.85357
1089.229, 10.59026
1089.711, 10.55359
1090.193, 11.08374
1090.675, 11.90959
1091.157, 12.04239
1091.639, 11.00615
1092.121, 10.25120
1092.603, 10.48116
1093.085, 10.93747
1093.568, 11.42742
1094.050, 11.79017
1094.532, 11.82178
1095.014, 11.62517
1095.496, 11.49642
1095.978, 11.52026
1096.460, 11.36351
1096.942, 10.48788
1097.425, 9.984327
1097.907, 10.61384
1098.389, 11.46401
1098.871, 11.96300
1099.353, 12.08453
1099.835, 11.78309
1100.317, 11.05575
1100.799, 10.52767
1101.281, 10.30599
1101.764, 10.37257
1102.246, 11.12298
1102.728, 11.73128
1103.210, 11.41614
1103.692, 10.79782
1104.174, 10.90688
1104.656, 11.70658
1105.138, 11.99336
1105.620, 11.14027
1106.103, 10.48360
1106.585, 10.40485
1107.067, 10.35272
1107.549, 9.940560
1108.031, 9.537114
1108.513, 9.579132
1108.995, 9.994669
1109.477, 10.42237
1109.960, 11.05501
1110.442, 11.15406
1110.924, 9.742035
1111.406, 9.018675
1111.888, 10.41858
1112.370, 11.99592
1112.852, 12.15391
1113.334, 11.32794
1113.817, 10.54443
1114.299, 9.635601
1114.781, 9.568098
1115.263, 11.36929
1115.745, 12.30263
1116.227, 11.18213
1116.709, 10.11005
1117.191, 10.56843
1117.673, 11.59408
1118.156, 11.44028
1118.638, 12.03191
1119.120, 12.76220
1119.602, 12.36112
1120.084, 13.63340
1120.566, 13.34672
1121.048, 12.45805
1121.530, 11.08843
1122.012, 9.743793
1122.495, 8.974396
1122.977, 8.750784
1123.459, 8.980652
1123.941, 9.848192
1124.423, 10.36163
1124.905, 10.34889
1125.387, 10.59190
1125.869, 11.49039
1126.352, 12.15641
1126.834, 11.75352
1127.316, 10.77882
1127.798, 10.48505
1128.280, 10.90457
1128.762, 10.99826
1129.244, 10.71633
1129.726, 10.73605
1130.208, 11.27603
1130.691, 11.21581
1131.173, 9.769246
1131.655, 8.134029
1132.137, 8.166255
1132.619, 9.509278
1133.101, 10.54850
1133.583, 11.27766
1134.065, 11.31140
1134.547, 10.66144
1135.030, 10.55662
1135.512, 11.48141
1135.994, 12.31836
1136.476, 11.96309
1136.958, 10.89890
1137.440, 9.912604
1137.922, 9.124758
1138.404, 9.193316
1138.887, 9.914873
1139.369, 10.13794
1139.851, 9.657608
1140.333, 9.280567
1140.815, 9.519654
1141.297, 9.996409
1141.779, 10.29120
1142.261, 10.45670
1142.744, 10.69098
1143.226, 10.83109
1143.708, 10.32252
1144.190, 9.334841
1144.672, 8.635135
1145.154, 8.529698
1145.636, 8.966853
1146.118, 10.45743
1146.600, 11.75625
1147.083, 11.18438
1147.565, 10.00343
1148.047, 9.806532
1148.529, 10.30380
1149.011, 10.63469
1149.493, 10.64205
1149.975, 10.68787
1150.457, 10.96718
1150.939, 11.24823
1151.422, 11.56402
1151.904, 11.64725
1152.386, 11.15932
1152.868, 10.42851
1153.350, 9.583725
1153.832, 8.887177
1154.314, 9.116340
1154.796, 10.66353
1155.279, 11.57115
1155.761, 10.67195
1156.243, 9.853719
1156.725, 9.669516
1157.207, 9.889829
1157.689, 10.66969
1158.171, 11.57135
1158.653, 11.87672
1159.135, 11.56270
1159.618, 11.27501
1160.100, 10.84545
1160.582, 10.79405
1161.064, 11.68649
1161.546, 12.13911
1162.028, 11.28643
1162.510, 10.28615
1162.992, 10.30041
1163.474, 10.93778
1163.957, 10.93474
1164.439, 10.11445
1164.921, 9.608810
1165.403, 9.371102
1165.885, 9.707907
1166.367, 10.89724
1166.849, 11.93327
1167.331, 12.26164
1167.813, 12.03620
1168.296, 11.36463
1168.778, 10.40464
1169.260, 10.17130
1169.742, 9.808123
1170.224, 9.545487
1170.706, 9.866240
1171.188, 9.641413
1171.670, 10.27762
1172.153, 10.89983
1172.635, 10.75888
1173.117, 10.42181
1173.599, 11.12339
1174.081, 12.34976
1174.563, 12.44989
1175.045, 11.73275
1175.527, 11.27065
1176.010, 11.22356
1176.492, 11.34977
1176.974, 11.53628
1177.456, 11.71771
1177.938, 11.90813
1178.420, 11.96663
1178.902, 11.67178
1179.384, 11.18605
1179.866, 10.49751
1180.349, 9.888848
1180.831, 10.12253
1181.313, 11.08592
1181.795, 11.45976
1182.277, 10.45717
1182.759, 9.575820
1183.241, 9.790854
1183.723, 10.17642
1184.205, 10.07684
1184.688, 9.932402
1185.170, 10.25885
1185.652, 10.89243
1186.134, 11.42592
1186.616, 11.81034
1187.098, 11.96444
1187.580, 11.78609
1188.062, 11.51177
1188.545, 10.93340
1189.027, 10.57339
1189.509, 10.84045
1189.991, 11.25070
1190.473, 11.27983
1190.955, 11.03742
1191.437, 10.96547
1191.919, 11.11333
1192.401, 11.20697
1192.884, 11.21399
1193.366, 11.31747
1193.848, 11.62861
1194.330, 11.68814
1194.812, 11.12954
1195.294, 10.56807
1195.776, 10.97220
1196.258, 12.01415
1196.740, 12.28219
1197.223, 11.83549
1197.705, 11.13987
1198.187, 10.30356
1198.669, 9.991077
1199.151, 10.34711
1199.633, 10.64653
1200.115, 10.37025
1200.597, 9.967769
1201.080, 10.02413
1201.562, 10.35199
1202.044, 10.83575
1202.526, 11.23608
1203.008, 10.89354
1203.490, 10.06260
1203.972, 9.690195
1204.454, 10.02076
1204.937, 10.37618
1205.419, 10.22619
1205.901, 10.26221
1206.383, 11.38653
1206.865, 12.37161
1207.347, 12.09932
1207.829, 11.26372
1208.311, 10.66068
1208.793, 10.32283
1209.276, 10.02561
1209.758, 9.733554
1210.240, 9.482668
1210.722, 9.217134
1211.204, 9.080298
1211.686, 8.968411
1212.168, 9.179830
1212.650, 10.23685
1213.132, 11.26949
1213.615, 11.09999
1214.097, 10.04965
1214.579, 9.717424
1215.061, 10.28517
1215.543, 10.66990
1216.025, 10.86522
1216.507, 10.84045
1216.989, 10.54874
1217.472, 10.38768
1217.954, 10.59422
1218.436, 11.01650
1218.918, 11.50783
1219.400, 11.98123
1219.882, 12.20994
1220.364, 12.20607
1220.846, 11.86912
1221.328, 11.33845
1221.811, 11.22981
1222.293, 11.59788
1222.775, 11.80451
1223.257, 11.48909
1223.739, 10.94116
1224.221, 10.02674
1224.703, 9.426081
1225.185, 10.04963
1225.667, 11.17531
1226.150, 12.25955
1226.632, 13.01743
1227.114, 12.97046
1227.596, 12.13970
1228.078, 11.42919
1228.560, 11.10143
1229.042, 10.91245
1229.524, 10.81085
1230.007, 10.83277
1230.489, 11.31649
1230.971, 11.58855
1231.453, 10.83836
1231.935, 9.739269
1232.417, 9.576534
1232.899, 10.34399
1233.381, 11.23548
1233.864, 12.53132
1234.346, 12.48709
1234.828, 10.62880
1235.310, 9.471660
1235.792, 9.890466
1236.274, 10.79447
1236.756, 11.37492
1237.238, 11.73076
1237.720, 12.09403
1238.203, 12.35641
1238.685, 11.99628
1239.167, 11.25873
1239.649, 10.88911
1240.131, 10.92942
1240.613, 11.17465
1241.095, 11.54570
1241.577, 12.06366
1242.059, 12.90709
1242.542, 13.32100
1243.024, 12.20582
1243.506, 10.96372
1243.988, 10.95721
1244.470, 11.31284
1244.952, 10.96193
1245.434, 10.14452
1245.916, 9.479786
1246.398, 9.068446
1246.881, 9.208080
1247.363, 10.65878
1247.845, 11.48392
1248.327, 11.12317
1248.809, 10.76637
1249.291, 10.72278
1249.773, 10.89081
1250.255, 11.28153
1250.738, 11.70473
1251.220, 11.74774
1251.702, 11.45980
1252.184, 11.43957
1252.666, 11.68580
1253.148, 12.07271
1253.630, 12.56732
1254.112, 12.84205
1254.594, 12.79321
1255.077, 12.46146
1255.559, 11.84491
1256.041, 11.22795
1256.523, 10.91350
1257.005, 10.86747
1257.487, 11.31038
1257.969, 11.81104
1258.451, 11.51587
1258.933, 10.79340
1259.416, 10.64164
1259.898, 11.17124
1260.380, 11.59151
1260.862, 11.58222
1261.344, 11.55431
1261.826, 11.91971
1262.308, 11.91616
1262.790, 10.62047
1263.273, 9.512527
1263.755, 9.930985
1264.237, 10.95661
1264.719, 11.18272
1265.201, 10.75117
1265.683, 10.93753
1266.165, 11.91939
1266.647, 12.44492
1267.130, 12.44170
1267.612, 12.34111
1268.094, 12.24559
1268.576, 11.99343
1269.058, 11.47976
1269.540, 10.99051
1270.022, 10.88042
1270.504, 10.98095
1270.986, 10.98860
1271.469, 10.97983
1271.951, 11.16850
1272.433, 11.42955
1272.915, 11.47419
1273.397, 11.29673
1273.879, 11.05981
1274.361, 10.80840
1274.843, 10.66464
1275.325, 10.81835
1275.808, 10.89343
1276.290, 10.52267
1276.772, 10.29759
1277.254, 10.77869
1277.736, 11.39645
1278.218, 11.49538
1278.700, 11.26593
1279.182, 11.24335
1279.665, 11.44806
1280.147, 11.55016
1280.629, 11.51365
1281.111, 11.62469
1281.593, 11.92014
1282.075, 12.42276
1282.557, 13.14860
1283.039, 13.42485
1283.521, 12.63202
1284.004, 11.72149
1284.486, 11.82218
##END=



