##NAMES=Hedyphane
##RRUFFID=R070425
##IDEAL CHEMISTRY=Ca_2_Pb^2+^_3_(As^5+^O_4_)_3_Cl
##LOCALITY=Langban, Filipstad, Varmland, Sweden
##OWNER=RRUFF
##SOURCE=Michael Scott
##DESCRIPTION=Aggregates of prismatic colorless crystals, associated with lizardite. NEW MINERAL, OH analogue of hedyphane, perhaps call it hydroxylhedyphane
##STATUS=The identification of this mineral is confirmed by single-crystal X-ray diffraction and chemical analysis.
##URL=rruff.info/R070425
##MEASURED CHEMISTRY=Pb_3.00_(Ca_1.55_Ba_0.20_Pb_0.10_)_1.85_[(AsO_4_)_2.55_(PO_4_)_0.15_(SiO_4_)_0.17_]_2.87_[(OH)_0.55_Cl_0.37_]_0.92_ ;  The darker phase is lizardite.
105.1193, 142.6913
105.6014, 149.0586
106.0836, 156.9364
106.5657, 162.9709
107.0478, 165.7134
107.5299, 167.5004
108.0120, 173.7154
108.4941, 185.9635
108.9763, 195.8802
109.4584, 197.6517
109.9405, 194.5965
110.4226, 195.8737
110.9047, 205.9628
111.3868, 220.5703
111.8690, 231.7081
112.3511, 238.0794
112.8332, 245.0076
113.3153, 256.7782
113.7974, 272.8071
114.2795, 287.1667
114.7617, 294.8442
115.2438, 301.7663
115.7259, 315.6425
116.2080, 338.8692
116.6901, 364.2396
117.1722, 383.8695
117.6544, 396.9722
118.1365, 411.3132
118.6186, 429.5565
119.1007, 450.6535
119.5828, 473.9843
120.0649, 499.0840
120.5471, 527.0486
121.0292, 560.9218
121.5113, 603.7822
121.9934, 643.6561
122.4755, 672.2770
122.9576, 698.5444
123.4398, 730.6635
123.9219, 772.1518
124.4040, 821.0150
124.8861, 872.2885
125.3682, 927.1498
125.8503, 983.5381
126.3325, 1038.893
126.8146, 1095.891
127.2967, 1158.654
127.7788, 1229.260
128.2609, 1306.164
128.7430, 1380.335
129.2252, 1445.793
129.7073, 1516.104
130.1894, 1596.135
130.6715, 1681.700
131.1536, 1767.479
131.6357, 1850.919
132.1179, 1931.278
132.6000, 2002.573
133.0821, 2061.146
133.5642, 2113.595
134.0463, 2162.857
134.5284, 2206.443
135.0106, 2237.984
135.4927, 2251.303
135.9748, 2247.889
136.4569, 2261.012
136.9390, 2301.744
137.4211, 2345.792
137.9033, 2387.908
138.3854, 2427.695
138.8675, 2465.110
139.3496, 2498.540
139.8317, 2527.925
140.3138, 2576.181
140.7960, 2644.405
141.2781, 2725.250
141.7602, 2819.296
142.2423, 2923.971
142.7244, 3031.417
143.2065, 3135.046
143.6887, 3234.721
144.1708, 3349.423
144.6529, 3483.724
145.1350, 3626.631
145.6171, 3776.984
146.0992, 3932.576
146.5814, 4084.630
147.0635, 4227.653
147.5456, 4359.919
148.0277, 4479.413
148.5098, 4583.769
148.9919, 4677.415
149.4741, 4764.542
149.9562, 4845.672
150.4383, 4916.263
150.9204, 4971.113
151.4025, 5010.292
151.8846, 5047.097
152.3668, 5094.286
152.8489, 5132.005
153.3310, 5136.601
153.8131, 5105.532
154.2952, 5067.490
154.7773, 5042.190
155.2595, 5028.353
155.7416, 5020.627
156.2237, 5020.583
156.7058, 5025.149
157.1879, 5029.711
157.6700, 5033.282
158.1522, 5041.970
158.6343, 5062.600
159.1164, 5092.231
159.5985, 5125.108
160.0806, 5159.621
160.5627, 5196.584
161.0449, 5236.846
161.5270, 5280.258
162.0091, 5326.952
162.4912, 5378.280
162.9733, 5432.680
163.4554, 5488.962
163.9376, 5548.836
164.4197, 5609.453
164.9018, 5665.369
165.3839, 5716.364
165.8660, 5762.759
166.3481, 5801.609
166.8303, 5836.446
167.3124, 5873.643
167.7945, 5921.770
168.2766, 5972.144
168.7587, 6004.299
169.2408, 6012.123
169.7230, 6015.325
170.2051, 6024.680
170.6872, 6036.743
171.1693, 6045.445
171.6514, 6043.833
172.1335, 6038.816
172.6157, 6049.793
173.0978, 6085.445
173.5799, 6119.972
174.0620, 6145.747
174.5441, 6162.884
175.0262, 6169.831
175.5084, 6163.276
175.9905, 6147.715
176.4726, 6134.089
176.9547, 6118.780
177.4368, 6113.097
177.9189, 6125.124
178.4010, 6146.833
178.8832, 6167.109
179.3653, 6179.650
179.8474, 6188.331
180.3295, 6206.186
180.8116, 6241.773
181.2937, 6271.145
181.7759, 6285.446
182.2580, 6290.791
182.7401, 6293.740
183.2222, 6296.623
183.7043, 6300.501
184.1864, 6308.775
184.6686, 6323.704
185.1507, 6339.267
185.6328, 6358.925
186.1149, 6376.473
186.5970, 6382.376
187.0791, 6370.089
187.5613, 6349.618
188.0434, 6348.238
188.5255, 6375.979
189.0076, 6407.001
189.4897, 6436.383
189.9718, 6464.980
190.4540, 6495.785
190.9361, 6530.523
191.4182, 6564.020
191.9003, 6582.338
192.3824, 6574.859
192.8645, 6570.640
193.3467, 6573.958
193.8288, 6582.584
194.3109, 6594.227
194.7930, 6607.964
195.2751, 6624.846
195.7572, 6647.160
196.2394, 6676.895
196.7215, 6709.232
197.2036, 6754.094
197.6857, 6795.391
198.1678, 6815.237
198.6499, 6808.271
199.1321, 6789.461
199.6142, 6787.013
200.0963, 6809.696
200.5784, 6832.205
201.0605, 6850.346
201.5426, 6868.604
202.0248, 6891.931
202.5069, 6921.278
202.9890, 6950.902
203.4711, 6970.982
203.9532, 6976.444
204.4353, 6983.374
204.9175, 6995.552
205.3996, 7007.219
205.8817, 7014.937
206.3638, 7017.840
206.8459, 7016.736
207.3280, 7009.986
207.8102, 6988.625
208.2923, 6985.743
208.7744, 7015.075
209.2565, 7049.959
209.7386, 7074.054
210.2207, 7086.121
210.7029, 7097.003
211.1850, 7122.263
211.6671, 7171.074
212.1492, 7199.304
212.6313, 7185.908
213.1134, 7171.271
213.5956, 7174.952
214.0777, 7196.834
214.5598, 7225.431
215.0419, 7249.795
215.5240, 7269.031
216.0061, 7289.540
216.4883, 7304.119
216.9704, 7326.661
217.4525, 7373.842
217.9346, 7435.865
218.4167, 7484.920
218.8988, 7492.291
219.3810, 7455.885
219.8631, 7454.273
220.3452, 7526.938
220.8273, 7597.890
221.3094, 7648.415
221.7915, 7681.415
222.2737, 7706.414
222.7558, 7729.276
223.2379, 7750.179
223.7200, 7768.856
224.2021, 7775.402
224.6842, 7791.188
225.1664, 7830.682
225.6485, 7880.268
226.1306, 7919.323
226.6127, 7935.091
227.0948, 7933.120
227.5770, 7936.616
228.0591, 7949.480
228.5412, 7963.086
229.0233, 7971.673
229.5054, 7981.615
229.9875, 8003.139
230.4697, 8041.396
230.9518, 8086.362
231.4339, 8112.339
231.9160, 8105.480
232.3981, 8102.428
232.8802, 8108.455
233.3624, 8119.374
233.8445, 8133.812
234.3266, 8150.892
234.8087, 8166.100
235.2908, 8169.486
235.7729, 8151.593
236.2551, 8144.683
236.7372, 8152.475
237.2193, 8169.740
237.7014, 8197.189
238.1835, 8233.241
238.6656, 8269.585
239.1478, 8295.256
239.6299, 8307.111
240.1120, 8319.935
240.5941, 8337.431
241.0762, 8353.369
241.5583, 8361.057
242.0405, 8362.602
242.5226, 8368.380
243.0047, 8391.718
243.4868, 8435.042
243.9689, 8467.227
244.4510, 8485.523
244.9332, 8494.094
245.4153, 8483.850
245.8974, 8463.879
246.3795, 8455.656
246.8616, 8477.388
247.3437, 8525.728
247.8259, 8570.479
248.3080, 8620.742
248.7901, 8653.524
249.2722, 8651.448
249.7543, 8630.244
250.2364, 8615.275
250.7186, 8621.094
251.2007, 8640.801
251.6828, 8653.114
252.1649, 8650.393
252.6470, 8656.349
253.1291, 8686.150
253.6113, 8724.378
254.0934, 8754.236
254.5755, 8768.996
255.0576, 8775.883
255.5397, 8785.128
256.0219, 8796.143
256.5040, 8811.803
256.9861, 8841.532
257.4682, 8871.276
257.9503, 8888.625
258.4324, 8890.571
258.9146, 8890.239
259.3967, 8906.499
259.8788, 8940.781
260.3609, 8957.300
260.8430, 8932.052
261.3251, 8901.908
261.8073, 8894.692
262.2894, 8910.447
262.7715, 8929.630
263.2536, 8941.993
263.7357, 8947.147
264.2178, 8940.838
264.7000, 8914.634
265.1821, 8889.210
265.6642, 8881.302
266.1463, 8886.694
266.6284, 8891.952
267.1105, 8890.363
267.5927, 8884.427
268.0748, 8879.031
268.5569, 8874.124
269.0390, 8870.323
269.5211, 8869.099
270.0032, 8869.229
270.4854, 8868.804
270.9675, 8869.021
271.4496, 8867.096
271.9317, 8856.887
272.4138, 8837.991
272.8959, 8825.512
273.3781, 8836.062
273.8602, 8853.086
274.3423, 8843.365
274.8244, 8789.049
275.3065, 8737.607
275.7886, 8727.369
276.2708, 8748.805
276.7529, 8761.442
277.2350, 8747.634
277.7171, 8723.352
278.1992, 8716.577
278.6813, 8730.534
279.1635, 8742.488
279.6456, 8743.166
280.1277, 8736.781
280.6098, 8729.038
281.0919, 8720.497
281.5740, 8714.941
282.0562, 8719.468
282.5383, 8735.425
283.0204, 8743.834
283.5025, 8736.812
283.9846, 8724.980
284.4667, 8716.445
284.9489, 8712.235
285.4310, 8712.783
285.9131, 8720.814
286.3952, 8735.668
286.8773, 8737.884
287.3594, 8716.974
287.8416, 8694.844
288.3237, 8680.368
288.8058, 8673.100
289.2879, 8671.402
289.7700, 8675.096
290.2521, 8682.443
290.7343, 8686.014
291.2164, 8675.215
291.6985, 8673.868
292.1806, 8694.823
292.6627, 8723.897
293.1448, 8743.782
293.6270, 8748.389
294.1091, 8742.621
294.5912, 8734.095
295.0733, 8714.167
295.5554, 8709.091
296.0375, 8728.421
296.5197, 8754.495
297.0018, 8773.686
297.4839, 8785.408
297.9660, 8798.884
298.4481, 8824.473
298.9302, 8864.436
299.4124, 8901.320
299.8945, 8928.527
300.3766, 8959.280
300.8587, 9004.936
301.3408, 9057.830
301.8229, 9099.481
302.3050, 9114.883
302.7871, 9112.406
303.2693, 9136.573
303.7514, 9210.781
304.2335, 9278.016
304.7156, 9314.993
305.1977, 9344.617
305.6798, 9393.495
306.1620, 9471.873
306.6441, 9564.157
307.1262, 9645.331
307.6083, 9712.401
308.0904, 9778.307
308.5725, 9843.290
309.0547, 9909.018
309.5368, 9976.367
310.0189, 10045.51
310.5010, 10114.39
310.9831, 10178.42
311.4652, 10238.86
311.9474, 10308.82
312.4295, 10390.59
312.9116, 10480.44
313.3937, 10579.71
313.8758, 10684.85
314.3579, 10785.31
314.8401, 10873.46
315.3222, 10955.42
315.8043, 11045.75
316.2864, 11147.78
316.7685, 11237.90
317.2506, 11296.77
317.7328, 11336.41
318.2149, 11376.42
318.6970, 11419.34
319.1791, 11461.95
319.6612, 11504.07
320.1433, 11544.30
320.6255, 11576.27
321.1076, 11595.76
321.5897, 11608.87
322.0718, 11630.36
322.5539, 11665.89
323.0360, 11678.58
323.5182, 11637.65
324.0003, 11576.72
324.4824, 11541.16
324.9645, 11538.37
325.4466, 11545.08
325.9287, 11541.53
326.4109, 11526.68
326.8930, 11500.69
327.3751, 11449.31
327.8572, 11400.16
328.3393, 11371.08
328.8214, 11357.67
329.3036, 11344.82
329.7857, 11323.49
330.2678, 11296.01
330.7499, 11273.63
331.2320, 11269.66
331.7141, 11254.06
332.1963, 11211.41
332.6784, 11161.16
333.1605, 11121.44
333.6426, 11098.61
334.1247, 11092.04
334.6068, 11104.83
335.0890, 11153.60
335.5711, 11175.54
336.0532, 11142.47
336.5353, 11110.72
337.0174, 11114.52
337.4995, 11147.25
337.9817, 11178.56
338.4638, 11182.14
338.9459, 11162.40
339.4280, 11159.85
339.9101, 11186.80
340.3922, 11213.45
340.8744, 11231.58
341.3565, 11244.28
341.8386, 11253.13
342.3207, 11257.12
342.8028, 11265.32
343.2849, 11296.37
343.7671, 11355.02
344.2492, 11403.06
344.7313, 11431.15
345.2134, 11444.58
345.6955, 11445.03
346.1776, 11433.04
346.6598, 11418.68
347.1419, 11400.26
347.6240, 11384.37
348.1061, 11394.48
348.5882, 11440.93
349.0703, 11488.48
349.5525, 11509.91
350.0346, 11510.22
350.5167, 11501.62
350.9988, 11478.09
351.4809, 11452.75
351.9630, 11436.15
352.4452, 11427.25
352.9273, 11421.65
353.4094, 11419.69
353.8915, 11416.99
354.3736, 11399.80
354.8557, 11360.35
355.3379, 11326.22
355.8200, 11315.79
356.3021, 11308.40
356.7842, 11275.25
357.2663, 11211.39
357.7484, 11140.60
358.2306, 11089.52
358.7127, 11062.02
359.1948, 11033.41
359.6769, 11008.21
360.1590, 10977.88
360.6411, 10934.20
361.1233, 10882.57
361.6054, 10836.60
362.0875, 10805.32
362.5696, 10781.23
363.0517, 10734.08
363.5338, 10632.55
364.0160, 10559.32
364.4981, 10537.75
364.9802, 10536.41
365.4623, 10534.14
365.9444, 10524.52
366.4265, 10505.33
366.9087, 10465.50
367.3908, 10401.79
367.8729, 10369.14
368.3550, 10399.48
368.8371, 10425.68
369.3192, 10406.26
369.8014, 10356.71
370.2835, 10315.26
370.7656, 10302.23
371.2477, 10305.40
371.7298, 10307.00
372.2119, 10307.47
372.6941, 10301.51
373.1762, 10279.16
373.6583, 10254.06
374.1404, 10250.47
374.6225, 10278.24
375.1046, 10294.64
375.5868, 10266.55
376.0689, 10213.22
376.5510, 10173.97
377.0331, 10157.72
377.5152, 10148.37
377.9973, 10131.33
378.4795, 10105.80
378.9616, 10073.20
379.4437, 10026.51
379.9258, 9979.161
380.4079, 9938.439
380.8900, 9903.866
381.3722, 9874.229
381.8543, 9849.445
382.3364, 9827.070
382.8185, 9799.120
383.3006, 9761.911
383.7827, 9723.676
384.2649, 9682.131
384.7470, 9641.341
385.2291, 9603.319
385.7112, 9569.086
386.1933, 9539.936
386.6754, 9517.878
387.1576, 9503.336
387.6397, 9489.740
388.1218, 9483.861
388.6039, 9470.397
389.0860, 9434.564
389.5681, 9390.504
390.0503, 9362.179
390.5324, 9362.249
391.0145, 9374.203
391.4966, 9373.557
391.9787, 9359.888
392.4608, 9337.236
392.9430, 9302.480
393.4251, 9262.365
393.9072, 9222.108
394.3893, 9181.781
394.8714, 9145.496
395.3535, 9120.020
395.8357, 9098.279
396.3178, 9065.459
396.7999, 9019.584
397.2820, 8977.515
397.7641, 8954.500
398.2462, 8945.406
398.7284, 8922.009
399.2105, 8871.082
399.6926, 8821.296
400.1747, 8785.427
400.6568, 8757.657
401.1389, 8729.096
401.6211, 8696.656
402.1032, 8659.952
402.5853, 8616.208
403.0674, 8557.088
403.5495, 8518.378
404.0316, 8525.213
404.5138, 8525.909
404.9959, 8488.323
405.4780, 8421.892
405.9601, 8353.331
406.4422, 8298.241
406.9243, 8256.387
407.4065, 8229.956
407.8886, 8229.269
408.3707, 8222.894
408.8528, 8202.951
409.3349, 8176.617
409.8170, 8144.988
410.2992, 8109.583
410.7813, 8081.833
411.2634, 8074.923
411.7455, 8085.165
412.2276, 8096.260
412.7097, 8111.386
413.1919, 8117.076
413.6740, 8091.120
414.1561, 8049.785
414.6382, 8027.678
415.1203, 8049.184
415.6024, 8069.426
416.0846, 8050.620
416.5667, 8003.158
417.0488, 7956.977
417.5309, 7920.726
418.0130, 7895.587
418.4951, 7885.316
418.9773, 7895.875
419.4594, 7901.623
419.9415, 7897.039
420.4236, 7891.251
420.9057, 7894.450
421.3878, 7902.642
421.8700, 7900.772
422.3521, 7877.579
422.8342, 7840.015
423.3163, 7818.339
423.7984, 7821.597
424.2805, 7827.532
424.7627, 7835.146
425.2448, 7843.306
425.7269, 7849.437
426.2090, 7854.073
426.6911, 7862.399
427.1732, 7887.165
427.6554, 7925.243
428.1375, 7934.032
428.6196, 7900.260
429.1017, 7862.444
429.5838, 7837.340
430.0659, 7821.625
430.5481, 7810.957
431.0302, 7803.142
431.5123, 7802.705
431.9944, 7823.330
432.4765, 7856.164
432.9586, 7865.699
433.4408, 7838.280
433.9229, 7801.155
434.4050, 7788.773
434.8871, 7804.788
435.3692, 7806.569
435.8513, 7780.414
436.3335, 7749.759
436.8156, 7725.315
437.2977, 7708.170
437.7798, 7698.229
438.2619, 7695.589
438.7440, 7699.347
439.2262, 7707.648
439.7083, 7724.661
440.1904, 7738.785
440.6725, 7751.050
441.1546, 7759.858
441.6367, 7766.090
442.1189, 7768.365
442.6010, 7761.228
443.0831, 7734.200
443.5652, 7697.051
444.0473, 7692.056
444.5294, 7732.424
445.0116, 7767.987
445.4937, 7778.503
445.9758, 7775.212
446.4579, 7766.341
446.9400, 7752.172
447.4221, 7738.278
447.9043, 7725.499
448.3864, 7715.912
448.8685, 7716.885
449.3506, 7730.297
449.8327, 7741.685
450.3148, 7739.628
450.7970, 7724.885
451.2791, 7709.179
451.7612, 7685.490
452.2433, 7669.000
452.7254, 7675.400
453.2076, 7688.188
453.6897, 7681.062
454.1718, 7647.555
454.6539, 7606.851
455.1360, 7583.943
455.6181, 7582.063
456.1003, 7579.792
456.5824, 7587.712
457.0645, 7583.907
457.5466, 7552.674
458.0287, 7507.289
458.5108, 7470.055
458.9930, 7451.521
459.4751, 7438.476
459.9572, 7409.819
460.4393, 7365.353
460.9214, 7327.277
461.4035, 7305.799
461.8857, 7283.565
462.3678, 7239.506
462.8499, 7178.744
463.3320, 7128.587
463.8141, 7102.255
464.2962, 7084.780
464.7784, 7068.082
465.2605, 7049.871
465.7426, 7022.621
466.2247, 6982.938
466.7068, 6932.857
467.1889, 6875.563
467.6711, 6798.595
468.1532, 6741.847
468.6353, 6725.350
469.1174, 6711.224
469.5995, 6671.359
470.0816, 6612.754
470.5638, 6561.248
471.0459, 6533.411
471.5280, 6522.213
472.0101, 6505.884
472.4922, 6480.323
472.9743, 6461.150
473.4565, 6465.452
473.9386, 6467.246
474.4207, 6446.195
474.9028, 6403.372
475.3849, 6359.512
475.8670, 6324.705
476.3492, 6297.162
476.8313, 6274.559
477.3134, 6256.908
477.7955, 6241.631
478.2776, 6227.826
478.7597, 6215.318
479.2419, 6204.284
479.7240, 6197.628
480.2061, 6185.521
480.6882, 6155.417
481.1703, 6126.226
481.6524, 6119.278
482.1346, 6132.610
482.6167, 6146.539
483.0988, 6146.434
483.5809, 6134.535
484.0630, 6122.557
484.5451, 6105.115
485.0273, 6097.017
485.5094, 6115.621
485.9915, 6132.567
486.4736, 6115.561
486.9557, 6066.468
487.4378, 6027.604
487.9200, 6041.683
488.4021, 6090.928
488.8842, 6122.598
489.3663, 6135.321
489.8484, 6134.962
490.3305, 6117.108
490.8127, 6091.362
491.2948, 6078.675
491.7769, 6084.256
492.2590, 6087.513
492.7411, 6078.884
493.2232, 6065.814
493.7054, 6054.104
494.1875, 6045.674
494.6696, 6046.325
495.1517, 6063.238
495.6338, 6091.170
496.1159, 6095.350
496.5981, 6042.374
497.0802, 6012.747
497.5623, 6036.358
498.0444, 6070.104
498.5265, 6072.480
499.0086, 6042.932
499.4908, 6018.216
499.9729, 6036.288
500.4550, 6083.155
500.9371, 6103.358
501.4192, 6091.165
501.9013, 6076.143
502.3835, 6068.103
502.8656, 6066.559
503.3477, 6072.275
503.8298, 6088.688
504.3119, 6097.689
504.7940, 6079.753
505.2762, 6058.123
505.7583, 6065.400
506.2404, 6100.024
506.7225, 6131.972
507.2046, 6140.926
507.6867, 6131.803
508.1689, 6126.115
508.6510, 6129.567
509.1331, 6127.935
509.6152, 6115.390
510.0973, 6101.657
510.5794, 6093.160
511.0616, 6090.470
511.5437, 6091.275
512.0258, 6093.961
512.5079, 6098.908
512.9901, 6109.163
513.4722, 6126.431
513.9543, 6137.615
514.4364, 6132.917
514.9185, 6124.429
515.4006, 6130.202
515.8828, 6151.834
516.3649, 6166.808
516.8470, 6165.654
517.3291, 6156.903
517.8112, 6142.614
518.2933, 6126.804
518.7755, 6122.759
519.2576, 6138.473
519.7397, 6166.036
520.2218, 6187.896
520.7039, 6211.880
521.1860, 6214.129
521.6682, 6174.221
522.1503, 6134.386
522.6324, 6114.178
523.1145, 6112.923
523.5966, 6124.885
524.0787, 6149.752
524.5609, 6180.201
525.0430, 6206.272
525.5251, 6227.946
526.0072, 6241.833
526.4893, 6246.238
526.9714, 6244.029
527.4536, 6234.925
527.9357, 6220.023
528.4178, 6210.027
528.8999, 6202.910
529.3820, 6204.585
529.8641, 6226.858
530.3463, 6258.882
530.8284, 6280.204
531.3105, 6283.898
531.7926, 6276.036
532.2747, 6263.747
532.7568, 6245.671
533.2390, 6231.075
533.7211, 6209.831
534.2032, 6204.708
534.6853, 6236.467
535.1674, 6282.783
535.6495, 6313.564
536.1317, 6319.721
536.6138, 6315.473
537.0959, 6308.403
537.5780, 6301.370
538.0601, 6307.510
538.5422, 6330.661
539.0244, 6348.473
539.5065, 6341.804
539.9886, 6316.798
540.4707, 6304.552
540.9528, 6314.668
541.4349, 6322.695
541.9171, 6320.560
542.3992, 6316.170
542.8813, 6320.247
543.3634, 6331.375
543.8455, 6336.175
544.3276, 6322.281
544.8098, 6295.141
545.2919, 6278.472
545.7740, 6273.897
546.2561, 6275.367
546.7382, 6282.652
547.2203, 6294.876
547.7025, 6317.096
548.1846, 6347.219
548.6666, 6364.935
549.1487, 6355.833
549.6309, 6333.656
550.1130, 6305.554
550.5951, 6275.820
551.0772, 6264.822
551.5593, 6283.140
552.0414, 6310.416
552.5236, 6312.434
553.0057, 6277.763
553.4878, 6256.429
553.9699, 6254.417
554.4520, 6257.181
554.9341, 6265.197
555.4163, 6272.176
555.8984, 6266.700
556.3805, 6244.153
556.8626, 6220.045
557.3447, 6215.903
557.8268, 6228.790
558.3090, 6233.534
558.7911, 6225.210
559.2732, 6217.287
559.7553, 6220.940
560.2374, 6231.454
560.7195, 6233.142
561.2017, 6218.039
561.6838, 6207.874
562.1659, 6219.812
562.6480, 6233.728
563.1301, 6221.536
563.6122, 6186.079
564.0944, 6157.771
564.5765, 6159.953
565.0586, 6184.158
565.5407, 6198.232
566.0228, 6203.262
566.5049, 6195.338
566.9871, 6153.453
567.4692, 6114.729
567.9513, 6110.298
568.4334, 6132.706
568.9155, 6143.532
569.3976, 6112.417
569.8798, 6075.436
570.3619, 6073.029
570.8440, 6096.038
571.3261, 6113.956
571.8082, 6117.433
572.2903, 6113.588
572.7725, 6110.077
573.2546, 6106.540
573.7367, 6106.737
574.2188, 6119.833
574.7009, 6125.541
575.1830, 6115.543
575.6652, 6097.233
576.1473, 6076.365
576.6294, 6055.168
577.1115, 6038.616
577.5936, 6034.886
578.0757, 6039.345
578.5579, 6034.064
579.0400, 6017.110
579.5221, 6006.324
580.0042, 6013.789
580.4863, 6028.708
580.9684, 6029.872
581.4506, 6015.733
581.9327, 5998.256
582.4148, 5973.990
582.8969, 5951.545
583.3790, 5936.144
583.8611, 5927.264
584.3433, 5924.412
584.8254, 5927.522
585.3075, 5930.275
585.7896, 5920.526
586.2717, 5896.712
586.7538, 5878.692
587.2360, 5866.804
587.7181, 5861.631
588.2002, 5873.402
588.6823, 5889.452
589.1644, 5886.972
589.6465, 5856.565
590.1287, 5824.502
590.6108, 5802.843
591.0929, 5786.896
591.5750, 5771.538
592.0571, 5756.041
592.5392, 5739.853
593.0214, 5721.757
593.5035, 5705.442
593.9856, 5704.155
594.4677, 5729.005
594.9498, 5742.449
595.4319, 5734.412
595.9141, 5720.372
596.3962, 5704.704
596.8783, 5689.148
597.3604, 5677.078
597.8425, 5671.277
598.3246, 5666.438
598.8068, 5660.817
599.2889, 5652.130
599.7710, 5630.407
600.2531, 5593.578
600.7352, 5560.914
601.2173, 5549.470
601.6995, 5556.666
602.1816, 5561.515
602.6637, 5566.750
603.1458, 5565.468
603.6279, 5554.761
604.1100, 5539.376
604.5922, 5518.893
605.0743, 5496.325
605.5564, 5481.314
606.0385, 5483.924
606.5206, 5490.770
607.0027, 5479.595
607.4849, 5452.638
607.9670, 5428.300
608.4491, 5411.521
608.9312, 5396.057
609.4133, 5373.562
609.8954, 5344.014
610.3776, 5329.053
610.8597, 5347.788
611.3418, 5355.566
611.8239, 5330.755
612.3060, 5297.160
612.7881, 5281.602
613.2703, 5284.734
613.7524, 5285.177
614.2345, 5262.849
614.7166, 5229.662
615.1987, 5217.934
615.6808, 5228.814
616.1630, 5235.910
616.6451, 5233.084
617.1272, 5221.139
617.6093, 5197.181
618.0914, 5160.852
618.5735, 5133.378
619.0557, 5126.446
619.5378, 5115.970
620.0199, 5083.077
620.5020, 5046.173
620.9841, 5032.752
621.4662, 5045.053
621.9484, 5057.670
622.4305, 5045.258
622.9126, 5015.956
623.3947, 5004.255
623.8768, 5014.091
624.3589, 5018.302
624.8411, 5006.761
625.3232, 4988.365
625.8053, 4974.969
626.2874, 4966.177
626.7695, 4949.985
627.2516, 4913.618
627.7338, 4881.578
628.2159, 4871.138
628.6980, 4871.055
629.1801, 4864.460
629.6622, 4847.719
630.1443, 4828.587
630.6265, 4813.554
631.1086, 4802.854
631.5907, 4800.113
632.0728, 4809.714
632.5549, 4810.033
633.0370, 4793.118
633.5192, 4765.207
634.0013, 4727.262
634.4834, 4680.380
634.9655, 4649.543
635.4476, 4652.780
635.9297, 4659.857
636.4119, 4657.193
636.8940, 4646.026
637.3761, 4625.405
637.8582, 4597.027
638.3403, 4572.156
638.8224, 4562.976
639.3046, 4566.952
639.7867, 4569.333
640.2688, 4570.325
640.7509, 4569.360
641.2330, 4569.637
641.7151, 4564.443
642.1973, 4543.485
642.6794, 4508.334
643.1615, 4479.193
643.6436, 4459.491
644.1257, 4447.583
644.6078, 4451.686
645.0900, 4459.387
645.5721, 4448.631
646.0542, 4416.892
646.5363, 4384.153
647.0184, 4369.981
647.5005, 4369.875
647.9827, 4362.252
648.4648, 4345.340
648.9469, 4327.935
649.4290, 4310.341
649.9111, 4295.177
650.3932, 4287.297
650.8754, 4285.181
651.3575, 4277.390
651.8396, 4258.096
652.3217, 4237.153
652.8038, 4214.541
653.2859, 4195.190
653.7681, 4188.854
654.2502, 4194.767
654.7323, 4199.803
655.2144, 4193.097
655.6965, 4177.798
656.1786, 4164.550
656.6608, 4154.054
657.1429, 4140.897
657.6250, 4122.157
658.1071, 4103.141
658.5892, 4087.901
659.0714, 4076.314
659.5535, 4068.746
660.0356, 4071.760
660.5177, 4070.626
660.9998, 4057.710
661.4819, 4039.863
661.9641, 4019.562
662.4462, 4000.696
662.9283, 3994.547
663.4104, 4011.340
663.8925, 4037.634
664.3746, 4044.105
664.8568, 4030.263
665.3389, 4011.354
665.8210, 3986.367
666.3031, 3964.421
666.7852, 3953.225
667.2673, 3950.850
667.7495, 3947.700
668.2316, 3940.818
668.7137, 3937.951
669.1958, 3947.595
669.6779, 3956.059
670.1600, 3948.176
670.6422, 3929.629
671.1243, 3918.378
671.6064, 3923.709
672.0885, 3936.567
672.5706, 3945.923
673.0527, 3951.822
673.5349, 3954.963
674.0170, 3955.815
674.4991, 3951.081
674.9812, 3936.971
675.4633, 3917.342
675.9454, 3902.300
676.4276, 3893.099
676.9097, 3885.725
677.3918, 3881.084
677.8739, 3877.222
678.3560, 3874.102
678.8381, 3870.773
679.3203, 3864.405
679.8024, 3854.129
680.2845, 3847.177
680.7666, 3852.952
681.2487, 3866.507
681.7308, 3877.261
682.2130, 3884.619
682.6951, 3887.002
683.1772, 3882.921
683.6593, 3876.383
684.1414, 3875.152
684.6235, 3883.297
685.1057, 3875.072
685.5878, 3826.907
686.0699, 3790.498
686.5520, 3787.948
687.0341, 3797.289
687.5162, 3795.206
687.9984, 3779.199
688.4805, 3762.857
688.9626, 3752.480
689.4447, 3746.749
689.9268, 3744.809
690.4089, 3746.260
690.8911, 3752.663
691.3732, 3764.098
691.8553, 3769.792
692.3374, 3757.286
692.8195, 3729.396
693.3016, 3711.651
693.7838, 3708.807
694.2659, 3705.620
694.7480, 3700.523
695.2301, 3693.055
695.7122, 3680.085
696.1943, 3664.031
696.6765, 3654.058
697.1586, 3656.680
697.6407, 3659.440
698.1228, 3652.063
698.6049, 3643.182
699.0870, 3647.840
699.5692, 3663.386
700.0513, 3671.610
700.5334, 3660.905
701.0155, 3638.439
701.4976, 3615.679
701.9797, 3591.946
702.4619, 3583.131
702.9440, 3596.790
703.4261, 3609.509
703.9082, 3605.646
704.3903, 3592.131
704.8724, 3585.637
705.3546, 3587.834
705.8367, 3591.611
706.3188, 3600.535
706.8009, 3606.272
707.2830, 3598.823
707.7651, 3586.431
708.2473, 3585.521
708.7294, 3600.336
709.2115, 3614.014
709.6936, 3606.667
710.1757, 3586.996
710.6578, 3578.078
711.1400, 3579.554
711.6221, 3578.860
712.1042, 3570.638
712.5863, 3562.825
713.0684, 3566.852
713.5505, 3583.785
714.0327, 3589.588
714.5148, 3570.882
714.9969, 3559.291
715.4790, 3567.842
715.9611, 3578.870
716.4432, 3574.575
716.9254, 3558.310
717.4075, 3550.452
717.8896, 3564.809
718.3717, 3582.209
718.8538, 3589.245
719.3359, 3588.242
719.8181, 3579.375
720.3002, 3565.038
720.7823, 3557.736
721.2644, 3567.302
721.7465, 3583.402
722.2286, 3576.860
722.7108, 3541.728
723.1929, 3526.576
723.6750, 3543.388
724.1571, 3564.131
724.6392, 3576.882
725.1213, 3581.481
725.6035, 3577.162
726.0856, 3560.502
726.5677, 3546.973
727.0498, 3537.540
727.5319, 3533.795
728.0140, 3541.061
728.4962, 3552.979
728.9783, 3559.186
729.4604, 3557.197
729.9425, 3553.593
730.4246, 3555.131
730.9067, 3558.939
731.3889, 3555.440
731.8710, 3546.217
732.3531, 3549.505
732.8352, 3572.844
733.3173, 3594.918
733.7994, 3591.880
734.2816, 3566.386
734.7637, 3553.377
735.2458, 3555.157
735.7279, 3565.880
736.2100, 3601.538
736.6921, 3630.251
737.1743, 3621.045
737.6564, 3589.448
738.1385, 3580.458
738.6206, 3614.953
739.1027, 3651.711
739.5848, 3668.944
740.0670, 3675.161
740.5491, 3678.528
741.0312, 3680.023
741.5133, 3677.338
741.9954, 3669.340
742.4775, 3662.882
742.9597, 3671.442
743.4418, 3693.202
743.9239, 3698.862
744.4060, 3683.072
744.8881, 3680.020
745.3702, 3707.572
745.8524, 3747.119
746.3345, 3772.243
746.8166, 3780.310
747.2987, 3799.906
747.7808, 3839.106
748.2629, 3878.859
748.7451, 3918.212
749.2272, 3953.819
749.7093, 3978.006
750.1914, 3994.902
750.6735, 4020.911
751.1556, 4064.941
751.6378, 4118.345
752.1199, 4178.258
752.6020, 4240.134
753.0841, 4294.360
753.5662, 4340.473
754.0483, 4382.658
754.5305, 4422.403
755.0126, 4464.741
755.4947, 4519.695
755.9768, 4587.840
756.4589, 4664.572
756.9410, 4753.072
757.4232, 4842.805
757.9053, 4933.375
758.3874, 5020.425
758.8695, 5092.889
759.3516, 5147.047
759.8337, 5222.667
760.3159, 5340.437
760.7980, 5459.423
761.2801, 5567.554
761.7622, 5666.938
762.2443, 5759.521
762.7264, 5846.429
763.2086, 5930.279
763.6907, 6010.344
764.1728, 6091.804
764.6549, 6187.861
765.1370, 6289.064
765.6191, 6369.771
766.1013, 6427.786
766.5834, 6483.367
767.0655, 6549.709
767.5476, 6617.564
768.0297, 6664.324
768.5118, 6684.889
768.9940, 6715.165
769.4761, 6761.313
769.9582, 6804.751
770.4403, 6837.219
770.9224, 6862.688
771.4045, 6888.927
771.8867, 6916.971
772.3688, 6932.591
772.8509, 6922.335
773.3330, 6913.354
773.8151, 6923.024
774.2972, 6934.645
774.7794, 6929.795
775.2615, 6908.195
775.7436, 6880.896
776.2257, 6852.245
776.7078, 6824.005
777.1899, 6798.238
777.6721, 6774.371
778.1542, 6748.815
778.6363, 6722.489
779.1184, 6705.627
779.6005, 6704.857
780.0826, 6711.038
780.5648, 6705.439
781.0469, 6685.786
781.5290, 6678.752
782.0111, 6689.873
782.4932, 6698.791
782.9753, 6696.693
783.4575, 6689.719
783.9396, 6684.202
784.4217, 6680.024
784.9038, 6681.258
785.3859, 6692.318
785.8680, 6703.339
786.3502, 6715.817
786.8323, 6723.902
787.3144, 6719.856
787.7965, 6706.823
788.2786, 6696.916
788.7607, 6697.557
789.2429, 6694.761
789.7250, 6670.257
790.2071, 6637.898
790.6892, 6621.820
791.1713, 6619.857
791.6534, 6614.060
792.1356, 6596.604
792.6177, 6574.778
793.0998, 6557.065
793.5819, 6543.647
794.0640, 6537.813
794.5461, 6541.118
795.0283, 6541.431
795.5104, 6533.326
795.9925, 6524.940
796.4746, 6521.815
796.9567, 6524.766
797.4388, 6542.542
797.9210, 6590.415
798.4031, 6631.235
798.8852, 6650.893
799.3673, 6675.496
799.8494, 6718.512
800.3315, 6777.658
800.8137, 6847.896
801.2958, 6928.149
801.7779, 7016.979
802.2600, 7111.059
802.7421, 7215.839
803.2242, 7335.767
803.7064, 7470.180
804.1885, 7616.171
804.6706, 7773.887
805.1527, 7952.469
805.6348, 8165.227
806.1169, 8396.290
806.5991, 8599.975
807.0812, 8785.378
807.5633, 9019.483
808.0454, 9315.766
808.5275, 9636.814
809.0096, 9961.803
809.4918, 10289.73
809.9739, 10607.74
810.4560, 10902.31
810.9381, 11241.60
811.4202, 11641.30
811.9023, 12062.84
812.3845, 12511.52
812.8666, 12960.32
813.3487, 13370.89
813.8308, 13742.46
814.3129, 14119.60
814.7950, 14515.79
815.2772, 14907.69
815.7593, 15297.80
816.2414, 15671.41
816.7235, 16024.98
817.2056, 16350.98
817.6877, 16635.04
818.1699, 16870.02
818.6520, 17068.50
819.1341, 17251.55
819.6162, 17402.03
820.0983, 17499.09
820.5804, 17539.36
821.0626, 17510.96
821.5447, 17410.92
822.0268, 17268.27
822.5089, 17114.81
822.9910, 16944.47
823.4731, 16731.25
823.9553, 16473.16
824.4374, 16179.51
824.9195, 15851.86
825.4016, 15486.46
825.8837, 15070.91
826.3658, 14622.39
826.8480, 14204.91
827.3301, 13832.35
827.8122, 13459.04
828.2943, 13090.03
828.7764, 12713.95
829.2585, 12318.33
829.7407, 11918.19
830.2228, 11525.38
830.7049, 11140.58
831.1870, 10794.32
831.6691, 10512.67
832.1512, 10247.96
832.6334, 9983.273
833.1155, 9721.477
833.5976, 9460.338
834.0797, 9203.518
834.5618, 8961.739
835.0439, 8739.616
835.5261, 8533.674
836.0082, 8339.048
836.4903, 8158.258
836.9724, 8002.238
837.4545, 7863.963
837.9366, 7711.089
838.4188, 7534.931
838.9009, 7375.241
839.3830, 7281.473
839.8651, 7232.649
840.3472, 7146.505
840.8293, 7022.129
841.3115, 6907.347
841.7936, 6810.403
842.2757, 6724.176
842.7578, 6644.298
843.2399, 6570.395
843.7220, 6501.021
844.2042, 6437.344
844.6863, 6373.782
845.1684, 6307.563
845.6505, 6245.690
846.1326, 6191.628
846.6147, 6141.992
847.0969, 6097.204
847.5790, 6055.960
848.0611, 6003.968
848.5432, 5921.245
849.0253, 5851.639
849.5074, 5818.786
849.9896, 5792.908
850.4717, 5750.523
850.9538, 5696.313
851.4359, 5643.672
851.9180, 5596.032
852.4001, 5556.548
852.8823, 5537.819
853.3644, 5518.882
853.8465, 5468.102
854.3286, 5402.443
854.8107, 5364.374
855.2928, 5356.625
855.7750, 5336.745
856.2571, 5270.767
856.7392, 5183.908
857.2213, 5116.466
857.7034, 5066.914
858.1855, 5031.109
858.6677, 5008.112
859.1498, 4986.169
859.6319, 4960.213
860.1140, 4929.016
860.5961, 4887.977
861.0782, 4838.222
861.5604, 4809.619
862.0425, 4813.168
862.5246, 4792.440
863.0067, 4724.222
863.4888, 4649.115
863.9709, 4597.392
864.4531, 4564.211
864.9352, 4532.633
865.4173, 4497.746
865.8994, 4474.665
866.3815, 4467.737
866.8636, 4466.753
867.3458, 4481.299
867.8279, 4491.625
868.3100, 4475.217
868.7921, 4431.448
869.2742, 4375.839
869.7563, 4281.359
870.2385, 4216.237
870.7206, 4235.148
871.2027, 4271.084
871.6848, 4264.565
872.1669, 4224.965
872.6490, 4185.163
873.1312, 4155.770
873.6133, 4133.051
874.0954, 4117.884
874.5775, 4104.831
875.0596, 4089.082
875.5417, 4070.134
876.0239, 4045.680
876.5060, 4016.632
876.9881, 3988.923
877.4702, 3965.846
877.9523, 3949.241
878.4344, 3947.083
878.9166, 3954.052
879.3987, 3948.195
879.8808, 3929.211
880.3629, 3912.294
880.8450, 3903.678
881.3271, 3899.498
881.8093, 3897.207
882.2914, 3894.546
882.7735, 3872.938
883.2556, 3827.967
883.7377, 3799.503
884.2198, 3798.698
884.7020, 3799.456
885.1841, 3783.106
885.6662, 3759.852
886.1483, 3753.350
886.6304, 3769.733
887.1125, 3775.036
887.5947, 3763.053
888.0768, 3749.951
888.5589, 3740.269
889.0410, 3730.816
889.5231, 3717.946
890.0052, 3702.734
890.4874, 3690.431
890.9695, 3688.958
891.4516, 3676.789
891.9337, 3640.712
892.4158, 3604.364
892.8979, 3580.500
893.3801, 3563.641
893.8622, 3546.188
894.3443, 3527.003
894.8264, 3508.198
895.3085, 3488.365
895.7906, 3471.975
896.2728, 3464.156
896.7549, 3458.796
897.2370, 3450.719
897.7191, 3439.318
898.2012, 3422.471
898.6833, 3399.318
899.1655, 3383.747
899.6476, 3397.540
900.1297, 3416.655
900.6118, 3408.843
901.0939, 3383.949
901.5760, 3363.051
902.0582, 3349.749
902.5403, 3336.032
903.0224, 3315.990
903.5045, 3299.345
903.9866, 3308.154
904.4688, 3330.932
904.9509, 3326.703
905.4330, 3298.051
905.9151, 3277.542
906.3972, 3275.802
906.8793, 3283.610
907.3615, 3293.767
907.8436, 3303.922
908.3257, 3304.991
908.8078, 3296.889
909.2899, 3293.390
909.7720, 3296.962
910.2542, 3296.139
910.7363, 3283.716
911.2184, 3269.103
911.7005, 3265.286
912.1826, 3272.283
912.6647, 3290.876
913.1469, 3332.294
913.6290, 3347.834
914.1111, 3317.144
914.5932, 3281.382
915.0753, 3264.883
915.5574, 3263.542
916.0396, 3267.637
916.5217, 3275.761
917.0038, 3295.294
917.4859, 3349.621
917.9680, 3382.134
918.4501, 3361.742
918.9323, 3330.440
919.4144, 3315.777
919.8965, 3317.555
920.3786, 3334.709
920.8607, 3380.663
921.3428, 3411.922
921.8250, 3412.831
922.3071, 3408.707
922.7892, 3413.370
923.2713, 3418.011
923.7534, 3405.795
924.2355, 3380.011
924.7177, 3371.456
925.1998, 3407.144
925.6819, 3432.030
926.1640, 3413.036
926.6461, 3384.467
927.1282, 3372.499
927.6104, 3371.345
928.0925, 3365.660
928.5746, 3352.976
929.0567, 3347.094
929.5388, 3366.516
930.0209, 3383.019
930.5031, 3369.955
930.9852, 3345.590
931.4673, 3329.107
931.9494, 3322.788
932.4315, 3328.864
932.9136, 3347.609
933.3958, 3357.600
933.8779, 3330.820
934.3600, 3292.655
934.8421, 3271.923
935.3242, 3266.411
935.8063, 3276.980
936.2885, 3299.028
936.7706, 3316.512
937.2527, 3320.981
937.7348, 3316.231
938.2169, 3304.906
938.6990, 3288.579
939.1812, 3266.436
939.6633, 3242.262
940.1454, 3232.904
940.6275, 3240.689
941.1096, 3248.904
941.5917, 3245.348
942.0739, 3237.686
942.5560, 3244.686
943.0381, 3260.673
943.5202, 3251.026
944.0023, 3216.788
944.4844, 3189.676
944.9666, 3179.431
945.4487, 3179.995
945.9308, 3187.410
946.4129, 3198.190
946.8950, 3200.800
947.3771, 3195.325
947.8593, 3199.132
948.3414, 3214.323
948.8235, 3227.174
949.3056, 3232.439
949.7877, 3233.063
950.2698, 3231.877
950.7520, 3229.160
951.2341, 3224.157
951.7162, 3214.141
952.1983, 3223.035
952.6804, 3260.400
953.1625, 3288.531
953.6447, 3288.252
954.1268, 3273.175
954.6089, 3259.628
955.0910, 3247.991
955.5731, 3245.891
956.0552, 3256.965
956.5374, 3265.608
957.0195, 3265.596
957.5016, 3273.427
957.9837, 3306.189
958.4658, 3342.938
958.9479, 3346.371
959.4301, 3313.095
959.9122, 3295.743
960.3943, 3305.437
960.8764, 3308.469
961.3585, 3294.011
961.8406, 3279.966
962.3228, 3277.712
962.8049, 3282.974
963.2870, 3287.795
963.7691, 3292.286
964.2512, 3295.708
964.7333, 3294.703
965.2155, 3297.522
965.6976, 3311.101
966.1797, 3323.532
966.6618, 3326.224
967.1439, 3322.439
967.6260, 3318.209
968.1082, 3311.100
968.5903, 3313.993
969.0724, 3339.331
969.5545, 3358.908
970.0366, 3367.056
970.5187, 3365.678
971.0009, 3349.129
971.4830, 3325.266
971.9651, 3315.113
972.4472, 3324.761
972.9293, 3333.120
973.4114, 3333.509
973.8936, 3337.057
974.3757, 3350.743
974.8578, 3366.646
975.3399, 3380.406
975.8220, 3390.227
976.3041, 3390.364
976.7863, 3374.613
977.2684, 3367.014
977.7505, 3377.990
978.2326, 3392.039
978.7147, 3404.024
979.1968, 3414.562
979.6790, 3419.159
980.1611, 3423.018
980.6432, 3446.247
981.1253, 3505.087
981.6074, 3545.548
982.0895, 3537.947
982.5717, 3524.066
983.0538, 3517.212
983.5359, 3521.191
984.0180, 3542.063
984.5001, 3576.605
984.9822, 3612.638
985.4644, 3647.385
985.9465, 3682.310
986.4286, 3727.685
986.9107, 3762.655
987.3928, 3777.057
987.8749, 3772.983
988.3571, 3748.618
988.8392, 3708.099
989.3213, 3663.812
989.8034, 3614.680
990.2855, 3576.460
990.7676, 3568.149
991.2498, 3559.365
991.7319, 3519.230
992.2140, 3474.876
992.6961, 3462.138
993.1782, 3479.129
993.6603, 3499.362
994.1425, 3518.458
994.6246, 3526.968
995.1067, 3511.772
995.5888, 3494.102
996.0709, 3485.662
996.5530, 3485.121
997.0352, 3489.885
997.5173, 3499.749
997.9994, 3517.243
998.4815, 3548.439
998.9636, 3571.448
999.4457, 3571.012
999.9279, 3564.509
1000.410, 3560.063
1000.892, 3559.306
1001.374, 3564.315
1001.856, 3574.215
1002.338, 3585.753
1002.821, 3600.134
1003.303, 3608.739
1003.785, 3599.972
1004.267, 3592.270
1004.749, 3600.146
1005.231, 3615.406
1005.713, 3628.270
1006.195, 3637.653
1006.677, 3646.031
1007.160, 3654.026
1007.642, 3661.527
1008.124, 3674.380
1008.606, 3680.212
1009.088, 3661.571
1009.570, 3637.635
1010.052, 3631.105
1010.534, 3641.785
1011.017, 3659.805
1011.499, 3687.710
1011.981, 3702.124
1012.463, 3673.303
1012.945, 3650.546
1013.427, 3675.062
1013.909, 3713.832
1014.391, 3729.866
1014.873, 3724.385
1015.356, 3715.293
1015.838, 3704.587
1016.320, 3703.070
1016.802, 3721.146
1017.284, 3742.144
1017.766, 3756.520
1018.248, 3769.620
1018.730, 3790.981
1019.213, 3815.904
1019.695, 3829.218
1020.177, 3825.931
1020.659, 3818.694
1021.141, 3805.361
1021.623, 3796.738
1022.105, 3792.202
1022.587, 3799.324
1023.069, 3835.089
1023.552, 3886.145
1024.034, 3920.325
1024.516, 3931.218
1024.998, 3928.159
1025.480, 3888.178
1025.962, 3867.826
1026.444, 3907.425
1026.926, 3957.289
1027.409, 3978.173
1027.891, 3977.990
1028.373, 3977.705
1028.855, 3979.677
1029.337, 3984.276
1029.819, 3990.423
1030.301, 4000.776
1030.783, 4022.866
1031.266, 4042.606
1031.748, 4042.274
1032.230, 4036.344
1032.712, 4055.072
1033.194, 4103.278
1033.676, 4136.632
1034.158, 4142.223
1034.640, 4144.921
1035.122, 4140.888
1035.604, 4143.455
1036.087, 4167.227
1036.569, 4198.296
1037.051, 4213.154
1037.533, 4210.814
1038.015, 4220.158
1038.497, 4254.712
1038.979, 4279.206
1039.461, 4280.354
1039.944, 4286.195
1040.426, 4316.653
1040.908, 4351.070
1041.390, 4357.548
1041.872, 4341.017
1042.354, 4359.678
1042.836, 4446.566
1043.318, 4494.462
1043.800, 4483.499
1044.283, 4462.423
1044.765, 4438.929
1045.247, 4427.238
1045.729, 4446.265
1046.211, 4488.234
1046.693, 4516.939
1047.175, 4528.967
1047.657, 4539.918
1048.140, 4550.147
1048.622, 4557.683
1049.104, 4559.268
1049.586, 4565.712
1050.068, 4589.372
1050.550, 4620.245
1051.032, 4628.219
1051.514, 4609.239
1051.996, 4608.144
1052.479, 4626.730
1052.961, 4654.615
1053.443, 4692.234
1053.925, 4722.908
1054.407, 4735.020
1054.889, 4735.514
1055.371, 4735.265
1055.853, 4735.011
1056.335, 4742.276
1056.818, 4757.141
1057.300, 4788.771
1057.782, 4839.033
1058.264, 4877.532
1058.746, 4887.638
1059.228, 4886.441
1059.710, 4896.545
1060.192, 4913.250
1060.675, 4914.863
1061.157, 4907.282
1061.639, 4927.117
1062.121, 4975.028
1062.603, 5022.952
1063.085, 5059.576
1063.567, 5084.477
1064.049, 5094.358
1064.531, 5097.397
1065.014, 5106.833
1065.496, 5121.669
1065.978, 5139.076
1066.460, 5159.559
1066.942, 5188.606
1067.424, 5225.693
1067.906, 5255.886
1068.388, 5266.054
1068.870, 5276.097
1069.353, 5315.502
1069.835, 5363.348
1070.317, 5389.943
1070.799, 5402.337
1071.281, 5414.891
1071.763, 5431.240
1072.245, 5451.855
1072.727, 5477.259
1073.210, 5505.538
1073.692, 5542.653
1074.174, 5574.407
1074.656, 5582.970
1075.138, 5583.769
1075.620, 5597.701
1076.102, 5620.649
1076.584, 5630.479
1077.067, 5620.272
1077.549, 5633.771
1078.031, 5717.844
1078.513, 5792.813
1078.995, 5819.089
1079.477, 5825.872
1079.959, 5823.625
1080.441, 5824.045
1080.923, 5847.199
1081.406, 5893.588
1081.888, 5930.637
1082.370, 5937.384
1082.852, 5957.942
1083.334, 6013.088
1083.816, 6066.301
1084.298, 6098.903
1084.780, 6122.927
1085.262, 6154.742
1085.745, 6189.923
1086.227, 6205.338
1086.709, 6190.852
1087.191, 6182.413
1087.673, 6172.780
1088.155, 6186.445
1088.637, 6244.925
1089.119, 6298.911
1089.602, 6306.041
1090.084, 6292.057
1090.566, 6315.261
1091.048, 6377.444
1091.530, 6422.974
1092.012, 6448.891
1092.494, 6477.977
1092.976, 6516.583
1093.458, 6535.983
1093.941, 6517.293
1094.423, 6498.131
1094.905, 6529.946
1095.387, 6596.264
1095.869, 6634.377
1096.351, 6648.687
1096.833, 6671.810
1097.315, 6706.187
1097.797, 6747.459
1098.280, 6793.672
1098.762, 6839.969
1099.244, 6882.525
1099.726, 6922.014
1100.208, 6958.292
1100.690, 6992.882
1101.172, 7029.023
1101.654, 7066.126
1102.137, 7105.430
1102.619, 7144.177
1103.101, 7171.102
1103.583, 7180.116
1104.065, 7186.922
1104.547, 7195.897
1105.029, 7217.520
1105.511, 7268.263
1105.994, 7332.148
1106.476, 7396.893
1106.958, 7456.177
1107.440, 7497.830
1107.922, 7520.863
1108.404, 7548.393
1108.886, 7591.050
1109.368, 7638.127
1109.850, 7694.104
1110.333, 7743.567
1110.815, 7772.608
1111.297, 7792.609
1111.779, 7812.692
1112.261, 7835.980
1112.743, 7874.647
1113.225, 7942.634
1113.707, 7992.863
1114.189, 7992.136
1114.672, 8025.173
1115.154, 8138.558
1115.636, 8251.499
1116.118, 8304.139
1116.600, 8327.313
1117.082, 8381.805
1117.564, 8467.962
1118.046, 8520.906
1118.529, 8532.896
1119.011, 8552.239
1119.493, 8582.067
1119.975, 8641.671
1120.457, 8744.394
1120.939, 8843.111
1121.421, 8885.846
1121.903, 8896.007
1122.385, 8931.086
1122.868, 8987.731
1123.350, 9057.524
1123.832, 9133.944
1124.314, 9178.822
1124.796, 9190.000
1125.278, 9222.506
1125.760, 9308.250
1126.242, 9412.374
1126.724, 9502.078
1127.207, 9580.205
1127.689, 9649.029
1128.171, 9709.932
1128.653, 9758.350
1129.135, 9802.661
1129.617, 9866.101
1130.099, 9952.455
1130.581, 10031.93
1131.064, 10078.12
1131.546, 10135.15
1132.028, 10235.96
1132.510, 10344.80
1132.992, 10445.51
1133.474, 10534.72
1133.956, 10599.63
1134.438, 10650.62
1134.921, 10733.51
1135.403, 10876.81
1135.885, 10972.10
1136.367, 10951.66
1136.849, 10970.56
1137.331, 11071.92
1137.813, 11194.15
1138.295, 11309.47
1138.777, 11418.30
1139.260, 11522.68
1139.742, 11621.39
1140.224, 11700.97
1140.706, 11755.45
1141.188, 11847.26
1141.670, 11985.58
1142.152, 12101.44
1142.634, 12171.10
1143.116, 12235.67
1143.599, 12327.00
1144.081, 12432.27
1144.563, 12533.05
1145.045, 12628.50
1145.527, 12705.38
1146.009, 12776.05
1146.491, 12887.01
1146.973, 13032.85
1147.456, 13164.91
1147.938, 13265.54
1148.420, 13364.96
1148.902, 13484.34
1149.384, 13613.54
1149.866, 13753.16
1150.348, 13887.47
1150.830, 14002.34
1151.313, 14099.74
1151.795, 14168.39
1152.277, 14223.63
1152.759, 14328.30
1153.241, 14509.17
1153.723, 14691.81
1154.205, 14884.73
1154.687, 15043.89
1155.169, 15120.99
1155.651, 15199.18
1156.134, 15328.47
1156.616, 15490.64
1157.098, 15667.29
1157.580, 15854.40
1158.062, 15998.76
1158.544, 16083.70
1159.026, 16204.47
1159.508, 16370.63
1159.991, 16537.49
1160.473, 16691.00
1160.955, 16851.52
1161.437, 17037.05
1161.919, 17231.11
1162.401, 17416.42
1162.883, 17585.74
1163.365, 17692.40
1163.848, 17767.25
1164.330, 17910.52
1164.812, 18121.03
1165.294, 18347.33
1165.776, 18570.76
1166.258, 18785.68
1166.740, 18986.01
1167.222, 19183.38
1167.704, 19396.88
1168.187, 19601.88
1168.669, 19748.26
1169.151, 19892.09
1169.633, 20117.86
1170.115, 20402.88
1170.597, 20662.34
1171.079, 20878.77
1171.561, 21094.87
1172.043, 21312.21
1172.526, 21540.15
1173.008, 21795.14
1173.490, 22039.48
1173.972, 22245.60
1174.454, 22448.72
1174.936, 22685.03
1175.418, 22948.53
1175.900, 23214.62
1176.383, 23482.22
1176.865, 23773.92
1177.347, 24091.70
1177.829, 24386.56
1178.311, 24650.20
1178.793, 24901.13
1179.275, 25148.84
1179.757, 25393.17
1180.240, 25617.65
1180.722, 25863.53
1181.204, 26227.52
1181.686, 26637.93
1182.168, 26961.81
1182.650, 27230.12
1183.132, 27518.03
1183.614, 27837.62
1184.096, 28173.79
1184.578, 28525.37
1185.061, 28852.92
1185.543, 29097.64
1186.025, 29369.73
1186.507, 29732.72
1186.989, 30122.78
1187.471, 30503.89
1187.953, 30879.76
1188.435, 31264.33
1188.918, 31655.13
1189.400, 32020.33
1189.882, 32349.19
1190.364, 32695.74
1190.846, 33064.57
1191.328, 33430.11
1191.810, 33781.07
1192.292, 34162.36
1192.775, 34601.11
1193.257, 35056.72
1193.739, 35478.32
1194.221, 35883.46
1194.703, 36331.48
1195.185, 36797.17
1195.667, 37208.58
1196.149, 37579.71
1196.631, 37954.50
1197.114, 38347.23
1197.596, 38770.83
1198.078, 39233.79
1198.560, 39697.96
1199.042, 40113.61
1199.524, 40557.45
1200.006, 41125.62
1200.488, 41687.93
1200.970, 42122.66
1201.453, 42497.93
1201.935, 42915.50
1202.417, 43376.06
1202.899, 43848.21
1203.381, 44345.20
1203.863, 44797.96
1204.345, 45176.13
1204.827, 45619.95
1205.310, 46181.68
1205.792, 46699.25
1206.274, 47074.63
1206.756, 47431.13
1207.238, 47927.07
1207.720, 48493.06
1208.202, 48944.26
1208.684, 49325.52
1209.167, 49764.18
1209.649, 50245.68
1210.131, 50696.78
1210.613, 51112.25
1211.095, 51519.96
1211.577, 51932.23
1212.059, 52371.25
1212.541, 52886.05
1213.023, 53387.15
1213.505, 53830.36
1213.988, 54240.42
1214.470, 54583.80
1214.952, 54939.25
1215.434, 55442.35
1215.916, 56035.00
1216.398, 56496.29
1216.880, 56805.11
1217.362, 57099.69
1217.845, 57360.73
1218.327, 57705.75
1218.809, 58167.69
1219.291, 58596.61
1219.773, 58930.43
1220.255, 59237.08
1220.737, 59580.22
1221.219, 59934.70
1221.702, 60267.76
1222.184, 60570.55
1222.666, 60775.65
1223.148, 60960.37
1223.630, 61336.43
1224.112, 61828.10
1224.594, 62134.51
1225.076, 62197.52
1225.558, 62332.43
1226.041, 62738.59
1226.523, 63103.61
1227.005, 63293.16
1227.487, 63458.52
1227.969, 63675.38
1228.451, 63884.29
1228.933, 64027.83
1229.415, 64147.89
1229.897, 64316.69
1230.380, 64531.51
1230.862, 64760.39
1231.344, 65006.29
1231.826, 65190.36
1232.308, 65308.61
1232.790, 65368.34
1233.272, 65380.26
1233.754, 65446.93
1234.237, 65628.87
1234.719, 65829.39
1235.201, 65935.66
1235.683, 66023.29
1236.165, 66208.50
1236.647, 66392.90
1237.129, 66440.70
1237.611, 66422.41
1238.094, 66454.97
1238.576, 66540.14
1239.058, 66618.19
1239.540, 66677.46
1240.022, 66739.84
1240.504, 66848.05
1240.986, 66866.98
1241.468, 66727.34
1241.950, 66638.13
1242.432, 66694.49
1242.915, 66799.63
1243.397, 66871.61
1243.879, 66910.67
##END=



