##NAMES=Heidornite
##RRUFFID=R141086
##IDEAL CHEMISTRY=Na_2_Ca_3_B_5_O_8_(S^6+^O_4_)_2_(OH)_2_Cl
##LOCALITY=Bahrenborstel, Hannover, Germany
##OWNER=RRUFF
##SOURCE=Rock Currier
##DESCRIPTION=Colorless massive in anhydrite
##STATUS=The identification of this mineral has been confirmed only by single crystal X-ray diffraction.
##URL=rruff.info/R141086
125.9420, 174.0579
126.4241, 180.6402
126.9062, 188.3109
127.3883, 196.7896
127.8704, 206.4858
128.3525, 216.3387
128.8347, 225.2293
129.3168, 233.1425
129.7989, 239.2678
130.2810, 242.3338
130.7631, 242.8975
131.2452, 243.3324
131.7274, 244.1480
132.2095, 245.2617
132.6916, 246.6123
133.1737, 248.2789
133.6558, 249.6996
134.1379, 251.0797
134.6201, 252.3843
135.1022, 251.0251
135.5843, 245.5417
136.0664, 236.4838
136.5485, 227.8297
137.0306, 219.2861
137.5128, 211.7685
137.9949, 206.0453
138.4770, 202.0949
138.9591, 200.0503
139.4412, 200.3495
139.9233, 203.1760
140.4055, 205.7440
140.8876, 207.9445
141.3697, 210.0008
141.8518, 212.4494
142.3339, 215.7348
142.8160, 218.3932
143.2982, 219.9702
143.7803, 220.5105
144.2624, 219.7369
144.7445, 217.4119
145.2266, 213.8281
145.7087, 209.6861
146.1909, 204.1882
146.6730, 199.0637
147.1551, 194.9315
147.6372, 192.0437
148.1193, 189.7944
148.6014, 188.1242
149.0836, 187.0832
149.5657, 186.8131
150.0478, 188.0337
150.5299, 189.4500
151.0120, 190.5077
151.4941, 191.3405
151.9763, 191.6484
152.4584, 191.3247
152.9405, 190.4282
153.4226, 189.2735
153.9047, 187.0727
154.3868, 185.1427
154.8690, 184.2003
155.3511, 185.0030
155.8332, 186.0733
156.3153, 187.1862
156.7974, 188.3614
157.2795, 189.7812
157.7617, 191.1813
158.2438, 193.0025
158.7259, 195.5633
159.2080, 199.3694
159.6901, 203.5149
160.1722, 207.8091
160.6544, 212.2436
161.1365, 216.7458
161.6186, 221.5695
162.1007, 226.3039
162.5828, 230.6863
163.0649, 234.9500
163.5471, 238.5177
164.0292, 240.8551
164.5113, 241.9433
164.9934, 242.9562
165.4755, 244.2750
165.9576, 245.9077
166.4398, 247.8423
166.9219, 250.0952
167.4040, 252.6564
167.8861, 255.5035
168.3682, 258.6481
168.8503, 262.0459
169.3325, 265.3590
169.8146, 268.9582
170.2967, 273.3806
170.7788, 278.8293
171.2609, 285.2900
171.7430, 292.5083
172.2252, 300.4297
172.7073, 309.7374
173.1894, 321.5411
173.6715, 335.2944
174.1536, 349.3083
174.6357, 363.6752
175.1179, 377.7479
175.6000, 391.5455
176.0821, 405.3951
176.5642, 416.4171
177.0463, 423.1439
177.5284, 425.0101
178.0106, 420.2562
178.4927, 405.7947
178.9748, 384.5826
179.4569, 361.1488
179.9390, 335.1564
180.4211, 309.0782
180.9033, 284.7806
181.3854, 262.2588
181.8675, 242.1136
182.3496, 224.6619
182.8317, 209.8062
183.3138, 196.4493
183.7960, 184.6454
184.2781, 174.2419
184.7602, 165.2808
185.2423, 157.6799
185.7244, 151.4643
186.2065, 147.0721
186.6887, 144.1294
187.1708, 141.0955
187.6529, 137.7073
188.1350, 134.3867
188.6171, 131.9237
189.0992, 130.2884
189.5814, 129.1455
190.0635, 128.2469
190.5456, 127.6233
191.0277, 127.6150
191.5098, 128.3786
191.9919, 129.5814
192.4741, 130.4336
192.9562, 130.9030
193.4383, 131.6316
193.9204, 133.2446
194.4025, 135.6771
194.8846, 137.8169
195.3668, 139.5287
195.8489, 140.8843
196.3310, 142.1171
196.8131, 143.2638
197.2952, 144.0023
197.7773, 144.0959
198.2595, 143.5338
198.7416, 142.5858
199.2237, 141.2846
199.7058, 139.6295
200.1879, 137.6401
200.6700, 135.3018
201.1522, 132.6097
201.6343, 129.3670
202.1164, 125.4805
202.5985, 121.9917
203.0806, 119.0728
203.5627, 116.6364
204.0449, 114.4768
204.5270, 112.6116
205.0091, 110.9631
205.4912, 109.5248
205.9733, 108.3334
206.4554, 107.0840
206.9376, 105.5901
207.4197, 104.0606
207.9018, 103.3683
208.3839, 103.7944
208.8660, 104.3436
209.3481, 104.1634
209.8303, 102.9354
210.3124, 102.4759
210.7945, 103.2614
211.2766, 104.9183
211.7587, 105.8844
212.2408, 105.9183
212.7230, 105.7722
213.2051, 105.8813
213.6872, 106.2107
214.1693, 106.9476
214.6514, 108.2243
215.1335, 109.9221
215.6157, 111.4226
216.0978, 112.6607
216.5799, 113.8380
217.0620, 115.0649
217.5441, 116.2911
218.0262, 117.7380
218.5084, 119.5146
218.9905, 121.5546
219.4726, 123.4455
219.9547, 125.2463
220.4368, 126.8538
220.9189, 128.1915
221.4011, 129.2731
221.8832, 130.0989
222.3653, 130.7394
222.8474, 131.1325
223.3295, 130.9569
223.8116, 129.9935
224.2938, 128.8199
224.7759, 127.7674
225.2580, 126.8810
225.7401, 126.0100
226.2222, 125.0529
226.7043, 124.0993
227.1865, 123.4846
227.6686, 123.2372
228.1507, 123.3007
228.6328, 123.6479
229.1149, 124.2719
229.5970, 125.2027
230.0792, 126.5218
230.5613, 128.1514
231.0434, 129.7086
231.5255, 130.9816
232.0076, 132.4658
232.4897, 134.4834
232.9719, 137.4277
233.4540, 140.0288
233.9361, 142.2925
234.4182, 144.1898
234.9003, 145.6802
235.3824, 146.8839
235.8646, 147.5100
236.3467, 147.3632
236.8288, 146.1560
237.3109, 144.8269
237.7930, 143.5492
238.2751, 142.1325
238.7573, 139.9648
239.2394, 136.5183
239.7215, 133.0704
240.2036, 130.1589
240.6857, 127.9227
241.1678, 125.9020
241.6500, 124.0513
242.1321, 122.4327
242.6142, 121.1799
243.0963, 120.3270
243.5784, 119.8066
244.0605, 119.6213
244.5427, 119.8658
245.0248, 120.1940
245.5069, 120.5672
245.9890, 121.0435
246.4711, 121.7394
246.9532, 122.6825
247.4354, 123.8130
247.9175, 125.1087
248.3996, 126.6012
248.8817, 128.1646
249.3638, 129.7001
249.8459, 131.3649
250.3281, 133.4638
250.8102, 136.1300
251.2923, 139.0147
251.7744, 142.0642
252.2565, 145.2912
252.7386, 148.5258
253.2208, 151.8250
253.7029, 155.0885
254.1850, 158.2174
254.6671, 161.1976
255.1492, 164.0911
255.6313, 167.0088
256.1135, 170.0566
256.5956, 172.3477
257.0777, 173.8156
257.5598, 174.5591
258.0419, 174.6622
258.5240, 174.0365
259.0062, 172.9478
259.4883, 171.3135
259.9704, 169.1069
260.4525, 167.2051
260.9346, 165.7076
261.4167, 164.4202
261.8989, 163.1238
262.3810, 161.7958
262.8631, 160.5455
263.3452, 159.3528
263.8273, 158.2092
264.3094, 157.4687
264.7916, 157.1118
265.2737, 157.1702
265.7558, 157.7119
266.2379, 158.8141
266.7200, 160.1664
267.2021, 161.8282
267.6843, 163.7389
268.1664, 165.2815
268.6485, 166.2386
269.1306, 167.2695
269.6127, 168.9106
270.0948, 171.2099
270.5770, 173.8367
271.0591, 176.6368
271.5412, 179.6975
272.0233, 183.5752
272.5054, 188.2597
272.9875, 193.6236
273.4697, 199.4781
273.9518, 205.8149
274.4339, 213.0921
274.9160, 221.4698
275.3981, 230.7232
275.8802, 240.4234
276.3624, 250.4276
276.8445, 260.8864
277.3266, 272.0240
277.8087, 283.8974
278.2908, 295.8167
278.7729, 308.0855
279.2551, 319.9526
279.7372, 329.6466
280.2193, 337.2274
280.7014, 342.3793
281.1835, 345.6012
281.6656, 346.8539
282.1478, 343.0174
282.6299, 333.3484
283.1120, 319.7958
283.5941, 305.0066
284.0762, 288.8653
284.5583, 272.5299
285.0405, 256.0104
285.5226, 239.4368
286.0047, 223.9148
286.4868, 209.3819
286.9689, 196.1303
287.4510, 184.6498
287.9332, 174.9129
288.4153, 166.2977
288.8974, 158.8677
289.3795, 152.4632
289.8616, 146.8768
290.3438, 142.1559
290.8259, 137.9243
291.3080, 133.7484
291.7901, 129.7060
292.2722, 126.0277
292.7543, 122.8863
293.2365, 120.1538
293.7186, 117.5896
294.2007, 115.2159
294.6828, 112.9868
295.1649, 110.7871
295.6470, 108.7022
296.1292, 106.9561
296.6113, 105.7045
297.0934, 104.7427
297.5755, 103.7754
298.0576, 102.7994
298.5397, 101.8270
299.0219, 100.7858
299.5040, 99.74817
299.9861, 98.87280
300.4682, 98.17672
300.9503, 97.68234
301.4324, 97.59105
301.9146, 97.79062
302.3967, 97.80283
302.8788, 97.15672
303.3609, 96.19347
303.8430, 95.36270
304.3251, 94.68987
304.8073, 94.28747
305.2894, 94.41680
305.7715, 94.90940
306.2536, 95.35926
306.7357, 95.60534
307.2178, 95.67461
307.7000, 95.53516
308.1821, 95.16241
308.6642, 94.78716
309.1463, 94.57121
309.6284, 94.46474
310.1105, 94.38851
310.5927, 94.16590
311.0748, 94.06593
311.5569, 94.39035
312.0390, 95.13873
312.5211, 95.79589
313.0032, 95.91969
313.4854, 95.86490
313.9675, 96.00679
314.4496, 96.54411
314.9317, 97.24062
315.4138, 98.07126
315.8959, 99.00540
316.3781, 99.87661
316.8602, 100.5879
317.3423, 101.2160
317.8244, 101.7933
318.3065, 102.1304
318.7886, 102.6982
319.2708, 103.7808
319.7529, 105.2277
320.2350, 106.6215
320.7171, 107.7027
321.1992, 108.7850
321.6813, 109.9674
322.1635, 111.1061
322.6456, 112.7014
323.1277, 115.3278
323.6098, 118.3952
324.0919, 120.9278
324.5740, 121.9900
325.0562, 123.1780
325.5383, 125.0363
326.0204, 127.7687
326.5025, 130.4390
326.9846, 132.7881
327.4667, 135.1239
327.9489, 137.8005
328.4310, 140.5867
328.9131, 143.9873
329.3952, 148.2367
329.8773, 153.3551
330.3594, 158.5357
330.8416, 163.4327
331.3237, 168.6268
331.8058, 174.5477
332.2879, 181.6799
332.7700, 188.7558
333.2521, 195.6889
333.7343, 202.5393
334.2164, 209.6686
334.6985, 217.2153
335.1806, 224.6969
335.6627, 231.9445
336.1448, 239.0366
336.6270, 245.4915
337.1091, 251.3699
337.5912, 256.4745
338.0733, 260.4566
338.5554, 263.2182
339.0375, 265.0536
339.5197, 265.8896
340.0018, 265.6652
340.4839, 265.2895
340.9660, 264.5046
341.4481, 264.1451
341.9302, 265.5267
342.4124, 268.7803
342.8945, 272.0843
343.3766, 274.6256
343.8587, 276.7939
344.3408, 280.4792
344.8229, 285.7061
345.3051, 292.2035
345.7872, 300.0482
346.2693, 309.0583
346.7514, 318.3084
347.2335, 327.4178
347.7156, 336.7978
348.1978, 347.4211
348.6799, 359.1766
349.1620, 370.6367
349.6441, 381.0164
350.1262, 390.3894
350.6083, 399.1334
351.0905, 407.6241
351.5726, 414.5984
352.0547, 418.9737
352.5368, 420.7250
353.0189, 419.7740
353.5010, 415.9198
353.9832, 409.4141
354.4653, 400.3186
354.9474, 388.5247
355.4295, 375.0467
355.9116, 359.8194
356.3937, 343.5001
356.8759, 327.2994
357.3580, 311.1531
357.8401, 295.5120
358.3222, 280.6888
358.8043, 266.5574
359.2864, 253.1844
359.7686, 240.2700
360.2507, 228.2240
360.7328, 217.5649
361.2149, 208.5408
361.6970, 200.5082
362.1791, 193.2645
362.6613, 186.8243
363.1434, 181.2223
363.6255, 176.6041
364.1076, 172.7178
364.5897, 169.4346
365.0718, 166.8102
365.5540, 164.7856
366.0361, 163.5049
366.5182, 162.7724
367.0003, 162.3535
367.4824, 162.2672
367.9645, 162.4486
368.4467, 163.1048
368.9288, 164.2674
369.4109, 164.8857
369.8930, 164.7855
370.3751, 164.2815
370.8572, 163.5940
371.3394, 162.9320
371.8215, 161.7583
372.3036, 160.0379
372.7857, 157.7743
373.2678, 154.9410
373.7499, 151.3802
374.2321, 147.4770
374.7142, 143.3606
375.1963, 138.8875
375.6784, 134.6888
376.1605, 130.8021
376.6426, 127.1709
377.1248, 123.8749
377.6069, 120.9124
378.0890, 118.0595
378.5711, 115.1779
379.0532, 112.3194
379.5353, 110.1453
380.0175, 108.7234
380.4996, 107.5485
380.9817, 106.0999
381.4638, 104.4333
381.9459, 102.9561
382.4280, 101.7756
382.9102, 100.8156
383.3923, 100.0014
383.8744, 99.31731
384.3565, 98.67969
384.8386, 97.96349
385.3207, 97.26633
385.8029, 96.86910
386.2850, 96.84096
386.7671, 96.86503
387.2492, 96.53543
387.7313, 96.00399
388.2134, 95.62344
388.6956, 95.77602
389.1777, 96.01128
389.6598, 95.92313
390.1419, 95.51555
390.6240, 94.97581
391.1061, 94.18812
391.5883, 93.42176
392.0704, 92.97192
392.5525, 93.12367
393.0346, 93.32568
393.5167, 93.32502
393.9988, 93.17845
394.4810, 93.04573
394.9631, 92.96313
395.4452, 92.92297
395.9273, 92.93186
396.4094, 93.01170
396.8915, 93.07158
397.3737, 93.11413
397.8558, 93.12009
398.3379, 93.06578
398.8200, 92.75245
399.3021, 92.58562
399.7842, 92.71157
400.2664, 93.12763
400.7485, 93.40447
401.2306, 93.42413
401.7127, 93.41393
402.1948, 93.51257
402.6769, 93.73665
403.1591, 94.05305
403.6412, 94.56872
404.1233, 95.12508
404.6054, 95.19559
405.0875, 94.46590
405.5696, 94.18806
406.0518, 95.15482
406.5339, 97.42619
407.0160, 98.71079
407.4981, 98.81111
407.9802, 98.45663
408.4623, 98.45617
408.9445, 98.80491
409.4266, 99.17126
409.9087, 99.50541
410.3908, 99.77551
410.8729, 99.74123
411.3550, 99.42284
411.8372, 99.39370
412.3193, 100.3472
412.8014, 101.8744
413.2835, 102.9754
413.7656, 103.4562
414.2477, 103.7835
414.7299, 104.4998
415.2120, 105.4541
415.6941, 106.2650
416.1762, 106.4966
416.6583, 106.6788
417.1404, 107.3372
417.6226, 108.4707
418.1047, 109.6502
418.5868, 110.6079
419.0689, 111.5059
419.5510, 112.5116
420.0331, 113.6391
420.5153, 114.9110
420.9974, 116.5454
421.4795, 118.3420
421.9616, 119.7235
422.4437, 119.9333
422.9258, 120.2394
423.4080, 121.2207
423.8901, 123.1162
424.3722, 124.9987
424.8543, 126.9552
425.3364, 128.7952
425.8185, 130.2849
426.3007, 130.7942
426.7828, 131.9183
427.2649, 134.1165
427.7470, 137.1845
428.2291, 139.8681
428.7112, 142.0715
429.1934, 144.0196
429.6755, 145.7463
430.1576, 147.0906
430.6397, 149.0224
431.1218, 151.6596
431.6039, 154.7252
432.0861, 157.8698
432.5682, 161.0938
433.0503, 164.3520
433.5324, 167.4932
434.0145, 170.7068
434.4966, 174.7600
434.9788, 179.6722
435.4609, 184.8614
435.9430, 189.6863
436.4251, 194.4560
436.9072, 200.0061
437.3893, 206.6000
437.8715, 213.8225
438.3536, 221.0697
438.8357, 228.5407
439.3178, 236.7885
439.7999, 246.5103
440.2820, 256.9189
440.7642, 267.1833
441.2463, 277.3429
441.7284, 287.6628
442.2105, 298.9187
442.6926, 310.2130
443.1747, 320.6734
443.6569, 329.6255
444.1390, 338.2679
444.6211, 346.5724
445.1032, 354.7934
445.5853, 363.4016
446.0674, 372.5827
446.5496, 382.1605
447.0317, 391.9325
447.5138, 401.6430
447.9959, 412.5623
448.4780, 424.3443
448.9601, 437.6456
449.4423, 453.2572
449.9244, 470.8346
450.4065, 491.1772
450.8886, 514.8760
451.3707, 541.3145
451.8528, 568.8607
452.3350, 597.7560
452.8171, 627.5482
453.2992, 658.6370
453.7813, 691.1635
454.2634, 724.2110
454.7455, 758.1965
455.2277, 792.1456
455.7098, 826.4518
456.1919, 860.3972
456.6740, 891.6617
457.1561, 919.8359
457.6382, 943.8054
458.1204, 961.7208
458.6025, 973.4981
459.0846, 977.3470
459.5667, 970.5828
460.0488, 955.8505
460.5309, 936.0049
461.0131, 911.1161
461.4952, 883.1864
461.9773, 850.6977
462.4594, 817.0767
462.9415, 786.8932
463.4236, 762.3885
463.9058, 741.6600
464.3879, 723.0302
464.8700, 707.0319
465.3521, 696.1540
465.8342, 691.5996
466.3163, 691.7905
466.7985, 695.9022
467.2806, 704.2045
467.7627, 715.8550
468.2448, 730.5307
468.7269, 748.5308
469.2090, 770.3905
469.6912, 796.2304
470.1733, 826.2335
470.6554, 860.9302
471.1375, 900.0434
471.6196, 940.7269
472.1017, 982.6854
472.5839, 1027.159
473.0660, 1077.099
473.5481, 1132.361
474.0302, 1186.158
474.5123, 1238.030
474.9944, 1288.188
475.4766, 1339.633
475.9587, 1391.008
476.4408, 1433.819
476.9229, 1465.990
477.4050, 1486.397
477.8871, 1493.636
478.3693, 1487.545
478.8514, 1466.424
479.3335, 1425.610
479.8156, 1370.331
480.2977, 1305.615
480.7798, 1230.504
481.2620, 1153.301
481.7441, 1075.766
482.2262, 999.9822
482.7083, 929.0349
483.1904, 862.3552
483.6725, 801.9498
484.1547, 749.8564
484.6368, 705.9725
485.1189, 665.9073
485.6010, 628.5706
486.0831, 595.3397
486.5652, 567.2464
487.0474, 545.7674
487.5295, 525.8600
488.0116, 507.4791
488.4937, 490.9310
488.9758, 476.4173
489.4579, 463.7954
489.9401, 453.5821
490.4222, 445.8235
490.9043, 440.5318
491.3864, 437.4788
491.8685, 436.6783
492.3506, 438.0514
492.8328, 441.4604
493.3149, 446.9402
493.7970, 455.0407
494.2791, 466.0291
494.7612, 478.6618
495.2433, 491.5940
495.7255, 505.1791
496.2076, 520.4790
496.6897, 538.5156
497.1718, 557.8160
497.6539, 577.4030
498.1360, 596.9666
498.6182, 615.7506
499.1003, 635.3513
499.5824, 652.5252
500.0645, 665.5830
500.5466, 675.5253
501.0287, 676.8855
501.5109, 667.9760
501.9930, 649.7914
502.4751, 623.3754
502.9572, 583.5217
503.4393, 541.5922
503.9214, 496.6808
504.4036, 450.8262
504.8857, 409.7364
505.3678, 373.1664
505.8499, 341.0811
506.3320, 313.5556
506.8141, 290.6573
507.2963, 271.5535
507.7784, 256.2470
508.2605, 244.1685
508.7426, 234.9863
509.2247, 228.5879
509.7068, 223.3031
510.1890, 218.8909
510.6711, 215.3380
511.1532, 212.7130
511.6353, 210.9995
512.1174, 210.1646
512.5995, 210.4526
513.0817, 211.4468
513.5638, 212.5350
514.0459, 213.7335
514.5280, 215.6499
515.0101, 218.6495
515.4922, 222.5746
515.9744, 227.2427
516.4565, 232.6569
516.9386, 238.7852
517.4207, 245.4783
517.9028, 252.9084
518.3849, 261.3570
518.8671, 270.6935
519.3492, 281.2894
519.8313, 293.7792
520.3134, 307.9016
520.7955, 321.4479
521.2776, 334.2582
521.7598, 346.7734
522.2419, 359.3953
522.7240, 372.5948
523.2061, 384.1700
523.6882, 394.8342
524.1703, 402.3210
524.6525, 403.4493
525.1346, 398.4211
525.6167, 389.8012
526.0988, 378.0323
526.5809, 363.5153
527.0630, 345.9696
527.5452, 325.9213
528.0273, 306.0553
528.5094, 287.7671
528.9915, 270.4982
529.4736, 252.9816
529.9557, 235.0040
530.4379, 218.6970
530.9200, 205.0700
531.4021, 193.6573
531.8842, 183.9743
532.3663, 176.4331
532.8484, 169.8517
533.3306, 164.0774
533.8127, 159.0793
534.2948, 154.9616
534.7769, 152.1736
535.2590, 149.6799
535.7411, 147.1591
536.2233, 144.6405
536.7054, 142.9028
537.1875, 142.1897
537.6696, 141.8201
538.1517, 141.2805
538.6339, 140.5246
539.1160, 140.3233
539.5981, 140.7681
540.0802, 141.6416
540.5623, 142.8225
541.0444, 144.2465
541.5266, 145.5513
542.0087, 146.4890
542.4908, 147.4052
542.9729, 148.8115
543.4550, 150.6195
543.9371, 152.5205
544.4193, 154.0229
544.9014, 155.7739
545.3835, 158.3813
545.8656, 161.9211
546.3477, 165.7614
546.8298, 169.8272
547.3120, 174.0349
547.7941, 178.2715
548.2762, 182.1835
548.7583, 186.6342
549.2404, 192.0043
549.7225, 197.8527
550.2047, 203.3607
550.6868, 207.9639
551.1689, 213.3452
551.6510, 219.9332
552.1331, 227.6312
552.6152, 235.7117
553.0974, 244.1991
553.5795, 252.9579
554.0616, 261.8453
554.5437, 270.9118
555.0258, 280.4720
555.5079, 290.6131
555.9901, 301.0400
556.4722, 311.2440
556.9543, 321.6451
557.4364, 333.1993
557.9185, 346.6995
558.4006, 360.6336
558.8828, 373.8462
559.3649, 386.6303
559.8470, 399.9699
560.3291, 415.2213
560.8112, 430.1957
561.2933, 444.1635
561.7755, 457.0699
562.2576, 469.0656
562.7397, 480.2632
563.2218, 490.2817
563.7039, 499.0753
564.1860, 507.0550
564.6682, 512.8427
565.1503, 516.6970
565.6324, 518.1275
566.1145, 516.3943
566.5966, 511.3911
567.0787, 504.1164
567.5609, 494.7633
568.0430, 483.3317
568.5251, 469.6536
569.0072, 453.7841
569.4893, 437.1621
569.9714, 419.8874
570.4536, 402.4411
570.9357, 385.3605
571.4178, 368.7209
571.8999, 352.3274
572.3820, 335.7746
572.8641, 319.7336
573.3463, 305.0023
573.8284, 291.5451
574.3105, 279.4237
574.7926, 269.1234
575.2747, 259.9808
575.7568, 251.2047
576.2390, 241.9572
576.7211, 233.9346
577.2032, 227.3678
577.6853, 222.1311
578.1674, 218.1765
578.6495, 215.8823
579.1317, 213.7260
579.6138, 210.6116
580.0959, 206.8978
580.5780, 205.8705
581.0601, 207.6790
581.5422, 210.4558
582.0244, 212.8147
582.5065, 214.9339
582.9886, 217.0426
583.4707, 219.0871
583.9528, 221.7774
584.4349, 225.8968
584.9171, 231.0419
585.3992, 236.6124
585.8813, 242.2366
586.3634, 248.4453
586.8455, 254.8188
587.3276, 261.8855
587.8098, 270.8919
588.2919, 282.8382
588.7740, 296.0306
589.2561, 309.9447
589.7382, 324.5729
590.2203, 340.2376
590.7025, 356.6159
591.1846, 374.2971
591.6667, 393.7918
592.1488, 415.2719
592.6309, 437.2022
593.1130, 459.5718
593.5952, 482.6642
594.0773, 508.1833
594.5594, 535.1201
595.0415, 559.9832
595.5236, 584.7477
596.0057, 602.0914
596.4879, 605.1611
596.9700, 594.4395
597.4521, 570.8120
597.9342, 526.5309
598.4163, 476.4726
598.8984, 425.8139
599.3806, 375.2850
599.8627, 330.6784
600.3448, 293.2443
600.8269, 262.2994
601.3090, 237.4283
601.7911, 219.4191
602.2733, 204.1117
602.7554, 191.8535
603.2375, 181.8199
603.7196, 173.5948
604.2017, 167.1788
604.6838, 161.9497
605.1660, 157.8760
605.6481, 154.7534
606.1302, 152.3586
606.6123, 150.6799
607.0944, 149.6967
607.5765, 149.6963
608.0587, 150.0749
608.5408, 150.0172
609.0229, 149.7036
609.5050, 149.7809
609.9871, 150.5071
610.4692, 151.7895
610.9514, 153.7711
611.4335, 156.5149
611.9156, 159.0037
612.3977, 160.5268
612.8798, 162.1265
613.3619, 164.3649
613.8441, 167.3887
614.3262, 170.7997
614.8083, 174.6532
615.2904, 178.8428
615.7725, 183.1061
616.2546, 187.4165
616.7368, 192.2868
617.2189, 197.9242
617.7010, 204.1088
618.1831, 210.5440
618.6652, 217.1648
619.1473, 223.7610
619.6295, 230.2861
620.1116, 236.6245
620.5937, 242.4664
621.0758, 247.9147
621.5579, 253.6756
622.0400, 261.2308
622.5222, 268.1554
623.0043, 272.9493
623.4864, 275.2260
623.9685, 276.7837
624.4506, 277.9654
624.9327, 278.3649
625.4149, 277.5499
625.8970, 274.9742
626.3791, 272.8286
626.8612, 271.1737
627.3433, 269.9836
627.8254, 268.8116
628.3076, 267.7399
628.7897, 268.5517
629.2718, 271.7309
629.7539, 276.9644
630.2360, 284.2163
630.7181, 293.1481
631.2003, 302.6097
631.6824, 312.2557
632.1645, 322.0659
632.6466, 333.1355
633.1287, 344.9170
633.6108, 353.3424
634.0930, 356.3651
634.5751, 356.3515
635.0572, 353.5649
635.5393, 347.0818
636.0214, 342.8495
636.5035, 340.6817
636.9857, 341.0010
637.4678, 343.9877
637.9499, 349.5065
638.4320, 358.5207
638.9141, 371.1177
639.3962, 386.8600
639.8784, 405.5468
640.3605, 426.8536
640.8426, 450.3340
641.3247, 476.1185
641.8068, 503.1097
642.2889, 533.0204
642.7711, 563.2751
643.2532, 588.7990
643.7353, 608.0119
644.2174, 620.9519
644.6995, 625.5533
645.1816, 622.8505
645.6638, 619.8879
646.1459, 618.3752
646.6280, 616.1907
647.1101, 614.1248
647.5922, 612.7342
648.0743, 601.8925
648.5565, 581.3717
649.0386, 551.9987
649.5207, 512.2695
650.0028, 463.4639
650.4849, 415.2235
650.9670, 368.2385
651.4492, 324.5107
651.9313, 286.3581
652.4134, 253.4221
652.8955, 225.8111
653.3776, 203.5954
653.8597, 185.2886
654.3419, 170.9025
654.8240, 159.4727
655.3061, 149.7742
655.7882, 142.0320
656.2703, 135.3725
656.7524, 129.8175
657.2346, 125.1920
657.7167, 121.0376
658.1988, 117.2845
658.6809, 114.2026
659.1630, 112.1413
659.6451, 110.8475
660.1273, 108.6747
660.6094, 105.5406
661.0915, 102.5845
661.5736, 100.5777
662.0557, 99.24374
662.5378, 98.16760
663.0200, 97.32248
663.5021, 96.39063
663.9842, 94.86771
664.4663, 93.30518
664.9484, 92.28291
665.4305, 92.07776
665.9127, 91.86301
666.3948, 91.52699
666.8769, 91.04012
667.3590, 90.33700
667.8411, 89.10603
668.3232, 88.35497
668.8054, 88.29794
669.2875, 88.60771
669.7696, 88.74505
670.2517, 88.70743
670.7338, 88.63018
671.2159, 88.60035
671.6981, 88.48988
672.1802, 87.98692
672.6623, 87.18993
673.1444, 86.43401
673.6265, 85.73430
674.1086, 85.28072
674.5908, 85.33707
675.0729, 85.82999
675.5550, 86.27110
676.0371, 86.62631
676.5192, 86.78783
677.0013, 86.62007
677.4835, 86.06888
677.9656, 85.84507
678.4477, 86.10390
678.9298, 86.40650
679.4119, 86.31828
679.8940, 85.83297
680.3762, 86.02959
680.8583, 87.03554
681.3404, 88.13715
681.8225, 88.46055
682.3046, 88.36124
682.7867, 88.67252
683.2689, 89.71886
683.7510, 90.65266
684.2331, 90.58083
684.7152, 90.11835
685.1973, 90.04877
685.6794, 90.78317
686.1616, 91.68703
686.6437, 92.80161
687.1258, 93.98242
687.6079, 94.92014
688.0900, 95.45195
688.5721, 96.13511
689.0543, 97.10157
689.5364, 98.29512
690.0185, 99.55134
690.5006, 100.8703
690.9827, 102.3895
691.4648, 104.3246
691.9470, 106.4399
692.4291, 108.4904
692.9112, 110.4559
693.3933, 112.2198
693.8754, 113.2476
694.3575, 114.4481
694.8397, 116.7563
695.3218, 120.3938
695.8039, 122.9902
696.2860, 123.9468
696.7681, 124.0825
697.2502, 123.8084
697.7324, 123.2082
698.2145, 121.6730
698.6966, 119.0159
699.1787, 115.9515
699.6608, 113.1145
700.1429, 110.4814
700.6251, 107.7300
701.1072, 104.7547
701.5893, 102.0310
702.0714, 100.0663
702.5535, 98.64487
703.0356, 97.47025
703.5178, 96.59977
703.9999, 95.73914
704.4820, 94.47523
704.9641, 93.24081
705.4462, 92.73302
705.9283, 93.55453
706.4105, 94.17532
706.8926, 94.40550
707.3747, 94.32664
707.8568, 94.07365
708.3389, 93.62717
708.8210, 93.26225
709.3032, 93.09483
709.7853, 93.04514
710.2674, 92.89528
710.7495, 92.70065
711.2316, 92.69901
711.7137, 93.19724
712.1959, 93.78880
712.6780, 94.17092
713.1601, 94.36452
713.6422, 94.57290
714.1243, 94.83678
714.6064, 95.14812
715.0886, 95.52992
715.5707, 95.98975
716.0528, 96.34814
716.5349, 96.61685
717.0170, 96.76250
717.4991, 96.71428
717.9813, 96.50280
718.4634, 96.29903
718.9455, 96.09769
719.4276, 96.13431
719.9097, 97.00620
720.3918, 98.06951
720.8740, 98.29622
721.3561, 97.37535
721.8382, 96.66341
722.3203, 97.01840
722.8024, 97.73817
723.2845, 98.21196
723.7667, 98.32870
724.2488, 98.25524
724.7309, 97.81273
725.2130, 97.36852
725.6951, 97.43308
726.1772, 98.05181
726.6594, 98.47060
727.1415, 98.55219
727.6236, 98.45146
728.1057, 98.30282
728.5878, 98.14095
729.0699, 98.04402
729.5521, 97.98412
730.0342, 98.08404
730.5163, 98.52787
730.9984, 99.17143
731.4805, 99.75742
731.9626, 100.1675
732.4448, 100.5716
732.9269, 100.8463
733.4090, 101.1677
733.8911, 102.0746
734.3732, 103.6951
734.8553, 105.3341
735.3375, 106.7381
735.8196, 108.0449
736.3017, 109.5660
736.7838, 111.3030
737.2659, 113.2649
737.7480, 115.0255
738.2302, 117.3336
738.7123, 121.0838
739.1944, 126.0968
739.6765, 131.4482
740.1586, 136.7422
740.6407, 142.3822
741.1229, 148.4779
741.6050, 155.0612
742.0871, 162.1176
742.5692, 169.7218
743.0513, 177.7133
743.5334, 185.9689
744.0156, 194.5571
744.4977, 203.4027
744.9798, 212.5379
745.4619, 223.0218
745.9440, 235.4700
746.4261, 249.6991
746.9083, 265.4380
747.3904, 282.6509
747.8725, 302.2304
748.3546, 324.7061
748.8367, 349.3743
749.3188, 376.0273
749.8010, 404.2721
750.2831, 434.0640
750.7652, 465.6561
751.2473, 498.4567
751.7294, 533.3645
752.2115, 570.0356
752.6937, 605.6286
753.1758, 641.0388
753.6579, 668.8201
754.1400, 685.3005
754.6221, 687.9738
755.1042, 671.0996
755.5864, 631.3011
756.0685, 581.8967
756.5506, 523.1512
757.0327, 461.7787
757.5148, 406.0962
757.9969, 355.2754
758.4791, 311.5386
758.9612, 275.7142
759.4433, 246.0237
759.9254, 221.4115
760.4075, 201.7642
760.8896, 185.3762
761.3718, 172.2289
761.8539, 161.4249
762.3360, 152.1083
762.8181, 144.2072
763.3002, 137.6607
763.7823, 132.7132
764.2645, 128.4879
764.7466, 124.6146
765.2287, 121.1394
765.7108, 118.0238
766.1929, 115.4519
766.6750, 113.0104
767.1572, 110.5733
767.6393, 108.3275
768.1214, 106.7125
768.6035, 105.7831
769.0856, 104.6891
769.5677, 103.1395
770.0499, 101.4460
770.5320, 99.98183
771.0141, 98.76085
771.4962, 97.82101
771.9783, 97.37207
772.4604, 97.00047
772.9426, 96.43369
773.4247, 95.79173
773.9068, 95.36649
774.3889, 95.33221
774.8710, 95.32500
775.3531, 95.34583
775.8353, 95.32683
776.3174, 95.05683
776.7995, 94.53265
777.2816, 93.89108
777.7637, 93.14238
778.2458, 92.35132
778.7280, 91.53918
779.2101, 90.76143
779.6922, 90.20753
780.1743, 90.01229
780.6564, 90.01315
781.1385, 90.36056
781.6207, 90.89009
782.1028, 90.85387
782.5849, 89.67529
783.0670, 88.80191
783.5491, 88.69129
784.0313, 89.15056
784.5134, 89.45616
784.9955, 89.60909
785.4776, 89.62660
785.9597, 89.41396
786.4418, 89.14428
786.9240, 89.19986
787.4061, 89.46615
787.8882, 89.51904
788.3703, 88.92939
788.8524, 88.28128
789.3345, 87.79919
789.8167, 87.50185
790.2988, 87.43608
790.7809, 87.75729
791.2630, 88.00677
791.7451, 87.93826
792.2272, 87.69344
792.7094, 88.05745
793.1915, 88.99609
793.6736, 89.70152
794.1557, 89.43275
794.6378, 88.83801
795.1199, 88.80917
795.6021, 89.22224
796.0842, 89.48373
796.5663, 89.11344
797.0484, 88.74836
797.5305, 88.73133
798.0126, 89.01366
798.4948, 89.12573
798.9769, 88.98069
799.4590, 88.88438
799.9411, 89.01812
800.4232, 89.28875
800.9053, 89.25112
801.3875, 88.94430
801.8696, 88.75330
802.3517, 88.89807
802.8338, 89.28024
803.3159, 89.93776
803.7980, 90.79684
804.2802, 91.44999
804.7623, 91.60953
805.2444, 91.69841
805.7265, 91.87923
806.2086, 92.13156
806.6907, 92.22209
807.1729, 92.06601
807.6550, 92.11241
808.1371, 92.62053
808.6192, 93.46491
809.1013, 94.37685
809.5834, 95.34162
810.0656, 96.27478
810.5477, 97.12145
811.0298, 97.92435
811.5119, 98.65947
811.9940, 99.35722
812.4761, 100.2310
812.9583, 101.5384
813.4404, 102.7360
813.9225, 103.6004
814.4046, 104.2082
814.8867, 105.0221
815.3688, 106.0311
815.8510, 107.3310
816.3331, 109.0360
816.8152, 111.0300
817.2973, 113.1807
817.7794, 115.4516
818.2615, 117.6750
818.7437, 119.7605
819.2258, 121.7506
819.7079, 123.5890
820.1900, 125.3334
820.6721, 127.3040
821.1542, 129.6377
821.6364, 131.9131
822.1185, 133.9801
822.6006, 135.8846
823.0827, 138.0019
823.5648, 140.2669
824.0469, 142.2890
824.5291, 144.1346
825.0112, 145.4272
825.4933, 145.5894
825.9754, 144.8859
826.4575, 144.1633
826.9396, 144.0694
827.4218, 143.5329
827.9039, 142.1096
828.3860, 140.0753
828.8681, 138.3046
829.3502, 136.7354
829.8323, 135.7653
830.3145, 135.7729
830.7966, 136.1527
831.2787, 135.7542
831.7608, 134.7392
832.2429, 133.6258
832.7250, 132.2562
833.2072, 131.2400
833.6893, 131.2578
834.1714, 131.8677
834.6535, 131.8649
835.1356, 130.7993
835.6177, 129.8239
836.0999, 129.1393
836.5820, 128.6477
837.0641, 128.1426
837.5462, 127.6249
838.0283, 127.0901
838.5104, 126.4825
838.9926, 125.9561
839.4747, 125.6105
839.9568, 125.4808
840.4389, 125.6269
840.9210, 125.9441
841.4031, 126.7089
841.8853, 128.4358
842.3674, 130.4091
842.8495, 131.4495
843.3316, 131.2248
843.8137, 131.7938
844.2958, 133.6233
844.7780, 135.9939
845.2601, 137.9632
845.7422, 139.6234
846.2243, 141.2379
846.7064, 142.8678
847.1885, 144.4820
847.6707, 145.6820
848.1528, 147.0310
848.6349, 149.2403
849.1170, 152.8539
849.5991, 156.3799
850.0812, 159.7461
850.5634, 163.1121
851.0455, 166.7389
851.5276, 170.5932
852.0097, 174.3472
852.4918, 177.9388
852.9739, 181.7049
853.4561, 186.1180
853.9382, 190.7971
854.4203, 195.2199
854.9024, 199.0936
855.3845, 203.4495
855.8666, 208.9119
856.3488, 214.6212
856.8309, 219.7890
857.3130, 224.2792
857.7951, 229.7428
858.2772, 236.2389
858.7593, 242.9745
859.2415, 249.2303
859.7236, 255.2284
860.2057, 261.7116
860.6878, 268.6969
861.1699, 274.9352
861.6520, 280.7807
862.1342, 284.9496
862.6163, 286.4148
863.0984, 285.2152
863.5805, 283.0786
864.0626, 280.1868
864.5447, 275.8640
865.0269, 269.8232
865.5090, 262.0302
865.9911, 251.8458
866.4732, 239.6495
866.9553, 227.6912
867.4374, 217.6350
867.9196, 208.1671
868.4017, 198.5472
868.8838, 188.8342
869.3659, 179.6628
869.8480, 170.7936
870.3301, 163.0129
870.8123, 156.6200
871.2944, 151.3753
871.7765, 146.5102
872.2586, 142.0495
872.7407, 137.5681
873.2228, 132.5214
873.7050, 127.8588
874.1871, 124.7436
874.6692, 122.7563
875.1513, 120.9391
875.6334, 119.2536
876.1155, 117.4019
876.5977, 115.1422
877.0798, 112.8055
877.5619, 111.0281
878.0440, 109.8440
878.5261, 108.7396
879.0082, 107.5892
879.4904, 106.5016
879.9725, 105.7042
880.4546, 105.0260
880.9367, 104.1272
881.4188, 102.7102
881.9009, 101.5173
882.3831, 100.8707
882.8652, 100.5407
883.3473, 100.3384
883.8294, 100.3582
884.3115, 100.1215
884.7936, 99.58537
885.2758, 98.89839
885.7579, 98.12358
886.2400, 97.33174
886.7221, 96.69031
887.2042, 96.22736
887.6863, 95.83297
888.1685, 95.34261
888.6506, 94.97031
889.1327, 94.99136
889.6148, 95.52058
890.0969, 95.48287
890.5790, 94.67857
891.0612, 93.81303
891.5433, 93.34454
892.0254, 93.14869
892.5075, 92.71262
892.9896, 92.07755
893.4717, 91.59711
893.9539, 91.58583
894.4360, 91.70862
894.9181, 91.77098
895.4002, 91.77180
895.8823, 91.75957
896.3644, 91.74745
896.8466, 91.70313
897.3287, 91.58383
897.8108, 91.45780
898.2929, 91.60966
898.7750, 91.96883
899.2571, 92.05240
899.7393, 91.44713
900.2214, 90.84791
900.7035, 90.92760
901.1856, 91.39323
901.6677, 91.75119
902.1498, 91.79696
902.6320, 91.86005
903.1141, 91.96577
903.5962, 92.08882
904.0783, 92.18284
904.5604, 92.25306
905.0425, 92.36489
905.5247, 92.52662
906.0068, 92.73818
906.4889, 93.08095
906.9710, 93.43073
907.4531, 93.59380
907.9352, 93.41875
908.4174, 93.54989
908.8995, 94.26145
909.3816, 95.07921
909.8637, 95.76252
910.3458, 96.31998
910.8279, 96.49124
911.3101, 96.26382
911.7922, 96.27532
912.2743, 97.15044
912.7564, 98.39899
913.2385, 99.61551
913.7206, 100.7469
914.2028, 101.6073
914.6849, 101.8147
915.1670, 102.1087
915.6491, 102.6748
916.1312, 103.4983
916.6133, 104.5467
917.0955, 105.8277
917.5776, 107.2362
918.0597, 108.8036
918.5418, 110.3960
919.0239, 111.8246
919.5060, 113.1650
919.9882, 114.5406
920.4703, 115.8153
920.9524, 117.3971
921.4345, 119.4902
921.9166, 121.7764
922.3987, 123.8013
922.8809, 125.5362
923.3630, 127.6530
923.8451, 130.3003
924.3272, 132.9677
924.8093, 134.9954
925.2914, 136.7462
925.7736, 138.7227
926.2557, 141.0877
926.7378, 143.1847
927.2199, 144.6262
927.7020, 145.9162
928.1841, 147.4404
928.6663, 149.1904
929.1484, 149.8762
929.6305, 149.4693
930.1126, 148.7610
930.5947, 148.2789
931.0768, 147.7631
931.5590, 146.9436
932.0411, 145.8021
932.5232, 144.3533
933.0053, 142.3412
933.4874, 140.3024
933.9695, 138.4123
934.4517, 136.5647
934.9338, 134.3649
935.4159, 131.8199
935.8980, 129.4946
936.3801, 127.6637
936.8622, 125.9127
937.3444, 123.5886
937.8265, 121.1245
938.3086, 119.1597
938.7907, 118.1772
939.2728, 117.1173
939.7549, 115.7103
940.2371, 114.2757
940.7192, 113.0005
941.2013, 111.8867
941.6834, 111.1022
942.1655, 110.6663
942.6476, 110.3065
943.1298, 109.7945
943.6119, 109.2455
944.0940, 108.6522
944.5761, 108.0373
945.0582, 107.9135
945.5403, 109.2818
946.0225, 110.0323
946.5046, 109.1955
946.9867, 107.3039
947.4688, 106.5964
947.9509, 107.0189
948.4330, 107.5892
948.9152, 107.9829
949.3973, 108.2283
949.8794, 108.1367
950.3615, 107.9653
950.8436, 108.1716
951.3257, 109.3594
951.8079, 110.2195
952.2900, 110.5830
952.7721, 110.7335
953.2542, 110.9658
953.7363, 111.2818
954.2184, 111.8053
954.7006, 112.5908
955.1827, 113.0792
955.6648, 112.3706
956.1469, 111.4816
956.6290, 111.4439
957.1111, 112.5027
957.5933, 113.0265
958.0754, 112.7566
958.5575, 112.3515
959.0396, 112.0891
959.5217, 111.9451
960.0038, 111.9011
960.4860, 111.9193
960.9681, 111.8031
961.4502, 111.3768
961.9323, 110.8574
962.4144, 110.0648
962.8965, 109.3307
963.3787, 109.4293
963.8608, 110.7280
964.3429, 111.9392
964.8250, 112.9286
965.3071, 113.7646
965.7892, 114.4497
966.2714, 115.0558
966.7535, 115.7354
967.2356, 116.4871
967.7177, 117.4840
968.1998, 119.0060
968.6819, 120.6537
969.1641, 122.0947
969.6462, 123.3129
970.1283, 124.7246
970.6104, 126.3523
971.0925, 128.1413
971.5746, 130.1111
972.0568, 132.2159
972.5389, 134.4549
973.0210, 136.7868
973.5031, 139.0096
973.9852, 140.9116
974.4673, 142.8433
974.9495, 144.8101
975.4316, 146.9236
975.9137, 149.3239
976.3958, 151.9967
976.8779, 154.9970
977.3600, 158.2959
977.8422, 162.0844
978.3243, 166.6497
978.8064, 171.8446
979.2885, 177.3065
979.7706, 182.8067
980.2527, 189.4970
980.7349, 197.3773
981.2170, 206.6860
981.6991, 217.5352
982.1812, 229.8565
982.6633, 242.5378
983.1454, 255.6978
983.6276, 270.6889
984.1097, 287.1157
984.5918, 306.8543
985.0739, 329.8130
985.5560, 357.1042
986.0381, 391.5424
986.5203, 429.9706
987.0024, 481.1435
987.4845, 546.1324
987.9666, 624.2772
988.4487, 718.6232
988.9308, 824.8461
989.4130, 933.8339
989.8951, 1044.448
990.3772, 1154.086
990.8593, 1258.011
991.3414, 1362.884
991.8235, 1470.006
992.3057, 1579.154
992.7878, 1708.512
993.2699, 1856.445
993.7520, 2039.316
994.2341, 2257.914
994.7162, 2524.112
995.1984, 2853.152
995.6805, 3245.479
996.1626, 3692.509
996.6447, 4200.031
997.1268, 4757.880
997.6089, 5356.906
998.0911, 6013.459
998.5732, 6795.007
999.0553, 7702.037
999.5374, 8505.960
1000.020, 9198.863
1000.502, 9486.057
1000.984, 8957.971
1001.466, 7972.597
1001.948, 6769.419
1002.430, 5357.541
1002.912, 4162.355
1003.394, 3225.930
1003.876, 2483.496
1004.359, 1932.984
1004.841, 1540.620
1005.323, 1243.052
1005.805, 1028.646
1006.287, 862.3759
1006.769, 740.8502
1007.251, 643.6456
1007.733, 567.9340
1008.216, 508.1913
1008.698, 457.3252
1009.180, 415.6760
1009.662, 379.9114
1010.144, 350.2180
1010.626, 324.8976
1011.108, 303.8999
1011.590, 286.1346
1012.072, 270.2529
1012.555, 256.0284
1013.037, 243.9012
1013.519, 235.0271
1014.001, 227.2585
1014.483, 219.9845
1014.965, 213.1578
1015.447, 206.5641
1015.929, 200.2183
1016.411, 194.5827
1016.894, 189.8588
1017.376, 185.7986
1017.858, 182.4830
1018.340, 179.6171
1018.822, 176.8788
1019.304, 174.1315
1019.786, 171.6924
1020.268, 169.5753
1020.751, 167.7346
1021.233, 166.2144
1021.715, 164.9219
1022.197, 163.5848
1022.679, 162.2358
1023.161, 161.1278
1023.643, 160.4133
1024.125, 159.9438
1024.607, 159.9090
1025.090, 159.9814
1025.572, 159.4204
1026.054, 158.1742
1026.536, 156.9690
1027.018, 155.9626
1027.500, 154.8600
1027.982, 153.2073
1028.464, 151.3571
1028.947, 149.7769
1029.429, 148.6626
1029.911, 147.1917
1030.393, 145.3067
1030.875, 143.0593
1031.357, 140.3385
1031.839, 137.3519
1032.321, 134.8369
1032.803, 132.7481
1033.286, 130.7887
1033.768, 128.8202
1034.250, 126.9780
1034.732, 125.2182
1035.214, 123.6610
1035.696, 122.5386
1036.178, 121.9550
1036.660, 121.1198
1037.143, 119.9193
1037.625, 118.7869
1038.107, 118.1130
1038.589, 117.7124
1039.071, 117.4118
1039.553, 117.1848
1040.035, 116.9373
1040.517, 116.5578
1041.000, 116.3100
1041.482, 116.3409
1041.964, 116.4815
1042.446, 116.2193
1042.928, 115.6870
1043.410, 115.3968
1043.892, 115.4286
1044.374, 115.9375
1044.856, 117.4892
1045.339, 119.2223
1045.821, 120.3191
1046.303, 120.6432
1046.785, 121.2800
1047.267, 122.2545
1047.749, 123.3023
1048.231, 124.1283
1048.713, 124.9878
1049.195, 126.2503
1049.677, 127.8232
1050.160, 129.4042
1050.642, 130.7600
1051.124, 132.3424
1051.606, 134.2336
1052.088, 136.3197
1052.570, 138.4915
1053.052, 140.7240
1053.534, 142.6851
1054.017, 144.3186
1054.499, 146.3159
1054.981, 149.4408
1055.463, 152.7755
1055.945, 155.7669
1056.427, 158.4509
1056.909, 160.9803
1057.391, 163.3555
1057.874, 165.6176
1058.356, 167.8652
1058.838, 169.8306
1059.320, 171.2292
1059.802, 172.1100
1060.284, 172.5687
1060.766, 172.4971
1061.248, 172.2710
1061.730, 171.9531
1062.213, 171.4057
1062.695, 170.6113
1063.177, 169.4972
1063.659, 167.7300
1064.141, 165.3735
1064.623, 162.7607
1065.105, 159.9622
1065.587, 157.0430
1066.070, 153.8970
1066.552, 150.6674
1067.034, 147.5137
1067.516, 144.4345
1067.998, 141.8734
1068.480, 139.9481
1068.962, 138.1056
1069.444, 135.8619
1069.927, 133.4704
1070.409, 130.9277
1070.891, 128.3233
1071.373, 126.5855
1071.855, 126.0661
1072.337, 125.4531
1072.819, 124.2638
1073.301, 122.8651
1073.783, 121.8208
1074.266, 121.0722
1074.748, 120.4539
1075.230, 119.8106
1075.712, 119.6227
1076.194, 120.2717
1076.676, 121.1339
1077.158, 122.0462
1077.640, 122.9205
1078.122, 122.6270
1078.604, 121.3129
1079.087, 120.2314
1079.569, 120.1218
1080.051, 120.4231
1080.533, 120.8814
1081.015, 121.5213
1081.497, 122.3176
1081.979, 123.1599
1082.461, 124.6974
1082.944, 127.0321
1083.426, 129.6443
1083.908, 131.9829
1084.390, 134.3212
1084.872, 136.8711
1085.354, 139.6940
1085.836, 143.0901
1086.318, 147.2479
1086.801, 151.7272
1087.283, 156.3398
1087.765, 161.3693
1088.247, 167.5542
1088.729, 174.5811
1089.211, 181.3650
1089.693, 187.5002
1090.175, 194.5451
1090.657, 203.5615
1091.140, 213.3208
1091.622, 222.9927
1092.104, 232.7434
1092.586, 243.8797
1093.068, 256.4376
1093.550, 270.1759
1094.032, 285.2966
1094.514, 301.2948
1094.997, 318.2398
1095.479, 335.6070
1095.961, 353.2911
1096.443, 372.5903
1096.925, 387.7898
1097.407, 398.7728
1097.889, 406.8210
1098.371, 414.4029
1098.854, 418.5245
1099.336, 414.6554
1099.818, 403.7419
1100.300, 389.7607
1100.782, 372.7303
1101.264, 353.9602
1101.746, 333.1987
1102.228, 311.9427
1102.710, 291.8256
1103.193, 273.0259
1103.675, 255.3685
1104.157, 238.9292
1104.639, 224.1581
1105.121, 211.2884
1105.603, 200.0641
1106.085, 190.4125
1106.567, 182.0399
1107.049, 174.2933
1107.531, 167.0812
1108.014, 160.4855
1108.496, 154.4226
1108.978, 148.8985
1109.460, 143.8890
1109.942, 139.4299
1110.424, 135.6598
1110.906, 132.5379
1111.388, 129.7099
1111.871, 127.1794
1112.353, 124.8964
1112.835, 122.8680
1113.317, 121.0376
1113.799, 119.3509
1114.281, 117.8528
1114.763, 116.6225
1115.245, 116.0289
1115.728, 114.8987
1116.210, 113.0336
1116.692, 111.3028
1117.174, 110.6265
1117.656, 110.4977
1118.138, 109.9687
1118.620, 109.1327
1119.102, 108.4743
1119.584, 108.2868
1120.067, 108.1098
1120.549, 107.8235
1121.031, 107.5883
1121.513, 107.5768
1121.995, 107.7991
1122.477, 108.4257
1122.959, 109.4605
1123.441, 110.2357
1123.924, 109.9677
1124.406, 109.8472
1124.888, 110.3808
1125.370, 111.4153
1125.852, 112.6062
1126.334, 113.9446
1126.816, 115.2070
1127.298, 116.2796
1127.781, 117.5718
1128.263, 119.5476
1128.745, 121.7451
1129.227, 123.7784
1129.709, 125.6558
1130.191, 127.5707
1130.673, 129.5069
1131.155, 132.0175
1131.637, 135.5364
1132.120, 139.3818
1132.602, 142.6807
1133.084, 145.9444
1133.566, 149.8179
1134.048, 154.5136
1134.530, 159.3937
1135.012, 164.3528
1135.494, 169.9898
1135.976, 176.9253
1136.458, 184.7231
1136.941, 192.5246
1137.423, 200.5623
1137.905, 209.3659
1138.387, 219.3801
1138.869, 229.8699
1139.351, 240.5163
1139.833, 252.0442
1140.315, 264.8929
1140.798, 279.1026
1141.280, 294.7802
1141.762, 311.9993
1142.244, 330.3272
1142.726, 349.6209
1143.208, 370.4190
1143.690, 393.5330
1144.172, 417.4142
1144.655, 441.2731
1145.137, 464.0625
1145.619, 483.8373
1146.101, 500.2520
1146.583, 511.3412
1147.065, 517.4241
1147.547, 516.0660
1148.029, 506.3200
1148.511, 489.2350
1148.994, 466.2199
1149.476, 437.7948
1149.958, 408.3568
1150.440, 378.2652
1150.922, 349.2504
1151.404, 321.6017
1151.886, 296.2950
1152.368, 273.9993
1152.851, 254.5672
1153.333, 237.8478
1153.815, 223.8443
1154.297, 211.8568
1154.779, 201.9895
1155.261, 193.2351
1155.743, 184.6241
1156.225, 176.8992
1156.708, 171.3147
1157.190, 168.1193
1157.672, 164.4763
1158.154, 160.2525
1158.636, 156.7540
1159.118, 155.0832
1159.600, 154.1423
1160.082, 152.7828
1160.564, 151.2806
1161.047, 150.1275
1161.529, 149.4553
1162.011, 148.9861
1162.493, 148.7534
1162.975, 148.5859
1163.457, 148.3099
1163.939, 148.0459
1164.421, 147.9254
1164.903, 147.9604
1165.385, 148.1884
1165.868, 148.7110
1166.350, 149.2178
1166.832, 149.6195
1167.314, 150.1700
1167.796, 151.2257
1168.278, 152.5585
1168.760, 153.7189
1169.242, 154.7399
1169.725, 155.9621
1170.207, 157.8631
1170.689, 159.3701
1171.171, 160.0790
1171.653, 160.7931
1172.135, 162.8496
1172.617, 165.7213
1173.099, 168.3188
1173.582, 170.5080
1174.064, 172.5563
1174.546, 174.3025
1175.028, 176.3100
1175.510, 178.9454
1175.992, 181.6105
1176.474, 182.7388
1176.956, 182.8916
1177.438, 183.6676
1177.921, 185.4082
1178.403, 187.3753
1178.885, 189.8227
1179.367, 191.7979
1179.849, 192.8965
1180.331, 193.2879
1180.813, 193.4046
1181.295, 193.2417
1181.778, 192.7735
1182.260, 191.9851
1182.742, 190.9263
1183.224, 189.2859
1183.706, 187.7086
1184.188, 186.6157
1184.670, 185.8757
1185.152, 184.8280
1185.635, 183.5173
1186.117, 182.1489
1186.599, 180.9115
1187.081, 179.4042
1187.563, 177.2044
1188.045, 174.8562
1188.527, 172.7091
1189.009, 170.7839
1189.491, 169.3042
1189.974, 168.1781
1190.456, 166.7243
1190.938, 164.3506
1191.420, 161.9212
1191.902, 159.9464
1192.384, 158.0327
1192.866, 155.7012
1193.348, 152.9289
1193.830, 150.4448
1194.313, 148.2373
1194.795, 146.2543
1195.277, 144.5345
1195.759, 142.9456
1196.241, 141.3593
1196.723, 139.9268
1197.205, 138.9816
1197.687, 138.5514
1198.169, 137.4509
1198.652, 135.6617
1199.134, 133.8579
1199.616, 132.4206
1200.098, 131.2150
1200.580, 130.2098
1201.062, 129.3809
1201.544, 128.7333
1202.026, 128.2761
1202.509, 127.5816
1202.991, 126.6118
1203.473, 125.8091
1203.955, 125.6716
1204.437, 125.6217
1204.919, 125.3415
1205.401, 124.8446
1205.883, 124.0545
1206.365, 122.9480
1206.848, 122.4559
1207.330, 122.7312
1207.812, 123.0583
1208.294, 122.7174
1208.776, 122.3909
1209.258, 122.5690
1209.740, 123.1474
1210.222, 123.9301
1210.705, 124.9307
1211.187, 125.5979
1211.669, 125.7657
1212.151, 126.2527
1212.633, 128.1168
1213.115, 130.1828
1213.597, 131.3829
1214.079, 132.0470
1214.562, 133.3756
1215.044, 135.3639
1215.526, 137.8522
1216.008, 140.9045
1216.490, 144.0117
1216.972, 146.5095
1217.454, 149.1604
1217.936, 152.5025
1218.418, 156.4551
1218.901, 160.6353
1219.383, 165.0757
1219.865, 169.7570
1220.347, 174.5927
1220.829, 180.0085
1221.311, 186.6527
1221.793, 193.6999
1222.275, 200.6558
##END=



