##NAMES=Helvine
##RRUFFID=R060621
##IDEAL CHEMISTRY=Mn^2+^_4_(BeSiO_4_)_3_S^2-^
##LOCALITY=Foote mine, Kings Mountain District, Cleveland County, North Carolina, USA
##OWNER=RRUFF
##SOURCE=Michael Scott
##DESCRIPTION=Yellowish-brown tetrahedra
##STATUS=The identification of this mineral is confirmed by single-crystal X-ray diffraction and chemical analysis.
##URL=rruff.info/R060621
##MEASURED CHEMISTRY=(Mn^2+^_3.72_Zn_0.18_Fe^3+^_0.08_Ca_0.02_)_Σ=4_Be_3.00_((Si_0.97_Al_0.03_)_Σ=1_O_4_)_3_S_1.00_; BeO assumed by stoichiometry
91.99365, 416.1646
92.47577, 415.9488
92.95789, 415.3481
93.44000, 417.9026
93.92212, 422.2420
94.40424, 425.4226
94.88635, 427.2419
95.36847, 428.3774
95.85059, 429.9637
96.33270, 431.9716
96.81482, 434.2011
97.29694, 436.1388
97.77905, 437.8042
98.26117, 440.6059
98.74329, 445.3805
99.22540, 451.7023
99.70752, 456.5138
100.1896, 459.3455
100.6718, 461.5204
101.1539, 464.6116
101.6360, 468.7318
102.1181, 473.3903
102.6002, 478.3291
103.0823, 483.4387
103.5645, 489.3957
104.0466, 496.0938
104.5287, 503.7226
105.0108, 512.9079
105.4929, 524.1185
105.9750, 536.1328
106.4572, 548.6413
106.9393, 563.1393
107.4214, 575.4952
107.9035, 584.3871
108.3856, 591.0787
108.8677, 599.5832
109.3499, 610.6447
109.8320, 623.0986
110.3141, 636.4228
110.7962, 651.8616
111.2783, 667.0242
111.7604, 681.9954
112.2426, 696.8490
112.7247, 710.9576
113.2068, 723.4169
113.6889, 735.6044
114.1710, 748.3401
114.6531, 763.2308
115.1353, 777.3035
115.6174, 789.3219
116.0995, 799.2325
116.5816, 809.8881
117.0637, 822.9167
117.5458, 836.9996
118.0280, 850.8820
118.5101, 862.7830
118.9922, 875.1761
119.4743, 889.1644
119.9564, 904.8649
120.4385, 922.4045
120.9207, 941.4271
121.4028, 962.3849
121.8849, 985.9597
122.3670, 1013.731
122.8491, 1044.150
123.3312, 1074.707
123.8134, 1104.587
124.2955, 1137.512
124.7776, 1176.329
125.2597, 1221.028
125.7418, 1271.384
126.2239, 1329.944
126.7061, 1394.425
127.1882, 1460.544
127.6703, 1531.873
128.1524, 1598.228
128.6345, 1651.383
129.1166, 1689.916
129.5988, 1702.631
130.0809, 1673.919
130.5630, 1609.511
131.0451, 1532.465
131.5272, 1442.382
132.0093, 1347.131
132.4915, 1262.001
132.9736, 1187.125
133.4557, 1122.876
133.9378, 1071.122
134.4199, 1031.689
134.9020, 1001.755
135.3842, 981.7465
135.8663, 971.1781
136.3484, 965.8941
136.8305, 966.4748
137.3126, 970.9054
137.7947, 978.7244
138.2769, 991.3875
138.7590, 1000.027
139.2411, 1002.256
139.7232, 997.9794
140.2053, 988.7917
140.6874, 973.4902
141.1696, 954.6839
141.6517, 935.5867
142.1338, 915.1876
142.6159, 896.5871
143.0980, 880.4420
143.5801, 866.9104
144.0623, 855.8651
144.5444, 847.6632
145.0265, 841.7996
145.5086, 837.6630
145.9907, 835.9316
146.4728, 835.0331
146.9550, 834.4477
147.4371, 833.9693
147.9192, 834.3154
148.4013, 835.4230
148.8834, 837.3485
149.3655, 840.2592
149.8477, 843.8528
150.3298, 848.6707
150.8119, 854.9142
151.2940, 863.3235
151.7761, 872.0603
152.2583, 880.1260
152.7404, 888.2467
153.2225, 898.6107
153.7046, 913.2229
154.1867, 928.7297
154.6688, 943.5866
155.1510, 958.5801
155.6331, 972.0334
156.1152, 984.7089
156.5973, 995.9657
157.0794, 1002.911
157.5615, 1003.434
158.0437, 1000.454
158.5258, 995.7694
159.0079, 987.9890
159.4900, 980.4035
159.9721, 973.4403
160.4542, 967.2278
160.9364, 962.5148
161.4185, 959.6687
161.9006, 958.3820
162.3827, 958.4063
162.8648, 959.8323
163.3469, 962.4009
163.8291, 966.0975
164.3112, 970.8702
164.7933, 976.5325
165.2754, 983.4318
165.7575, 991.0130
166.2396, 998.6923
166.7218, 1005.772
167.2039, 1013.249
167.6860, 1021.433
168.1681, 1030.294
168.6502, 1040.795
169.1323, 1052.668
169.6145, 1066.625
170.0966, 1083.594
170.5787, 1104.111
171.0608, 1127.701
171.5429, 1154.483
172.0250, 1184.775
172.5072, 1216.332
172.9893, 1250.842
173.4714, 1285.826
173.9535, 1316.692
174.4356, 1345.947
174.9177, 1367.932
175.3999, 1377.170
175.8820, 1373.479
176.3641, 1356.023
176.8462, 1319.859
177.3283, 1268.704
177.8104, 1211.910
178.2926, 1148.997
178.7747, 1084.993
179.2568, 1028.062
179.7389, 979.1599
180.2210, 936.5368
180.7031, 900.3390
181.1853, 869.8938
181.6674, 844.0276
182.1495, 823.3486
182.6316, 806.8517
183.1137, 792.9752
183.5958, 781.6429
184.0780, 772.3810
184.5601, 764.7636
185.0422, 758.8030
185.5243, 753.5695
186.0064, 748.5717
186.4885, 743.9457
186.9707, 740.4810
187.4528, 738.3630
187.9349, 736.9320
188.4170, 734.9626
188.8991, 732.5209
189.3812, 730.7687
189.8634, 730.5602
190.3455, 731.6835
190.8276, 732.7921
191.3097, 733.7551
191.7918, 734.7746
192.2739, 736.0645
192.7561, 737.6231
193.2382, 739.7975
193.7203, 743.1125
194.2024, 747.4422
194.6845, 751.4073
195.1666, 754.9278
195.6488, 757.9623
196.1309, 760.8415
196.6130, 763.7875
197.0951, 764.9827
197.5772, 763.1248
198.0593, 758.1917
198.5415, 752.3212
199.0236, 745.4299
199.5057, 737.9661
199.9878, 731.0201
200.4699, 724.6029
200.9520, 718.6293
201.4342, 713.1217
201.9163, 708.0540
202.3984, 703.4133
202.8805, 699.1896
203.3626, 695.3970
203.8447, 692.1165
204.3269, 689.4033
204.8090, 686.9857
205.2911, 684.7156
205.7732, 682.5489
206.2553, 680.7571
206.7374, 679.4160
207.2196, 678.4239
207.7017, 677.4336
208.1838, 676.3077
208.6659, 675.5681
209.1480, 675.7244
209.6301, 677.1154
210.1123, 677.7861
210.5944, 677.3370
211.0765, 676.2586
211.5586, 676.0408
212.0407, 677.0211
212.5228, 678.1042
213.0050, 678.5878
213.4871, 678.1979
213.9692, 678.2305
214.4513, 678.8408
214.9334, 679.8763
215.4155, 680.9164
215.8977, 681.9385
216.3798, 682.9923
216.8619, 684.0192
217.3440, 684.8291
217.8261, 686.2057
218.3082, 688.3765
218.7904, 691.0569
219.2725, 693.3922
219.7546, 695.3171
220.2367, 696.9732
220.7188, 698.3031
221.2009, 698.9864
221.6831, 700.3259
222.1652, 702.6902
222.6473, 705.6638
223.1294, 707.8685
223.6115, 708.8687
224.0936, 709.8874
224.5758, 711.5007
225.0579, 713.7539
225.5400, 716.5417
226.0221, 720.0367
226.5042, 724.0368
226.9863, 727.8040
227.4685, 731.0178
227.9506, 734.5677
228.4327, 738.8629
228.9148, 744.1667
229.3969, 749.6552
229.8790, 755.0344
230.3612, 760.6686
230.8433, 767.6013
231.3254, 776.7590
231.8075, 785.9143
232.2896, 794.1898
232.7717, 801.5290
233.2539, 808.1006
233.7360, 813.9403
234.2181, 818.8802
234.7002, 822.6548
235.1823, 825.7247
235.6644, 826.8451
236.1466, 825.4554
236.6287, 821.2028
237.1108, 815.3068
237.5929, 807.3094
238.0750, 797.9456
238.5571, 788.7490
239.0393, 779.7897
239.5214, 770.9014
240.0035, 761.9678
240.4856, 752.6133
240.9677, 744.1393
241.4498, 736.6322
241.9320, 729.9991
242.4141, 723.9766
242.8962, 718.7899
243.3783, 713.8734
243.8604, 708.9719
244.3425, 703.8899
244.8247, 699.6222
245.3068, 696.4915
245.7889, 693.9852
246.2710, 691.2110
246.7531, 687.9032
247.2352, 684.7693
247.7174, 682.0018
248.1995, 679.6453
248.6816, 677.5087
249.1637, 675.5648
249.6458, 673.8384
250.1279, 672.4189
250.6101, 671.4311
251.0922, 670.4689
251.5743, 669.3689
252.0564, 668.0553
252.5385, 667.1406
253.0206, 666.7664
253.5028, 666.6580
253.9849, 666.5223
254.4670, 666.4268
254.9491, 666.1478
255.4312, 665.4694
255.9133, 664.3383
256.3955, 663.9555
256.8776, 664.6036
257.3597, 665.6878
257.8418, 666.5989
258.3239, 667.2969
258.8061, 667.8987
259.2882, 668.2874
259.7703, 668.4775
260.2524, 669.3700
260.7345, 671.2595
261.2166, 673.4459
261.6988, 675.3528
262.1809, 676.8854
262.6630, 678.2893
263.1451, 679.4452
263.6272, 680.4486
264.1093, 682.0846
264.5915, 684.5282
265.0736, 687.3323
265.5557, 690.2404
266.0378, 693.2331
266.5199, 696.2111
267.0020, 699.0354
267.4842, 701.8331
267.9663, 705.1455
268.4484, 709.0769
268.9305, 713.2536
269.4126, 717.3101
269.8947, 721.1840
270.3769, 725.4286
270.8590, 730.1140
271.3411, 735.2307
271.8232, 740.6064
272.3053, 746.2310
272.7874, 752.1082
273.2696, 758.3074
273.7517, 764.8331
274.2338, 771.6152
274.7159, 778.6785
275.1980, 786.0284
275.6801, 793.5329
276.1623, 801.2133
276.6444, 808.9799
277.1265, 816.8803
277.6086, 825.0649
278.0907, 832.8325
278.5728, 840.3117
279.0550, 847.2397
279.5371, 853.0392
280.0192, 857.6285
280.5013, 861.7605
280.9834, 866.0823
281.4655, 870.5446
281.9477, 873.2865
282.4298, 874.1841
282.9119, 873.5895
283.3940, 871.8038
283.8761, 868.8054
284.3582, 865.0416
284.8404, 860.6604
285.3225, 855.6385
285.8046, 849.7487
286.2867, 842.9595
286.7688, 835.6910
287.2509, 828.1528
287.7331, 820.4033
288.2152, 813.2268
288.6973, 806.9141
289.1794, 801.3325
289.6615, 796.2070
290.1436, 791.5104
290.6258, 787.2118
291.1079, 783.1503
291.5900, 779.3880
292.0721, 776.2568
292.5542, 774.0625
293.0363, 772.4052
293.5185, 770.5016
294.0006, 768.3423
294.4827, 766.1845
294.9648, 764.2575
295.4469, 762.4485
295.9290, 760.4724
296.4112, 758.2893
296.8933, 755.8356
297.3754, 752.9622
297.8575, 749.7167
298.3396, 746.3229
298.8217, 742.6973
299.3039, 739.0651
299.7860, 735.9840
300.2681, 733.5411
300.7502, 731.5082
301.2323, 729.6445
301.7144, 727.9664
302.1966, 726.6420
302.6787, 726.0915
303.1608, 725.7900
303.6429, 724.9557
304.1250, 723.4868
304.6071, 721.8457
305.0893, 720.6620
305.5714, 719.6183
306.0535, 718.1005
306.5356, 715.7982
307.0177, 712.9019
307.4998, 709.5334
307.9820, 705.6713
308.4641, 701.6199
308.9462, 697.5027
309.4283, 693.3387
309.9104, 689.2000
310.3925, 685.0843
310.8747, 681.0808
311.3568, 677.1204
311.8389, 673.2761
312.3210, 670.0779
312.8031, 667.9416
313.2852, 666.5060
313.7674, 665.4524
314.2495, 665.1100
314.7316, 664.6097
315.2137, 663.4025
315.6958, 661.6590
316.1779, 659.9578
316.6601, 658.5137
317.1422, 657.1960
317.6243, 655.9044
318.1064, 654.5335
318.5885, 653.3820
319.0706, 652.5309
319.5528, 651.9632
320.0349, 651.6497
320.5170, 651.9957
320.9991, 652.2490
321.4812, 651.9696
321.9633, 650.8827
322.4455, 650.1465
322.9276, 650.3037
323.4097, 650.8315
323.8918, 651.0893
324.3739, 650.5257
324.8560, 650.1374
325.3382, 650.2654
325.8203, 650.9908
326.3024, 651.5964
326.7845, 652.1804
327.2666, 652.5605
327.7487, 652.5872
328.2309, 651.9128
328.7130, 651.2971
329.1951, 650.6461
329.6772, 650.0172
330.1593, 650.0213
330.6414, 651.1978
331.1236, 652.4854
331.6057, 653.3123
332.0878, 653.4532
332.5699, 653.5178
333.0520, 653.5531
333.5341, 653.5065
334.0163, 653.1615
334.4984, 652.1437
334.9805, 651.4535
335.4626, 651.6231
335.9447, 652.9949
336.4268, 653.8986
336.9090, 654.2270
337.3911, 654.2191
337.8732, 654.2108
338.3553, 654.1815
338.8374, 654.2551
339.3195, 654.5238
339.8017, 654.9794
340.2838, 655.2664
340.7659, 655.3275
341.2480, 655.3879
341.7301, 655.6149
342.2122, 655.9963
342.6944, 656.7779
343.1765, 658.1481
343.6586, 659.8912
344.1407, 661.2013
344.6228, 662.0399
345.1049, 662.8114
345.5871, 663.8446
346.0692, 665.1013
346.5513, 666.1874
347.0334, 666.9700
347.5155, 667.7350
347.9977, 669.0389
348.4798, 670.8276
348.9619, 672.5636
349.4440, 674.0296
349.9261, 675.2122
350.4082, 675.9260
350.8904, 676.0775
351.3725, 676.3210
351.8546, 677.4515
352.3367, 679.2350
352.8188, 681.0621
353.3009, 682.7147
353.7831, 684.2444
354.2652, 685.6998
354.7473, 687.0812
355.2294, 688.4083
355.7115, 689.6648
356.1936, 690.8859
356.6758, 692.1254
357.1579, 693.5145
357.6400, 694.8034
358.1221, 695.8882
358.6042, 696.7432
359.0863, 697.3085
359.5685, 697.5038
360.0506, 697.4338
360.5327, 697.1890
361.0148, 696.8246
361.4969, 696.1907
361.9790, 695.0817
362.4612, 693.6863
362.9433, 692.3036
363.4254, 691.4217
363.9075, 690.2154
364.3896, 688.1595
364.8717, 685.0716
365.3539, 682.2878
365.8360, 680.3220
366.3181, 678.6600
366.8002, 676.7809
367.2823, 674.4804
367.7644, 672.1143
368.2466, 669.5726
368.7287, 666.8972
369.2108, 664.6628
369.6929, 662.9945
370.1750, 661.6376
370.6571, 660.4996
371.1393, 659.7440
371.6214, 658.9208
372.1035, 658.0350
372.5856, 657.0763
373.0677, 655.9652
373.5498, 654.4128
374.0320, 653.2646
374.5141, 653.0387
374.9962, 653.9283
375.4783, 653.9813
375.9604, 652.9567
376.4425, 651.4943
376.9247, 650.2484
377.4068, 649.1959
377.8889, 648.6046
378.3710, 648.7435
378.8531, 649.3586
379.3352, 649.3652
379.8174, 648.7200
380.2995, 647.7568
380.7816, 646.5214
381.2637, 645.0858
381.7458, 644.2226
382.2279, 644.1694
382.7101, 644.4345
383.1922, 644.1678
383.6743, 643.4421
384.1564, 642.7743
384.6385, 642.4496
385.1206, 642.3732
385.6028, 642.4905
386.0849, 642.8401
386.5670, 642.9058
387.0491, 641.7436
387.5312, 639.9752
388.0133, 638.8408
388.4955, 639.2585
388.9776, 640.1081
389.4597, 640.4584
389.9418, 640.3433
390.4239, 639.9776
390.9060, 639.2517
391.3882, 638.4554
391.8703, 637.8582
392.3524, 637.5466
392.8345, 637.3589
393.3166, 637.3702
393.7987, 637.4417
394.2809, 637.2973
394.7630, 636.4655
395.2451, 635.7235
395.7272, 635.4586
396.2093, 635.7812
396.6914, 636.0641
397.1736, 635.7784
397.6557, 635.5828
398.1378, 636.0840
398.6199, 638.9298
399.1020, 640.6510
399.5841, 640.2961
400.0663, 638.2141
400.5484, 636.7598
401.0305, 636.3611
401.5126, 636.1315
401.9947, 635.6053
402.4768, 634.4873
402.9590, 633.8412
403.4411, 633.8716
403.9232, 634.2405
404.4053, 634.3529
404.8874, 634.1614
405.3695, 633.8839
405.8517, 633.5334
406.3338, 633.1360
406.8159, 633.0151
407.2980, 633.2350
407.7801, 633.5214
408.2622, 633.5950
408.7444, 633.4640
409.2265, 633.3339
409.7086, 633.2086
410.1907, 633.1326
410.6728, 633.3702
411.1549, 633.8633
411.6371, 634.0100
412.1192, 632.9193
412.6013, 631.2800
413.0834, 630.8148
413.5655, 631.7854
414.0476, 632.8993
414.5298, 632.9959
415.0119, 632.3131
415.4940, 631.3239
415.9761, 629.7496
416.4582, 628.3112
416.9403, 627.9125
417.4225, 628.3745
417.9046, 628.5948
418.3867, 627.6942
418.8688, 626.4274
419.3509, 625.4160
419.8330, 624.7950
420.3152, 624.4088
420.7973, 624.6286
421.2794, 624.9955
421.7615, 624.6760
422.2436, 622.3895
422.7257, 620.3974
423.2079, 619.6260
423.6900, 620.3060
424.1721, 620.7326
424.6542, 620.4733
425.1363, 620.0992
425.6184, 620.0313
426.1006, 620.5471
426.5827, 620.9305
427.0648, 621.1154
427.5469, 621.1180
428.0290, 620.9408
428.5111, 620.3478
428.9933, 620.0107
429.4754, 620.3204
429.9575, 621.3943
430.4396, 622.1844
430.9217, 622.6364
431.4038, 622.9122
431.8860, 623.2084
432.3681, 623.5297
432.8502, 623.7816
433.3323, 623.9261
433.8144, 624.0087
434.2965, 624.0182
434.7787, 623.9697
435.2608, 624.2721
435.7429, 625.5973
436.2250, 627.4886
436.7071, 628.6504
437.1892, 628.7757
437.6714, 628.8782
438.1535, 630.1232
438.6356, 632.1700
439.1177, 634.2582
439.5998, 636.1100
440.0819, 637.8098
440.5641, 639.4601
441.0462, 641.0391
441.5283, 642.3897
442.0104, 643.1454
442.4925, 643.7617
442.9746, 644.6369
443.4568, 646.0945
443.9389, 647.3705
444.4210, 648.4068
444.9031, 649.0803
445.3852, 649.1600
445.8673, 648.4773
446.3495, 647.3151
446.8316, 645.7772
447.3137, 643.8884
447.7958, 641.4100
448.2779, 637.6810
448.7600, 633.9601
449.2422, 631.2571
449.7243, 630.2102
450.2064, 628.7976
450.6885, 626.6084
451.1706, 624.0433
451.6527, 622.3013
452.1349, 621.5550
452.6170, 620.9539
453.0991, 620.0150
453.5812, 618.7592
454.0633, 618.3524
454.5454, 618.9669
455.0276, 619.5439
455.5097, 618.6490
455.9918, 616.5599
456.4739, 614.9862
456.9560, 614.3893
457.4381, 614.3771
457.9203, 614.4561
458.4024, 614.6083
458.8845, 614.7511
459.3666, 614.9523
459.8488, 615.0643
460.3309, 614.7901
460.8130, 614.0690
461.2951, 613.4847
461.7772, 613.7858
462.2593, 614.3472
462.7415, 614.4254
463.2236, 613.0646
463.7057, 611.9096
464.1878, 611.9527
464.6699, 612.8116
465.1520, 613.1311
465.6342, 611.9161
466.1163, 610.6242
466.5984, 609.8505
467.0805, 609.7101
467.5626, 609.9304
468.0447, 610.7796
468.5269, 611.8094
469.0090, 612.5771
469.4911, 612.9806
469.9732, 613.2961
470.4553, 613.5336
470.9374, 613.7116
471.4196, 613.9424
471.9017, 614.2548
472.3838, 614.5026
472.8659, 614.5038
473.3480, 614.2532
473.8301, 614.4180
474.3123, 615.0922
474.7944, 615.8290
475.2765, 615.9875
475.7586, 615.6849
476.2407, 615.5521
476.7228, 615.8392
477.2050, 616.3318
477.6871, 616.7708
478.1692, 617.1497
478.6513, 617.4079
479.1334, 617.3195
479.6155, 617.2007
480.0977, 617.4999
480.5798, 618.3497
481.0619, 619.0397
481.5440, 618.8320
482.0261, 618.3434
482.5082, 618.2864
482.9904, 619.2602
483.4725, 620.2940
483.9546, 621.1147
484.4367, 621.7566
484.9188, 622.3681
485.4009, 622.9163
485.8831, 623.4776
486.3652, 624.0769
486.8473, 624.6935
487.3294, 625.3616
487.8115, 626.1107
488.2936, 626.8624
488.7758, 627.5776
489.2579, 628.3167
489.7400, 628.7618
490.2221, 628.7293
490.7042, 628.4437
491.1863, 628.6650
491.6685, 629.4484
492.1506, 630.1991
492.6327, 630.5189
493.1148, 630.5214
493.5969, 630.6633
494.0790, 630.9606
494.5612, 631.4380
495.0433, 632.2808
495.5254, 633.3245
496.0075, 634.2191
496.4896, 634.8394
496.9717, 635.3245
497.4539, 635.6660
497.9360, 635.9564
498.4181, 636.4172
498.9002, 637.3619
499.3823, 638.3464
499.8644, 639.0406
500.3466, 639.3932
500.8287, 639.8291
501.3108, 640.3801
501.7929, 641.1014
502.2750, 642.0298
502.7571, 643.4382
503.2393, 644.7062
503.7214, 645.7953
504.2035, 646.7191
504.6856, 647.4683
505.1677, 647.7342
505.6498, 648.4167
506.1320, 649.9860
506.6141, 652.4026
507.0962, 654.0556
507.5783, 654.7887
508.0604, 655.3184
508.5425, 656.2490
509.0247, 657.5530
509.5068, 658.7844
509.9889, 659.8916
510.4710, 660.9437
510.9531, 661.9739
511.4352, 663.0174
511.9174, 664.1987
512.3995, 665.7666
512.8816, 667.3640
513.3637, 668.4283
513.8458, 669.0685
514.3279, 669.9692
514.8101, 671.7575
515.2922, 673.8161
515.7743, 675.6202
516.2564, 676.9892
516.7385, 678.4265
517.2206, 680.2037
517.7028, 682.0803
518.1849, 683.7759
518.6670, 684.8220
519.1491, 686.1853
519.6312, 688.2029
520.1133, 690.6839
520.5955, 692.8992
521.0776, 694.8134
521.5597, 696.5161
522.0418, 697.9904
522.5239, 699.2187
523.0060, 700.6736
523.4882, 702.4803
523.9703, 704.2302
524.4524, 705.4874
524.9345, 706.2682
525.4166, 706.8751
525.8987, 707.3764
526.3809, 707.7037
526.8630, 707.6069
527.3451, 707.1908
527.8272, 706.9124
528.3093, 707.0357
528.7914, 707.3726
529.2736, 707.8383
529.7557, 708.3958
530.2378, 708.6907
530.7199, 708.3871
531.2020, 707.8048
531.6841, 707.2301
532.1663, 706.8115
532.6484, 706.1683
533.1305, 704.9993
533.6126, 703.6103
534.0947, 702.4156
534.5768, 701.3566
535.0590, 700.6602
535.5411, 700.6008
536.0232, 701.0192
536.5053, 700.8314
536.9874, 699.7166
537.4695, 698.7523
537.9517, 698.6060
538.4338, 699.3341
538.9159, 699.7797
539.3980, 699.9307
539.8801, 699.8460
540.3622, 699.2402
540.8444, 698.3431
541.3265, 698.2728
541.8086, 699.4064
542.2907, 701.1866
542.7728, 703.0701
543.2549, 705.0341
543.7371, 706.9725
544.2192, 708.7912
544.7013, 710.5906
545.1834, 712.5310
545.6655, 714.6111
546.1476, 716.5099
546.6298, 717.4928
547.1119, 718.6736
547.5940, 720.8895
548.0761, 725.0150
548.5582, 728.6325
549.0403, 731.1835
549.5225, 733.3568
550.0046, 735.9031
550.4867, 738.8221
550.9688, 742.1388
551.4509, 745.9811
551.9330, 750.1991
552.4152, 754.2324
552.8973, 758.1186
553.3794, 761.6664
553.8615, 764.4178
554.3436, 766.6345
554.8257, 769.8718
555.3079, 774.1340
555.7900, 778.7985
556.2721, 783.5539
556.7542, 788.2156
557.2363, 792.3582
557.7184, 795.7861
558.2006, 799.0087
558.6827, 802.6219
559.1648, 806.2647
559.6469, 809.4006
560.1290, 811.7945
560.6111, 813.6509
561.0933, 815.0228
561.5754, 815.9184
562.0575, 816.2976
562.5396, 816.4183
563.0217, 815.7601
563.5038, 814.1320
563.9860, 811.4958
564.4681, 807.8669
564.9502, 802.8429
565.4323, 797.4544
565.9144, 792.7768
566.3965, 788.8382
566.8787, 784.9821
567.3608, 781.1430
567.8429, 777.3619
568.3250, 773.9625
568.8071, 770.8411
569.2892, 767.5446
569.7714, 763.4691
570.2535, 759.3987
570.7356, 756.6591
571.2177, 755.0346
571.6998, 753.5026
572.1819, 751.2823
572.6641, 748.9728
573.1462, 747.1321
573.6283, 745.9351
574.1104, 744.4724
574.5925, 742.2818
575.0746, 739.7816
575.5568, 737.3034
576.0389, 734.7387
576.5210, 732.4737
577.0031, 730.7126
577.4852, 729.1667
577.9673, 727.1924
578.4495, 724.6263
578.9316, 722.0779
579.4137, 719.5287
579.8958, 717.2010
580.3779, 716.3391
580.8600, 717.0306
581.3422, 717.2422
581.8243, 715.0350
582.3064, 711.4072
582.7885, 708.6168
583.2706, 706.8287
583.7527, 705.6695
584.2349, 705.3110
584.7170, 705.1883
585.1991, 704.5585
585.6812, 702.8759
586.1633, 701.2324
586.6454, 700.2305
587.1276, 699.5420
587.6097, 698.5936
588.0918, 696.6979
588.5739, 695.1691
589.0560, 694.3792
589.5381, 694.2303
590.0203, 694.0350
590.5024, 693.8343
590.9845, 693.5179
591.4666, 692.9827
591.9487, 692.2294
592.4308, 691.7166
592.9130, 691.4934
593.3951, 691.3115
593.8772, 690.8632
594.3593, 690.2564
594.8414, 689.8816
595.3235, 689.8808
595.8057, 689.8990
596.2878, 689.4894
596.7699, 688.8459
597.2520, 688.3385
597.7341, 688.1471
598.2162, 688.0768
598.6984, 688.1668
599.1805, 688.3189
599.6626, 688.1951
600.1447, 687.3768
600.6268, 686.5778
601.1089, 686.0456
601.5911, 685.7858
602.0732, 685.7048
602.5553, 686.0169
603.0374, 686.1706
603.5195, 685.6644
604.0016, 684.4320
604.4838, 683.5127
604.9659, 683.0377
605.4480, 682.6726
605.9301, 681.8480
606.4122, 680.7332
606.8943, 680.0344
607.3765, 680.1046
607.8586, 680.3909
608.3407, 680.3753
608.8228, 680.0973
609.3049, 679.6550
609.7870, 679.0787
610.2692, 678.3525
610.7513, 677.2958
611.2334, 675.9670
611.7155, 675.0176
612.1976, 675.0225
612.6797, 675.0323
613.1619, 674.5732
613.6440, 673.4786
614.1261, 672.7074
614.6082, 672.3914
615.0903, 672.1873
615.5724, 671.7299
616.0546, 671.0065
616.5367, 670.5023
617.0188, 670.3253
617.5009, 670.2585
617.9830, 669.9999
618.4651, 669.5838
618.9473, 669.1236
619.4294, 668.6172
619.9115, 668.1282
620.3936, 667.7540
620.8757, 667.4482
621.3578, 667.0721
621.8400, 666.4245
622.3221, 665.8126
622.8042, 665.3891
623.2863, 665.1617
623.7684, 665.0551
624.2505, 665.2767
624.7327, 665.4125
625.2148, 665.2264
625.6969, 664.6087
626.1790, 664.1074
626.6611, 663.7006
627.1432, 663.4724
627.6254, 663.6133
628.1075, 664.0928
628.5896, 664.3992
629.0717, 664.4075
629.5538, 664.3126
630.0359, 664.4014
630.5181, 664.5899
631.0002, 664.6725
631.4823, 664.4461
631.9644, 664.1956
632.4465, 664.0495
632.9286, 664.0295
633.4108, 664.2101
633.8929, 664.9344
634.3750, 665.5607
634.8571, 665.7508
635.3392, 665.4727
635.8214, 665.4243
636.3035, 665.7340
636.7856, 666.1052
637.2677, 666.4334
637.7498, 666.7590
638.2319, 666.6648
638.7141, 666.0272
639.1962, 665.4714
639.6783, 665.8758
640.1604, 666.9583
640.6425, 667.5624
641.1246, 667.3853
641.6068, 667.0147
642.0889, 666.9025
642.5710, 667.0417
643.0531, 667.4222
643.5352, 668.1850
644.0173, 669.0303
644.4995, 669.9794
644.9816, 670.9205
645.4637, 671.5713
645.9458, 671.4504
646.4279, 671.5014
646.9100, 672.0439
647.3922, 673.0216
647.8743, 673.5522
648.3564, 673.3951
648.8385, 673.5143
649.3206, 674.6835
649.8027, 676.7582
650.2849, 678.2556
650.7670, 679.1420
651.2491, 679.8809
651.7312, 681.2159
652.2133, 682.5659
652.6954, 682.7867
653.1776, 681.3634
653.6597, 680.1322
654.1418, 680.2188
654.6239, 681.1074
655.1060, 682.1934
655.5881, 684.1176
656.0703, 685.2689
656.5524, 684.7803
657.0345, 683.5477
657.5166, 683.1440
657.9987, 683.8130
658.4808, 684.7205
658.9630, 685.8397
659.4451, 686.9876
659.9272, 687.3950
660.4093, 687.0604
660.8914, 686.8671
661.3735, 687.4295
661.8557, 688.4037
662.3378, 689.1915
662.8199, 689.8093
663.3020, 690.3990
663.7841, 690.9003
664.2662, 691.5215
664.7484, 692.5269
665.2305, 694.0253
665.7126, 695.3134
666.1947, 696.1224
666.6768, 696.7180
667.1589, 697.2624
667.6411, 697.5323
668.1232, 698.2391
668.6053, 699.4886
669.0874, 701.0164
669.5695, 702.6065
670.0516, 704.2562
670.5338, 705.4806
671.0159, 706.0534
671.4980, 706.4593
671.9801, 707.5234
672.4622, 709.0195
672.9443, 710.3020
673.4265, 711.3359
673.9086, 711.8591
674.3907, 711.3102
674.8728, 710.0691
675.3549, 709.2996
675.8370, 710.0668
676.3192, 710.6426
676.8013, 710.2458
677.2834, 708.9853
677.7655, 708.1863
678.2476, 708.0446
678.7297, 707.9827
679.2119, 707.7812
679.6940, 707.4310
680.1761, 706.7128
680.6582, 705.5992
681.1403, 704.3969
681.6224, 703.1797
682.1046, 702.0939
682.5867, 701.5518
683.0688, 701.6580
683.5509, 701.7481
684.0330, 701.1778
684.5151, 700.4485
684.9973, 700.0824
685.4794, 700.4651
685.9615, 700.7433
686.4436, 700.7780
686.9257, 700.6467
687.4078, 700.4009
687.8900, 699.9312
688.3721, 699.6684
688.8542, 699.7332
689.3363, 699.9781
689.8184, 700.1965
690.3005, 700.3713
690.7827, 700.2235
691.2648, 699.3865
691.7469, 698.4356
692.2290, 698.2016
692.7111, 698.5580
693.1932, 699.1220
693.6754, 699.8237
694.1575, 700.5563
694.6396, 701.3932
695.1217, 702.2827
695.6038, 702.7285
696.0859, 702.2397
696.5681, 701.6998
697.0502, 701.3422
697.5323, 701.1549
698.0144, 701.6456
698.4965, 703.0664
698.9786, 704.2787
699.4608, 704.0880
699.9429, 702.9006
700.4250, 702.7444
700.9071, 703.7961
701.3892, 704.7783
701.8713, 704.1210
702.3535, 702.9410
702.8356, 702.7320
703.3177, 704.1178
703.7998, 705.4335
704.2819, 706.0843
704.7640, 706.3217
705.2462, 706.3758
705.7283, 705.7980
706.2104, 705.8918
706.6925, 707.0925
707.1746, 708.6176
707.6567, 709.0861
708.1389, 708.4119
708.6210, 708.0363
709.1031, 708.3585
709.5852, 709.0125
710.0673, 709.5546
710.5494, 709.9409
711.0316, 710.0513
711.5137, 709.3050
711.9958, 708.7435
712.4779, 709.2494
712.9600, 710.5248
713.4421, 711.6418
713.9243, 712.5149
714.4064, 713.0189
714.8885, 712.9774
715.3706, 712.4808
715.8527, 712.2852
716.3348, 712.5164
716.8170, 712.6530
717.2991, 712.2760
717.7812, 711.5715
718.2633, 711.6002
718.7454, 712.3469
719.2275, 713.2458
719.7097, 714.0880
720.1918, 714.7631
720.6739, 715.1418
721.1560, 715.2119
721.6381, 715.0822
722.1202, 714.4346
722.6024, 713.8758
723.0845, 713.8900
723.5666, 714.7975
724.0487, 715.3882
724.5308, 715.5425
725.0129, 715.5536
725.4951, 715.6631
725.9772, 715.8792
726.4593, 716.0254
726.9414, 716.0607
727.4235, 716.1426
727.9056, 716.6315
728.3878, 717.2741
728.8699, 717.4167
729.3520, 716.6573
729.8341, 716.1158
730.3162, 716.9659
730.7983, 718.3196
731.2805, 719.0698
731.7626, 718.2820
732.2447, 717.7625
732.7268, 717.7275
733.2089, 718.0271
733.6910, 718.4421
734.1732, 718.9977
734.6553, 719.5839
735.1374, 720.1702
735.6195, 720.7834
736.1016, 721.5809
736.5837, 722.4774
737.0659, 723.0972
737.5480, 723.0667
738.0301, 722.9119
738.5122, 723.0379
738.9943, 723.4054
739.4764, 723.9237
739.9586, 724.8448
740.4407, 725.6063
740.9228, 725.8973
741.4049, 725.8444
741.8870, 726.0244
742.3691, 726.5516
742.8513, 727.0088
743.3334, 727.2625
743.8155, 727.3259
744.2976, 727.1565
744.7797, 726.7761
745.2618, 726.4871
745.7440, 726.6348
746.2261, 726.8834
746.7082, 726.7836
747.1903, 726.3647
747.6724, 726.0067
748.1545, 725.6148
748.6367, 725.5512
749.1188, 726.1988
749.6009, 727.6858
750.0830, 728.5699
750.5651, 728.6239
751.0472, 728.5013
751.5294, 728.5887
752.0115, 728.8737
752.4936, 729.0399
752.9757, 729.0859
753.4578, 729.0400
753.9399, 728.6308
754.4221, 728.2726
754.9042, 728.8066
755.3863, 730.4161
755.8684, 731.7020
756.3505, 731.6984
756.8326, 731.2684
757.3148, 731.0802
757.7969, 731.3288
758.2790, 731.4899
758.7611, 731.4797
759.2432, 731.4994
759.7253, 731.7467
760.2075, 732.2256
760.6896, 732.6867
761.1717, 733.1257
761.6538, 733.4518
762.1359, 733.4653
762.6180, 733.3244
763.1002, 733.3270
763.5823, 733.5658
764.0644, 733.8444
764.5465, 734.0997
765.0286, 734.3304
765.5107, 734.5330
765.9929, 734.5893
766.4750, 734.8357
766.9571, 735.3998
767.4392, 736.0412
767.9213, 736.4738
768.4034, 736.6971
768.8856, 736.7297
769.3677, 736.5161
769.8498, 736.2927
770.3319, 736.3653
770.8140, 736.6481
771.2961, 736.9589
771.7783, 737.1813
772.2604, 737.5095
772.7425, 738.2086
773.2246, 739.0217
773.7067, 739.5692
774.1888, 739.7260
774.6710, 739.7170
775.1531, 739.4409
775.6352, 739.1201
776.1173, 739.1884
776.5994, 739.6584
777.0815, 740.1516
777.5637, 740.5555
778.0458, 740.9930
778.5279, 741.7669
779.0100, 742.7025
779.4921, 743.4082
779.9742, 743.7245
780.4564, 743.7599
780.9385, 743.2395
781.4206, 742.5039
781.9027, 742.3227
782.3848, 743.0651
782.8669, 743.8067
783.3491, 744.4990
783.8312, 745.0416
784.3133, 745.0450
784.7954, 744.5316
785.2775, 744.2591
785.7596, 744.6227
786.2418, 745.1678
786.7239, 745.1885
787.2060, 744.8886
787.6881, 744.7625
788.1702, 745.0945
788.6523, 745.5697
789.1345, 746.1340
789.6166, 746.7426
790.0987, 747.2892
790.5808, 747.7191
791.0629, 748.1726
791.5450, 748.6805
792.0272, 749.2233
792.5093, 749.7222
792.9914, 750.1846
793.4735, 750.6546
793.9556, 751.1943
794.4377, 751.7115
794.9199, 751.9938
795.4020, 752.1656
795.8841, 752.5421
796.3662, 753.7580
796.8483, 754.6533
797.3304, 754.5521
797.8126, 753.8059
798.2947, 753.4910
798.7768, 753.6953
799.2589, 754.1197
799.7410, 754.7737
800.2231, 755.5157
800.7053, 755.9418
801.1874, 756.0995
801.6695, 756.2513
802.1516, 756.5519
802.6337, 756.8787
803.1158, 756.9777
803.5980, 757.0048
804.0801, 757.3937
804.5622, 758.7698
805.0443, 759.9460
805.5264, 760.5342
806.0085, 760.7133
806.4907, 761.0836
806.9728, 761.6954
807.4549, 762.1931
807.9370, 762.3696
808.4191, 762.4570
808.9012, 763.0070
809.3834, 763.9065
809.8655, 764.7498
810.3476, 765.1345
810.8297, 765.6017
811.3118, 766.6996
811.7939, 768.1624
812.2761, 769.1705
812.7582, 769.2571
813.2403, 769.3759
813.7224, 769.7028
814.2045, 770.1928
814.6866, 770.7020
815.1688, 771.2209
815.6509, 771.8703
816.1330, 772.7150
816.6151, 773.6791
817.0972, 774.7862
817.5793, 775.9167
818.0615, 776.7992
818.5436, 777.0445
819.0257, 777.2864
819.5078, 777.6593
819.9899, 778.2153
820.4720, 779.1403
820.9542, 780.8100
821.4363, 781.8340
821.9184, 781.6457
822.4005, 780.9339
822.8826, 781.3621
823.3647, 782.7551
823.8469, 784.0806
824.3290, 785.0002
824.8111, 785.6678
825.2932, 786.0966
825.7753, 786.4152
826.2574, 786.8583
826.7396, 787.5023
827.2217, 788.3083
827.7038, 789.5139
828.1859, 790.7563
828.6681, 791.2447
829.1502, 790.8238
829.6323, 790.7184
830.1144, 791.2258
830.5966, 792.1127
831.0787, 793.1686
831.5608, 794.3196
832.0429, 795.4364
832.5250, 796.5451
833.0071, 797.4689
833.4893, 798.1365
833.9714, 798.5619
834.4535, 798.7322
834.9356, 798.1945
835.4177, 798.3274
835.8998, 799.3934
836.3820, 800.9543
836.8641, 802.4977
837.3462, 803.9971
837.8283, 805.2738
838.3104, 806.2435
838.7925, 807.0975
839.2747, 807.9134
839.7568, 808.7745
840.2389, 809.7993
840.7210, 811.0257
841.2031, 812.4161
841.6852, 814.5607
842.1674, 816.4258
842.6495, 816.7686
843.1316, 815.1705
843.6137, 814.6199
844.0958, 815.4756
844.5779, 816.8561
845.0601, 817.7758
845.5422, 818.4545
846.0243, 819.4031
846.5064, 820.7596
846.9885, 822.1006
847.4706, 823.0459
847.9528, 823.9658
848.4349, 825.2404
848.9170, 827.1631
849.3991, 828.5602
849.8812, 829.2582
850.3633, 829.7532
850.8455, 830.4230
851.3276, 831.2478
851.8097, 832.0942
852.2918, 832.9640
852.7739, 833.8848
853.2560, 834.9451
853.7382, 836.0511
854.2203, 837.0543
854.7024, 837.9141
855.1845, 839.1395
855.6666, 841.4202
856.1487, 843.4560
856.6309, 844.4520
857.1130, 844.4197
857.5951, 845.3757
858.0772, 847.4016
858.5593, 849.4617
859.0414, 850.7490
859.5236, 851.6982
860.0057, 852.8931
860.4878, 854.3486
860.9699, 856.0461
861.4520, 858.3326
861.9341, 860.5245
862.4163, 862.0941
862.8984, 863.2094
863.3805, 864.9947
863.8626, 867.5754
864.3447, 870.5182
864.8268, 873.7742
865.3090, 877.2184
865.7911, 880.4656
866.2732, 883.5616
866.7553, 886.5797
867.2374, 889.2613
867.7195, 892.2075
868.2017, 895.8815
868.6838, 900.0950
869.1659, 904.1735
869.6480, 907.7684
870.1301, 911.7685
870.6122, 916.4996
871.0944, 921.5144
871.5765, 925.5660
872.0586, 928.8662
872.5407, 933.0148
873.0228, 938.6646
873.5049, 944.9608
873.9871, 950.9420
874.4692, 957.1610
874.9513, 964.4797
875.4334, 974.0858
875.9155, 983.5164
876.3976, 991.8445
876.8798, 1000.575
877.3619, 1011.854
877.8440, 1025.782
878.3261, 1039.502
878.8082, 1052.633
879.2903, 1066.032
879.7725, 1080.423
880.2546, 1095.930
880.7367, 1112.763
881.2188, 1130.992
881.7009, 1150.295
882.1830, 1170.772
882.6652, 1192.229
883.1473, 1214.175
883.6294, 1236.605
884.1115, 1260.118
884.5936, 1284.783
885.0757, 1310.626
885.5579, 1338.124
886.0400, 1366.971
886.5221, 1396.811
887.0042, 1427.369
887.4863, 1458.430
887.9684, 1490.086
888.4506, 1521.983
888.9327, 1554.242
889.4148, 1586.886
889.8969, 1620.116
890.3790, 1654.474
890.8611, 1687.081
891.3433, 1716.739
891.8254, 1744.035
892.3075, 1772.265
892.7896, 1800.604
893.2717, 1824.916
893.7538, 1843.574
894.2360, 1857.531
894.7181, 1866.952
895.2002, 1871.863
895.6823, 1871.917
896.1644, 1867.259
896.6465, 1858.061
897.1287, 1844.297
897.6108, 1826.192
898.0929, 1804.306
898.5750, 1778.672
899.0571, 1749.099
899.5392, 1714.432
900.0214, 1678.391
900.5035, 1642.666
900.9856, 1607.536
901.4677, 1572.543
901.9498, 1537.623
902.4319, 1504.233
902.9141, 1472.201
903.3962, 1441.600
903.8783, 1412.149
904.3604, 1383.919
904.8425, 1356.239
905.3246, 1328.680
905.8068, 1302.913
906.2889, 1280.773
906.7710, 1260.338
907.2531, 1239.317
907.7352, 1217.453
908.2173, 1197.556
908.6995, 1180.798
909.1816, 1164.803
909.6637, 1148.781
910.1458, 1132.843
910.6279, 1118.166
911.1100, 1104.739
911.5922, 1092.341
912.0743, 1080.924
912.5564, 1070.266
913.0385, 1059.918
913.5206, 1050.133
914.0027, 1041.380
914.4849, 1034.771
914.9670, 1027.968
915.4491, 1020.160
915.9312, 1012.187
916.4133, 1006.015
916.8954, 1001.586
917.3776, 997.0997
917.8597, 992.0349
918.3418, 986.9244
918.8239, 982.3839
919.3060, 978.1563
919.7881, 973.8838
920.2703, 969.4257
920.7524, 964.9713
921.2345, 960.4036
921.7166, 955.9959
922.1987, 951.9640
922.6808, 948.3072
923.1630, 945.0759
923.6451, 942.2806
924.1272, 939.6533
924.6093, 936.8495
925.0914, 934.1485
925.5735, 931.8913
926.0557, 930.1176
926.5378, 928.5499
927.0199, 927.2242
927.5020, 925.9825
927.9841, 924.7937
928.4662, 923.6390
928.9484, 922.2177
929.4305, 920.5333
929.9126, 919.3533
930.3947, 919.1112
930.8768, 919.5002
931.3589, 920.5413
931.8411, 921.9174
932.3232, 922.9020
932.8053, 922.7989
933.2874, 922.9108
933.7695, 923.3254
934.2516, 924.1447
934.7338, 925.6252
935.2159, 927.7775
935.6980, 929.8517
936.1801, 931.7219
936.6622, 933.5405
937.1443, 935.4744
937.6265, 937.4357
938.1086, 939.2594
938.5907, 940.8732
939.0728, 942.5870
939.5549, 944.6094
940.0370, 946.5110
940.5192, 948.2130
941.0013, 949.6603
941.4834, 949.7199
941.9655, 948.4047
942.4476, 946.6044
942.9297, 945.1776
943.4119, 943.3445
943.8940, 940.1942
944.3761, 935.9179
944.8582, 931.4481
945.3403, 926.4399
945.8224, 922.0514
946.3046, 918.7150
946.7867, 916.0206
947.2688, 913.1746
947.7509, 910.1613
948.2330, 906.7767
948.7151, 902.6866
949.1973, 898.9902
949.6794, 896.8882
950.1615, 895.6765
950.6436, 894.5217
951.1257, 893.4237
951.6078, 892.0549
952.0900, 890.1796
952.5721, 888.4382
953.0542, 887.3925
953.5363, 886.9678
954.0184, 886.8553
954.5005, 887.0199
954.9827, 886.9607
955.4648, 886.1552
955.9469, 885.1199
956.4290, 884.0502
956.9111, 883.0036
957.3932, 882.5056
957.8754, 882.7258
958.3575, 883.0597
958.8396, 883.3096
959.3217, 883.5421
959.8038, 884.1039
960.2859, 884.8153
960.7681, 885.0025
961.2502, 884.0419
961.7323, 883.1251
962.2144, 883.1595
962.6965, 883.5284
963.1786, 883.4236
963.6608, 882.6803
964.1429, 881.8303
964.6250, 880.7797
965.1071, 880.0668
965.5892, 880.6217
966.0714, 881.8284
966.5535, 882.3035
967.0356, 881.9530
967.5177, 881.5219
967.9998, 881.1653
968.4819, 881.0564
968.9641, 881.3497
969.4462, 881.9852
969.9283, 882.5833
970.4104, 883.1165
970.8925, 883.7742
971.3746, 884.7327
971.8568, 885.6982
972.3389, 886.1718
972.8210, 886.3154
973.3031, 886.4933
973.7852, 886.9501
974.2673, 887.2633
974.7495, 887.1886
975.2316, 887.0697
975.7137, 887.2341
976.1958, 887.6861
976.6779, 888.6086
977.1600, 890.0958
977.6422, 891.2715
978.1243, 891.1970
978.6064, 890.5570
979.0885, 890.0115
979.5706, 889.6329
980.0527, 889.3472
980.5349, 889.2460
981.0170, 889.0646
981.4991, 888.5970
981.9812, 888.0284
982.4633, 888.0222
982.9454, 888.5250
983.4276, 889.2723
983.9097, 890.5009
984.3918, 891.4310
984.8739, 891.1074
985.3560, 890.2723
985.8381, 890.1150
986.3203, 891.0380
986.8024, 891.9455
987.2845, 892.8508
987.7666, 893.6310
988.2487, 893.9694
988.7308, 894.1209
989.2130, 894.9450
989.6951, 896.4727
990.1772, 897.6171
990.6593, 897.4349
991.1414, 897.0295
991.6235, 896.9548
992.1057, 897.1663
992.5878, 897.3584
993.0699, 897.4723
993.5520, 897.9847
994.0341, 899.2776
994.5162, 900.6852
994.9984, 901.1597
995.4805, 901.0635
995.9626, 901.0931
996.4447, 901.5814
996.9268, 902.0359
997.4089, 902.3728
997.8911, 902.6941
998.3732, 903.1429
998.8553, 903.7177
999.3374, 904.0717
999.8195, 904.1951
1000.302, 904.2667
1000.784, 904.1271
1001.266, 904.2280
1001.748, 905.0694
1002.230, 906.5897
1002.712, 907.9688
1003.194, 909.0332
1003.676, 910.1544
1004.159, 911.4608
1004.641, 912.8157
1005.123, 914.0590
1005.605, 915.1446
1006.087, 915.9255
1006.569, 916.2551
1007.051, 916.5938
1007.533, 917.1376
1008.016, 917.8571
1008.498, 918.7355
1008.980, 919.8002
1009.462, 920.9749
1009.944, 922.3115
1010.426, 923.5140
1010.908, 924.1696
1011.390, 924.6663
1011.872, 925.6099
1012.355, 926.8831
1012.837, 927.9530
1013.319, 928.5463
1013.801, 928.9856
1014.283, 929.1553
1014.765, 929.3531
1015.247, 930.3749
1015.729, 932.0621
1016.211, 933.1591
1016.694, 933.3907
1017.176, 933.1635
1017.658, 932.6071
1018.140, 931.8992
1018.622, 931.2003
1019.104, 930.5527
1019.586, 929.7831
1020.068, 928.8054
1020.551, 928.0325
1021.033, 927.5930
1021.515, 927.5774
1021.997, 928.7597
1022.479, 930.5732
1022.961, 931.3234
1023.443, 929.0609
1023.925, 927.1378
1024.407, 926.5704
1024.890, 926.7675
1025.372, 927.1770
1025.854, 927.8038
1026.336, 928.0775
1026.818, 927.9054
1027.300, 927.7520
1027.782, 928.5258
1028.264, 929.1644
1028.746, 928.3521
1029.229, 926.0002
1029.711, 924.3077
1030.193, 923.3532
1030.675, 923.1713
1031.157, 923.9226
1031.639, 925.2877
1032.121, 927.0854
1032.603, 928.9293
1033.086, 929.4319
1033.568, 927.4140
1034.050, 925.6713
1034.532, 925.8610
1035.014, 926.6312
1035.496, 926.7794
1035.978, 926.2094
1036.460, 925.7483
1036.943, 925.4150
1037.425, 925.0677
1037.907, 924.0947
1038.389, 923.4370
1038.871, 924.6788
1039.353, 927.2537
1039.835, 928.7491
1040.317, 927.6846
1040.799, 927.2179
1041.281, 927.9512
1041.764, 929.2403
1042.246, 930.1232
1042.728, 930.7035
1043.210, 931.3270
1043.692, 932.0832
1044.174, 932.6850
1044.656, 932.9620
1045.138, 933.0377
1045.621, 932.8611
1046.103, 932.4858
1046.585, 932.7993
1047.067, 933.8699
1047.549, 934.6576
1048.031, 934.6432
1048.513, 934.1827
1048.995, 933.2087
1049.478, 932.2142
1049.960, 932.0405
1050.442, 933.9465
1050.924, 935.0620
1051.406, 935.1387
1051.888, 934.8340
1052.370, 934.5916
1052.852, 934.4843
1053.334, 934.8251
1053.817, 935.5932
1054.299, 936.4353
1054.781, 937.1650
1055.263, 937.9252
1055.745, 939.0476
1056.227, 940.1762
1056.709, 940.3428
1057.191, 939.4910
1057.673, 938.5226
1058.156, 937.4349
1058.638, 937.0674
1059.120, 939.1586
1059.602, 941.9030
1060.084, 943.3012
1060.566, 942.8518
1061.048, 942.1474
1061.530, 941.0843
1062.013, 940.2043
1062.495, 939.7923
1062.977, 939.7229
1063.459, 939.6635
1063.941, 939.6735
1064.423, 939.9283
1064.905, 940.8654
1065.387, 941.5402
1065.870, 941.2119
1066.352, 940.8470
1066.834, 941.3957
1067.316, 942.8621
1067.798, 944.3262
1068.280, 945.7632
1068.762, 946.6742
1069.244, 946.4673
1069.726, 945.8025
1070.208, 945.0541
1070.691, 944.2861
1071.173, 943.6155
1071.655, 942.7969
1072.137, 942.9333
1072.619, 944.4191
1073.101, 946.3538
1073.583, 947.7291
1074.065, 948.6417
1074.548, 949.2869
1075.030, 949.7063
1075.512, 949.6445
1075.994, 948.4488
1076.476, 947.5176
1076.958, 947.4665
1077.440, 948.0977
1077.922, 948.9030
1078.405, 949.7800
1078.887, 950.1633
1079.369, 949.4235
1079.851, 948.8914
1080.333, 949.5821
1080.815, 950.7175
1081.297, 951.4254
1081.779, 951.6350
1082.261, 951.7667
1082.744, 951.8000
1083.226, 952.0102
1083.708, 952.7553
1084.190, 953.6467
1084.672, 954.1719
1085.154, 954.4834
1085.636, 955.1752
1086.118, 956.8074
1086.601, 957.7668
1087.083, 957.7180
1087.565, 957.2957
1088.047, 957.2162
1088.529, 957.3900
1089.011, 957.7224
1089.493, 958.1962
1089.975, 958.4186
1090.458, 957.6216
1090.940, 957.2686
1091.422, 958.0626
1091.904, 959.5661
1092.386, 960.5555
1092.868, 961.0354
1093.350, 960.8810
1093.832, 959.7740
1094.314, 958.9451
1094.797, 959.2914
1095.279, 960.3020
1095.761, 961.7712
1096.243, 963.7643
1096.725, 964.3503
1097.207, 963.4073
1097.689, 962.5420
1098.171, 962.6053
1098.653, 963.2522
1099.136, 964.6272
1099.618, 966.1696
1100.100, 966.7455
1100.582, 964.9476
1101.064, 964.5052
1101.546, 965.9766
1102.028, 967.5974
1102.510, 967.1472
1102.993, 965.8613
1103.475, 967.0416
1103.957, 970.2707
1104.439, 972.2157
1104.921, 969.5574
1105.403, 967.9877
1105.885, 969.3693
1106.367, 972.0816
1106.849, 973.3419
1107.332, 973.3732
1107.814, 973.1589
1108.296, 972.8072
1108.778, 972.8716
1109.260, 974.2393
1109.742, 975.6412
1110.224, 976.0187
1110.706, 975.6798
1111.188, 976.6146
1111.671, 978.8621
1112.153, 980.3364
1112.635, 980.1906
1113.117, 979.5050
1113.599, 978.7394
1114.081, 978.3751
1114.563, 979.2519
1115.045, 981.8925
1115.528, 983.2659
1116.010, 983.1426
1116.492, 982.7615
1116.974, 982.5963
1117.456, 982.8103
1117.938, 984.2369
1118.420, 986.1726
1118.902, 987.1013
1119.385, 985.2448
1119.867, 984.4370
1120.349, 985.1224
1120.831, 986.3641
1121.313, 987.5336
1121.795, 988.5327
1122.277, 988.9918
1122.759, 988.9788
1123.241, 988.9613
1123.724, 988.6947
1124.206, 989.0844
1124.688, 990.7855
1125.170, 992.8204
1125.652, 993.4708
1126.134, 992.9664
1126.616, 992.9337
1127.098, 993.5725
1127.580, 994.4171
1128.063, 995.4775
1128.545, 996.3464
1129.027, 996.5315
1129.509, 996.3397
1129.991, 996.9219
1130.473, 998.3113
1130.955, 999.3969
1131.437, 999.9069
1131.920, 1000.045
1132.402, 999.4224
1132.884, 998.9262
1133.366, 999.7388
1133.848, 1002.050
1134.330, 1003.033
1134.812, 1002.342
1135.294, 1002.244
1135.776, 1004.049
1136.259, 1006.371
1136.741, 1007.416
1137.223, 1007.686
1137.705, 1007.976
1138.187, 1008.441
1138.669, 1008.928
1139.151, 1009.413
1139.633, 1009.957
1140.115, 1010.716
1140.598, 1011.504
1141.080, 1011.683
1141.562, 1011.569
1142.044, 1012.047
1142.526, 1014.315
1143.008, 1015.938
1143.490, 1016.612
1143.972, 1016.681
1144.455, 1016.094
1144.937, 1015.231
1145.419, 1015.456
1145.901, 1016.716
1146.383, 1018.177
1146.865, 1020.134
1147.347, 1021.255
1147.829, 1020.728
1148.312, 1019.666
1148.794, 1019.859
1149.276, 1021.138
1149.758, 1022.486
1150.240, 1023.787
1150.722, 1024.703
1151.204, 1024.537
1151.686, 1024.400
1152.168, 1024.863
1152.651, 1025.825
1153.133, 1027.225
1153.615, 1029.018
1154.097, 1030.232
1154.579, 1030.538
1155.061, 1030.700
1155.543, 1031.143
1156.025, 1031.849
1156.507, 1032.943
1156.990, 1034.354
1157.472, 1035.495
1157.954, 1036.369
1158.436, 1037.007
1158.918, 1037.320
1159.400, 1037.684
1159.882, 1038.466
1160.364, 1039.523
1160.847, 1040.810
1161.329, 1042.448
1161.811, 1043.264
1162.293, 1043.084
1162.775, 1043.134
1163.257, 1044.228
1163.739, 1045.642
1164.221, 1046.519
1164.703, 1047.060
1165.186, 1047.604
1165.668, 1048.296
1166.150, 1048.672
1166.632, 1048.575
1167.114, 1048.701
1167.596, 1049.789
1168.078, 1051.285
1168.560, 1052.416
1169.042, 1053.205
1169.525, 1053.690
1170.007, 1053.446
1170.489, 1053.710
1170.971, 1054.740
1171.453, 1055.818
1171.935, 1056.099
1172.417, 1056.029
1172.899, 1056.461
1173.382, 1057.379
1173.864, 1058.478
1174.346, 1060.322
1174.828, 1061.244
1175.310, 1060.533
1175.792, 1059.736
1176.274, 1061.483
1176.756, 1064.502
1177.239, 1065.596
1177.721, 1064.617
1178.203, 1063.885
1178.685, 1064.103
1179.167, 1065.068
1179.649, 1067.121
1180.131, 1069.358
1180.613, 1069.717
1181.095, 1068.965
1181.578, 1069.565
1182.060, 1071.962
1182.542, 1074.025
1183.024, 1074.679
1183.506, 1074.936
1183.988, 1074.927
1184.470, 1074.992
1184.952, 1076.386
1185.434, 1078.625
1185.917, 1079.867
1186.399, 1079.467
1186.881, 1079.211
1187.363, 1080.119
1187.845, 1081.194
1188.327, 1081.838
1188.809, 1082.300
1189.291, 1083.793
1189.774, 1086.052
1190.256, 1087.920
1190.738, 1089.048
1191.220, 1089.647
1191.702, 1089.309
1192.184, 1088.963
1192.666, 1089.220
1193.148, 1089.986
1193.630, 1090.561
1194.113, 1091.021
1194.595, 1091.820
1195.077, 1093.352
1195.559, 1094.881
1196.041, 1096.332
1196.523, 1097.345
1197.005, 1097.389
1197.487, 1096.578
1197.969, 1097.076
1198.452, 1098.697
1198.934, 1100.035
1199.416, 1100.103
1199.898, 1100.032
1200.380, 1100.056
1200.862, 1100.438
1201.344, 1101.677
1201.826, 1103.777
1202.309, 1104.528
1202.791, 1104.051
1203.273, 1103.826
1203.755, 1104.918
1204.237, 1106.255
1204.719, 1107.479
1205.201, 1108.512
1205.683, 1109.128
1206.166, 1109.329
1206.648, 1110.163
1207.130, 1111.606
1207.612, 1112.764
1208.094, 1112.333
1208.576, 1112.231
1209.058, 1114.149
1209.540, 1116.663
1210.022, 1117.641
1210.505, 1117.157
1210.987, 1117.176
1211.469, 1117.836
1211.951, 1118.581
1212.433, 1118.987
1212.915, 1119.458
1213.397, 1120.368
1213.879, 1121.430
1214.361, 1122.107
1214.844, 1122.431
1215.326, 1122.737
1215.808, 1123.061
1216.290, 1123.750
1216.772, 1125.509
1217.254, 1127.187
1217.736, 1127.913
1218.218, 1128.236
1218.701, 1129.464
1219.183, 1131.474
1219.665, 1133.043
1220.147, 1133.977
1220.629, 1134.277
1221.111, 1132.760
1221.593, 1131.899
1222.075, 1133.444
1222.557, 1136.322
1223.040, 1137.910
1223.522, 1138.323
1224.004, 1138.178
1224.486, 1137.499
1224.968, 1137.415
1225.450, 1139.377
1225.932, 1141.348
1226.414, 1142.435
1226.896, 1142.710
1227.379, 1141.778
1227.861, 1140.074
1228.343, 1140.143
1228.825, 1142.821
1229.307, 1145.410
1229.789, 1146.645
1230.271, 1147.017
1230.753, 1146.313
1231.236, 1145.251
1231.718, 1146.890
1232.200, 1150.396
1232.682, 1152.150
1233.164, 1150.843
1233.646, 1149.703
1234.128, 1150.601
1234.610, 1151.718
1235.093, 1152.292
1235.575, 1152.420
1236.057, 1151.959
1236.539, 1151.286
1237.021, 1151.871
1237.503, 1154.643
1237.985, 1156.690
1238.467, 1155.914
1238.949, 1155.453
1239.432, 1157.030
1239.914, 1159.661
1240.396, 1160.068
1240.878, 1159.029
1241.360, 1158.720
1241.842, 1159.932
1242.324, 1161.354
1242.806, 1162.927
1243.288, 1164.248
1243.771, 1165.025
1244.253, 1165.506
1244.735, 1166.332
1245.217, 1167.397
1245.699, 1168.459
1246.181, 1169.443
1246.663, 1170.459
1247.145, 1171.548
1247.628, 1172.625
1248.110, 1173.584
1248.592, 1174.564
1249.074, 1176.215
1249.556, 1177.991
1250.038, 1178.744
1250.520, 1177.322
1251.002, 1177.225
1251.484, 1179.023
1251.967, 1180.753
1252.449, 1181.103
1252.931, 1180.889
1253.413, 1181.205
1253.895, 1181.983
1254.377, 1183.187
1254.859, 1185.208
1255.341, 1186.354
1255.823, 1186.417
1256.306, 1186.551
1256.788, 1187.531
1257.270, 1188.811
1257.752, 1189.634
1258.234, 1190.358
1258.716, 1191.639
1259.198, 1193.769
1259.680, 1195.773
1260.163, 1197.803
1260.645, 1198.355
1261.127, 1194.949
1261.609, 1191.764
1262.091, 1193.520
1262.573, 1197.370
1263.055, 1199.276
1263.537, 1198.789
1264.020, 1199.004
1264.502, 1199.902
1264.984, 1200.816
1265.466, 1200.998
1265.948, 1201.480
1266.430, 1203.494
1266.912, 1205.761
1267.394, 1206.721
1267.876, 1206.328
1268.359, 1206.418
1268.841, 1207.033
1269.323, 1208.582
1269.805, 1212.852
1270.287, 1216.008
1270.769, 1215.376
1271.251, 1213.695
1271.733, 1212.846
1272.215, 1212.828
1272.698, 1213.982
1273.180, 1216.001
1273.662, 1217.369
1274.144, 1216.778
1274.626, 1216.350
1275.108, 1216.401
1275.590, 1216.937
1276.072, 1218.092
1276.555, 1219.718
1277.037, 1221.495
1277.519, 1223.275
1278.001, 1224.660
1278.483, 1225.186
1278.965, 1225.701
1279.447, 1226.270
1279.929, 1226.771
1280.411, 1226.797
1280.894, 1226.862
1281.376, 1228.286
1281.858, 1230.452
1282.340, 1231.959
1282.822, 1231.836
1283.304, 1232.621
1283.786, 1234.522
1284.268, 1236.336
1284.750, 1237.022
1285.233, 1237.402
1285.715, 1238.373
1286.197, 1239.736
1286.679, 1241.192
1287.161, 1242.753
1287.643, 1244.127
1288.125, 1245.296
1288.607, 1246.463
1289.090, 1247.931
1289.572, 1249.182
1290.054, 1249.322
1290.536, 1249.375
1291.018, 1250.852
1291.500, 1253.852
1291.982, 1254.915
1292.464, 1254.239
1292.947, 1253.707
1293.429, 1254.661
1293.911, 1255.499
1294.393, 1255.278
1294.875, 1254.969
1295.357, 1255.334
1295.839, 1256.219
1296.321, 1257.003
1296.803, 1257.707
1297.286, 1258.255
1297.768, 1258.187
1298.250, 1258.811
1298.732, 1260.686
1299.214, 1262.548
1299.696, 1263.165
1300.178, 1263.244
1300.660, 1264.611
##END=



