##NAMES=Helvine
##RRUFFID=R060059
##IDEAL CHEMISTRY=Mn^2+^_4_(BeSiO_4_)_3_S^2-^
##LOCALITY=Schwarzenberg, Saxony, Germany
##OWNER=RRUFF
##SOURCE=University of Arizona Mineral Museum
##DESCRIPTION=Yellow-tan colored tetrahedra
##STATUS=The identification of this mineral has been confirmed by X-ray diffraction and chemical analysis
##URL=rruff.info/R060059
##MEASURED CHEMISTRY=(Mn^2+^_2.93_Fe^2+^_0.48_Zn_0.35_Ca_0.15_Fe^3+^_0.09_)_Σ=4_Be_3.00_((Si_0.97_Al_0.03_)_Σ=1_O_4_)_3_S_1.00_; BeO assumed by stoichiometry
111.1827, 39.78355
111.6648, 42.50323
112.1469, 45.50391
112.6290, 49.10081
113.1111, 52.94093
113.5933, 56.44224
114.0754, 59.06056
114.5575, 61.62885
115.0396, 64.54768
115.5217, 68.46770
116.0038, 71.96207
116.4859, 74.64596
116.9681, 76.61929
117.4502, 78.23918
117.9323, 79.01987
118.4144, 79.80977
118.8965, 81.23518
119.3786, 84.05155
119.8608, 86.99616
120.3429, 89.27091
120.8250, 90.98708
121.3071, 93.02799
121.7892, 95.93560
122.2713, 99.44613
122.7535, 103.2433
123.2356, 107.5050
123.7177, 111.8213
124.1998, 115.6398
124.6819, 118.9822
125.1640, 122.6273
125.6462, 127.0002
126.1283, 132.1690
126.6104, 138.2766
127.0925, 145.1096
127.5746, 153.0403
128.0567, 162.7951
128.5389, 174.6229
129.0210, 187.3353
129.5031, 201.1794
129.9852, 215.3813
130.4673, 226.0957
130.9494, 231.5275
131.4316, 231.7742
131.9137, 225.9886
132.3958, 213.4190
132.8779, 197.6365
133.3600, 180.9592
133.8421, 163.5449
134.3243, 147.4977
134.8064, 133.7402
135.2885, 122.3467
135.7706, 113.6210
136.2527, 107.6991
136.7348, 104.2168
137.2169, 102.6631
137.6991, 103.2116
138.1812, 104.6205
138.6633, 106.4205
139.1454, 108.8359
139.6275, 109.9280
140.1096, 109.3261
140.5918, 107.1795
141.0739, 104.0745
141.5560, 99.69774
142.0381, 95.03318
142.5202, 90.85543
143.0023, 87.28401
143.4845, 83.92426
143.9666, 80.66468
144.4487, 77.46685
144.9308, 74.85475
145.4129, 72.77119
145.8951, 71.28398
146.3772, 70.49068
146.8593, 70.91101
147.3414, 71.18102
147.8235, 70.86546
148.3056, 69.70464
148.7878, 69.24718
149.2699, 69.72777
149.7520, 70.80299
150.2341, 72.00660
150.7162, 73.43666
151.1983, 74.91058
151.6805, 76.35088
152.1626, 77.58147
152.6447, 79.19003
153.1268, 81.40141
153.6089, 83.97150
154.0910, 86.47979
154.5732, 88.73023
155.0553, 91.08100
155.5374, 93.61638
156.0195, 96.28654
156.5016, 99.23883
156.9837, 102.9532
157.4659, 106.9495
157.9480, 110.2274
158.4301, 112.8447
158.9122, 114.4888
159.3943, 114.8743
159.8764, 113.2436
160.3586, 111.5611
160.8407, 110.5345
161.3228, 109.8810
161.8049, 108.8121
162.2870, 106.4762
162.7691, 103.9922
163.2512, 102.0564
163.7334, 100.7398
164.2155, 100.0969
164.6976, 100.4502
165.1797, 101.5957
165.6618, 102.7396
166.1439, 103.0617
166.6261, 103.4140
167.1082, 104.5536
167.5903, 107.2505
168.0724, 110.1981
168.5545, 112.6090
169.0366, 114.5618
169.5188, 116.5389
170.0009, 118.7775
170.4830, 121.2026
170.9651, 123.7957
171.4472, 126.7273
171.9293, 129.6774
172.4115, 132.1065
172.8936, 134.0970
173.3757, 136.6474
173.8578, 140.8096
174.3399, 145.9106
174.8220, 150.9785
175.3042, 155.9849
175.7863, 160.5844
176.2684, 165.0385
176.7505, 169.3237
177.2326, 171.7456
177.7147, 171.0929
178.1969, 167.4969
178.6790, 161.2375
179.1611, 151.2013
179.6432, 139.0432
180.1253, 126.8445
180.6074, 114.6795
181.0896, 103.0069
181.5717, 91.75343
182.0538, 81.33019
182.5359, 72.62757
183.0180, 66.91556
183.5001, 63.17742
183.9823, 59.42698
184.4644, 55.62656
184.9465, 52.21461
185.4286, 49.89510
185.9107, 48.51426
186.3928, 47.38963
186.8750, 46.20725
187.3571, 45.04403
187.8392, 44.12017
188.3213, 43.45431
188.8034, 42.99206
189.2855, 42.78175
189.7677, 42.79401
190.2498, 42.71347
190.7319, 42.35143
191.2140, 41.75674
191.6961, 41.10928
192.1782, 40.34781
192.6603, 39.73853
193.1425, 39.80039
193.6246, 40.52721
194.1067, 41.30068
194.5888, 41.89185
195.0709, 42.29230
195.5530, 42.37898
196.0352, 42.04732
196.5173, 41.62403
196.9994, 41.75777
197.4815, 42.50002
197.9636, 43.14003
198.4457, 43.32253
198.9279, 43.04192
199.4100, 42.65572
199.8921, 42.17215
200.3742, 41.58699
200.8563, 40.88885
201.3384, 40.06610
201.8206, 39.15956
202.3027, 38.19273
202.7848, 37.16421
203.2669, 35.98344
203.7490, 34.52588
204.2311, 33.05307
204.7133, 32.11363
205.1954, 31.76433
205.6775, 31.71175
206.1596, 31.97086
206.6417, 32.65813
207.1238, 32.77868
207.6060, 32.11707
208.0881, 31.05697
208.5702, 30.45940
209.0523, 30.43397
209.5344, 30.53256
210.0165, 30.51413
210.4987, 30.31605
210.9808, 30.31683
211.4629, 30.59386
211.9450, 31.02133
212.4271, 31.33606
212.9092, 31.56488
213.3914, 31.61461
213.8735, 31.33263
214.3556, 30.51792
214.8377, 30.18659
215.3198, 30.52597
215.8019, 31.26954
216.2841, 31.73461
216.7662, 31.78763
217.2483, 31.85942
217.7304, 32.16790
218.2125, 32.78352
218.6946, 33.39615
219.1767, 33.97829
219.6589, 34.56211
220.1410, 35.29842
220.6231, 36.34209
221.1052, 37.25232
221.5873, 37.79408
222.0694, 37.77865
222.5516, 37.91897
223.0337, 38.28585
223.5158, 38.78410
223.9979, 39.21119
224.4800, 39.57211
224.9621, 39.84595
225.4443, 39.97179
225.9264, 39.76873
226.4085, 39.89054
226.8906, 40.42413
227.3727, 41.24661
227.8548, 42.11786
228.3370, 43.08351
228.8191, 44.00938
229.3012, 44.84104
229.7833, 45.52602
230.2654, 46.22402
230.7475, 46.86378
231.2297, 47.54066
231.7118, 48.49043
232.1939, 49.84668
232.6760, 51.25626
233.1581, 52.59392
233.6402, 53.81654
234.1224, 55.05459
234.6045, 56.30674
235.0866, 57.58931
235.5687, 58.90699
236.0508, 60.17174
236.5329, 61.62805
237.0151, 63.53712
237.4972, 66.46270
237.9793, 68.14360
238.4614, 68.35944
238.9435, 67.43996
239.4256, 65.96227
239.9078, 63.68633
240.3899, 61.26335
240.8720, 58.82480
241.3541, 56.19534
241.8362, 54.19434
242.3183, 53.02938
242.8005, 52.36606
243.2826, 51.64435
243.7647, 50.96337
244.2468, 50.07171
244.7289, 48.81829
245.2110, 47.04827
245.6931, 45.56339
246.1753, 44.47868
246.6574, 43.60424
247.1395, 42.65031
247.6216, 41.61087
248.1037, 40.51665
248.5858, 39.34269
249.0680, 38.06092
249.5501, 36.90866
250.0322, 35.89763
250.5143, 35.00607
250.9964, 34.20047
251.4785, 33.45244
251.9607, 32.83760
252.4428, 32.34608
252.9249, 31.96518
253.4070, 31.88424
253.8891, 32.28804
254.3712, 32.81942
254.8534, 33.03765
255.3355, 32.79367
255.8176, 32.53582
256.2997, 32.35738
256.7818, 32.26241
257.2639, 32.19729
257.7461, 32.17668
258.2282, 32.16937
258.7103, 32.14104
259.1924, 32.07935
259.6745, 32.00920
260.1566, 31.84614
260.6388, 31.60076
261.1209, 31.88844
261.6030, 33.01397
262.0851, 34.25242
262.5672, 34.88171
263.0493, 34.65509
263.5315, 34.50043
264.0136, 34.59393
264.4957, 34.90649
264.9778, 35.16950
265.4599, 35.33595
265.9420, 35.53142
266.4242, 35.83826
266.9063, 36.24703
267.3884, 36.82797
267.8705, 37.66553
268.3526, 38.68157
268.8347, 39.46008
269.3169, 39.87719
269.7990, 40.31104
270.2811, 41.07635
270.7632, 42.27861
271.2453, 43.32811
271.7274, 44.13902
272.2096, 44.76922
272.6917, 45.45490
273.1738, 46.22853
273.6559, 46.98151
274.1380, 47.61526
274.6201, 48.09813
275.1023, 48.68655
275.5844, 49.37432
276.0665, 50.19543
276.5486, 51.33898
277.0307, 52.88777
277.5128, 54.39541
277.9950, 55.56531
278.4771, 56.36028
278.9592, 57.37890
279.4413, 58.75135
279.9234, 60.21934
280.4055, 61.21160
280.8877, 61.66298
281.3698, 62.17118
281.8519, 63.05738
282.3340, 64.31863
282.8161, 65.52487
283.2982, 66.70277
283.7804, 67.76250
284.2625, 68.50481
284.7446, 68.92381
285.2267, 69.30580
285.7088, 69.66387
286.1909, 70.04482
286.6730, 70.90959
287.1552, 72.36928
287.6373, 73.86136
288.1194, 74.70415
288.6015, 74.92632
289.0836, 74.89275
289.5657, 74.67690
290.0479, 74.30275
290.5300, 73.81977
291.0121, 73.22225
291.4942, 72.61200
291.9763, 72.19040
292.4584, 71.89731
292.9406, 71.31805
293.4227, 70.23636
293.9048, 68.88730
294.3869, 67.77266
294.8690, 66.88824
295.3511, 66.13844
295.8333, 65.54819
296.3154, 65.04189
296.7975, 64.29626
297.2796, 63.11362
297.7617, 61.86890
298.2438, 61.23414
298.7260, 61.15480
299.2081, 61.15248
299.6902, 60.91263
300.1723, 60.51697
300.6544, 60.09408
301.1365, 59.62726
301.6187, 59.25172
302.1008, 59.27193
302.5829, 59.57233
303.0650, 59.71733
303.5471, 59.47610
304.0292, 58.91666
304.5114, 58.01689
304.9935, 56.68216
305.4756, 55.46791
305.9577, 55.01531
306.4398, 55.07825
306.9219, 55.08170
307.4041, 54.86994
307.8862, 54.39992
308.3683, 53.62416
308.8504, 52.54639
309.3325, 51.16354
309.8146, 49.09995
310.2968, 46.81771
310.7789, 44.97701
311.2610, 44.19352
311.7431, 43.71798
312.2252, 43.07888
312.7073, 42.27231
313.1895, 41.32900
313.6716, 40.14416
314.1537, 38.87855
314.6358, 37.70895
315.1179, 36.63273
315.6000, 35.72389
316.0822, 35.05173
316.5643, 34.59017
317.0464, 34.23194
317.5285, 34.00509
318.0106, 33.81894
318.4927, 33.61796
318.9749, 33.42151
319.4570, 33.15063
319.9391, 32.65446
320.4212, 32.05905
320.9033, 31.64759
321.3854, 31.73357
321.8676, 31.84677
322.3497, 31.72423
322.8318, 31.20880
323.3139, 30.83211
323.7960, 30.82387
324.2781, 30.99551
324.7603, 31.07418
325.2424, 30.84321
325.7245, 30.67504
326.2066, 30.75716
326.6887, 31.17997
327.1708, 31.34173
327.6530, 30.97784
328.1351, 30.43070
328.6172, 30.01165
329.0993, 29.70718
329.5814, 29.56189
330.0635, 29.65149
330.5457, 29.96597
331.0278, 30.17806
331.5099, 30.18267
331.9920, 30.17154
332.4741, 30.28421
332.9562, 30.75686
333.4384, 30.94654
333.9205, 30.68032
334.4026, 30.09816
334.8847, 29.70710
335.3668, 29.56660
335.8489, 29.52934
336.3311, 29.54527
336.8132, 29.66021
337.2953, 29.68433
337.7774, 29.56850
338.2595, 29.39972
338.7416, 29.37058
339.2238, 29.55288
339.7059, 29.65576
340.1880, 29.50866
340.6701, 29.09487
341.1522, 28.97798
341.6343, 29.25229
342.1164, 29.61714
342.5985, 29.70942
343.0807, 29.50435
343.5628, 29.24629
344.0449, 28.90589
344.5270, 28.57564
345.0091, 28.75623
345.4912, 29.52479
345.9734, 30.27076
346.4555, 30.35454
346.9376, 29.86724
347.4197, 29.63914
347.9018, 29.90009
348.3839, 30.37988
348.8661, 30.53952
349.3482, 30.40331
349.8303, 30.31606
350.3124, 30.58283
350.7945, 31.06143
351.2766, 31.35479
351.7588, 31.39644
352.2409, 31.38109
352.7230, 31.56799
353.2051, 31.89196
353.6872, 32.16428
354.1693, 32.23333
354.6515, 32.22428
355.1336, 32.26064
355.6157, 32.34572
356.0978, 32.56348
356.5799, 33.17667
357.0620, 33.92405
357.5442, 34.40714
358.0263, 34.22535
358.5084, 33.97979
358.9905, 34.19334
359.4726, 34.77719
359.9547, 35.26766
360.4369, 35.32370
360.9190, 35.21867
361.4011, 35.16503
361.8832, 35.18252
362.3653, 35.30492
362.8474, 35.74355
363.3296, 36.29497
363.8117, 36.53319
364.2938, 35.90531
364.7759, 35.25871
365.2580, 35.09938
365.7401, 35.67413
366.2223, 35.86321
366.7044, 35.17246
367.1865, 34.06269
367.6686, 33.04171
368.1507, 32.18286
368.6328, 31.43066
369.1150, 30.74978
369.5971, 30.13852
370.0792, 29.72733
370.5613, 29.73240
371.0434, 29.77858
371.5255, 29.63353
372.0077, 29.10630
372.4898, 28.68335
372.9719, 28.41695
373.4540, 28.26363
373.9361, 28.06828
374.4182, 27.73268
374.9004, 27.52250
375.3825, 27.62775
375.8646, 28.20584
376.3467, 28.37674
376.8288, 27.99933
377.3109, 27.39315
377.7931, 27.01424
378.2752, 26.90408
378.7573, 26.83080
379.2394, 26.74398
379.7215, 26.63891
380.2036, 26.44288
380.6858, 26.13301
381.1679, 25.85690
381.6500, 25.75743
382.1321, 25.82523
382.6142, 25.96373
383.0963, 26.18212
383.5785, 26.42537
384.0606, 26.58251
384.5427, 26.65770
385.0248, 26.72795
385.5069, 26.93048
385.9890, 27.15474
386.4712, 27.07588
386.9533, 26.62518
387.4354, 26.13666
387.9175, 26.04731
388.3996, 26.20327
388.8817, 26.25808
389.3639, 25.88239
389.8460, 25.44294
390.3281, 25.32613
390.8102, 25.51810
391.2923, 25.78094
391.7744, 26.01960
392.2566, 26.22536
392.7387, 26.39505
393.2208, 26.53726
393.7029, 26.62838
394.1850, 26.65278
394.6671, 26.61694
395.1493, 26.53909
395.6314, 26.23035
396.1135, 26.03416
396.5956, 26.24846
397.0777, 27.11573
397.5598, 27.56681
398.0419, 26.89443
398.5240, 25.84847
399.0062, 25.29149
399.4883, 25.72339
399.9704, 26.24885
400.4525, 26.80110
400.9346, 27.37332
401.4167, 27.60896
401.8989, 27.32821
402.3810, 26.87198
402.8631, 26.40794
403.3452, 25.76790
403.8273, 25.46957
404.3094, 25.66959
404.7916, 26.16312
405.2737, 26.48221
405.7558, 26.58501
406.2379, 26.62051
406.7200, 26.67648
407.2021, 26.76295
407.6843, 26.54325
408.1664, 25.88754
408.6485, 25.26148
409.1306, 25.34871
409.6127, 26.15203
410.0948, 26.64519
410.5770, 26.43876
411.0591, 25.87334
411.5412, 25.95692
412.0233, 26.67783
412.5054, 27.28687
412.9875, 27.14653
413.4697, 26.49920
413.9518, 25.91300
414.4339, 25.42626
414.9160, 25.15009
415.3981, 25.36078
415.8802, 25.89471
416.3624, 26.34750
416.8445, 26.57318
417.3266, 26.60352
417.8087, 26.35218
418.2908, 25.84503
418.7729, 25.47523
419.2551, 25.61613
419.7372, 25.96246
420.2193, 26.21469
420.7014, 26.29416
421.1835, 26.27131
421.6656, 26.08907
422.1478, 25.82317
422.6299, 25.65231
423.1120, 25.76712
423.5941, 25.87538
424.0762, 25.82913
424.5583, 25.57126
425.0405, 25.36292
425.5226, 25.18080
426.0047, 25.08701
426.4868, 25.14721
426.9689, 25.49440
427.4510, 25.81613
427.9332, 26.07710
428.4153, 26.28047
428.8974, 26.43797
429.3795, 26.52932
429.8616, 26.60489
430.3438, 26.64953
430.8259, 26.59132
431.3080, 26.86601
431.7901, 27.65987
432.2722, 28.52366
432.7543, 28.67380
433.2365, 28.02450
433.7186, 27.52625
434.2007, 27.52728
434.6828, 27.90691
435.1649, 28.23351
435.6470, 28.50720
436.1292, 28.72478
436.6113, 28.85275
437.0934, 28.91899
437.5755, 28.98903
438.0576, 29.04280
438.5397, 29.18651
439.0219, 29.60562
439.5040, 30.23406
439.9861, 30.86443
440.4682, 31.50100
440.9503, 32.03133
441.4324, 32.25072
441.9146, 32.15778
442.3967, 32.16842
442.8788, 32.66856
443.3609, 33.34516
443.8430, 33.85847
444.3251, 33.95481
444.8073, 34.11013
445.2894, 34.63988
445.7715, 35.36532
446.2536, 35.82299
446.7357, 36.03482
447.2178, 35.84080
447.7000, 35.07247
448.1821, 33.52123
448.6642, 32.17480
449.1463, 31.12539
449.6284, 30.24727
450.1105, 29.41710
450.5927, 28.62513
451.0747, 27.88793
451.5569, 27.14981
452.0390, 26.47005
452.5211, 26.12497
453.0032, 26.26605
453.4853, 26.34200
453.9674, 25.98403
454.4496, 25.15166
454.9317, 24.64650
455.4138, 24.53938
455.8959, 24.58136
456.3780, 24.40165
456.8601, 24.04093
457.3423, 23.90237
457.8244, 24.21058
458.3065, 24.71986
458.7886, 24.95206
459.2707, 24.93086
459.7528, 24.83895
460.2350, 24.76612
460.7171, 24.71031
461.1992, 24.66889
461.6813, 24.64271
462.1634, 24.62445
462.6455, 24.63218
463.1277, 24.63884
463.6098, 24.60349
464.0919, 24.51397
464.5740, 24.37587
465.0561, 24.15523
465.5382, 23.87089
466.0204, 23.63416
466.5025, 23.38106
466.9846, 23.25363
467.4667, 23.38526
467.9488, 24.09520
468.4309, 24.41883
468.9131, 23.95834
469.3952, 23.21127
469.8773, 22.83204
470.3594, 23.11304
470.8415, 23.28176
471.3236, 23.10661
471.8058, 22.65394
472.2879, 22.53339
472.7700, 22.86270
473.2521, 23.23344
473.7342, 23.34451
474.2163, 23.17266
474.6985, 23.15548
475.1806, 23.34616
475.6627, 23.62223
476.1448, 23.87549
476.6269, 24.09027
477.1090, 24.11909
477.5912, 23.79503
478.0733, 23.32799
478.5554, 23.10820
479.0375, 23.11989
479.5196, 23.21708
480.0017, 23.37272
480.4839, 23.52262
480.9660, 23.55173
481.4481, 23.39965
481.9302, 23.30536
482.4123, 23.58992
482.8944, 23.99812
483.3766, 24.15465
483.8587, 23.47418
484.3408, 22.96384
484.8229, 23.19271
485.3050, 24.06091
485.7871, 24.65218
486.2693, 24.84757
486.7514, 24.68266
487.2335, 24.05025
487.7156, 22.32670
488.1977, 21.58426
488.6798, 22.41445
489.1620, 23.82733
489.6441, 24.49250
490.1262, 24.12779
490.6083, 23.74346
491.0904, 23.51480
491.5725, 23.43688
492.0547, 23.54818
492.5368, 23.89481
493.0189, 24.16866
493.5010, 24.05013
493.9831, 23.62957
494.4652, 23.59370
494.9474, 24.03328
495.4295, 24.56046
495.9116, 24.74434
496.3937, 24.66091
496.8758, 24.50290
497.3579, 24.23800
497.8401, 24.03430
498.3222, 24.14506
498.8043, 24.49254
499.2864, 24.78584
499.7685, 24.79515
500.2506, 24.73888
500.7328, 24.75575
501.2149, 24.85610
501.6970, 25.06278
502.1791, 25.61692
502.6612, 26.16956
503.1433, 26.39123
503.6255, 25.90937
504.1076, 25.47060
504.5897, 25.09913
505.0718, 24.82969
505.5539, 24.78378
506.0360, 25.15011
506.5181, 25.45472
507.0002, 25.48183
507.4824, 25.20366
507.9645, 25.17668
508.4466, 25.49020
508.9287, 25.84589
509.4108, 25.90316
509.8929, 25.66592
510.3751, 25.61728
510.8572, 25.85579
511.3393, 26.25976
511.8214, 26.68264
512.3035, 27.11109
512.7856, 27.47557
513.2678, 27.78399
513.7499, 27.98808
514.2320, 27.90205
514.7141, 27.56189
515.1962, 27.38745
515.6783, 27.79600
516.1605, 28.43058
516.6426, 28.96689
517.1247, 29.35294
517.6068, 29.60798
518.0889, 29.64090
518.5710, 29.57435
519.0532, 29.58400
519.5353, 29.75080
520.0174, 29.94889
520.4995, 30.10516
520.9816, 30.24220
521.4637, 30.57561
521.9459, 31.24984
522.4280, 31.93408
522.9101, 32.48624
523.3922, 32.92059
523.8743, 33.13065
524.3564, 33.02540
524.8386, 32.88012
525.3207, 33.07056
525.8028, 33.59303
526.2849, 34.08569
526.7670, 34.48535
527.2491, 34.78074
527.7313, 34.86223
528.2134, 34.77357
528.6955, 34.76789
529.1776, 35.04667
529.6597, 35.46497
530.1418, 35.90298
530.6240, 36.34430
531.1061, 36.61709
531.5882, 36.43814
532.0703, 36.11595
532.5524, 35.95553
533.0345, 36.13209
533.5167, 36.28958
533.9988, 36.27856
534.4809, 36.17864
534.9630, 36.12572
535.4451, 36.28773
535.9272, 36.33295
536.4094, 36.15813
536.8915, 35.78159
537.3736, 35.42778
537.8557, 35.05772
538.3378, 34.76971
538.8199, 34.67937
539.3021, 34.84615
539.7842, 34.72585
540.2663, 34.25016
540.7484, 33.65976
541.2305, 33.27457
541.7126, 33.06120
542.1948, 32.74380
542.6769, 32.15527
543.1590, 31.58530
543.6411, 31.61067
544.1232, 32.08429
544.6053, 32.45394
545.0875, 32.30187
545.5696, 31.98521
546.0517, 31.81404
546.5338, 31.80190
547.0159, 31.87482
547.4980, 31.99637
547.9802, 32.19061
548.4623, 32.47962
548.9444, 32.89833
549.4265, 33.35632
549.9086, 33.93627
550.3907, 34.51503
550.8729, 34.89792
551.3550, 34.80639
551.8371, 35.00736
552.3192, 35.80017
552.8013, 37.01664
553.2834, 37.65484
553.7656, 37.51901
554.2477, 37.52595
554.7298, 38.36497
555.2119, 39.91808
555.6940, 40.90973
556.1761, 41.29507
556.6583, 41.46246
557.1404, 41.66079
557.6225, 41.94676
558.1046, 42.45911
558.5867, 43.26183
559.0688, 44.22672
559.5510, 45.48600
560.0331, 46.80099
560.5152, 47.72510
560.9973, 47.51630
561.4794, 47.38569
561.9615, 48.07924
562.4437, 49.50159
562.9258, 50.66190
563.4079, 51.18912
563.8900, 51.55807
564.3721, 51.99821
564.8542, 52.57449
565.3364, 53.03769
565.8185, 53.45928
566.3006, 53.67225
566.7827, 53.49360
567.2648, 52.90502
567.7469, 52.01817
568.2291, 50.76026
568.7112, 49.34156
569.1933, 48.19350
569.6754, 47.29103
570.1575, 46.30431
570.6396, 44.96095
571.1218, 43.50542
571.6039, 42.32035
572.0860, 41.40308
572.5681, 40.64988
573.0502, 40.11635
573.5323, 39.65564
574.0145, 39.06527
574.4966, 38.25148
574.9787, 37.67036
575.4608, 37.68836
575.9429, 37.93688
576.4250, 38.05679
576.9072, 37.83961
577.3893, 37.68809
577.8714, 37.72966
578.3535, 37.83125
578.8356, 37.67332
579.3177, 37.16456
579.7999, 36.61205
580.2820, 36.03538
580.7641, 35.48214
581.2462, 35.35596
581.7283, 35.70934
582.2104, 35.98675
582.6926, 35.79961
583.1747, 35.22552
583.6568, 34.35311
584.1389, 33.13396
584.6210, 32.12652
585.1031, 32.10643
585.5853, 32.55535
586.0674, 32.70348
586.5495, 32.12574
587.0316, 31.56190
587.5137, 31.50443
587.9958, 31.70545
588.4779, 31.68417
588.9600, 31.08037
589.4421, 30.48915
589.9243, 30.12129
590.4064, 29.94093
590.8885, 29.57741
591.3706, 28.79747
591.8527, 28.20746
592.3348, 28.20325
592.8170, 28.87118
593.2991, 29.14067
593.7812, 28.95392
594.2633, 28.59578
594.7454, 28.26473
595.2275, 27.99073
595.7097, 27.98459
596.1918, 28.37436
596.6739, 28.76317
597.1560, 28.59738
597.6381, 28.07806
598.1202, 27.63560
598.6024, 27.50429
599.0845, 27.44938
599.5666, 27.31429
600.0487, 27.13350
600.5308, 27.04389
601.0129, 27.25048
601.4951, 27.40731
601.9772, 27.30487
602.4593, 26.89085
602.9414, 26.71746
603.4235, 26.95721
603.9056, 27.21862
604.3878, 27.21963
604.8699, 26.91513
605.3520, 26.60657
605.8341, 26.25724
606.3162, 26.03362
606.7983, 26.33297
607.2805, 27.02645
607.7626, 27.33428
608.2447, 26.86134
608.7268, 26.21682
609.2089, 26.23922
609.6910, 26.72446
610.1732, 27.11246
610.6553, 27.08900
611.1374, 26.90593
611.6195, 26.64036
612.1016, 26.31852
612.5837, 26.12646
613.0659, 26.29846
613.5480, 26.46057
614.0301, 26.39716
614.5122, 26.03265
614.9943, 25.77600
615.4764, 25.69071
615.9586, 25.63552
616.4407, 25.44208
616.9228, 25.07296
617.4049, 24.93026
617.8870, 25.11273
618.3691, 25.39409
618.8513, 25.45268
619.3334, 25.31130
619.8155, 25.05196
620.2976, 24.60110
620.7797, 24.17656
621.2618, 24.12803
621.7440, 24.33026
622.2261, 24.41486
622.7082, 24.09086
623.1903, 23.68963
623.6724, 23.34753
624.1545, 23.07948
624.6367, 22.97075
625.1188, 23.21931
625.6009, 23.47586
626.0830, 23.55651
626.5651, 23.38832
627.0472, 23.33956
627.5294, 23.46642
628.0115, 23.62232
628.4936, 23.65611
628.9757, 23.56684
629.4578, 23.46650
629.9399, 23.38467
630.4221, 23.25591
630.9042, 22.88332
631.3863, 22.37024
631.8684, 22.05367
632.3505, 22.21507
632.8326, 22.44756
633.3148, 22.33640
633.7969, 22.00196
634.2790, 21.80160
634.7611, 22.00232
635.2432, 22.24732
635.7253, 22.43612
636.2075, 22.55956
636.6896, 22.47482
637.1717, 21.98171
637.6538, 21.52400
638.1359, 21.33706
638.6180, 21.46774
639.1002, 21.57852
639.5823, 21.68139
640.0644, 21.72970
640.5465, 21.63562
641.0286, 21.43155
641.5107, 21.30551
641.9929, 21.30272
642.4750, 21.32354
642.9571, 21.26847
643.4392, 21.15503
643.9213, 21.00579
644.4034, 20.67387
644.8856, 20.49541
645.3677, 20.73822
645.8498, 21.26801
646.3319, 21.75521
646.8140, 22.42021
647.2961, 22.70164
647.7783, 22.22701
648.2604, 21.14847
648.7425, 20.72627
649.2246, 21.18984
649.7067, 21.78033
650.1888, 22.16345
650.6710, 22.34372
651.1531, 22.40643
651.6352, 22.34542
652.1173, 22.22892
652.5994, 22.00026
653.0815, 21.78143
653.5637, 21.88910
654.0458, 22.42723
654.5279, 22.88256
655.0100, 22.82073
655.4921, 22.49545
655.9742, 22.18760
656.4564, 21.93925
656.9385, 21.75615
657.4206, 21.57447
657.9027, 21.48047
658.3848, 21.63704
658.8669, 22.27017
659.3491, 22.70021
659.8312, 22.73469
660.3133, 22.53128
660.7954, 22.58196
661.2775, 22.90455
661.7596, 23.19238
662.2418, 23.26518
662.7239, 23.22756
663.2060, 23.28781
663.6881, 23.44568
664.1702, 23.70127
664.6523, 24.13991
665.1345, 24.61977
665.6166, 25.05616
666.0987, 25.44592
666.5808, 25.66981
667.0629, 25.54059
667.5450, 25.33223
668.0272, 25.22104
668.5093, 25.20743
668.9914, 25.30379
669.4735, 25.54134
669.9556, 25.85075
670.4377, 26.15707
670.9199, 26.45253
671.4020, 26.83667
671.8841, 27.34702
672.3662, 27.88523
672.8483, 28.31862
673.3304, 28.65690
673.8126, 28.91372
674.2947, 29.02573
674.7768, 29.15157
675.2589, 29.52066
675.7410, 30.00616
676.2231, 30.31773
676.7053, 30.01722
677.1874, 29.86094
677.6695, 30.31329
678.1516, 31.24540
678.6337, 31.64596
679.1158, 31.21052
679.5980, 30.76972
680.0801, 30.66294
680.5622, 30.86313
681.0443, 31.02666
681.5264, 31.17015
682.0085, 31.11517
682.4907, 30.65746
682.9728, 29.91914
683.4549, 29.11594
683.9370, 28.26671
684.4191, 27.49128
684.9012, 26.87810
685.3834, 26.39352
685.8655, 26.02596
686.3476, 25.81915
686.8297, 25.61357
687.3118, 25.40621
687.7939, 25.16265
688.2761, 24.83795
688.7582, 24.32339
689.2403, 23.97526
689.7224, 23.87158
690.2045, 23.88610
690.6866, 23.79667
691.1688, 23.60567
691.6509, 23.46421
692.1330, 23.39395
692.6151, 23.42311
693.0972, 23.72670
693.5793, 24.18341
694.0615, 24.43421
694.5436, 24.11870
695.0257, 23.72767
695.5078, 23.58536
695.9899, 23.63427
696.4720, 23.62242
696.9542, 23.23988
697.4363, 23.06078
697.9183, 23.39853
698.4005, 24.20504
698.8826, 24.53626
699.3647, 24.27321
699.8468, 23.87556
700.3289, 23.51089
700.8110, 23.20902
701.2932, 23.27282
701.7753, 23.70807
702.2574, 24.13451
702.7395, 24.30198
703.2216, 24.24799
703.7037, 23.93040
704.1859, 23.30140
704.6680, 22.83644
705.1501, 22.83858
705.6322, 23.07032
706.1143, 23.34692
706.5964, 23.73053
707.0786, 23.99263
707.5607, 24.11228
708.0428, 24.12976
708.5249, 24.06127
709.0070, 23.88413
709.4891, 23.77685
709.9713, 23.76111
710.4534, 23.82008
710.9355, 24.02027
711.4176, 24.28695
711.8997, 24.35305
712.3818, 24.03510
712.8640, 23.65349
713.3461, 23.47126
713.8282, 23.42670
714.3103, 23.41028
714.7924, 23.31214
715.2745, 23.31999
715.7567, 23.58348
716.2388, 23.99424
716.7209, 24.22181
717.2030, 24.15660
717.6851, 24.18237
718.1672, 24.49968
718.6494, 24.97030
719.1315, 24.95864
719.6136, 24.48719
720.0957, 24.15347
720.5778, 24.55124
721.0599, 25.17128
721.5421, 25.22343
722.0242, 24.77391
722.5063, 24.37961
722.9884, 24.39340
723.4705, 24.50468
723.9526, 24.54343
724.4348, 24.49120
724.9169, 24.39981
725.3990, 24.26007
725.8811, 24.09970
726.3632, 23.91175
726.8453, 23.68430
727.3275, 23.60580
727.8096, 23.70180
728.2917, 23.82229
728.7738, 23.74382
729.2559, 23.59524
729.7380, 23.79687
730.2202, 24.44343
730.7023, 24.94902
731.1844, 24.66634
731.6665, 24.13061
732.1486, 23.92334
732.6307, 24.38432
733.1129, 24.69034
733.5950, 24.54803
734.0771, 24.28104
734.5592, 24.19954
735.0413, 24.40422
735.5234, 24.44648
736.0056, 24.24119
736.4877, 23.95430
736.9698, 23.80802
737.4519, 23.78836
737.9340, 23.82436
738.4161, 23.89552
738.8983, 24.02387
739.3804, 24.34693
739.8625, 24.71889
740.3446, 24.89886
740.8267, 24.58854
741.3088, 24.31876
741.7910, 24.20275
742.2731, 24.24385
742.7552, 24.45779
743.2373, 24.99988
743.7194, 25.36572
744.2015, 25.40058
744.6837, 25.23230
745.1658, 25.24840
745.6479, 25.42982
746.1300, 25.39774
746.6121, 24.76670
747.0942, 24.06048
747.5764, 24.14098
748.0585, 24.77433
748.5406, 25.25222
749.0227, 24.99830
749.5048, 24.75442
749.9869, 25.02249
750.4691, 25.69522
750.9512, 25.88929
751.4333, 25.24711
751.9154, 24.66513
752.3975, 24.44787
752.8796, 24.54708
753.3618, 24.67579
753.8439, 24.83500
754.3260, 24.96945
754.8081, 25.04290
755.2902, 25.06937
755.7723, 25.06344
756.2545, 25.02852
756.7366, 24.98613
757.2187, 24.85342
757.7008, 24.79510
758.1829, 24.98677
758.6650, 25.46767
759.1472, 25.71896
759.6293, 25.60476
760.1114, 25.41088
760.5935, 25.25035
761.0756, 25.12277
761.5577, 25.08845
762.0399, 25.15033
762.5220, 25.28452
763.0041, 25.50799
763.4862, 25.78098
763.9683, 26.09519
764.4504, 26.45031
764.9326, 26.59718
765.4147, 26.16181
765.8968, 25.61037
766.3789, 25.27369
766.8610, 25.22022
767.3431, 25.33438
767.8253, 25.79316
768.3074, 26.19138
768.7895, 26.19825
769.2716, 25.75101
769.7537, 25.52719
770.2358, 25.57782
770.7180, 25.61894
771.2001, 25.21870
771.6822, 24.64326
772.1643, 24.51134
772.6464, 24.95569
773.1285, 25.36280
773.6107, 25.28940
774.0928, 25.01966
774.5749, 24.80526
775.0570, 24.70039
775.5391, 24.61123
776.0212, 24.50023
776.5034, 24.43771
776.9855, 24.52321
777.4676, 24.77873
777.9497, 24.89960
778.4318, 24.84616
778.9139, 24.73934
779.3961, 24.78154
779.8782, 24.85514
780.3603, 24.65940
780.8424, 24.03518
781.3245, 23.54486
781.8066, 23.61790
782.2888, 23.94110
782.7709, 24.20534
783.2530, 24.38552
783.7351, 24.45141
784.2172, 24.32479
784.6993, 24.17230
785.1815, 24.22471
785.6636, 24.49441
786.1457, 24.56710
786.6278, 24.34918
787.1099, 24.11470
787.5920, 24.29781
788.0742, 24.66729
788.5563, 24.77484
789.0384, 24.40845
789.5205, 24.03897
790.0026, 23.89076
790.4847, 23.87226
790.9669, 23.88304
791.4490, 23.92398
791.9311, 23.98381
792.4132, 24.10434
792.8953, 24.18929
793.3774, 24.01925
793.8596, 23.62235
794.3417, 23.54710
794.8238, 23.93989
795.3059, 24.45842
795.7880, 24.78769
796.2701, 24.96620
796.7523, 25.06611
797.2344, 25.13065
797.7165, 25.06356
798.1986, 24.66675
798.6807, 24.19709
799.1628, 23.97235
799.6450, 24.10816
800.1271, 24.22915
800.6092, 24.32312
801.0913, 24.37569
801.5734, 24.32288
802.0555, 24.19409
802.5377, 24.18647
803.0198, 24.37980
803.5019, 24.54391
803.9840, 24.40629
804.4661, 24.11636
804.9482, 23.86912
805.4304, 23.63250
805.9125, 23.58064
806.3946, 24.00795
806.8767, 24.49062
807.3588, 24.55088
807.8409, 24.02261
808.3230, 23.74877
808.8051, 23.85621
809.2872, 24.09817
809.7693, 24.11654
810.2515, 24.00446
810.7336, 24.06047
811.2157, 24.39516
811.6978, 24.72892
812.1799, 24.90082
812.6620, 24.93681
813.1442, 24.85303
813.6263, 24.36951
814.1084, 24.26783
814.5905, 24.83972
815.0726, 25.53553
815.5547, 25.74384
816.0369, 25.43158
816.5190, 25.13395
817.0011, 24.89248
817.4832, 24.73046
817.9653, 24.80748
818.4474, 24.94667
818.9296, 24.72697
819.4117, 23.86594
819.8938, 23.38586
820.3759, 24.16834
820.8580, 25.34398
821.3401, 26.09448
821.8223, 26.24374
822.3044, 26.29888
822.7865, 26.23476
823.2686, 26.12418
823.7507, 26.02988
824.2328, 25.95266
824.7150, 25.90229
825.1971, 25.88251
825.6792, 25.86346
826.1613, 25.78039
826.6434, 25.70430
827.1255, 25.70427
827.6077, 25.78435
828.0898, 25.97618
828.5719, 26.40398
829.0540, 26.85232
829.5361, 27.18481
830.0182, 27.38758
830.5004, 27.58843
830.9825, 27.81419
831.4646, 27.90638
831.9467, 27.60676
832.4288, 27.09297
832.9109, 26.77076
833.3931, 26.67543
833.8752, 26.58718
834.3573, 26.29951
834.8394, 26.02430
835.3215, 25.91012
835.8036, 25.99289
836.2858, 26.16900
836.7679, 26.47891
837.2500, 26.81721
837.7321, 27.15223
838.2142, 27.47354
838.6964, 27.66576
839.1785, 27.72820
839.6606, 27.72151
840.1427, 27.62400
840.6248, 27.52411
841.1069, 27.48269
841.5891, 27.51079
842.0712, 27.68125
842.5533, 28.22465
843.0354, 28.70510
843.5175, 28.94570
843.9996, 28.95934
844.4818, 28.89231
844.9639, 28.71717
845.4460, 28.62985
845.9281, 28.81826
846.4102, 29.12747
846.8923, 29.15597
847.3745, 28.97584
847.8566, 28.90224
848.3387, 29.23594
848.8208, 29.59308
849.3029, 29.76173
849.7850, 29.76782
850.2672, 29.78930
850.7493, 29.78633
851.2314, 29.89643
851.7135, 30.18145
852.1956, 30.58871
852.6777, 31.04412
853.1599, 31.51559
853.6420, 31.75275
854.1241, 31.46884
854.6062, 31.12121
855.0883, 31.12394
855.5704, 31.37632
856.0526, 31.67514
856.5347, 31.96559
857.0168, 32.30575
857.4989, 32.77785
857.9810, 33.26261
858.4631, 33.51459
858.9453, 33.52703
859.4274, 33.43318
859.9095, 33.18886
860.3916, 33.05584
860.8737, 33.46932
861.3558, 34.23207
861.8380, 34.98203
862.3201, 35.61753
862.8022, 36.21636
863.2843, 36.90210
863.7664, 37.50198
864.2485, 37.77254
864.7307, 37.46125
865.2128, 37.60125
865.6949, 38.30947
866.1770, 39.29491
866.6591, 40.36715
867.1412, 41.45753
867.6234, 42.34391
868.1055, 42.95975
868.5876, 43.66584
869.0697, 44.85768
869.5518, 46.15101
870.0339, 47.20136
870.5161, 47.79839
870.9982, 48.78543
871.4803, 50.31080
871.9624, 51.96712
872.4445, 53.37646
872.9266, 54.60390
873.4088, 56.34240
873.8909, 58.58717
874.3730, 61.04181
874.8551, 63.61020
875.3372, 66.19087
875.8193, 68.58693
876.3015, 70.82146
876.7836, 73.50632
877.2657, 77.05607
877.7478, 80.74451
878.2299, 84.25188
878.7120, 87.71855
879.1942, 91.85721
879.6763, 96.68104
880.1584, 101.7087
880.6405, 106.6759
881.1226, 111.6835
881.6047, 116.7083
882.0869, 121.8588
882.5690, 127.4259
883.0511, 133.5693
883.5332, 140.0964
884.0153, 147.0608
884.4974, 154.3677
884.9796, 161.7862
885.4617, 169.4022
885.9438, 176.9877
886.4259, 184.5713
886.9080, 192.0572
887.3901, 199.0650
887.8723, 205.9279
888.3544, 213.3539
888.8365, 222.0723
889.3186, 230.3260
889.8007, 237.5760
890.2828, 243.8858
890.7650, 249.4019
891.2471, 254.2652
891.7292, 258.0587
892.2113, 260.7681
892.6934, 262.4197
893.1755, 262.8789
893.6577, 262.2934
894.1398, 261.1143
894.6219, 259.4033
895.1040, 256.7004
895.5861, 252.6183
896.0682, 247.5035
896.5504, 241.2442
897.0325, 233.7358
897.5146, 226.6590
897.9967, 220.2549
898.4788, 213.6973
898.9609, 206.2688
899.4431, 198.3220
899.9252, 191.0895
900.4073, 184.5731
900.8894, 178.5677
901.3715, 173.7504
901.8536, 168.7660
902.3358, 162.1990
902.8179, 154.5824
903.3000, 148.3202
903.7821, 144.3681
904.2642, 140.5327
904.7463, 136.5040
905.2285, 132.2784
905.7106, 127.5563
906.1927, 122.4858
906.6748, 117.9606
907.1569, 114.4398
907.6390, 111.0807
908.1212, 107.1402
908.6033, 102.9099
909.0854, 98.81538
909.5675, 94.66984
910.0496, 91.16539
910.5317, 88.51994
911.0139, 86.23707
911.4960, 83.82166
911.9781, 81.29941
912.4602, 79.05299
912.9423, 77.12701
913.4244, 75.13489
913.9066, 72.44531
914.3887, 69.69057
914.8708, 67.58505
915.3529, 66.22865
915.8350, 64.84626
916.3171, 63.23269
916.7993, 61.68015
917.2813, 60.26690
917.7634, 59.01422
918.2455, 58.20848
918.7277, 57.82313
919.2098, 57.23393
919.6919, 55.84869
920.1740, 54.29466
920.6561, 53.23316
921.1382, 52.50093
921.6204, 51.65354
922.1025, 50.43216
922.5846, 49.27723
923.0667, 48.26505
923.5488, 47.33730
924.0309, 46.35751
924.5131, 45.33083
924.9952, 44.46840
925.4773, 43.82902
925.9594, 43.27293
926.4415, 42.62699
926.9236, 41.98645
927.4058, 41.46418
927.8879, 41.11047
928.3700, 40.80701
928.8521, 40.57048
929.3342, 40.33905
929.8163, 40.05484
930.2985, 39.72066
930.7806, 39.44903
931.2627, 39.23936
931.7448, 39.14512
932.2269, 39.35450
932.7090, 39.58904
933.1912, 39.46667
933.6733, 39.04099
934.1554, 38.88504
934.6375, 39.38033
935.1196, 39.83183
935.6017, 40.02961
936.0839, 40.07775
936.5660, 40.40356
937.0481, 40.96857
937.5302, 41.20984
938.0123, 40.71592
938.4944, 40.24487
938.9766, 40.70652
939.4587, 41.61708
939.9408, 42.24181
940.4229, 41.96376
940.9050, 42.05511
941.3871, 42.68887
941.8693, 43.52400
942.3514, 44.34937
942.8335, 45.11052
943.3156, 45.19938
943.7977, 44.54440
944.2798, 43.77671
944.7620, 43.50977
945.2441, 43.29877
945.7262, 42.70925
946.2083, 41.68700
946.6904, 40.79825
947.1725, 40.24266
947.6547, 39.53406
948.1368, 38.38227
948.6189, 36.98077
949.1010, 36.09452
949.5831, 35.62138
950.0652, 34.94820
950.5474, 33.53043
951.0295, 32.10739
951.5116, 31.15780
951.9937, 30.56624
952.4758, 30.14478
952.9579, 29.91359
953.4401, 29.74822
953.9222, 29.67557
954.4043, 29.59424
954.8864, 29.34164
955.3685, 28.96917
955.8506, 28.68921
956.3328, 28.53754
956.8149, 28.32846
957.2970, 27.76107
957.7791, 27.22499
958.2612, 27.06317
958.7433, 27.32436
959.2255, 27.47373
959.7076, 27.48087
960.1897, 27.46655
960.6718, 27.45151
961.1539, 27.48093
961.6360, 27.87513
962.1182, 28.44875
962.6003, 28.54462
963.0824, 27.24236
963.5645, 26.07358
964.0466, 25.75166
964.5287, 25.93415
965.0109, 26.03208
965.4930, 26.00752
965.9751, 26.10275
966.4572, 26.38929
966.9393, 26.64349
967.4214, 26.48105
967.9036, 26.13789
968.3857, 26.05169
968.8678, 26.32838
969.3499, 26.50856
969.8320, 26.26068
970.3141, 26.02713
970.7963, 26.03833
971.2784, 26.28191
971.7605, 26.57822
972.2426, 26.92778
972.7247, 27.24218
973.2068, 27.53012
973.6890, 27.70423
974.1711, 27.56577
974.6532, 27.23188
975.1353, 26.97458
975.6174, 26.80456
976.0995, 26.85254
976.5817, 27.31773
977.0638, 27.80167
977.5459, 27.66329
978.0280, 26.96453
978.5101, 26.35631
978.9922, 25.92564
979.4744, 25.67326
979.9565, 25.74332
980.4386, 25.90338
980.9207, 25.90501
981.4028, 25.68242
981.8849, 25.71201
982.3671, 26.20923
982.8492, 26.50169
983.3313, 26.14577
983.8134, 25.43080
984.2955, 25.30100
984.7776, 25.62777
985.2598, 25.89011
985.7419, 25.69522
986.2240, 25.53252
986.7061, 25.74580
987.1882, 26.10158
987.6703, 26.22932
988.1525, 26.11586
988.6346, 25.74132
989.1167, 25.01269
989.5988, 24.37350
990.0809, 24.42743
990.5630, 24.86598
991.0452, 25.20391
991.5273, 25.38714
992.0094, 25.46430
992.4915, 25.30039
992.9736, 25.20072
993.4557, 25.34102
993.9379, 25.65891
994.4200, 25.77708
994.9021, 25.69775
995.3842, 25.64128
995.8663, 25.72395
996.3484, 25.82580
996.8306, 25.81859
997.3127, 25.73777
997.7948, 25.63813
998.2769, 25.31174
998.7590, 25.34939
999.2411, 25.94044
999.7233, 26.61432
1000.205, 26.94316
1000.688, 26.95576
1001.170, 26.66291
1001.652, 26.09069
1002.134, 25.72707
1002.616, 26.13828
1003.098, 26.65374
1003.580, 26.81710
1004.062, 26.67233
1004.544, 26.62533
1005.027, 26.67100
1005.509, 26.85105
1005.991, 27.23186
1006.473, 27.64195
1006.955, 27.78473
1007.437, 27.76337
1007.919, 27.78771
1008.401, 27.94165
1008.883, 28.06844
1009.366, 27.95572
1009.848, 27.94770
1010.330, 28.36986
1010.812, 29.24322
1011.294, 29.54737
1011.776, 29.28187
1012.258, 29.13438
1012.740, 29.81992
1013.223, 30.61692
1013.705, 30.75280
1014.187, 30.42047
1014.669, 30.30495
1015.151, 30.63169
1015.633, 30.95127
1016.115, 31.19429
1016.597, 31.41373
1017.079, 31.68900
1017.562, 32.00594
1018.044, 32.32783
1018.526, 32.65569
1019.008, 32.91884
1019.490, 33.06443
1019.972, 33.13422
1020.454, 33.13711
1020.936, 33.07978
1021.419, 33.09995
1021.901, 33.22644
1022.383, 33.16786
1022.865, 32.72894
1023.347, 32.10860
1023.829, 31.45850
1024.311, 30.84829
1024.793, 30.41129
1025.275, 30.45892
1025.758, 30.27798
1026.240, 29.69419
1026.722, 29.03470
1027.204, 28.65514
1027.686, 28.50659
1028.168, 28.27182
1028.650, 27.93840
1029.132, 27.59386
1029.615, 27.26050
1030.097, 26.96805
1030.579, 26.72465
1031.061, 26.54223
1031.543, 26.48253
1032.025, 26.59986
1032.507, 26.59629
1032.989, 26.35688
1033.471, 26.07123
1033.953, 26.09284
1034.436, 26.23539
1034.918, 26.15863
1035.400, 25.71841
1035.882, 25.33171
1036.364, 24.95914
1036.846, 24.83880
1037.328, 25.26961
1037.810, 26.13130
1038.293, 26.16440
1038.775, 25.45928
1039.257, 24.80483
1039.739, 24.63883
1040.221, 24.66365
1040.703, 24.78147
1041.185, 24.92305
1041.667, 24.94949
1042.150, 24.81042
1042.632, 24.69506
1043.114, 24.61166
1043.596, 24.57608
1044.078, 24.67936
1044.560, 24.80834
1045.042, 24.72028
1045.524, 24.41457
1046.006, 24.20366
1046.489, 24.30511
1046.971, 24.38513
1047.453, 24.29597
1047.935, 24.14157
1048.417, 24.31458
1048.899, 24.74679
1049.381, 24.80476
1049.863, 24.15849
1050.345, 23.64776
1050.828, 24.21696
1051.310, 25.06363
1051.792, 25.36121
1052.274, 25.01364
1052.756, 24.47475
1053.238, 23.66803
1053.720, 23.02801
1054.202, 22.84067
1054.685, 22.96399
1055.167, 23.29247
1055.649, 23.73110
1056.131, 24.02960
1056.613, 24.04403
1057.095, 23.96262
1057.577, 23.73407
1058.059, 23.52709
1058.542, 23.64275
1059.024, 23.99169
1059.506, 23.88477
1059.988, 23.28358
1060.470, 22.78994
1060.952, 22.94592
1061.434, 23.21333
1061.916, 23.18817
1062.398, 22.97392
1062.880, 23.08295
1063.363, 23.60592
1063.845, 23.85846
1064.327, 23.61362
1064.809, 23.21050
1065.291, 22.99375
1065.773, 22.91377
1066.255, 22.90946
1066.737, 22.97554
1067.220, 23.11567
1067.702, 23.44863
1068.184, 23.61438
1068.666, 23.29147
1069.148, 22.72419
1069.630, 22.85840
1070.112, 23.49223
1070.594, 23.88094
1071.077, 23.45022
1071.559, 23.04560
1072.041, 23.04024
1072.523, 23.19433
1073.005, 23.26067
1073.487, 23.22556
1073.969, 23.29957
1074.451, 23.49385
1074.933, 23.64457
1075.416, 23.57115
1075.898, 23.44754
1076.380, 23.44532
1076.862, 23.53123
1077.344, 23.54641
1077.826, 23.49961
1078.308, 23.29418
1078.790, 22.83326
1079.272, 22.44453
1079.755, 22.78568
1080.237, 23.43792
1080.719, 23.63628
1081.201, 23.24690
1081.683, 22.78483
1082.165, 22.23304
1082.647, 21.85874
1083.129, 21.78899
1083.611, 21.94397
1084.094, 22.06908
1084.576, 22.17776
1085.058, 22.35403
1085.540, 22.66182
1086.022, 22.95223
1086.504, 23.27259
1086.986, 23.43138
1087.468, 23.15306
1087.951, 22.32763
1088.433, 22.28013
1088.915, 23.06904
1089.397, 23.77607
1089.879, 23.82880
1090.361, 23.50931
1090.843, 22.84318
1091.325, 22.07009
1091.807, 21.73766
1092.290, 22.26219
1092.772, 22.54523
1093.254, 22.47601
1093.736, 22.30541
1094.218, 22.24869
1094.700, 22.28500
1095.182, 22.42870
1095.664, 22.65313
1096.146, 22.75959
1096.629, 22.52182
1097.111, 22.34059
1097.593, 22.35559
1098.075, 22.45379
1098.557, 22.39827
1099.039, 22.22239
1099.521, 22.10920
1100.003, 22.09227
1100.486, 22.13003
1100.968, 22.25404
1101.450, 22.37032
1101.932, 22.41338
1102.414, 22.39048
1102.896, 22.34207
1103.378, 22.26860
1103.860, 22.15934
1104.343, 21.97966
1104.825, 21.83671
1105.307, 21.86358
1105.789, 21.97990
1106.271, 22.10976
1106.753, 22.29700
1107.235, 22.23560
1107.717, 21.80999
1108.199, 21.54855
1108.682, 21.92426
1109.164, 22.54103
1109.646, 22.71000
1110.128, 22.55020
1110.610, 22.35423
1111.092, 22.20938
1111.574, 22.02926
1112.056, 21.71373
1112.538, 21.51630
1113.021, 21.78356
1113.503, 22.36474
1113.985, 22.73431
1114.467, 22.87440
1114.949, 22.84095
1115.431, 22.49711
1115.913, 22.17782
1116.395, 21.94936
1116.878, 21.85660
1117.360, 22.05993
1117.842, 22.53359
1118.324, 22.80659
1118.806, 22.81643
1119.288, 22.71077
1119.770, 22.51368
1120.252, 22.31989
1120.734, 22.11888
1121.217, 21.96955
1121.699, 22.26844
1122.181, 23.11044
1122.663, 23.48734
1123.145, 23.03223
1123.627, 22.38208
1124.109, 22.12040
1124.591, 22.12923
1125.073, 22.34991
1125.556, 22.83292
1126.038, 23.06122
1126.520, 23.01051
1127.002, 22.74134
1127.484, 22.15902
1127.966, 21.54083
1128.448, 21.38618
1128.930, 21.54470
1129.413, 21.74728
1129.895, 21.95078
1130.377, 22.12934
1130.859, 22.30021
1131.341, 22.41435
1131.823, 22.38663
1132.305, 22.29213
1132.787, 22.48753
1133.270, 22.85354
1133.752, 22.97095
1134.234, 22.37506
1134.716, 21.88368
1135.198, 21.67393
1135.680, 21.66672
1136.162, 21.85776
1136.644, 22.21548
1137.126, 22.50007
1137.609, 22.70085
1138.091, 22.80578
1138.573, 22.70774
1139.055, 22.62352
1139.537, 22.74939
1140.019, 22.91536
1140.501, 22.82915
1140.983, 22.48413
1141.465, 22.17127
1141.948, 21.91702
1142.430, 21.77132
1142.912, 21.76076
1143.394, 21.88910
1143.876, 22.32578
1144.358, 22.91950
1144.840, 23.00108
1145.322, 22.48152
1145.805, 22.08797
1146.287, 21.97005
1146.769, 21.96455
1147.251, 21.85649
1147.733, 21.80257
1148.215, 22.08955
1148.697, 22.74077
1149.179, 22.86757
1149.661, 22.29875
1150.144, 21.78699
1150.626, 21.54049
1151.108, 21.51982
1151.590, 21.81989
1152.072, 22.24444
1152.554, 22.52910
1153.036, 22.62858
1153.518, 22.51443
1154.000, 22.02406
1154.483, 21.76085
1154.965, 22.11880
1155.447, 22.74192
1155.929, 22.85418
1156.411, 22.66118
1156.893, 22.60762
1157.375, 22.97481
1157.857, 23.09492
1158.340, 22.81691
1158.822, 22.43407
1159.304, 22.08078
1159.786, 21.78711
1160.268, 21.66069
1160.750, 21.67026
1161.232, 21.71596
1161.714, 21.81067
1162.197, 21.85448
1162.679, 21.77234
1163.161, 21.70337
1163.643, 21.75718
1164.125, 21.92681
1164.607, 22.31490
1165.089, 22.83712
1165.571, 23.01896
1166.053, 22.09636
1166.536, 21.43727
1167.018, 21.74616
1167.500, 22.35583
1167.982, 22.51989
1168.464, 22.28527
1168.946, 22.06258
1169.428, 21.88878
1169.910, 21.91600
1170.392, 22.61744
1170.875, 23.12866
1171.357, 22.78473
1171.839, 22.09487
1172.321, 21.89437
1172.803, 22.16432
1173.285, 22.27058
1173.767, 22.13882
1174.249, 22.01770
1174.732, 22.15228
1175.214, 22.29378
1175.696, 22.23089
1176.178, 22.05877
1176.660, 22.06185
1177.142, 22.24622
1177.624, 22.24562
1178.106, 21.96319
1178.589, 21.77847
1179.071, 22.17657
1179.553, 22.66374
1180.035, 22.84279
1180.517, 22.75581
1180.999, 22.66014
1181.481, 22.55228
1181.963, 22.49463
1182.445, 22.51006
1182.927, 22.54039
1183.410, 22.49366
1183.892, 22.46154
1184.374, 22.55218
1184.856, 22.76143
1185.338, 22.98236
1185.820, 23.24350
1186.302, 23.18450
1186.784, 22.56483
1187.267, 21.93502
1187.749, 21.85032
1188.231, 22.08016
1188.713, 22.43572
1189.195, 22.91664
1189.677, 23.14635
1190.159, 23.10810
1190.641, 22.91409
1191.124, 22.48437
1191.606, 22.15960
1192.088, 22.58758
1192.570, 23.23115
1193.052, 23.32554
1193.534, 22.63457
1194.016, 22.27732
1194.498, 22.29025
1194.980, 22.43008
1195.463, 22.68770
1195.945, 22.85430
1196.427, 22.48130
1196.909, 21.92965
1197.391, 21.79966
1197.873, 22.37184
1198.355, 22.59690
1198.837, 22.41550
1199.319, 22.21511
1199.802, 22.29504
1200.284, 22.41966
1200.766, 22.15332
1201.248, 21.76780
1201.730, 21.78971
1202.212, 22.57872
1202.694, 23.00019
1203.176, 22.99821
1203.658, 22.92640
1204.141, 23.09644
1204.623, 23.28974
1205.105, 23.13891
1205.587, 22.82194
1206.069, 22.76136
1206.551, 23.20763
1207.033, 23.35304
1207.515, 23.12358
1207.998, 22.89602
1208.480, 23.08062
1208.962, 23.35155
1209.444, 23.22108
1209.926, 22.85715
1210.408, 22.74946
1210.890, 23.06880
1211.372, 23.27155
1211.854, 23.31446
1212.337, 23.31741
1212.819, 23.41563
1213.301, 23.50716
1213.783, 23.47909
1214.265, 23.34217
1214.747, 23.11574
1215.229, 22.67597
1215.711, 22.62990
1216.193, 23.10979
1216.676, 23.50006
1217.158, 23.02968
1217.640, 22.31739
1218.122, 22.00766
1218.604, 22.06054
1219.086, 22.20839
1219.568, 22.44289
1220.050, 22.74104
1220.533, 23.12998
1221.015, 23.39158
1221.497, 23.12345
1221.979, 22.77514
1222.461, 22.90777
1222.943, 23.38163
1223.425, 23.45781
1223.907, 22.97208
1224.390, 22.74175
1224.872, 22.89828
1225.354, 23.14927
1225.836, 23.21992
1226.318, 23.25053
1226.800, 23.42007
1227.282, 23.67640
1227.764, 23.75354
1228.246, 23.63846
1228.729, 23.37020
1229.211, 22.92809
1229.693, 22.56361
1230.175, 22.65249
1230.657, 22.80457
1231.139, 22.59857
1231.621, 22.13958
1232.103, 22.00019
1232.585, 22.21914
1233.068, 22.37893
1233.550, 22.40618
1234.032, 22.42308
1234.514, 22.53493
1234.996, 22.68361
1235.478, 22.86864
1235.960, 23.04801
1236.442, 23.05197
1236.925, 22.87477
1237.407, 22.74986
1237.889, 22.72332
1238.371, 22.69018
1238.853, 22.53304
1239.335, 22.36830
1239.817, 22.24023
1240.299, 22.18022
1240.781, 22.33249
1241.264, 22.68048
1241.746, 22.96500
1242.228, 23.14287
1242.710, 23.21312
1243.192, 23.10431
1243.674, 22.96122
1244.156, 22.87402
1244.638, 22.81426
1245.120, 22.63658
1245.603, 22.38576
1246.085, 22.43005
1246.567, 22.87469
1247.049, 23.21260
1247.531, 23.03464
1248.013, 22.81053
1248.495, 22.73428
1248.977, 22.78140
1249.460, 22.92624
1249.942, 23.14349
1250.424, 23.35812
1250.906, 23.56819
1251.388, 23.59665
1251.870, 23.13743
1252.352, 22.75217
1252.834, 22.64420
1253.317, 22.71157
1253.799, 22.82462
1254.281, 22.92337
1254.763, 22.74525
1255.245, 22.21741
1255.727, 22.07436
1256.209, 23.08549
1256.691, 23.66485
1257.173, 23.21781
1257.656, 22.36558
1258.138, 22.24965
1258.620, 22.53596
1259.102, 22.59434
1259.584, 22.31867
1260.066, 22.14376
1260.548, 22.14400
1261.030, 22.21144
1261.512, 22.30879
1261.995, 22.48003
1262.477, 22.92918
1262.959, 23.41516
1263.441, 23.60107
1263.923, 23.43613
1264.405, 23.09065
1264.887, 22.46513
1265.369, 22.10243
1265.852, 22.16777
1266.334, 22.43493
1266.816, 22.78207
1267.298, 23.08034
1267.780, 23.15326
1268.262, 23.00273
1268.744, 22.90316
1269.226, 22.85297
1269.708, 22.88627
1270.191, 23.03204
1270.673, 23.15520
1271.155, 23.15271
1271.637, 23.05745
1272.119, 22.79455
1272.601, 22.46439
1273.083, 22.53578
1273.565, 22.98270
1274.047, 23.00039
1274.530, 22.36374
1275.012, 21.82629
1275.494, 22.01619
1275.976, 22.36639
1276.458, 22.57669
1276.940, 22.68843
1277.422, 22.78169
1277.904, 22.87501
1278.387, 23.09356
1278.869, 23.46546
1279.351, 23.80665
1279.833, 24.17578
1280.315, 24.26395
1280.797, 23.85237
##END=



