##NAMES=Helvine
##RRUFFID=R060621
##IDEAL CHEMISTRY=Mn^2+^_4_(BeSiO_4_)_3_S^2-^
##LOCALITY=Foote mine, Kings Mountain District, Cleveland County, North Carolina, USA
##OWNER=RRUFF
##SOURCE=Michael Scott
##DESCRIPTION=Yellowish-brown tetrahedra
##STATUS=The identification of this mineral is confirmed by single-crystal X-ray diffraction and chemical analysis.
##URL=rruff.info/R060621
##MEASURED CHEMISTRY=(Mn^2+^_3.72_Zn_0.18_Fe^3+^_0.08_Ca_0.02_)_Σ=4_Be_3.00_((Si_0.97_Al_0.03_)_Σ=1_O_4_)_3_S_1.00_; BeO assumed by stoichiometry
93.36774, 2001.935
93.84985, 1984.081
94.33197, 1941.998
94.81409, 1903.186
95.29620, 1861.533
95.77832, 1822.922
96.26044, 1788.268
96.74255, 1757.756
97.22467, 1731.454
97.70679, 1709.306
98.18890, 1689.693
98.67102, 1672.461
99.15314, 1656.476
99.63525, 1640.438
100.1174, 1623.617
100.5995, 1606.611
101.0816, 1591.747
101.5637, 1579.346
102.0458, 1568.579
102.5280, 1559.033
103.0101, 1550.621
103.4922, 1543.226
103.9743, 1536.709
104.4564, 1531.019
104.9385, 1527.880
105.4207, 1529.001
105.9028, 1530.352
106.3849, 1530.184
106.8670, 1528.291
107.3491, 1524.720
107.8312, 1518.361
108.3134, 1509.509
108.7955, 1503.638
109.2776, 1503.233
109.7597, 1505.637
110.2418, 1507.180
110.7239, 1507.333
111.2061, 1506.604
111.6882, 1504.780
112.1703, 1502.205
112.6524, 1500.702
113.1345, 1501.996
113.6166, 1505.888
114.0988, 1508.932
114.5809, 1509.474
115.0630, 1510.065
115.5451, 1511.765
116.0272, 1514.737
116.5093, 1518.880
116.9915, 1524.252
117.4736, 1531.289
117.9557, 1538.370
118.4378, 1544.054
118.9199, 1550.421
119.4020, 1558.884
119.8842, 1569.912
120.3663, 1583.025
120.8484, 1597.264
121.3305, 1613.117
121.8126, 1629.684
122.2947, 1646.421
122.7769, 1663.902
123.2590, 1682.182
123.7411, 1701.102
124.2232, 1721.548
124.7053, 1748.919
125.1874, 1781.314
125.6696, 1820.173
126.1517, 1867.875
126.6338, 1923.186
127.1159, 1983.854
127.5980, 2054.531
128.0801, 2126.953
128.5623, 2179.220
129.0444, 2216.818
129.5265, 2229.653
130.0086, 2202.803
130.4907, 2131.487
130.9728, 2044.181
131.4550, 1947.651
131.9371, 1848.266
132.4192, 1755.666
132.9013, 1671.852
133.3834, 1597.757
133.8655, 1536.486
134.3477, 1490.565
134.8298, 1455.969
135.3119, 1431.338
135.7940, 1415.137
136.2761, 1405.119
136.7582, 1400.551
137.2404, 1401.581
137.7225, 1403.052
138.2046, 1409.230
138.6867, 1412.011
139.1688, 1408.477
139.6509, 1398.888
140.1331, 1385.165
140.6152, 1368.798
141.0973, 1349.064
141.5794, 1329.410
142.0615, 1308.234
142.5436, 1288.201
143.0258, 1270.476
143.5079, 1255.434
143.9900, 1243.083
144.4721, 1233.604
144.9542, 1227.901
145.4363, 1223.422
145.9185, 1220.705
146.4006, 1218.920
146.8827, 1216.918
147.3648, 1214.243
147.8469, 1211.839
148.3290, 1211.492
148.8112, 1213.078
149.2933, 1215.488
149.7754, 1218.257
150.2575, 1221.519
150.7396, 1225.713
151.2217, 1230.882
151.7039, 1237.277
152.1860, 1244.449
152.6681, 1252.295
153.1502, 1261.832
153.6323, 1274.690
154.1144, 1290.947
154.5966, 1306.783
155.0787, 1322.243
155.5608, 1336.015
156.0429, 1347.529
156.5250, 1356.766
157.0071, 1362.545
157.4893, 1362.793
157.9714, 1356.058
158.4535, 1347.336
158.9356, 1336.260
159.4177, 1324.521
159.8998, 1313.036
160.3820, 1302.214
160.8641, 1292.486
161.3462, 1284.953
161.8283, 1280.286
162.3104, 1277.294
162.7925, 1275.671
163.2747, 1275.554
163.7568, 1277.196
164.2389, 1280.730
164.7210, 1285.949
165.2031, 1292.055
165.6852, 1300.154
166.1674, 1307.927
166.6495, 1314.738
167.1316, 1321.016
167.6137, 1327.298
168.0958, 1333.808
168.5779, 1340.723
169.0601, 1349.220
169.5422, 1357.707
170.0243, 1368.844
170.5064, 1383.630
170.9885, 1401.973
171.4706, 1423.478
171.9528, 1447.891
172.4349, 1475.794
172.9170, 1506.971
173.3991, 1543.890
173.8812, 1582.190
174.3633, 1621.875
174.8455, 1663.219
175.3276, 1697.032
175.8097, 1721.321
176.2918, 1732.586
176.7739, 1723.421
177.2560, 1687.174
177.7382, 1633.215
178.2203, 1571.526
178.7024, 1499.256
179.1845, 1429.385
179.6666, 1367.354
180.1487, 1312.345
180.6309, 1264.535
181.1130, 1224.177
181.5951, 1190.762
182.0772, 1162.689
182.5593, 1141.349
183.0414, 1123.978
183.5236, 1109.597
184.0057, 1097.727
184.4878, 1087.869
184.9699, 1079.965
185.4520, 1073.763
185.9341, 1067.642
186.4163, 1061.077
186.8984, 1055.267
187.3805, 1050.375
187.8626, 1046.379
188.3447, 1043.249
188.8268, 1040.988
189.3090, 1039.588
189.7911, 1038.503
190.2732, 1038.070
190.7553, 1037.618
191.2374, 1036.988
191.7195, 1036.198
192.2017, 1035.310
192.6838, 1034.359
193.1659, 1033.332
193.6480, 1032.461
194.1301, 1030.960
194.6122, 1030.284
195.0944, 1031.829
195.5765, 1035.002
196.0586, 1037.743
196.5407, 1038.356
197.0228, 1036.685
197.5049, 1034.797
197.9871, 1032.624
198.4692, 1030.300
198.9513, 1027.991
199.4334, 1025.677
199.9155, 1023.040
200.3976, 1019.643
200.8798, 1015.572
201.3619, 1012.089
201.8440, 1009.493
202.3261, 1007.356
202.8082, 1005.466
203.2903, 1003.834
203.7725, 1002.090
204.2546, 999.8217
204.7367, 997.2228
205.2188, 994.8481
205.7009, 992.6451
206.1830, 990.7818
206.6652, 989.6483
207.1473, 989.4314
207.6294, 989.2383
208.1115, 988.1447
208.5936, 986.6975
209.0757, 985.8026
209.5579, 986.1735
210.0400, 987.1480
210.5221, 987.2722
211.0042, 986.0954
211.4863, 985.0804
211.9685, 985.1012
212.4506, 985.6971
212.9327, 986.2387
213.4148, 986.4464
213.8969, 986.3834
214.3790, 986.2256
214.8612, 985.8915
215.3433, 985.5956
215.8254, 985.2537
216.3075, 985.0224
216.7896, 985.1718
217.2717, 985.9459
217.7539, 987.1473
218.2360, 987.8461
218.7181, 987.5115
219.2002, 987.3591
219.6823, 987.8682
220.1644, 988.6924
220.6466, 989.2781
221.1287, 989.2396
221.6108, 988.7705
222.0929, 988.9918
222.5750, 990.8093
223.0571, 992.3624
223.5393, 993.1382
224.0214, 993.4914
224.5035, 993.8981
224.9856, 994.6216
225.4677, 995.6722
225.9498, 997.1236
226.4320, 999.4314
226.9141, 1001.663
227.3962, 1003.242
227.8783, 1004.714
228.3604, 1007.026
228.8425, 1010.787
229.3247, 1015.695
229.8068, 1020.058
230.2889, 1023.324
230.7710, 1026.711
231.2531, 1030.298
231.7352, 1034.186
232.2174, 1038.604
232.6995, 1043.720
233.1816, 1049.359
233.6637, 1054.759
234.1458, 1060.541
234.6279, 1065.455
235.1101, 1069.724
235.5922, 1072.887
236.0743, 1073.889
236.5564, 1072.062
237.0385, 1067.987
237.5206, 1063.504
238.0028, 1058.745
238.4849, 1053.509
238.9670, 1047.361
239.4491, 1040.714
239.9312, 1034.338
240.4133, 1028.528
240.8955, 1023.363
241.3776, 1018.978
241.8597, 1015.511
242.3418, 1012.322
242.8239, 1009.347
243.3060, 1006.486
243.7882, 1003.332
244.2703, 999.5275
244.7524, 995.7138
245.2345, 993.1241
245.7166, 992.0576
246.1987, 990.6153
246.6809, 987.4359
247.1630, 983.0595
247.6451, 979.2905
248.1272, 976.8245
248.6093, 974.9309
249.0914, 972.6594
249.5736, 970.0106
250.0557, 967.5015
250.5378, 965.4753
251.0199, 963.8503
251.5020, 962.2652
251.9841, 960.5883
252.4663, 959.0320
252.9484, 957.7831
253.4305, 956.8177
253.9126, 955.8926
254.3947, 954.7197
254.8768, 953.4170
255.3590, 952.5746
255.8411, 952.3282
256.3232, 952.5046
256.8053, 953.0154
257.2874, 953.7986
257.7695, 954.6304
258.2516, 955.6516
258.7338, 956.7092
259.2159, 956.8121
259.6980, 955.1544
260.1801, 953.6735
260.6622, 953.4008
261.1443, 954.0511
261.6265, 955.0021
262.1086, 955.9818
262.5907, 956.9683
263.0728, 957.8072
263.5549, 958.2845
264.0370, 958.9541
264.5192, 960.0489
265.0013, 961.4474
265.4834, 962.9996
265.9655, 964.7389
266.4476, 966.5041
266.9297, 967.6156
267.4119, 967.2209
267.8940, 967.6072
268.3761, 969.7050
268.8582, 972.7670
269.3403, 975.8694
269.8224, 978.5292
270.3046, 981.0375
270.7867, 984.2348
271.2688, 988.5203
271.7509, 992.8258
272.2330, 996.8256
272.7151, 1000.778
273.1973, 1004.919
273.6794, 1009.342
274.1615, 1014.084
274.6436, 1019.221
275.1257, 1024.540
275.6078, 1030.774
276.0900, 1038.627
276.5721, 1046.859
277.0542, 1054.328
277.5363, 1060.742
278.0184, 1066.721
278.5005, 1073.334
278.9827, 1081.100
279.4648, 1088.327
279.9469, 1094.990
280.4290, 1101.163
280.9111, 1107.005
281.3932, 1112.476
281.8754, 1117.238
282.3575, 1120.914
282.8396, 1123.608
283.3217, 1124.773
283.8038, 1124.296
284.2859, 1122.642
284.7681, 1120.060
285.2502, 1116.550
285.7323, 1111.914
286.2144, 1105.825
286.6965, 1098.001
287.1786, 1090.233
287.6608, 1082.226
288.1429, 1074.500
288.6250, 1067.234
289.1071, 1060.439
289.5892, 1054.003
290.0714, 1047.756
290.5535, 1041.712
291.0356, 1036.616
291.5177, 1033.077
291.9998, 1029.867
292.4819, 1026.462
292.9641, 1023.153
293.4462, 1020.531
293.9283, 1018.978
294.4104, 1018.397
294.8925, 1018.049
295.3746, 1018.787
295.8568, 1018.788
296.3389, 1017.716
296.8210, 1015.762
297.3031, 1013.195
297.7852, 1010.137
298.2673, 1006.571
298.7495, 1002.487
299.2316, 996.9359
299.7137, 991.9914
300.1958, 987.7593
300.6779, 984.1249
301.1600, 981.0895
301.6422, 978.6124
302.1243, 976.4216
302.6064, 974.0001
303.0885, 970.7537
303.5706, 968.4036
304.0527, 967.7582
304.5349, 967.3945
305.0170, 966.2914
305.4991, 964.2611
305.9812, 961.7304
306.4633, 959.2388
306.9454, 956.9543
307.4276, 954.0783
307.9097, 950.3486
308.3918, 946.3993
308.8739, 942.5178
309.3560, 938.7359
309.8381, 934.9993
310.3203, 931.1928
310.8024, 927.3210
311.2845, 923.7367
311.7666, 919.8992
312.2487, 916.8385
312.7308, 915.5161
313.2130, 915.2470
313.6951, 914.5390
314.1772, 912.3774
314.6593, 909.0303
315.1414, 906.4402
315.6235, 905.0597
316.1057, 903.8918
316.5878, 902.9303
317.0699, 902.0411
317.5520, 901.0622
318.0341, 899.9214
318.5162, 898.6653
318.9984, 897.4245
319.4805, 896.0527
319.9626, 894.9114
320.4447, 894.1194
320.9268, 893.4967
321.4089, 892.9261
321.8911, 892.3615
322.3732, 891.7556
322.8553, 891.0094
323.3374, 889.9689
323.8195, 889.2078
324.3016, 888.8505
324.7838, 888.6398
325.2659, 888.4690
325.7480, 888.2988
326.2301, 888.1021
326.7122, 887.8572
327.1943, 887.5709
327.6765, 887.1463
328.1586, 886.2303
328.6407, 885.5322
329.1228, 885.4951
329.6049, 885.8880
330.0870, 886.1376
330.5692, 885.8234
331.0513, 885.0614
331.5334, 884.7615
332.0155, 885.7736
332.4976, 886.3030
332.9797, 885.6113
333.4619, 884.4494
333.9440, 883.8929
334.4261, 884.4274
334.9082, 885.4971
335.3904, 885.7537
335.8725, 884.5629
336.3546, 883.5174
336.8367, 882.6855
337.3188, 882.0099
337.8009, 881.4869
338.2831, 881.0979
338.7652, 880.7523
339.2473, 880.2364
339.7294, 879.1893
340.2115, 879.1541
340.6936, 881.2593
341.1758, 883.2336
341.6579, 883.7949
342.1400, 883.1354
342.6221, 882.2466
343.1042, 881.9244
343.5863, 882.1650
344.0685, 882.7185
344.5506, 883.8777
345.0327, 885.0670
345.5148, 886.2057
345.9969, 887.2814
346.4790, 888.3044
346.9612, 889.2932
347.4433, 890.2031
347.9254, 890.9042
348.4075, 891.2861
348.8896, 891.6111
349.3717, 891.6441
349.8539, 891.7902
350.3360, 892.3844
350.8181, 893.5326
351.3002, 895.1539
351.7823, 897.3000
352.2644, 900.3376
352.7466, 902.6893
353.2287, 903.8643
353.7108, 904.6961
354.1929, 905.5701
354.6750, 906.5067
355.1571, 907.3143
355.6393, 907.6484
356.1214, 907.5203
356.6035, 908.2286
357.0856, 910.3964
357.5677, 912.7161
358.0498, 914.9949
358.5320, 917.0551
359.0141, 918.6263
359.4962, 919.5184
359.9783, 919.8807
360.4604, 920.0832
360.9425, 920.1270
361.4247, 919.9895
361.9068, 919.5227
362.3889, 918.9562
362.8710, 918.5912
363.3531, 918.5225
363.8352, 918.3060
364.3174, 917.2951
364.7995, 915.3965
365.2816, 913.6215
365.7637, 912.3835
366.2458, 911.0915
366.7279, 909.4147
367.2101, 907.3455
367.6922, 904.9856
368.1743, 902.1508
368.6564, 899.0159
369.1385, 896.4760
369.6206, 894.7994
370.1028, 893.2311
370.5849, 891.0773
371.0670, 888.7347
371.5491, 886.9832
372.0312, 886.2746
372.5133, 886.0863
372.9955, 885.6566
373.4776, 884.9475
373.9597, 884.3884
374.4418, 884.3919
374.9239, 884.4957
375.4060, 884.0671
375.8882, 882.9418
376.3703, 881.7641
376.8524, 881.0240
377.3345, 880.6155
377.8166, 880.0771
378.2987, 879.2480
378.7809, 878.3682
379.2630, 877.6523
379.7451, 877.0863
380.2272, 876.7322
380.7093, 876.8386
381.1914, 877.0656
381.6736, 876.9885
382.1557, 876.5754
382.6378, 875.9023
383.1199, 874.9362
383.6020, 873.7375
384.0841, 872.6171
384.5663, 871.2862
385.0484, 870.3265
385.5305, 870.4645
386.0126, 871.3155
386.4947, 871.5546
386.9768, 870.4786
387.4590, 868.8187
387.9411, 868.2198
388.4232, 869.0128
388.9053, 869.6268
389.3874, 869.6445
389.8695, 869.3724
390.3517, 869.1693
390.8338, 869.0980
391.3159, 868.9900
391.7980, 868.6808
392.2801, 868.1512
392.7622, 867.4782
393.2444, 866.6148
393.7265, 865.6688
394.2086, 864.4550
394.6907, 863.1906
395.1728, 862.4456
395.6549, 862.6091
396.1371, 863.4092
396.6192, 863.7513
397.1013, 863.3141
397.5834, 862.7977
398.0655, 862.1598
398.5476, 861.5108
399.0298, 860.9705
399.5119, 860.5665
399.9940, 860.2147
400.4761, 859.7581
400.9582, 859.0267
401.4403, 858.8156
401.9225, 859.9091
402.4046, 860.7162
402.8867, 860.3704
403.3688, 859.1086
403.8509, 857.5888
404.3330, 856.1641
404.8152, 854.9386
405.2973, 854.5726
405.7794, 855.9517
406.2615, 856.8650
406.7436, 856.6240
407.2257, 855.9058
407.7079, 855.4088
408.1900, 855.3422
408.6721, 855.3796
409.1542, 855.0890
409.6363, 854.4368
410.1184, 853.6156
410.6006, 852.1687
411.0827, 851.0001
411.5648, 850.7934
412.0469, 851.3217
412.5290, 851.7631
413.0111, 851.5659
413.4933, 850.8873
413.9754, 850.2225
414.4575, 849.6029
414.9396, 848.9266
415.4217, 848.0262
415.9038, 847.0911
416.3860, 846.3366
416.8681, 845.8045
417.3502, 845.4686
417.8323, 845.4335
418.3144, 845.6457
418.7965, 845.6488
419.2787, 845.2842
419.7608, 844.7255
420.2429, 844.1573
420.7250, 843.5769
421.2071, 842.9326
421.6892, 841.9417
422.1714, 840.9929
422.6535, 840.7601
423.1356, 841.2927
423.6177, 841.7950
424.0998, 841.7599
424.5819, 841.2496
425.0641, 840.6707
425.5462, 839.9073
426.0283, 839.2277
426.5104, 838.7264
426.9925, 838.3969
427.4746, 838.2566
427.9568, 838.3235
428.4389, 838.4991
428.9210, 838.6546
429.4031, 838.8380
429.8852, 838.8376
430.3673, 838.6381
430.8495, 838.2717
431.3316, 837.4814
431.8137, 836.4691
432.2958, 835.9462
432.7779, 836.4782
433.2600, 837.9190
433.7422, 839.0778
434.2243, 840.1267
434.7064, 840.6504
435.1885, 840.0482
435.6706, 839.1390
436.1527, 838.7415
436.6349, 839.1151
437.1170, 840.0585
437.5991, 841.3475
438.0812, 843.0693
438.5633, 844.8029
439.0454, 846.5570
439.5276, 848.2987
440.0097, 850.0599
440.4918, 851.7916
440.9739, 853.3854
441.4560, 854.6949
441.9381, 855.9096
442.4203, 857.7125
442.9024, 860.4501
443.3845, 862.8380
443.8666, 864.5596
444.3487, 865.7354
444.8308, 866.5402
445.3130, 866.9977
445.7951, 866.6761
446.2772, 864.9561
446.7593, 862.0624
447.2414, 859.1902
447.7235, 856.5900
448.2057, 853.7825
448.6878, 849.8522
449.1699, 845.3918
449.6520, 841.9949
450.1341, 840.8494
450.6162, 840.1708
451.0984, 838.0445
451.5805, 834.7487
452.0626, 832.1642
452.5447, 831.3416
453.0268, 831.2031
453.5089, 829.4152
453.9911, 825.4779
454.4732, 822.5448
454.9553, 821.9174
455.4374, 822.2833
455.9195, 822.4081
456.4016, 822.1180
456.8838, 821.6158
457.3659, 821.0344
457.8480, 820.3799
458.3301, 819.7572
458.8122, 819.2195
459.2943, 818.6422
459.7765, 817.7849
460.2586, 816.9467
460.7407, 816.6335
461.2228, 816.9827
461.7049, 817.5047
462.1870, 817.4270
462.6692, 816.4734
463.1513, 815.8182
463.6334, 815.5463
464.1155, 815.4808
464.5976, 815.7582
465.0797, 816.1833
465.5619, 816.3661
466.0440, 816.0529
466.5261, 815.3917
467.0082, 814.7083
467.4903, 813.8232
467.9724, 813.4075
468.4546, 814.0416
468.9367, 814.9277
469.4188, 815.5690
469.9009, 815.8969
470.3830, 815.9804
470.8651, 815.7629
471.3473, 815.3265
471.8294, 814.9883
472.3115, 814.7864
472.7936, 814.5938
473.2757, 814.2337
473.7578, 813.8418
474.2400, 813.7108
474.7221, 814.0450
475.2042, 814.3806
475.6863, 814.3708
476.1684, 814.1094
476.6505, 813.8134
477.1327, 813.5049
477.6148, 813.3678
478.0969, 813.7911
478.5790, 814.9351
479.0611, 815.3663
479.5432, 814.3437
480.0254, 813.1855
480.5075, 812.8289
480.9896, 813.0742
481.4717, 813.1384
481.9538, 812.5626
482.4359, 811.6589
482.9181, 811.3262
483.4002, 812.1455
483.8823, 812.7082
484.3644, 813.0204
484.8465, 813.0685
485.3286, 812.5905
485.8108, 811.7524
486.2929, 811.1881
486.7750, 811.4738
487.2571, 812.5189
487.7392, 813.6024
488.2213, 815.0144
488.7035, 815.9444
489.1856, 815.8751
489.6677, 815.4414
490.1498, 815.2896
490.6319, 815.5759
491.1140, 816.0085
491.5962, 816.3008
492.0783, 816.4750
492.5604, 816.7117
493.0425, 817.0367
493.5246, 817.4135
494.0067, 817.8264
494.4889, 818.2728
494.9710, 818.7709
495.4531, 819.5508
495.9352, 820.1258
496.4173, 819.9283
496.8994, 819.1634
497.3816, 818.5998
497.8637, 818.5259
498.3458, 818.6494
498.8279, 818.4954
499.3100, 817.9272
499.7921, 817.8158
500.2743, 818.6422
500.7564, 819.5729
501.2385, 820.1349
501.7206, 820.3273
502.2027, 820.1739
502.6848, 819.6411
503.1670, 819.0046
503.6491, 819.1151
504.1312, 820.6536
504.6133, 821.8533
505.0954, 822.4092
505.5775, 822.8433
506.0597, 823.5369
506.5418, 824.4705
507.0239, 825.3583
507.5060, 825.9570
507.9881, 826.3360
508.4702, 826.8412
508.9524, 827.5543
509.4345, 828.2101
509.9166, 828.4062
510.3987, 828.6869
510.8808, 829.7883
511.3629, 831.8317
511.8451, 833.5772
512.3271, 833.7009
512.8093, 832.8234
513.2914, 832.7817
513.7735, 833.8623
514.2556, 835.1335
514.7377, 835.8982
515.2198, 836.3596
515.7020, 837.2296
516.1841, 838.7418
516.6662, 840.3441
517.1483, 841.8470
517.6304, 843.2631
518.1125, 844.5873
518.5947, 845.8237
519.0768, 847.0751
519.5589, 848.4960
520.0410, 850.1442
520.5231, 851.4282
521.0052, 851.7429
521.4874, 852.4323
521.9695, 854.2760
522.4516, 856.6466
522.9337, 858.6367
523.4158, 859.9229
523.8979, 860.7953
524.3801, 861.5906
524.8622, 862.2155
525.3443, 863.2823
525.8264, 865.5563
526.3085, 867.4505
526.7906, 868.2574
527.2728, 868.2161
527.7549, 867.7581
528.2370, 866.9247
528.7191, 866.0261
529.2012, 865.4014
529.6833, 865.0485
530.1655, 865.0321
530.6476, 865.5472
531.1297, 866.1013
531.6118, 866.1227
532.0939, 865.6786
532.5760, 865.1047
533.0582, 864.3440
533.5403, 863.5811
534.0224, 863.2131
534.5045, 862.9938
534.9866, 862.0393
535.4688, 859.8978
535.9509, 857.2882
536.4330, 855.5650
536.9151, 855.1956
537.3972, 854.6741
537.8793, 854.3446
538.3615, 853.5635
538.8436, 851.5193
539.3257, 848.7557
539.8078, 846.4607
540.2899, 845.2912
540.7720, 845.0013
541.2542, 845.1903
541.7363, 846.1510
542.2184, 846.5690
542.7005, 845.4802
543.1826, 844.4361
543.6647, 844.3904
544.1469, 845.2068
544.6290, 846.1644
545.1111, 846.9718
545.5932, 847.6614
546.0753, 848.2803
546.5574, 848.8260
547.0396, 849.2529
547.5217, 849.4182
548.0038, 849.6207
548.4859, 850.4916
548.9680, 852.1133
549.4501, 853.3985
549.9323, 853.8054
550.4144, 854.0880
550.8965, 854.7692
551.3786, 855.8538
551.8607, 857.2235
552.3428, 858.8319
552.8250, 860.5960
553.3071, 862.3370
553.7892, 864.3476
554.2713, 865.7919
554.7534, 865.6811
555.2355, 865.9796
555.7177, 868.0742
556.1998, 871.5507
556.6819, 875.1219
557.1640, 878.0366
557.6461, 880.5291
558.1282, 883.0644
558.6104, 885.6727
559.0925, 888.1490
559.5746, 890.2458
560.0567, 892.4020
560.5388, 895.3226
561.0209, 898.8063
561.5031, 901.4860
561.9852, 902.5740
562.4673, 902.7938
562.9494, 902.9745
563.4315, 902.9941
563.9136, 902.2159
564.3958, 900.3658
564.8779, 897.5925
565.3600, 894.0567
565.8421, 889.4179
566.3242, 884.9916
566.8063, 880.4565
567.2885, 876.4006
567.7706, 873.4439
568.2527, 871.1927
568.7348, 868.8068
569.2169, 865.8562
569.6990, 862.7457
570.1812, 860.2747
570.6633, 858.5681
571.1454, 857.0451
571.6275, 856.0109
572.1096, 854.7816
572.5917, 852.7674
573.0739, 850.3226
573.5560, 848.3051
574.0381, 847.2015
574.5202, 846.3519
575.0023, 845.0625
575.4844, 843.3793
575.9666, 841.5197
576.4487, 839.4604
576.9308, 837.4769
577.4129, 835.9479
577.8950, 834.8792
578.3771, 833.4310
578.8593, 831.2453
579.3414, 829.0341
579.8235, 827.1090
580.3056, 825.3652
580.7877, 823.6133
581.2698, 821.7910
581.7520, 820.0258
582.2341, 818.4983
582.7162, 817.2263
583.1984, 815.8928
583.6805, 814.2994
584.1626, 812.9029
584.6447, 811.9824
585.1268, 811.2454
585.6089, 810.3471
586.0911, 809.1953
586.5732, 807.9301
587.0553, 806.6181
587.5374, 805.2897
588.0195, 804.0750
588.5016, 802.9716
588.9838, 802.0557
589.4659, 801.4864
589.9480, 801.1154
590.4301, 800.4800
590.9122, 799.4278
591.3943, 798.4262
591.8765, 797.5211
592.3586, 796.7933
592.8407, 796.3452
593.3228, 796.1773
593.8049, 796.2484
594.2870, 796.5734
594.7692, 797.0440
595.2513, 797.1277
595.7334, 796.5273
596.2155, 796.0621
596.6976, 795.9302
597.1797, 795.8499
597.6619, 795.6643
598.1440, 795.3533
598.6261, 794.9202
599.1082, 794.2499
599.5903, 793.5633
600.0724, 793.2243
600.5546, 793.2289
601.0367, 793.6951
601.5188, 795.0038
602.0009, 796.2667
602.4830, 796.1912
602.9651, 794.8307
603.4473, 793.4998
603.9294, 792.2537
604.4115, 791.2101
604.8936, 790.5850
605.3757, 790.1994
605.8578, 789.6650
606.3400, 788.8488
606.8221, 788.0135
607.3042, 787.5787
607.7863, 787.6597
608.2684, 787.4280
608.7505, 786.5928
609.2327, 785.7973
609.7148, 785.3726
610.1969, 785.0407
610.6790, 784.4183
611.1611, 783.3986
611.6432, 782.2689
612.1254, 781.0076
612.6075, 779.8341
613.0896, 779.6902
613.5717, 780.7998
614.0538, 781.6469
614.5359, 781.2157
615.0181, 779.9115
615.5002, 778.9437
615.9823, 778.4222
616.4644, 777.9142
616.9465, 777.3772
617.4286, 776.7811
617.9108, 775.9465
618.3929, 775.0030
618.8750, 774.4213
619.3571, 774.5351
619.8392, 775.0227
620.3214, 774.9827
620.8035, 774.1718
621.2856, 773.5986
621.7677, 773.7310
622.2498, 773.7838
622.7319, 773.2125
623.2141, 772.2423
623.6962, 771.4708
624.1783, 771.1510
624.6604, 771.0559
625.1425, 770.9952
625.6246, 770.9767
626.1068, 771.1243
626.5889, 771.5099
627.0710, 771.6419
627.5531, 770.9779
628.0352, 769.5649
628.5173, 768.4427
628.9995, 767.5176
629.4816, 766.9607
629.9637, 766.8776
630.4458, 767.1291
630.9279, 767.7678
631.4100, 768.6650
631.8922, 769.3512
632.3743, 769.4110
632.8564, 768.9775
633.3385, 768.4937
633.8206, 767.8926
634.3027, 767.4940
634.7849, 767.4114
635.2670, 767.5513
635.7491, 767.9597
636.2312, 768.5812
636.7133, 768.8392
637.1954, 768.1572
637.6776, 767.4061
638.1597, 767.5634
638.6418, 768.1925
639.1239, 768.0716
639.6060, 766.8056
640.0881, 765.1973
640.5703, 764.1945
641.0524, 763.8018
641.5345, 764.0214
642.0166, 766.0638
642.4987, 767.2813
642.9808, 766.5792
643.4630, 765.1378
643.9451, 763.9714
644.4272, 763.3440
644.9093, 763.3087
645.3914, 764.4078
645.8735, 766.0220
646.3557, 766.4927
646.8378, 765.7673
647.3199, 765.0159
647.8020, 764.7164
648.2841, 764.6329
648.7662, 764.3458
649.2484, 763.7629
649.7305, 763.4764
650.2126, 763.8507
650.6947, 764.2094
651.1768, 764.0803
651.6589, 763.6982
652.1411, 763.5805
652.6232, 763.8869
653.1053, 764.1789
653.5874, 763.7781
654.0695, 762.6735
654.5516, 761.9708
655.0338, 761.5984
655.5159, 761.7834
655.9980, 763.4577
656.4801, 765.3272
656.9622, 765.7634
657.4443, 764.4749
657.9265, 763.3241
658.4086, 763.5455
658.8907, 764.0427
659.3728, 763.4184
659.8549, 761.8955
660.3370, 760.6668
660.8192, 760.2813
661.3013, 760.4355
661.7834, 760.6349
662.2655, 760.9086
662.7476, 761.1194
663.2297, 761.3026
663.7119, 761.3856
664.1940, 761.4068
664.6761, 761.2917
665.1582, 760.8646
665.6403, 760.0792
666.1224, 759.3423
666.6046, 758.9612
667.0867, 758.8843
667.5688, 759.0616
668.0509, 759.4926
668.5330, 759.8784
669.0151, 760.0590
669.4973, 760.1272
669.9794, 760.2639
670.4615, 760.4924
670.9436, 760.7315
671.4257, 760.8474
671.9078, 761.1039
672.3900, 761.6804
672.8721, 762.4759
673.3542, 763.4022
673.8363, 764.4091
674.3184, 765.2336
674.8005, 765.3782
675.2827, 764.9479
675.7648, 765.1384
676.2469, 766.2295
676.7290, 767.0406
677.2111, 767.1097
677.6932, 766.4761
678.1754, 765.1858
678.6575, 763.1202
679.1396, 761.0871
679.6217, 759.1812
680.1038, 757.4430
680.5859, 755.9222
681.0681, 754.5970
681.5502, 753.5410
682.0323, 752.7682
682.5144, 751.8856
682.9965, 750.2010
683.4786, 747.6334
683.9608, 745.7532
684.4429, 745.0391
684.9250, 744.1577
685.4071, 742.0941
685.8892, 739.8452
686.3713, 738.5522
686.8535, 738.3580
687.3356, 738.3168
687.8177, 738.2071
688.2998, 737.9129
688.7819, 737.1810
689.2640, 736.1462
689.7462, 735.2332
690.2283, 734.6000
690.7104, 734.2002
691.1925, 734.0276
691.6746, 734.1512
692.1567, 733.8777
692.6389, 732.9225
693.1210, 731.9498
693.6031, 730.9987
694.0852, 730.1964
694.5673, 729.7061
695.0494, 729.5331
695.5316, 729.4581
696.0137, 729.2271
696.4958, 729.1036
696.9779, 729.7523
697.4600, 730.9112
697.9421, 731.2834
698.4243, 730.3655
698.9064, 728.9344
699.3885, 727.9172
699.8706, 727.3336
700.3527, 726.9167
700.8348, 726.5179
701.3170, 726.4881
701.7991, 727.3337
702.2812, 728.2818
702.7633, 728.6530
703.2454, 728.3795
703.7275, 727.7474
704.2097, 726.6361
704.6918, 725.5270
705.1739, 725.2717
705.6560, 725.7480
706.1381, 726.2355
706.6202, 726.5635
707.1024, 726.6816
707.5845, 726.4874
708.0666, 725.9843
708.5487, 725.6534
709.0308, 725.6727
709.5129, 725.6089
709.9951, 725.3549
710.4772, 725.0214
710.9593, 724.5329
711.4414, 724.0262
711.9235, 723.9675
712.4056, 724.7895
712.8878, 725.8755
713.3699, 726.3029
713.8520, 726.1251
714.3341, 725.6254
714.8162, 724.7861
715.2983, 724.0076
715.7805, 723.6215
716.2626, 723.5763
716.7447, 723.5588
717.2268, 723.6024
717.7089, 723.6348
718.1910, 723.6970
718.6732, 723.7127
719.1553, 723.5892
719.6374, 723.3775
720.1195, 723.2424
720.6016, 723.2892
721.0837, 723.2678
721.5659, 722.7281
722.0480, 721.7880
722.5301, 721.1210
723.0122, 720.8104
723.4943, 720.6609
723.9764, 720.6379
724.4586, 720.6273
724.9407, 720.2924
725.4228, 719.3304
725.9049, 718.7881
726.3870, 718.9416
726.8691, 719.3055
727.3513, 719.8463
727.8334, 720.3417
728.3155, 720.4213
728.7976, 719.9770
729.2797, 719.3600
729.7618, 718.8295
730.2440, 718.4306
730.7261, 718.4563
731.2082, 718.9633
731.6903, 719.1311
732.1724, 718.4990
732.6545, 717.5955
733.1367, 717.2433
733.6188, 717.6177
734.1009, 717.5364
734.5830, 716.2049
735.0651, 715.3663
735.5472, 716.1586
736.0294, 717.4504
736.5115, 717.8927
736.9936, 717.3366
737.4757, 716.5814
737.9578, 716.1203
738.4399, 715.9398
738.9221, 716.1428
739.4042, 716.6906
739.8863, 716.9650
740.3684, 716.7625
740.8505, 716.4445
741.3326, 716.3115
741.8148, 716.3598
742.2969, 716.5547
742.7790, 717.2331
743.2611, 717.5809
743.7432, 717.3746
744.2253, 716.9164
744.7075, 716.2923
745.1896, 715.6227
745.6717, 715.1635
746.1538, 715.0842
746.6359, 715.0450
747.1180, 714.3785
747.6002, 713.3958
748.0823, 713.3868
748.5644, 714.5378
749.0465, 715.7062
749.5286, 716.3098
750.0107, 716.3644
750.4929, 715.8631
750.9750, 714.4486
751.4571, 713.3542
751.9392, 712.7299
752.4213, 712.2313
752.9034, 711.6864
753.3856, 711.1967
753.8677, 711.0172
754.3498, 711.1762
754.8319, 711.1492
755.3140, 710.3112
755.7961, 709.1616
756.2783, 708.4210
756.7604, 708.1105
757.2425, 708.3444
757.7246, 709.2008
758.2067, 710.1857
758.6888, 710.7072
759.1710, 710.7689
759.6531, 710.9009
760.1352, 711.2303
760.6173, 711.4257
761.0994, 711.3752
761.5815, 711.2322
762.0637, 711.0291
762.5458, 710.8244
763.0279, 710.7936
763.5100, 711.1091
763.9921, 711.4252
764.4742, 711.5667
764.9564, 711.4744
765.4385, 710.9557
765.9206, 710.0384
766.4027, 708.9794
766.8848, 707.8828
767.3669, 707.0358
767.8491, 707.3231
768.3312, 709.3220
768.8133, 710.2598
769.2954, 709.4239
769.7775, 708.4452
770.2596, 708.0732
770.7418, 707.9602
771.2239, 707.6295
771.7060, 706.9995
772.1881, 706.4789
772.6702, 706.3500
773.1523, 706.2725
773.6345, 705.8595
774.1166, 705.3137
774.5987, 705.1019
775.0808, 705.3328
775.5629, 705.6797
776.0450, 705.8134
776.5272, 705.7923
777.0093, 705.9135
777.4914, 706.2245
777.9735, 706.4506
778.4556, 706.5966
778.9377, 706.5418
779.4199, 706.0539
779.9020, 705.2433
780.3841, 704.6609
780.8662, 704.6209
781.3483, 704.3663
781.8304, 703.1811
782.3126, 702.1459
782.7947, 702.3585
783.2768, 703.4728
783.7589, 704.4650
784.2410, 704.8790
784.7231, 705.0209
785.2053, 705.2663
785.6874, 705.5549
786.1695, 705.5683
786.6516, 705.2726
787.1337, 705.1960
787.6158, 705.6359
788.0980, 706.2720
788.5801, 706.6805
789.0622, 706.9105
789.5443, 706.5900
790.0264, 704.9812
790.5085, 703.7963
790.9907, 703.5477
791.4728, 703.7800
791.9549, 704.2499
792.4370, 704.8204
792.9191, 705.1951
793.4012, 705.2800
793.8834, 705.0167
794.3655, 703.9395
794.8476, 702.5710
795.3297, 702.2483
795.8118, 703.0318
796.2939, 703.5995
796.7761, 703.0350
797.2582, 701.9341
797.7403, 701.8591
798.2224, 703.2213
798.7045, 703.8168
799.1866, 703.1354
799.6688, 702.4228
800.1509, 702.1955
800.6330, 702.2833
801.1151, 702.5776
801.5972, 703.1003
802.0793, 703.4784
802.5615, 703.3962
803.0436, 703.3754
803.5257, 703.8896
804.0078, 704.6119
804.4899, 705.0363
804.9720, 705.0861
805.4542, 705.0357
805.9363, 705.1227
806.4184, 705.1986
806.9005, 704.7945
807.3826, 703.9428
807.8647, 703.5668
808.3469, 703.9240
808.8290, 704.2439
809.3111, 703.9325
809.7932, 703.2226
810.2753, 702.8428
810.7574, 703.0092
811.2396, 703.0626
811.7217, 702.7703
812.2038, 702.6308
812.6859, 703.0154
813.1680, 703.6097
813.6501, 703.9689
814.1323, 704.0184
814.6144, 704.0499
815.0965, 704.3584
815.5786, 704.6558
816.0607, 704.5537
816.5428, 704.1700
817.0250, 703.6459
817.5071, 703.0751
817.9892, 703.1285
818.4713, 704.5580
818.9534, 706.6955
819.4355, 706.8234
819.9177, 704.2189
820.3998, 703.0162
820.8819, 704.3223
821.3640, 705.9600
821.8461, 706.7786
822.3282, 706.9863
822.8104, 707.0116
823.2925, 706.8859
823.7746, 706.5092
824.2567, 705.6017
824.7388, 704.7248
825.2209, 704.2869
825.7031, 704.0519
826.1852, 703.4879
826.6673, 702.6055
827.1494, 702.2281
827.6315, 703.2744
828.1136, 704.8768
828.5958, 705.5350
829.0779, 705.4136
829.5600, 705.3178
830.0421, 705.4018
830.5242, 705.4719
831.0063, 705.3587
831.4885, 705.1661
831.9706, 705.2631
832.4527, 705.8893
832.9348, 706.1428
833.4169, 705.6175
833.8990, 705.2203
834.3812, 705.5020
834.8633, 705.9944
835.3454, 706.0237
835.8275, 705.5128
836.3096, 705.2802
836.7917, 705.7173
837.2739, 706.3828
837.7560, 707.1627
838.2381, 707.9198
838.7202, 708.5163
839.2023, 708.9090
839.6844, 709.0475
840.1666, 708.8650
840.6487, 708.5223
841.1308, 708.2010
841.6129, 707.9413
842.0950, 708.1021
842.5771, 708.7554
843.0593, 709.3729
843.5414, 709.6456
844.0235, 709.7768
844.5056, 710.2034
844.9877, 711.1071
845.4698, 711.3788
845.9520, 709.9769
846.4341, 709.3386
846.9162, 710.8597
847.3983, 712.7115
847.8804, 713.2116
848.3625, 712.4854
848.8447, 711.8115
849.3268, 711.5234
849.8089, 711.4825
850.2910, 711.7173
850.7731, 712.0831
851.2552, 712.4783
851.7374, 712.8408
852.2195, 713.0076
852.7016, 712.9021
853.1837, 712.8324
853.6658, 713.2281
854.1479, 714.0084
854.6301, 714.9247
855.1122, 715.9794
855.5943, 716.6108
856.0764, 716.5789
856.5585, 716.1996
857.0406, 715.6878
857.5228, 715.1075
858.0049, 715.2370
858.4870, 716.6005
858.9691, 717.7972
859.4512, 718.6005
859.9333, 719.3382
860.4155, 720.3975
860.8976, 721.4587
861.3797, 721.7932
861.8618, 721.1054
862.3439, 720.7312
862.8260, 721.3164
863.3082, 722.3440
863.7903, 723.7051
864.2724, 725.0999
864.7545, 725.9991
865.2366, 726.3538
865.7188, 726.6545
866.2009, 727.2416
866.6830, 728.0829
867.1651, 729.0811
867.6472, 730.2610
868.1293, 731.8468
868.6115, 733.8762
869.0936, 736.0543
869.5757, 738.2225
870.0578, 740.3776
870.5399, 742.5401
871.0220, 744.7256
871.5042, 746.7892
871.9863, 748.4112
872.4684, 750.4111
872.9505, 753.3718
873.4326, 756.5773
873.9147, 759.3915
874.3969, 761.8707
874.8790, 764.4158
875.3611, 766.5528
875.8432, 769.5672
876.3253, 774.2498
876.8074, 779.7307
877.2896, 785.3945
877.7717, 791.2214
878.2538, 797.2448
878.7359, 803.4852
879.2180, 810.2911
879.7001, 818.1572
880.1823, 826.7531
880.6644, 835.3901
881.1465, 844.1949
881.6286, 853.8656
882.1107, 864.5463
882.5928, 875.6356
883.0750, 886.4821
883.5571, 897.2888
884.0392, 908.5996
884.5213, 920.2233
885.0034, 933.1483
885.4855, 947.6269
885.9677, 962.8217
886.4498, 978.1512
886.9319, 993.9640
887.4140, 1010.921
887.8961, 1029.110
888.3782, 1047.588
888.8604, 1065.925
889.3425, 1084.989
889.8246, 1105.213
890.3067, 1126.223
890.7888, 1148.341
891.2709, 1170.984
891.7531, 1192.556
892.2352, 1212.578
892.7173, 1231.531
893.1994, 1250.127
893.6815, 1267.475
894.1636, 1282.950
894.6458, 1296.218
895.1279, 1306.676
895.6100, 1314.096
896.0921, 1317.923
896.5742, 1317.763
897.0563, 1313.523
897.5385, 1304.445
898.0206, 1290.694
898.5027, 1274.789
898.9848, 1257.125
899.4669, 1237.599
899.9490, 1215.737
900.4312, 1192.279
900.9133, 1168.655
901.3954, 1144.730
901.8775, 1121.240
902.3596, 1097.472
902.8417, 1075.167
903.3239, 1055.312
903.8060, 1036.698
904.2881, 1018.159
904.7702, 999.8097
905.2523, 982.4028
905.7344, 966.1376
906.2166, 950.6570
906.6987, 935.8665
907.1808, 921.7690
907.6629, 908.2178
908.1450, 895.4071
908.6271, 883.7327
909.1093, 873.3087
909.5914, 863.4147
910.0735, 853.7206
910.5556, 844.3082
911.0377, 835.1844
911.5198, 826.4238
912.0020, 818.1880
912.4841, 810.5457
912.9662, 803.6439
913.4483, 797.5648
913.9304, 792.3047
914.4125, 788.0821
914.8947, 784.7287
915.3768, 780.7338
915.8589, 776.0247
916.3410, 771.2766
916.8231, 766.6565
917.3052, 762.4469
917.7874, 759.0900
918.2695, 756.4545
918.7516, 753.2985
919.2337, 749.0698
919.7158, 745.6534
920.1979, 743.7943
920.6801, 742.0252
921.1622, 739.4134
921.6443, 736.4232
922.1264, 733.8408
922.6085, 731.7572
923.0906, 729.5544
923.5728, 726.7314
924.0549, 724.2819
924.5370, 722.8796
925.0191, 721.7997
925.5012, 720.2452
925.9833, 718.3802
926.4655, 716.9246
926.9476, 716.1879
927.4297, 715.7279
927.9118, 715.4208
928.3939, 715.0807
928.8760, 714.4300
929.3582, 713.5890
929.8403, 712.9074
930.3224, 712.4394
930.8045, 711.8250
931.2866, 710.6824
931.7687, 709.4221
932.2509, 708.8814
932.7330, 708.9261
933.2151, 708.9483
933.6972, 708.8849
934.1793, 708.8549
934.6614, 708.9110
935.1436, 709.1075
935.6257, 709.5800
936.1078, 710.3005
936.5899, 710.4835
937.0720, 709.7735
937.5541, 710.0521
938.0363, 712.0873
938.5184, 714.3793
939.0005, 715.8885
939.4826, 716.8145
939.9647, 717.7362
940.4468, 718.6743
940.9290, 719.5239
941.4111, 720.7040
941.8932, 721.2665
942.3753, 720.5826
942.8574, 719.4379
943.3395, 718.6477
943.8217, 718.0995
944.3038, 717.0301
944.7859, 714.9773
945.2680, 712.9629
945.7501, 711.9008
946.2322, 710.4923
946.7144, 707.2111
947.1965, 703.1186
947.6786, 700.0849
948.1607, 698.4376
948.6428, 696.9391
949.1249, 694.8065
949.6071, 692.4869
950.0892, 690.2532
950.5713, 688.2452
951.0534, 686.7813
951.5355, 685.8040
952.0176, 685.0075
952.4998, 684.2498
952.9819, 683.4338
953.4640, 682.3388
953.9461, 681.1266
954.4282, 680.3331
954.9103, 679.9078
955.3925, 679.4615
955.8746, 678.9075
956.3567, 678.4710
956.8388, 678.3571
957.3209, 678.2783
957.8030, 677.5078
958.2852, 675.9498
958.7673, 674.8144
959.2494, 674.1691
959.7315, 673.7574
960.2136, 673.7172
960.6957, 673.3924
961.1779, 671.8528
961.6600, 669.5179
962.1421, 668.7139
962.6242, 670.5872
963.1063, 671.7198
963.5884, 671.6307
964.0706, 671.3699
964.5527, 671.3860
965.0348, 671.3938
965.5169, 670.9188
965.9990, 670.0163
966.4811, 669.5901
966.9633, 670.3158
967.4454, 670.7441
967.9275, 670.3597
968.4096, 669.7618
968.8917, 669.0710
969.3738, 668.5661
969.8560, 668.7543
970.3381, 669.7061
970.8202, 670.5953
971.3023, 671.3330
971.7844, 671.5360
972.2665, 670.4861
972.7487, 669.0775
973.2308, 668.2695
973.7129, 668.1084
974.1950, 668.3658
974.6771, 668.9509
975.1592, 669.6663
975.6414, 670.4853
976.1235, 671.2159
976.6056, 671.8295
977.0877, 672.0816
977.5698, 671.0192
978.0519, 668.7922
978.5341, 667.1302
979.0162, 667.1039
979.4983, 667.6237
979.9804, 666.9630
980.4625, 665.5070
980.9446, 664.8300
981.4268, 664.8785
981.9089, 664.8328
982.3910, 664.4794
982.8731, 663.7517
983.3552, 662.5114
983.8373, 661.1308
984.3195, 660.6103
984.8016, 660.9911
985.2837, 661.3549
985.7658, 661.6931
986.2479, 661.9337
986.7300, 662.1122
987.2122, 661.9724
987.6943, 661.1133
988.1764, 659.7576
988.6585, 659.1732
989.1406, 659.7094
989.6227, 659.9955
990.1049, 659.8895
990.5870, 659.6853
991.0691, 659.4285
991.5512, 659.2018
992.0333, 659.1072
992.5154, 659.1438
992.9976, 659.2311
993.4797, 659.5311
993.9618, 659.6376
994.4439, 659.2728
994.9260, 659.0001
995.4081, 659.3326
995.8903, 659.7815
996.3724, 659.4963
996.8545, 658.4526
997.3366, 658.0046
997.8187, 659.1076
998.3008, 659.8697
998.7830, 659.4797
999.2651, 658.8317
999.7472, 658.5959
1000.229, 658.5570
1000.711, 658.0984
1001.194, 657.1302
1001.676, 656.7050
1002.158, 657.6111
1002.640, 658.7950
1003.122, 660.1464
1003.604, 661.0828
1004.086, 660.6845
1004.568, 659.4293
1005.050, 658.4795
1005.533, 658.2051
1006.015, 658.2722
1006.497, 658.7358
1006.979, 659.1558
1007.461, 658.9244
1007.943, 658.4600
1008.425, 658.4365
1008.907, 658.8314
1009.390, 659.2101
1009.872, 659.3885
1010.354, 659.6807
1010.836, 660.6561
1011.318, 661.7641
1011.800, 661.8441
1012.282, 661.3856
1012.764, 661.8642
1013.246, 663.2548
1013.729, 664.0159
1014.211, 663.3189
1014.693, 662.2062
1015.175, 662.1301
1015.657, 662.6948
1016.139, 662.6830
1016.621, 662.2228
1017.103, 662.0267
1017.586, 662.2081
1018.068, 662.2698
1018.550, 661.9045
1019.032, 661.2828
1019.514, 660.6371
1019.996, 659.9843
1020.478, 659.4205
1020.960, 658.9489
1021.442, 658.7814
1021.925, 658.9953
1022.407, 659.0504
1022.889, 658.5690
1023.371, 657.7084
1023.853, 656.7382
1024.335, 655.6559
1024.817, 654.6322
1025.299, 653.6797
1025.781, 652.5617
1026.264, 651.0717
1026.746, 650.0403
1027.228, 650.2036
1027.710, 651.0378
1028.192, 651.2813
1028.674, 650.8342
1029.156, 650.5978
1029.638, 650.7111
1030.120, 650.5447
1030.603, 649.8460
1031.085, 649.0268
1031.567, 648.3524
1032.049, 647.8494
1032.531, 647.6495
1033.013, 647.9535
1033.495, 647.5901
1033.977, 645.9617
1034.460, 644.9901
1034.942, 645.6110
1035.424, 646.3690
1035.906, 646.0364
1036.388, 645.0104
1036.870, 644.4579
1037.352, 644.6307
1037.834, 644.4088
1038.317, 643.5127
1038.799, 642.6472
1039.281, 641.7334
1039.763, 641.1442
1040.245, 641.4394
1040.727, 642.2440
1041.209, 642.4930
1041.691, 642.0667
1042.173, 641.4598
1042.656, 640.4833
1043.138, 639.5809
1043.620, 638.6957
1044.102, 638.0678
1044.584, 637.9634
1045.066, 638.2387
1045.548, 638.6162
1046.030, 639.2452
1046.512, 639.2941
1046.995, 638.0322
1047.477, 637.0290
1047.959, 636.9329
1048.441, 637.0984
1048.923, 637.1345
1049.405, 637.0027
1049.887, 636.6282
1050.369, 635.9175
1050.852, 635.4270
1051.334, 635.5943
1051.816, 635.5636
1052.298, 634.6550
1052.780, 633.7828
1053.262, 633.7899
1053.744, 634.3913
1054.226, 634.8842
1054.708, 635.1594
1055.191, 635.3063
1055.673, 635.5300
1056.155, 635.3912
1056.637, 634.2209
1057.119, 633.0686
1057.601, 633.0359
1058.083, 633.6220
1058.565, 633.6254
1059.047, 632.7853
1059.530, 632.0911
1060.012, 631.9744
1060.494, 631.9352
1060.976, 631.9266
1061.458, 631.7610
1061.940, 631.1006
1062.422, 630.2360
1062.904, 629.6928
1063.387, 629.5750
1063.869, 629.7385
1064.351, 630.5986
1064.833, 631.1234
1065.315, 630.7482
1065.797, 629.9490
1066.279, 628.9179
1066.761, 627.8495
1067.244, 626.9163
1067.726, 626.1805
1068.208, 625.9476
1068.690, 627.0067
1069.172, 627.7002
1069.654, 626.7311
1070.136, 625.6150
1070.618, 625.9926
1071.100, 626.8871
1071.583, 626.3243
1072.065, 624.2112
1072.547, 622.7078
1073.029, 623.0477
1073.511, 623.5146
1073.993, 623.3458
1074.475, 622.9449
1074.957, 622.5742
1075.439, 622.2057
1075.922, 621.5768
1076.404, 620.8024
1076.886, 620.6989
1077.368, 622.0482
1077.850, 623.0169
1078.332, 622.2465
1078.814, 621.3196
1079.297, 621.5679
1079.779, 622.2491
1080.261, 622.2678
1080.743, 621.6486
1081.225, 621.1205
1081.707, 620.8485
1082.189, 620.9540
1082.671, 622.0964
1083.153, 622.9593
1083.635, 622.1513
1084.118, 620.9742
1084.600, 621.3546
1085.082, 622.7814
1085.564, 622.9177
1086.046, 620.7806
1086.528, 619.1467
1087.010, 619.7626
1087.492, 620.5204
1087.975, 620.2303
1088.457, 619.5172
1088.939, 618.9974
1089.421, 618.6428
1089.903, 618.1749
1090.385, 617.5159
1090.867, 616.9443
1091.349, 616.6649
1091.832, 616.3707
1092.314, 615.8045
1092.796, 615.2704
1093.278, 615.0339
1093.760, 615.0251
1094.242, 615.1956
1094.724, 615.5208
1095.206, 615.4301
1095.688, 614.3516
1096.171, 613.3632
1096.653, 612.7949
1097.135, 612.4873
1097.617, 612.2421
1098.099, 612.2278
1098.581, 613.0721
1099.063, 614.6354
1099.545, 615.0305
1100.027, 612.6309
1100.510, 611.0131
1100.992, 611.7928
1101.474, 612.7643
1101.956, 612.7288
1102.438, 612.2367
1102.920, 611.8288
1103.402, 611.5977
1103.884, 611.7133
1104.367, 612.4162
1104.849, 612.9275
1105.331, 613.1965
1105.813, 613.1432
1106.295, 612.3054
1106.777, 611.4990
1107.259, 611.8226
1107.741, 612.7365
1108.224, 612.5008
1108.706, 610.5214
1109.188, 609.2603
1109.670, 609.4332
1110.152, 609.6494
1110.634, 609.8143
1111.116, 609.6983
1111.598, 608.8210
1112.080, 607.6856
1112.563, 607.2563
1113.045, 607.6049
1113.527, 608.1263
1114.009, 609.2458
1114.491, 609.8541
1114.973, 609.7455
1115.455, 609.2330
1115.937, 608.1185
1116.419, 606.9819
1116.902, 606.6880
1117.384, 607.1447
1117.866, 607.1504
1118.348, 606.1006
1118.830, 606.0894
1119.312, 607.9283
1119.794, 609.3076
1120.276, 609.2516
1120.759, 608.6779
1121.241, 608.4059
1121.723, 608.3240
1122.205, 607.9942
1122.687, 607.2618
1123.169, 607.0178
1123.651, 607.4454
1124.133, 607.7167
1124.615, 607.5678
1125.098, 607.4202
1125.580, 607.6215
1126.062, 607.8900
1126.544, 607.6123
1127.026, 606.8107
1127.508, 606.5149
1127.990, 606.8197
1128.472, 606.7520
1128.954, 606.0790
1129.437, 605.7198
1129.919, 606.1795
1130.401, 606.8503
1130.883, 606.9592
1131.365, 606.6803
1131.847, 606.8515
1132.329, 607.4181
1132.811, 607.1636
1133.294, 606.0267
1133.776, 605.3344
1134.258, 605.5289
1134.740, 605.8663
1135.222, 605.7299
1135.704, 605.3253
1136.186, 604.8987
1136.668, 604.5684
1137.151, 605.0988
1137.633, 606.2210
1138.115, 606.3473
1138.597, 605.3163
1139.079, 604.6253
1139.561, 605.1165
1140.043, 605.8568
1140.525, 605.5682
1141.007, 604.8795
1141.490, 605.1746
1141.972, 605.9444
1142.454, 605.8534
1142.936, 605.0851
1143.418, 605.0115
1143.900, 605.9942
1144.382, 606.6769
1144.864, 605.9017
1145.346, 604.6318
1145.829, 603.6115
1146.311, 602.9330
1146.793, 602.8226
1147.275, 603.1055
1147.757, 603.6233
1148.239, 604.2009
1148.721, 604.2751
1149.203, 603.4467
1149.686, 602.8015
1150.168, 603.3199
1150.650, 603.9696
1151.132, 604.0722
1151.614, 603.8297
1152.096, 603.3415
1152.578, 602.7754
1153.060, 602.4250
1153.542, 602.3586
1154.025, 602.4316
1154.507, 602.8986
1154.989, 603.0648
1155.471, 602.4266
1155.953, 601.6802
1156.435, 600.9904
1156.917, 600.6364
1157.399, 601.0981
1157.881, 602.3007
1158.364, 603.3972
1158.846, 604.3527
1159.328, 605.1048
1159.810, 605.7564
1160.292, 606.0429
1160.774, 605.4532
1161.256, 604.9742
1161.738, 605.7338
1162.221, 606.9930
1162.703, 606.8212
1163.185, 604.9315
1163.667, 604.0982
1164.149, 604.8994
1164.631, 605.0266
1165.113, 603.9072
1165.595, 602.7632
1166.078, 602.1937
1166.560, 601.9018
1167.042, 601.5140
1167.524, 601.0767
1168.006, 600.8477
1168.488, 600.8355
1168.970, 600.6649
1169.452, 600.3066
1169.934, 600.0406
1170.417, 599.9429
1170.899, 600.1790
1171.381, 600.9363
1171.863, 601.6689
1172.345, 601.2377
1172.827, 600.0654
1173.309, 599.7660
1173.791, 600.0772
1174.273, 599.8405
1174.756, 599.0712
1175.238, 598.7914
1175.720, 599.3771
1176.202, 600.1707
1176.684, 600.7661
1177.166, 600.9630
1177.648, 600.2910
1178.130, 599.2213
1178.613, 598.2570
1179.095, 597.5294
1179.577, 597.2706
1180.059, 597.4113
1180.541, 597.5342
1181.023, 597.4658
1181.505, 597.3289
1181.987, 597.0706
1182.469, 596.9211
1182.952, 597.2703
1183.434, 597.5948
1183.916, 597.2725
1184.398, 596.5702
1184.880, 595.9589
1185.362, 595.5325
1185.844, 595.6377
1186.326, 596.9783
1186.808, 597.8857
1187.291, 597.9857
1187.773, 597.7012
1188.255, 596.8964
1188.737, 596.0664
1189.219, 595.6860
1189.701, 595.6425
1190.183, 595.5848
1190.665, 595.4962
1191.148, 595.4853
1191.630, 595.5590
1192.112, 595.7107
1192.594, 595.9879
1193.076, 596.2296
1193.558, 596.4076
1194.040, 596.3260
1194.522, 595.6378
1195.005, 594.5875
1195.487, 594.2928
1195.969, 594.7170
1196.451, 594.7580
1196.933, 594.3832
1197.415, 594.2540
1197.897, 594.5226
1198.379, 594.6645
1198.861, 594.3309
1199.344, 593.8754
1199.826, 593.8395
1200.308, 593.9775
1200.790, 593.6566
1201.272, 593.1633
1201.754, 592.9971
1202.236, 593.2823
1202.718, 594.5598
1203.200, 596.7006
1203.683, 597.6662
1204.165, 595.8181
1204.647, 593.6288
1205.129, 592.5438
1205.611, 592.3442
1206.093, 593.6948
1206.575, 595.2021
1207.057, 595.0344
1207.540, 593.5867
1208.022, 592.2645
1208.504, 591.3214
1208.986, 590.9085
1209.468, 591.6409
1209.950, 592.0352
1210.432, 591.4743
1210.914, 590.8420
1211.396, 590.3813
1211.879, 590.2474
1212.361, 590.7817
1212.843, 591.7517
1213.325, 592.1953
1213.807, 591.9838
1214.289, 591.9094
1214.771, 592.1176
1215.253, 591.7853
1215.735, 590.5956
1216.218, 589.6243
1216.700, 589.4539
1217.182, 589.7980
1217.664, 590.4049
1218.146, 591.0772
1218.628, 591.0598
1219.110, 590.5358
1219.592, 590.5066
1220.075, 590.9203
1220.557, 591.1862
1221.039, 591.1846
1221.521, 591.1844
1222.003, 591.3365
1222.485, 591.4730
1222.967, 591.4793
1223.449, 591.3253
1223.932, 590.9798
1224.414, 590.4504
1224.896, 589.5892
1225.378, 588.6179
1225.860, 587.9697
1226.342, 587.6814
1226.824, 587.3911
1227.306, 586.6651
1227.788, 586.8135
1228.271, 589.6469
1228.753, 591.6520
1229.235, 590.6747
1229.717, 588.9119
1230.199, 587.8293
1230.681, 587.3100
1231.163, 587.0720
1231.645, 587.1095
1232.127, 587.2219
1232.610, 587.5652
1233.092, 587.4301
1233.574, 586.5611
1234.056, 586.0353
1234.538, 586.2385
1235.020, 586.5933
1235.502, 586.6940
1235.984, 586.6269
1236.467, 586.5823
1236.949, 586.4759
1237.431, 585.6875
1237.913, 584.4997
1238.395, 584.3323
1238.877, 585.1020
1239.359, 585.7220
1239.841, 585.8635
1240.323, 585.8830
1240.806, 586.0530
1241.288, 585.9243
1241.770, 584.4499
1242.252, 583.1082
1242.734, 583.6650
1243.216, 584.9739
1243.698, 585.8688
1244.180, 586.1956
1244.662, 585.8562
1245.145, 584.9003
1245.627, 584.0801
1246.109, 583.4685
1246.591, 583.2375
1247.073, 583.8903
1247.555, 584.2970
1248.037, 583.9551
1248.519, 583.3997
1249.002, 582.9324
1249.484, 582.5616
1249.966, 582.2799
1250.448, 582.0971
1250.930, 582.2221
1251.412, 582.7031
1251.894, 582.8683
1252.376, 582.6436
1252.859, 582.8967
1253.341, 583.8798
1253.823, 584.5070
1254.305, 584.0016
1254.787, 583.0897
1255.269, 582.5879
1255.751, 582.5071
1256.233, 583.1719
1256.715, 584.0961
1257.198, 584.3336
1257.680, 584.0389
1258.162, 583.7958
1258.644, 583.7273
1259.126, 583.6115
1259.608, 583.2646
1260.090, 583.2275
1260.572, 584.2797
1261.054, 585.0106
1261.537, 584.4187
1262.019, 583.5876
1262.501, 583.3638
1262.983, 583.4443
1263.465, 583.2115
1263.947, 582.7530
1264.429, 582.8472
1264.911, 583.8461
1265.394, 584.1305
1265.876, 583.5253
1266.358, 582.9355
1266.840, 582.5554
1267.322, 582.1702
1267.804, 581.6137
1268.286, 581.4288
1268.768, 582.3812
1269.250, 583.9527
1269.733, 585.3553
1270.215, 586.2774
1270.697, 585.4626
1271.179, 583.6214
1271.661, 582.7375
1272.143, 582.9139
1272.625, 582.8259
1273.107, 581.9816
1273.589, 581.8901
1274.072, 584.5424
1274.554, 586.6508
1275.036, 586.3358
1275.518, 585.2065
1276.000, 583.7650
1276.482, 582.5164
1276.964, 582.1318
1277.446, 582.4152
1277.929, 582.4147
1278.411, 582.0631
1278.893, 582.2129
1279.375, 583.1749
1279.857, 583.4425
1280.339, 582.7049
1280.821, 582.2241
1281.303, 582.5120
1281.786, 583.0908
1282.268, 583.5408
##END=



