##NAMES=Hematite
##RRUFFID=R060190
##IDEAL CHEMISTRY=Fe^3+^_2_O_3_
##LOCALITY=Florence mine, Egremont, Cumbria, England
##OWNER=RRUFF
##SOURCE=Lloyd Twaites
##DESCRIPTION=Red tinged, steel-gray fragment of a botryoidal mass
##STATUS=The identification of this mineral has been confirmed by X-ray diffraction and chemical analysis
##URL=rruff.info/R060190
##MEASURED CHEMISTRY=Fe_2.00_O_3_
91.88672, 83.36670
92.36884, 85.64528
92.85095, 87.06490
93.33307, 86.16809
93.81519, 84.11333
94.29730, 81.91135
94.77942, 80.07226
95.26154, 78.54279
95.74365, 76.58184
96.22577, 73.50931
96.70789, 70.83739
97.19000, 69.05753
97.67212, 67.94968
98.15424, 66.97002
98.63635, 65.75198
99.11847, 64.14803
99.60059, 62.69979
100.0827, 61.50500
100.5648, 60.37849
101.0469, 59.10838
101.5291, 57.64302
102.0112, 56.25296
102.4933, 55.12265
102.9754, 54.20913
103.4575, 53.53390
103.9396, 53.20117
104.4218, 53.11298
104.9039, 52.96281
105.3860, 52.65266
105.8681, 52.37225
106.3502, 52.44842
106.8323, 52.72104
107.3145, 52.62993
107.7966, 51.42068
108.2787, 48.72647
108.7608, 46.80079
109.2429, 46.12456
109.7250, 45.87593
110.2072, 45.83756
110.6893, 45.89457
111.1714, 45.89963
111.6535, 45.58747
112.1356, 44.53957
112.6177, 43.79283
113.0998, 43.23817
113.5820, 42.99593
114.0641, 43.36982
114.5462, 44.51122
115.0283, 46.01284
115.5104, 46.59487
115.9925, 45.75314
116.4747, 44.81433
116.9568, 44.05433
117.4389, 43.43048
117.9210, 42.80989
118.4031, 42.07133
118.8852, 41.33739
119.3674, 40.90095
119.8495, 40.85160
120.3316, 40.99712
120.8137, 41.29073
121.2958, 41.76078
121.7779, 42.07314
122.2601, 41.89734
122.7422, 41.46131
123.2243, 40.99538
123.7064, 40.57818
124.1885, 40.17797
124.6706, 39.66425
125.1528, 38.80745
125.6349, 38.25160
126.1170, 38.36884
126.5991, 38.88225
127.0812, 39.37680
127.5633, 39.60398
128.0455, 39.56392
128.5276, 39.29111
129.0097, 38.38469
129.4918, 37.60065
129.9739, 37.18346
130.4561, 37.09068
130.9382, 37.13526
131.4203, 37.15436
131.9024, 37.18143
132.3845, 37.00561
132.8666, 36.33500
133.3487, 35.71538
133.8309, 35.63878
134.3130, 36.12526
134.7951, 36.62000
135.2772, 36.29729
135.7593, 34.67622
136.2414, 33.79502
136.7236, 34.43328
137.2057, 35.65337
137.6878, 36.21667
138.1699, 35.67922
138.6520, 34.77895
139.1341, 34.77438
139.6163, 35.72152
140.0984, 36.43157
140.5805, 36.21776
141.0626, 35.29758
141.5447, 34.52673
142.0268, 34.22057
142.5090, 34.09376
142.9911, 33.79696
143.4732, 33.29834
143.9553, 32.85478
144.4374, 32.79891
144.9195, 33.21059
145.4017, 33.42784
145.8838, 33.07113
146.3659, 32.58074
146.8480, 32.18979
147.3301, 31.96447
147.8122, 31.88167
148.2944, 31.91458
148.7765, 32.11000
149.2586, 32.33969
149.7407, 32.76512
150.2228, 33.13183
150.7049, 33.15218
151.1871, 32.69785
151.6692, 31.94156
152.1513, 31.43066
152.6334, 31.21487
153.1155, 31.24226
153.5976, 31.80229
154.0798, 32.55178
154.5619, 32.99379
155.0440, 32.82921
155.5261, 32.15758
156.0082, 31.68458
156.4903, 31.58774
156.9725, 31.45758
157.4546, 31.10320
157.9367, 30.59607
158.4188, 30.14567
158.9009, 29.88919
159.3830, 29.82043
159.8652, 29.79167
160.3473, 29.93475
160.8294, 30.01413
161.3115, 29.78659
161.7936, 29.25378
162.2757, 28.77888
162.7579, 28.62658
163.2400, 28.72321
163.7221, 28.89223
164.2042, 29.23110
164.6863, 29.56757
165.1684, 29.60392
165.6506, 29.22600
166.1327, 28.90965
166.6148, 29.09248
167.0969, 29.50094
167.5790, 29.71395
168.0611, 29.41756
168.5433, 28.80305
169.0254, 28.53444
169.5075, 28.93661
169.9896, 29.20614
170.4717, 28.88087
170.9538, 28.22501
171.4360, 27.70479
171.9181, 27.66430
172.4002, 28.07604
172.8823, 28.39454
173.3644, 28.55032
173.8465, 28.66507
174.3287, 28.79348
174.8108, 28.90899
175.2929, 28.94531
175.7750, 28.83860
176.2571, 28.57191
176.7392, 28.31832
177.2214, 27.99265
177.7035, 27.75068
178.1856, 27.65947
178.6677, 27.71463
179.1498, 27.88486
179.6319, 28.16398
180.1141, 28.60653
180.5962, 28.82585
181.0783, 28.71095
181.5604, 28.49483
182.0425, 28.32034
182.5246, 28.20213
183.0068, 28.06754
183.4889, 27.83264
183.9710, 27.47130
184.4531, 27.14714
184.9352, 26.69458
185.4173, 26.36856
185.8995, 26.50579
186.3816, 27.18687
186.8637, 28.00224
187.3458, 28.53855
187.8279, 28.82250
188.3100, 28.98133
188.7922, 29.02819
189.2743, 28.96964
189.7564, 28.73569
190.2385, 28.19755
190.7206, 27.80250
191.2027, 28.10539
191.6849, 28.93808
192.1670, 29.69758
192.6491, 30.06244
193.1312, 30.13134
193.6133, 30.23053
194.0954, 30.40891
194.5776, 30.59330
195.0597, 30.83289
195.5418, 31.06857
196.0239, 31.09777
196.5060, 30.40102
196.9881, 29.07368
197.4703, 28.89492
197.9524, 31.17849
198.4345, 33.38279
198.9166, 34.22342
199.3987, 33.93469
199.8808, 33.45555
200.3630, 33.61650
200.8451, 34.49389
201.3272, 35.22715
201.8093, 35.91159
202.2914, 36.35418
202.7735, 36.26837
203.2557, 35.80157
203.7378, 35.41232
204.2199, 35.57015
204.7020, 36.38447
205.1841, 37.19637
205.6662, 38.02326
206.1484, 38.83595
206.6305, 39.65246
207.1126, 40.45363
207.5947, 41.17808
208.0768, 41.75426
208.5589, 42.13106
209.0411, 42.56399
209.5232, 43.09623
210.0053, 43.63665
210.4874, 44.19408
210.9695, 44.73802
211.4516, 45.15674
211.9338, 45.30407
212.4159, 45.08578
212.8980, 45.02654
213.3801, 45.28977
213.8622, 45.58272
214.3443, 45.67477
214.8265, 45.54879
215.3086, 45.36788
215.7907, 45.28099
216.2728, 45.30286
216.7549, 45.40259
217.2370, 45.71664
217.7191, 46.02788
218.2013, 46.04406
218.6834, 45.72647
219.1655, 45.48872
219.6476, 45.81680
220.1297, 46.03843
220.6118, 46.77773
221.0940, 47.17965
221.5761, 47.26233
222.0582, 46.06956
222.5403, 46.52377
223.0224, 46.31794
223.5045, 46.08505
223.9867, 46.77104
224.4688, 45.76379
224.9509, 46.43522
225.4330, 46.43656
225.9151, 46.74458
226.3972, 46.38849
226.8794, 46.23752
227.3615, 44.77458
227.8436, 43.03780
228.3257, 41.42426
228.8078, 40.06595
229.2899, 38.93391
229.7721, 37.98122
230.2542, 37.26500
230.7363, 36.60246
231.2184, 35.72662
231.7005, 34.85900
232.1826, 34.37237
232.6648, 34.57750
233.1469, 35.20504
233.6290, 35.52050
234.1111, 35.34750
234.5932, 35.18662
235.0753, 35.31252
235.5575, 35.54317
236.0396, 35.60284
236.5217, 35.28932
237.0038, 34.79533
237.4859, 34.74524
237.9680, 35.47323
238.4502, 36.11476
238.9323, 36.33009
239.4144, 36.37452
239.8965, 36.59345
240.3786, 37.18775
240.8607, 37.96448
241.3429, 38.27032
241.8250, 37.60262
242.3071, 37.20031
242.7892, 37.56424
243.2713, 38.17440
243.7534, 38.40743
244.2356, 37.95922
244.7177, 37.10158
245.1998, 36.66809
245.6819, 37.29301
246.1640, 37.45123
246.6461, 36.59190
247.1283, 35.38528
247.6104, 34.59322
248.0925, 34.53841
248.5746, 34.86494
249.0567, 34.65950
249.5388, 33.13672
250.0210, 32.10306
250.5031, 31.86002
250.9852, 32.01040
251.4673, 32.18470
251.9494, 32.24226
252.4315, 32.25468
252.9137, 32.37391
253.3958, 32.84255
253.8779, 33.08033
254.3600, 32.73858
254.8421, 32.34062
255.3242, 32.50505
255.8064, 33.39884
256.2885, 34.54290
256.7706, 35.12197
257.2527, 34.61393
257.7348, 34.44575
258.2169, 34.83929
258.6991, 35.45490
259.1812, 36.04216
259.6633, 36.52804
260.1454, 36.85959
260.6275, 36.89672
261.1096, 36.35466
261.5918, 36.38602
262.0739, 37.37693
262.5560, 38.73513
263.0381, 40.00077
263.5202, 41.07565
264.0023, 42.00753
264.4845, 42.81197
264.9666, 43.45626
265.4487, 44.17332
265.9308, 45.19956
266.4129, 46.15676
266.8951, 46.55302
267.3772, 46.37304
267.8593, 46.29475
268.3414, 47.00444
268.8235, 48.53661
269.3056, 49.84695
269.7878, 50.71077
270.2699, 51.48105
270.7520, 52.43549
271.2341, 53.58767
271.7162, 54.79918
272.1983, 56.00457
272.6805, 57.17976
273.1626, 58.22070
273.6447, 59.00343
274.1268, 59.75097
274.6089, 60.72129
275.0910, 61.88168
275.5732, 62.83329
276.0553, 63.25700
276.5374, 63.31493
277.0195, 63.57783
277.5016, 64.05481
277.9837, 64.72746
278.4659, 65.68674
278.9480, 66.88406
279.4301, 68.02438
279.9122, 68.96221
280.3943, 69.75941
280.8764, 70.53591
281.3586, 71.25301
281.8407, 72.05019
282.3228, 73.02308
282.8049, 74.15427
283.2870, 75.38315
283.7691, 76.76341
284.2513, 78.14510
284.7334, 79.29517
285.2155, 80.17947
285.6976, 81.11086
286.1797, 82.27573
286.6618, 83.62282
287.1440, 85.01514
287.6261, 86.47756
288.1082, 87.86342
288.5903, 89.07359
289.0724, 90.11666
289.5545, 90.89410
290.0367, 91.38316
290.5188, 91.57102
291.0009, 91.46223
291.4830, 91.12366
291.9651, 90.31980
292.4472, 88.74349
292.9294, 86.55928
293.4115, 84.16439
293.8936, 81.62785
294.3757, 79.00350
294.8578, 76.36499
295.3399, 73.66127
295.8221, 71.07360
296.3042, 68.72520
296.7863, 66.56235
297.2684, 64.55626
297.7505, 62.72297
298.2326, 60.99656
298.7148, 59.35019
299.1969, 57.82451
299.6790, 56.13215
300.1611, 53.96492
300.6432, 51.60305
301.1253, 49.37930
301.6075, 47.35907
302.0896, 45.50178
302.5717, 43.79231
303.0538, 42.23889
303.5359, 40.77344
304.0180, 39.32395
304.5002, 38.01707
304.9823, 37.07281
305.4644, 36.56687
305.9465, 35.97882
306.4286, 34.71327
306.9107, 32.83130
307.3929, 31.28585
307.8750, 30.43798
308.3571, 29.84719
308.8392, 29.09941
309.3213, 28.20625
309.8034, 27.40759
310.2856, 26.76017
310.7677, 26.30570
311.2498, 26.34686
311.7319, 27.31466
312.2140, 28.13577
312.6961, 28.01308
313.1783, 27.16956
313.6604, 26.20808
314.1425, 25.34323
314.6246, 24.57777
315.1067, 23.91126
315.5888, 23.31901
316.0710, 22.89683
316.5531, 22.80021
317.0352, 22.87838
317.5173, 22.91586
317.9994, 22.80171
318.4815, 22.65665
318.9637, 22.69113
319.4458, 22.94576
319.9279, 23.15505
320.4100, 23.22691
320.8921, 23.17706
321.3742, 22.97231
321.8564, 22.56715
322.3385, 22.16099
322.8206, 21.97035
323.3027, 21.99454
323.7848, 22.04775
324.2669, 22.12326
324.7491, 22.16912
325.2312, 22.10186
325.7133, 21.91904
326.1954, 21.80105
326.6775, 21.98821
327.1596, 22.38907
327.6418, 22.49347
328.1239, 22.04990
328.6060, 21.57099
329.0881, 21.52549
329.5702, 21.80089
330.0523, 21.98709
330.5345, 21.81371
331.0166, 21.42720
331.4987, 21.16084
331.9808, 21.04820
332.4629, 20.98148
332.9450, 20.86718
333.4272, 20.75430
333.9093, 20.72693
334.3914, 20.78993
334.8735, 20.96768
335.3556, 21.41083
335.8377, 22.16669
336.3199, 22.64458
336.8020, 22.43053
337.2841, 21.85686
337.7662, 21.29242
338.2483, 20.69382
338.7304, 20.35505
339.2125, 20.77058
339.6946, 21.78988
340.1768, 22.29072
340.6589, 21.71645
341.1410, 20.82056
341.6231, 20.54082
342.1052, 20.87088
342.5873, 21.11778
343.0695, 20.71045
343.5516, 19.99633
344.0337, 19.89054
344.5158, 20.69967
344.9979, 21.58191
345.4800, 21.57341
345.9622, 20.97583
346.4443, 20.67209
346.9264, 21.17833
347.4085, 21.94499
347.8906, 22.28477
348.3727, 22.16683
348.8549, 22.00869
349.3370, 22.10189
349.8191, 22.31867
350.3012, 22.32092
350.7833, 21.90055
351.2654, 21.52865
351.7476, 21.63497
352.2297, 22.10281
352.7118, 22.36055
353.1939, 22.08860
353.6760, 21.63743
354.1581, 21.67892
354.6403, 22.31707
355.1224, 22.84231
355.6045, 22.96452
356.0866, 22.81425
356.5687, 22.58138
357.0508, 22.29440
357.5330, 21.99928
358.0151, 21.66943
358.4972, 21.30366
358.9793, 21.31856
359.4614, 22.07796
359.9435, 23.02526
360.4257, 23.75804
360.9078, 24.23402
361.3899, 24.41088
361.8720, 24.15618
362.3541, 23.56923
362.8362, 23.30966
363.3184, 23.67431
363.8005, 24.02490
364.2826, 24.00051
364.7647, 23.76026
365.2468, 23.67467
365.7289, 23.90891
366.2111, 24.36188
366.6932, 24.83602
367.1753, 25.43213
367.6574, 25.83573
368.1395, 25.81527
368.6216, 25.67570
369.1038, 25.78251
369.5859, 26.20075
370.0680, 26.68923
370.5501, 26.96717
371.0322, 26.97379
371.5143, 27.07003
371.9965, 27.25097
372.4786, 27.51595
372.9607, 27.92331
373.4428, 28.42450
373.9249, 28.87086
374.4070, 29.14488
374.8892, 29.28531
375.3713, 29.57712
375.8534, 30.29121
376.3355, 30.82682
376.8176, 30.96787
377.2997, 30.91220
377.7819, 30.90305
378.2640, 31.03410
378.7461, 31.25551
379.2282, 31.47489
379.7103, 31.65426
380.1924, 31.90989
380.6746, 32.19097
381.1567, 32.57338
381.6388, 33.18283
382.1209, 33.97771
382.6030, 34.75512
383.0851, 35.32861
383.5673, 35.68821
384.0494, 35.98590
384.5315, 36.11642
385.0136, 36.28978
385.4957, 36.50230
385.9778, 36.80399
386.4600, 37.30923
386.9421, 38.09819
387.4242, 39.01913
387.9063, 39.60707
388.3884, 39.61263
388.8705, 39.77538
389.3527, 40.24662
389.8348, 40.86589
390.3169, 41.50373
390.7990, 42.13832
391.2811, 42.84871
391.7632, 43.82016
392.2454, 45.11785
392.7275, 46.05763
393.2096, 46.33641
393.6917, 46.51781
394.1738, 46.78579
394.6559, 47.16426
395.1381, 47.65976
395.6202, 48.24688
396.1023, 48.97154
396.5844, 50.09371
397.0665, 51.88462
397.5486, 53.30418
398.0308, 53.50985
398.5129, 53.30095
398.9950, 53.42901
399.4771, 54.06847
399.9592, 55.03049
400.4413, 56.25861
400.9235, 57.72451
401.4056, 59.00387
401.8877, 59.91760
402.3698, 60.72002
402.8519, 61.63503
403.3340, 62.65429
403.8162, 63.74269
404.2983, 65.14063
404.7804, 66.51557
405.2625, 67.17567
405.7446, 67.00626
406.2267, 66.78078
406.7089, 67.07353
407.1910, 67.68696
407.6731, 68.06190
408.1552, 68.22199
408.6373, 68.05924
409.1194, 67.45311
409.6016, 66.46265
410.0837, 65.22269
410.5658, 63.74029
411.0479, 62.14139
411.5300, 60.68106
412.0121, 59.40888
412.4943, 57.98652
412.9764, 56.42647
413.4585, 54.64539
413.9406, 52.38772
414.4227, 49.69596
414.9048, 47.16291
415.3870, 45.32770
415.8691, 44.17922
416.3512, 42.81536
416.8333, 41.06877
417.3154, 39.33080
417.7975, 37.69881
418.2797, 36.17857
418.7618, 34.78338
419.2439, 33.52320
419.7260, 32.31142
420.2081, 30.94376
420.6902, 28.91720
421.1724, 27.65844
421.6545, 27.70737
422.1366, 28.03043
422.6187, 27.92046
423.1008, 27.34820
423.5829, 26.69177
424.0651, 26.30098
424.5472, 26.16937
425.0293, 25.91138
425.5114, 25.38376
425.9935, 24.88732
426.4756, 24.51331
426.9578, 24.19741
427.4399, 23.84139
427.9220, 23.40182
428.4041, 22.95975
428.8862, 22.64950
429.3683, 22.48586
429.8505, 22.39860
430.3326, 22.63460
430.8147, 22.74173
431.2968, 22.32101
431.7789, 21.47602
432.2610, 20.74866
432.7432, 20.57712
433.2253, 20.84307
433.7074, 21.11837
434.1895, 21.46054
434.6716, 21.66555
435.1537, 21.50113
435.6359, 21.17981
436.1180, 20.96474
436.6001, 20.93671
437.0822, 20.96406
437.5643, 20.95840
438.0464, 20.91479
438.5286, 20.79695
439.0107, 20.58165
439.4928, 20.31160
439.9749, 19.98430
440.4570, 19.60703
440.9391, 19.36270
441.4213, 19.44756
441.9034, 19.60111
442.3855, 19.48581
442.8676, 19.10708
443.3497, 18.79333
443.8318, 18.77246
444.3140, 18.96789
444.7961, 19.03827
445.2782, 18.80710
445.7603, 18.71495
446.2424, 19.07564
446.7245, 19.57761
447.2067, 19.75719
447.6888, 19.49890
448.1709, 19.06923
448.6530, 18.78283
449.1351, 18.63851
449.6172, 18.67606
450.0994, 19.15827
450.5815, 19.53598
451.0636, 19.46913
451.5457, 19.10369
452.0278, 18.76788
452.5099, 18.64252
452.9921, 18.68998
453.4742, 18.81474
453.9563, 19.14329
454.4384, 19.31619
454.9205, 19.18884
455.4026, 19.00113
455.8848, 18.93668
456.3669, 19.00565
456.8490, 19.08335
457.3311, 19.03417
457.8132, 18.87143
458.2953, 18.81427
458.7775, 18.97075
459.2596, 19.06048
459.7417, 18.85732
460.2238, 18.56562
460.7059, 18.48203
461.1880, 18.73236
461.6702, 19.09544
462.1523, 19.38181
462.6344, 19.58583
463.1165, 19.54155
463.5986, 19.02704
464.0807, 18.50939
464.5629, 18.50094
465.0450, 18.93333
465.5271, 19.34830
466.0092, 19.49787
466.4913, 19.60646
466.9734, 20.05473
467.4556, 20.81504
467.9377, 21.32659
468.4198, 21.22882
468.9019, 20.71241
469.3840, 20.33101
469.8661, 20.06099
470.3483, 19.93754
470.8304, 20.09594
471.3125, 20.34488
471.7946, 20.40598
472.2767, 20.24949
472.7589, 20.14906
473.2410, 20.42038
473.7231, 21.10778
474.2052, 21.41178
474.6873, 21.05868
475.1694, 20.68624
475.6516, 20.41957
476.1337, 20.27343
476.6158, 20.26584
477.0979, 20.40126
477.5800, 20.62820
478.0621, 20.86471
478.5443, 21.12572
479.0264, 21.35388
479.5085, 21.60774
479.9906, 21.77411
480.4727, 21.68080
480.9548, 21.44768
481.4370, 21.38918
481.9191, 21.74801
482.4012, 22.34269
482.8833, 22.72668
483.3654, 22.84800
483.8475, 22.96613
484.3297, 23.21211
484.8118, 23.45845
485.2939, 23.57003
485.7760, 23.53329
486.2581, 23.49593
486.7402, 23.53952
487.2224, 23.64489
487.7045, 23.81696
488.1866, 24.07738
488.6687, 23.57484
489.1508, 24.30438
489.6329, 24.69654
490.1151, 24.76945
490.5972, 23.56693
491.0793, 24.01136
491.5614, 23.79578
492.0435, 23.55313
492.5256, 24.22936
493.0078, 23.21234
493.4899, 23.87401
493.9720, 23.33019
494.4541, 24.00734
494.9362, 24.34713
495.4183, 24.36766
495.9005, 23.11274
496.3826, 23.50480
496.8647, 23.23684
497.3468, 22.06484
497.8289, 22.81339
498.3110, 23.22456
498.7932, 23.31648
499.2753, 22.13297
499.7574, 22.59641
500.2395, 22.39983
500.7216, 22.17619
501.2037, 22.87143
501.6859, 21.92974
502.1680, 21.13815
502.6501, 20.94551
503.1322, 21.05017
503.6143, 20.66834
504.0964, 19.66290
504.5785, 18.88496
505.0606, 18.72024
505.5428, 18.86102
506.0249, 19.05007
506.5070, 19.28513
506.9891, 19.34614
507.4712, 18.95984
507.9533, 18.39505
508.4355, 18.09794
508.9176, 18.10626
509.3997, 18.18023
509.8818, 18.17484
510.3639, 18.10928
510.8460, 18.06678
511.3282, 18.02183
511.8103, 18.03222
512.2924, 18.19640
512.7745, 18.38276
513.2567, 18.46966
513.7388, 18.42029
514.2209, 18.18423
514.7030, 17.65434
515.1851, 16.81020
515.6672, 16.36735
516.1494, 16.72871
516.6315, 17.03869
517.1136, 17.14861
517.5957, 17.10542
518.0778, 16.90694
518.5599, 16.57113
519.0421, 16.29745
519.5242, 16.42805
520.0063, 17.00303
520.4884, 17.27623
520.9705, 17.01105
521.4526, 16.72315
521.9348, 16.69471
522.4169, 16.82557
522.8990, 16.93633
523.3811, 16.97012
523.8632, 16.96810
524.3453, 17.00124
524.8275, 17.04645
525.3096, 16.93172
525.7917, 16.53915
526.2738, 16.17298
526.7559, 16.26708
527.2380, 16.80274
527.7202, 17.11485
528.2023, 17.00433
528.6844, 16.77383
529.1665, 16.55913
529.6486, 16.37525
530.1307, 16.21828
530.6129, 16.08278
531.0950, 16.02800
531.5771, 16.18855
532.0592, 16.75938
532.5413, 17.04036
533.0234, 16.85425
533.5056, 16.59054
533.9877, 16.39861
534.4698, 16.28535
534.9519, 16.21727
535.4340, 16.17783
535.9161, 16.17128
536.3983, 16.21886
536.8804, 16.33895
537.3625, 16.42824
537.8446, 16.37997
538.3267, 16.38169
538.8088, 16.64911
539.2910, 17.10069
539.7731, 17.39123
540.2552, 17.17189
540.7373, 16.81978
541.2194, 16.91854
541.7015, 17.43121
542.1837, 17.85138
542.6658, 17.97471
543.1479, 17.91566
543.6300, 17.85177
544.1121, 17.78637
544.5942, 17.70140
545.0764, 17.59806
545.5585, 17.47079
546.0406, 17.22365
546.5227, 16.93512
547.0048, 16.88598
547.4869, 17.25688
547.9691, 17.84802
548.4512, 18.09195
548.9333, 17.68379
549.4154, 17.48939
549.8975, 17.70485
550.3796, 17.95432
550.8618, 18.02314
551.3439, 17.92681
551.8260, 17.76635
552.3081, 17.56282
552.7902, 17.39751
553.2723, 17.52199
553.7545, 18.01111
554.2366, 18.34243
554.7187, 18.19930
555.2008, 18.00682
555.6829, 18.27362
556.1650, 18.95306
556.6472, 19.39739
557.1293, 19.21684
557.6114, 18.77226
558.0935, 18.37086
558.5756, 18.04291
559.0577, 17.88596
559.5399, 17.95738
560.0220, 18.19770
560.5041, 18.50849
560.9862, 18.99490
561.4683, 19.29509
561.9504, 19.39410
562.4326, 19.31190
562.9147, 18.84190
563.3968, 18.20327
563.8789, 17.93831
564.3610, 18.37238
564.8431, 19.19748
565.3253, 19.70738
565.8074, 19.84892
566.2895, 19.84054
566.7716, 19.47769
567.2537, 19.16809
567.7358, 19.15625
568.2180, 19.37826
568.7001, 19.63546
569.1822, 19.89734
569.6643, 20.06930
570.1464, 19.90804
570.6285, 19.46124
571.1107, 19.28437
571.5928, 19.63270
572.0749, 20.12816
572.5570, 20.27072
573.0391, 20.05211
573.5212, 19.94223
574.0034, 19.98174
574.4855, 20.14556
574.9676, 20.52274
575.4497, 20.99830
575.9318, 21.34741
576.4139, 21.48181
576.8961, 21.47033
577.3782, 21.37766
577.8603, 21.10091
578.3424, 21.15999
578.8245, 21.95654
579.3066, 22.67427
579.7888, 23.01229
580.2709, 23.10879
580.7530, 23.22341
581.2351, 23.46023
581.7172, 23.62455
582.1993, 23.30188
582.6815, 22.58954
583.1636, 22.46835
583.6457, 23.25118
584.1278, 24.14904
584.6099, 24.62110
585.0920, 24.75011
585.5741, 24.76812
586.0562, 24.53622
586.5383, 24.43047
587.0204, 24.75899
587.5026, 25.27279
587.9847, 25.56926
588.4668, 25.58292
588.9489, 25.55811
589.4310, 25.72596
589.9131, 26.07305
590.3953, 26.35972
590.8774, 26.58087
591.3595, 26.74161
591.8416, 26.65104
592.3237, 26.62629
592.8058, 27.07038
593.2880, 27.96025
593.7701, 28.78515
594.2522, 29.04830
594.7343, 28.92446
595.2164, 29.06162
595.6985, 29.52251
596.1807, 29.93109
596.6628, 30.08332
597.1449, 30.15022
597.6270, 30.39926
598.1091, 30.85696
598.5912, 31.23267
599.0734, 31.26810
599.5555, 31.29807
600.0376, 31.77461
600.5197, 32.57515
601.0018, 33.07307
601.4839, 32.90319
601.9661, 31.93141
602.4482, 33.35312
602.9303, 34.39610
603.4124, 35.07841
603.8945, 34.44379
604.3766, 35.41476
604.8588, 35.68439
605.3409, 35.88536
605.8230, 36.96385
606.3051, 36.30766
606.7872, 36.92029
607.2693, 37.64094
607.7515, 38.02420
608.2336, 38.08823
608.7157, 36.87682
609.1978, 37.31237
609.6799, 37.08790
610.1620, 36.83636
610.6442, 37.50370
611.1263, 36.47781
611.6084, 35.93014
612.0905, 34.98737
612.5726, 34.07868
613.0547, 33.32812
613.5369, 32.75021
614.0190, 32.24753
614.5011, 31.74830
614.9832, 31.24772
615.4653, 30.67702
615.9474, 30.04803
616.4296, 29.32889
616.9117, 28.17290
617.3938, 27.18765
617.8759, 27.07903
618.3580, 27.69434
618.8401, 28.04523
619.3223, 27.31201
619.8044, 26.02076
620.2865, 25.23198
620.7686, 24.94945
621.2507, 24.65098
621.7328, 24.12888
622.2150, 23.58242
622.6971, 23.30516
623.1792, 23.29477
623.6613, 23.23159
624.1434, 23.09352
624.6255, 22.87877
625.1077, 22.53326
625.5898, 22.12308
626.0719, 21.75472
626.5540, 21.46487
627.0361, 21.26069
627.5182, 21.18819
628.0004, 21.27137
628.4825, 21.10082
628.9646, 20.34664
629.4467, 19.82654
629.9288, 19.99785
630.4109, 20.39284
630.8931, 20.49986
631.3752, 20.22306
631.8573, 19.86456
632.3394, 19.57379
632.8215, 19.35806
633.3036, 19.28338
633.7858, 19.34115
634.2679, 19.29381
634.7500, 18.97090
635.2321, 18.56003
635.7142, 18.48026
636.1964, 18.97827
636.6785, 19.21069
637.1606, 18.96441
637.6427, 18.64316
638.1248, 18.47256
638.6069, 18.39764
639.0891, 18.25136
639.5712, 17.96113
640.0533, 17.66912
640.5354, 17.56294
641.0175, 17.64224
641.4996, 17.96743
641.9818, 18.75869
642.4639, 19.37943
642.9460, 19.36529
643.4281, 18.96303
643.9102, 18.47455
644.3923, 17.82440
644.8745, 17.42493
645.3566, 17.72198
645.8387, 18.23363
646.3208, 18.29644
646.8029, 17.92016
647.2850, 17.55067
647.7672, 17.45681
648.2493, 17.58799
648.7314, 17.84005
649.2135, 18.43952
649.6956, 18.68051
650.1777, 18.26310
650.6599, 17.78458
651.1420, 17.48923
651.6241, 17.35474
652.1062, 17.32229
652.5883, 17.40655
653.0704, 17.43747
653.5526, 17.06842
654.0347, 16.46478
654.5168, 16.36953
654.9989, 16.95327
655.4810, 17.60423
655.9631, 17.91978
656.4453, 17.93516
656.9274, 17.79753
657.4095, 17.32222
657.8916, 17.00053
658.3737, 17.02584
658.8558, 17.12929
659.3380, 17.07430
659.8201, 16.89245
660.3022, 16.75739
660.7843, 16.77197
661.2664, 16.89712
661.7485, 17.12766
662.2307, 17.50438
662.7128, 17.53894
663.1949, 16.92885
663.6770, 16.32722
664.1591, 16.34543
664.6412, 16.71891
665.1234, 16.80424
665.6055, 16.25386
666.0876, 15.85231
666.5697, 16.17875
667.0518, 16.77344
667.5339, 17.01147
668.0161, 16.84109
668.4982, 16.58198
668.9803, 16.46280
669.4624, 16.41776
669.9445, 16.17425
670.4266, 15.47983
670.9088, 15.17542
671.3909, 15.78623
671.8730, 16.38835
672.3551, 16.47589
672.8372, 16.19450
673.3193, 15.94800
673.8015, 15.91875
674.2836, 15.86831
674.7657, 15.36975
675.2478, 14.70969
675.7299, 14.74535
676.2120, 15.61092
676.6942, 16.48004
677.1763, 16.73217
677.6584, 16.49981
678.1405, 16.39147
678.6226, 16.50596
679.1047, 16.60820
679.5869, 16.72085
680.0690, 16.79781
680.5511, 16.84390
681.0332, 16.82730
681.5153, 16.67834
681.9974, 16.35521
682.4796, 15.92162
682.9617, 15.34371
683.4438, 14.68857
683.9259, 14.43441
684.4080, 14.70786
684.8901, 15.11977
685.3723, 15.47062
685.8544, 15.72860
686.3365, 15.74677
686.8186, 15.30598
687.3007, 15.04904
687.7828, 15.20075
688.2650, 15.46680
688.7471, 15.69435
689.2292, 15.83637
689.7113, 15.81210
690.1934, 15.56626
690.6755, 15.27709
691.1577, 15.25518
691.6398, 15.50229
692.1219, 15.79846
692.6040, 16.20219
693.0861, 16.46473
693.5682, 16.30737
694.0504, 15.93691
694.5325, 15.84039
695.0146, 16.21222
695.4967, 16.35636
695.9788, 15.83747
696.4609, 15.17584
696.9431, 14.86411
697.4252, 14.82548
697.9073, 14.65459
698.3894, 14.14688
698.8715, 13.63105
699.3536, 13.78487
699.8358, 14.74030
700.3179, 15.21363
700.8000, 14.92179
701.2821, 14.59357
701.7642, 14.54619
702.2463, 14.67979
702.7285, 14.92100
703.2106, 15.28775
703.6927, 15.58157
704.1748, 15.72363
704.6569, 15.75223
705.1390, 15.65781
705.6212, 15.47973
706.1033, 15.32801
706.5854, 15.24853
707.0675, 15.18154
707.5496, 15.02276
708.0317, 14.75235
708.5139, 14.60802
708.9960, 14.68658
709.4781, 14.73678
709.9602, 14.58179
710.4423, 14.41761
710.9244, 14.44977
711.4066, 14.69660
711.8887, 15.00948
712.3708, 15.50591
712.8529, 15.89256
713.3350, 15.74108
713.8171, 15.23256
714.2993, 14.89253
714.7814, 14.89067
715.2635, 15.05986
715.7456, 15.24347
716.2277, 15.43969
716.7098, 15.34565
717.1920, 14.57551
717.6741, 14.16881
718.1562, 14.71083
718.6383, 15.38944
719.1204, 15.51216
719.6025, 15.13398
720.0847, 14.83418
720.5668, 14.94968
721.0489, 15.15510
721.5310, 15.14386
722.0131, 14.98871
722.4952, 14.83941
722.9774, 14.73228
723.4595, 14.69818
723.9416, 14.76749
724.4237, 14.92892
724.9058, 15.13817
725.3879, 15.59291
725.8701, 15.71495
726.3522, 15.13639
726.8343, 14.51279
727.3164, 14.14959
727.7985, 14.04096
728.2806, 14.13646
728.7628, 14.48347
729.2449, 14.85946
729.7270, 15.11053
730.2091, 15.26098
730.6912, 15.33813
731.1733, 15.35156
731.6555, 15.33594
732.1376, 15.31000
732.6197, 15.27683
733.1018, 15.23862
733.5839, 15.17160
734.0660, 15.16342
734.5482, 15.34778
735.0303, 15.44209
735.5124, 15.31710
735.9945, 15.05148
736.4766, 14.66745
736.9587, 14.14459
737.4409, 13.92026
737.9230, 14.59963
738.4051, 15.52631
738.8872, 15.06049
739.3693, 15.75923
739.8514, 16.12059
740.3336, 16.16269
740.8157, 14.92937
741.2978, 15.34301
741.7799, 15.09662
742.2620, 14.82316
742.7441, 15.46861
743.2263, 14.42078
743.7084, 15.05166
744.1905, 15.01243
744.6726, 14.30086
745.1547, 14.27932
745.6368, 14.41753
746.1190, 14.75710
746.6011, 15.03738
747.0832, 14.85211
747.5653, 14.48814
748.0474, 14.66788
748.5295, 15.47992
749.0117, 16.20646
749.4938, 16.23870
749.9759, 15.72747
750.4580, 15.27018
750.9401, 14.77975
751.4222, 14.60283
751.9044, 15.03451
752.3865, 15.51800
752.8686, 15.72706
753.3507, 15.75364
753.8328, 15.80673
754.3149, 15.94169
754.7971, 16.06657
755.2792, 16.14995
755.7613, 16.18875
756.2434, 16.19038
756.7255, 16.14509
757.2076, 16.00602
757.6898, 15.74917
758.1719, 15.45161
758.6540, 15.20147
759.1361, 14.98834
759.6182, 15.04510
760.1003, 15.56086
760.5825, 15.91122
761.0646, 15.68385
761.5467, 15.26890
762.0288, 15.14319
762.5109, 15.31800
762.9930, 15.54816
763.4752, 15.81460
763.9573, 16.08207
764.4394, 16.43536
764.9215, 16.72964
765.4036, 16.74216
765.8857, 16.44609
766.3679, 15.96338
766.8500, 15.31130
767.3321, 14.66937
767.8142, 14.62709
768.2963, 15.24004
768.7784, 15.70171
769.2606, 15.81770
769.7427, 15.86043
770.2248, 16.06473
770.7069, 16.37201
771.1890, 16.52052
771.6711, 16.44266
772.1533, 16.33380
772.6354, 16.12488
773.1175, 15.98606
773.5996, 16.04030
774.0817, 16.25953
774.5638, 16.65971
775.0460, 17.24714
775.5281, 17.63524
776.0102, 17.22702
776.4923, 16.28675
776.9744, 15.63772
777.4565, 15.30925
777.9387, 15.25943
778.4208, 15.53543
778.9029, 15.90487
779.3850, 16.04681
779.8671, 15.94072
780.3492, 15.79902
780.8314, 15.49604
781.3135, 15.31949
781.7956, 15.39405
782.2777, 15.56418
782.7598, 15.64189
783.2419, 15.67030
783.7241, 15.91327
784.2062, 16.64815
784.6883, 17.38518
785.1704, 17.65901
785.6525, 17.56240
786.1346, 17.20551
786.6168, 16.64487
787.0989, 16.18902
787.5810, 16.04444
788.0631, 16.11613
788.5452, 16.15310
789.0273, 16.06835
789.5095, 16.28111
789.9916, 17.20252
790.4737, 17.84409
790.9558, 17.48578
791.4379, 16.78606
791.9200, 16.66775
792.4022, 17.26377
792.8843, 17.50530
793.3664, 16.58891
793.8485, 15.59875
794.3306, 15.23552
794.8127, 15.39069
795.2949, 16.03259
795.7770, 17.03324
796.2591, 17.76589
796.7412, 17.60969
797.2233, 16.90452
797.7054, 16.70088
798.1876, 17.04184
798.6697, 17.19523
799.1518, 16.94009
799.6339, 16.71812
800.1160, 16.93916
800.5981, 17.44064
801.0803, 17.55691
801.5624, 16.97925
802.0445, 16.68470
802.5266, 17.05643
803.0087, 17.43448
803.4908, 17.44014
803.9730, 17.19069
804.4551, 16.82105
804.9372, 16.39306
805.4193, 16.20977
805.9014, 16.76888
806.3835, 17.61642
806.8657, 17.96041
807.3478, 17.83956
807.8299, 17.44666
808.3120, 16.82176
808.7941, 16.23430
809.2762, 15.95499
809.7584, 15.95780
810.2405, 16.03011
810.7226, 16.15458
811.2047, 16.38972
811.6868, 16.95339
812.1689, 17.41551
812.6511, 17.42732
813.1332, 17.18310
813.6153, 17.13624
814.0974, 17.47066
814.5795, 17.66089
815.0616, 17.32170
815.5438, 16.86367
816.0259, 16.65992
816.5080, 16.65414
816.9901, 16.63734
817.4722, 16.54347
817.9543, 16.51338
818.4365, 16.77745
818.9186, 17.21451
819.4007, 17.25013
819.8828, 16.85607
820.3649, 16.49054
820.8470, 16.22278
821.3292, 16.16035
821.8113, 16.48624
822.2934, 17.12748
822.7755, 17.50060
823.2576, 17.34929
823.7397, 17.31320
824.2219, 17.59652
824.7040, 17.83408
825.1861, 17.70440
825.6682, 17.40418
826.1503, 17.35170
826.6324, 17.68566
827.1146, 17.96786
827.5967, 17.83757
828.0788, 17.51766
828.5609, 17.19862
829.0430, 16.94930
829.5251, 17.00895
830.0073, 17.43352
830.4894, 17.87445
830.9715, 17.97827
831.4536, 17.79042
831.9357, 17.52313
832.4178, 17.14247
832.9000, 16.84850
833.3821, 16.72912
833.8642, 16.60710
834.3463, 16.18942
834.8284, 15.69622
835.3105, 15.83201
835.7927, 17.00528
836.2748, 17.82055
836.7569, 17.91515
837.2390, 17.73098
837.7211, 17.38560
838.2032, 16.99279
838.6854, 16.65143
839.1675, 16.39903
839.6496, 16.30056
840.1317, 16.50154
840.6138, 16.81167
841.0959, 16.91632
841.5781, 16.87379
842.0602, 16.90210
842.5423, 17.04590
843.0244, 17.20869
843.5065, 17.32458
843.9886, 17.37879
844.4708, 17.28368
844.9529, 16.93660
845.4350, 16.86214
845.9171, 17.34044
846.3992, 17.68298
846.8813, 17.43698
847.3635, 16.91885
847.8456, 16.51766
848.3277, 16.23640
848.8098, 16.17042
849.2919, 16.62466
849.7740, 16.96509
850.2562, 16.72317
850.7383, 16.31241
851.2204, 16.27061
851.7025, 16.58721
852.1846, 16.85125
852.6667, 16.82386
853.1489, 16.65397
853.6310, 16.44696
854.1131, 16.26367
854.5952, 16.30730
855.0773, 16.58363
855.5594, 16.96274
856.0416, 17.40971
856.5237, 17.73197
857.0058, 17.57068
857.4879, 16.88330
857.9700, 16.40902
858.4521, 16.09406
858.9343, 16.13885
859.4164, 16.98466
859.8985, 17.83398
860.3806, 17.81796
860.8627, 17.14402
861.3448, 16.80074
861.8270, 17.18794
862.3091, 17.44871
862.7912, 17.27050
863.2733, 16.96852
863.7554, 16.70954
864.2375, 16.53614
864.7197, 16.49670
865.2018, 16.60306
865.6839, 16.75549
866.1660, 16.95879
866.6481, 17.10218
867.1302, 16.93565
867.6124, 16.53679
868.0945, 16.21510
868.5766, 16.04809
869.0587, 15.86529
869.5408, 15.48151
870.0229, 15.05364
870.5051, 15.20192
870.9872, 16.11683
871.4693, 16.61467
871.9514, 16.45390
872.4335, 16.18042
872.9156, 16.02284
873.3978, 15.95643
873.8799, 15.94611
874.3620, 15.99519
874.8441, 16.06431
875.3262, 16.31138
875.8083, 16.37858
876.2905, 15.93051
876.7726, 15.40459
877.2547, 15.21426
877.7368, 15.35150
878.2189, 15.62145
878.7010, 16.00417
879.1832, 16.30564
879.6653, 16.31497
880.1474, 16.17089
880.6295, 16.02579
881.1116, 15.92053
881.5938, 15.97611
882.0759, 16.22945
882.5580, 16.42224
883.0401, 16.18405
883.5222, 15.64702
884.0043, 15.49488
884.4865, 15.75506
884.9686, 16.06015
885.4507, 16.40666
885.9328, 16.50172
886.4149, 15.99409
886.8970, 15.13384
887.3792, 14.77747
887.8613, 15.24812
888.3434, 15.52433
888.8255, 15.39176
889.3076, 15.32028
889.7897, 15.66775
890.2719, 16.03693
890.7540, 15.90506
891.2361, 15.26995
891.7182, 14.69884
892.2003, 14.26833
892.6824, 14.08081
893.1646, 14.37143
893.6467, 14.80506
894.1288, 14.99129
894.6109, 14.96643
895.0930, 15.01575
895.5751, 15.27309
896.0573, 15.47452
896.5394, 15.12416
897.0215, 14.56412
897.5036, 14.80112
897.9857, 15.69234
898.4678, 16.11813
898.9500, 15.74350
899.4321, 15.15921
899.9142, 14.91845
900.3963, 14.91219
900.8784, 14.64029
901.3605, 13.98376
901.8427, 13.66455
902.3248, 13.88604
902.8069, 14.14432
903.2890, 14.13951
903.7711, 14.04146
904.2532, 14.18755
904.7354, 14.65522
905.2175, 14.87330
905.6996, 14.62613
906.1817, 14.39771
906.6638, 14.32873
907.1459, 14.31416
907.6281, 14.23223
908.1102, 14.12723
908.5923, 14.16828
909.0744, 14.45683
909.5565, 14.71358
910.0386, 14.65991
910.5208, 14.58628
911.0029, 14.97857
911.4850, 15.53241
911.9671, 15.48012
912.4492, 14.70134
912.9313, 13.96491
913.4135, 13.95164
913.8956, 14.29924
914.3777, 14.30425
914.8597, 14.05645
915.3419, 14.02627
915.8240, 14.26833
916.3061, 14.42283
916.7882, 14.28162
917.2703, 14.01249
917.7524, 13.90570
918.2346, 13.96961
918.7167, 13.93404
919.1988, 13.74488
919.6809, 13.61815
920.1630, 13.58420
920.6451, 13.67357
921.1273, 14.05113
921.6094, 14.58048
922.0915, 14.62181
922.5736, 13.73034
923.0557, 13.25980
923.5378, 13.64969
924.0200, 14.03062
924.5021, 13.96339
924.9842, 13.72161
925.4663, 13.67140
925.9484, 13.83080
926.4305, 13.92785
926.9127, 13.78749
927.3948, 13.65159
927.8769, 13.71747
928.3590, 13.81814
928.8411, 13.73748
929.3232, 13.52830
929.8054, 13.37983
930.2875, 13.36428
930.7696, 13.39165
931.2517, 13.29471
931.7338, 13.22522
932.2159, 13.66136
932.6981, 14.38605
933.1802, 14.49020
933.6623, 13.84121
934.1444, 13.23911
934.6265, 13.25765
935.1086, 13.62837
935.5908, 13.79767
936.0729, 13.76489
936.5550, 13.70833
937.0371, 13.62247
937.5192, 13.57388
938.0013, 13.59522
938.4835, 13.64748
938.9656, 13.72444
939.4477, 13.80096
939.9298, 13.62105
940.4119, 12.86638
940.8940, 12.50144
941.3762, 12.88024
941.8583, 13.29944
942.3404, 13.42833
942.8225, 13.40851
943.3046, 13.39839
943.7867, 13.40095
944.2689, 13.53098
944.7510, 14.00169
945.2331, 14.35001
945.7152, 14.38249
946.1973, 14.26124
946.6794, 14.06868
947.1616, 13.85151
947.6437, 13.66724
948.1258, 13.52965
948.6079, 13.46012
949.0900, 13.59421
949.5721, 13.69172
950.0543, 13.34178
950.5364, 12.86818
951.0185, 12.93614
951.5006, 13.54406
951.9827, 14.06199
952.4648, 14.10205
952.9470, 13.91679
953.4291, 13.80442
953.9112, 13.74175
954.3933, 13.69414
954.8754, 13.64531
955.3575, 13.47783
955.8397, 13.15753
956.3218, 12.91528
956.8039, 13.00503
957.2860, 13.30256
957.7681, 13.34448
958.2502, 13.11142
958.7324, 13.14532
959.2145, 13.54903
959.6966, 13.97946
960.1787, 14.31149
960.6608, 14.49146
961.1429, 14.39342
961.6251, 14.01190
962.1072, 13.94017
962.5893, 14.46421
963.0714, 14.65285
963.5535, 14.10499
964.0356, 13.53865
964.5178, 13.48051
964.9999, 13.67937
965.4820, 13.56124
965.9641, 12.99706
966.4462, 12.75679
966.9283, 13.25420
967.4105, 13.61269
967.8926, 13.37121
968.3747, 13.06558
968.8568, 13.23041
969.3389, 13.71032
969.8210, 13.98319
970.3032, 13.89121
970.7853, 13.73876
971.2674, 13.61900
971.7495, 13.51778
972.2316, 13.34450
972.7137, 13.23068
973.1959, 13.42924
973.6780, 13.89060
974.1601, 14.26915
974.6422, 14.39971
975.1243, 14.37140
975.6064, 14.20116
976.0886, 13.96113
976.5707, 13.70230
977.0528, 13.46833
977.5349, 13.33507
978.0170, 13.32820
978.4991, 13.46640
978.9813, 13.82230
979.4634, 14.19746
979.9455, 14.22715
980.4276, 13.99156
980.9097, 13.68005
981.3918, 13.34776
981.8740, 13.31292
982.3561, 13.70518
982.8382, 14.12435
983.3203, 14.10675
983.8024, 13.74514
984.2845, 13.30776
984.7667, 12.78855
985.2488, 12.83415
985.7309, 13.00753
986.2130, 13.79545
986.6951, 14.24599
987.1772, 14.37728
987.6594, 13.23314
988.1415, 13.73596
988.6236, 13.57874
989.1057, 13.39447
989.5878, 14.12909
990.0699, 13.17045
990.5521, 13.89050
991.0342, 13.94045
991.5163, 14.29708
991.9984, 13.98961
992.4805, 13.88727
992.9626, 14.44923
993.4448, 14.64337
993.9269, 14.25945
994.4090, 14.63558
994.8911, 13.65375
995.3732, 13.86354
995.8553, 14.58747
996.3375, 14.23695
996.8196, 14.62522
997.3017, 14.73212
997.7838, 13.56029
998.2659, 14.61229
998.7480, 14.70256
999.2302, 13.80534
999.7123, 14.78114
1000.194, 14.02004
1000.677, 13.87895
1001.159, 14.20439
1001.641, 14.04345
1002.123, 14.64934
1002.605, 14.51649
1003.087, 14.31763
1003.569, 14.40682
1004.051, 13.67978
1004.533, 14.46700
1005.016, 14.21989
1005.498, 14.48691
1005.980, 14.87046
1006.462, 14.36167
1006.944, 14.79759
1007.426, 13.76848
1007.908, 13.96521
1008.390, 14.02994
1008.872, 14.87821
1009.355, 13.85628
1009.837, 14.01895
1010.319, 14.68603
1010.801, 14.64733
1011.283, 14.90372
1011.765, 14.28652
1012.247, 14.48999
1012.729, 14.46726
1013.212, 14.34276
1013.694, 14.15190
1014.176, 14.32407
1014.658, 14.60182
1015.140, 14.53659
1015.622, 14.26166
1016.104, 14.19676
1016.586, 14.30916
1017.068, 14.25131
1017.551, 13.92631
1018.033, 13.61384
1018.515, 13.55615
1018.997, 13.68126
1019.479, 13.88145
1019.961, 14.13283
1020.443, 14.28488
1020.925, 14.32574
1021.408, 14.18157
1021.890, 13.80812
1022.372, 13.52842
1022.854, 13.68284
1023.336, 14.13486
1023.818, 14.42699
1024.300, 14.55216
1024.782, 14.81380
1025.265, 15.27667
1025.747, 15.47585
1026.229, 15.18055
1026.711, 14.76409
1027.193, 14.62014
1027.675, 14.70658
1028.157, 14.86097
1028.639, 15.14395
1029.121, 15.11004
1029.604, 14.57745
1030.086, 14.27818
1030.568, 14.59675
1031.050, 15.08845
1031.532, 15.26813
1032.014, 15.16066
1032.496, 14.90906
1032.978, 14.34714
1033.460, 14.18029
1033.943, 14.73573
1034.425, 15.07128
1034.907, 14.67305
1035.389, 14.03696
1035.871, 13.67613
1036.353, 13.59054
1036.835, 13.79353
1037.317, 14.63581
1037.800, 15.03067
1038.282, 14.52547
1038.764, 14.19047
1039.246, 14.79920
1039.728, 15.49146
1040.210, 15.05050
1040.692, 13.62458
1041.174, 13.05641
1041.656, 14.04295
1042.139, 14.78651
1042.621, 15.36084
1043.103, 15.58611
1043.585, 15.07806
1044.067, 14.40471
1044.549, 14.18059
1045.031, 14.37220
1045.513, 14.62351
1045.995, 15.15706
1046.478, 15.32942
1046.960, 14.64354
1047.442, 14.10548
1047.924, 14.28590
1048.406, 14.72944
1048.888, 14.93702
1049.370, 14.92018
1049.852, 14.95335
1050.335, 15.17270
1050.817, 15.25263
1051.299, 14.95205
1051.781, 14.71460
1052.263, 14.73418
1052.745, 14.93745
1053.227, 15.42498
1053.709, 16.04928
1054.192, 16.14636
1054.674, 15.35923
1055.156, 14.57565
1055.638, 13.76518
1056.120, 13.31355
1056.602, 13.69162
1057.084, 14.33246
1057.566, 14.62673
1058.048, 14.59996
1058.531, 14.66058
1059.013, 15.08657
1059.495, 13.91488
1059.977, 14.75274
1060.459, 15.25320
1060.941, 15.43443
1061.423, 14.34020
1061.905, 14.89295
1062.387, 14.78565
1062.870, 15.75924
1063.352, 15.03864
1063.834, 14.58776
1064.316, 15.35777
1064.798, 15.98346
1065.280, 15.35009
1065.762, 14.44986
1066.244, 14.52142
1066.727, 15.26834
1067.209, 15.47882
1067.691, 14.72697
1068.173, 14.11507
1068.655, 14.14388
1069.137, 14.39728
1069.619, 14.88650
1070.101, 15.29309
1070.583, 15.25895
1071.066, 14.88784
1071.548, 14.41410
1072.030, 13.87017
1072.512, 13.68510
1072.994, 14.54714
1073.476, 15.20922
1073.958, 14.66832
1074.440, 13.88025
1074.922, 13.76579
1075.405, 14.16980
1075.887, 14.68047
1076.369, 15.19688
1076.851, 15.33967
1077.333, 14.50714
1077.815, 13.80896
1078.297, 13.90812
1078.779, 14.30677
1079.261, 14.64684
1079.744, 14.91137
1080.226, 15.21260
1080.708, 15.54653
1081.190, 15.62361
1081.672, 14.99811
1082.154, 14.54590
1082.636, 14.94814
1083.118, 15.43647
1083.601, 15.41263
1084.083, 15.04240
1084.565, 14.53473
1085.047, 13.99409
1085.529, 13.77390
1086.011, 14.21273
1086.493, 14.58582
1086.975, 14.50329
1087.458, 14.30711
1087.940, 14.19150
1088.422, 14.14265
1088.904, 14.08104
1089.386, 14.03576
1089.868, 14.19499
1090.350, 14.72652
1090.832, 15.15104
1091.314, 15.34610
1091.797, 15.29652
1092.279, 14.79170
1092.761, 14.18778
1093.243, 13.81893
1093.725, 13.71109
1094.207, 13.85897
1094.689, 14.36906
1095.171, 14.61845
1095.653, 14.02923
1096.136, 13.58234
1096.618, 13.84709
1097.100, 14.38794
1097.582, 15.00513
1098.064, 15.50623
1098.546, 15.46789
1099.028, 14.75080
1099.510, 14.22171
1099.993, 14.17485
1100.475, 14.28897
1100.957, 14.66190
1101.439, 14.94904
1101.921, 14.81572
1102.403, 14.45762
1102.885, 14.21822
1103.367, 14.13851
1103.849, 14.04776
1104.332, 13.72418
1104.814, 13.66123
1105.296, 14.22099
1105.778, 14.78486
1106.260, 15.02768
1106.742, 15.05752
1107.224, 14.93377
1107.706, 14.70919
1108.188, 14.74630
1108.671, 15.41167
1109.153, 15.75403
1109.635, 15.45534
1110.117, 15.08754
1110.599, 14.78657
1111.081, 14.58782
1111.563, 14.58621
1112.045, 14.71714
1112.528, 14.71512
1113.010, 14.46061
1113.492, 14.37513
1113.974, 14.59727
1114.456, 14.80691
1114.938, 15.02344
1115.420, 15.11176
1115.902, 14.94760
1116.385, 14.60192
1116.867, 14.19568
1117.349, 13.70537
1117.831, 13.32639
1118.313, 12.88449
1118.795, 12.92638
1119.277, 13.84711
1119.759, 14.75248
1120.241, 15.27375
1120.724, 15.38872
1121.206, 14.91987
1121.688, 13.93212
1122.170, 13.66793
1122.652, 14.46393
1123.134, 14.93885
1123.616, 14.93467
1124.098, 14.77095
1124.580, 14.48967
1125.063, 14.28287
1125.545, 14.37591
1126.027, 14.67220
1126.509, 14.80153
1126.991, 14.71794
1127.473, 14.81673
1127.955, 15.17929
1128.437, 15.23318
1128.920, 14.74915
1129.402, 14.33448
1129.884, 14.45581
1130.366, 14.82688
1130.848, 14.85787
1131.330, 14.59102
1131.812, 14.72827
1132.294, 15.27602
1132.776, 15.31203
1133.259, 14.67403
1133.741, 14.31572
1134.223, 14.73581
1134.705, 15.37251
1135.187, 15.57388
1135.669, 15.41715
1136.151, 15.03661
1136.633, 14.49712
1137.115, 14.20602
1137.598, 14.15217
1138.080, 13.88200
1138.562, 13.28135
1139.044, 12.99375
1139.526, 13.58954
1140.008, 14.51480
1140.490, 14.86648
1140.972, 14.87727
1141.455, 15.23757
1141.937, 15.73728
1142.419, 15.52555
1142.901, 14.60524
1143.383, 13.86573
1143.865, 13.76280
1144.347, 13.87439
1144.829, 13.71174
1145.312, 13.57542
1145.794, 14.01998
1146.276, 14.67176
1146.758, 14.84989
1147.240, 14.67701
1147.722, 14.72359
1148.204, 15.12757
1148.686, 15.43896
1149.168, 15.34672
1149.651, 15.13416
1150.133, 14.94299
1150.615, 14.79786
1151.097, 14.65310
1151.579, 14.60826
1152.061, 14.96363
1152.543, 15.59262
1153.025, 15.78252
1153.507, 15.11150
1153.990, 14.72142
1154.472, 15.55005
1154.954, 16.20361
1155.436, 15.70032
1155.918, 14.92062
1156.400, 14.61710
1156.882, 14.70789
1157.364, 14.94577
1157.847, 15.32147
1158.329, 15.48078
1158.811, 15.11878
1159.293, 14.90911
1159.775, 15.28932
1160.257, 15.47574
1160.739, 14.72710
1161.221, 13.82838
1161.703, 13.78912
1162.186, 14.45253
1162.668, 14.78183
1163.150, 14.61747
1163.632, 14.50811
1164.114, 14.32339
1164.596, 14.53096
1165.078, 15.52880
1165.560, 16.37631
1166.042, 16.32927
1166.525, 15.77125
1167.007, 15.45176
1167.489, 15.36764
1167.971, 15.24792
1168.453, 15.05684
1168.935, 15.24102
1169.417, 15.92384
1169.899, 16.32926
1170.382, 16.09443
1170.864, 15.63531
1171.346, 15.36541
1171.828, 15.25014
1172.310, 15.24016
1172.792, 15.30537
1173.274, 15.21738
1173.756, 15.01712
1174.239, 15.07128
1174.721, 15.43093
1175.203, 15.74748
1175.685, 15.81431
1176.167, 15.77914
1176.649, 15.77993
1177.131, 15.82638
1177.613, 15.93690
1178.095, 16.10485
1178.578, 16.46755
1179.060, 16.85367
1179.542, 16.67106
1180.024, 15.83303
1180.506, 15.12813
1180.988, 15.10137
1181.470, 15.21134
1181.952, 14.93912
1182.434, 14.72428
1182.917, 15.18285
1183.399, 15.80458
1183.881, 15.70708
1184.363, 15.10182
1184.845, 15.03763
1185.327, 15.88408
1185.809, 16.53073
1186.291, 16.46450
1186.774, 16.36685
1187.256, 16.54624
1187.738, 16.69595
1188.220, 16.50575
1188.702, 16.20888
1189.184, 16.17127
1189.666, 16.39239
1190.148, 16.63078
1190.630, 17.15125
1191.113, 17.10295
1191.595, 16.02062
1192.077, 15.32440
1192.559, 15.53158
1193.041, 16.04850
1193.523, 16.52847
1194.005, 16.86652
1194.487, 16.82694
1194.969, 16.42063
1195.452, 15.93219
1195.934, 15.33375
1196.416, 15.18343
1196.898, 15.56844
1197.380, 15.73558
1197.862, 15.36342
1198.344, 15.12671
1198.826, 15.71478
1199.309, 16.64107
1199.791, 17.06156
1200.273, 16.99759
1200.755, 16.18701
1201.237, 14.99451
1201.719, 14.59529
1202.201, 15.08692
1202.683, 15.87711
1203.166, 16.69218
1203.648, 17.22083
1204.130, 17.07002
1204.612, 16.67570
1205.094, 16.29582
1205.576, 16.05425
1206.058, 16.14462
1206.540, 16.45603
1207.022, 16.88413
1207.505, 17.33427
1207.987, 17.52224
1208.469, 17.28842
1208.951, 17.03849
1209.433, 16.81919
1209.915, 16.73420
1210.397, 17.10184
1210.879, 17.34876
1211.361, 16.73194
1211.844, 15.82661
1212.326, 15.85100
1212.808, 16.78709
1213.290, 17.15801
1213.772, 16.69237
1214.254, 16.28484
1214.736, 15.89742
1215.218, 15.76687
1215.701, 16.01776
1216.183, 16.44310
1216.665, 16.95588
1217.147, 17.35073
1217.629, 17.07285
1218.111, 16.26607
1218.593, 16.48188
1219.075, 17.62039
1219.557, 18.32829
1220.040, 18.45869
1220.522, 18.29477
1221.004, 17.96439
1221.486, 17.77718
1221.968, 18.03823
1222.450, 18.33873
1222.932, 17.99119
1223.414, 17.39931
1223.896, 17.15496
1224.379, 17.18211
1224.861, 17.38025
1225.343, 17.65435
1225.825, 17.84233
1226.307, 17.89169
1226.789, 17.79149
1227.271, 17.37708
1227.753, 17.04831
1228.236, 16.96382
1228.718, 17.06622
1229.200, 17.49911
1229.682, 17.96113
1230.164, 18.04862
1230.646, 17.86434
1231.128, 17.85877
1231.610, 18.11951
1232.093, 18.29557
1232.575, 18.36448
1233.057, 18.38790
1233.539, 18.33806
1234.021, 18.33350
1234.503, 18.45674
1234.985, 18.58663
1235.467, 18.61150
1235.949, 18.51178
1236.432, 18.11332
1236.914, 17.45579
1237.396, 17.44048
1237.878, 18.00445
1238.360, 18.23333
1238.842, 18.02447
1239.324, 18.19793
1239.806, 19.10699
1240.288, 19.74113
1240.771, 18.97622
1241.253, 17.80832
1241.735, 17.44919
1242.217, 17.59530
1242.699, 18.00583
1243.181, 18.49416
1243.663, 18.86357
1244.145, 19.05222
1244.628, 18.94637
1245.110, 18.47683
1245.592, 18.18561
1246.074, 18.41916
1246.556, 18.67273
1247.038, 18.62856
1247.520, 18.71246
1248.002, 19.53256
1248.484, 20.33541
1248.967, 20.07464
1249.449, 19.09194
1249.931, 18.61411
1250.413, 18.71723
1250.895, 18.89748
1251.377, 19.19657
1251.859, 19.35123
1252.341, 19.26977
1252.823, 19.40811
1253.306, 20.01078
1253.788, 20.58757
1254.270, 20.61196
1254.752, 20.36682
1255.234, 20.49227
1255.716, 20.83104
1256.198, 20.89362
1256.680, 20.75595
1257.163, 20.67282
1257.645, 20.66613
1258.127, 20.64936
1258.609, 20.58707
1259.091, 20.44921
1259.573, 20.16429
1260.055, 19.89520
1260.537, 19.59250
1261.020, 19.52099
1261.502, 20.13888
1261.984, 20.88640
1262.466, 21.11060
1262.948, 20.93252
1263.430, 20.77568
1263.912, 20.66440
1264.394, 20.69896
1264.876, 20.95521
1265.359, 21.21432
1265.841, 21.55902
1266.323, 21.62974
1266.805, 21.21929
1267.287, 20.73551
1267.769, 20.47488
1268.251, 20.45396
1268.733, 20.81439
1269.215, 21.40458
1269.698, 21.36396
1270.180, 20.86853
1270.662, 20.76119
1271.144, 21.03129
1271.626, 21.15360
1272.108, 21.03228
1272.590, 21.16868
1273.072, 21.91188
1273.555, 22.59276
1274.037, 22.64698
1274.519, 22.42498
1275.001, 22.01579
1275.483, 21.64673
1275.965, 21.49746
1276.447, 21.55573
1276.929, 21.90575
1277.411, 22.46917
1277.894, 22.60382
1278.376, 21.89647
1278.858, 21.63111
1279.340, 22.14017
1279.822, 22.34388
1280.304, 21.85498
1280.786, 21.55890
1281.268, 22.00498
1281.750, 22.56291
1282.233, 22.42908
1282.715, 21.96399
1283.197, 22.31972
1283.679, 23.24228
1284.161, 23.50211
1284.643, 23.19399
1285.125, 22.77383
1285.607, 22.34043
##END=



