##NAMES=Hematite
##RRUFFID=R110013
##IDEAL CHEMISTRY=Fe^3+^_2_O_3_
##LOCALITY=Itabira, Minas Gerais, Brazil
##OWNER=RRUFF
##SOURCE=University of Arizona Mineral Museum
##DESCRIPTION=A group of black lustrous euhedral crystals
##STATUS=The identification of this mineral is confirmed by single-crystal X-ray diffraction and chemical analysis.
##URL=rruff.info/R110013
##MEASURED CHEMISTRY=Fe_2_O_3_ ; (Pure phase as determined by WDS analysis)
144.1204, 208.3070
144.6025, 208.8650
145.0846, 211.3841
145.5667, 213.1344
146.0488, 213.8831
146.5310, 213.8742
147.0131, 213.1513
147.4952, 211.6022
147.9773, 209.9447
148.4594, 208.7734
148.9415, 208.0303
149.4237, 208.1632
149.9058, 209.8373
150.3879, 212.5571
150.8700, 214.9156
151.3521, 216.6005
151.8342, 217.9951
152.3164, 219.6688
152.7985, 221.5302
153.2806, 222.9290
153.7627, 223.5379
154.2448, 223.3676
154.7269, 222.0461
155.2091, 218.2445
155.6912, 214.1651
156.1733, 210.7885
156.6554, 208.2276
157.1375, 206.2062
157.6196, 204.3092
158.1018, 202.2806
158.5839, 201.2072
159.0660, 202.0608
159.5481, 203.1320
160.0302, 203.1505
160.5123, 201.8844
160.9945, 200.2310
161.4766, 199.8322
161.9587, 202.0887
162.4408, 203.5506
162.9229, 203.6475
163.4050, 203.2649
163.8871, 203.2374
164.3693, 203.8754
164.8514, 204.8656
165.3335, 205.4599
165.8156, 205.8521
166.2977, 205.5769
166.7798, 204.0279
167.2620, 201.8723
167.7441, 200.1625
168.2262, 199.4037
168.7083, 199.2478
169.1904, 198.6606
169.6725, 197.1256
170.1547, 196.1258
170.6368, 196.7632
171.1189, 198.5503
171.6010, 199.7732
172.0831, 199.4771
172.5652, 198.2584
173.0474, 197.4299
173.5295, 196.9904
174.0116, 196.9351
174.4937, 197.4314
174.9758, 198.4785
175.4579, 199.4329
175.9401, 199.9253
176.4222, 200.2218
176.9043, 200.6305
177.3864, 201.2660
177.8685, 201.8872
178.3506, 202.1554
178.8328, 201.9776
179.3149, 201.7752
179.7970, 201.2859
180.2791, 201.0152
180.7612, 201.6172
181.2433, 203.4531
181.7255, 205.7993
182.2076, 207.0405
182.6897, 206.4875
183.1718, 206.0343
183.6539, 206.1209
184.1360, 206.4743
184.6181, 206.6698
185.1003, 206.4586
185.5824, 206.2141
186.0645, 207.2853
186.5466, 210.9370
187.0287, 214.4900
187.5108, 218.1114
187.9930, 221.2881
188.4751, 223.3562
188.9572, 223.9111
189.4393, 223.1565
189.9214, 222.1645
190.4035, 220.5349
190.8857, 219.1177
191.3678, 218.0598
191.8499, 217.3296
192.3320, 216.8779
192.8141, 216.6997
193.2962, 216.7599
193.7784, 216.7885
194.2605, 216.8428
194.7426, 216.8169
195.2247, 216.3429
195.7068, 215.6955
196.1889, 215.6601
196.6711, 216.7870
197.1532, 218.9266
197.6353, 221.0457
198.1174, 223.2163
198.5995, 225.3125
199.0816, 227.4227
199.5638, 229.4918
200.0459, 231.0776
200.5280, 231.6514
201.0101, 231.6260
201.4922, 232.2006
201.9743, 233.4571
202.4565, 235.2874
202.9386, 237.7202
203.4207, 240.7710
203.9028, 244.0270
204.3849, 247.2762
204.8670, 250.6024
205.3492, 254.0879
205.8313, 257.7211
206.3134, 261.5563
206.7955, 265.6170
207.2776, 269.8905
207.7597, 274.4551
208.2419, 279.5135
208.7240, 284.8313
209.2061, 290.1006
209.6882, 295.0981
210.1703, 300.2679
210.6524, 306.4196
211.1346, 313.7074
211.6167, 321.5359
212.0988, 329.2474
212.5809, 337.4828
213.0630, 346.7643
213.5451, 357.1437
214.0273, 369.0702
214.5094, 383.5619
214.9915, 401.0707
215.4736, 420.7489
215.9557, 440.1524
216.4378, 462.0778
216.9200, 488.4364
217.4021, 519.7819
217.8842, 557.8231
218.3663, 606.1136
218.8484, 658.0607
219.3305, 733.1081
219.8127, 820.9414
220.2948, 935.3473
220.7769, 1083.439
221.2590, 1268.382
221.7411, 1501.171
222.2232, 1814.140
222.7054, 2219.360
223.1875, 2706.764
223.6696, 3353.814
224.1517, 4055.360
224.6338, 4741.865
225.1159, 5387.521
225.5980, 5910.974
226.0802, 6065.940
226.5623, 5634.162
227.0444, 5073.308
227.5265, 4294.212
228.0086, 3436.202
228.4907, 2673.128
228.9729, 2076.097
229.4550, 1622.993
229.9371, 1277.648
230.4192, 1074.267
230.9013, 914.4911
231.3834, 798.2279
231.8656, 714.7233
232.3477, 650.8065
232.8298, 602.7373
233.3119, 567.0472
233.7940, 537.4683
234.2761, 513.3044
234.7583, 494.6749
235.2404, 482.6261
235.7225, 476.0340
236.2046, 472.8222
236.6867, 472.2657
237.1688, 475.0482
237.6510, 482.2829
238.1331, 492.8377
238.6152, 509.2298
239.0973, 529.5826
239.5794, 556.5717
240.0615, 594.3127
240.5437, 642.1782
241.0258, 706.0568
241.5079, 795.2552
241.9900, 908.1438
242.4721, 1033.151
242.9542, 1181.633
243.4364, 1338.781
243.9185, 1473.137
244.4006, 1591.549
244.8827, 1657.882
245.3648, 1631.258
245.8469, 1521.768
246.3290, 1379.775
246.8112, 1207.368
247.2933, 1019.759
247.7754, 859.2073
248.2575, 732.7852
248.7396, 634.6113
249.2217, 561.4017
249.7039, 509.5607
250.1860, 469.6925
250.6681, 439.6322
251.1502, 418.1119
251.6323, 400.1659
252.1144, 386.2736
252.5966, 375.4122
253.0787, 367.4009
253.5608, 361.5235
254.0429, 356.0643
254.5250, 349.4476
255.0071, 342.4932
255.4893, 338.5692
255.9714, 339.1032
256.4535, 340.6162
256.9356, 341.7439
257.4177, 342.5850
257.8998, 343.2748
258.3820, 343.7911
258.8641, 344.2486
259.3462, 345.0076
259.8283, 345.8964
260.3104, 347.4533
260.7925, 349.9793
261.2747, 353.1197
261.7568, 356.3550
262.2389, 359.3874
262.7210, 362.4619
263.2031, 366.3801
263.6852, 371.5391
264.1674, 376.9423
264.6495, 382.1994
265.1316, 387.5759
265.6137, 393.2816
266.0958, 399.3903
266.5779, 405.9486
267.0601, 412.9581
267.5422, 419.8587
268.0243, 428.3751
268.5064, 438.8486
268.9885, 450.6734
269.4706, 463.3499
269.9528, 476.6956
270.4349, 490.6954
270.9170, 505.3076
271.3991, 520.2054
271.8812, 536.3278
272.3633, 552.7845
272.8455, 570.7799
273.3276, 591.3020
273.8097, 614.5664
274.2918, 639.7774
274.7739, 665.9088
275.2560, 693.5966
275.7382, 720.9256
276.2202, 745.9767
276.7024, 772.1743
277.1845, 800.8663
277.6666, 832.7875
278.1487, 868.8346
278.6308, 910.3180
279.1129, 957.9382
279.5951, 1008.722
280.0772, 1057.933
280.5593, 1113.621
281.0414, 1177.869
281.5235, 1252.127
282.0056, 1338.073
282.4878, 1436.084
282.9699, 1545.194
283.4520, 1680.617
283.9341, 1831.604
284.4162, 2014.637
284.8983, 2225.592
285.3805, 2473.234
285.8626, 2771.470
286.3447, 3127.555
286.8268, 3540.772
287.3089, 4072.489
287.7910, 4698.948
288.2732, 5453.754
288.7553, 6370.675
289.2374, 7421.706
289.7195, 8583.252
290.2016, 9860.799
290.6837, 11195.41
291.1659, 12279.14
291.6480, 13270.03
292.1301, 13821.48
292.6122, 13784.85
293.0943, 13293.29
293.5764, 12460.23
294.0586, 11322.66
294.5407, 10013.89
295.0228, 8890.034
295.5049, 7969.374
295.9870, 7231.274
296.4691, 6743.993
296.9513, 6409.962
297.4334, 6156.409
297.9155, 5956.117
298.3976, 5765.086
298.8797, 5510.703
299.3618, 5166.436
299.8440, 4796.070
300.3261, 4373.246
300.8082, 3944.169
301.2903, 3532.729
301.7724, 3149.041
302.2545, 2800.269
302.7367, 2493.371
303.2188, 2235.328
303.7009, 2009.785
304.1830, 1819.802
304.6651, 1654.995
305.1472, 1512.187
305.6294, 1389.266
306.1115, 1282.118
306.5936, 1188.229
307.0757, 1107.867
307.5578, 1034.968
308.0399, 969.7682
308.5221, 910.0815
309.0042, 855.6578
309.4863, 806.0410
309.9684, 761.4214
310.4505, 722.3015
310.9326, 688.1146
311.4148, 656.4278
311.8969, 626.3818
312.3790, 599.1748
312.8611, 575.8808
313.3432, 555.5315
313.8253, 536.4495
314.3075, 517.9748
314.7896, 500.3022
315.2717, 483.8899
315.7538, 469.6828
316.2359, 455.3179
316.7180, 439.2799
317.2001, 423.5773
317.6823, 410.7147
318.1644, 401.3153
318.6465, 393.8096
319.1286, 385.8875
319.6107, 377.4434
320.0928, 368.8551
320.5750, 359.2142
321.0571, 350.0116
321.5392, 342.6220
322.0213, 337.0851
322.5034, 332.1134
322.9855, 326.4474
323.4677, 319.8537
323.9498, 314.0438
324.4319, 309.2409
324.9140, 304.8601
325.3961, 300.7679
325.8782, 296.8654
326.3604, 292.8869
326.8425, 288.6021
327.3246, 284.0839
327.8067, 280.0760
328.2888, 276.7633
328.7709, 273.6692
329.2531, 270.6950
329.7352, 267.8719
330.2173, 265.3126
330.6994, 263.0843
331.1815, 261.0468
331.6636, 258.7982
332.1458, 256.1224
332.6279, 253.4960
333.1100, 250.7470
333.5921, 248.1594
334.0742, 246.0504
334.5563, 244.5092
335.0385, 243.2842
335.5206, 242.0040
336.0027, 240.4625
336.4848, 239.4487
336.9669, 239.2632
337.4490, 239.2959
337.9312, 239.1370
338.4133, 238.7797
338.8954, 238.5241
339.3775, 238.7314
339.8596, 239.5099
340.3417, 239.3555
340.8239, 237.3690
341.3060, 235.5164
341.7881, 234.5111
342.2702, 234.1692
342.7523, 234.0728
343.2344, 233.9918
343.7166, 233.8801
344.1987, 233.5129
344.6808, 232.3455
345.1629, 231.5458
345.6450, 231.0925
346.1271, 231.1174
346.6093, 232.0246
347.0914, 233.9018
347.5735, 236.0476
348.0556, 237.0424
348.5377, 235.9639
349.0198, 235.3765
349.5020, 235.4212
349.9841, 235.7802
350.4662, 236.3963
350.9483, 237.1692
351.4304, 237.8370
351.9125, 238.0487
352.3947, 237.6731
352.8768, 237.7240
353.3589, 238.5178
353.8410, 239.4168
354.3231, 240.3151
354.8052, 241.1423
355.2874, 241.7607
355.7695, 242.0088
356.2516, 242.0331
356.7337, 242.7260
357.2158, 244.8572
357.6979, 246.6214
358.1800, 247.3786
358.6621, 247.7617
359.1443, 248.4252
359.6264, 249.6258
360.1085, 251.2244
360.5906, 252.9870
361.0727, 254.8938
361.5548, 257.0393
362.0370, 259.5788
362.5191, 262.2264
363.0012, 264.8240
363.4833, 267.3667
363.9654, 269.8826
364.4475, 272.4591
364.9297, 275.1143
365.4118, 277.4969
365.8939, 279.1906
366.3760, 281.0676
366.8581, 283.3622
367.3402, 286.0868
367.8224, 289.2802
368.3045, 293.0858
368.7866, 297.2484
369.2687, 300.9743
369.7508, 303.9992
370.2329, 307.1571
370.7151, 311.3023
371.1972, 315.4497
371.6793, 318.4068
372.1614, 319.6714
372.6435, 320.7366
373.1256, 323.5595
373.6078, 328.2607
374.0899, 332.8598
374.5720, 336.4726
375.0541, 340.3306
375.5362, 345.6694
376.0183, 352.3481
376.5005, 358.6913
376.9826, 363.4327
377.4647, 366.9463
377.9468, 370.4704
378.4289, 373.7233
378.9110, 377.7901
379.3932, 383.7509
379.8753, 390.9748
380.3574, 398.3861
380.8395, 405.6068
381.3216, 412.9215
381.8037, 420.7374
382.2859, 429.0811
382.7680, 437.3274
383.2501, 445.1113
383.7322, 452.7009
384.2143, 460.5517
384.6964, 468.6180
385.1786, 477.0012
385.6607, 485.3820
386.1428, 494.0450
386.6249, 503.9458
387.1070, 515.4478
387.5891, 527.7213
388.0713, 539.8459
388.5534, 551.8376
389.0355, 564.5426
389.5176, 577.8719
389.9997, 592.1594
390.4818, 607.5941
390.9640, 624.2742
391.4461, 642.3196
391.9282, 661.6466
392.4103, 682.5702
392.8924, 706.0234
393.3745, 732.1298
393.8567, 760.3805
394.3388, 789.8876
394.8209, 821.4506
395.3030, 856.1813
395.7851, 894.8355
396.2672, 936.8478
396.7494, 981.5027
397.2315, 1027.014
397.7136, 1079.933
398.1957, 1141.151
398.6778, 1209.952
399.1599, 1285.759
399.6420, 1368.588
400.1241, 1458.380
400.6063, 1553.873
401.0884, 1655.074
401.5705, 1776.135
402.0526, 1916.201
402.5347, 2073.748
403.0168, 2245.260
403.4990, 2434.927
403.9811, 2647.641
404.4632, 2884.800
404.9453, 3147.260
405.4274, 3437.457
405.9095, 3761.719
406.3917, 4103.308
406.8738, 4471.024
407.3559, 4845.475
407.8380, 5229.195
408.3201, 5612.983
408.8022, 5969.874
409.2844, 6284.189
409.7665, 6557.029
410.2486, 6743.094
410.7307, 6838.861
411.2128, 6839.216
411.6949, 6727.894
412.1771, 6524.151
412.6592, 6250.896
413.1413, 5913.947
413.6234, 5532.246
414.1055, 5141.213
414.5876, 4731.429
415.0698, 4335.534
415.5519, 3954.066
416.0340, 3595.785
416.5161, 3269.128
416.9982, 2973.270
417.4803, 2706.680
417.9625, 2467.515
418.4446, 2255.857
418.9267, 2066.059
419.4088, 1901.004
419.8909, 1754.834
420.3730, 1627.816
420.8552, 1515.880
421.3373, 1413.599
421.8194, 1320.281
422.3015, 1234.671
422.7836, 1155.447
423.2657, 1082.779
423.7479, 1017.149
424.2300, 959.5109
424.7121, 909.0613
425.1942, 863.0692
425.6763, 821.6705
426.1584, 784.1310
426.6406, 751.3112
427.1227, 721.7591
427.6048, 693.1235
428.0869, 664.7444
428.5690, 638.1387
429.0511, 614.8544
429.5333, 595.0873
430.0154, 576.8278
430.4975, 560.6591
430.9796, 545.4077
431.4617, 530.4620
431.9438, 515.9742
432.4260, 502.2947
432.9081, 489.6791
433.3902, 477.9441
433.8723, 466.7331
434.3544, 456.2304
434.8365, 446.0270
435.3187, 435.9541
435.8008, 426.2699
436.2829, 417.2250
436.7650, 408.8495
437.2471, 401.0557
437.7292, 393.7761
438.2114, 386.9825
438.6935, 380.7641
439.1756, 375.3871
439.6577, 370.2909
440.1398, 365.4979
440.6219, 360.8832
441.1040, 356.4080
441.5862, 352.0718
442.0683, 347.6814
442.5504, 342.7467
443.0325, 336.7401
443.5146, 331.7839
443.9967, 328.6440
444.4789, 326.1283
444.9610, 324.0683
445.4431, 322.2050
445.9252, 319.8377
446.4073, 315.9936
446.8894, 311.3347
447.3716, 308.6855
447.8537, 308.9328
448.3358, 308.9772
448.8179, 306.9464
449.3000, 304.2052
449.7821, 302.2235
450.2643, 301.3873
450.7464, 300.9043
451.2285, 300.2644
451.7106, 299.4397
452.1927, 298.1385
452.6748, 295.9432
453.1570, 294.0159
453.6391, 294.0160
454.1212, 295.4940
454.6033, 296.4181
455.0854, 296.2215
455.5675, 295.3482
456.0497, 293.6785
456.5318, 291.4751
457.0139, 290.2112
457.4960, 290.8501
457.9781, 292.6531
458.4602, 293.6505
458.9424, 293.8120
459.4245, 293.4326
459.9066, 292.0363
460.3887, 290.4163
460.8708, 289.2855
461.3529, 288.7890
461.8351, 288.9138
462.3172, 289.8151
462.7993, 291.5486
463.2814, 292.0844
463.7635, 289.9829
464.2456, 288.4203
464.7278, 288.0994
465.2099, 288.8214
465.6920, 290.4289
466.1741, 292.8365
466.6562, 295.5720
467.1383, 297.7474
467.6205, 299.0051
468.1026, 300.8814
468.5847, 304.0700
469.0668, 307.3170
469.5489, 309.8389
470.0310, 311.9255
470.5132, 314.4013
470.9953, 317.7858
471.4774, 321.8885
471.9595, 326.3158
472.4416, 331.1694
472.9237, 335.9374
473.4059, 339.7638
473.8880, 343.8428
474.3701, 349.5349
474.8522, 357.0084
475.3343, 364.5881
475.8164, 370.8283
476.2986, 376.3623
476.7807, 382.7463
477.2628, 390.0959
477.7449, 398.4420
478.2270, 408.0287
478.7091, 418.7285
479.1913, 429.6676
479.6734, 440.6306
480.1555, 451.9927
480.6376, 463.4832
481.1197, 475.5562
481.6018, 489.4252
482.0839, 505.5448
482.5660, 522.7703
483.0482, 539.5700
483.5303, 555.5039
484.0124, 572.6076
484.4945, 591.0681
484.9766, 610.3873
485.4587, 630.0813
485.9409, 650.5092
486.4230, 672.3815
486.9051, 696.1693
487.3872, 721.8274
487.8693, 749.1875
488.3514, 780.2787
488.8336, 809.6551
489.3157, 835.1886
489.7978, 860.4776
490.2799, 887.5831
490.7620, 916.6937
491.2441, 946.9600
491.7263, 977.7661
492.2084, 1009.069
492.6905, 1041.177
493.1726, 1075.445
493.6547, 1107.076
494.1368, 1134.081
494.6190, 1157.222
495.1011, 1177.337
495.5832, 1194.778
496.0653, 1207.396
496.5474, 1213.593
497.0295, 1213.581
497.5117, 1207.672
497.9938, 1195.651
498.4759, 1178.741
498.9580, 1157.669
499.4401, 1132.048
499.9222, 1101.385
500.4044, 1062.558
500.8865, 1021.806
501.3686, 981.3821
501.8507, 941.2914
502.3328, 900.7773
502.8149, 859.6936
503.2971, 818.5477
503.7792, 778.0626
504.2613, 737.6135
504.7434, 699.2060
505.2255, 662.8488
505.7076, 628.3012
506.1898, 594.9244
506.6719, 563.2694
507.1540, 534.9156
507.6361, 510.7183
508.1182, 489.5547
508.6003, 469.1209
509.0825, 449.4268
509.5646, 430.3744
510.0467, 411.3275
510.5288, 393.5103
511.0109, 377.5254
511.4930, 363.3390
511.9752, 350.6526
512.4573, 339.5878
512.9394, 329.6942
513.4215, 319.6915
513.9036, 309.3171
514.3857, 300.3144
514.8679, 293.9719
515.3500, 288.8936
515.8321, 283.1812
516.3142, 276.6909
516.7963, 270.5704
517.2784, 265.3691
517.7606, 260.7754
518.2427, 256.4321
518.7248, 252.2890
519.2069, 248.1438
519.6890, 243.7243
520.1711, 239.2308
520.6533, 235.8583
521.1354, 234.3992
521.6175, 232.7884
522.0996, 230.5547
522.5817, 228.0971
523.0638, 225.8436
523.5460, 223.8568
524.0281, 221.8290
524.5102, 219.3415
524.9923, 216.4460
525.4744, 214.8740
525.9565, 215.7001
526.4387, 216.5293
526.9208, 217.0792
527.4029, 217.2878
527.8850, 216.9087
528.3671, 215.9301
528.8492, 215.0621
529.3314, 215.1507
529.8135, 216.0965
530.2956, 217.0755
530.7777, 218.4446
531.2598, 219.0006
531.7419, 217.2283
532.2241, 214.3125
532.7062, 212.0150
533.1883, 210.4688
533.6704, 209.9778
534.1525, 211.5164
534.6346, 214.1876
535.1168, 215.8382
535.5989, 215.9445
536.0810, 215.3591
536.5631, 214.7472
537.0452, 214.1019
537.5273, 214.2558
538.0095, 215.7294
538.4916, 217.3424
538.9737, 218.6687
539.4558, 219.8619
539.9379, 221.1742
540.4200, 222.6868
540.9022, 224.3463
541.3843, 226.1950
541.8664, 228.4346
542.3485, 229.7076
542.8306, 228.5772
543.3127, 228.0253
543.7948, 229.4646
544.2769, 231.9402
544.7590, 233.8945
545.2411, 234.7001
545.7233, 235.2900
546.2054, 236.9846
546.6875, 239.6885
547.1696, 241.8140
547.6517, 242.8535
548.1339, 243.7773
548.6160, 245.5266
549.0981, 247.8209
549.5802, 249.9079
550.0623, 251.1751
550.5444, 252.6894
551.0266, 255.3654
551.5087, 258.7943
551.9908, 262.0820
552.4729, 264.9617
552.9550, 267.5868
553.4371, 270.0968
553.9193, 272.4389
554.4014, 275.0693
554.8835, 278.5590
555.3656, 281.6674
555.8477, 283.9368
556.3298, 285.5627
556.8120, 286.7076
557.2941, 287.4670
557.7762, 288.1553
558.2583, 289.2570
558.7404, 290.8202
559.2225, 292.3394
559.7047, 293.7453
560.1868, 295.1632
560.6689, 297.0272
561.1510, 298.8548
561.6331, 299.7373
562.1152, 299.1510
562.5974, 298.2558
563.0795, 298.0643
563.5616, 298.4477
564.0437, 298.9213
564.5258, 299.3675
565.0079, 300.0067
565.4901, 301.0571
565.9722, 302.5273
566.4543, 304.1257
566.9364, 305.8222
567.4185, 307.6799
567.9006, 309.7437
568.3828, 311.9756
568.8649, 314.4122
569.3470, 317.0190
569.8291, 319.5727
570.3112, 321.6439
570.7933, 323.1497
571.2755, 325.8712
571.7576, 331.2604
572.2397, 336.0697
572.7218, 339.2893
573.2039, 341.6754
573.6860, 344.1061
574.1682, 346.8071
574.6503, 349.3486
575.1324, 351.1627
575.6145, 352.4413
576.0966, 354.0448
576.5787, 356.0515
577.0609, 358.2774
577.5430, 360.6947
578.0251, 363.2155
578.5072, 365.5450
578.9893, 367.3666
579.4714, 369.6989
579.9536, 373.1945
580.4357, 377.2740
580.9178, 381.4421
581.3999, 385.5337
581.8820, 389.2368
582.3641, 392.2269
582.8463, 394.6972
583.3284, 397.8014
583.8105, 401.9805
584.2926, 406.2131
584.7747, 409.8446
585.2568, 413.9479
585.7390, 419.3951
586.2211, 426.1624
586.7032, 433.6591
587.1853, 441.5649
587.6674, 449.8304
588.1495, 458.1999
588.6317, 466.6552
589.1138, 475.3874
589.5959, 484.2453
590.0780, 493.7081
590.5601, 503.8469
591.0422, 514.6671
591.5244, 527.2543
592.0065, 542.1990
592.4886, 558.8093
592.9707, 576.5699
593.4528, 595.3104
593.9349, 614.7344
594.4171, 634.6209
594.8992, 655.2064
595.3813, 676.8714
595.8634, 699.0421
596.3455, 724.3113
596.8276, 752.3826
597.3098, 783.3318
597.7919, 817.2049
598.2740, 854.0856
598.7561, 893.8608
599.2382, 936.5067
599.7203, 983.0807
600.2025, 1034.836
600.6846, 1091.983
601.1667, 1155.591
601.6488, 1226.476
602.1309, 1301.911
602.6130, 1377.375
603.0952, 1456.477
603.5773, 1545.603
604.0594, 1646.001
604.5415, 1756.405
605.0236, 1878.925
605.5057, 2010.660
605.9879, 2146.833
606.4700, 2286.387
606.9521, 2431.649
607.4342, 2585.003
607.9163, 2744.458
608.3984, 2897.766
608.8806, 3051.046
609.3627, 3187.674
609.8448, 3312.026
610.3269, 3415.463
610.8090, 3495.452
611.2911, 3548.935
611.7733, 3568.232
612.2554, 3545.714
612.7375, 3487.447
613.2196, 3405.825
613.7017, 3299.949
614.1838, 3173.336
614.6660, 3019.871
615.1481, 2853.668
615.6302, 2687.368
616.1123, 2520.826
616.5944, 2358.086
617.0765, 2197.034
617.5587, 2042.982
618.0408, 1898.037
618.5229, 1763.211
619.0050, 1640.156
619.4871, 1529.389
619.9692, 1428.855
620.4514, 1336.223
620.9335, 1251.325
621.4156, 1172.893
621.8977, 1102.384
622.3798, 1037.047
622.8619, 976.4533
623.3441, 920.6951
623.8262, 870.9876
624.3083, 827.6992
624.7904, 787.8356
625.2725, 748.8635
625.7546, 711.5831
626.2367, 678.8287
626.7188, 650.8961
627.2009, 625.1337
627.6830, 600.1270
628.1652, 576.3074
628.6473, 554.5450
629.1294, 535.0776
629.6115, 516.5712
630.0936, 498.5014
630.5757, 481.5371
631.0579, 466.2606
631.5400, 452.4292
632.0221, 439.3233
632.5042, 426.6461
632.9863, 414.3896
633.4684, 402.5479
633.9506, 390.9953
634.4327, 380.2184
634.9148, 370.2401
635.3969, 361.1758
635.8790, 353.3784
636.3611, 346.3678
636.8433, 339.3398
637.3254, 332.1495
637.8075, 324.8320
638.2896, 316.9207
638.7717, 309.0958
639.2538, 302.9463
639.7360, 298.6537
640.2181, 294.2093
640.7002, 288.0332
641.1823, 280.7455
641.6644, 274.8132
642.1465, 271.3582
642.6287, 267.8140
643.1108, 263.9883
643.5929, 260.2162
644.0750, 256.7552
644.5571, 253.5386
645.0392, 250.2376
645.5214, 246.6066
646.0035, 243.0751
646.4856, 240.4874
646.9677, 238.8395
647.4498, 237.1781
647.9319, 235.2696
648.4141, 233.4869
648.8962, 232.5286
649.3783, 231.9941
649.8604, 230.3726
650.3425, 226.6458
650.8246, 223.0407
651.3068, 220.3584
651.7889, 218.3231
652.2710, 216.7044
652.7531, 215.4179
653.2352, 214.4182
653.7173, 213.7462
654.1995, 213.2077
654.6816, 211.8575
655.1637, 209.1162
655.6458, 206.9607
656.1279, 206.0103
656.6100, 205.4931
657.0922, 205.2806
657.5743, 205.1726
658.0564, 204.6190
658.5385, 203.3206
659.0206, 201.6179
659.5027, 199.5427
659.9849, 197.3307
660.4670, 195.7606
660.9491, 195.0351
661.4312, 194.3534
661.9133, 192.9263
662.3954, 190.8301
662.8776, 189.1887
663.3597, 188.1476
663.8418, 187.3900
664.3239, 187.4266
664.8060, 187.3298
665.2881, 186.0026
665.7703, 183.7286
666.2524, 181.9455
666.7345, 181.7231
667.2166, 182.2547
667.6987, 182.0806
668.1808, 181.2154
668.6630, 180.1448
669.1451, 178.8766
669.6272, 177.6960
670.1093, 176.9761
670.5914, 176.6641
671.0735, 176.1060
671.5557, 174.7795
672.0378, 173.8307
672.5199, 174.0015
673.0020, 174.5261
673.4841, 174.6638
673.9662, 174.2639
674.4484, 173.3929
674.9305, 171.9944
675.4126, 170.3258
675.8947, 169.2966
676.3768, 169.0652
676.8589, 168.7850
677.3411, 168.3303
677.8232, 167.7235
678.3053, 167.0628
678.7874, 166.2935
679.2695, 165.1834
679.7516, 163.2312
680.2338, 161.4943
680.7159, 160.6807
681.1980, 160.4535
681.6801, 160.3986
682.1622, 160.3878
682.6443, 160.2316
683.1265, 159.7563
683.6086, 159.0280
684.0907, 158.4084
684.5728, 158.1517
685.0549, 157.4459
685.5370, 155.5476
686.0192, 153.7371
686.5013, 152.7950
686.9834, 152.5565
687.4655, 152.5022
687.9476, 152.7304
688.4297, 152.5534
688.9119, 150.7945
689.3940, 148.2605
689.8761, 147.0503
690.3582, 147.4967
690.8403, 148.0651
691.3224, 147.5812
691.8046, 146.2341
692.2867, 144.8767
692.7688, 143.0772
693.2509, 141.9958
693.7330, 142.2959
694.2151, 142.7114
694.6973, 142.5432
695.1794, 141.8669
695.6615, 140.9377
696.1436, 139.7333
696.6257, 138.7741
697.1078, 138.8969
697.5900, 139.7569
698.0721, 140.1799
698.5542, 139.9984
699.0363, 139.3670
699.5184, 138.2640
700.0005, 136.8764
700.4827, 135.8860
700.9648, 135.8003
701.4469, 135.2836
701.9290, 133.6417
702.4111, 132.2014
702.8932, 132.1558
703.3754, 132.8513
703.8575, 132.7715
704.3396, 131.2495
704.8217, 129.4127
705.3038, 128.7209
705.7859, 128.9288
706.2681, 128.8958
706.7502, 128.5419
707.2323, 127.8352
707.7144, 126.5832
708.1965, 125.1057
708.6786, 124.1566
709.1607, 123.8852
709.6428, 123.6677
710.1249, 123.4384
710.6071, 123.2755
711.0892, 123.3524
711.5713, 123.4871
712.0534, 123.3925
712.5355, 122.9692
713.0176, 122.3119
713.4998, 121.3626
713.9819, 120.2335
714.4640, 119.5982
714.9461, 119.5583
715.4282, 119.3976
715.9103, 118.6784
716.3925, 117.8399
716.8746, 117.6205
717.3567, 118.0912
717.8388, 118.4569
718.3209, 118.7013
718.8030, 118.7723
719.2852, 118.1653
719.7673, 117.5863
720.2494, 118.4150
720.7315, 120.7001
721.2136, 122.5397
721.6957, 121.9108
722.1779, 119.5830
722.6600, 118.3818
723.1421, 118.4340
723.6242, 118.4230
724.1063, 117.9076
724.5884, 117.3027
725.0706, 116.9020
725.5527, 116.7377
726.0348, 117.2582
726.5169, 119.6441
726.9990, 121.2976
727.4811, 120.7205
727.9633, 119.3748
728.4454, 118.8239
728.9275, 119.1626
729.4096, 119.5600
729.8917, 119.4325
730.3738, 119.0610
730.8560, 118.9167
731.3381, 118.9893
731.8202, 119.9855
732.3023, 122.7272
732.7844, 124.6381
733.2665, 123.0749
733.7487, 119.1801
734.2308, 117.4015
734.7129, 118.9408
735.1950, 120.3129
735.6771, 120.7730
736.1592, 120.8499
736.6414, 120.6794
737.1235, 120.5108
737.6056, 120.9079
738.0877, 122.1456
738.5698, 123.4983
739.0519, 123.8065
739.5341, 123.2186
740.0162, 123.0945
740.4983, 123.5426
740.9804, 124.2974
741.4625, 125.4648
741.9446, 126.6561
742.4268, 126.9420
742.9089, 125.9758
743.3910, 125.9500
743.8731, 128.1259
744.3552, 130.1055
744.8373, 130.6640
745.3195, 130.3371
745.8016, 129.6864
746.2837, 128.9838
746.7658, 128.7735
747.2479, 129.9177
747.7300, 131.7191
748.2122, 132.0283
748.6943, 130.8178
749.1764, 130.0576
749.6585, 130.4461
750.1406, 131.0499
750.6227, 130.7077
751.1049, 129.4880
751.5870, 129.5673
752.0691, 132.4279
752.5512, 134.4766
753.0333, 134.3787
753.5154, 133.7762
753.9976, 134.1164
754.4797, 135.2347
754.9618, 136.0633
755.4439, 135.9867
755.9260, 135.6576
756.4081, 136.2072
756.8903, 137.2821
757.3724, 137.2285
757.8545, 135.7856
758.3366, 134.2515
758.8187, 133.3250
759.3008, 132.9821
759.7830, 133.2251
760.2651, 134.6134
760.7472, 135.2552
761.2293, 134.9245
761.7114, 134.1575
762.1935, 132.7615
762.6757, 131.2515
763.1578, 130.2761
763.6399, 129.9814
764.1220, 130.0093
764.6041, 130.1506
765.0862, 130.4327
765.5684, 130.9300
766.0505, 131.6176
766.5326, 132.4301
767.0147, 133.3642
767.4968, 134.1720
767.9789, 134.6355
768.4611, 134.7378
768.9432, 133.9615
769.4253, 131.2084
769.9074, 129.4609
770.3895, 129.7507
770.8716, 130.6313
771.3538, 131.4917
771.8359, 132.1499
772.3180, 132.1980
772.8001, 131.1470
773.2822, 130.1977
773.7643, 130.2404
774.2465, 130.8581
774.7286, 131.6660
775.2107, 132.4861
775.6928, 132.7903
776.1749, 132.2450
776.6570, 131.3954
777.1392, 131.3607
777.6213, 132.2860
778.1034, 132.9981
778.5855, 133.5290
779.0676, 133.7617
779.5497, 133.4807
780.0319, 132.9624
780.5140, 132.4519
780.9961, 131.9244
781.4782, 131.8620
781.9603, 132.8667
782.4424, 133.8471
782.9246, 134.1120
783.4067, 133.9778
783.8888, 133.9811
784.3709, 134.1844
784.8530, 134.1250
785.3351, 133.2144
785.8173, 132.1335
786.2994, 132.9206
786.7815, 135.5774
787.2636, 137.5230
787.7457, 138.2339
788.2278, 138.2790
788.7100, 137.5952
789.1921, 136.6865
789.6742, 137.6812
790.1563, 142.5235
790.6384, 145.6158
791.1205, 145.6165
791.6026, 144.8520
792.0847, 144.1090
792.5668, 143.6871
793.0490, 143.8899
793.5311, 144.8042
794.0132, 146.1607
794.4953, 148.2455
794.9774, 150.3846
795.4595, 151.1832
795.9417, 150.8206
796.4238, 150.3403
796.9059, 150.0528
797.3880, 150.2305
797.8701, 151.2649
798.3522, 153.0869
798.8344, 154.4911
799.3165, 155.3754
799.7986, 156.0410
800.2807, 156.1843
800.7628, 156.4312
801.2449, 157.0781
801.7271, 158.1287
802.2092, 159.6120
802.6913, 161.7660
803.1734, 163.7625
803.6555, 164.8612
804.1376, 165.7978
804.6198, 167.6300
805.1019, 170.0170
805.5840, 171.8447
806.0661, 172.6207
806.5482, 172.7626
807.0303, 172.5829
807.5125, 172.1813
807.9946, 172.5107
808.4767, 173.6046
808.9588, 175.4061
809.4409, 178.4432
809.9230, 181.2686
810.4052, 181.9156
810.8873, 180.3829
811.3694, 180.0110
811.8515, 182.0141
812.3336, 183.5071
812.8157, 183.3327
813.2979, 182.9232
813.7800, 183.6501
814.2621, 185.1319
814.7442, 185.9389
815.2263, 185.3150
815.7084, 184.6831
816.1906, 185.9300
816.6727, 187.9945
817.1548, 188.5926
817.6369, 187.7166
818.1190, 186.5040
818.6011, 185.4190
819.0833, 184.6573
819.5654, 184.6877
820.0475, 185.5827
820.5296, 184.9480
821.0117, 181.5633
821.4938, 179.1433
821.9760, 179.2345
822.4581, 180.1579
822.9402, 180.8653
823.4223, 181.2602
823.9044, 180.9824
824.3865, 179.8965
824.8687, 178.2332
825.3508, 175.4951
825.8329, 172.6586
826.3150, 170.6206
826.7971, 169.3555
827.2792, 168.5921
827.7614, 168.2143
828.2435, 167.8635
828.7256, 167.0810
829.2077, 165.9568
829.6898, 164.6527
830.1719, 163.1841
830.6541, 162.4711
831.1362, 163.0459
831.6183, 163.8067
832.1004, 163.4185
832.5825, 161.9016
833.0646, 160.4527
833.5468, 158.8383
834.0289, 157.6858
834.5110, 157.5440
834.9931, 157.4210
835.4752, 156.7131
835.9573, 155.5199
836.4395, 154.1039
836.9216, 152.3853
837.4037, 150.9465
837.8858, 150.2095
838.3679, 149.8099
838.8500, 149.2987
839.3322, 148.8029
839.8143, 148.8757
840.2964, 149.6462
840.7785, 150.3129
841.2606, 149.9552
841.7427, 148.7883
842.2249, 147.5461
842.7070, 146.2181
843.1891, 145.1957
843.6712, 144.5896
844.1533, 144.2985
844.6354, 144.3242
845.1176, 144.5802
845.5997, 144.6403
846.0818, 144.2512
846.5639, 144.0692
847.0460, 144.9042
847.5281, 145.0690
848.0103, 143.0468
848.4924, 140.1640
848.9745, 138.3688
849.4566, 138.0439
849.9387, 138.3035
850.4208, 139.2438
850.9030, 140.0633
851.3851, 139.9189
851.8672, 139.1527
852.3493, 138.3165
852.8314, 137.5926
853.3135, 137.1122
853.7957, 136.9922
854.2778, 137.1493
854.7599, 137.4999
855.2420, 138.0351
855.7241, 138.1953
856.2062, 137.8232
856.6884, 137.5740
857.1705, 137.8636
857.6526, 138.4129
858.1347, 138.7835
858.6168, 139.0945
859.0989, 138.6597
859.5811, 136.4272
860.0632, 134.8262
860.5453, 134.7595
861.0274, 135.2817
861.5095, 135.7455
861.9916, 136.0253
862.4738, 135.9880
862.9559, 135.5455
863.4380, 134.8587
863.9201, 133.6329
864.4022, 132.4861
864.8843, 132.4333
865.3665, 133.1747
865.8486, 133.4742
866.3307, 132.8292
866.8128, 132.1758
867.2949, 132.9689
867.7770, 134.7269
868.2592, 135.1832
868.7413, 134.3172
869.2234, 133.4301
869.7055, 132.7980
870.1876, 132.6412
870.6697, 133.3670
871.1519, 134.6908
871.6340, 134.9297
872.1161, 132.9820
872.5981, 132.0647
873.0803, 133.2243
873.5624, 134.4625
874.0445, 134.7802
874.5266, 134.7502
875.0087, 135.3633
875.4908, 136.7926
875.9730, 137.7743
876.4551, 137.7070
876.9372, 137.2433
877.4193, 136.4421
877.9014, 135.6773
878.3835, 135.5729
878.8657, 136.0417
879.3478, 136.3530
879.8299, 136.0543
880.3120, 135.4804
880.7941, 134.7683
881.2762, 134.1887
881.7584, 135.0525
882.2405, 137.2801
882.7226, 138.5306
883.2047, 137.6677
883.6868, 136.1574
884.1689, 136.0818
884.6511, 137.3726
885.1332, 137.7748
885.6153, 136.9530
886.0974, 136.1562
886.5795, 135.6092
887.0616, 135.1706
887.5438, 134.5632
888.0259, 133.9880
888.5080, 134.1087
888.9901, 135.3856
889.4722, 136.2839
889.9543, 136.5446
890.4365, 136.4234
890.9186, 135.6360
891.4007, 134.7672
891.8828, 134.7493
892.3649, 135.5958
892.8470, 136.2159
893.3292, 135.9643
893.8113, 135.2641
894.2934, 134.3884
894.7755, 133.4061
895.2576, 132.2229
895.7397, 131.0110
896.2219, 130.5537
896.7040, 131.2836
897.1861, 132.4136
897.6682, 132.7190
898.1503, 132.3260
898.6324, 132.2932
899.1146, 132.6512
899.5967, 132.9368
900.0788, 132.9706
900.5609, 133.0634
901.0430, 133.6355
901.5251, 133.3586
902.0073, 133.0538
902.4894, 133.1058
902.9715, 132.1306
903.4536, 131.9339
903.9357, 131.9687
904.4178, 131.7393
904.9000, 131.7167
905.3821, 132.8530
905.8642, 135.3059
906.3463, 136.9488
906.8284, 137.1331
907.3105, 136.5596
907.7927, 134.8998
908.2748, 133.1034
908.7569, 132.1939
909.2390, 132.0682
909.7211, 131.9702
910.2032, 131.5449
910.6854, 131.2041
911.1675, 131.4305
911.6496, 131.9270
912.1317, 132.2672
912.6138, 132.4328
913.0959, 132.4069
913.5781, 132.2065
914.0602, 132.1012
914.5423, 132.4097
915.0244, 132.8923
915.5065, 132.7776
915.9886, 132.0605
916.4708, 131.2900
916.9529, 130.4775
917.4350, 129.8875
917.9171, 129.6542
918.3992, 129.7540
918.8813, 130.2314
919.3635, 131.2200
919.8456, 131.5384
920.3277, 130.3167
920.8098, 129.8575
921.2919, 131.2526
921.7740, 133.0298
922.2562, 134.6837
922.7383, 135.8786
923.2204, 135.5324
923.7025, 132.7456
924.1846, 130.4296
924.6667, 129.8011
925.1489, 129.3188
925.6310, 127.5905
926.1131, 125.6817
926.5952, 125.4988
927.0773, 127.0031
927.5594, 127.8388
928.0416, 126.1801
928.5237, 124.2188
929.0058, 123.9367
929.4879, 124.6645
929.9700, 125.7016
930.4521, 126.7285
930.9343, 126.9667
931.4164, 126.1188
931.8985, 125.1534
932.3806, 125.4945
932.8627, 126.5080
933.3448, 125.6958
933.8270, 123.3027
934.3091, 122.2651
934.7912, 123.2868
935.2733, 124.4306
935.7554, 124.2890
936.2375, 124.7442
936.7197, 124.8103
937.2018, 124.2526
937.6839, 124.4333
938.1660, 123.4419
938.6481, 122.8654
939.1302, 123.4351
939.6124, 124.3691
940.0945, 124.9811
940.5766, 125.2664
941.0587, 125.1813
941.5408, 124.2145
942.0229, 123.6696
942.5051, 123.8185
942.9872, 124.1669
943.4693, 124.5964
943.9514, 125.0152
944.4335, 125.3931
944.9156, 125.7094
945.3978, 125.6560
945.8799, 124.7441
946.3620, 123.9080
946.8441, 123.5310
947.3262, 123.5433
947.8083, 124.1601
948.2905, 125.0589
948.7726, 125.4167
949.2547, 124.9247
949.7368, 124.4422
950.2189, 124.7058
950.7010, 125.3783
951.1832, 126.1430
951.6653, 126.9163
952.1474, 127.5424
952.6295, 127.9870
953.1116, 128.2737
953.5938, 128.4196
954.0759, 128.4109
954.5580, 128.3330
955.0400, 128.0998
955.5222, 126.7665
956.0043, 124.3668
956.4864, 123.8916
956.9685, 126.5200
957.4506, 129.3596
957.9327, 129.5298
958.4149, 127.6547
958.8970, 126.2901
959.3791, 125.4428
959.8612, 125.1011
960.3433, 125.4298
960.8254, 125.8740
961.3076, 126.4549
961.7897, 126.6642
962.2718, 125.6021
962.7539, 123.2324
963.2360, 121.6451
963.7181, 121.4678
964.2003, 121.1142
964.6824, 119.9001
965.1645, 119.0485
965.6466, 119.4809
966.1287, 120.5962
966.6108, 121.4475
967.0930, 121.9676
967.5751, 122.0557
968.0572, 121.4626
968.5393, 120.7196
969.0214, 119.7471
969.5035, 118.9541
969.9857, 118.8993
970.4678, 119.3168
970.9499, 119.3847
971.4320, 118.7658
971.9141, 118.4364
972.3962, 119.6423
972.8784, 120.7306
973.3605, 119.8264
973.8426, 118.0155
974.3247, 117.1654
974.8068, 117.3466
975.2889, 117.2575
975.7711, 116.0995
976.2532, 114.9039
976.7353, 114.8706
977.2174, 115.5675
977.6995, 116.4674
978.1816, 117.3729
978.6638, 117.6878
979.1459, 117.2964
979.6280, 116.7116
980.1101, 116.3211
980.5922, 116.0886
981.0743, 116.0220
981.5565, 116.0721
982.0386, 115.8394
982.5207, 115.3122
983.0028, 115.1269
983.4849, 115.5733
983.9670, 115.9922
984.4492, 115.5987
984.9313, 114.6237
985.4134, 114.1464
985.8955, 114.2027
986.3776, 114.5827
986.8597, 115.4197
987.3419, 115.9868
987.8240, 115.8835
988.3061, 115.3964
988.7882, 114.7986
989.2703, 114.0964
989.7524, 114.3913
990.2346, 116.6889
990.7167, 117.6959
991.1988, 116.1631
991.6809, 114.4598
992.1630, 113.6896
992.6451, 113.7108
993.1273, 114.5325
993.6094, 116.3860
994.0915, 117.3341
994.5736, 116.4671
995.0557, 115.9318
995.5378, 116.5309
996.0200, 117.1948
996.5021, 116.5859
996.9842, 115.7052
997.4663, 117.1395
997.9484, 121.8175
998.4305, 124.2899
998.9127, 121.3057
999.3948, 118.2074
999.8769, 117.0854
1000.359, 117.0403
1000.841, 117.6491
1001.323, 118.4812
1001.805, 118.7072
1002.287, 118.0138
1002.770, 117.3002
1003.252, 116.8842
1003.734, 116.7665
1004.216, 117.1831
1004.698, 117.7513
1005.180, 117.8550
1005.662, 117.6097
1006.144, 117.7212
1006.627, 118.5458
1007.109, 119.3872
1007.591, 119.6044
1008.073, 119.5801
1008.555, 119.2609
1009.037, 119.2300
1009.519, 121.3057
1010.001, 125.0894
1010.483, 127.3067
1010.966, 125.8858
1011.448, 123.5657
1011.930, 123.8710
1012.412, 125.4379
1012.894, 125.3338
1013.376, 124.0752
1013.858, 123.8438
1014.340, 125.0280
1014.823, 126.2270
1015.305, 126.4437
1015.787, 126.2416
1016.269, 126.3951
1016.751, 126.9320
1017.233, 128.2467
1017.715, 130.1748
1018.197, 131.3548
1018.679, 131.4137
1019.162, 131.1633
1019.644, 131.2143
1020.126, 131.5823
1020.608, 132.2814
1021.090, 133.3171
1021.572, 135.0826
1022.054, 137.6357
1022.536, 139.1142
1023.018, 138.7975
1023.501, 138.3357
1023.983, 139.1797
1024.465, 141.0685
1024.947, 143.3699
1025.429, 146.1716
1025.911, 148.2409
1026.393, 149.5191
1026.875, 150.0297
1027.358, 149.4938
1027.840, 149.0860
1028.322, 149.9023
1028.804, 151.8201
1029.286, 154.4488
1029.768, 158.1403
1030.250, 161.1552
1030.732, 163.5338
1031.214, 164.9610
1031.697, 164.9742
1032.179, 164.5880
1032.661, 164.7213
1033.143, 165.3527
1033.625, 166.4260
1034.107, 168.2765
1034.589, 169.7327
1035.071, 170.7039
1035.553, 171.4254
1036.036, 171.8732
1036.518, 172.1974
1037.000, 172.2599
1037.482, 172.2790
1037.964, 173.6239
1038.446, 177.6859
1038.928, 180.3122
1039.410, 180.7752
1039.893, 180.7732
1040.375, 180.7431
1040.857, 180.5916
1041.339, 179.7926
1041.821, 178.6709
1042.303, 179.0966
1042.785, 182.5547
1043.267, 184.7246
1043.750, 184.3480
1044.232, 184.0073
1044.714, 184.5681
1045.196, 185.6007
1045.678, 186.9149
1046.160, 188.3483
1046.642, 189.2943
1047.124, 189.6551
1047.606, 189.6175
1048.089, 188.6416
1048.571, 187.9576
1049.053, 188.3883
1049.535, 189.0825
1050.017, 189.1006
1050.499, 188.6099
1050.981, 188.5167
1051.463, 189.2189
1051.945, 189.6320
1052.428, 189.3696
1052.910, 188.9667
1053.392, 188.4528
1053.874, 188.0824
1054.356, 187.9406
1054.838, 188.1559
1055.320, 189.1991
1055.802, 191.5445
1056.285, 193.3873
1056.767, 194.3017
1057.249, 194.4931
1057.731, 193.4909
1058.213, 192.2544
1058.695, 191.8389
1059.177, 192.0106
1059.659, 191.7489
1060.141, 190.6439
1060.624, 189.9428
1061.106, 190.1919
1061.588, 190.8093
1062.070, 191.8256
1062.552, 192.8044
1063.034, 193.5269
1063.516, 193.8176
1063.998, 193.2016
1064.480, 191.4154
1064.963, 189.9268
1065.445, 189.3907
1065.927, 189.2069
1066.409, 189.1094
1066.891, 189.1746
1067.373, 189.6109
1067.855, 190.2508
1068.337, 190.8469
1068.820, 191.3717
1069.302, 191.1768
1069.784, 189.0178
1070.266, 187.2740
1070.748, 187.5517
1071.230, 188.4942
1071.712, 189.2052
1072.194, 189.4400
1072.677, 188.7085
1073.159, 186.9500
1073.641, 185.9161
1074.123, 187.1327
1074.605, 188.2846
1075.087, 187.9523
1075.569, 187.2668
1076.051, 187.4726
1076.533, 187.9730
1077.016, 187.1531
1077.498, 184.9136
1077.980, 183.8198
1078.462, 186.2504
1078.944, 188.1673
1079.426, 186.6843
1079.908, 184.8191
1080.390, 185.1018
1080.872, 186.6520
1081.354, 188.1824
1081.837, 189.3130
1082.319, 189.4313
1082.801, 187.6817
1083.283, 186.1110
1083.765, 185.9689
1084.247, 186.0470
1084.729, 185.0823
1085.211, 184.0168
1085.694, 184.4085
1086.176, 186.1121
1086.658, 187.5123
1087.140, 188.0895
1087.622, 188.2784
1088.104, 187.6157
1088.586, 187.3512
1089.068, 189.0723
1089.551, 191.0642
1090.033, 191.0775
1090.515, 189.4783
1090.997, 188.1200
1091.479, 187.3421
1091.961, 187.5129
1092.443, 190.2838
1092.925, 192.1974
1093.407, 190.1632
1093.890, 187.4650
1094.372, 187.6591
1094.854, 189.8338
1095.336, 191.0679
1095.818, 190.6734
1096.300, 190.2683
1096.782, 190.4135
1097.264, 190.5780
1097.746, 190.4751
1098.229, 190.3837
1098.711, 190.6867
1099.193, 191.1020
1099.675, 190.9498
1100.157, 190.1383
1100.639, 189.8393
1101.121, 190.8963
1101.603, 191.7076
1102.086, 191.6460
1102.568, 191.4200
1103.050, 191.4601
1103.532, 191.6136
1104.014, 191.7061
1104.496, 191.6996
1104.978, 191.4070
1105.460, 190.2232
1105.943, 189.7209
1106.425, 190.1082
1106.907, 191.2630
1107.389, 194.3768
1107.871, 197.3031
1108.353, 197.4916
1108.835, 195.4121
1109.317, 193.5909
1109.799, 192.3280
1110.281, 191.0391
1110.764, 189.4964
1111.246, 188.1795
1111.728, 187.0800
1112.210, 186.3814
1112.692, 186.8309
1113.174, 187.6796
1113.656, 186.6894
1114.138, 183.0190
1114.621, 181.3666
1115.103, 183.1875
1115.585, 184.6661
1116.067, 185.2251
1116.549, 185.2691
1117.031, 184.8825
1117.513, 184.2351
1117.995, 183.5928
1118.478, 182.9606
1118.960, 182.2283
1119.442, 181.3380
1119.924, 180.4793
1120.406, 179.6042
1120.888, 178.9011
1121.370, 178.5141
1121.852, 178.2348
1122.334, 177.8360
1122.817, 177.3340
1123.299, 176.8249
1123.781, 176.3305
1124.263, 175.6721
1124.745, 174.7038
1125.227, 174.0456
1125.709, 173.8123
1126.191, 174.1981
1126.673, 175.4320
1127.156, 177.3033
1127.638, 179.8517
1128.120, 183.2239
1128.602, 181.6287
1129.084, 174.3553
1129.566, 169.6889
1130.048, 169.4856
1130.530, 170.3842
1131.013, 170.5832
1131.495, 170.0759
1131.977, 168.6148
1132.459, 168.4671
1132.941, 167.8823
1133.423, 166.9364
1133.905, 166.9647
1134.387, 165.9394
1134.870, 164.7642
1135.352, 163.7956
1135.834, 163.3882
1136.316, 164.0366
1136.798, 165.0466
1137.280, 164.7555
1137.762, 163.5921
1138.244, 162.9034
1138.726, 162.8073
1139.208, 163.6508
1139.691, 165.3663
1140.173, 166.8875
1140.655, 167.5607
1141.137, 167.7292
1141.619, 167.7280
1142.101, 167.5944
1142.583, 167.4002
1143.065, 167.1248
1143.548, 166.6180
1144.030, 165.9739
1144.512, 165.4967
1144.994, 165.3168
1145.476, 165.5885
1145.958, 166.9353
1146.440, 168.1452
1146.922, 167.6786
1147.405, 166.5969
1147.887, 166.1127
1148.369, 166.1572
1148.851, 166.2569
1149.333, 166.3807
1149.815, 167.1045
1150.297, 169.1692
1150.779, 170.5964
1151.261, 169.3967
1151.744, 168.0439
1152.226, 168.4351
1152.708, 169.6485
1153.190, 170.6634
1153.672, 171.3746
1154.154, 172.0106
1154.636, 172.1051
1155.118, 172.7771
1155.600, 171.5739
1156.083, 170.3737
1156.565, 169.3609
1157.047, 168.7639
1157.529, 168.8404
1158.011, 169.3709
1158.493, 170.1917
1158.975, 171.2729
1159.457, 171.7254
1159.940, 170.4527
1160.422, 170.2741
1160.904, 172.0125
1161.386, 173.8088
1161.868, 175.4467
1162.350, 176.3710
1162.832, 175.7480
1163.314, 174.1625
1163.796, 173.4312
1164.279, 173.6518
1164.761, 174.2150
1165.243, 175.1505
1165.725, 176.3923
1166.207, 178.1172
1166.689, 179.4713
1167.171, 179.8888
1167.653, 179.9012
1168.135, 180.2531
1168.618, 180.8920
1169.100, 181.4620
1169.582, 181.9678
1170.064, 183.1328
1170.546, 184.9879
1171.028, 185.8383
1171.510, 185.1227
1171.992, 185.0582
1172.474, 187.5377
1172.957, 191.1526
1173.439, 194.1841
1173.921, 196.1506
1174.403, 194.5321
1174.885, 190.7158
1175.367, 189.5901
1175.849, 191.4493
1176.331, 193.3137
1176.814, 193.8875
1177.296, 194.2865
1177.778, 195.3773
1178.260, 196.9629
1178.742, 199.2983
1179.224, 201.6287
1179.706, 203.1197
1180.188, 203.7066
1180.671, 203.0163
1181.153, 201.3520
1181.635, 200.3191
1182.117, 200.7234
1182.599, 201.4499
1183.081, 202.2726
1183.563, 202.7907
1184.045, 202.5689
1184.527, 202.0805
1185.010, 201.4106
1185.492, 200.9703
1185.974, 201.8813
1186.456, 204.4211
1186.938, 205.8011
1187.420, 204.6688
1187.902, 203.7217
1188.384, 203.0701
1188.866, 203.0834
1189.349, 204.3125
1189.831, 205.8827
1190.313, 206.8574
1190.795, 207.4137
1191.277, 208.3452
1191.759, 209.9508
1192.241, 210.5049
1192.723, 209.6842
1193.206, 208.9022
1193.688, 208.3940
1194.170, 208.1561
1194.652, 208.1660
1195.134, 208.5468
1195.616, 209.5352
1196.098, 210.9734
1196.580, 212.4720
1197.063, 213.8999
1197.545, 213.6001
1198.027, 211.6985
1198.509, 210.5698
1198.991, 210.8489
1199.473, 211.2423
1199.955, 210.8110
1200.437, 210.4871
1200.919, 211.9215
1201.401, 213.9857
1201.884, 214.6667
1202.366, 214.5007
1202.848, 214.7165
1203.330, 215.1328
1203.812, 214.5021
1204.294, 212.6044
1204.776, 211.1626
1205.258, 211.0490
1205.741, 211.9191
1206.223, 214.6407
1206.705, 217.0991
1207.187, 217.2100
1207.669, 216.4461
1208.151, 216.6884
1208.633, 217.7648
1209.115, 218.4624
1209.598, 218.4795
1210.080, 218.7132
1210.562, 219.9143
1211.044, 220.4339
1211.526, 219.2267
1212.008, 218.1652
1212.490, 218.1617
1212.972, 218.6731
1213.454, 219.0191
1213.937, 219.3372
1214.419, 220.4668
1214.901, 222.8387
1215.383, 223.5150
1215.865, 221.9755
1216.347, 222.1912
1216.829, 225.3139
1217.311, 227.8362
1217.793, 227.6235
1218.276, 229.1275
1218.758, 227.2237
1219.240, 228.7976
1219.722, 228.3190
1220.204, 226.6954
1220.686, 227.8624
1221.168, 231.0808
1221.650, 231.9060
1222.133, 229.7712
1222.615, 228.5567
1223.097, 230.5251
1223.579, 233.1870
1224.061, 234.3333
1224.543, 235.0462
1225.025, 236.5566
1225.507, 238.0739
1225.990, 238.4734
1226.472, 238.1764
1226.954, 238.0221
1227.436, 238.2139
1227.918, 238.9718
1228.400, 240.9060
1228.882, 242.2390
1229.364, 242.0527
1229.846, 241.8574
1230.328, 242.2613
1230.811, 242.8403
1231.293, 243.4419
1231.775, 243.1101
1232.257, 245.4182
1232.739, 246.3887
1233.221, 247.7982
1233.703, 250.6089
1234.185, 251.1159
1234.668, 254.0080
1235.150, 256.5207
1235.632, 257.7273
1236.114, 258.5808
1236.596, 259.8476
1237.078, 261.0753
1237.560, 261.2086
1238.042, 260.7685
1238.525, 261.5294
1239.007, 263.2131
1239.489, 265.2918
1239.971, 267.3970
1240.453, 268.2934
1240.935, 267.8676
1241.417, 268.2502
1241.899, 271.1306
1242.381, 273.9012
1242.864, 273.7700
1243.346, 273.4750
1243.828, 275.5632
1244.310, 278.5431
1244.792, 280.7144
1245.274, 282.2916
1245.756, 284.2433
1246.238, 286.6953
1246.720, 288.3866
1247.203, 288.1467
1247.685, 288.7525
1248.167, 291.3838
1248.649, 293.2850
1249.131, 292.7942
1249.613, 292.7379
1250.095, 295.6470
1250.577, 299.8506
1251.059, 301.9677
1251.542, 302.2328
1252.024, 303.4977
1252.506, 305.7607
1252.988, 307.9997
1253.470, 310.1284
1253.952, 312.5312
1254.434, 315.2769
1254.916, 317.6818
1255.399, 319.1844
1255.881, 320.6615
1256.363, 323.5685
1256.845, 326.7964
1257.327, 328.3972
1257.809, 329.4093
1258.291, 330.8932
1258.773, 333.3729
1259.255, 338.7374
1259.738, 346.4097
1260.220, 350.4966
1260.702, 347.3496
1261.184, 344.8319
1261.666, 345.7900
1262.148, 347.4078
1262.630, 348.8177
1263.112, 350.2449
1263.594, 351.3282
1264.077, 352.9849
1264.559, 357.0563
1265.041, 363.0341
1265.523, 366.3398
1266.005, 366.4253
1266.487, 366.8493
1266.969, 367.6625
1267.451, 369.5228
1267.934, 372.6200
1268.416, 375.4724
1268.898, 377.2474
1269.380, 378.8045
1269.862, 381.1417
1270.344, 383.9646
1270.826, 386.9006
1271.308, 389.8557
1271.791, 392.7179
1272.273, 395.4144
1272.755, 397.8192
1273.237, 399.9391
1273.719, 401.8656
1274.201, 403.6319
1274.683, 405.3156
1275.165, 406.7966
1275.647, 408.4535
1276.130, 410.4929
1276.612, 412.6896
1277.094, 414.5475
1277.576, 416.8442
1278.058, 421.0023
1278.540, 425.9254
1279.022, 428.2736
1279.504, 431.3180
1279.986, 434.0151
1280.469, 434.8643
1280.951, 438.0300
1281.433, 438.4540
1281.915, 439.7455
1282.397, 443.2215
1282.879, 447.6248
1283.361, 452.0255
1283.843, 456.4364
1284.326, 460.8744
1284.808, 465.3130
##END=



