##NAMES=Hematophanite
##RRUFFID=R070638
##IDEAL CHEMISTRY=Pb^2+^_4_Fe^3+^_3_O_8_Cl
##LOCALITY=Kombat mine, Kombat, Grootfontein District, Otjozondjupa Region, Namibia
##OWNER=RRUFF
##SOURCE=William W. Pinch
##DESCRIPTION=Submetallic deep red-brown tabular crystals with colorless calcite, also associated with R070639 britvinite
##STATUS=The identification of this mineral has been confirmed by single-crystal X-ray diffraction.
##URL=rruff.info/R070638
##MEASURED CHEMISTRY=Pb_4.00_(Fe^3+^_2.99_Mn^3+^_0.01_)_Î£=3_O_8_Cl_1.00_ ; Mn^3+^ by charge balance
145.6795, 1165.781
146.1616, 1161.199
146.6437, 1184.801
147.1258, 1207.689
147.6079, 1238.765
148.0901, 1268.962
148.5722, 1271.862
149.0543, 1215.177
149.5364, 1159.795
150.0185, 1132.578
150.5006, 1169.152
150.9828, 1191.619
151.4649, 1187.430
151.9470, 1159.997
152.4291, 1148.757
152.9112, 1169.875
153.3933, 1199.567
153.8755, 1221.282
154.3576, 1235.671
154.8397, 1239.639
155.3218, 1229.435
155.8039, 1202.607
156.2860, 1177.402
156.7682, 1157.312
157.2503, 1140.726
157.7324, 1125.527
158.2145, 1101.973
158.6966, 1087.048
159.1787, 1091.413
159.6609, 1128.992
160.1430, 1157.104
160.6251, 1156.393
161.1072, 1136.294
161.5893, 1118.351
162.0714, 1112.426
162.5536, 1110.349
163.0357, 1106.532
163.5178, 1097.228
163.9999, 1088.635
164.4820, 1083.967
164.9641, 1082.764
165.4463, 1082.334
165.9284, 1079.776
166.4105, 1077.773
166.8926, 1079.214
167.3747, 1092.651
167.8568, 1104.596
168.3390, 1102.208
168.8211, 1084.043
169.3032, 1069.807
169.7853, 1080.686
170.2674, 1103.817
170.7495, 1116.731
171.2317, 1095.980
171.7138, 1066.064
172.1959, 1053.252
172.6780, 1063.889
173.1601, 1079.225
173.6422, 1084.290
174.1244, 1080.993
174.6065, 1075.464
175.0886, 1067.250
175.5707, 1060.012
176.0528, 1060.080
176.5349, 1072.129
177.0171, 1086.996
177.4992, 1094.937
177.9813, 1096.200
178.4634, 1093.597
178.9455, 1088.737
179.4276, 1081.569
179.9098, 1071.477
180.3919, 1053.451
180.8740, 1034.896
181.3561, 1030.301
181.8382, 1040.285
182.3203, 1052.239
182.8025, 1051.771
183.2846, 1041.854
183.7667, 1034.470
184.2488, 1034.693
184.7309, 1041.345
185.2130, 1052.729
185.6951, 1070.282
186.1773, 1087.452
186.6594, 1095.945
187.1415, 1096.102
187.6236, 1092.032
188.1057, 1081.854
188.5878, 1067.968
189.0700, 1062.814
189.5521, 1069.961
190.0342, 1082.292
190.5163, 1085.157
190.9984, 1078.122
191.4805, 1072.616
191.9627, 1078.575
192.4448, 1094.974
192.9269, 1109.810
193.4090, 1121.692
193.8911, 1130.343
194.3732, 1135.193
194.8554, 1136.398
195.3375, 1133.267
195.8196, 1121.560
196.3017, 1100.956
196.7838, 1087.714
197.2659, 1087.021
197.7481, 1097.476
198.2302, 1111.315
198.7123, 1130.036
199.1944, 1148.017
199.6765, 1155.630
200.1586, 1150.883
200.6408, 1152.055
201.1229, 1171.324
201.6050, 1209.074
202.0871, 1224.238
202.5692, 1209.713
203.0513, 1183.509
203.5335, 1176.704
204.0156, 1193.071
204.4977, 1212.828
204.9798, 1227.222
205.4619, 1235.246
205.9440, 1244.400
206.4262, 1255.839
206.9083, 1267.799
207.3904, 1275.051
207.8725, 1275.833
208.3546, 1276.645
208.8367, 1281.145
209.3189, 1289.793
209.8010, 1300.835
210.2831, 1315.781
210.7652, 1332.940
211.2473, 1344.110
211.7294, 1347.068
212.2116, 1348.513
212.6937, 1353.802
213.1758, 1364.513
213.6579, 1374.277
214.1400, 1382.443
214.6221, 1389.064
215.1043, 1393.431
215.5864, 1394.162
216.0685, 1394.802
216.5506, 1397.895
217.0327, 1401.639
217.5148, 1413.127
217.9970, 1438.766
218.4791, 1480.209
218.9612, 1502.312
219.4433, 1496.369
219.9254, 1479.596
220.4075, 1474.851
220.8897, 1487.668
221.3718, 1501.003
221.8539, 1508.424
222.3360, 1507.294
222.8181, 1513.859
223.3002, 1532.292
223.7824, 1555.739
224.2645, 1571.075
224.7466, 1574.682
225.2287, 1576.700
225.7108, 1580.549
226.1929, 1585.825
226.6750, 1594.742
227.1572, 1611.076
227.6393, 1629.896
228.1214, 1638.170
228.6035, 1632.019
229.0856, 1621.024
229.5677, 1607.557
230.0499, 1583.783
230.5320, 1576.682
231.0141, 1594.835
231.4962, 1630.817
231.9783, 1653.353
232.4604, 1652.188
232.9426, 1650.460
233.4247, 1664.938
233.9068, 1712.916
234.3889, 1740.057
234.8710, 1733.309
235.3531, 1697.503
235.8353, 1677.725
236.3174, 1681.285
236.7995, 1692.605
237.2816, 1700.414
237.7637, 1703.648
238.2458, 1705.512
238.7280, 1706.661
239.2101, 1707.080
239.6922, 1704.646
240.1743, 1696.295
240.6564, 1688.112
241.1385, 1687.018
241.6207, 1701.535
242.1028, 1707.437
242.5849, 1695.977
243.0670, 1664.677
243.5491, 1648.389
244.0313, 1655.840
244.5134, 1671.004
244.9955, 1674.757
245.4776, 1659.931
245.9597, 1645.942
246.4418, 1636.011
246.9240, 1629.185
247.4061, 1633.000
247.8882, 1653.278
248.3703, 1679.954
248.8524, 1698.952
249.3345, 1710.045
249.8167, 1713.710
250.2988, 1708.127
250.7809, 1689.329
251.2630, 1676.352
251.7451, 1667.358
252.2272, 1665.301
252.7094, 1678.517
253.1915, 1720.616
253.6736, 1754.682
254.1557, 1763.978
254.6378, 1735.879
255.1199, 1723.741
255.6021, 1734.596
256.0842, 1758.083
256.5663, 1771.868
257.0484, 1773.829
257.5305, 1769.776
258.0126, 1760.404
258.4948, 1740.563
258.9769, 1730.411
259.4590, 1733.812
259.9411, 1745.689
260.4232, 1751.442
260.9053, 1746.925
261.3875, 1743.947
261.8696, 1750.844
262.3517, 1774.076
262.8338, 1785.460
263.3159, 1779.266
263.7980, 1761.250
264.2802, 1752.073
264.7623, 1755.838
265.2444, 1760.014
265.7265, 1755.927
266.2086, 1740.215
266.6907, 1729.348
267.1729, 1727.577
267.6550, 1731.152
268.1371, 1723.974
268.6192, 1701.448
269.1013, 1678.480
269.5834, 1667.624
270.0656, 1673.258
270.5477, 1671.130
271.0298, 1657.354
271.5119, 1633.928
271.9940, 1606.672
272.4761, 1572.730
272.9583, 1542.857
273.4404, 1527.772
273.9225, 1531.291
274.4046, 1528.470
274.8867, 1514.208
275.3688, 1491.049
275.8510, 1469.173
276.3331, 1448.301
276.8152, 1429.979
277.2973, 1418.931
277.7794, 1417.025
278.2615, 1402.951
278.7437, 1365.837
279.2258, 1314.285
279.7079, 1291.513
280.1900, 1303.316
280.6721, 1321.443
281.1542, 1320.369
281.6364, 1299.357
282.1185, 1274.506
282.6006, 1244.095
283.0827, 1213.345
283.5648, 1210.260
284.0469, 1240.297
284.5291, 1269.703
285.0112, 1261.094
285.4933, 1215.727
285.9754, 1174.204
286.4575, 1145.238
286.9396, 1128.177
287.4217, 1124.724
287.9038, 1136.321
288.3860, 1150.912
288.8681, 1157.740
289.3502, 1157.136
289.8323, 1152.549
290.3144, 1143.565
290.7965, 1131.767
291.2787, 1121.910
291.7608, 1114.134
292.2429, 1106.343
292.7250, 1094.929
293.2071, 1081.041
293.6892, 1070.484
294.1714, 1067.034
294.6535, 1067.440
295.1356, 1063.633
295.6177, 1055.391
296.0998, 1048.055
296.5819, 1047.933
297.0641, 1053.110
297.5462, 1057.306
298.0283, 1059.844
298.5104, 1059.442
298.9925, 1052.545
299.4746, 1039.061
299.9568, 1024.483
300.4389, 1009.748
300.9210, 997.3635
301.4031, 993.0408
301.8852, 1004.948
302.3673, 1022.461
302.8495, 1032.792
303.3316, 1035.882
303.8137, 1034.363
304.2958, 1030.261
304.7779, 1022.973
305.2600, 1011.411
305.7422, 959.2658
306.2243, 992.9610
306.7064, 1011.428
307.1885, 1015.486
307.6706, 961.9746
308.1527, 982.8013
308.6349, 973.8367
309.1170, 963.6505
309.5991, 994.9400
310.0812, 949.8021
310.5633, 980.4339
311.0454, 980.8197
311.5276, 995.0482
312.0097, 979.3016
312.4918, 972.8135
312.9739, 996.3101
313.4560, 1003.204
313.9381, 984.0067
314.4203, 999.1151
314.9024, 952.9302
315.3845, 960.5312
315.8666, 991.3383
316.3487, 973.6483
316.8308, 989.3049
317.3130, 992.2611
317.7951, 937.5002
318.2772, 983.1155
318.7593, 985.3213
319.2414, 942.9552
319.7235, 985.1311
320.2057, 948.9095
320.6878, 940.6711
321.1699, 953.4919
321.6520, 944.3593
322.1341, 969.8386
322.6162, 961.9738
323.0984, 951.1296
323.5805, 953.2867
324.0626, 918.6027
324.5447, 952.2665
325.0268, 939.2430
325.5089, 949.4267
325.9911, 964.8705
326.4732, 940.0369
326.9553, 957.2330
327.4374, 966.0811
327.9195, 966.3858
328.4016, 957.5942
328.8838, 919.8177
329.3659, 898.0027
329.8480, 903.4373
330.3301, 930.6037
330.8122, 944.4655
331.2943, 933.5781
331.7765, 920.8317
332.2586, 919.9803
332.7407, 943.1615
333.2228, 955.8056
333.7049, 950.7795
334.1870, 933.5533
334.6692, 927.6829
335.1513, 939.7892
335.6334, 952.5619
336.1155, 956.1726
336.5976, 948.1237
337.0797, 938.2738
337.5619, 924.7667
338.0440, 910.8975
338.5261, 907.5754
339.0082, 917.2704
339.4903, 929.9820
339.9724, 941.0643
340.4546, 950.7696
340.9367, 957.7466
341.4188, 962.7288
341.9009, 964.0844
342.3830, 954.6924
342.8651, 932.8093
343.3473, 916.7856
343.8294, 920.7002
344.3115, 942.6630
344.7936, 957.6039
345.2757, 964.0562
345.7578, 964.1455
346.2400, 958.5134
346.7221, 947.6957
347.2042, 939.3852
347.6863, 938.5898
348.1684, 943.4404
348.6505, 948.0410
349.1327, 952.1995
349.6148, 955.8726
350.0969, 962.8870
350.5790, 970.5930
351.0611, 968.8364
351.5432, 937.4858
352.0254, 898.5949
352.5075, 892.8316
352.9896, 924.6591
353.4717, 958.9503
353.9538, 959.2162
354.4359, 938.6399
354.9181, 923.0308
355.4002, 929.0059
355.8823, 941.5394
356.3644, 946.5841
356.8465, 943.8304
357.3286, 940.1747
357.8108, 940.1390
358.2929, 941.8749
358.7750, 942.9450
359.2571, 938.5830
359.7392, 936.5638
360.2213, 944.7557
360.7035, 962.1401
361.1856, 973.6069
361.6677, 970.7198
362.1498, 959.8012
362.6319, 946.3309
363.1140, 921.5352
363.5962, 904.6512
364.0783, 903.8132
364.5604, 917.2495
365.0425, 932.3479
365.5246, 953.1224
366.0067, 970.2784
366.4889, 978.1400
366.9710, 965.4308
367.4531, 955.9393
367.9352, 952.6140
368.4173, 954.3947
368.8994, 956.6642
369.3815, 962.0869
369.8636, 965.5728
370.3458, 964.7795
370.8279, 957.1490
371.3100, 949.3860
371.7921, 939.6320
372.2742, 930.0875
372.7563, 926.1663
373.2385, 928.5425
373.7206, 935.5318
374.2027, 948.3741
374.6848, 970.5056
375.1669, 983.7372
375.6490, 986.1935
376.1312, 981.6812
376.6133, 975.1947
377.0954, 965.5682
377.5775, 958.6198
378.0596, 956.3942
378.5417, 958.8749
379.0239, 965.9552
379.5060, 979.1609
379.9881, 992.2505
380.4702, 995.4521
380.9523, 989.1991
381.4344, 985.1918
381.9166, 988.8999
382.3987, 997.3892
382.8808, 1002.091
383.3629, 1002.860
383.8450, 1001.331
384.3271, 999.3107
384.8093, 996.2609
385.2914, 989.7726
385.7735, 974.1453
386.2556, 959.5378
386.7377, 963.1323
387.2198, 982.9567
387.7020, 1004.409
388.1841, 1017.855
388.6662, 1026.201
389.1483, 1034.046
389.6304, 1045.141
390.1125, 1051.572
390.5947, 1044.403
391.0768, 1027.116
391.5589, 1010.717
392.0410, 993.5402
392.5231, 983.8501
393.0052, 990.7155
393.4874, 1024.819
393.9695, 1052.707
394.4516, 1057.440
394.9337, 1047.706
395.4158, 1039.417
395.8979, 1033.005
396.3801, 1032.168
396.8622, 1040.488
397.3443, 1062.049
397.8264, 1078.795
398.3085, 1086.403
398.7906, 1088.523
399.2728, 1089.368
399.7549, 1084.446
400.2370, 1083.527
400.7191, 1089.837
401.2012, 1104.042
401.6833, 1115.697
402.1655, 1123.950
402.6476, 1130.418
403.1297, 1136.313
403.6118, 1141.435
404.0939, 1146.793
404.5760, 1153.677
405.0582, 1161.014
405.5403, 1160.222
406.0224, 1146.981
406.5045, 1138.135
406.9866, 1149.765
407.4688, 1183.603
407.9509, 1207.128
408.4330, 1215.643
408.9151, 1214.273
409.3972, 1210.334
409.8793, 1203.849
410.3615, 1203.006
410.8436, 1217.074
411.3257, 1241.098
411.8078, 1257.642
412.2899, 1265.038
412.7720, 1267.955
413.2542, 1266.539
413.7363, 1264.174
414.2184, 1271.035
414.7005, 1299.615
415.1826, 1335.946
415.6647, 1364.133
416.1469, 1383.427
416.6290, 1399.081
417.1111, 1414.425
417.5932, 1428.348
418.0753, 1438.944
418.5574, 1439.997
419.0396, 1442.762
419.5217, 1450.945
420.0038, 1464.934
420.4859, 1487.786
420.9680, 1532.451
421.4501, 1579.301
421.9323, 1613.722
422.4144, 1626.733
422.8965, 1637.172
423.3786, 1642.909
423.8607, 1648.003
424.3428, 1663.928
424.8250, 1694.931
425.3071, 1734.642
425.7892, 1782.632
426.2713, 1847.843
426.7534, 1898.776
427.2355, 1926.403
427.7177, 1945.438
428.1998, 1977.467
428.6819, 2027.931
429.1640, 2078.860
429.6461, 2125.512
430.1282, 2167.396
430.6104, 2211.629
431.0925, 2257.222
431.5746, 2307.076
432.0567, 2364.037
432.5388, 2428.163
433.0209, 2495.946
433.5031, 2569.132
433.9852, 2643.409
434.4673, 2708.062
434.9494, 2763.083
435.4315, 2818.776
435.9136, 2879.866
436.3958, 2946.883
436.8779, 3022.867
437.3600, 3109.720
437.8421, 3199.356
438.3242, 3287.554
438.8063, 3371.836
439.2885, 3445.126
439.7706, 3490.302
440.2527, 3530.846
440.7348, 3592.455
441.2169, 3679.780
441.6990, 3761.429
442.1812, 3813.446
442.6633, 3852.417
443.1454, 3898.865
443.6275, 3977.324
444.1096, 4046.517
444.5917, 4089.235
445.0739, 4106.808
445.5560, 4120.432
446.0381, 4137.177
446.5202, 4149.343
447.0023, 4152.389
447.4844, 4156.385
447.9666, 4137.519
448.4487, 4087.942
448.9308, 4016.045
449.4129, 3943.989
449.8950, 3877.171
450.3771, 3804.057
450.8592, 3718.636
451.3413, 3619.324
451.8235, 3521.845
452.3056, 3426.591
452.7877, 3332.336
453.2698, 3233.524
453.7519, 3129.623
454.2340, 3033.084
454.7162, 2948.706
455.1983, 2873.870
455.6804, 2797.074
456.1625, 2717.933
456.6446, 2637.827
457.1267, 2556.854
457.6089, 2475.762
458.0910, 2390.669
458.5731, 2298.419
459.0552, 2207.990
459.5373, 2128.261
460.0194, 2059.981
460.5016, 2004.210
460.9837, 1975.118
461.4658, 1951.709
461.9479, 1914.404
462.4300, 1859.325
462.9121, 1800.791
463.3943, 1740.340
463.8764, 1682.607
464.3585, 1634.522
464.8406, 1607.621
465.3227, 1581.322
465.8048, 1547.538
466.2870, 1506.133
466.7691, 1469.177
467.2512, 1442.393
467.7333, 1417.037
468.2154, 1386.950
468.6975, 1339.421
469.1797, 1309.007
469.6618, 1308.567
470.1439, 1323.411
470.6260, 1311.457
471.1081, 1259.277
471.5902, 1212.853
472.0724, 1196.953
472.5545, 1214.359
473.0366, 1208.021
473.5187, 1170.903
474.0008, 1129.979
474.4829, 1124.725
474.9651, 1151.640
475.4472, 1168.155
475.9293, 1158.160
476.4114, 1131.981
476.8935, 1106.199
477.3756, 1081.535
477.8578, 1064.135
478.3399, 1067.477
478.8220, 1078.416
479.3041, 1075.266
479.7862, 1048.018
480.2683, 1020.930
480.7505, 1014.948
481.2326, 1022.603
481.7147, 1028.014
482.1968, 1023.437
482.6789, 1015.889
483.1610, 1008.148
483.6432, 1000.230
484.1253, 993.8974
484.6074, 991.5676
485.0895, 990.0314
485.5716, 986.4822
486.0537, 979.1332
486.5359, 971.5891
487.0180, 965.2406
487.5001, 959.1367
487.9822, 947.5901
488.4643, 924.4055
488.9464, 906.1389
489.4286, 903.5494
489.9107, 921.4122
490.3928, 928.9133
490.8749, 923.6780
491.3570, 912.0388
491.8391, 901.9340
492.3213, 893.4583
492.8034, 887.3505
493.2855, 885.0741
493.7676, 884.9827
494.2497, 882.5647
494.7318, 877.9021
495.2140, 873.3030
495.6961, 870.2565
496.1782, 868.6489
496.6603, 868.5452
497.1424, 870.4011
497.6245, 872.7058
498.1067, 876.3134
498.5888, 879.5103
499.0709, 878.4176
499.5530, 866.8962
500.0351, 854.1578
500.5172, 843.8463
500.9994, 836.0783
501.4815, 833.8295
501.9636, 840.9482
502.4457, 852.2469
502.9278, 863.0869
503.4099, 878.5026
503.8921, 886.7676
504.3742, 885.3670
504.8563, 875.9498
505.3384, 864.6340
505.8205, 849.6417
506.3026, 836.2407
506.7848, 826.2697
507.2669, 819.3002
507.7490, 820.2159
508.2311, 831.9119
508.7132, 844.8560
509.1953, 844.6605
509.6775, 832.5272
510.1596, 821.7947
510.6417, 816.5210
511.1238, 815.5924
511.6059, 818.1013
512.0880, 823.7484
512.5701, 829.2538
513.0522, 835.2719
513.5344, 838.6426
514.0165, 832.7949
514.4986, 811.4988
514.9807, 796.0519
515.4628, 807.3792
515.9449, 832.3945
516.4271, 848.6927
516.9092, 847.7454
517.3913, 838.0383
517.8734, 815.2004
518.3555, 778.2185
518.8376, 760.9261
519.3198, 790.5980
519.8019, 824.3878
520.2840, 835.4791
520.7661, 806.9754
521.2482, 789.0848
521.7303, 786.6772
522.2125, 794.5084
522.6946, 802.0623
523.1767, 810.1141
523.6588, 814.7836
524.1409, 813.7592
524.6230, 807.6917
525.1052, 799.8726
525.5873, 789.7213
526.0694, 782.3997
526.5515, 788.5453
527.0336, 802.0704
527.5157, 803.4915
527.9979, 781.9248
528.4800, 757.6968
528.9621, 752.8392
529.4442, 763.3241
529.9263, 777.1014
530.4084, 793.9337
530.8906, 807.4575
531.3727, 812.0468
531.8548, 806.4398
532.3369, 799.1898
532.8190, 791.6880
533.3011, 784.5134
533.7833, 778.3093
534.2654, 765.8063
534.7475, 763.4998
535.2296, 780.9729
535.7117, 810.1382
536.1938, 821.5958
536.6760, 807.3471
537.1581, 790.9019
537.6402, 782.1817
538.1223, 781.9500
538.6044, 779.9116
539.0865, 775.2864
539.5687, 771.1160
540.0508, 773.2090
540.5329, 780.2250
541.0150, 781.1666
541.4971, 770.0376
541.9792, 755.6231
542.4614, 752.6670
542.9435, 759.3121
543.4256, 766.9113
543.9077, 771.9930
544.3898, 774.5581
544.8719, 773.1287
545.3541, 766.6705
545.8362, 763.1372
546.3183, 771.0198
546.8004, 781.9175
547.2825, 786.7315
547.7646, 776.0093
548.2468, 767.1469
548.7289, 763.5017
549.2110, 764.3904
549.6931, 766.9337
550.1752, 772.4264
550.6573, 777.8239
551.1395, 782.5303
551.6216, 787.0960
552.1037, 786.9902
552.5858, 781.1391
553.0679, 773.0076
553.5500, 765.7571
554.0322, 759.4982
554.5143, 755.5115
554.9964, 754.3935
555.4785, 755.3651
555.9606, 757.7607
556.4427, 761.2977
556.9249, 764.3676
557.4070, 764.3481
557.8891, 764.1763
558.3712, 769.6705
558.8533, 782.5103
559.3354, 788.7150
559.8176, 770.9241
560.2997, 746.7686
560.7818, 734.3047
561.2639, 747.6454
561.7460, 762.5393
562.2281, 777.0494
562.7103, 789.8837
563.1924, 796.4357
563.6745, 793.7417
564.1566, 788.6849
564.6387, 783.3270
565.1208, 777.5898
565.6030, 772.3669
566.0851, 768.1512
566.5672, 763.4871
567.0493, 754.6110
567.5314, 742.1431
568.0135, 737.5877
568.4957, 745.2770
568.9778, 758.0445
569.4599, 764.7936
569.9420, 766.4243
570.4241, 766.4539
570.9063, 767.6308
571.3884, 767.6296
571.8705, 761.5110
572.3526, 749.2454
572.8347, 742.2531
573.3168, 752.1924
573.7990, 767.0060
574.2811, 776.2706
574.7632, 772.6090
575.2453, 770.9587
575.7274, 777.8710
576.2095, 787.6040
576.6917, 788.0920
577.1738, 771.9365
577.6559, 758.7664
578.1380, 754.9011
578.6201, 759.6548
579.1022, 761.2462
579.5844, 758.5201
580.0665, 756.8937
580.5486, 761.1577
581.0307, 770.6044
581.5128, 781.3055
581.9949, 794.1799
582.4771, 803.3462
582.9592, 797.3202
583.4413, 781.6985
583.9234, 770.3223
584.4055, 772.0165
584.8876, 777.8428
585.3698, 781.9944
585.8519, 784.6328
586.3340, 786.8738
586.8161, 792.7274
587.2982, 795.5875
587.7803, 789.7017
588.2625, 766.5617
588.7446, 755.9551
589.2267, 768.1823
589.7088, 787.2230
590.1909, 795.0536
590.6730, 785.9459
591.1552, 781.9312
591.6373, 789.9785
592.1194, 803.4088
592.6015, 799.1594
593.0836, 775.9449
593.5657, 755.6546
594.0479, 752.3486
594.5300, 760.5902
595.0121, 766.7413
595.4942, 770.5024
595.9763, 771.8645
596.4584, 768.5157
596.9406, 763.5648
597.4227, 761.0747
597.9048, 762.7153
598.3869, 765.8489
598.8690, 772.0399
599.3511, 778.5594
599.8333, 780.2416
600.3154, 767.0248
600.7975, 758.2961
601.2796, 761.4250
601.7617, 776.0327
602.2438, 785.3732
602.7260, 789.4805
603.2081, 788.3924
603.6902, 779.6657
604.1723, 762.1403
604.6544, 752.0720
605.1365, 751.0674
605.6187, 755.2108
606.1008, 761.7475
606.5829, 769.6168
607.0650, 774.4363
607.5471, 775.2936
608.0292, 771.9257
608.5114, 760.2334
608.9935, 743.1317
609.4756, 730.7349
609.9577, 731.2123
610.4398, 736.0869
610.9219, 742.2265
611.4041, 750.3721
611.8862, 751.9824
612.3683, 736.1287
612.8504, 719.0576
613.3325, 713.5990
613.8146, 728.2640
614.2968, 737.5129
614.7789, 738.3425
615.2610, 734.7344
615.7431, 733.7200
616.2252, 735.2529
616.7073, 740.0502
617.1895, 751.1071
617.6716, 764.4599
618.1537, 767.4720
618.6358, 760.9313
619.1179, 753.8660
619.6000, 757.4030
620.0822, 761.9304
620.5643, 752.0518
621.0464, 722.2662
621.5285, 699.2059
622.0106, 705.2879
622.4927, 722.4618
622.9749, 731.4324
623.4570, 714.0033
623.9391, 705.0429
624.4212, 714.9490
624.9033, 736.0228
625.3854, 748.2635
625.8676, 747.1757
626.3497, 747.0104
626.8318, 753.7598
627.3139, 766.3126
627.7960, 774.8065
628.2781, 779.4603
628.7603, 778.2321
629.2424, 761.9267
629.7245, 738.8102
630.2066, 733.5019
630.6887, 752.8806
631.1708, 772.4052
631.6530, 766.1299
632.1351, 746.7413
632.6172, 733.3920
633.0993, 735.1055
633.5814, 741.9888
634.0635, 754.8326
634.5457, 770.9679
635.0278, 780.1088
635.5099, 771.8555
635.9920, 767.2527
636.4741, 776.4014
636.9562, 801.0348
637.4384, 805.0361
637.9205, 781.1290
638.4026, 756.7841
638.8847, 758.5706
639.3668, 783.1986
639.8489, 800.5146
640.3311, 806.9141
640.8132, 806.0916
641.2953, 797.2825
641.7774, 784.8291
642.2595, 778.0798
642.7416, 782.7318
643.2238, 792.1298
643.7059, 805.6006
644.1880, 820.9935
644.6701, 831.5151
645.1522, 830.3962
645.6343, 828.0023
646.1165, 829.3572
646.5986, 835.3849
647.0807, 835.9217
647.5628, 826.8997
648.0449, 818.3474
648.5270, 818.5877
649.0092, 828.4126
649.4913, 836.5978
649.9734, 842.0450
650.4555, 846.8508
650.9376, 855.7209
651.4197, 866.8084
651.9019, 872.7756
652.3840, 866.6866
652.8661, 859.8657
653.3482, 865.3141
653.8303, 879.2997
654.3124, 890.4341
654.7946, 888.1513
655.2767, 887.0143
655.7588, 897.8539
656.2408, 923.3345
656.7230, 934.0735
657.2051, 915.8879
657.6872, 897.0850
658.1693, 896.2495
658.6514, 919.2268
659.1335, 932.7130
659.6157, 933.2249
660.0978, 930.7921
660.5799, 943.0764
661.0620, 966.2183
661.5441, 976.3345
662.0262, 961.0266
662.5084, 939.9626
662.9905, 939.5905
663.4726, 953.0491
663.9547, 961.7208
664.4368, 951.6313
664.9189, 938.7659
665.4011, 931.7957
665.8832, 930.7990
666.3653, 928.4722
666.8474, 920.2557
667.3295, 913.4446
667.8116, 912.4554
668.2938, 920.2202
668.7759, 920.3536
669.2580, 911.1588
669.7401, 898.1590
670.2222, 886.1182
670.7043, 875.1715
671.1865, 866.0811
671.6686, 858.3212
672.1507, 854.4391
672.6328, 862.7034
673.1149, 877.4321
673.5970, 884.9425
674.0792, 874.9413
674.5613, 860.2062
675.0434, 844.0041
675.5255, 828.0002
676.0076, 819.8223
676.4897, 831.6995
676.9719, 841.2972
677.4540, 838.4121
677.9361, 820.7468
678.4182, 813.7798
678.9003, 821.6603
679.3824, 831.0292
679.8646, 828.6133
680.3467, 815.8981
680.8288, 812.0685
681.3109, 820.4746
681.7930, 831.0870
682.2751, 832.7186
682.7573, 828.0563
683.2394, 822.5553
683.7215, 819.0048
684.2036, 813.9450
684.6857, 802.0886
685.1678, 787.3680
685.6500, 778.5473
686.1321, 785.2446
686.6142, 790.1283
687.0963, 786.6074
687.5784, 776.1238
688.0605, 773.7275
688.5427, 783.6159
689.0248, 790.8117
689.5069, 769.0386
689.9890, 785.5177
690.4711, 794.0616
690.9532, 795.0971
691.4354, 766.1338
691.9175, 775.9075
692.3996, 770.1572
692.8817, 763.7703
693.3638, 778.9960
693.8459, 754.3963
694.3281, 769.2786
694.8102, 768.4009
695.2923, 774.7363
695.7744, 765.4520
696.2565, 760.9922
696.7386, 772.1570
697.2208, 774.6699
697.7029, 763.5877
698.1850, 770.3817
698.6671, 745.2363
699.1492, 748.1182
699.6313, 763.0925
700.1135, 752.7950
700.5956, 759.8748
701.0777, 760.3363
701.5598, 730.7221
702.0419, 753.4128
702.5240, 753.4833
703.0062, 730.3275
703.4883, 751.2261
703.9704, 731.2726
704.4525, 725.9008
704.9346, 731.5027
705.4167, 725.6649
705.8989, 737.8624
706.3810, 732.6854
706.8631, 725.9558
707.3452, 726.0010
707.8273, 706.4212
708.3094, 723.7072
708.7916, 733.0579
709.2737, 734.9002
709.7558, 706.7442
710.2379, 717.3246
710.7200, 712.3814
711.2021, 706.8015
711.6843, 722.8337
712.1664, 699.0409
712.6485, 714.7306
713.1306, 714.6596
713.6127, 721.8019
714.0948, 713.3245
714.5770, 709.6713
715.0591, 721.6431
715.5412, 724.9633
716.0233, 714.6878
716.5054, 722.2887
716.9875, 697.9502
717.4697, 701.6387
717.9518, 717.4199
718.4339, 707.9297
718.9160, 715.8161
719.3981, 717.0847
719.8802, 688.2773
720.3624, 711.7745
720.8445, 712.6520
721.3266, 690.7312
721.8087, 688.4915
722.2908, 690.6765
722.7729, 694.5546
723.2551, 704.0947
723.7372, 709.4955
724.2193, 706.5045
724.7014, 699.1564
725.1835, 699.8387
725.6656, 711.0724
726.1478, 719.9618
726.6299, 722.3807
727.1120, 718.8867
727.5941, 706.8237
728.0762, 687.5729
728.5583, 675.5746
729.0405, 690.7130
729.5226, 710.9595
730.0047, 710.3671
730.4868, 687.2525
730.9689, 672.6525
731.4510, 690.8461
731.9332, 712.4390
732.4153, 717.0071
732.8974, 696.4208
733.3795, 682.3363
733.8616, 676.2663
734.3438, 674.5588
734.8259, 674.2925
735.3080, 675.4458
735.7901, 676.8936
736.2722, 678.4326
736.7543, 680.3878
737.2365, 684.5372
737.7186, 689.2343
738.2007, 690.9523
738.6828, 686.1926
739.1649, 681.0620
739.6470, 678.7621
740.1292, 678.3828
740.6113, 677.8519
741.0934, 676.4302
741.5755, 675.3841
742.0576, 675.5016
742.5397, 676.1804
743.0219, 673.4596
743.5040, 666.1874
743.9861, 662.6901
744.4682, 670.3851
744.9503, 684.3193
745.4324, 691.1733
745.9146, 691.3121
746.3967, 687.8778
746.8788, 680.1456
747.3609, 671.7195
747.8430, 664.8718
748.3251, 659.5193
748.8073, 658.4252
749.2894, 664.7399
749.7715, 673.6053
750.2536, 683.1164
750.7357, 696.8672
751.2178, 698.7495
751.7000, 685.3625
752.1821, 668.1142
752.6642, 659.4288
753.1463, 658.4118
753.6284, 661.9167
754.1105, 671.3737
754.5927, 678.6483
755.0748, 669.3160
755.5569, 654.0003
756.0390, 649.3613
756.5211, 676.8368
757.0032, 698.0352
757.4854, 698.0832
757.9675, 684.9213
758.4496, 676.3854
758.9317, 672.2940
759.4138, 673.8685
759.8959, 684.7025
760.3781, 699.4777
760.8602, 699.6323
761.3423, 686.0782
761.8244, 672.5033
762.3065, 665.6533
762.7886, 663.3024
763.2708, 664.8475
763.7529, 669.2991
764.2350, 670.5646
764.7171, 658.4158
765.1992, 648.6244
765.6813, 652.1519
766.1635, 671.8193
766.6456, 683.3458
767.1277, 684.7342
767.6098, 681.1783
768.0919, 672.9079
768.5740, 660.0319
769.0562, 660.8470
769.5383, 677.5803
770.0204, 690.0085
770.5025, 669.6587
770.9846, 635.6027
771.4667, 620.0609
771.9489, 631.1147
772.4310, 646.0623
772.9131, 657.2781
773.3952, 664.6381
773.8773, 667.7930
774.3594, 661.7396
774.8416, 659.8491
775.3237, 665.1559
775.8058, 671.7401
776.2879, 670.6600
776.7700, 661.8714
777.2521, 654.0229
777.7343, 648.7913
778.2164, 645.5715
778.6985, 643.4752
779.1806, 642.7518
779.6627, 643.9158
780.1448, 646.0391
780.6270, 651.2697
781.1091, 666.8631
781.5912, 686.7426
782.0733, 691.7379
782.5554, 671.1531
783.0375, 651.5451
783.5197, 637.7962
784.0018, 629.8207
784.4839, 627.0947
784.9660, 629.6179
785.4481, 637.9990
785.9302, 658.9235
786.4124, 682.9381
786.8945, 694.3361
787.3766, 694.3264
787.8587, 688.0181
788.3408, 669.7356
788.8229, 653.1307
789.3051, 646.0418
789.7872, 649.4554
790.2693, 657.2215
790.7514, 673.4285
791.2335, 686.9792
791.7156, 691.5622
792.1978, 687.3444
792.6799, 679.3757
793.1620, 667.1196
793.6441, 659.1704
794.1262, 670.5038
794.6083, 687.6954
795.0905, 687.7654
795.5726, 666.1364
796.0547, 648.4890
796.5368, 650.3822
797.0189, 659.4028
797.5010, 666.0374
797.9832, 668.9155
798.4653, 670.6658
798.9474, 669.6806
799.4295, 670.0832
799.9116, 679.4796
800.3937, 696.5961
800.8759, 701.7663
801.3580, 690.6974
801.8401, 676.1847
802.3222, 670.8226
802.8043, 671.2678
803.2864, 672.9648
803.7686, 677.2050
804.2507, 677.9111
804.7328, 640.9231
805.2149, 676.4389
805.6970, 696.7268
806.1791, 702.6048
806.6613, 650.9146
807.1434, 673.5619
807.6255, 666.4181
808.1076, 658.0527
808.5897, 691.1627
809.0718, 647.8455
809.5540, 680.2980
810.0361, 682.5045
810.5182, 698.5538
811.0003, 684.6279
811.4824, 679.9604
811.9645, 705.2776
812.4467, 713.9922
812.9288, 696.6156
813.4109, 713.5449
813.8930, 669.1805
814.3751, 678.6022
814.8572, 711.2299
815.3394, 695.3607
815.8215, 712.8379
816.3036, 717.6149
816.7857, 664.6746
817.2678, 712.1105
817.7499, 716.1369
818.2321, 675.5916
818.7142, 696.5486
819.1963, 713.5257
819.6784, 721.9275
820.1605, 710.1521
820.6426, 698.0842
821.1247, 689.3067
821.6068, 684.2583
822.0889, 688.8170
822.5710, 704.0060
823.0532, 716.2266
823.5353, 716.6587
824.0174, 709.8453
824.4995, 701.9319
824.9816, 693.6611
825.4637, 688.6895
825.9459, 692.4755
826.4280, 697.1451
826.9101, 697.9026
827.3922, 694.3209
827.8743, 692.5992
828.3564, 692.4196
828.8386, 694.8939
829.3207, 702.2936
829.8028, 713.3535
830.2849, 718.1398
830.7670, 716.6892
831.2491, 713.7739
831.7313, 710.9119
832.2134, 709.5985
832.6955, 713.5317
833.1776, 722.7723
833.6597, 727.3340
834.1418, 720.7711
834.6240, 711.2189
835.1061, 702.0549
835.5882, 692.7951
836.0703, 688.9009
836.5524, 691.4372
837.0345, 695.4356
837.5167, 698.7448
837.9988, 700.5709
838.4809, 696.0458
838.9630, 685.0837
839.4451, 678.9199
839.9272, 689.5126
840.4094, 705.1597
840.8915, 717.3848
841.3736, 725.2031
841.8557, 728.6877
842.3378, 725.7448
842.8199, 721.5406
843.3021, 719.3581
843.7842, 719.2488
844.2663, 718.1627
844.7484, 715.8072
845.2305, 715.1059
845.7126, 721.4385
846.1948, 729.7755
846.6769, 732.0874
847.1590, 726.4944
847.6411, 722.5587
848.1232, 728.3412
848.6053, 733.9057
849.0875, 731.0865
849.5696, 715.6452
850.0517, 708.7750
850.5338, 711.4905
851.0159, 720.0229
851.4980, 734.5899
851.9802, 752.2029
852.4623, 762.7926
852.9444, 765.2261
853.4265, 763.5421
853.9086, 757.1685
854.3907, 750.3062
854.8729, 747.0869
855.3550, 749.8137
855.8371, 750.9104
856.3192, 747.6928
856.8013, 745.4691
857.2834, 749.0997
857.7656, 758.7189
858.2477, 766.9445
858.7298, 773.5178
859.2119, 777.8424
859.6940, 779.1116
860.1761, 777.9216
860.6583, 772.7382
861.1404, 761.1141
861.6225, 758.4648
862.1046, 784.3176
862.5867, 811.1508
863.0688, 817.0032
863.5510, 793.7391
864.0331, 781.2750
864.5152, 781.0474
864.9973, 786.4404
865.4794, 794.7049
865.9615, 803.4160
866.4437, 805.1399
866.9258, 798.6804
867.4079, 790.7731
867.8900, 782.7662
868.3721, 777.1855
868.8542, 776.3680
869.3364, 781.9999
869.8185, 789.2925
870.3006, 800.3029
870.7827, 809.4781
871.2648, 810.9999
871.7469, 805.7355
872.2291, 802.5091
872.7112, 801.7291
873.1933, 803.6445
873.6754, 812.2919
874.1575, 821.5308
874.6396, 823.8631
875.1218, 816.5614
875.6039, 811.8438
876.0860, 815.3118
876.5681, 819.7304
877.0502, 821.0533
877.5323, 818.8655
878.0145, 817.2251
878.4966, 816.1674
878.9787, 815.3215
879.4608, 813.7050
879.9429, 812.3401
880.4250, 814.1989
880.9072, 819.6581
881.3893, 822.0134
881.8714, 813.7722
882.3535, 804.7901
882.8356, 801.5181
883.3177, 804.6067
883.7999, 807.9061
884.2820, 811.2620
884.7641, 815.3442
885.2462, 823.0540
885.7283, 831.6671
886.2104, 831.1392
886.6926, 821.7748
887.1747, 813.4970
887.6568, 788.3941
888.1389, 822.8555
888.6210, 842.0888
889.1031, 846.9124
889.5853, 794.1674
890.0674, 815.7603
890.5495, 807.5620
891.0316, 798.1421
891.5137, 830.1977
891.9958, 785.8260
892.4780, 817.2238
892.9601, 818.3759
893.4422, 833.3706
893.9243, 818.3902
894.4064, 812.6683
894.8885, 836.9310
895.3707, 844.5909
895.8528, 826.1599
896.3349, 842.0347
896.8170, 796.6158
897.2991, 804.9830
897.7813, 836.5562
898.2634, 819.6324
898.7455, 836.0552
899.2276, 839.7777
899.7097, 785.7830
900.1918, 832.1644
900.6740, 835.1363
901.1561, 793.5363
901.6382, 836.4784
902.1203, 801.0232
902.6024, 793.5510
903.0845, 807.1379
903.5667, 798.7714
904.0488, 825.0168
904.5309, 817.9182
905.0130, 807.8404
905.4951, 810.7637
905.9772, 802.3981
906.4594, 809.5931
906.9415, 814.3238
907.4236, 806.6595
907.9057, 801.2602
908.3878, 808.0178
908.8699, 819.2199
909.3521, 818.6227
909.8342, 802.7857
910.3163, 788.2581
910.7984, 777.1291
911.2805, 771.4937
911.7626, 779.9200
912.2448, 796.3454
912.7269, 805.6149
913.2090, 796.6340
913.6911, 789.4908
914.1732, 799.4367
914.6553, 814.4595
915.1375, 816.5707
915.6196, 797.5776
916.1017, 788.0327
916.5838, 792.8264
917.0659, 801.7819
917.5480, 800.1439
918.0302, 791.6700
918.5123, 788.5862
918.9944, 795.1345
919.4765, 799.3905
919.9586, 786.5642
920.4407, 771.9492
920.9229, 772.0801
921.4050, 798.5273
921.8871, 810.8038
922.3692, 804.0948
922.8513, 793.5834
923.3334, 794.1514
923.8156, 802.8234
924.2977, 809.7716
924.7798, 814.3369
925.2619, 813.4644
925.7440, 796.2376
926.2261, 779.0209
926.7083, 777.7047
927.1904, 798.0580
927.6725, 804.5510
928.1546, 789.4890
928.6367, 775.5479
929.1188, 778.4845
929.6010, 794.0270
930.0831, 800.0169
930.5652, 796.9695
931.0473, 791.3869
931.5294, 783.8696
932.0115, 778.3721
932.4937, 778.6465
932.9758, 784.3079
933.4579, 790.2949
933.9400, 799.0831
934.4221, 802.5475
934.9042, 795.9833
935.3864, 783.6663
935.8685, 778.6904
936.3506, 780.3239
936.8327, 783.8994
937.3148, 784.6728
937.7969, 789.0746
938.2791, 809.8169
938.7612, 837.0089
939.2433, 846.6324
939.7254, 824.2105
940.2075, 804.0216
940.6896, 790.0264
941.1718, 781.0515
941.6539, 772.1384
942.1360, 765.2834
942.6181, 774.7318
943.1002, 812.8596
943.5823, 844.2344
944.0645, 831.9808
944.5466, 800.6619
945.0287, 780.3688
945.5108, 779.6168
945.9929, 786.5682
946.4750, 806.3394
946.9572, 825.4601
947.4393, 829.9260
947.9214, 821.3083
948.4035, 803.7570
948.8856, 776.4359
949.3677, 758.0640
949.8499, 773.4572
950.3320, 796.2989
950.8141, 803.2096
951.2962, 787.3823
951.7783, 777.1937
952.2604, 772.9124
952.7426, 774.6273
953.2247, 785.1064
953.7068, 801.8109
954.1889, 815.7134
954.6710, 826.0468
955.1531, 825.9741
955.6353, 795.5763
956.1174, 767.1474
956.5995, 769.1296
957.0816, 796.3190
957.5637, 805.2933
958.0458, 784.5688
958.5280, 770.0583
959.0101, 773.7916
959.4922, 788.4903
959.9743, 797.8906
960.4564, 802.9833
960.9385, 807.5979
961.4207, 815.4919
961.9028, 820.3417
962.3849, 817.1105
962.8670, 809.0037
963.3491, 801.0940
963.8312, 790.6987
964.3134, 788.8327
964.7955, 798.6742
965.2776, 811.9922
965.7597, 819.2459
966.2418, 821.1378
966.7239, 818.2574
967.2061, 809.3234
967.6882, 803.0594
968.1703, 808.2365
968.6524, 815.0903
969.1345, 814.8211
969.6166, 804.9434
970.0988, 801.5405
970.5809, 805.9036
971.0630, 811.1639
971.5451, 810.8653
972.0272, 808.3528
972.5093, 810.9299
972.9915, 818.2552
973.4736, 824.8722
973.9557, 828.8886
974.4378, 831.0109
974.9199, 831.9008
975.4020, 831.3267
975.8842, 825.7977
976.3663, 814.1230
976.8484, 809.8013
977.3305, 822.9712
977.8126, 839.7549
978.2947, 837.3806
978.7769, 823.0577
979.2590, 812.9140
979.7411, 816.2379
980.2232, 819.6475
980.7053, 820.6223
981.1874, 820.4148
981.6696, 820.4406
982.1517, 820.6713
982.6338, 822.4864
983.1159, 826.5680
983.5980, 829.2980
984.0801, 821.5859
984.5623, 813.3503
985.0444, 818.0716
985.5264, 843.3594
986.0085, 860.2015
986.4907, 862.7949
986.9728, 860.1932
987.4549, 856.6048
987.9370, 852.2510
988.4191, 849.6556
988.9012, 848.7478
989.3834, 847.8787
989.8655, 843.3994
990.3476, 840.7790
990.8297, 846.6401
991.3118, 859.0861
991.7939, 865.3192
992.2761, 862.3245
992.7582, 858.3157
993.2403, 855.0067
993.7224, 852.4525
994.2045, 850.3788
994.6866, 849.1681
995.1688, 850.3006
995.6509, 855.4808
996.1330, 860.9083
996.6151, 867.3238
997.0972, 871.3590
997.5793, 867.4023
998.0615, 849.0701
998.5436, 847.6376
999.0257, 868.4982
999.5078, 889.5310
999.9899, 882.2911
1000.472, 861.7320
1000.954, 854.6265
1001.436, 864.1993
1001.918, 874.4979
1002.401, 882.3644
1002.883, 885.8220
1003.365, 882.5529
1003.847, 845.2416
1004.329, 879.9116
1004.811, 899.3536
1005.293, 904.3858
1005.775, 851.8495
1006.257, 873.6510
1006.740, 865.6611
1007.222, 856.4498
1007.704, 888.7140
1008.186, 844.5510
1008.668, 876.1574
1009.150, 877.5181
1009.632, 892.7215
1010.114, 877.9497
1010.596, 872.4363
1011.079, 896.9075
1011.561, 904.7761
1012.043, 886.5536
1012.525, 902.6370
1013.007, 857.4268
1013.489, 866.0026
1013.971, 897.7845
1014.453, 881.0693
1014.936, 897.7004
1015.418, 901.6315
1015.900, 847.8454
1016.382, 894.4354
1016.864, 897.6160
1017.346, 856.2247
1017.828, 899.3754
1018.310, 864.1288
1018.792, 856.8652
1019.275, 870.6604
1019.757, 862.5026
1020.239, 888.9567
1020.721, 882.0666
1021.203, 872.1974
1021.685, 875.3293
1022.167, 841.6201
1022.649, 876.2587
1023.132, 864.2096
1023.614, 864.6990
1024.096, 873.9918
1024.578, 879.1943
1025.060, 876.2015
1025.542, 873.4562
1026.024, 879.3307
1026.506, 891.8345
1026.989, 899.1945
1027.471, 901.0225
1027.953, 896.3521
1028.435, 874.2868
1028.917, 854.8091
1029.399, 853.6779
1029.881, 867.7706
1030.363, 877.2293
1030.845, 881.8187
1031.328, 881.9517
1031.810, 875.9146
1032.292, 868.9998
1032.774, 870.0533
1033.256, 876.5876
1033.738, 883.9164
1034.220, 892.5635
1034.702, 898.1951
1035.184, 899.4684
1035.667, 897.8662
1036.149, 893.0088
1036.631, 884.8533
1037.113, 883.7189
1037.595, 890.1312
1038.077, 894.2653
1038.559, 885.2050
1039.041, 873.1760
1039.524, 865.6514
1040.006, 863.2361
1040.488, 864.4785
1040.970, 869.7531
1041.452, 877.9810
1041.934, 892.1735
1042.416, 904.6684
1042.898, 894.0762
1043.380, 869.2720
1043.863, 855.1612
1044.345, 868.0102
1044.827, 878.1608
1045.309, 867.3976
1045.791, 853.4901
1046.273, 854.3687
1046.755, 872.0748
1047.237, 884.0113
1047.719, 889.4603
1048.202, 889.0963
1048.684, 875.4376
1049.166, 861.8484
1049.648, 867.1662
1050.130, 890.1646
1050.612, 899.6982
1051.094, 883.8591
1051.576, 872.1785
1052.059, 874.8306
1052.541, 884.4813
1053.023, 883.8104
1053.505, 875.4479
1053.987, 867.4344
1054.469, 860.8132
1054.951, 858.2628
1055.433, 864.2414
1055.916, 872.8871
1056.398, 878.3329
1056.880, 879.9469
1057.362, 882.3446
1057.844, 885.7092
1058.326, 888.5528
1058.808, 890.2264
1059.290, 890.3487
1059.772, 886.0640
1060.255, 878.4531
1060.737, 878.3646
1061.219, 894.7527
1061.701, 904.5769
1062.183, 899.6097
1062.665, 888.2122
1063.147, 889.9615
1063.629, 900.5795
1064.111, 905.0441
1064.594, 895.3164
1065.076, 888.8707
1065.558, 899.4090
1066.040, 913.4914
1066.522, 918.8079
1067.004, 913.5910
1067.486, 914.0826
1067.968, 920.9769
1068.450, 924.1674
1068.933, 912.2451
1069.415, 895.9788
1069.897, 883.6577
1070.379, 876.5195
1070.861, 879.6699
1071.343, 902.3920
1071.825, 918.1773
1072.307, 919.8705
1072.790, 916.5097
1073.272, 928.6964
1073.754, 948.0140
1074.236, 948.2509
1074.718, 918.0118
1075.200, 892.5450
1075.682, 892.6694
1076.164, 899.7809
1076.646, 901.7277
1077.129, 898.5304
1077.611, 896.3398
1078.093, 895.1295
1078.575, 898.1495
1079.057, 913.8661
1079.539, 928.8707
1080.021, 929.9497
1080.503, 921.0621
1080.985, 912.2773
1081.468, 902.1330
1081.950, 898.5469
1082.432, 903.5656
1082.914, 912.3547
1083.396, 922.4781
1083.878, 930.8374
1084.360, 928.4004
1084.842, 912.8888
1085.325, 903.8085
1085.807, 914.6670
1086.289, 927.4642
1086.771, 935.1299
1087.253, 938.3728
1087.735, 940.2211
1088.217, 940.6672
1088.699, 939.4621
1089.182, 933.7166
1089.664, 930.2659
1090.146, 935.8400
1090.628, 945.6749
1091.110, 952.9509
1091.592, 956.8878
1092.074, 961.1758
1092.556, 966.6340
1093.038, 968.6625
1093.521, 959.2789
1094.003, 946.2914
1094.485, 939.1183
1094.967, 938.1803
1095.449, 941.3354
1095.931, 952.8608
1096.413, 960.2079
1096.895, 958.2259
1097.377, 952.8211
1097.860, 959.7650
1098.342, 974.2109
1098.824, 979.5181
1099.306, 968.0485
1099.788, 957.4948
1100.270, 955.9748
1100.752, 959.0378
1101.234, 965.2294
1101.717, 974.8550
1102.199, 970.9329
1102.681, 953.7011
1103.163, 940.2517
1103.645, 941.3515
1104.127, 950.9763
1104.609, 972.2430
1105.091, 997.4015
1105.573, 1005.241
1106.056, 987.0655
1106.538, 976.9663
1107.020, 980.8123
1107.502, 987.3403
1107.984, 979.4341
1108.466, 966.9745
1108.948, 967.6335
1109.430, 984.2619
1109.912, 994.8436
1110.395, 988.8156
1110.877, 984.3365
1111.359, 989.9521
1111.841, 1000.142
1112.323, 994.5897
1112.805, 978.3478
1113.287, 969.9979
1113.769, 982.5035
1114.252, 992.6713
1114.734, 983.1014
1115.216, 971.8969
1115.698, 978.6376
1116.180, 1005.745
1116.662, 1014.378
1117.144, 1004.038
1117.626, 993.8893
1118.109, 1001.289
1118.591, 1011.069
1119.073, 1009.018
1119.555, 998.8303
1120.037, 996.3622
1120.519, 977.8889
1121.001, 1014.203
1121.483, 1035.289
1121.965, 1041.965
1122.448, 991.0756
1122.930, 1014.521
1123.412, 1008.175
1123.894, 1000.608
1124.376, 1034.516
1124.858, 991.9971
1125.340, 1025.247
1125.822, 1028.252
1126.304, 1045.099
1126.787, 1031.975
1127.269, 1028.105
1127.751, 1054.221
1128.233, 1063.733
1128.715, 1047.155
1129.197, 1064.882
1129.679, 1021.316
1130.161, 1031.536
1130.644, 1064.965
1131.126, 1049.893
1131.608, 1068.169
1132.090, 1073.744
1132.572, 1021.602
1133.054, 1069.835
1133.536, 1074.660
1134.018, 1034.912
1134.500, 1079.707
1134.983, 1046.108
1135.465, 1040.488
1135.947, 1055.928
1136.429, 1049.414
1136.911, 1077.512
1137.393, 1072.266
1137.875, 1064.040
1138.357, 1068.817
1138.839, 1036.751
1139.322, 1073.037
1139.804, 1062.632
1140.286, 1062.943
1140.768, 1064.548
1141.250, 1066.873
1141.732, 1069.109
1142.214, 1069.600
1142.696, 1065.560
1143.179, 1064.150
1143.661, 1067.078
1144.143, 1070.382
1144.625, 1069.879
1145.107, 1067.291
1145.589, 1068.357
1146.071, 1072.799
1146.553, 1078.268
1147.036, 1088.426
1147.518, 1092.877
1148.000, 1084.331
1148.482, 1072.864
1148.964, 1079.118
1149.446, 1099.226
1149.928, 1107.962
1150.410, 1101.107
1150.892, 1090.426
1151.375, 1078.391
1151.857, 1070.119
1152.339, 1070.515
1152.821, 1077.651
1153.303, 1082.233
1153.785, 1084.293
1154.267, 1085.466
1154.749, 1085.456
1155.231, 1086.779
1155.714, 1097.494
1156.196, 1107.514
1156.678, 1101.457
1157.160, 1073.091
1157.642, 1066.838
1158.124, 1085.754
1158.606, 1103.755
1159.088, 1103.432
1159.571, 1093.844
1160.053, 1077.905
1160.535, 1061.749
1161.017, 1061.865
1161.499, 1092.303
1161.981, 1111.720
1162.463, 1116.791
1162.945, 1112.281
1163.427, 1096.488
1163.910, 1078.016
1164.392, 1071.341
1164.874, 1076.500
1165.356, 1082.783
1165.838, 1091.121
1166.320, 1093.357
1166.802, 1083.531
1167.284, 1073.541
1167.766, 1091.466
1168.249, 1123.809
1168.731, 1138.247
1169.213, 1125.289
1169.695, 1113.554
1170.177, 1118.076
1170.659, 1118.167
1171.141, 1100.871
1171.623, 1074.345
1172.106, 1069.783
1172.588, 1082.643
1173.070, 1095.307
1173.552, 1099.771
1174.034, 1104.882
1174.516, 1120.055
1174.998, 1131.954
1175.480, 1126.456
1175.963, 1104.898
1176.445, 1101.339
1176.927, 1113.918
1177.409, 1121.585
1177.891, 1102.521
1178.373, 1085.170
1178.855, 1088.718
1179.337, 1100.589
1179.819, 1100.053
1180.302, 1086.645
1180.784, 1085.274
1181.266, 1099.111
1181.748, 1111.551
1182.230, 1108.252
1182.712, 1100.137
1183.194, 1091.685
1183.676, 1085.125
1184.158, 1090.021
1184.641, 1107.736
1185.123, 1120.369
1185.605, 1123.286
1186.087, 1121.123
1186.569, 1112.561
1187.051, 1104.930
1187.533, 1107.386
1188.015, 1120.993
1188.498, 1130.587
1188.980, 1136.283
1189.462, 1135.735
1189.944, 1124.606
1190.426, 1112.216
1190.908, 1110.035
1191.390, 1113.618
1191.872, 1116.592
1192.354, 1118.019
1192.837, 1119.083
1193.319, 1119.890
1193.801, 1120.003
1194.283, 1116.611
1194.765, 1114.194
1195.247, 1123.891
1195.729, 1139.130
1196.211, 1141.434
1196.693, 1119.191
1197.176, 1103.785
1197.658, 1097.018
1198.140, 1097.960
1198.622, 1111.737
1199.104, 1129.169
1199.586, 1137.397
1200.068, 1136.188
1200.550, 1130.025
1201.033, 1114.931
1201.515, 1105.311
1201.997, 1104.277
1202.479, 1108.113
1202.961, 1110.570
1203.443, 1114.635
1203.925, 1129.694
1204.407, 1158.145
1204.890, 1169.017
1205.372, 1147.006
1205.854, 1129.023
1206.336, 1128.019
1206.818, 1136.448
1207.300, 1143.193
1207.782, 1146.908
1208.264, 1142.685
1208.746, 1123.912
1209.229, 1118.085
1209.711, 1136.742
1210.193, 1152.652
1210.675, 1149.115
1211.157, 1134.410
1211.639, 1128.151
1212.121, 1128.209
1212.603, 1128.942
1213.085, 1129.112
1213.568, 1128.757
1214.050, 1128.328
1214.532, 1126.784
1215.014, 1119.691
1215.496, 1111.586
1215.978, 1121.234
1216.460, 1143.496
1216.942, 1157.306
1217.425, 1145.646
1217.907, 1135.555
1218.389, 1130.131
1218.871, 1130.034
1219.353, 1139.823
1219.835, 1154.950
1220.317, 1163.353
1220.799, 1164.376
1221.281, 1160.211
1221.764, 1142.256
1222.246, 1132.957
1222.728, 1141.479
1223.210, 1154.894
1223.692, 1147.794
1224.174, 1129.185
1224.656, 1125.735
1225.138, 1141.906
1225.620, 1153.342
1226.103, 1146.783
1226.585, 1138.274
1227.067, 1130.126
1227.549, 1125.411
1228.031, 1137.104
1228.513, 1157.276
1228.995, 1162.717
1229.477, 1144.855
1229.960, 1129.215
1230.442, 1122.399
1230.924, 1121.372
1231.406, 1128.734
1231.888, 1138.270
1232.370, 1128.036
1232.852, 1105.307
1233.334, 1089.793
1233.816, 1089.117
1234.299, 1093.828
1234.781, 1103.635
1235.263, 1115.334
1235.745, 1128.190
1236.227, 1140.777
1236.709, 1149.345
1237.191, 1153.890
1237.673, 1154.358
1238.156, 1147.086
1238.638, 1140.956
1239.120, 1137.344
1239.602, 1134.622
1240.084, 1130.372
1240.566, 1126.211
1241.048, 1129.061
1241.530, 1136.814
1242.012, 1139.917
1242.495, 1129.755
1242.977, 1120.964
1243.459, 1113.990
1243.941, 1112.279
1244.423, 1125.150
1244.905, 1144.539
1245.387, 1151.372
1245.869, 1145.912
1246.351, 1139.823
1246.834, 1133.250
1247.316, 1133.039
1247.798, 1143.284
1248.280, 1154.042
1248.762, 1149.660
1249.244, 1136.794
1249.726, 1127.267
1250.208, 1122.251
1250.691, 1118.275
1251.173, 1112.348
1251.655, 1112.873
1252.137, 1124.896
1252.619, 1137.977
1253.101, 1131.310
1253.583, 1116.582
1254.065, 1114.707
1254.547, 1130.571
1255.030, 1137.121
1255.512, 1128.670
1255.994, 1121.325
1256.476, 1121.280
1256.958, 1124.166
1257.440, 1124.551
1257.922, 1122.826
1258.404, 1118.614
1258.886, 1110.171
1259.369, 1108.391
1259.851, 1114.693
1260.333, 1122.526
1260.815, 1130.627
1261.297, 1136.117
1261.779, 1135.818
1262.261, 1130.225
1262.743, 1117.920
1263.226, 1093.628
1263.708, 1088.341
1264.190, 1105.758
1264.672, 1116.971
1265.154, 1096.585
1265.636, 1071.391
1266.118, 1072.842
1266.600, 1086.820
1267.083, 1089.616
1267.565, 1077.016
1268.047, 1065.283
1268.529, 1054.185
1269.011, 1047.278
1269.493, 1046.890
1269.975, 1051.627
1270.457, 1066.370
1270.939, 1082.920
1271.422, 1086.266
1271.904, 1074.116
1272.386, 1070.056
1272.868, 1074.893
1273.350, 1077.705
1273.832, 1068.106
1274.314, 1056.891
1274.796, 1051.751
1275.278, 1048.860
1275.761, 1040.542
1276.243, 1027.278
1276.725, 1024.065
1277.207, 1031.690
1277.689, 1037.375
1278.171, 1031.541
1278.653, 1023.468
1279.135, 1017.023
1279.618, 1011.336
1280.100, 1002.371
1280.582, 992.1313
1281.064, 995.3533
1281.546, 1013.353
1282.028, 1023.351
1282.510, 1003.749
1282.992, 986.1402
1283.474, 979.9069
1283.957, 981.7705
1284.439, 991.2702
1284.921, 1003.135
1285.403, 998.5963
1285.885, 974.4839
1286.367, 960.2958
1286.849, 977.3370
1287.331, 986.6915
##END=



