##NAMES=Hematophanite
##RRUFFID=R070638
##IDEAL CHEMISTRY=Pb^2+^_4_Fe^3+^_3_O_8_Cl
##LOCALITY=Kombat mine, Kombat, Grootfontein District, Otjozondjupa Region, Namibia
##OWNER=RRUFF
##SOURCE=William W. Pinch
##DESCRIPTION=Submetallic deep red-brown tabular crystals with colorless calcite, also associated with R070639 britvinite
##STATUS=The identification of this mineral has been confirmed by single-crystal X-ray diffraction.
##URL=rruff.info/R070638
##MEASURED CHEMISTRY=Pb_4.00_(Fe^3+^_2.99_Mn^3+^_0.01_)_Î£=3_O_8_Cl_1.00_ ; Mn^3+^ by charge balance
123.3804, 3120.825
123.8625, 3119.424
124.3446, 3108.245
124.8267, 3096.351
125.3088, 3091.269
125.7909, 3093.619
126.2731, 3094.293
126.7552, 3083.034
127.2373, 3076.283
127.7194, 3086.004
128.2015, 3113.212
128.6837, 3145.600
129.1658, 3164.231
129.6479, 3160.009
130.1300, 3159.130
130.6121, 3162.782
131.0942, 3170.433
131.5764, 3183.201
132.0585, 3201.500
132.5406, 3222.748
133.0227, 3237.532
133.5048, 3234.167
133.9869, 3236.769
134.4691, 3252.237
134.9512, 3275.372
135.4333, 3298.334
135.9154, 3316.958
136.3975, 3330.732
136.8796, 3333.709
137.3618, 3313.455
137.8439, 3295.894
138.3260, 3296.464
138.8081, 3313.761
139.2902, 3333.490
139.7723, 3346.192
140.2545, 3350.640
140.7366, 3343.955
141.2187, 3312.296
141.7008, 3275.536
142.1829, 3259.061
142.6650, 3270.137
143.1472, 3284.151
143.6293, 3270.532
144.1114, 3235.487
144.5935, 3207.460
145.0756, 3204.322
145.5577, 3218.435
146.0399, 3224.831
146.5220, 3219.921
147.0041, 3204.352
147.4862, 3178.351
147.9683, 3142.450
148.4504, 3104.079
148.9326, 3068.853
149.4147, 3036.608
149.8968, 3006.797
150.3789, 2982.569
150.8610, 2958.810
151.3431, 2932.293
151.8252, 2902.367
152.3074, 2871.419
152.7895, 2843.832
153.2716, 2822.408
153.7537, 2798.031
154.2358, 2765.408
154.7179, 2731.720
155.2001, 2704.844
155.6822, 2688.110
156.1643, 2676.319
156.6464, 2653.198
157.1285, 2600.654
157.6106, 2556.518
158.0928, 2528.619
158.5749, 2510.536
159.0570, 2492.900
159.5391, 2469.863
160.0212, 2442.425
160.5033, 2423.235
160.9855, 2418.711
161.4676, 2414.545
161.9497, 2406.827
162.4318, 2395.847
162.9139, 2382.984
163.3960, 2368.524
163.8782, 2352.542
164.3603, 2341.909
164.8424, 2342.187
165.3245, 2342.924
165.8066, 2336.370
166.2887, 2322.202
166.7709, 2306.835
167.2530, 2295.726
167.7351, 2288.971
168.2172, 2284.487
168.6993, 2282.751
169.1814, 2282.937
169.6636, 2284.275
170.1457, 2286.823
170.6278, 2289.910
171.1099, 2293.656
171.5920, 2297.853
172.0741, 2300.322
172.5563, 2297.725
173.0384, 2292.519
173.5205, 2292.147
174.0026, 2299.628
174.4847, 2309.936
174.9668, 2321.788
175.4490, 2334.609
175.9311, 2339.802
176.4132, 2325.109
176.8953, 2291.264
177.3774, 2269.064
177.8595, 2271.909
178.3417, 2282.254
178.8238, 2290.591
179.3059, 2295.745
179.7880, 2298.698
180.2701, 2300.394
180.7522, 2300.833
181.2344, 2299.925
181.7165, 2291.501
182.1986, 2285.611
182.6807, 2291.474
183.1628, 2311.105
183.6449, 2334.932
184.1271, 2346.138
184.6092, 2337.108
185.0913, 2329.904
185.5734, 2329.443
186.0555, 2330.278
186.5376, 2326.170
187.0198, 2314.651
187.5019, 2300.592
187.9840, 2296.661
188.4661, 2310.047
188.9482, 2325.969
189.4303, 2345.435
189.9125, 2366.013
190.3946, 2385.019
190.8767, 2401.291
191.3588, 2415.003
191.8409, 2427.384
192.3230, 2440.650
192.8052, 2450.102
193.2873, 2449.788
193.7694, 2445.295
194.2515, 2446.041
194.7336, 2457.802
195.2157, 2479.699
195.6979, 2504.557
196.1800, 2540.502
196.6621, 2570.569
197.1442, 2585.284
197.6263, 2588.157
198.1084, 2590.101
198.5906, 2598.373
199.0727, 2612.655
199.5548, 2625.947
200.0369, 2632.578
200.5190, 2642.870
201.0011, 2666.250
201.4833, 2701.482
201.9654, 2735.431
202.4475, 2757.531
202.9296, 2768.762
203.4117, 2784.018
203.8938, 2810.463
204.3760, 2836.960
204.8581, 2849.367
205.3402, 2846.103
205.8223, 2847.123
206.3044, 2874.052
206.7865, 2919.613
207.2687, 2957.388
207.7508, 2979.994
208.2329, 2992.919
208.7150, 2999.803
209.1971, 2997.651
209.6792, 3001.601
210.1614, 3033.386
210.6435, 3081.679
211.1256, 3119.852
211.6077, 3133.241
212.0898, 3130.458
212.5719, 3127.990
213.0541, 3122.713
213.5362, 3126.234
214.0183, 3156.278
214.5004, 3201.880
214.9825, 3234.994
215.4646, 3232.935
215.9468, 3204.185
216.4289, 3183.176
216.9110, 3168.873
217.3931, 3166.699
217.8752, 3184.991
218.3573, 3217.232
218.8395, 3244.688
219.3216, 3250.578
219.8037, 3237.048
220.2858, 3231.405
220.7679, 3237.561
221.2500, 3248.693
221.7322, 3265.644
222.2143, 3285.577
222.6964, 3300.952
223.1785, 3303.577
223.6606, 3292.738
224.1427, 3285.298
224.6249, 3285.911
225.1070, 3285.987
225.5891, 3278.775
226.0712, 3266.890
226.5533, 3259.481
227.0354, 3266.531
227.5176, 3290.333
227.9997, 3312.319
228.4818, 3330.565
228.9639, 3348.447
229.4460, 3368.739
229.9281, 3390.339
230.4103, 3408.880
230.8924, 3416.725
231.3745, 3407.460
231.8566, 3417.416
232.3387, 3464.161
232.8208, 3513.872
233.3030, 3549.681
233.7851, 3572.059
234.2672, 3592.506
234.7493, 3624.045
235.2314, 3670.274
235.7135, 3714.981
236.1957, 3754.350
236.6778, 3795.677
237.1599, 3843.665
237.6420, 3898.050
238.1241, 3954.303
238.6062, 4006.543
239.0884, 4052.205
239.5705, 4102.826
240.0526, 4156.465
240.5347, 4215.078
241.0168, 4279.614
241.4989, 4350.350
241.9811, 4426.376
242.4632, 4507.761
242.9453, 4597.581
243.4274, 4683.615
243.9095, 4751.624
244.3916, 4826.269
244.8738, 4929.917
245.3559, 5062.140
245.8380, 5201.061
246.3201, 5320.955
246.8022, 5413.568
247.2843, 5511.653
247.7665, 5611.735
248.2486, 5719.556
248.7307, 5841.078
249.2128, 5976.315
249.6949, 6116.974
250.1770, 6252.169
250.6592, 6375.402
251.1413, 6520.483
251.6234, 6707.372
252.1055, 6901.065
252.5876, 7074.762
253.0697, 7224.714
253.5519, 7369.417
254.0340, 7525.652
254.5161, 7694.372
254.9982, 7876.946
255.4803, 8089.399
255.9624, 8303.902
256.4445, 8495.163
256.9267, 8660.579
257.4088, 8822.056
257.8909, 9005.308
258.3730, 9218.327
258.8551, 9404.611
259.3372, 9538.275
259.8194, 9661.207
260.3015, 9809.493
260.7836, 9986.564
261.2657, 10169.64
261.7478, 10338.73
262.2299, 10491.79
262.7121, 10633.15
263.1942, 10762.23
263.6763, 10879.46
264.1584, 10984.28
264.6405, 11076.80
265.1227, 11159.12
265.6048, 11232.48
266.0869, 11295.98
266.5690, 11349.69
267.0511, 11406.79
267.5332, 11445.69
268.0154, 11446.31
268.4975, 11407.87
268.9796, 11345.90
269.4617, 11270.98
269.9438, 11180.88
270.4259, 11080.25
270.9081, 10973.68
271.3902, 10853.41
271.8723, 10718.10
272.3544, 10565.88
272.8365, 10384.94
273.3186, 10154.56
273.8008, 9879.357
274.2829, 9629.714
274.7650, 9424.814
275.2471, 9232.259
275.7292, 9029.958
276.2113, 8818.251
276.6935, 8601.985
277.1756, 8384.821
277.6577, 8165.620
278.1398, 7949.606
278.6219, 7735.773
279.1040, 7524.840
279.5862, 7320.197
280.0683, 7120.349
280.5504, 6914.582
281.0325, 6689.496
281.5146, 6456.066
281.9967, 6254.006
282.4789, 6103.877
282.9610, 5964.470
283.4431, 5811.109
283.9252, 5645.902
284.4073, 5482.872
284.8894, 5327.642
285.3716, 5180.692
285.8537, 5039.064
286.3358, 4904.772
286.8179, 4773.386
287.3000, 4640.077
287.7821, 4506.714
288.2643, 4384.735
288.7464, 4281.399
289.2285, 4189.717
289.7106, 4089.992
290.1927, 3972.910
290.6748, 3865.153
291.1570, 3790.574
291.6391, 3737.274
292.1212, 3664.459
292.6033, 3546.179
293.0854, 3414.027
293.5675, 3336.477
294.0497, 3330.988
294.5318, 3320.711
295.0139, 3266.560
295.4960, 3185.138
295.9781, 3114.989
296.4602, 3070.255
296.9424, 3038.077
297.4245, 2996.962
297.9066, 2945.469
298.3887, 2894.734
298.8708, 2846.768
299.3529, 2802.068
299.8351, 2761.682
300.3172, 2725.969
300.7993, 2694.127
301.2814, 2666.242
301.7635, 2642.907
302.2456, 2617.761
302.7278, 2591.070
303.2099, 2561.269
303.6920, 2522.877
304.1741, 2473.549
304.6562, 2427.215
305.1383, 2401.782
305.6205, 2398.463
306.1026, 2393.591
306.5847, 2384.078
307.0668, 2371.610
307.5489, 2357.708
308.0310, 2342.522
308.5132, 2325.912
308.9953, 2306.681
309.4774, 2284.811
309.9595, 2267.157
310.4416, 2259.582
310.9237, 2252.377
311.4059, 2236.445
311.8880, 2212.103
312.3701, 2187.443
312.8522, 2167.972
313.3343, 2154.025
313.8164, 2142.055
314.2986, 2135.452
314.7807, 2127.799
315.2628, 2115.999
315.7449, 2100.089
316.2270, 2079.174
316.7091, 2049.941
317.1913, 2016.248
317.6734, 1999.661
318.1555, 2013.453
318.6376, 2027.158
319.1197, 2029.724
319.6018, 2023.546
320.0840, 2013.589
320.5661, 2001.429
321.0482, 1988.726
321.5303, 1981.776
322.0124, 1988.195
322.4945, 1989.211
322.9767, 1976.037
323.4588, 1956.225
323.9409, 1941.553
324.4230, 1936.672
324.9051, 1936.783
325.3872, 1932.240
325.8694, 1920.641
326.3515, 1908.555
326.8336, 1891.892
327.3157, 1877.189
327.7978, 1873.697
328.2799, 1883.281
328.7621, 1896.123
329.2442, 1898.524
329.7263, 1884.813
330.2084, 1873.832
330.6905, 1867.239
331.1726, 1862.056
331.6548, 1853.798
332.1369, 1843.222
332.6190, 1837.841
333.1011, 1847.157
333.5832, 1876.316
334.0653, 1890.252
334.5475, 1881.952
335.0296, 1868.064
335.5117, 1853.373
335.9938, 1839.754
336.4759, 1829.860
336.9580, 1826.694
337.4402, 1830.036
337.9223, 1825.004
338.4044, 1802.205
338.8865, 1781.560
339.3686, 1766.227
339.8507, 1756.797
340.3329, 1754.931
340.8150, 1762.260
341.2971, 1775.542
341.7792, 1780.823
342.2613, 1772.404
342.7434, 1762.362
343.2256, 1749.071
343.7077, 1736.122
344.1898, 1728.093
344.6719, 1726.704
345.1540, 1728.466
345.6361, 1725.922
346.1183, 1715.037
346.6004, 1707.739
347.0825, 1707.963
347.5646, 1709.363
348.0467, 1707.242
348.5288, 1700.746
349.0110, 1692.400
349.4931, 1685.015
349.9752, 1678.359
350.4573, 1673.516
350.9394, 1673.675
351.4215, 1672.954
351.9037, 1665.639
352.3858, 1653.888
352.8679, 1646.328
353.3500, 1653.089
353.8321, 1673.516
354.3142, 1685.748
354.7964, 1686.454
355.2785, 1682.030
355.7606, 1673.058
356.2427, 1661.391
356.7248, 1650.129
357.2069, 1640.544
357.6891, 1632.909
358.1712, 1628.382
358.6533, 1627.901
359.1354, 1628.457
359.6175, 1629.961
360.0996, 1631.364
360.5818, 1630.747
361.0639, 1626.414
361.5460, 1622.595
362.0281, 1626.784
362.5102, 1640.280
362.9923, 1649.927
363.4745, 1646.544
363.9566, 1640.671
364.4387, 1644.748
364.9208, 1661.675
365.4029, 1675.766
365.8850, 1671.939
366.3672, 1653.717
366.8493, 1640.726
367.3314, 1639.326
367.8135, 1641.206
368.2956, 1635.755
368.7777, 1623.709
369.2599, 1617.010
369.7420, 1627.511
370.2241, 1644.557
370.7062, 1647.012
371.1883, 1630.000
371.6704, 1613.513
372.1526, 1617.472
372.6347, 1637.983
373.1168, 1652.159
373.5989, 1654.038
374.0810, 1650.928
374.5631, 1648.891
375.0453, 1647.690
375.5274, 1643.120
376.0095, 1630.402
376.4916, 1613.226
376.9737, 1606.980
377.4558, 1622.652
377.9380, 1635.319
378.4201, 1633.288
378.9022, 1622.212
379.3843, 1611.600
379.8664, 1604.642
380.3485, 1602.801
380.8307, 1609.943
381.3128, 1633.406
381.7949, 1652.326
382.2770, 1664.113
382.7591, 1671.528
383.2412, 1677.459
383.7234, 1682.314
384.2055, 1683.547
384.6876, 1677.174
385.1697, 1659.545
385.6518, 1650.291
386.1339, 1650.454
386.6161, 1656.333
387.0982, 1671.153
387.5803, 1690.743
388.0624, 1704.245
388.5445, 1702.361
389.0266, 1687.472
389.5088, 1685.477
389.9909, 1708.948
390.4730, 1731.861
390.9551, 1750.915
391.4372, 1766.516
391.9193, 1779.645
392.4015, 1790.733
392.8836, 1799.333
393.3657, 1803.393
393.8478, 1798.736
394.3299, 1799.899
394.8120, 1813.354
395.2942, 1829.720
395.7763, 1843.463
396.2584, 1853.531
396.7405, 1861.197
397.2226, 1864.678
397.7047, 1863.853
398.1869, 1874.359
398.6690, 1907.952
399.1511, 1940.329
399.6332, 1954.744
400.1153, 1956.422
400.5974, 1960.919
401.0796, 1975.957
401.5617, 1999.477
402.0438, 2029.421
402.5259, 2068.513
403.0080, 2103.271
403.4901, 2121.708
403.9723, 2132.399
404.4544, 2148.002
404.9365, 2172.346
405.4186, 2199.221
405.9007, 2224.955
406.3828, 2249.214
406.8650, 2268.834
407.3471, 2279.317
407.8292, 2289.023
408.3113, 2315.523
408.7934, 2363.837
409.2755, 2401.105
409.7577, 2407.839
410.2398, 2401.051
410.7219, 2402.150
411.2040, 2414.975
411.6861, 2436.715
412.1682, 2467.925
412.6504, 2510.782
413.1325, 2537.209
413.6146, 2534.760
414.0967, 2528.106
414.5788, 2530.580
415.0609, 2540.705
415.5431, 2551.517
416.0252, 2559.005
416.5073, 2563.459
416.9894, 2566.287
417.4715, 2561.330
417.9536, 2562.381
418.4358, 2578.005
418.9179, 2596.975
419.4000, 2606.782
419.8821, 2603.852
420.3642, 2594.683
420.8463, 2588.760
421.3285, 2586.896
421.8106, 2586.219
422.2927, 2588.156
422.7748, 2589.951
423.2569, 2589.821
423.7390, 2588.194
424.2212, 2586.927
424.7033, 2587.650
425.1854, 2589.951
425.6675, 2591.343
426.1496, 2591.488
426.6317, 2591.184
427.1139, 2591.476
427.5960, 2591.310
428.0781, 2588.524
428.5602, 2581.214
429.0423, 2574.408
429.5244, 2574.516
430.0066, 2581.630
430.4887, 2591.875
430.9708, 2606.654
431.4529, 2621.867
431.9350, 2631.886
432.4171, 2636.339
432.8993, 2643.036
433.3814, 2659.191
433.8635, 2679.198
434.3456, 2689.748
434.8277, 2687.400
435.3098, 2689.623
435.7920, 2712.316
436.2741, 2754.983
436.7562, 2798.375
437.2383, 2845.148
437.7204, 2889.406
438.2025, 2927.912
438.6847, 2961.165
439.1668, 2990.443
439.6489, 3015.847
440.1310, 3039.146
440.6131, 3065.153
441.0952, 3099.341
441.5774, 3128.723
442.0595, 3145.804
442.5416, 3162.025
443.0237, 3191.483
443.5058, 3234.610
443.9879, 3276.569
444.4701, 3300.352
444.9522, 3303.401
445.4343, 3305.760
445.9164, 3309.594
446.3985, 3310.479
446.8806, 3309.999
447.3628, 3305.074
447.8449, 3290.280
448.3270, 3262.020
448.8091, 3223.581
449.2912, 3181.635
449.7733, 3134.524
450.2555, 3088.849
450.7376, 3055.834
451.2197, 3018.963
451.7018, 2960.565
452.1839, 2878.452
452.6660, 2796.364
453.1482, 2735.216
453.6303, 2690.816
454.1124, 2645.045
454.5945, 2596.136
455.0766, 2544.108
455.5587, 2486.536
456.0409, 2425.360
456.5230, 2367.440
457.0051, 2315.446
457.4872, 2265.832
457.9693, 2214.957
458.4514, 2163.129
458.9336, 2112.906
459.4157, 2064.647
459.8978, 2019.827
460.3799, 1983.500
460.8620, 1957.929
461.3441, 1934.873
461.8262, 1913.817
462.3083, 1894.083
462.7905, 1876.595
463.2726, 1860.829
463.7547, 1842.306
464.2368, 1814.782
464.7189, 1775.882
465.2010, 1749.315
465.6832, 1743.621
466.1653, 1740.505
466.6474, 1735.640
467.1295, 1729.167
467.6116, 1721.352
468.0938, 1712.108
468.5759, 1703.575
469.0580, 1701.996
469.5401, 1711.693
470.0222, 1715.998
470.5043, 1702.838
470.9865, 1690.102
471.4686, 1692.551
471.9507, 1709.669
472.4328, 1724.468
472.9149, 1722.672
473.3970, 1708.149
473.8792, 1693.429
474.3613, 1677.328
474.8434, 1666.287
475.3255, 1669.418
475.8076, 1680.150
476.2897, 1684.540
476.7719, 1675.367
477.2540, 1666.015
477.7361, 1668.888
478.2182, 1679.413
478.7003, 1683.191
479.1824, 1674.687
479.6646, 1659.792
480.1467, 1647.465
480.6288, 1638.715
481.1109, 1629.238
481.5930, 1616.431
482.0751, 1604.754
482.5573, 1598.694
483.0394, 1597.157
483.5215, 1594.597
484.0036, 1586.463
484.4857, 1574.328
484.9678, 1569.042
485.4500, 1582.218
485.9321, 1586.594
486.4142, 1571.989
486.8963, 1550.977
487.3784, 1536.028
487.8605, 1530.173
488.3427, 1526.711
488.8248, 1517.396
489.3069, 1501.891
489.7890, 1488.553
490.2711, 1477.501
490.7532, 1469.252
491.2354, 1466.176
491.7175, 1465.708
492.1996, 1461.618
492.6817, 1449.978
493.1638, 1435.317
493.6459, 1421.065
494.1281, 1407.521
494.6102, 1399.954
495.0923, 1402.716
495.5744, 1409.647
496.0565, 1409.480
496.5386, 1400.995
497.0208, 1392.892
497.5029, 1388.023
497.9850, 1383.963
498.4671, 1379.728
498.9492, 1374.519
499.4313, 1363.761
499.9135, 1341.307
500.3956, 1309.454
500.8777, 1298.611
501.3598, 1334.823
501.8419, 1360.816
502.3240, 1361.411
502.8062, 1349.804
503.2883, 1340.287
503.7704, 1337.351
504.2525, 1337.252
504.7346, 1335.070
505.2167, 1330.367
505.6989, 1327.005
506.1810, 1327.376
506.6631, 1326.404
507.1452, 1319.816
507.6273, 1310.246
508.1094, 1303.508
508.5916, 1302.234
509.0737, 1304.714
509.5558, 1310.511
510.0379, 1319.384
510.5200, 1324.114
511.0021, 1319.564
511.4843, 1312.844
511.9664, 1316.698
512.4485, 1333.115
512.9306, 1343.840
513.4127, 1339.240
513.8948, 1330.021
514.3770, 1326.773
514.8591, 1329.791
515.3412, 1333.729
515.8233, 1334.983
516.3054, 1333.874
516.7875, 1332.415
517.2697, 1330.694
517.7518, 1328.475
518.2339, 1321.942
518.7160, 1317.046
519.1981, 1322.164
519.6802, 1337.635
520.1624, 1353.048
520.6445, 1355.312
521.1266, 1343.967
521.6087, 1338.848
522.0908, 1345.026
522.5729, 1350.000
523.0551, 1345.490
523.5372, 1337.058
524.0193, 1333.724
524.5014, 1339.253
524.9835, 1348.091
525.4656, 1356.277
525.9478, 1363.435
526.4299, 1367.323
526.9120, 1366.626
527.3941, 1364.348
527.8762, 1364.340
528.3583, 1366.771
528.8405, 1367.064
529.3226, 1359.982
529.8047, 1354.880
530.2868, 1358.053
530.7689, 1368.342
531.2510, 1383.329
531.7332, 1402.412
532.2153, 1421.444
532.6974, 1429.550
533.1795, 1417.764
533.6616, 1411.228
534.1437, 1416.576
534.6259, 1421.530
535.1080, 1413.458
535.5901, 1396.726
536.0722, 1389.240
536.5543, 1408.170
537.0364, 1443.204
537.5186, 1460.668
538.0007, 1456.387
538.4828, 1450.479
538.9649, 1447.831
539.4470, 1412.176
539.9291, 1462.374
540.4113, 1492.907
540.8934, 1504.825
541.3755, 1442.389
541.8576, 1475.968
542.3397, 1471.068
542.8218, 1464.590
543.3040, 1511.683
543.7861, 1460.062
544.2682, 1506.304
544.7503, 1513.482
545.2324, 1538.538
545.7145, 1524.878
546.1967, 1523.178
546.6788, 1560.204
547.1609, 1575.787
547.6430, 1557.671
548.1251, 1583.864
548.6072, 1530.890
549.0894, 1565.330
549.5715, 1571.406
550.0536, 1559.354
550.5357, 1548.920
551.0178, 1549.575
551.4999, 1555.233
551.9821, 1557.772
552.4642, 1554.816
552.9463, 1548.651
553.4284, 1538.461
553.9105, 1526.238
554.3926, 1520.693
554.8748, 1524.249
555.3569, 1531.776
555.8390, 1539.665
556.3211, 1547.804
556.8032, 1553.535
557.2853, 1558.495
557.7675, 1559.286
558.2496, 1550.913
558.7317, 1538.078
559.2138, 1528.854
559.6959, 1526.140
560.1780, 1526.842
560.6602, 1526.304
561.1423, 1523.843
561.6244, 1522.909
562.1065, 1527.964
562.5886, 1530.104
563.0707, 1522.824
563.5529, 1511.006
564.0350, 1503.575
564.5171, 1504.779
564.9992, 1510.615
565.4813, 1517.907
565.9634, 1526.283
566.4456, 1529.076
566.9277, 1523.174
567.4098, 1514.123
567.8919, 1507.524
568.3740, 1503.106
568.8561, 1498.413
569.3383, 1489.253
569.8204, 1483.206
570.3025, 1489.508
570.7846, 1502.644
571.2667, 1508.150
571.7488, 1499.856
572.2310, 1485.783
572.7131, 1480.962
573.1952, 1491.223
573.6773, 1494.908
574.1594, 1486.062
574.6415, 1476.939
575.1237, 1471.323
575.6058, 1469.647
576.0879, 1472.621
576.5700, 1482.043
577.0521, 1492.361
577.5342, 1493.423
578.0164, 1485.155
578.4985, 1480.762
578.9806, 1486.824
579.4627, 1492.454
579.9448, 1481.949
580.4269, 1457.679
580.9091, 1442.409
581.3912, 1446.112
581.8733, 1454.976
582.3554, 1461.858
582.8375, 1466.150
583.3196, 1467.244
583.8018, 1464.821
584.2839, 1460.106
584.7660, 1454.776
585.2481, 1447.272
585.7302, 1443.766
586.2123, 1446.470
586.6945, 1450.698
587.1766, 1457.690
587.6587, 1464.323
588.1408, 1464.247
588.6229, 1453.223
589.1050, 1438.636
589.5872, 1430.235
590.0693, 1427.905
590.5514, 1430.302
591.0335, 1439.411
591.5156, 1449.097
591.9977, 1454.852
592.4799, 1456.600
592.9620, 1450.902
593.4441, 1427.973
593.9262, 1406.664
594.4083, 1396.341
594.8904, 1395.941
595.3726, 1406.500
595.8547, 1427.971
596.3368, 1449.309
596.8189, 1453.396
597.3010, 1436.080
597.7831, 1421.464
598.2653, 1408.540
598.7474, 1399.757
599.2295, 1400.607
599.7116, 1404.822
600.1937, 1401.755
600.6758, 1386.414
601.1580, 1369.724
601.6401, 1364.965
602.1222, 1369.511
602.6043, 1370.026
603.0864, 1363.653
603.5685, 1355.821
604.0507, 1349.667
604.5328, 1345.807
605.0149, 1347.164
605.4970, 1365.468
605.9791, 1375.242
606.4612, 1359.591
606.9434, 1334.031
607.4255, 1318.776
607.9076, 1318.076
608.3897, 1322.086
608.8718, 1320.972
609.3539, 1314.792
609.8361, 1305.350
610.3182, 1285.201
610.8003, 1274.410
611.2824, 1288.964
611.7645, 1310.479
612.2466, 1318.941
612.7288, 1310.345
613.2109, 1297.026
613.6930, 1281.894
614.1751, 1269.185
614.6572, 1270.264
615.1393, 1285.577
615.6215, 1297.170
616.1036, 1293.111
616.5857, 1277.563
617.0678, 1265.521
617.5499, 1256.200
618.0320, 1251.623
618.5142, 1258.251
618.9963, 1264.775
619.4784, 1259.843
619.9605, 1245.960
620.4426, 1234.474
620.9247, 1232.149
621.4069, 1239.160
621.8890, 1262.674
622.3711, 1309.352
622.8532, 1331.786
623.3353, 1303.650
623.8174, 1260.409
624.2996, 1236.369
624.7817, 1230.629
625.2638, 1232.583
625.7459, 1246.119
626.2280, 1260.510
626.7101, 1268.169
627.1923, 1269.824
627.6744, 1267.348
628.1565, 1261.413
628.6386, 1254.479
629.1207, 1250.429
629.6028, 1249.499
630.0850, 1250.468
630.5671, 1256.401
631.0492, 1261.075
631.5313, 1262.604
632.0134, 1261.554
632.4955, 1257.809
632.9777, 1250.516
633.4598, 1245.522
633.9419, 1252.241
634.4240, 1266.125
634.9061, 1270.356
635.3882, 1261.581
635.8704, 1251.903
636.3525, 1250.226
636.8346, 1255.370
637.3167, 1259.779
637.7988, 1263.488
638.2809, 1266.509
638.7631, 1266.962
639.2452, 1267.979
639.7273, 1272.636
640.2094, 1281.007
640.6915, 1291.412
641.1736, 1303.564
641.6558, 1315.870
642.1379, 1321.645
642.6200, 1319.400
643.1021, 1316.723
643.5842, 1311.891
644.0663, 1311.278
644.5485, 1324.021
645.0306, 1349.619
645.5127, 1370.278
645.9948, 1372.599
646.4769, 1375.442
646.9590, 1397.950
647.4412, 1432.897
647.9233, 1461.213
648.4054, 1475.342
648.8875, 1481.127
649.3696, 1485.992
649.8517, 1488.241
650.3339, 1498.340
650.8160, 1524.249
651.2981, 1548.629
651.7802, 1562.848
652.2623, 1573.354
652.7444, 1590.354
653.2266, 1617.458
653.7087, 1644.626
654.1908, 1661.940
654.6729, 1674.275
655.1550, 1692.205
655.6371, 1716.854
656.1193, 1745.776
656.6014, 1779.321
657.0835, 1814.390
657.5656, 1838.497
658.0477, 1836.430
658.5298, 1844.216
659.0120, 1872.294
659.4941, 1901.761
659.9762, 1918.922
660.4583, 1925.829
660.9404, 1932.712
661.4225, 1945.834
661.9047, 1961.354
662.3868, 1973.136
662.8689, 1981.264
663.3510, 1986.693
663.8331, 1989.030
664.3152, 1990.301
664.7974, 1995.282
665.2795, 2002.854
665.7616, 1996.663
666.2437, 1958.569
666.7258, 1927.369
667.2079, 1925.233
667.6901, 1934.128
668.1722, 1930.262
668.6543, 1909.879
669.1364, 1887.175
669.6185, 1876.068
670.1006, 1874.122
670.5828, 1867.713
671.0649, 1858.301
671.5470, 1839.137
672.0291, 1801.164
672.5112, 1757.222
672.9933, 1720.066
673.4755, 1689.920
673.9576, 1667.239
674.4397, 1660.715
674.9218, 1654.267
675.4039, 1630.995
675.8860, 1597.950
676.3682, 1573.638
676.8503, 1565.257
677.3324, 1563.144
677.8145, 1553.350
678.2966, 1534.921
678.7787, 1516.146
679.2609, 1494.201
679.7430, 1476.413
680.2251, 1470.838
680.7072, 1468.408
681.1893, 1456.089
681.6714, 1430.225
682.1536, 1405.804
682.6357, 1393.653
683.1178, 1386.592
683.5999, 1374.911
684.0820, 1358.615
684.5641, 1341.435
685.0463, 1324.361
685.5284, 1311.555
686.0105, 1315.200
686.4926, 1350.193
686.9747, 1366.136
687.4568, 1344.505
687.9390, 1322.221
688.4211, 1317.603
688.9032, 1322.369
689.3853, 1318.592
689.8674, 1297.843
690.3495, 1277.737
690.8317, 1276.336
691.3138, 1285.825
691.7959, 1290.640
692.2780, 1288.521
692.7601, 1277.290
693.2422, 1252.998
693.7244, 1221.150
694.2065, 1203.558
694.6886, 1209.839
695.1707, 1215.357
695.6528, 1223.096
696.1349, 1226.553
696.6171, 1219.550
697.0992, 1205.005
697.5813, 1190.899
698.0634, 1180.758
698.5455, 1172.730
699.0276, 1164.759
699.5098, 1157.124
699.9919, 1151.390
700.4740, 1148.096
700.9561, 1143.783
701.4382, 1134.845
701.9203, 1122.305
702.4025, 1114.300
702.8846, 1116.634
703.3667, 1115.816
703.8488, 1107.087
704.3309, 1097.929
704.8130, 1095.640
705.2952, 1098.498
705.7773, 1097.894
706.2594, 1087.171
706.7415, 1073.436
707.2236, 1067.922
707.7057, 1069.052
708.1879, 1067.079
708.6700, 1059.528
709.1521, 1050.065
709.6342, 1041.729
710.1163, 1034.506
710.5984, 1028.875
711.0806, 1024.030
711.5627, 1021.737
712.0448, 1026.773
712.5269, 1031.215
713.0090, 1025.823
713.4911, 1012.281
713.9733, 1001.806
714.4554, 1002.657
714.9375, 1009.224
715.4196, 1013.253
715.9017, 1014.893
716.3839, 1014.718
716.8660, 1012.304
717.3481, 1011.028
717.8302, 1016.121
718.3123, 1027.495
718.7944, 1027.007
719.2766, 1003.486
719.7587, 983.5682
720.2408, 970.1138
720.7229, 963.3694
721.2050, 966.7468
721.6871, 977.9681
722.1693, 987.0851
722.6514, 988.3322
723.1335, 983.1721
723.6156, 969.7766
724.0977, 950.2571
724.5798, 941.3929
725.0620, 949.0710
725.5441, 961.2002
726.0262, 965.8103
726.5083, 962.9044
726.9904, 959.4907
727.4725, 955.9998
727.9547, 951.4233
728.4368, 943.9155
728.9189, 936.4509
729.4010, 930.7434
729.8831, 927.4859
730.3652, 928.1121
730.8474, 936.0300
731.3295, 945.6345
731.8116, 948.0210
732.2937, 944.5220
732.7758, 941.7159
733.2579, 941.2554
733.7401, 942.0874
734.2222, 943.8462
734.7043, 946.3374
735.1864, 944.3204
735.6685, 929.6483
736.1506, 921.3233
736.6328, 927.9276
737.1149, 936.7050
737.5970, 936.7571
738.0791, 928.8676
738.5612, 921.7013
739.0433, 920.5620
739.5255, 921.1228
740.0076, 916.8235
740.4897, 910.0293
740.9718, 909.7988
741.4539, 918.2303
741.9360, 926.4149
742.4182, 926.1822
742.9003, 918.4528
743.3824, 910.9819
743.8645, 901.0186
744.3466, 896.1885
744.8287, 902.2141
745.3109, 909.2029
745.7930, 911.1071
746.2751, 908.2167
746.7572, 903.0529
747.2393, 893.9725
747.7214, 886.8047
748.2036, 888.4265
748.6857, 894.8682
749.1678, 898.6560
749.6499, 898.5426
750.1320, 896.9013
750.6141, 895.6592
751.0963, 894.1639
751.5784, 888.9131
752.0605, 876.3837
752.5426, 870.1110
753.0247, 874.8685
753.5068, 883.0946
753.9890, 895.0378
754.4711, 906.5920
754.9532, 905.6265
755.4353, 880.5177
755.9174, 859.4288
756.3995, 859.6064
756.8817, 869.9636
757.3638, 879.2510
757.8459, 885.4144
758.3280, 888.4051
758.8101, 887.9981
759.2922, 885.3967
759.7744, 883.5122
760.2565, 882.7034
760.7386, 878.5005
761.2207, 867.8548
761.7028, 859.0090
762.1849, 858.4909
762.6671, 863.2939
763.1492, 865.9066
763.6313, 866.8250
764.1134, 864.0675
764.5955, 852.5267
765.0776, 841.1943
765.5598, 836.3809
766.0419, 837.4346
766.5240, 842.0175
767.0061, 849.2063
767.4882, 857.0107
767.9703, 863.9533
768.4525, 869.5455
768.9346, 870.0862
769.4167, 864.8774
769.8988, 858.2592
770.3809, 850.5804
770.8630, 845.1877
771.3452, 849.8487
771.8273, 871.5441
772.3094, 882.8131
772.7915, 873.7114
773.2736, 865.7536
773.7557, 873.6403
774.2379, 885.0916
774.7200, 879.6592
775.2021, 853.5457
775.6842, 830.8696
776.1663, 833.2308
776.6484, 848.3021
777.1306, 857.8444
777.6127, 862.0278
778.0948, 864.3215
778.5769, 865.8917
779.0590, 866.1686
779.5411, 863.8187
780.0233, 858.6801
780.5054, 858.3292
780.9875, 867.6666
781.4696, 873.6784
781.9517, 868.6812
782.4338, 862.6591
782.9160, 864.4292
783.3981, 873.5154
783.8802, 882.0873
784.3623, 889.0694
784.8444, 893.0751
785.3265, 892.1279
785.8087, 888.0903
786.2908, 883.4568
786.7729, 878.8479
787.2550, 873.7214
787.7371, 867.0219
788.2192, 860.7957
788.7014, 862.4556
789.1835, 873.1082
789.6656, 880.4622
790.1477, 881.7498
790.6298, 880.6671
791.1119, 877.6127
791.5941, 874.3848
792.0762, 879.2056
792.5583, 903.8218
793.0404, 917.5990
793.5225, 906.2955
794.0046, 891.2164
794.4868, 887.5518
794.9689, 892.5297
795.4510, 896.5817
795.9331, 895.6550
796.4152, 893.3885
796.8973, 893.7823
797.3795, 895.7385
797.8616, 895.6975
798.3437, 893.6578
798.8258, 894.1688
799.3079, 899.9111
799.7900, 907.8086
800.2722, 911.7692
800.7543, 909.9839
801.2364, 913.0927
801.7185, 928.0972
802.2006, 938.3401
802.6827, 937.1201
803.1649, 929.6738
803.6470, 920.2879
804.1291, 909.4354
804.6112, 900.6577
805.0933, 894.2107
805.5754, 891.3246
806.0576, 895.1442
806.5397, 902.5063
807.0218, 908.5023
807.5039, 911.8017
807.9860, 912.6418
808.4681, 910.2148
808.9503, 906.5173
809.4324, 909.0706
809.9145, 918.3680
810.3966, 925.0181
810.8787, 926.5128
811.3608, 925.9323
811.8430, 925.5244
812.3251, 925.2872
812.8072, 925.2214
813.2893, 925.5460
813.7714, 925.7122
814.2535, 925.9560
814.7357, 925.7720
815.2178, 923.8011
815.6999, 921.2819
816.1820, 921.5170
816.6641, 926.4946
817.1462, 930.7037
817.6284, 928.3930
818.1105, 923.0404
818.5926, 921.0132
819.0747, 921.8746
819.5568, 920.6425
820.0389, 914.9317
820.5211, 907.1746
821.0032, 900.7827
821.4853, 895.6655
821.9674, 893.1757
822.4495, 892.7346
822.9316, 896.9163
823.4138, 913.4099
823.8959, 929.4481
824.3780, 924.9162
824.8601, 899.2867
825.3422, 883.0251
825.8243, 885.8742
826.3065, 890.9761
826.7886, 892.0325
827.2707, 891.8531
827.7528, 895.8707
828.2349, 902.7818
828.7170, 903.3620
829.1992, 888.4461
829.6813, 870.7343
830.1633, 868.5822
830.6454, 877.8729
831.1276, 885.9796
831.6097, 890.8362
832.0918, 894.2953
832.5739, 898.2431
833.0560, 900.1360
833.5381, 890.9163
834.0203, 863.8787
834.5024, 849.1725
834.9845, 854.6661
835.4666, 862.5211
835.9487, 863.7977
836.4308, 862.0914
836.9130, 862.4371
837.3951, 865.3099
837.8772, 869.1284
838.3593, 874.1602
838.8414, 879.3441
839.3235, 887.3983
839.8057, 893.7230
840.2878, 888.6804
840.7699, 871.9235
841.2520, 857.7228
841.7341, 858.7083
842.2162, 868.6264
842.6984, 878.7836
843.1805, 888.1695
843.6626, 889.6344
844.1447, 881.2802
844.6268, 872.2249
845.1089, 870.1401
845.5911, 873.7349
846.0732, 876.9281
846.5553, 878.7329
847.0374, 883.0710
847.5195, 895.1673
848.0016, 903.9314
848.4838, 900.1829
848.9659, 889.4996
849.4480, 882.2692
849.9301, 879.4044
850.4122, 879.7125
850.8943, 887.2787
851.3765, 893.6418
851.8586, 889.7162
852.3407, 881.6038
852.8228, 880.5665
853.3049, 889.4232
853.7870, 900.7401
854.2692, 909.5479
854.7513, 915.6980
855.2334, 918.3361
855.7155, 917.8811
856.1976, 915.3633
856.6797, 910.9943
857.1619, 908.7227
857.6440, 912.3480
858.1261, 921.0608
858.6082, 931.4800
859.0903, 946.2100
859.5724, 954.0305
860.0546, 949.9127
860.5367, 943.6387
861.0188, 941.4707
861.5009, 941.9435
861.9830, 941.2651
862.4651, 937.6721
862.9473, 937.0485
863.4294, 942.6460
863.9115, 949.3113
864.3936, 953.2323
864.8757, 956.4294
865.3578, 963.9317
865.8400, 976.5406
866.3221, 985.6912
866.8042, 981.6005
867.2863, 972.8505
867.7684, 970.7198
868.2505, 973.9654
868.7327, 980.5126
869.2148, 989.1944
869.6969, 992.4409
870.1790, 982.1928
870.6611, 963.7965
871.1432, 955.8250
871.6254, 958.9745
872.1075, 968.5840
872.5896, 988.5931
873.0717, 1003.264
873.5538, 998.5531
874.0359, 982.9662
874.5181, 980.1585
875.0002, 997.9674
875.4823, 1011.350
875.9644, 1018.970
876.4465, 1023.503
876.9286, 1024.774
877.4108, 1024.249
877.8929, 1023.626
878.3750, 1023.161
878.8571, 1022.041
879.3392, 1015.730
879.8214, 1012.705
880.3035, 1024.942
880.7856, 1042.857
881.2677, 1050.181
881.7498, 1045.473
882.2319, 1037.624
882.7141, 1031.667
883.1962, 1029.447
883.6783, 1038.450
884.1604, 1055.670
884.6425, 1059.095
885.1246, 1045.516
885.6068, 1033.613
886.0889, 1033.694
886.5710, 1040.443
887.0531, 1043.720
887.5352, 1042.263
888.0173, 1045.406
888.4995, 1061.802
888.9816, 1067.858
889.4637, 1043.727
889.9458, 1015.431
890.4279, 1011.078
890.9100, 1028.777
891.3922, 1041.159
891.8743, 1039.693
892.3564, 1038.550
892.8385, 1047.065
893.3206, 1053.777
893.8027, 1043.912
894.2849, 1023.669
894.7670, 1012.582
895.2491, 1019.797
895.7312, 1030.488
896.2133, 1030.237
896.6954, 1026.591
897.1776, 1033.548
897.6597, 1048.035
898.1418, 1056.760
898.6239, 1055.049
899.1060, 1047.697
899.5881, 1038.293
900.0703, 1028.370
900.5524, 1025.302
901.0345, 1029.315
901.5166, 1036.234
901.9987, 1046.930
902.4808, 1052.971
902.9630, 1045.374
903.4451, 1028.724
903.9272, 1022.612
904.4093, 1035.689
904.8914, 1041.132
905.3735, 1028.766
905.8557, 1020.091
906.3378, 1029.529
906.8199, 1045.456
907.3020, 1050.993
907.7841, 1043.976
908.2662, 1035.655
908.7484, 1026.830
909.2305, 1019.446
909.7126, 1015.423
910.1947, 1012.749
910.6768, 1006.547
911.1589, 998.6157
911.6411, 999.5717
912.1232, 1020.303
912.6053, 1040.163
913.0874, 1034.142
913.5695, 1015.030
914.0516, 1004.113
914.5338, 1002.614
915.0159, 1004.262
915.4980, 1006.161
915.9801, 1008.515
916.4622, 1012.390
916.9443, 1017.169
917.4265, 1018.773
917.9086, 1017.169
918.3907, 1012.293
918.8728, 1002.898
919.3549, 995.4266
919.8370, 996.9897
920.3192, 1005.798
920.8013, 1009.305
921.2834, 1003.259
921.7655, 1002.580
922.2476, 1015.676
922.7297, 1025.171
923.2119, 1018.427
923.6940, 1002.802
924.1761, 990.2451
924.6582, 981.0993
925.1403, 975.1490
925.6224, 972.5661
926.1046, 972.9218
926.5867, 978.6542
927.0688, 985.5383
927.5509, 989.2307
928.0330, 989.4111
928.5151, 988.0568
928.9973, 985.7599
929.4794, 982.6863
929.9615, 976.6443
930.4436, 971.3558
930.9257, 973.5712
931.4078, 981.0707
931.8900, 985.2604
932.3721, 982.4561
932.8542, 977.6749
933.3363, 976.8173
933.8184, 978.2134
934.3005, 976.8568
934.7827, 973.3462
935.2648, 971.9062
935.7469, 973.6992
936.2290, 977.4041
936.7111, 982.2463
937.1932, 987.3990
937.6754, 989.4697
938.1575, 987.9302
938.6396, 988.0345
939.1217, 991.1926
939.6038, 993.2243
940.0859, 991.9222
940.5681, 988.0627
941.0502, 982.4303
941.5323, 973.8331
942.0144, 969.8062
942.4965, 976.4149
942.9786, 978.9243
943.4608, 967.7946
943.9429, 956.7319
944.4250, 959.1412
944.9071, 971.8994
945.3892, 979.7633
945.8713, 977.5880
946.3535, 975.4633
946.8356, 977.8965
947.3177, 979.3794
947.7998, 974.9351
948.2819, 967.3421
948.7640, 960.9101
949.2462, 956.7648
949.7283, 955.6502
950.2104, 960.3177
950.6925, 965.9291
951.1746, 967.8334
951.6567, 967.8868
952.1389, 969.4909
952.6210, 972.7067
953.1031, 974.8505
953.5852, 974.1455
954.0673, 972.8718
954.5494, 975.9585
955.0316, 980.4144
955.5137, 975.4949
955.9958, 962.7953
956.4779, 957.4709
956.9600, 965.1437
957.4421, 975.6271
957.9243, 977.5095
958.4064, 972.6508
958.8885, 968.7123
959.3706, 965.5436
959.8527, 967.6488
960.3348, 977.5283
960.8170, 983.6273
961.2991, 976.3085
961.7812, 963.3888
962.2633, 964.7954
962.7454, 986.8444
963.2275, 993.4067
963.7097, 972.9431
964.1918, 959.4636
964.6739, 968.6020
965.1560, 984.2062
965.6381, 988.8989
966.1202, 983.8087
966.6024, 983.8217
967.0845, 997.8124
967.5666, 1003.797
968.0487, 992.4008
968.5308, 980.0604
969.0129, 975.3860
969.4951, 976.0521
969.9772, 978.3937
970.4593, 982.1007
970.9414, 983.7338
971.4235, 977.9872
971.9056, 974.7691
972.3878, 983.6089
972.8699, 994.6852
973.3520, 994.5019
973.8341, 985.7233
974.3162, 983.7487
974.7983, 997.5394
975.2805, 1010.169
975.7626, 1006.753
976.2447, 996.6293
976.7268, 987.1419
977.2089, 980.9801
977.6910, 985.2292
978.1732, 1000.073
978.6553, 1011.182
979.1374, 1003.889
979.6195, 990.6078
980.1016, 993.7182
980.5837, 1007.024
981.0659, 1012.132
981.5480, 1007.727
982.0301, 1002.525
982.5122, 1000.871
982.9943, 1002.223
983.4764, 1006.434
983.9586, 1013.042
984.4407, 1020.833
984.9228, 1029.746
985.4049, 1030.553
985.8870, 1019.971
986.3691, 1010.449
986.8513, 1012.732
987.3334, 1022.581
987.8155, 1026.021
988.2976, 1021.086
988.7797, 1024.766
989.2618, 1042.363
989.7440, 1053.023
990.2261, 1046.484
990.7082, 1032.071
991.1903, 1020.164
991.6724, 1010.810
992.1545, 1005.982
992.6367, 1004.872
993.1188, 1010.427
993.6009, 1030.705
994.0830, 1047.926
994.5651, 1049.346
995.0472, 1041.332
995.5294, 1037.027
996.0115, 1037.732
996.4936, 1036.455
996.9757, 1031.493
997.4578, 1026.418
997.9399, 1022.188
998.4221, 1018.240
998.9042, 1013.373
999.3863, 1008.311
999.8684, 1005.885
1000.351, 1008.746
1000.833, 1009.105
1001.315, 1002.202
1001.797, 994.9667
1002.279, 990.5002
1002.761, 988.8029
1003.243, 990.5830
1003.725, 995.2579
1004.207, 998.6069
1004.690, 997.9313
1005.172, 996.7011
1005.654, 997.6837
1006.136, 998.4794
1006.618, 996.9863
1007.100, 993.1736
1007.582, 986.3214
1008.064, 976.4476
1008.547, 969.3593
1009.029, 973.4396
1009.511, 978.5986
1009.993, 970.8592
1010.475, 958.6438
1010.957, 959.3198
1011.439, 970.8610
1011.921, 974.1857
1012.403, 959.0261
1012.886, 940.5453
1013.368, 936.7691
1013.850, 940.3544
1014.332, 937.0959
1014.814, 929.3013
1015.296, 925.1016
1015.778, 926.5915
1016.260, 933.2356
1016.742, 945.8652
1017.225, 959.1354
1017.707, 964.4868
1018.189, 962.4661
1018.671, 951.3181
1019.153, 932.9967
1019.635, 923.1654
1020.117, 927.6010
1020.599, 936.9898
1021.082, 942.9221
1021.564, 944.6540
1022.046, 936.3478
1022.528, 919.3124
1023.010, 914.5153
1023.492, 925.0801
1023.974, 934.7245
1024.456, 934.9167
1024.938, 931.7377
1025.421, 934.7880
1025.903, 943.2444
1026.385, 946.1307
1026.867, 942.7291
1027.349, 940.4309
1027.831, 940.6135
1028.313, 942.8055
1028.795, 947.6075
1029.278, 952.3786
1029.760, 949.7461
1030.242, 937.5568
1030.724, 937.2573
1031.206, 953.1228
1031.688, 965.6674
1032.170, 967.7000
1032.652, 968.9764
1033.135, 978.3251
1033.617, 993.4785
1034.099, 1006.117
1034.581, 1016.336
1035.063, 1023.595
1035.545, 1027.526
1036.027, 1028.798
1036.509, 1024.496
1036.991, 1021.617
1037.474, 1029.618
1037.956, 1046.943
1038.438, 1057.173
1038.920, 1055.307
1039.402, 1056.058
1039.884, 1062.150
1040.366, 1068.252
1040.848, 1075.887
1041.330, 1079.631
1041.813, 1068.723
1042.295, 1041.966
1042.777, 1026.582
1043.259, 1026.869
1043.741, 1032.177
1044.223, 1052.368
1044.705, 1065.917
1045.187, 1054.606
1045.670, 1031.454
1046.152, 1020.114
1046.634, 1023.775
1047.116, 1021.656
1047.598, 1004.591
1048.080, 991.9557
1048.562, 990.9084
1049.044, 993.0916
1049.526, 994.0654
1050.009, 993.3597
1050.491, 990.4647
1050.973, 984.9612
1051.455, 978.8975
1051.937, 973.2374
1052.419, 966.1985
1052.901, 957.5831
1053.383, 946.9154
1053.865, 929.8696
1054.348, 910.6022
1054.830, 902.5257
1055.312, 912.5622
1055.794, 919.3370
1056.276, 914.3063
1056.758, 908.8210
1057.240, 908.1545
1057.722, 909.8049
1058.205, 912.4435
1058.687, 914.8748
1059.169, 913.2880
1059.651, 904.8099
1060.133, 896.9833
1060.615, 891.1079
1061.097, 887.7487
1061.579, 888.3563
1062.062, 890.9680
1062.544, 893.7462
1063.026, 896.2228
1063.508, 897.6735
1063.990, 897.0483
1064.472, 896.8845
1064.954, 899.2855
1065.436, 901.2878
1065.918, 897.8513
1066.401, 894.3083
1066.883, 901.9922
1067.365, 920.0233
1067.847, 928.3256
1068.329, 911.4742
1068.811, 896.0738
1069.293, 893.0781
1069.775, 896.6035
1070.257, 906.1458
1070.740, 917.1723
1071.222, 922.8880
1071.704, 922.3886
1072.186, 920.9906
1072.668, 919.3454
1073.150, 919.3136
1073.632, 925.2798
1074.114, 930.0225
1074.597, 922.8155
1075.079, 911.4940
1075.561, 912.8019
1076.043, 929.5930
1076.525, 942.9679
1077.007, 943.2524
1077.489, 939.9528
1077.971, 934.8181
1078.453, 930.8644
1078.936, 932.2626
1079.418, 936.4702
1079.900, 936.8484
1080.382, 931.9223
1080.864, 931.6313
1081.346, 947.7199
1081.828, 960.5268
1082.310, 954.6525
1082.792, 944.9130
1083.275, 947.0198
1083.757, 956.3022
1084.239, 959.8989
1084.721, 954.5809
1085.203, 947.5556
1085.685, 937.6862
1086.167, 932.1186
1086.649, 936.6251
1087.131, 945.5645
1087.614, 956.5140
1088.096, 966.7101
1088.578, 970.7518
1089.060, 966.9570
1089.542, 962.9639
1090.024, 962.6251
1090.506, 961.9387
1090.988, 957.5887
1091.471, 952.9547
1091.953, 951.4231
1092.435, 952.3154
1092.917, 952.4219
1093.399, 950.3400
1093.881, 953.8191
1094.363, 978.4998
1094.845, 993.5576
1095.328, 970.2458
1095.810, 942.3437
1096.292, 946.4202
1096.774, 971.0772
1097.256, 981.5225
1097.738, 968.1805
1098.220, 957.2516
1098.702, 957.3191
1099.184, 961.2389
1099.667, 967.5236
1100.149, 975.0091
1100.631, 985.6343
1101.113, 996.1013
1101.595, 997.7586
1102.077, 987.2177
1102.559, 979.0570
1103.041, 977.9406
1103.523, 978.4402
1104.006, 980.9780
1104.488, 982.1299
1104.970, 976.3402
1105.452, 967.5295
1105.934, 966.1959
1106.416, 975.7472
1106.898, 981.7917
1107.380, 979.4664
1107.863, 976.4768
1108.345, 973.8253
1108.827, 972.5892
1109.309, 974.7325
1109.791, 978.6245
1110.273, 979.7176
1110.755, 976.0875
1111.237, 977.3729
1111.719, 991.5753
1112.202, 1000.908
1112.684, 997.2542
1113.166, 991.4225
1113.648, 991.8445
1114.130, 995.3593
1114.612, 993.8556
1115.094, 985.1022
1115.576, 981.3068
1116.058, 986.4991
1116.541, 990.4459
1117.023, 989.4712
1117.505, 989.2739
1117.987, 995.1667
1118.469, 1003.295
1118.951, 1005.295
1119.433, 999.7829
1119.915, 998.4478
1120.398, 1003.175
1120.880, 1008.528
1121.362, 1016.591
1121.844, 1019.544
1122.326, 1009.130
1122.808, 994.4251
1123.290, 992.3032
1123.772, 1003.550
1124.255, 1011.070
1124.737, 1015.014
1125.219, 1013.826
1125.701, 1004.531
1126.183, 997.6514
1126.665, 999.4857
1127.147, 1006.108
1127.629, 1012.459
1128.111, 1018.221
1128.594, 1015.635
1129.076, 1001.859
1129.558, 1000.622
1130.040, 1018.045
1130.522, 1030.298
1131.004, 1024.430
1131.486, 1012.611
1131.968, 1011.046
1132.450, 1017.687
1132.933, 1021.187
1133.415, 1021.567
1133.897, 1023.290
1134.379, 1026.868
1134.861, 1029.944
1135.343, 1031.563
1135.825, 1031.382
1136.307, 1028.700
1136.790, 1024.431
1137.272, 1021.513
1137.754, 1019.470
1138.236, 1013.293
1138.718, 1003.980
1139.200, 1004.549
1139.682, 1019.034
1140.164, 1032.736
1140.646, 1031.409
1141.129, 1023.888
1141.611, 1026.786
1142.093, 1035.939
1142.575, 1042.282
1143.057, 1044.609
1143.539, 1039.510
1144.021, 1027.490
1144.503, 1018.514
1144.985, 1020.186
1145.468, 1026.021
1145.950, 1031.619
1146.432, 1034.127
1146.914, 1024.126
1147.396, 1009.233
1147.878, 1006.829
1148.360, 1018.312
1148.842, 1032.478
1149.325, 1045.145
1149.807, 1052.264
1150.289, 1045.916
1150.771, 1037.184
1151.253, 1036.756
1151.735, 1040.491
1152.217, 1043.438
1152.699, 1044.115
1153.182, 1040.542
1153.664, 1031.093
1154.146, 1022.705
1154.628, 1016.610
1155.110, 1015.009
1155.592, 1022.758
1156.074, 1032.595
1156.556, 1037.364
1157.038, 1038.219
1157.521, 1040.383
1158.003, 1045.665
1158.485, 1045.682
1158.967, 1030.914
1159.449, 1021.329
1159.931, 1026.439
1160.413, 1034.719
1160.895, 1039.455
1161.377, 1041.603
1161.860, 1043.080
1162.342, 1043.826
1162.824, 1045.398
1163.306, 1049.904
1163.788, 1051.445
1164.270, 1049.099
1164.752, 1044.138
1165.234, 1035.624
1165.717, 1026.537
1166.199, 1019.792
1166.681, 1015.877
1167.163, 1021.765
1167.645, 1043.734
1168.127, 1044.265
1168.609, 1014.093
1169.091, 993.6864
1169.573, 999.0667
1170.056, 1015.531
1170.538, 1030.394
1171.020, 1042.286
1171.502, 1045.865
1171.984, 1041.668
1172.466, 1039.282
1172.948, 1038.921
1173.430, 1037.480
1173.912, 1034.109
1174.395, 1027.463
1174.877, 1015.632
1175.359, 1006.074
1175.841, 1016.380
1176.323, 1035.900
1176.805, 1032.274
1177.287, 1013.977
1177.769, 1010.453
1178.252, 1023.284
1178.734, 1033.480
1179.216, 1032.104
1179.698, 1026.473
1180.180, 1021.016
1180.662, 1017.301
1181.144, 1018.040
1181.626, 1021.012
1182.109, 1024.381
1182.591, 1026.842
1183.073, 1025.029
1183.555, 1018.499
1184.037, 1014.918
1184.519, 1024.106
1185.001, 1029.469
1185.483, 1018.005
1185.965, 1004.036
1186.448, 997.6833
1186.930, 996.5781
1187.412, 998.0777
1187.894, 1000.874
1188.376, 998.2042
1188.858, 981.1415
1189.340, 972.6816
1189.822, 984.0873
1190.304, 994.1950
1190.787, 995.1000
1191.269, 991.1266
1191.751, 982.9947
1192.233, 973.6932
1192.715, 974.5026
1193.197, 990.8169
1193.679, 991.2161
1194.161, 966.6905
1194.644, 954.3356
1195.126, 965.3263
1195.608, 979.8303
1196.090, 986.5878
1196.572, 986.4659
1197.054, 979.3480
1197.536, 966.8636
1198.018, 961.0712
1198.500, 961.9907
1198.983, 972.1483
1199.465, 991.0604
1199.947, 1003.099
1200.429, 1001.909
1200.911, 995.0753
1201.393, 988.8651
1201.875, 984.4160
1202.357, 986.5673
1202.839, 990.8608
1203.322, 985.3837
1203.804, 973.4905
1204.286, 966.5013
1204.768, 966.5315
1205.250, 968.8113
1205.732, 971.5076
1206.214, 972.2336
1206.696, 966.5254
1207.179, 960.7015
1207.661, 959.6917
1208.143, 962.4232
1208.625, 968.9199
1209.107, 977.3801
1209.589, 984.0629
1210.071, 988.3261
1210.553, 988.8849
1211.036, 981.8839
1211.518, 976.0441
1212.000, 976.2190
1212.482, 976.0222
1212.964, 967.6864
1213.446, 958.5400
1213.928, 961.8169
1214.410, 976.6583
1214.892, 982.8694
1215.375, 976.5722
1215.857, 972.1865
1216.339, 971.1678
1216.821, 969.5548
1217.303, 965.2014
1217.785, 962.7021
1218.267, 967.0892
1218.749, 974.3299
1219.231, 973.0709
1219.714, 964.1670
1220.196, 961.1671
1220.678, 963.4966
1221.160, 963.1151
1221.642, 958.8171
1222.124, 955.8575
1222.606, 957.0585
1223.088, 959.0356
1223.571, 956.7275
1224.053, 954.0583
1224.535, 959.1384
1225.017, 967.1916
1225.499, 970.3450
1225.981, 969.0113
1226.463, 965.2267
1226.945, 960.2484
1227.427, 958.4158
1227.910, 963.7828
1228.392, 968.7565
1228.874, 970.3675
1229.356, 968.9870
1229.838, 960.5678
1230.320, 952.5505
1230.802, 953.9442
1231.284, 963.2520
1231.766, 974.3764
1232.249, 990.7664
1232.731, 993.7324
1233.213, 968.9333
1233.695, 956.0923
1234.177, 969.6102
1234.659, 981.8735
1235.141, 976.5259
1235.623, 963.1338
1236.106, 953.8661
1236.588, 949.4722
1237.070, 957.6735
1237.552, 979.0051
1238.034, 990.3893
1238.516, 990.2792
1238.998, 985.4966
1239.480, 978.3565
1239.963, 973.3099
1240.445, 973.9077
1240.927, 977.3991
1241.409, 979.3774
1241.891, 981.6434
1242.373, 987.9108
1242.855, 996.9213
1243.337, 1008.812
1243.819, 1020.567
1244.302, 1023.481
1244.784, 1014.629
1245.266, 1003.029
1245.748, 986.6368
1246.230, 978.5510
1246.712, 995.1840
1247.194, 1012.454
1247.676, 1007.137
1248.158, 994.3893
1248.641, 997.8587
1249.123, 1016.426
1249.605, 1029.037
1250.087, 1032.215
1250.569, 1035.301
1251.051, 1039.141
1251.533, 1040.906
1252.015, 1039.406
1252.498, 1036.977
1252.980, 1035.341
1253.462, 1032.927
1253.944, 1025.250
1254.426, 1014.934
1254.908, 1021.651
1255.390, 1042.982
1255.872, 1056.629
1256.354, 1060.787
1256.837, 1057.685
1257.319, 1049.350
1257.801, 1049.094
1258.283, 1069.964
1258.765, 1091.798
1259.247, 1088.267
1259.729, 1075.617
1260.211, 1068.671
1260.693, 1069.221
1261.176, 1081.524
1261.658, 1102.065
1262.140, 1122.517
1262.622, 1141.453
1263.104, 1150.010
1263.586, 1135.036
1264.068, 1124.351
1264.550, 1126.931
1265.033, 1134.093
1265.515, 1145.240
1265.997, 1154.739
1266.479, 1154.686
1266.961, 1148.085
1267.443, 1149.522
1267.925, 1161.949
##END=



