##NAMES=Hematite
##RRUFFID=R060190
##IDEAL CHEMISTRY=Fe^3+^_2_O_3_
##LOCALITY=Florence mine, Egremont, Cumbria, England
##OWNER=RRUFF
##SOURCE=Lloyd Twaites
##DESCRIPTION=Red tinged, steel-gray fragment of a botryoidal mass
##STATUS=The identification of this mineral has been confirmed by X-ray diffraction and chemical analysis
##URL=rruff.info/R060190
##MEASURED CHEMISTRY=Fe_2.00_O_3_
182.866, 657.476
183.348, 662.348
183.830, 667.555
184.312, 670.385
184.795, 668.030
185.277, 660.653
185.759, 657.979
186.241, 666.169
186.723, 673.482
187.205, 676.112
187.687, 675.572
188.169, 675.433
188.652, 678.548
189.134, 684.744
189.616, 688.766
190.098, 689.847
190.580, 689.270
191.062, 685.991
191.544, 681.259
192.026, 677.265
192.508, 675.581
192.991, 676.098
193.473, 676.932
193.955, 678.373
194.437, 679.886
194.919, 681.029
195.401, 682.188
195.883, 684.292
196.365, 688.246
196.848, 693.643
197.330, 696.386
197.812, 690.696
198.294, 688.229
198.776, 692.961
199.258, 702.293
199.740, 712.336
200.222, 720.959
200.704, 727.923
201.186, 731.390
201.669, 728.072
202.151, 724.331
202.633, 719.601
203.115, 715.304
203.597, 713.406
204.079, 715.118
204.561, 719.910
205.044, 725.068
205.526, 731.487
206.008, 737.268
206.490, 742.198
206.972, 746.341
207.454, 749.697
207.936, 752.225
208.418, 754.168
208.900, 756.403
209.383, 757.873
209.865, 761.102
210.347, 766.188
210.829, 773.183
211.311, 782.116
211.793, 793.055
212.275, 805.800
212.757, 820.019
213.240, 837.059
213.722, 853.851
214.204, 868.277
214.686, 883.080
215.168, 899.722
215.650, 918.965
216.132, 942.659
216.614, 975.630
217.096, 1023.357
217.579, 1072.361
218.061, 1121.676
218.543, 1171.821
219.025, 1222.864
219.507, 1274.864
219.989, 1329.440
220.471, 1390.455
220.953, 1465.037
221.435, 1532.541
221.918, 1585.483
222.400, 1637.103
222.882, 1700.718
223.364, 1777.771
223.846, 1856.117
224.328, 1920.447
224.810, 1976.657
225.292, 2002.240
225.775, 2009.031
226.257, 1982.148
226.739, 1900.585
227.221, 1767.145
227.703, 1613.540
228.185, 1474.288
228.667, 1348.817
229.149, 1241.742
229.631, 1154.880
230.113, 1083.185
230.596, 1027.234
231.078, 985.391
231.560, 953.255
232.042, 927.091
232.524, 906.918
233.006, 892.002
233.488, 884.384
233.971, 880.475
234.453, 879.479
234.935, 881.260
235.417, 886.186
235.899, 895.511
236.381, 909.158
236.863, 919.147
237.345, 919.384
237.827, 922.267
238.309, 933.175
238.792, 949.439
239.274, 965.480
239.756, 977.477
240.238, 986.253
240.720, 996.450
241.202, 1008.033
241.684, 1021.296
242.166, 1036.921
242.649, 1053.860
243.131, 1071.616
243.613, 1090.730
244.095, 1108.916
244.577, 1119.676
245.059, 1122.749
245.541, 1118.228
246.023, 1107.661
246.505, 1090.273
246.988, 1062.895
247.470, 1023.047
247.952, 979.032
248.434, 945.248
248.916, 923.549
249.398, 906.510
249.880, 895.972
250.362, 887.127
250.844, 875.743
251.327, 860.570
251.809, 845.520
252.291, 836.204
252.773, 833.475
253.255, 829.253
253.737, 816.549
254.219, 805.781
254.702, 806.263
255.184, 818.679
255.666, 832.105
256.148, 836.919
256.630, 833.630
257.112, 830.006
257.594, 825.359
258.076, 822.876
258.558, 826.040
259.040, 834.004
259.523, 840.951
260.005, 842.731
260.487, 840.586
260.969, 838.231
261.451, 834.760
261.933, 833.620
262.415, 838.880
262.897, 848.632
263.380, 857.516
263.862, 861.925
264.344, 864.626
264.826, 870.682
265.308, 880.903
265.790, 891.550
266.272, 901.473
266.754, 909.890
267.237, 914.534
267.719, 909.174
268.201, 904.243
268.683, 912.545
269.165, 933.657
269.647, 952.552
270.129, 959.335
270.611, 959.103
271.093, 966.308
271.576, 986.795
272.058, 1006.552
272.540, 1012.416
273.022, 1009.480
273.504, 1017.511
273.986, 1047.508
274.468, 1088.457
274.950, 1116.654
275.432, 1127.732
275.915, 1140.476
276.397, 1159.627
276.879, 1184.561
277.361, 1214.477
277.843, 1249.071
278.325, 1288.218
278.807, 1330.965
279.289, 1376.281
279.772, 1429.511
280.254, 1491.835
280.736, 1562.095
281.218, 1638.816
281.700, 1721.864
282.182, 1810.477
282.664, 1902.545
283.146, 1996.677
283.629, 2110.186
284.111, 2253.529
284.593, 2404.950
285.075, 2551.013
285.557, 2693.986
286.039, 2842.450
286.521, 3004.923
287.003, 3179.965
287.485, 3353.478
287.967, 3533.490
288.450, 3704.145
288.932, 3861.053
289.414, 4006.494
289.896, 4150.016
290.378, 4296.892
290.860, 4435.819
291.342, 4533.762
291.824, 4598.278
292.307, 4603.438
292.789, 4535.251
293.271, 4418.165
293.753, 4263.144
294.235, 4077.173
294.717, 3881.034
295.199, 3704.461
295.681, 3545.826
296.164, 3415.064
296.646, 3329.229
297.128, 3255.668
297.610, 3181.933
298.092, 3104.683
298.574, 3022.141
299.056, 2932.475
299.538, 2836.189
300.020, 2731.908
300.503, 2615.336
300.985, 2495.673
301.467, 2372.517
301.949, 2249.657
302.431, 2133.726
302.913, 2028.889
303.395, 1933.463
303.877, 1841.851
304.359, 1752.831
304.842, 1670.963
305.324, 1598.163
305.806, 1532.682
306.288, 1473.433
306.770, 1420.855
307.252, 1372.774
307.734, 1326.494
308.216, 1281.915
308.698, 1241.977
309.181, 1209.760
309.663, 1181.058
310.145, 1149.134
310.627, 1112.982
311.109, 1079.838
311.591, 1053.755
312.073, 1033.679
312.556, 1017.573
313.038, 1005.948
313.520, 995.283
314.002, 981.108
314.484, 963.702
314.966, 947.081
315.448, 930.337
315.930, 915.687
316.412, 907.697
316.895, 906.133
317.377, 901.879
317.859, 886.297
318.341, 860.662
318.823, 845.288
319.305, 848.222
319.787, 852.302
320.269, 850.856
320.751, 844.706
321.234, 835.497
321.716, 823.597
322.198, 810.785
322.680, 802.568
323.162, 803.722
323.644, 803.535
324.126, 799.153
324.608, 794.341
325.091, 793.474
325.573, 797.407
326.055, 802.981
326.537, 806.248
327.019, 807.567
327.501, 805.041
327.983, 792.524
328.465, 782.127
328.947, 781.636
329.430, 789.090
329.912, 796.730
330.394, 798.504
330.876, 794.938
331.358, 791.689
331.840, 789.591
332.322, 786.620
332.804, 781.655
333.286, 775.747
333.769, 769.938
334.251, 764.273
334.733, 760.059
335.215, 760.731
335.697, 767.956
336.179, 772.079
336.661, 766.216
337.143, 759.030
337.625, 758.892
338.108, 766.958
338.590, 773.307
339.072, 766.063
339.554, 749.844
340.036, 746.053
340.518, 763.102
341.000, 782.275
341.483, 784.857
341.965, 774.467
342.447, 764.667
342.929, 757.948
343.411, 754.388
343.893, 755.506
344.375, 761.042
344.857, 765.945
345.339, 766.490
345.822, 764.066
346.304, 764.976
346.786, 773.671
347.268, 780.261
347.750, 778.996
348.232, 773.559
348.714, 770.450
349.196, 772.043
349.678, 776.338
350.161, 780.143
350.643, 784.925
351.125, 785.751
351.607, 780.391
352.089, 772.857
352.571, 764.152
353.053, 755.515
353.535, 749.957
354.017, 750.479
354.500, 757.176
354.982, 764.709
355.464, 779.282
355.946, 788.018
356.428, 783.143
356.910, 771.756
357.392, 764.561
357.874, 766.946
358.357, 774.573
358.839, 778.234
359.321, 776.729
359.803, 774.915
360.285, 772.873
360.767, 771.494
361.249, 772.122
361.731, 774.757
362.214, 776.734
362.696, 774.693
363.178, 769.739
363.660, 767.657
364.142, 769.470
364.624, 773.321
365.106, 779.837
365.588, 787.494
366.070, 791.881
366.552, 787.242
367.035, 781.842
367.517, 785.742
367.999, 797.892
368.481, 808.163
368.963, 811.248
369.445, 809.392
369.927, 808.757
370.409, 809.838
370.892, 810.951
371.374, 809.487
371.856, 808.617
372.338, 814.508
372.820, 828.293
373.302, 841.982
373.784, 845.163
374.266, 833.844
374.749, 829.642
375.231, 837.993
375.713, 847.164
376.195, 851.956
376.677, 853.008
377.159, 852.456
377.641, 851.308
378.123, 850.383
378.605, 853.124
379.088, 862.020
379.570, 870.509
380.052, 878.834
380.534, 885.602
381.016, 889.212
381.498, 889.399
381.980, 888.168
382.462, 886.489
382.944, 884.400
383.427, 886.412
383.909, 894.840
384.391, 904.936
384.873, 913.581
385.355, 921.184
385.837, 928.973
386.319, 938.403
386.801, 947.743
387.284, 953.901
387.766, 956.901
388.248, 960.630
388.730, 966.515
389.212, 974.711
389.694, 985.003
390.176, 996.479
390.658, 1011.675
391.140, 1034.624
391.623, 1060.664
392.105, 1082.027
392.587, 1097.308
393.069, 1111.926
393.551, 1131.655
394.033, 1156.615
394.515, 1186.875
394.997, 1225.219
395.479, 1265.355
395.962, 1304.750
396.444, 1343.711
396.926, 1382.685
397.408, 1421.580
397.890, 1462.182
398.372, 1508.928
398.854, 1561.721
399.336, 1621.511
399.819, 1690.724
400.301, 1764.219
400.783, 1837.841
401.265, 1911.357
401.747, 1987.192
402.229, 2065.678
402.711, 2147.743
403.193, 2242.096
403.676, 2355.198
404.158, 2468.615
404.640, 2571.622
405.122, 2667.380
405.604, 2761.071
406.086, 2857.047
406.568, 2946.818
407.050, 3021.029
407.532, 3081.660
408.014, 3138.908
408.497, 3198.748
408.979, 3252.424
409.461, 3286.707
409.943, 3304.234
410.425, 3296.518
410.907, 3255.024
411.389, 3192.930
411.871, 3117.997
412.354, 3032.488
412.836, 2939.939
413.318, 2843.092
413.800, 2741.517
414.282, 2631.324
414.764, 2500.653
415.246, 2375.379
415.728, 2259.179
416.211, 2149.786
416.693, 2046.986
417.175, 1950.472
417.657, 1857.657
418.139, 1763.511
418.621, 1666.771
419.103, 1584.787
419.585, 1527.332
420.067, 1475.332
420.550, 1414.938
421.032, 1351.396
421.514, 1298.880
421.996, 1268.031
422.478, 1246.583
422.960, 1217.686
423.442, 1181.785
423.924, 1149.549
424.406, 1126.676
424.889, 1108.518
425.371, 1086.622
425.853, 1059.738
426.335, 1034.811
426.817, 1013.109
427.299, 994.759
427.781, 980.684
428.263, 970.667
428.746, 963.010
429.228, 956.903
429.710, 952.099
430.192, 943.782
430.674, 926.986
431.156, 912.667
431.638, 903.781
432.120, 897.947
432.603, 892.561
433.085, 886.749
433.567, 880.865
434.049, 875.644
434.531, 871.266
435.013, 865.971
435.495, 859.953
435.977, 852.581
436.459, 841.699
436.941, 829.292
437.424, 820.029
437.906, 815.557
438.388, 815.416
438.870, 821.588
439.352, 833.509
439.834, 841.052
440.316, 839.933
440.798, 833.397
441.281, 825.963
441.763, 817.397
442.245, 809.526
442.727, 800.000
443.209, 793.227
443.691, 796.927
444.173, 809.172
444.655, 817.440
445.138, 812.079
445.620, 795.518
446.102, 784.130
446.584, 779.063
447.066, 778.285
447.548, 785.906
448.030, 795.202
448.512, 800.034
448.994, 799.155
449.477, 795.458
449.959, 790.968
450.441, 785.695
450.923, 783.172
451.405, 785.085
451.887, 786.974
452.369, 787.406
452.851, 786.186
453.333, 782.367
453.816, 774.096
454.298, 766.339
454.780, 763.421
455.262, 764.561
455.744, 767.455
456.226, 771.898
456.708, 776.434
457.190, 779.165
457.672, 779.690
458.155, 780.838
458.637, 786.421
459.119, 789.081
459.601, 781.389
460.083, 767.685
460.565, 758.249
461.047, 758.313
461.530, 764.170
462.012, 767.240
462.494, 765.555
462.976, 765.547
463.458, 769.508
463.940, 773.515
464.422, 776.514
464.904, 777.769
465.386, 775.402
465.868, 764.883
466.351, 751.882
466.833, 751.265
467.315, 764.909
467.797, 775.879
468.279, 776.166
468.761, 771.000
469.243, 768.454
469.725, 768.333
470.208, 771.478
470.690, 782.738
471.172, 794.931
471.654, 798.460
472.136, 793.234
472.618, 786.761
473.100, 784.500
473.582, 785.802
474.065, 785.950
474.547, 779.459
475.029, 778.739
475.511, 790.255
475.993, 804.827
476.475, 813.301
476.957, 814.462
477.439, 814.350
477.921, 818.281
478.404, 826.119
478.886, 837.915
479.368, 858.127
479.850, 872.951
480.332, 870.759
480.814, 860.589
481.296, 853.743
481.778, 852.253
482.260, 853.875
482.743, 857.894
483.225, 863.878
483.707, 870.971
484.189, 879.080
484.671, 888.199
485.153, 898.732
485.635, 910.804
486.117, 920.548
486.599, 924.075
487.082, 930.206
487.564, 945.570
488.046, 963.399
488.528, 973.692
489.010, 973.789
489.492, 971.099
489.974, 975.989
490.457, 989.474
490.939, 999.787
491.421, 1005.848
491.903, 1009.897
492.385, 1011.424
492.867, 1012.198
493.349, 1015.707
493.831, 1024.319
494.313, 1032.943
494.796, 1036.984
495.278, 1037.373
495.760, 1037.521
496.242, 1038.500
496.724, 1037.602
497.206, 1030.703
497.688, 1016.821
498.170, 1009.485
498.652, 1019.792
499.135, 1024.236
499.617, 1008.326
500.099, 981.958
500.581, 960.516
501.063, 949.627
501.545, 944.245
502.027, 937.809
502.509, 930.530
502.991, 920.670
503.474, 905.998
503.956, 891.419
504.438, 878.019
504.920, 866.520
505.402, 858.646
505.884, 857.056
506.366, 855.222
506.848, 845.694
507.331, 830.708
507.813, 818.416
508.295, 810.968
508.777, 805.324
509.259, 797.919
509.741, 788.359
510.223, 782.299
510.705, 782.783
511.188, 783.230
511.670, 781.208
512.152, 777.485
512.634, 773.272
513.116, 769.019
513.598, 764.681
514.080, 760.479
514.562, 756.623
515.044, 750.843
515.526, 740.717
516.009, 732.029
516.491, 727.235
516.973, 725.731
517.455, 726.883
517.937, 731.450
518.419, 736.616
518.901, 741.002
519.383, 744.260
519.865, 745.586
520.348, 744.819
520.830, 741.912
521.312, 736.344
521.794, 728.007
522.276, 721.481
522.758, 714.728
523.240, 711.801
523.722, 717.199
524.205, 725.384
524.687, 729.765
525.169, 728.768
525.651, 725.495
526.133, 723.590
526.615, 722.899
527.097, 719.229
527.579, 710.013
528.062, 703.348
528.544, 705.595
529.026, 712.329
529.508, 717.627
529.990, 720.610
530.472, 722.792
530.954, 724.917
531.436, 726.733
531.919, 727.610
532.401, 727.570
532.883, 727.899
533.365, 730.101
533.847, 733.344
534.329, 731.606
534.811, 717.783
535.293, 708.620
535.775, 710.062
536.258, 713.589
536.740, 709.908
537.222, 699.850
537.704, 694.277
538.186, 705.633
538.668, 726.283
539.150, 734.198
539.632, 727.909
540.114, 721.931
540.597, 722.545
541.079, 726.125
541.561, 727.000
542.043, 725.372
542.525, 720.949
543.007, 707.466
543.489, 696.168
543.971, 698.479
544.453, 711.046
544.936, 722.384
545.418, 726.325
545.900, 725.608
546.382, 726.525
546.864, 730.338
547.346, 731.897
547.828, 728.304
548.310, 724.793
548.792, 723.945
549.275, 725.292
549.757, 727.418
550.239, 730.425
550.721, 733.062
551.203, 734.271
551.685, 734.055
552.167, 731.996
552.649, 727.758
553.132, 723.080
553.614, 719.200
554.096, 715.788
554.578, 717.599
555.060, 729.741
555.542, 740.251
556.024, 745.379
556.506, 747.246
556.989, 748.138
557.471, 748.806
557.953, 749.500
558.435, 750.993
558.917, 752.970
559.399, 752.582
559.881, 748.878
560.363, 746.022
560.846, 747.383
561.328, 750.220
561.810, 748.464
562.292, 739.109
562.774, 734.437
563.256, 743.486
563.738, 755.425
564.220, 759.084
564.702, 754.953
565.185, 749.745
565.667, 747.412
566.149, 747.506
566.631, 748.933
567.113, 752.201
567.595, 755.471
568.077, 759.402
568.559, 762.499
569.041, 764.832
569.524, 765.733
570.006, 763.130
570.488, 753.657
570.970, 743.604
571.452, 739.145
571.934, 739.315
572.416, 741.620
572.898, 745.610
573.380, 749.259
573.863, 749.982
574.345, 747.445
574.827, 747.724
575.309, 753.280
575.791, 758.506
576.273, 760.937
576.755, 763.088
577.237, 768.448
577.719, 777.380
578.202, 786.105
578.684, 793.491
579.166, 797.993
579.648, 790.841
580.130, 769.805
580.612, 755.810
581.094, 760.717
581.576, 775.999
582.059, 785.000
582.541, 785.839
583.023, 788.901
583.505, 798.321
583.987, 807.963
584.469, 812.275
584.951, 813.440
585.433, 817.982
585.916, 829.190
586.398, 841.912
586.880, 846.525
587.362, 841.912
587.844, 840.340
588.326, 842.616
588.808, 848.213
589.290, 860.290
589.773, 874.959
590.255, 883.567
590.737, 879.863
591.219, 879.413
591.701, 893.684
592.183, 913.757
592.665, 927.547
593.147, 933.840
593.629, 937.914
594.112, 943.646
594.594, 950.586
595.076, 956.166
595.558, 957.295
596.040, 963.927
596.522, 980.187
597.004, 1000.377
597.486, 1022.737
597.968, 1046.364
598.451, 1068.184
598.933, 1083.705
599.415, 1100.190
599.897, 1127.005
600.379, 1160.408
600.861, 1187.597
601.343, 1204.864
601.825, 1223.423
602.307, 1257.254
602.790, 1307.224
603.272, 1344.953
603.754, 1357.857
604.236, 1374.275
604.718, 1397.740
605.200, 1427.737
605.682, 1469.062
606.164, 1519.873
606.646, 1562.038
607.129, 1573.975
607.611, 1573.347
608.093, 1594.151
608.575, 1634.458
609.057, 1671.359
609.539, 1698.206
610.021, 1711.514
610.503, 1703.643
610.986, 1666.421
611.468, 1641.104
611.950, 1640.549
612.432, 1636.000
612.914, 1615.174
613.396, 1584.419
613.878, 1552.202
614.360, 1520.959
614.843, 1490.088
615.325, 1460.708
615.807, 1431.115
616.289, 1393.377
616.771, 1346.115
617.253, 1305.155
617.735, 1281.163
618.217, 1265.339
618.700, 1238.207
619.182, 1192.579
619.664, 1154.091
620.146, 1129.106
620.628, 1106.606
621.110, 1080.765
621.592, 1052.710
622.074, 1024.074
622.556, 995.433
623.039, 970.715
623.521, 958.142
624.003, 955.287
624.485, 944.247
624.967, 921.742
625.449, 899.251
625.931, 883.031
626.413, 871.911
626.895, 862.537
627.378, 855.273
627.860, 848.613
628.342, 844.498
628.824, 839.110
629.306, 827.950
629.788, 813.291
630.270, 801.425
630.752, 795.641
631.234, 792.592
631.717, 787.541
632.199, 780.572
632.681, 772.176
633.163, 761.083
633.645, 752.723
634.127, 752.455
634.609, 757.529
635.091, 757.998
635.573, 752.021
636.056, 744.878
636.538, 735.219
637.020, 726.690
637.502, 722.652
637.984, 722.461
638.466, 723.329
638.948, 723.734
639.430, 724.288
639.913, 728.019
640.395, 734.776
640.877, 731.762
641.359, 712.952
641.841, 696.248
642.323, 696.552
642.805, 709.520
643.287, 716.129
643.769, 713.289
644.252, 709.089
644.734, 702.219
645.216, 696.880
645.698, 698.232
646.180, 704.565
646.662, 709.468
647.144, 709.006
647.627, 706.460
648.109, 708.896
648.591, 716.014
649.073, 717.881
649.555, 712.319
650.037, 703.376
650.519, 690.875
651.001, 677.474
651.483, 674.766
651.966, 694.500
652.448, 706.609
652.930, 698.772
653.412, 687.211
653.894, 685.363
654.376, 691.797
654.858, 698.336
655.340, 700.744
655.822, 699.901
656.305, 695.863
656.787, 689.107
657.269, 684.818
657.751, 683.853
658.233, 684.880
658.715, 687.424
659.197, 691.117
659.679, 694.302
660.161, 696.032
660.644, 698.780
661.126, 706.302
661.608, 711.877
662.090, 709.547
662.572, 701.354
663.054, 693.207
663.536, 687.972
664.018, 683.790
664.500, 678.054
664.983, 671.258
665.465, 665.416
665.947, 660.775
666.429, 657.371
666.911, 655.328
667.393, 654.474
667.875, 654.273
668.357, 655.865
668.839, 656.255
669.322, 654.021
669.804, 651.992
670.286, 651.241
670.768, 651.970
671.250, 655.152
671.732, 661.908
672.214, 666.714
672.696, 661.991
673.179, 651.869
673.661, 646.627
674.143, 647.056
674.625, 647.861
675.107, 645.948
675.589, 642.746
676.071, 641.736
676.553, 644.011
677.036, 645.758
677.518, 648.187
678.000, 648.767
678.482, 645.310
678.964, 639.805
679.446, 634.825
679.928, 630.765
680.410, 628.824
680.893, 632.082
681.375, 636.565
681.857, 635.836
682.339, 630.846
682.821, 627.369
683.303, 628.074
683.785, 630.965
684.267, 633.389
684.749, 635.841
685.232, 633.455
685.714, 620.288
686.196, 611.966
686.678, 621.766
687.160, 635.523
687.642, 635.714
688.124, 619.779
688.606, 607.387
689.088, 607.581
689.571, 611.723
690.053, 614.366
690.535, 615.630
691.017, 616.997
691.499, 618.751
691.981, 618.629
692.463, 612.617
692.945, 602.311
693.427, 600.661
693.910, 610.187
694.392, 616.301
694.874, 612.808
695.356, 606.001
695.838, 603.410
696.320, 605.023
696.802, 605.603
697.284, 604.116
697.766, 602.408
698.249, 599.715
698.731, 598.002
699.213, 600.155
699.695, 605.857
700.177, 611.995
700.659, 617.835
701.141, 620.845
701.623, 613.920
702.106, 598.646
702.588, 587.509
703.070, 583.163
703.552, 583.211
704.034, 586.462
704.516, 592.229
704.998, 595.692
705.480, 596.024
705.963, 595.206
706.445, 593.016
706.927, 590.082
707.409, 585.185
707.891, 579.963
708.373, 578.868
708.855, 585.201
709.337, 591.077
709.820, 589.231
710.302, 583.452
710.784, 579.697
711.266, 578.470
711.748, 577.799
712.230, 576.446
712.712, 575.759
713.194, 579.858
713.676, 590.938
714.159, 594.119
714.641, 584.231
715.123, 574.910
715.605, 573.874
716.087, 577.017
716.569, 578.230
717.051, 576.763
717.533, 576.052
718.015, 578.188
718.498, 580.147
718.980, 578.072
719.462, 575.007
719.944, 577.634
720.426, 587.252
720.908, 596.196
721.390, 595.936
721.872, 589.301
722.354, 585.088
722.837, 583.286
723.319, 581.517
723.801, 578.984
724.283, 576.457
724.765, 575.114
725.247, 575.001
725.729, 572.564
726.211, 559.904
726.693, 555.444
727.176, 570.761
727.658, 587.537
728.140, 589.636
728.622, 579.695
729.104, 572.695
729.586, 576.622
730.068, 582.070
730.550, 580.846
731.033, 576.074
731.515, 572.453
731.997, 570.829
732.479, 571.441
732.961, 574.693
733.443, 579.059
733.925, 581.680
734.407, 582.869
734.890, 578.905
735.372, 566.011
735.854, 555.487
736.336, 554.927
736.818, 560.173
737.300, 562.376
737.782, 560.159
738.264, 559.940
738.747, 565.475
739.229, 570.247
739.711, 570.946
740.193, 568.499
740.675, 562.773
741.157, 554.492
741.639, 549.859
742.121, 556.992
742.603, 569.676
743.086, 577.473
743.568, 580.645
744.050, 580.433
744.532, 577.091
745.014, 572.210
745.496, 567.235
745.978, 562.192
746.460, 556.854
746.942, 549.923
747.425, 545.477
747.907, 543.531
748.389, 544.930
748.871, 553.240
749.353, 565.290
749.835, 571.516
750.317, 567.931
750.799, 562.743
751.281, 558.213
751.764, 554.282
752.246, 549.817
752.728, 545.939
753.210, 546.322
753.692, 552.762
754.174, 559.768
754.656, 558.895
755.138, 552.747
755.620, 553.180
756.103, 560.764
756.585, 563.519
757.067, 555.059
757.549, 544.038
758.031, 543.745
758.513, 555.834
758.995, 562.768
759.477, 561.700
759.960, 559.458
760.442, 555.055
760.924, 551.992
761.406, 555.703
761.888, 564.518
762.370, 567.830
762.852, 558.784
763.334, 547.673
763.817, 537.136
764.299, 529.612
764.781, 529.749
765.263, 536.288
765.745, 542.844
766.227, 545.707
766.709, 546.915
767.191, 550.311
767.674, 555.261
768.156, 556.918
768.638, 554.668
769.120, 551.693
769.602, 549.355
770.084, 547.768
770.566, 547.214
771.048, 547.808
771.530, 548.954
772.013, 552.170
772.495, 553.966
772.977, 551.620
773.459, 548.696
773.941, 550.170
774.423, 555.627
774.905, 556.945
775.387, 546.009
775.869, 536.004
776.352, 536.157
776.834, 541.109
777.316, 545.361
777.798, 547.267
778.280, 544.867
778.762, 535.971
779.244, 525.942
779.726, 524.270
780.208, 529.564
780.691, 533.547
781.173, 535.282
781.655, 537.805
782.137, 543.167
782.619, 549.239
783.101, 551.455
783.583, 548.225
784.065, 548.466
784.547, 556.511
785.030, 561.759
785.512, 557.679
785.994, 551.559
786.476, 552.211
786.958, 559.383
787.440, 561.480
787.922, 548.200
788.404, 537.839
788.887, 543.019
789.369, 553.293
789.851, 556.410
790.333, 552.376
790.815, 548.574
791.297, 549.161
791.779, 551.517
792.261, 553.709
792.744, 554.765
793.226, 550.139
793.708, 540.040
794.190, 532.265
794.672, 530.648
795.154, 533.515
795.636, 539.177
796.118, 548.369
796.601, 550.420
797.083, 541.049
797.565, 534.722
798.047, 538.639
798.529, 545.089
799.011, 544.603
799.493, 537.997
799.975, 534.982
800.457, 538.839
800.940, 542.818
801.422, 546.679
801.904, 548.824
802.386, 547.503
802.868, 543.388
803.350, 537.919
803.832, 531.042
804.314, 525.961
804.796, 524.596
805.279, 527.057
805.761, 536.890
806.243, 550.949
806.725, 558.688
807.207, 556.206
807.689, 547.877
808.171, 536.074
808.653, 523.266
809.135, 526.138
809.618, 546.479
810.100, 559.211
810.582, 556.180
811.064, 549.796
811.546, 551.318
812.028, 559.027
812.510, 562.723
812.992, 561.910
813.474, 557.860
813.957, 544.467
814.439, 534.370
814.921, 536.554
815.403, 544.860
815.885, 549.013
816.367, 547.224
816.849, 543.713
817.331, 535.993
817.814, 531.071
818.296, 537.372
818.778, 547.652
819.260, 550.391
819.742, 544.440
820.224, 538.472
820.706, 538.486
821.188, 541.526
821.670, 544.215
822.153, 546.438
822.635, 547.946
823.117, 548.666
823.599, 548.365
824.081, 546.880
824.563, 544.375
825.045, 536.990
825.528, 542.704
826.010, 545.239
826.492, 544.764
826.974, 532.270
827.456, 535.298
827.938, 532.105
828.420, 528.656
828.902, 533.868
829.384, 523.122
829.867, 528.197
830.349, 526.956
830.831, 528.606
831.313, 523.996
831.795, 521.320
832.277, 524.905
832.759, 518.060
833.241, 513.256
833.723, 511.758
834.206, 517.913
834.688, 525.935
835.170, 532.569
835.652, 536.906
836.134, 537.445
836.616, 534.117
837.098, 529.992
837.580, 526.867
838.062, 525.110
838.545, 526.504
839.027, 529.767
839.509, 530.146
839.991, 527.009
840.473, 524.741
840.955, 526.854
841.437, 529.617
841.919, 521.744
842.401, 502.202
842.884, 496.640
843.366, 509.810
843.848, 521.552
844.330, 522.368
844.812, 518.841
845.294, 520.746
845.776, 528.869
846.258, 531.227
846.740, 523.942
847.223, 516.588
847.705, 507.452
848.187, 501.594
848.669, 505.022
849.151, 514.438
849.633, 519.883
850.115, 518.253
850.597, 516.298
851.080, 516.518
851.562, 516.638
852.044, 514.351
852.526, 511.197
853.008, 510.064
853.490, 511.412
853.972, 512.585
854.454, 510.910
854.937, 509.030
855.419, 509.417
855.901, 511.828
856.383, 517.803
856.865, 526.012
857.347, 529.287
857.829, 522.932
858.311, 512.556
858.794, 506.720
859.276, 504.866
859.758, 504.005
860.240, 504.004
860.722, 505.853
861.204, 510.277
861.686, 514.435
862.168, 514.448
862.650, 511.035
863.133, 512.559
863.615, 522.450
864.097, 524.950
864.579, 512.887
865.061, 501.460
865.543, 501.635
866.025, 509.428
866.507, 514.605
866.989, 517.502
867.472, 516.755
867.954, 507.575
868.436, 500.583
868.918, 500.534
869.400, 503.573
869.882, 506.189
870.364, 508.019
870.846, 509.333
871.328, 510.185
871.811, 510.576
872.293, 510.006
872.775, 509.391
873.257, 510.552
873.739, 512.168
874.221, 511.266
874.703, 506.846
875.185, 500.271
875.667, 488.697
876.150, 478.621
876.632, 480.045
877.114, 488.937
877.596, 496.539
878.078, 500.802
878.560, 503.184
879.042, 504.490
879.524, 505.329
880.007, 507.263
880.489, 509.752
880.971, 509.749
881.453, 507.134
881.935, 504.716
882.417, 503.626
882.899, 504.058
883.381, 507.076
883.864, 512.001
884.346, 510.453
884.828, 500.772
885.310, 493.583
885.792, 490.862
886.274, 491.401
886.756, 495.573
887.238, 501.481
887.721, 503.517
888.203, 499.886
888.685, 497.522
889.167, 496.066
889.649, 496.382
890.131, 502.466
890.613, 507.826
891.095, 504.593
891.577, 493.661
892.060, 485.563
892.542, 480.462
893.024, 479.583
893.506, 487.012
893.988, 494.982
894.470, 499.274
894.952, 500.130
895.434, 497.698
895.916, 491.794
896.399, 487.789
896.881, 489.654
897.363, 492.467
897.845, 494.090
898.327, 493.986
898.809, 489.618
899.291, 482.741
899.773, 480.401
900.255, 486.947
900.738, 494.632
901.220, 494.774
901.702, 492.493
902.184, 487.398
902.666, 494.952
903.148, 499.435
903.630, 501.013
904.112, 490.983
904.594, 495.942
905.077, 494.894
905.559, 493.600
906.041, 500.669
906.523, 492.327
907.005, 499.263
907.487, 500.100
907.969, 499.524
908.451, 509.022
908.934, 509.805
909.416, 502.588
909.898, 492.755
910.380, 479.744
910.862, 472.965
911.344, 475.432
911.826, 480.404
912.308, 482.884
912.791, 483.726
913.273, 485.632
913.755, 489.274
914.237, 491.113
914.719, 491.034
915.201, 488.978
915.683, 482.489
916.165, 477.447
916.648, 482.607
917.130, 496.744
917.612, 501.325
918.094, 490.132
918.576, 479.911
919.058, 466.993
919.540, 460.410
920.022, 471.864
920.504, 488.770
920.987, 489.504
921.469, 470.749
921.951, 461.629
922.433, 475.828
922.915, 486.363
923.397, 482.872
923.879, 475.339
924.361, 470.199
924.843, 467.807
925.326, 467.301
925.808, 468.590
926.290, 471.363
926.772, 479.712
927.254, 484.889
927.736, 477.189
928.218, 465.911
928.700, 463.360
929.182, 469.577
929.665, 476.278
930.147, 480.787
930.629, 482.578
931.111, 479.234
931.593, 474.642
932.075, 472.589
932.557, 472.625
933.039, 472.953
933.521, 473.280
934.004, 475.360
934.486, 481.462
934.968, 488.339
935.450, 493.834
935.932, 496.835
936.414, 493.979
936.896, 486.649
937.378, 479.867
937.861, 475.740
938.343, 474.454
938.825, 478.425
939.307, 483.997
939.789, 483.363
940.271, 478.005
940.753, 471.383
941.235, 464.733
941.718, 461.306
942.200, 463.091
942.682, 468.109
943.164, 475.221
943.646, 483.001
944.128, 484.110
944.610, 479.112
945.092, 473.892
945.575, 469.944
946.057, 469.638
946.539, 475.653
947.021, 483.876
947.503, 483.012
947.985, 473.473
948.467, 469.491
948.949, 472.132
949.431, 473.811
949.914, 471.594
950.396, 469.000
950.878, 469.768
951.360, 473.208
951.842, 476.369
952.324, 479.382
952.806, 481.509
953.288, 483.324
953.770, 480.851
954.253, 470.276
954.735, 459.190
955.217, 458.875
955.699, 468.635
956.181, 471.044
956.663, 462.222
957.145, 459.199
957.627, 467.714
958.109, 474.471
958.592, 470.448
959.074, 461.635
959.556, 459.048
960.038, 463.675
960.520, 465.410
961.002, 462.901
961.484, 460.109
961.966, 456.155
962.448, 454.275
962.931, 457.780
963.413, 464.541
963.895, 469.471
964.377, 472.594
964.859, 473.880
965.341, 472.522
965.823, 470.456
966.305, 466.767
966.788, 463.745
967.270, 464.774
967.752, 467.982
968.234, 466.551
968.716, 456.405
969.198, 451.197
969.680, 455.701
970.162, 459.976
970.644, 460.711
971.127, 459.874
971.609, 458.435
972.091, 456.957
972.573, 457.905
973.055, 464.041
973.537, 467.638
974.019, 464.856
974.502, 462.654
974.984, 466.039
975.466, 470.382
975.948, 470.020
976.430, 465.172
976.912, 460.447
977.394, 455.352
977.876, 452.652
978.358, 454.831
978.841, 457.494
979.323, 458.753
979.805, 458.628
980.287, 456.345
980.769, 452.281
981.251, 450.857
981.733, 455.894
982.215, 460.001
982.697, 460.221
983.180, 459.592
983.662, 460.242
984.144, 461.414
984.626, 461.727
985.108, 460.989
985.590, 459.904
986.072, 458.460
986.554, 457.028
987.036, 454.593
987.519, 453.321
988.001, 457.036
988.483, 462.346
988.965, 462.676
989.447, 456.834
989.929, 450.846
990.411, 444.937
990.893, 442.002
991.375, 446.156
991.858, 451.421
992.340, 452.011
992.822, 449.767
993.304, 449.752
993.786, 453.168
994.268, 454.911
994.750, 449.706
995.232, 446.163
995.715, 451.448
996.197, 458.208
996.679, 459.975
997.161, 457.255
997.643, 451.732
998.125, 443.492
998.607, 438.558
999.089, 441.850
999.571, 446.486
1000.054, 450.310
1000.536, 452.263
1001.018, 449.166
1001.500, 443.849
1001.982, 443.873
1002.464, 451.782
1002.946, 457.941
1003.428, 456.672
1003.911, 453.885
1004.393, 452.862
1004.875, 452.180
1005.357, 449.607
1005.839, 446.130
1006.321, 445.239
1006.803, 448.356
1007.285, 449.428
1007.767, 441.180
1008.250, 435.478
1008.732, 443.633
1009.214, 454.323
1009.696, 455.061
1010.178, 448.136
1010.660, 442.890
1011.142, 441.943
1011.624, 441.891
1012.107, 441.951
1012.589, 441.685
1013.071, 438.200
1013.553, 436.363
1014.035, 444.744
1014.517, 458.499
1014.999, 463.195
1015.481, 453.773
1015.963, 445.343
1016.446, 444.905
1016.928, 445.686
1017.410, 444.401
1017.892, 442.424
1018.374, 440.616
1018.856, 439.482
1019.338, 440.426
1019.820, 444.432
1020.302, 446.078
1020.785, 438.173
1021.267, 434.097
1021.749, 443.885
1022.231, 457.118
1022.713, 464.712
1023.195, 467.416
1023.677, 469.272
1024.159, 471.212
1024.642, 471.374
1025.124, 468.222
1025.606, 464.512
1026.088, 461.875
1026.570, 458.660
1027.052, 452.255
1027.534, 444.417
1028.016, 439.312
1028.499, 437.750
1028.981, 437.544
1029.463, 435.492
1029.945, 438.405
1030.427, 457.626
1030.909, 474.019
1031.391, 466.447
1031.873, 446.889
1032.355, 444.494
1032.838, 466.192
1033.320, 476.941
1033.802, 461.028
1034.284, 449.108
1034.766, 452.291
1035.248, 457.845
1035.730, 456.476
1036.212, 451.723
1036.694, 450.893
1037.177, 454.721
1037.659, 459.371
1038.141, 469.801
1038.623, 473.695
1039.105, 461.324
1039.587, 450.573
1040.069, 452.955
1040.551, 462.340
1041.034, 470.210
1041.516, 477.120
1041.998, 474.758
1042.480, 453.591
1042.962, 441.119
1043.444, 445.593
1043.926, 451.359
1044.408, 449.204
1044.891, 445.089
1045.373, 448.541
1045.855, 459.430
1046.337, 466.009
1046.819, 468.297
1047.301, 465.351
1047.783, 452.564
1048.265, 445.465
1048.747, 453.964
1049.229, 466.964
1049.712, 470.281
1050.194, 465.166
1050.676, 462.198
1051.158, 462.017
1051.640, 460.783
1052.122, 457.876
1052.604, 455.463
1053.086, 454.654
1053.569, 453.679
1054.051, 450.043
1054.533, 445.336
1055.015, 439.877
1055.497, 445.420
1055.979, 448.292
1056.461, 448.637
1056.943, 438.887
1057.426, 442.171
1057.908, 440.233
1058.390, 438.080
1058.872, 443.201
1059.354, 434.919
1059.836, 439.924
1060.318, 439.626
1060.800, 441.755
1061.282, 438.627
1061.765, 437.122
1062.247, 440.876
1062.729, 441.718
1063.211, 437.985
1063.693, 440.268
1064.175, 431.803
1064.657, 433.643
1065.139, 439.638
1065.621, 445.581
1066.104, 450.030
1066.586, 454.569
1067.068, 460.342
1067.550, 462.295
1068.032, 449.913
1068.514, 433.011
1068.996, 428.610
1069.478, 432.668
1069.961, 438.192
1070.443, 443.010
1070.925, 443.971
1071.407, 439.828
1071.889, 437.042
1072.371, 443.150
1072.853, 450.890
1073.335, 453.290
1073.818, 452.817
1074.300, 452.841
1074.782, 452.895
1075.264, 450.278
1075.746, 444.541
1076.228, 440.109
1076.710, 440.110
1077.192, 441.077
1077.674, 442.252
1078.156, 442.371
1078.639, 437.542
1079.121, 432.321
1079.603, 435.701
1080.085, 447.463
1080.567, 455.133
1081.049, 452.789
1081.531, 450.024
1082.013, 449.050
1082.495, 448.810
1082.978, 451.119
1083.460, 452.135
1083.942, 444.933
1084.424, 431.983
1084.906, 426.761
1085.388, 434.385
1085.870, 440.259
1086.352, 444.409
1086.835, 445.912
1087.317, 442.950
1087.799, 439.078
1088.281, 436.512
1088.763, 435.324
1089.245, 436.041
1089.727, 439.282
1090.209, 439.632
1090.692, 434.728
1091.174, 434.613
1091.656, 442.459
1092.138, 451.885
1092.620, 460.570
1093.102, 465.156
1093.584, 458.843
1094.066, 443.657
1094.548, 437.734
1095.031, 441.405
1095.513, 442.426
1095.995, 439.312
1096.477, 437.629
1096.959, 439.724
1097.441, 443.399
1097.923, 446.716
1098.405, 449.289
1098.887, 451.277
1099.370, 451.614
1099.852, 442.583
1100.334, 427.398
1100.816, 424.604
1101.298, 437.207
1101.780, 446.882
1102.262, 440.659
1102.744, 430.407
1103.227, 431.133
1103.709, 435.969
1104.191, 434.529
1104.673, 429.746
1105.155, 426.759
1105.637, 426.773
1106.119, 418.220
1106.601, 429.719
1107.083, 436.350
1107.566, 438.376
1108.048, 422.001
1108.530, 429.386
1109.012, 427.250
1109.494, 424.722
1109.976, 435.452
1110.458, 421.753
1110.940, 432.273
1111.422, 433.125
1111.905, 438.402
1112.387, 434.097
1112.869, 432.752
1113.351, 440.991
1113.833, 443.923
1114.315, 438.516
1114.797, 434.027
1115.279, 435.566
1115.762, 435.852
1116.244, 435.876
1116.726, 431.667
1117.208, 419.676
1117.690, 411.449
1118.172, 410.041
1118.654, 413.784
1119.136, 423.438
1119.619, 434.051
1120.101, 434.252
1120.583, 424.314
1121.065, 418.383
1121.547, 416.618
1122.029, 413.575
1122.511, 408.336
1122.993, 409.018
1123.475, 419.941
1123.958, 430.988
1124.440, 429.272
1124.922, 421.914
1125.404, 428.226
1125.886, 441.758
1126.368, 442.279
1126.850, 431.852
1127.332, 423.238
1127.814, 419.767
1128.297, 417.193
1128.779, 412.445
1129.261, 409.359
1129.743, 412.059
1130.225, 417.790
1130.707, 428.307
1131.189, 436.905
1131.671, 430.603
1132.154, 414.084
1132.636, 405.319
1133.118, 409.847
1133.600, 415.932
1134.082, 421.478
1134.564, 424.584
1135.046, 422.532
1135.528, 419.903
1136.010, 421.253
1136.493, 423.347
1136.975, 419.959
1137.457, 411.134
1137.939, 406.336
1138.421, 408.375
1138.903, 408.228
1139.385, 403.519
1139.867, 401.402
1140.349, 404.637
1140.832, 410.293
1141.314, 416.699
1141.796, 422.604
1142.278, 424.786
1142.760, 423.306
1143.242, 420.474
1143.724, 416.333
1144.206, 416.149
1144.689, 420.539
1145.171, 421.400
1145.653, 414.815
1146.135, 408.423
1146.617, 411.931
1147.099, 418.923
1147.581, 414.988
1148.063, 407.200
1148.546, 412.643
1149.028, 426.409
1149.510, 433.386
1149.992, 430.578
1150.474, 423.051
1150.956, 411.512
1151.438, 403.276
1151.920, 406.508
1152.402, 410.977
1152.885, 407.151
1153.367, 402.806
1153.849, 409.803
1154.331, 422.335
1154.813, 423.306
1155.295, 408.841
1155.777, 402.264
1156.259, 416.834
1156.741, 423.303
1157.224, 410.934
1157.706, 401.463
1158.188, 405.525
1158.670, 414.451
1159.152, 419.905
1159.634, 422.087
1160.116, 420.963
1160.598, 415.808
1161.081, 415.694
1161.563, 421.276
1162.045, 420.579
1162.527, 410.828
1163.009, 404.189
1163.491, 407.821
1163.973, 414.997
1164.455, 418.036
1164.938, 417.712
1165.420, 413.411
1165.902, 408.036
1166.384, 409.967
1166.866, 416.437
1167.348, 416.901
1167.830, 409.854
1168.312, 404.182
1168.794, 404.426
1169.276, 407.461
1169.759, 414.012
1170.241, 419.491
1170.723, 420.060
1171.205, 418.521
1171.687, 417.405
1172.169, 416.821
1172.651, 416.315
1173.133, 415.783
1173.616, 415.828
1174.098, 417.559
1174.580, 418.067
1175.062, 418.218
1175.544, 414.089
1176.026, 400.085
1176.508, 390.132
1176.990, 400.639
1177.473, 422.255
1177.955, 425.589
1178.437, 411.393
1178.919, 404.371
1179.401, 404.243
1179.883, 403.596
1180.365, 401.407
1180.847, 402.994
1181.329, 410.843
1181.812, 418.117
1182.294, 416.706
1182.776, 412.998
1183.258, 416.820
1183.740, 422.402
1184.222, 421.552
1184.704, 416.439
1185.186, 409.853
1185.668, 404.030
1186.151, 405.906
1186.633, 421.030
1187.115, 430.586
1187.597, 424.673
1188.079, 417.453
1188.561, 414.034
1189.043, 410.989
1189.525, 403.547
1190.008, 396.914
1190.490, 400.506
1190.972, 412.707
1191.454, 415.516
1191.936, 406.142
1192.418, 403.767
1192.900, 410.238
1193.382, 414.396
1193.865, 413.000
1194.347, 411.778
1194.829, 414.786
1195.311, 418.058
1195.793, 414.678
1196.275, 408.297
1196.757, 407.602
1197.239, 409.536
1197.721, 406.301
1198.203, 400.128
1198.686, 399.142
1199.168, 404.744
1199.650, 411.198
1200.132, 416.845
1200.614, 419.986
1201.096, 417.996
1201.578, 415.559
1202.060, 415.127
1202.543, 415.434
1203.025, 414.806
1203.507, 414.242
1203.989, 416.339
1204.471, 421.158
1204.953, 423.870
1205.435, 424.610
1205.917, 422.244
1206.400, 415.854
1206.882, 410.510
1207.364, 407.672
1207.846, 408.169
1208.328, 413.199
1208.810, 418.864
1209.292, 418.293
1209.774, 413.617
1210.256, 408.242
1210.739, 403.990
1211.221, 408.112
1211.703, 416.980
1212.185, 416.784
1212.667, 405.555
1213.149, 399.036
1213.631, 406.745
1214.113, 416.230
1214.595, 426.230
1215.078, 430.311
1215.560, 418.008
1216.042, 404.553
1216.524, 405.911
1217.006, 415.106
1217.488, 416.738
1217.970, 410.871
1218.452, 411.838
1218.935, 422.805
1219.417, 424.350
1219.899, 413.279
1220.381, 409.167
1220.863, 418.457
1221.345, 426.262
1221.827, 421.756
1222.309, 412.606
1222.792, 407.478
1223.274, 407.429
1223.756, 419.647
1224.238, 435.469
1224.720, 437.495
1225.202, 429.615
1225.684, 425.560
1226.166, 427.233
1226.648, 424.555
1227.130, 410.444
1227.613, 400.975
1228.095, 402.874
1228.577, 408.429
1229.059, 419.445
1229.541, 427.854
1230.023, 427.570
1230.505, 422.880
1230.987, 420.006
1231.470, 418.421
1231.952, 413.166
1232.434, 403.825
1232.916, 404.798
1233.398, 416.125
1233.880, 424.007
1234.362, 425.373
1234.844, 424.100
1235.327, 422.207
1235.809, 421.196
1236.291, 424.566
1236.773, 427.054
1237.255, 419.651
1237.737, 411.167
1238.219, 411.693
1238.701, 417.970
1239.183, 427.025
1239.666, 436.016
1240.148, 435.730
1240.630, 420.859
1241.112, 412.055
1241.594, 413.080
1242.076, 414.907
1242.558, 416.551
1243.040, 418.770
1243.522, 422.449
1244.005, 424.598
1244.487, 421.768
1244.969, 416.865
1245.451, 417.003
1245.933, 420.539
1246.415, 421.517
1246.897, 420.913
1247.379, 421.687
1247.861, 424.017
1248.344, 426.961
1248.826, 430.182
1249.308, 433.667
1249.790, 438.733
1250.272, 441.034
1250.754, 435.509
1251.236, 430.657
1251.718, 431.197
1252.201, 433.760
1252.683, 436.689
1253.165, 438.778
1253.647, 437.914
1254.129, 434.354
1254.611, 430.525
1255.093, 426.372
1255.575, 421.935
1256.057, 417.519
1256.540, 422.778
1257.022, 438.632
1257.504, 448.674
1257.986, 444.176
1258.468, 437.118
1258.950, 440.551
1259.432, 444.675
1259.914, 437.902
1260.396, 428.888
1260.879, 423.420
1261.361, 423.029
1261.843, 432.355
1262.325, 447.716
1262.807, 455.207
1263.289, 452.218
1263.771, 449.358
1264.253, 446.788
1264.736, 443.373
1265.218, 438.034
1265.700, 437.091
1266.182, 443.288
1266.664, 449.211
1267.146, 448.937
1267.628, 446.179
1268.110, 447.164
##END=



