##NAMES=Hematite
##RRUFFID=R070240
##IDEAL CHEMISTRY=Fe^3+^_2_O_3_
##LOCALITY=Moshgai, Gobi Desert, Mongolia
##OWNER=RRUFF
##SOURCE=Michael Scott
##DESCRIPTION=Black fine-grained replacement of massive but fractured magnetite
##STATUS=The identification of this mineral has been confirmed by X-ray diffraction and chemical analysis
##URL=rruff.info/R070240
##MEASURED CHEMISTRY=(Fe^3+^_1.97_Al_0.02_Mn^3+^_0.01_)_Î£=2_O_3_
171.1595, 31243.80
171.6417, 31306.02
172.1238, 31360.09
172.6059, 31446.96
173.0880, 31587.72
173.5701, 31718.99
174.0522, 31795.85
174.5344, 31850.23
175.0165, 31928.41
175.4986, 32060.00
175.9807, 32225.96
176.4628, 32374.50
176.9449, 32494.92
177.4271, 32617.46
177.9092, 32755.95
178.3913, 32902.50
178.8734, 33046.00
179.3555, 33181.91
179.8376, 33312.41
180.3197, 33444.09
180.8019, 33571.80
181.2840, 33710.96
181.7661, 33882.73
182.2482, 34062.34
182.7303, 34216.82
183.2124, 34327.84
183.6946, 34407.75
184.1767, 34491.67
184.6588, 34584.19
185.1409, 34671.52
185.6230, 34743.21
186.1051, 34810.49
186.5873, 34888.64
187.0694, 34986.68
187.5515, 35094.17
188.0336, 35185.39
188.5157, 35253.55
188.9978, 35314.19
189.4800, 35362.82
189.9621, 35409.82
190.4442, 35468.84
190.9263, 35546.55
191.4084, 35632.86
191.8905, 35700.71
192.3727, 35730.47
192.8548, 35777.86
193.3369, 35868.60
193.8190, 35970.98
194.3011, 36046.21
194.7832, 36078.16
195.2654, 36099.78
195.7475, 36186.95
196.2296, 36388.03
196.7117, 36566.98
197.1938, 36717.45
197.6759, 36837.01
198.1581, 36911.81
198.6402, 36939.18
199.1223, 36948.29
199.6044, 36996.37
200.0865, 37111.61
200.5686, 37210.52
201.0508, 37283.93
201.5329, 37342.98
202.0150, 37397.24
202.4971, 37449.06
202.9792, 37490.02
203.4613, 37500.77
203.9435, 37452.94
204.4256, 37439.99
204.9077, 37495.32
205.3898, 37561.05
205.8719, 37594.67
206.3540, 37589.46
206.8362, 37572.22
207.3183, 37580.31
207.8004, 37624.59
208.2825, 37667.30
208.7646, 37704.68
209.2467, 37743.30
209.7289, 37785.85
210.2110, 37833.06
210.6931, 37885.39
211.1752, 37943.00
211.6573, 38004.67
212.1395, 38075.60
212.6216, 38163.74
213.1037, 38253.27
213.5858, 38335.41
214.0679, 38410.58
214.5500, 38486.02
215.0322, 38571.84
215.5143, 38672.72
215.9964, 38750.41
216.4785, 38791.09
216.9606, 38822.16
217.4427, 38844.30
217.9249, 38864.21
218.4070, 38896.75
218.8891, 38959.86
219.3712, 39055.37
219.8533, 39114.87
220.3354, 39106.77
220.8176, 39091.11
221.2997, 39084.73
221.7818, 39083.01
222.2639, 39072.05
222.7460, 39039.95
223.2281, 38989.79
223.7103, 38957.84
224.1924, 38963.57
224.6745, 38967.55
225.1566, 38958.73
225.6387, 38943.53
226.1208, 38932.20
226.6030, 38930.82
227.0851, 38937.41
227.5672, 38944.50
228.0493, 38960.75
228.5314, 38964.75
229.0135, 38938.87
229.4957, 38904.81
229.9778, 38886.72
230.4599, 38895.49
230.9420, 38925.01
231.4241, 38962.24
231.9062, 39015.98
232.3884, 39061.79
232.8705, 39095.79
233.3526, 39122.18
233.8347, 39140.01
234.3168, 39149.73
234.7989, 39162.97
235.2811, 39206.92
235.7632, 39313.17
236.2453, 39373.42
236.7274, 39339.77
237.2095, 39290.54
237.6916, 39278.31
238.1738, 39312.62
238.6559, 39366.45
239.1380, 39411.26
239.6201, 39450.12
240.1022, 39467.67
240.5843, 39427.93
241.0665, 39395.76
241.5486, 39414.26
242.0307, 39477.22
242.5128, 39539.07
242.9949, 39546.52
243.4770, 39491.81
243.9592, 39477.04
244.4413, 39536.77
244.9234, 39606.88
245.4055, 39674.86
245.8876, 39734.88
246.3697, 39778.32
246.8519, 39798.25
247.3340, 39795.99
247.8161, 39780.55
248.2982, 39731.59
248.7803, 39697.32
249.2624, 39690.95
249.7446, 39709.05
250.2267, 39750.21
250.7088, 39823.48
251.1909, 39908.91
251.6730, 39942.54
252.1551, 39891.12
252.6373, 39855.52
253.1194, 39847.68
253.6015, 39877.92
254.0836, 39975.50
254.5657, 40164.61
255.0478, 40371.95
255.5300, 40474.70
256.0121, 40448.48
256.4942, 40408.34
256.9763, 40363.10
257.4584, 40329.95
257.9406, 40324.91
258.4227, 40351.93
258.9048, 40395.16
259.3869, 40444.41
259.8690, 40500.51
260.3511, 40544.12
260.8333, 40565.20
261.3154, 40577.73
261.7975, 40590.26
262.2796, 40603.48
262.7617, 40618.47
263.2438, 40626.94
263.7260, 40634.30
264.2081, 40678.30
264.6902, 40790.21
265.1723, 40896.59
265.6544, 40938.29
266.1365, 40930.41
266.6187, 40920.67
267.1008, 40931.14
267.5829, 40955.02
268.0650, 40978.65
268.5471, 41001.59
269.0292, 41024.53
269.5114, 41049.52
269.9935, 41074.61
270.4756, 41095.13
270.9577, 41094.16
271.4398, 41101.00
271.9219, 41163.53
272.4041, 41284.04
272.8862, 41382.93
273.3683, 41407.07
273.8504, 41389.88
274.3325, 41398.61
274.8146, 41446.12
275.2968, 41501.88
275.7789, 41546.19
276.2610, 41581.65
276.7431, 41620.21
277.2252, 41668.25
277.7073, 41718.25
278.1895, 41753.98
278.6716, 41769.48
279.1537, 41799.22
279.6358, 41874.38
280.1179, 41967.64
280.6000, 42026.45
281.0822, 42035.82
281.5643, 42032.62
282.0464, 42065.78
282.5285, 42139.85
283.0106, 42189.63
283.4927, 42191.03
283.9749, 42175.65
284.4570, 42170.23
284.9391, 42177.20
285.4212, 42189.68
285.9033, 42207.04
286.3854, 42227.50
286.8676, 42217.00
287.3497, 42138.95
287.8318, 42068.28
288.3139, 42044.85
288.7960, 42058.61
289.2781, 42081.93
289.7603, 42101.43
290.2424, 42115.77
290.7245, 42118.43
291.2066, 42114.64
291.6887, 42093.89
292.1708, 42038.63
292.6530, 41971.10
293.1351, 41918.70
293.6172, 41891.03
294.0993, 41879.25
294.5814, 41868.20
295.0635, 41857.03
295.5457, 41848.44
296.0278, 41841.02
296.5099, 41836.99
296.9920, 41847.56
297.4741, 41868.14
297.9562, 41872.03
298.4384, 41822.49
298.9205, 41702.05
299.4026, 41651.82
299.8847, 41735.49
300.3668, 41823.41
300.8489, 41872.00
301.3310, 41890.10
301.8131, 41905.91
302.2953, 41939.34
302.7774, 41984.11
303.2595, 42008.51
303.7416, 42010.95
304.2237, 41992.20
304.7058, 41932.96
305.1880, 41863.64
305.6701, 41818.31
306.1522, 41809.99
306.6343, 41820.69
307.1164, 41816.38
307.5985, 41785.64
308.0807, 41782.80
308.5628, 41850.51
309.0449, 41926.48
309.5270, 41979.31
310.0091, 42004.38
310.4912, 42005.69
310.9734, 41971.72
311.4555, 41907.78
311.9376, 41875.25
312.4197, 41891.63
312.9018, 41922.35
313.3839, 41954.32
313.8661, 41983.11
314.3482, 41995.59
314.8303, 41970.80
315.3124, 41932.72
315.7945, 41931.29
316.2766, 41974.74
316.7588, 42005.47
317.2409, 41969.64
317.7230, 41909.17
318.2051, 41897.57
318.6872, 41968.18
319.1693, 42045.24
319.6515, 42067.52
320.1336, 42046.03
320.6157, 42029.77
321.0978, 42033.99
321.5799, 42052.50
322.0620, 42080.17
322.5442, 42120.01
323.0263, 42149.60
323.5084, 42157.54
323.9905, 42153.96
324.4726, 42144.54
324.9547, 42130.41
325.4369, 42134.00
325.9190, 42185.62
326.4011, 42291.76
326.8832, 42353.25
327.3653, 42337.27
327.8474, 42308.99
328.3296, 42301.40
328.8117, 42312.06
329.2938, 42327.30
329.7759, 42339.59
330.2580, 42349.51
330.7401, 42359.41
331.2223, 42378.98
331.7044, 42386.44
332.1865, 42358.84
332.6686, 42327.47
333.1507, 42329.50
333.6328, 42375.02
334.1150, 42441.50
334.5971, 42501.05
335.0792, 42568.68
335.5613, 42584.77
336.0434, 42496.29
336.5255, 42409.43
337.0077, 42383.80
337.4898, 42411.04
337.9719, 42446.23
338.4540, 42453.59
338.9361, 42437.05
339.4182, 42433.02
339.9004, 42454.18
340.3825, 42469.14
340.8646, 42469.57
341.3467, 42459.10
341.8288, 42439.38
342.3109, 42408.85
342.7931, 42379.40
343.2752, 42365.51
343.7573, 42366.27
344.2394, 42391.42
344.7215, 42473.44
345.2036, 42556.84
345.6858, 42592.45
346.1679, 42579.09
346.6500, 42562.81
347.1321, 42570.29
347.6142, 42596.98
348.0963, 42634.16
348.5785, 42685.67
349.0606, 42733.13
349.5427, 42753.08
350.0248, 42756.24
350.5069, 42775.14
350.9890, 42836.35
351.4712, 42898.92
351.9533, 42929.01
352.4354, 42930.36
352.9175, 42921.10
353.3996, 42905.54
353.8817, 42889.42
354.3639, 42890.40
354.8460, 42918.38
355.3281, 42938.82
355.8102, 42930.93
356.2923, 42917.39
356.7744, 42931.84
357.2566, 42979.58
357.7387, 43028.68
358.2208, 43041.56
358.7029, 43009.00
359.1850, 42991.03
359.6671, 42996.55
360.1493, 43005.52
360.6314, 43005.83
361.1135, 43002.64
361.5956, 43010.93
362.0777, 43041.26
362.5598, 43083.76
363.0420, 43100.32
363.5241, 43062.11
364.0062, 43044.57
364.4883, 43075.15
364.9704, 43116.08
365.4525, 43132.82
365.9347, 43119.31
366.4168, 43099.31
366.8989, 43095.78
367.3810, 43108.64
367.8631, 43140.93
368.3452, 43213.25
368.8274, 43280.83
369.3095, 43318.78
369.7916, 43335.16
370.2737, 43350.68
370.7558, 43382.32
371.2379, 43412.76
371.7201, 43400.65
372.2022, 43339.18
372.6843, 43302.14
373.1664, 43333.86
373.6485, 43401.15
374.1306, 43453.26
374.6128, 43487.63
375.0949, 43510.75
375.5770, 43520.71
376.0591, 43522.42
376.5412, 43525.56
377.0233, 43532.19
377.5055, 43539.31
377.9876, 43543.53
378.4697, 43544.42
378.9518, 43547.31
379.4339, 43543.24
379.9160, 43549.28
380.3982, 43591.05
380.8803, 43652.89
381.3624, 43688.15
381.8445, 43668.94
382.3266, 43615.61
382.8087, 43589.70
383.2909, 43619.71
383.7730, 43641.71
384.2551, 43641.63
384.7372, 43641.27
385.2193, 43661.45
385.7014, 43703.54
386.1836, 43751.10
386.6657, 43786.23
387.1478, 43807.80
387.6299, 43837.07
388.1120, 43899.09
388.5941, 43938.57
389.0763, 43908.96
389.5584, 43852.54
390.0405, 43840.05
390.5226, 43909.35
391.0047, 44012.07
391.4868, 44069.88
391.9690, 44077.34
392.4511, 44091.03
392.9332, 44142.08
393.4153, 44188.90
393.8974, 44179.58
394.3795, 44114.85
394.8617, 44073.88
395.3438, 44125.89
395.8259, 44215.96
396.3080, 44243.11
396.7901, 44195.28
397.2722, 44146.36
397.7544, 44148.46
398.2365, 44193.52
398.7186, 44229.15
399.2007, 44259.51
399.6828, 44275.94
400.1649, 44266.61
400.6471, 44243.04
401.1292, 44222.09
401.6113, 44209.17
402.0934, 44205.75
402.5755, 44215.84
403.0576, 44249.10
403.5398, 44265.55
404.0219, 44251.41
404.5040, 44235.81
404.9861, 44240.75
405.4682, 44257.11
405.9503, 44255.89
406.4325, 44214.31
406.9146, 44151.71
407.3967, 44144.24
407.8788, 44234.85
408.3609, 44291.85
408.8430, 44270.56
409.3252, 44221.66
409.8073, 44177.36
410.2894, 44144.59
410.7715, 44125.48
411.2536, 44126.30
411.7357, 44143.71
412.2179, 44161.93
412.7000, 44181.91
413.1821, 44197.90
413.6642, 44207.11
414.1463, 44209.32
414.6284, 44201.13
415.1106, 44167.91
415.5927, 44141.19
416.0748, 44152.91
416.5569, 44191.03
417.0390, 44215.74
417.5211, 44211.04
418.0033, 44197.58
418.4854, 44210.13
418.9675, 44265.46
419.4496, 44286.87
419.9317, 44238.10
420.4138, 44182.11
420.8960, 44161.41
421.3781, 44171.98
421.8602, 44188.28
422.3423, 44193.74
422.8244, 44192.34
423.3065, 44203.21
423.7887, 44255.37
424.2708, 44272.78
424.7529, 44209.48
425.2350, 44137.16
425.7171, 44125.80
426.1992, 44178.73
426.6814, 44231.80
427.1635, 44206.03
427.6456, 44111.95
428.1277, 44083.46
428.6098, 44148.79
429.0919, 44226.18
429.5741, 44287.23
430.0562, 44329.88
430.5383, 44345.51
431.0204, 44322.90
431.5025, 44292.94
431.9846, 44284.87
432.4668, 44291.33
432.9489, 44279.20
433.4310, 44232.43
433.9131, 44191.85
434.3952, 44217.82
434.8773, 44320.47
435.3595, 44376.03
435.8416, 44328.59
436.3237, 44276.60
436.8058, 44300.43
437.2879, 44369.98
437.7701, 44393.57
438.2522, 44320.41
438.7343, 44198.37
439.2164, 44152.40
439.6985, 44245.82
440.1806, 44303.88
440.6628, 44285.31
441.1449, 44265.83
441.6270, 44307.20
442.1091, 44397.93
442.5912, 44475.14
443.0733, 44484.14
443.5555, 44445.43
444.0376, 44443.00
444.5197, 44493.48
445.0018, 44533.70
445.4839, 44534.70
445.9660, 44515.69
446.4482, 44490.34
446.9303, 44458.86
447.4124, 44433.54
447.8945, 44412.91
448.3766, 44405.59
448.8587, 44441.35
449.3409, 44527.85
449.8230, 44607.97
450.3051, 44638.53
450.7872, 44621.33
451.2693, 44591.75
451.7514, 44538.83
452.2336, 44487.38
452.7157, 44428.91
453.1978, 44382.89
453.6799, 44386.42
454.1620, 44446.97
454.6441, 44524.02
455.1263, 44565.82
455.6084, 44567.52
456.0905, 44561.27
456.5726, 44531.70
457.0547, 44509.98
457.5368, 44519.79
458.0190, 44540.33
458.5011, 44532.13
458.9832, 44473.07
459.4653, 44406.31
459.9474, 44395.56
460.4295, 44441.54
460.9117, 44498.90
461.3938, 44569.24
461.8759, 44634.75
462.3580, 44679.00
462.8401, 44704.80
463.3222, 44725.15
463.8044, 44745.21
464.2865, 44760.11
464.7686, 44764.32
465.2507, 44759.21
465.7328, 44747.39
466.2149, 44727.61
466.6971, 44710.24
467.1792, 44716.57
467.6613, 44762.17
468.1434, 44799.87
468.6255, 44827.86
469.1076, 44849.80
469.5898, 44871.56
470.0719, 44889.38
470.5540, 44889.31
471.0361, 44859.13
471.5182, 44814.63
472.0003, 44806.13
472.4825, 44852.09
472.9646, 44883.86
473.4467, 44874.71
473.9288, 44855.11
474.4109, 44839.63
474.8930, 44830.60
475.3752, 44831.45
475.8573, 44859.36
476.3394, 44892.41
476.8215, 44885.24
477.3036, 44836.52
477.7857, 44793.65
478.2679, 44778.17
478.7500, 44785.29
479.2321, 44803.56
479.7142, 44827.46
480.1963, 44872.19
480.6784, 44985.41
481.1606, 45090.65
481.6427, 45097.24
482.1248, 45015.89
482.6069, 44939.96
483.0890, 44941.08
483.5711, 45003.75
484.0533, 45042.45
484.5354, 45050.54
485.0175, 45043.63
485.4996, 44999.37
485.9817, 44960.11
486.4638, 44965.20
486.9460, 45015.50
487.4281, 45075.29
487.9102, 45126.07
488.3923, 45164.55
488.8744, 45177.72
489.3565, 45162.58
489.8387, 45137.37
490.3208, 45098.94
490.8029, 45063.03
491.2850, 45062.13
491.7671, 45108.59
492.2492, 45153.45
492.7314, 45178.34
493.2135, 45193.86
493.6956, 45211.80
494.1777, 45233.11
494.6598, 45254.49
495.1419, 45275.68
495.6241, 45293.21
496.1062, 45284.45
496.5883, 45234.70
497.0704, 45177.56
497.5525, 45088.21
498.0346, 45012.13
498.5168, 44996.49
498.9989, 45040.11
499.4810, 45094.44
499.9631, 45114.41
500.4452, 45113.32
500.9273, 45150.70
501.4095, 45241.59
501.8916, 45306.22
502.3737, 45293.46
502.8558, 45243.25
503.3379, 45219.84
503.8200, 45229.30
504.3022, 45244.80
504.7843, 45255.52
505.2664, 45267.53
505.7485, 45298.55
506.2306, 45343.60
506.7127, 45361.52
507.1949, 45319.18
507.6770, 45235.90
508.1591, 45196.54
508.6412, 45225.81
509.1233, 45265.67
509.6054, 45328.38
510.0876, 45388.15
510.5697, 45433.48
511.0518, 45458.96
511.5339, 45452.21
512.0161, 45383.24
512.4982, 45289.14
512.9803, 45285.73
513.4624, 45391.00
513.9445, 45477.75
514.4266, 45494.75
514.9088, 45477.32
515.3909, 45467.88
515.8730, 45465.66
516.3551, 45479.14
516.8372, 45537.16
517.3193, 45592.64
517.8015, 45598.59
518.2836, 45560.46
518.7657, 45508.07
519.2478, 45455.51
519.7299, 45406.61
520.2120, 45368.56
520.6942, 45324.99
521.1763, 45325.74
521.6584, 45419.84
522.1405, 45507.04
522.6226, 45521.34
523.1047, 45484.06
523.5869, 45462.11
524.0690, 45500.36
524.5511, 45549.70
525.0332, 45503.08
525.5153, 45361.57
525.9974, 45305.53
526.4796, 45410.72
526.9617, 45560.56
527.4438, 45633.29
527.9259, 45637.97
528.4080, 45635.63
528.8901, 45625.20
529.3723, 45619.30
529.8544, 45634.03
530.3365, 45657.05
530.8186, 45657.66
531.3007, 45626.40
531.7828, 45595.76
532.2650, 45617.09
532.7471, 45705.79
533.2292, 45750.40
533.7113, 45710.01
534.1934, 45671.02
534.6755, 45645.84
535.1577, 45642.83
535.6398, 45685.05
536.1219, 45785.51
536.6040, 45871.05
537.0861, 45850.59
537.5682, 45759.61
538.0504, 45715.30
538.5325, 45734.79
539.0146, 45776.62
539.4967, 45822.49
539.9788, 45865.91
540.4609, 45875.02
540.9431, 45813.30
541.4252, 45771.30
541.9073, 45777.10
542.3894, 45804.33
542.8715, 45837.58
543.3536, 45868.90
543.8358, 45885.50
544.3179, 45878.37
544.8000, 45847.28
545.2821, 45776.10
545.7642, 45621.53
546.2463, 45546.78
546.7285, 45677.70
547.2106, 45842.21
547.6926, 45904.14
548.1747, 45865.54
548.6569, 45821.90
549.1390, 45814.59
549.6211, 45822.93
550.1032, 45825.72
550.5853, 45824.18
551.0674, 45827.00
551.5496, 45838.47
552.0317, 45851.49
552.5138, 45852.98
552.9959, 45834.21
553.4780, 45834.06
553.9601, 45874.03
554.4423, 45906.88
554.9244, 45894.33
555.4065, 45868.13
555.8886, 45884.55
556.3707, 45965.39
556.8528, 46062.00
557.3350, 46121.58
557.8171, 46145.80
558.2992, 46142.98
558.7813, 46105.04
559.2634, 46067.88
559.7455, 46054.88
560.2277, 46061.25
560.7098, 46069.01
561.1919, 46079.61
561.6740, 46088.84
562.1561, 46082.23
562.6382, 46081.63
563.1204, 46131.36
563.6025, 46219.60
564.0846, 46269.12
564.5667, 46215.50
565.0488, 46094.18
565.5309, 46049.94
566.0131, 46119.46
566.4952, 46173.39
566.9773, 46175.39
567.4594, 46166.45
567.9415, 46163.05
568.4236, 46169.32
568.9058, 46196.75
569.3879, 46284.95
569.8700, 46365.30
570.3521, 46344.50
570.8342, 46254.57
571.3163, 46207.19
571.7985, 46238.39
572.2806, 46302.32
572.7627, 46346.68
573.2448, 46370.66
573.7269, 46383.39
574.2090, 46400.73
574.6912, 46388.70
575.1733, 46300.31
575.6554, 46198.28
576.1375, 46155.25
576.6196, 46185.32
577.1017, 46241.68
577.5839, 46283.93
578.0660, 46318.42
578.5481, 46374.07
579.0302, 46455.94
579.5123, 46516.10
579.9944, 46527.66
580.4766, 46509.00
580.9587, 46492.14
581.4408, 46475.55
581.9229, 46465.70
582.4050, 46468.71
582.8871, 46474.09
583.3693, 46476.65
583.8514, 46475.80
584.3335, 46468.57
584.8156, 46453.49
585.2977, 46442.07
585.7798, 46453.81
586.2620, 46490.24
586.7441, 46534.92
587.2262, 46601.89
587.7083, 46653.05
588.1904, 46656.49
588.6725, 46632.80
589.1547, 46611.96
589.6368, 46593.34
590.1189, 46589.71
590.6010, 46617.88
591.0831, 46658.74
591.5652, 46696.95
592.0474, 46726.04
592.5295, 46723.80
593.0116, 46670.07
593.4937, 46590.30
593.9758, 46568.81
594.4579, 46645.48
594.9401, 46685.70
595.4222, 46637.94
595.9043, 46587.89
596.3864, 46582.11
596.8685, 46608.10
597.3506, 46629.14
597.8328, 46628.90
598.3149, 46625.00
598.7970, 46627.73
599.2791, 46639.73
599.7612, 46674.40
600.2433, 46734.54
600.7255, 46790.61
601.2076, 46817.95
601.6897, 46818.92
602.1718, 46812.81
602.6539, 46789.10
603.1360, 46772.68
603.6182, 46766.43
604.1003, 46767.18
604.5824, 46778.33
605.0645, 46795.34
605.5466, 46801.77
606.0287, 46778.00
606.5109, 46752.45
606.9930, 46788.13
607.4751, 46872.42
607.9572, 46892.70
608.4393, 46806.11
608.9214, 46708.30
609.4036, 46699.09
609.8857, 46779.06
610.3678, 46835.33
610.8499, 46861.20
611.3320, 46874.27
611.8141, 46878.52
612.2963, 46871.97
612.7784, 46840.38
613.2605, 46790.72
613.7426, 46760.79
614.2247, 46787.27
614.7068, 46846.96
615.1890, 46883.86
615.6711, 46897.37
616.1532, 46901.44
616.6353, 46897.44
617.1174, 46889.98
617.5995, 46882.36
618.0817, 46874.59
618.5638, 46873.84
619.0459, 46885.78
619.5280, 46898.53
620.0101, 46918.40
620.4922, 46931.07
620.9744, 46915.63
621.4565, 46870.52
621.9386, 46812.79
622.4207, 46745.21
622.9028, 46682.48
623.3849, 46698.60
623.8671, 46811.93
624.3492, 46894.27
624.8313, 46889.16
625.3134, 46857.19
625.7955, 46878.96
626.2776, 46950.78
626.7598, 46991.48
627.2419, 46957.84
627.7240, 46925.22
628.2061, 46948.30
628.6882, 46989.68
629.1703, 46986.90
629.6525, 46929.71
630.1346, 46861.68
630.6167, 46815.13
631.0988, 46796.17
631.5809, 46858.10
632.0630, 47037.85
632.5452, 47151.80
633.0273, 47109.63
633.5094, 47011.28
633.9915, 46965.66
634.4736, 46970.02
634.9557, 46976.80
635.4379, 46971.81
635.9200, 46972.27
636.4021, 47002.33
636.8842, 47038.86
637.3663, 47034.48
637.8484, 46984.05
638.3306, 46942.31
638.8127, 46972.19
639.2948, 47056.83
639.7769, 47086.70
640.2590, 47044.13
640.7411, 47010.38
641.2233, 47017.25
641.7054, 47034.00
642.1875, 47016.11
642.6696, 46968.93
643.1517, 46964.35
643.6339, 47064.46
644.1160, 47160.33
644.5981, 47188.27
645.0802, 47174.86
645.5623, 47157.07
646.0444, 47145.18
646.5266, 47136.25
647.0087, 47128.03
647.4908, 47120.35
647.9729, 47107.51
648.4550, 47081.35
648.9371, 47087.05
649.4193, 47169.43
649.9014, 47251.28
650.3835, 47240.39
650.8656, 47152.96
651.3477, 47104.67
651.8298, 47143.82
652.3120, 47192.95
652.7941, 47224.80
653.2762, 47240.66
653.7583, 47229.93
654.2404, 47199.68
654.7225, 47194.18
655.2047, 47261.04
655.6868, 47363.97
656.1689, 47366.89
656.6510, 47247.48
657.1331, 47167.20
657.6152, 47171.73
658.0974, 47207.25
658.5795, 47240.00
659.0616, 47266.38
659.5437, 47266.30
660.0258, 47187.19
660.5079, 47144.54
660.9901, 47225.30
661.4722, 47331.47
661.9543, 47349.41
662.4364, 47282.63
662.9185, 47215.05
663.4006, 47203.63
663.8828, 47221.73
664.3649, 47209.57
664.8470, 47165.93
665.3291, 47130.86
665.8112, 47107.63
666.2933, 47100.68
666.7755, 47118.70
667.2576, 47156.30
667.7397, 47188.54
668.2218, 47214.89
668.7039, 47236.77
669.1860, 47250.71
669.6682, 47263.30
670.1503, 47274.44
670.6324, 47289.18
671.1145, 47325.70
671.5966, 47397.59
672.0787, 47461.93
672.5609, 47437.86
673.0430, 47342.55
673.5251, 47306.06
674.0072, 47348.80
674.4893, 47402.63
674.9714, 47429.89
675.4536, 47438.95
675.9357, 47452.24
676.4178, 47482.00
676.8999, 47488.67
677.3820, 47458.89
677.8641, 47418.36
678.3463, 47371.11
678.8284, 47325.68
679.3105, 47295.02
679.7926, 47283.29
680.2747, 47278.46
680.7568, 47254.44
681.2390, 47232.70
681.7211, 47285.39
682.2032, 47409.29
682.6853, 47499.16
683.1674, 47507.75
683.6495, 47465.90
684.1317, 47416.28
684.6138, 47352.96
685.0959, 47314.36
685.5780, 47333.28
686.0601, 47337.10
686.5422, 47285.28
687.0244, 47223.94
687.5065, 47208.96
687.9886, 47243.12
688.4707, 47270.66
688.9528, 47256.61
689.4349, 47222.46
689.9171, 47167.05
690.3992, 47112.05
690.8813, 47133.08
691.3634, 47248.98
691.8455, 47387.89
692.3276, 47482.36
692.8098, 47533.04
693.2919, 47535.55
693.7740, 47450.63
694.2561, 47405.52
694.7382, 47480.90
695.2203, 47551.25
695.7025, 47499.95
696.1846, 47365.80
696.6667, 47301.14
697.1488, 47388.68
697.6309, 47485.37
698.1130, 47518.07
698.5952, 47515.23
699.0773, 47500.82
699.5594, 47484.91
700.0415, 47488.56
700.5236, 47527.81
701.0057, 47577.36
701.4879, 47579.31
701.9700, 47530.81
702.4521, 47495.57
702.9342, 47480.07
703.4163, 47476.10
703.8984, 47484.20
704.3806, 47498.48
704.8627, 47504.13
705.3448, 47497.03
705.8269, 47493.79
706.3090, 47496.80
706.7911, 47504.11
707.2733, 47518.41
707.7554, 47534.88
708.2375, 47547.63
708.7196, 47554.53
709.2017, 47552.49
709.6838, 47524.69
710.1660, 47489.08
710.6481, 47506.54
711.1302, 47573.00
711.6123, 47598.80
712.0944, 47543.73
712.5765, 47473.23
713.0587, 47473.90
713.5408, 47550.99
714.0229, 47587.03
714.5050, 47549.25
714.9871, 47514.09
715.4692, 47486.27
715.9514, 47471.03
716.4335, 47477.65
716.9156, 47501.98
717.3977, 47525.48
717.8798, 47540.79
718.3619, 47552.64
718.8441, 47570.68
719.3262, 47585.60
719.8083, 47568.35
720.2904, 47524.06
720.7725, 47510.23
721.2546, 47571.32
721.7368, 47663.23
722.2189, 47667.32
722.7010, 47564.26
723.1831, 47510.29
723.6652, 47537.37
724.1473, 47574.37
724.6295, 47587.07
725.1116, 47580.83
725.5937, 47565.32
726.0758, 47534.85
726.5579, 47515.47
727.0400, 47520.83
727.5222, 47529.42
728.0043, 47524.14
728.4864, 47514.93
728.9685, 47525.85
729.4506, 47560.11
729.9327, 47582.56
730.4149, 47546.79
730.8970, 47482.53
731.3791, 47461.17
731.8612, 47478.35
732.3433, 47493.74
732.8254, 47496.22
733.3076, 47489.26
733.7897, 47473.29
734.2718, 47450.22
734.7539, 47445.77
735.2360, 47473.74
735.7181, 47497.34
736.2003, 47501.52
736.6824, 47510.38
737.1645, 47559.63
737.6466, 47624.86
738.1287, 47632.02
738.6108, 47526.90
739.0930, 47446.27
739.5751, 47504.57
740.0572, 47603.32
740.5393, 47628.94
741.0214, 47586.59
741.5035, 47524.26
741.9857, 47464.46
742.4678, 47422.46
742.9499, 47430.83
743.4320, 47484.61
743.9141, 47510.02
744.3962, 47500.05
744.8784, 47496.51
745.3605, 47518.24
745.8426, 47550.31
746.3247, 47575.63
746.8068, 47595.23
747.2889, 47596.12
747.7711, 47568.47
748.2532, 47535.97
748.7353, 47494.52
749.2174, 47457.61
749.6995, 47438.68
750.1816, 47435.96
750.6638, 47437.09
751.1459, 47434.70
751.6280, 47437.13
752.1101, 47459.02
752.5922, 47488.74
753.0743, 47495.13
753.5565, 47481.13
754.0386, 47493.51
754.5207, 47562.78
755.0028, 47650.71
755.4849, 47680.93
755.9670, 47647.86
756.4492, 47603.02
756.9313, 47533.64
757.4134, 47488.55
757.8955, 47505.60
758.3776, 47545.86
758.8597, 47539.03
759.3419, 47476.39
759.8240, 47462.44
760.3061, 47577.39
760.7882, 47656.33
761.2703, 47605.52
761.7524, 47508.50
762.2346, 47444.02
762.7167, 47425.25
763.1988, 47440.68
763.6809, 47502.31
764.1630, 47562.10
764.6451, 47551.53
765.1273, 47498.25
765.6094, 47473.43
766.0915, 47484.67
766.5736, 47494.38
767.0557, 47477.58
767.5378, 47453.33
768.0200, 47470.28
768.5021, 47541.05
768.9842, 47574.34
769.4663, 47555.75
769.9484, 47526.24
770.4305, 47483.96
770.9127, 47453.73
771.3948, 47486.20
771.8769, 47589.55
772.3590, 47643.76
772.8411, 47592.23
773.3232, 47540.43
773.8054, 47534.88
774.2875, 47545.56
774.7696, 47540.39
775.2517, 47517.20
775.7338, 47488.32
776.2159, 47451.76
776.6981, 47430.97
777.1802, 47473.93
777.6623, 47547.48
778.1444, 47573.06
778.6265, 47544.60
779.1086, 47494.65
779.5908, 47438.86
780.0729, 47391.16
780.5550, 47380.35
781.0371, 47409.95
781.5192, 47445.82
782.0013, 47499.91
782.4835, 47526.21
782.9656, 47483.00
783.4477, 47426.61
783.9298, 47444.89
784.4119, 47540.72
784.8940, 47577.85
785.3762, 47490.66
785.8583, 47421.63
786.3404, 47407.63
786.8225, 47428.43
787.3046, 47483.02
787.7867, 47555.82
788.2689, 47607.20
788.7510, 47615.54
789.2331, 47615.49
789.7152, 47651.33
790.1973, 47690.25
790.6794, 47669.29
791.1616, 47598.12
791.6437, 47536.67
792.1258, 47510.34
792.6079, 47497.01
793.0900, 47462.14
793.5721, 47410.64
794.0543, 47390.75
794.5364, 47403.30
795.0185, 47449.27
795.5006, 47549.46
795.9827, 47638.38
796.4648, 47640.64
796.9470, 47567.27
797.4291, 47537.23
797.9112, 47613.68
798.3933, 47642.75
798.8754, 47569.90
799.3575, 47495.47
799.8397, 47484.65
800.3218, 47511.58
800.8039, 47520.54
801.2860, 47496.04
801.7681, 47473.96
802.2502, 47484.18
802.7324, 47494.18
803.2145, 47456.73
803.6966, 47402.30
804.1787, 47398.04
804.6608, 47455.07
805.1429, 47518.93
805.6251, 47546.43
806.1072, 47546.77
806.5893, 47533.66
807.0714, 47509.29
807.5535, 47490.87
808.0356, 47481.43
808.5178, 47474.61
808.9999, 47464.74
809.4820, 47457.40
809.9641, 47465.96
810.4462, 47490.04
810.9283, 47536.01
811.4105, 47644.45
811.8926, 47708.32
812.3747, 47641.91
812.8568, 47539.11
813.3389, 47515.81
813.8210, 47572.61
814.3032, 47604.04
814.7853, 47569.05
815.2674, 47539.30
815.7495, 47538.82
816.2316, 47554.43
816.7137, 47594.67
817.1959, 47639.00
817.6780, 47627.37
818.1601, 47520.96
818.6422, 47419.12
819.1243, 47411.93
819.6064, 47459.70
820.0886, 47514.86
820.5707, 47568.38
821.0528, 47609.28
821.5349, 47633.27
822.0170, 47630.02
822.4991, 47576.65
822.9813, 47492.87
823.4634, 47472.18
823.9455, 47518.36
824.4276, 47539.71
824.9097, 47508.05
825.3918, 47487.96
825.8740, 47536.27
826.3561, 47627.24
826.8382, 47673.02
827.3203, 47655.28
827.8024, 47634.23
828.2845, 47596.48
828.7667, 47572.13
829.2488, 47583.44
829.7309, 47606.90
830.2130, 47614.38
830.6951, 47604.20
831.1772, 47593.50
831.6594, 47594.89
832.1415, 47586.10
832.6236, 47539.07
833.1057, 47490.66
833.5878, 47488.64
834.0699, 47520.48
834.5521, 47529.87
835.0342, 47486.05
835.5163, 47446.03
835.9984, 47475.45
836.4805, 47536.09
836.9626, 47563.53
837.4448, 47563.25
837.9269, 47579.57
838.4090, 47624.84
838.8911, 47644.79
839.3732, 47570.80
839.8553, 47435.50
840.3375, 47349.69
840.8196, 47313.24
841.3017, 47350.65
841.7838, 47485.49
842.2659, 47596.44
842.7480, 47590.47
843.2302, 47518.96
843.7123, 47517.76
844.1944, 47627.16
844.6765, 47669.27
845.1586, 47586.37
845.6407, 47522.29
846.1229, 47540.67
846.6050, 47589.27
847.0871, 47629.07
847.5692, 47657.11
848.0513, 47652.16
848.5334, 47575.55
849.0156, 47514.02
849.4977, 47492.21
849.9798, 47493.13
850.4619, 47521.01
850.9440, 47556.70
851.4261, 47560.07
851.9083, 47516.79
852.3904, 47473.57
852.8725, 47447.59
853.3546, 47448.02
853.8367, 47507.78
854.3188, 47594.31
854.8010, 47640.11
855.2831, 47634.94
855.7652, 47616.34
856.2473, 47610.57
856.7294, 47610.32
857.2115, 47604.43
857.6937, 47592.99
858.1758, 47568.31
858.6579, 47531.26
859.1400, 47522.69
859.6221, 47564.39
860.1042, 47623.35
860.5864, 47654.20
861.0685, 47657.34
861.5506, 47646.02
862.0327, 47612.83
862.5148, 47595.16
862.9969, 47606.58
863.4791, 47624.91
863.9612, 47634.47
864.4433, 47636.74
864.9254, 47637.06
865.4075, 47637.29
865.8896, 47631.61
866.3718, 47600.17
866.8539, 47586.68
867.3360, 47639.11
867.8181, 47696.64
868.3002, 47679.40
868.7823, 47588.70
869.2645, 47515.66
869.7466, 47457.70
870.2287, 47455.13
870.7108, 47580.82
871.1929, 47721.20
871.6750, 47777.60
872.1572, 47763.24
872.6393, 47720.10
873.1214, 47660.06
873.6035, 47622.38
874.0856, 47659.02
874.5677, 47713.06
875.0499, 47725.03
875.5320, 47703.09
876.0141, 47646.37
876.4962, 47570.18
876.9783, 47548.92
877.4604, 47641.89
877.9426, 47778.36
878.4247, 47857.75
878.9068, 47882.79
879.3889, 47842.20
879.8710, 47743.95
880.3531, 47680.95
880.8353, 47692.07
881.3174, 47736.23
881.7995, 47771.14
882.2816, 47793.38
882.7637, 47768.54
883.2458, 47683.77
883.7280, 47653.06
884.2101, 47706.22
884.6922, 47782.48
885.1743, 47859.07
885.6564, 47913.24
886.1385, 47883.92
886.6207, 47734.83
887.1028, 47670.36
887.5849, 47761.80
888.0670, 47822.15
888.5491, 47749.85
889.0313, 47673.93
889.5134, 47742.63
889.9955, 47911.13
890.4776, 47970.11
890.9597, 47815.72
891.4418, 47714.50
891.9240, 47747.23
892.4061, 47792.60
892.8882, 47789.20
893.3703, 47757.85
893.8524, 47717.61
894.3345, 47676.14
894.8167, 47676.48
895.2988, 47777.90
895.7809, 47874.22
896.2630, 47906.50
896.7451, 47907.40
897.2272, 47902.38
897.7094, 47897.54
898.1915, 47901.09
898.6736, 47916.21
899.1557, 47915.45
899.6378, 47853.98
900.1199, 47782.71
900.6021, 47776.10
901.0842, 47805.24
901.5663, 47810.23
902.0484, 47780.27
902.5305, 47720.64
903.0126, 47626.15
903.4948, 47557.75
903.9769, 47644.59
904.4590, 47824.96
904.9411, 47896.21
905.4232, 47861.96
905.9053, 47812.15
906.3875, 47776.73
906.8696, 47773.67
907.3517, 47829.99
907.8338, 47915.91
908.3159, 47929.11
908.7980, 47869.07
909.2802, 47809.23
909.7623, 47754.59
910.2444, 47717.59
910.7265, 47701.85
911.2086, 47716.18
911.6907, 47782.87
912.1729, 47900.57
912.6550, 47961.61
913.1371, 47948.10
913.6192, 47935.04
914.1013, 47936.78
914.5834, 47938.16
915.0656, 47929.70
915.5477, 47913.67
916.0298, 47894.68
916.5119, 47871.77
916.9940, 47848.90
917.4761, 47801.46
917.9583, 47789.10
918.4404, 47866.38
918.9225, 47948.55
919.4046, 47964.75
919.8867, 47929.47
920.3688, 47896.75
920.8510, 47853.83
921.3331, 47850.82
921.8152, 47937.80
922.2973, 48016.56
922.7794, 48032.96
923.2615, 48022.61
923.7437, 48035.41
924.2258, 48068.52
924.7079, 48067.41
925.1900, 47974.71
925.6721, 47913.09
926.1542, 47967.58
926.6364, 48039.89
927.1185, 48051.89
927.6006, 48024.59
928.0827, 48002.45
928.5648, 47995.46
929.0469, 47988.66
929.5291, 47957.38
930.0112, 47942.20
930.4933, 47998.12
930.9754, 48070.91
931.4575, 48090.68
931.9396, 48064.95
932.4218, 48032.85
932.9039, 48008.89
933.3860, 47994.75
933.8681, 47995.71
934.3502, 48004.18
934.8323, 48012.26
935.3145, 48019.71
935.7966, 48031.32
936.2787, 48043.27
936.7608, 48037.34
937.2429, 48003.50
937.7250, 47954.30
938.2072, 47883.69
938.6893, 47817.47
939.1714, 47828.25
939.6535, 47898.58
940.1356, 47962.57
940.6177, 48003.32
941.0999, 48017.22
941.5820, 47998.44
942.0641, 47969.54
942.5462, 47971.98
943.0283, 48000.81
943.5104, 48039.70
943.9926, 48084.88
944.4747, 48090.94
944.9568, 48042.81
945.4389, 47994.20
945.9210, 47994.64
946.4031, 48027.41
946.8853, 48048.02
947.3674, 48056.48
947.8495, 48054.72
948.3316, 48040.62
948.8137, 48046.04
949.2958, 48087.06
949.7780, 48133.20
950.2601, 48150.06
950.7422, 48142.60
951.2243, 48138.59
951.7064, 48140.85
952.1885, 48124.25
952.6707, 48077.86
953.1528, 48048.98
953.6349, 48070.34
954.1170, 48095.38
954.5991, 48049.68
955.0812, 47940.08
955.5634, 47917.66
956.0455, 48013.39
956.5276, 48103.71
957.0097, 48182.92
957.4918, 48236.34
957.9739, 48247.64
958.4561, 48238.16
958.9382, 48246.24
959.4203, 48275.51
959.9024, 48269.85
960.3845, 48221.63
960.8666, 48150.51
961.3488, 48016.96
961.8309, 47920.03
962.3130, 47941.24
962.7951, 48029.41
963.2772, 48086.10
963.7593, 48106.64
964.2415, 48120.66
964.7236, 48116.66
965.2057, 48122.93
965.6878, 48180.02
966.1699, 48213.95
966.6520, 48139.11
967.1342, 48014.90
967.6163, 47987.29
968.0984, 48094.97
968.5805, 48156.41
969.0626, 48122.44
969.5447, 48095.70
970.0269, 48102.61
970.5090, 48125.24
970.9911, 48156.99
971.4732, 48192.30
971.9553, 48217.49
972.4374, 48228.58
972.9196, 48239.46
973.4017, 48262.98
973.8838, 48272.76
974.3659, 48234.62
974.8480, 48199.66
975.3301, 48229.96
975.8123, 48301.11
976.2944, 48329.69
976.7765, 48290.03
977.2586, 48250.01
977.7407, 48223.43
978.2228, 48201.13
978.7050, 48160.80
979.1871, 48137.20
979.6692, 48174.99
980.1513, 48260.49
980.6334, 48345.75
981.1155, 48438.86
981.5977, 48472.79
982.0798, 48383.44
982.5619, 48281.89
983.0440, 48179.15
983.5261, 48126.59
984.0082, 48234.00
984.4904, 48444.73
984.9725, 48524.53
985.4546, 48355.09
985.9367, 48221.90
986.4188, 48268.11
986.9009, 48333.55
987.3831, 48321.62
987.8652, 48278.68
988.3473, 48265.12
988.8294, 48278.87
989.3115, 48274.77
989.7936, 48219.60
990.2758, 48204.18
990.7579, 48318.96
991.2400, 48427.43
991.7221, 48421.65
992.2042, 48372.05
992.6863, 48372.86
993.1685, 48421.28
993.6506, 48448.38
994.1327, 48420.01
994.6148, 48401.68
995.0969, 48451.09
995.5790, 48489.63
996.0612, 48456.69
996.5433, 48385.75
997.0254, 48290.61
997.5075, 48198.10
997.9896, 48201.40
998.4717, 48378.48
998.9539, 48513.54
999.4360, 48474.73
999.9181, 48394.23
1000.400, 48320.48
1000.882, 48288.22
1001.364, 48373.13
1001.847, 48541.03
1002.329, 48630.59
1002.811, 48561.33
1003.293, 48487.54
1003.775, 48473.76
1004.257, 48488.60
1004.739, 48546.23
1005.221, 48596.63
1005.703, 48559.95
1006.186, 48454.83
1006.668, 48383.75
1007.150, 48388.97
1007.632, 48404.55
1008.114, 48389.75
1008.596, 48387.21
1009.078, 48436.75
1009.560, 48506.32
1010.043, 48564.43
1010.525, 48604.43
1011.007, 48624.63
1011.489, 48625.96
1011.971, 48602.21
1012.453, 48506.20
1012.935, 48434.98
1013.417, 48480.38
1013.899, 48559.09
1014.382, 48575.04
1014.864, 48535.18
1015.346, 48496.75
1015.828, 48470.47
1016.310, 48467.85
1016.792, 48497.93
1017.274, 48547.57
1017.756, 48655.41
1018.239, 48743.28
1018.721, 48699.41
1019.203, 48568.14
1019.685, 48498.68
1020.167, 48535.54
1020.649, 48582.59
1021.131, 48626.20
1021.613, 48651.31
1022.095, 48638.45
1022.578, 48614.86
1023.060, 48610.76
1023.542, 48615.87
1024.024, 48590.45
1024.506, 48515.69
1024.988, 48487.71
1025.470, 48577.96
1025.952, 48658.32
1026.435, 48689.37
1026.917, 48684.27
1027.399, 48623.56
1027.881, 48544.82
1028.363, 48531.81
1028.845, 48605.71
1029.327, 48653.82
1029.809, 48664.27
1030.292, 48634.80
1030.774, 48472.63
1031.256, 48362.63
1031.738, 48500.64
1032.220, 48748.43
1032.702, 48845.49
1033.184, 48761.11
1033.666, 48702.83
1034.148, 48704.07
1034.630, 48714.20
1035.113, 48748.46
1035.595, 48764.21
1036.077, 48709.64
1036.559, 48636.87
1037.041, 48635.12
1037.523, 48708.45
1038.005, 48739.32
1038.487, 48691.86
1038.970, 48658.59
1039.452, 48657.41
1039.934, 48654.10
1040.416, 48619.33
1040.898, 48587.70
1041.380, 48613.73
1041.862, 48688.52
1042.344, 48709.43
1042.826, 48629.32
1043.309, 48602.23
1043.791, 48672.16
1044.273, 48720.23
1044.755, 48680.82
1045.237, 48633.78
1045.719, 48665.61
1046.201, 48757.63
1046.683, 48823.13
1047.166, 48855.37
1047.648, 48890.62
1048.130, 48948.36
1048.612, 48943.92
1049.094, 48826.70
1049.576, 48705.36
1050.058, 48676.20
1050.540, 48704.79
1051.022, 48686.31
1051.505, 48605.67
1051.987, 48654.27
1052.469, 48868.40
1052.951, 48966.29
1053.433, 48861.43
1053.915, 48746.63
1054.397, 48754.93
1054.879, 48816.39
1055.361, 48786.88
1055.844, 48682.29
1056.326, 48714.96
1056.808, 48884.30
1057.290, 48984.35
1057.772, 48979.56
1058.254, 48950.55
1058.736, 48939.36
1059.218, 48924.98
1059.701, 48871.80
1060.183, 48799.94
1060.665, 48785.99
1061.147, 48817.86
1061.629, 48826.28
1062.111, 48807.26
1062.593, 48798.21
1063.075, 48813.59
1063.557, 48841.60
1064.040, 48876.09
1064.522, 48905.06
1065.004, 48895.20
1065.486, 48866.33
1065.968, 48867.99
1066.450, 48897.00
1066.932, 48936.30
1067.414, 48976.35
1067.896, 48989.59
1068.379, 48949.77
1068.861, 48903.81
1069.343, 48919.37
1069.825, 48950.56
1070.307, 48917.92
1070.789, 48856.79
1071.271, 48847.35
1071.753, 48891.54
1072.236, 48932.52
1072.718, 48944.82
1073.200, 48950.39
1073.682, 48975.76
1074.164, 48989.92
1074.646, 48946.79
1075.128, 48891.98
1075.610, 48889.83
1076.093, 48924.75
1076.575, 48931.68
1077.057, 48891.69
1077.539, 48883.88
1078.021, 48971.21
1078.503, 49060.34
1078.985, 49138.73
1079.467, 49173.45
1079.949, 49100.19
1080.432, 48985.44
1080.914, 48938.95
1081.396, 48970.73
1081.878, 49008.84
1082.360, 49055.80
1082.842, 49084.86
1083.324, 49084.15
1083.806, 49074.01
1084.288, 49047.35
1084.771, 49027.96
1085.253, 49055.23
1085.735, 49114.59
1086.217, 49133.55
1086.699, 49098.30
1087.181, 49056.97
1087.663, 48990.83
1088.145, 48959.84
1088.628, 48998.44
1089.110, 49040.23
1089.592, 49032.43
1090.074, 48999.96
1090.556, 48997.51
1091.038, 49026.21
1091.520, 49055.88
1092.002, 49090.28
1092.484, 49096.50
1092.967, 49065.21
1093.449, 49030.28
1093.931, 49006.64
1094.413, 49000.06
1094.895, 49023.63
1095.377, 49063.04
1095.859, 49060.53
1096.341, 49022.15
1096.823, 48989.52
1097.306, 48968.09
1097.788, 48968.46
1098.270, 48994.06
1098.752, 49048.50
1099.234, 49143.02
1099.716, 49231.69
1100.198, 49232.13
1100.680, 49181.77
1101.163, 49149.67
1101.645, 49134.52
1102.127, 49123.06
1102.609, 49114.68
1103.091, 49125.73
1103.573, 49166.14
1104.055, 49184.46
1104.537, 49098.58
1105.020, 49013.66
1105.502, 49042.48
1105.984, 49116.45
1106.466, 49160.38
1106.948, 49174.67
1107.430, 49183.12
1107.912, 49190.23
1108.394, 49177.36
1108.876, 49117.55
1109.359, 49065.73
1109.841, 49041.41
1110.323, 49032.45
1110.805, 49034.82
1111.287, 49046.33
1111.769, 49073.84
1112.251, 49110.34
1112.733, 49118.23
1113.215, 49063.63
1113.698, 49058.04
1114.180, 49175.01
1114.662, 49226.14
1115.144, 49114.27
1115.626, 49003.34
1116.108, 49001.17
1116.590, 49075.39
1117.072, 49181.86
1117.555, 49321.20
1118.037, 49342.82
1118.519, 49214.95
1119.001, 49157.45
1119.483, 49208.50
1119.965, 49240.90
1120.447, 49195.95
1120.929, 49153.07
1121.411, 49202.54
1121.894, 49294.01
1122.376, 49283.78
1122.858, 49195.45
1123.340, 49144.85
1123.822, 49135.80
1124.304, 49169.67
1124.786, 49238.04
1125.268, 49281.18
1125.750, 49263.61
1126.233, 49234.13
1126.715, 49252.55
1127.197, 49287.45
1127.679, 49282.01
1128.161, 49270.91
1128.643, 49338.67
1129.125, 49445.45
1129.607, 49461.54
1130.090, 49362.86
1130.572, 49276.92
1131.054, 49261.88
1131.536, 49284.83
1132.018, 49372.99
1132.500, 49444.09
1132.982, 49427.31
1133.464, 49372.09
1133.947, 49327.91
1134.429, 49302.09
1134.911, 49306.14
1135.393, 49365.76
1135.875, 49371.55
1136.357, 49225.71
1136.839, 49162.55
1137.321, 49298.28
1137.803, 49410.00
1138.286, 49343.75
1138.768, 49214.32
1139.250, 49192.66
1139.732, 49266.86
1140.214, 49327.19
1140.696, 49374.50
1141.178, 49397.07
1141.660, 49390.62
1142.142, 49409.49
1142.625, 49474.23
1143.107, 49505.41
1143.589, 49432.77
1144.071, 49334.98
1144.553, 49377.82
1145.035, 49497.27
1145.517, 49475.57
1145.999, 49364.54
1146.482, 49343.92
1146.964, 49410.51
1147.446, 49424.16
1147.928, 49338.10
1148.410, 49279.20
1148.892, 49372.71
1149.374, 49477.32
1149.856, 49442.66
1150.339, 49381.45
1150.821, 49418.77
1151.303, 49498.25
1151.785, 49534.95
1152.267, 49520.11
1152.749, 49471.41
1153.231, 49375.86
1153.713, 49316.42
1154.195, 49340.77
1154.677, 49363.00
1155.160, 49351.05
1155.642, 49336.61
1156.124, 49345.90
1156.606, 49358.87
1157.088, 49340.42
1157.570, 49295.64
1158.052, 49284.63
1158.534, 49309.91
1159.017, 49366.49
1159.499, 49465.93
1159.981, 49519.85
1160.463, 49497.28
1160.945, 49463.31
1161.427, 49465.97
1161.909, 49480.37
1162.391, 49461.50
1162.874, 49420.80
1163.356, 49390.71
1163.838, 49373.07
1164.320, 49382.18
1164.802, 49411.04
1165.284, 49423.52
1165.766, 49411.63
1166.248, 49417.05
1166.730, 49478.03
1167.213, 49538.13
1167.695, 49564.27
1168.177, 49554.83
1168.659, 49467.18
1169.141, 49373.06
1169.623, 49376.13
1170.105, 49448.53
1170.587, 49487.57
1171.069, 49472.77
1171.552, 49445.45
1172.034, 49384.88
1172.516, 49355.07
1172.998, 49371.98
1173.480, 49413.02
1173.962, 49484.30
1174.444, 49555.14
1174.926, 49597.32
1175.409, 49610.24
1175.891, 49577.32
1176.373, 49489.75
1176.855, 49503.28
1177.337, 49621.65
1177.819, 49658.40
1178.301, 49581.22
1178.783, 49520.55
1179.266, 49539.95
1179.748, 49583.44
1180.230, 49595.25
1180.712, 49589.26
1181.194, 49577.45
1181.676, 49570.23
1182.158, 49603.48
1182.640, 49648.38
1183.122, 49628.67
1183.604, 49554.63
1184.087, 49522.76
1184.569, 49576.20
1185.051, 49610.93
1185.533, 49553.89
1186.015, 49503.04
1186.497, 49483.48
1186.979, 49501.51
1187.461, 49598.07
1187.944, 49710.65
1188.426, 49757.09
1188.908, 49741.69
1189.390, 49684.87
1189.872, 49555.34
1190.354, 49498.29
1190.836, 49526.30
1191.318, 49573.29
1191.801, 49626.99
1192.283, 49688.29
1192.765, 49760.84
1193.247, 49814.23
1193.729, 49807.02
1194.211, 49758.02
1194.693, 49689.59
1195.175, 49625.32
1195.657, 49655.53
1196.140, 49740.91
1196.622, 49739.64
1197.104, 49650.95
1197.586, 49618.87
1198.068, 49712.31
1198.550, 49810.00
1199.032, 49840.04
1199.514, 49847.25
1199.996, 49869.76
1200.479, 49866.87
1200.961, 49757.57
1201.443, 49631.88
1201.925, 49648.93
1202.407, 49787.84
1202.889, 49827.73
1203.371, 49702.97
1203.853, 49701.36
1204.336, 49887.47
1204.818, 49981.02
1205.300, 49911.57
1205.782, 49802.30
1206.264, 49710.33
1206.746, 49667.06
1207.228, 49724.67
1207.710, 49829.31
1208.193, 49841.04
1208.675, 49790.46
1209.157, 49752.75
1209.639, 49735.22
1210.121, 49764.18
1210.603, 49821.81
1211.085, 49808.65
1211.567, 49682.82
1212.049, 49608.92
1212.531, 49747.29
1213.014, 49883.96
1213.496, 49912.37
1213.978, 49892.27
1214.460, 49825.07
1214.942, 49762.75
1215.424, 49778.96
1215.906, 49851.87
1216.388, 49893.40
1216.871, 49896.35
1217.353, 49915.46
1217.835, 49961.80
1218.317, 49973.09
1218.799, 49935.19
1219.281, 49902.31
1219.763, 49897.51
1220.245, 49894.41
1220.728, 49867.40
1221.210, 49833.62
1221.692, 49811.17
1222.174, 49811.54
1222.656, 49890.93
1223.138, 49995.95
1223.620, 50007.63
1224.102, 49943.26
1224.584, 49895.07
1225.067, 49885.56
1225.549, 49863.11
1226.031, 49775.82
1226.513, 49732.27
1226.995, 49809.34
1227.477, 49885.05
1227.959, 49906.88
1228.441, 49905.69
1228.923, 49899.32
1229.406, 49891.37
1229.888, 49886.18
1230.370, 49884.94
1230.852, 49909.51
1231.334, 49962.64
1231.816, 49959.87
1232.298, 49899.73
1232.780, 49879.09
1233.263, 49916.15
1233.745, 49909.61
1234.227, 49799.98
1234.709, 49680.00
1235.191, 49633.17
1235.673, 49640.65
1236.155, 49719.43
1236.637, 49806.63
1237.120, 49826.88
1237.602, 49807.39
1238.084, 49795.45
1238.566, 49793.29
1239.048, 49778.16
1239.530, 49736.91
1240.012, 49724.30
1240.494, 49743.53
1240.976, 49795.45
1241.458, 49908.98
1241.941, 49979.01
1242.423, 49955.88
1242.905, 49896.49
##END=



