##NAMES=Hematite
##RRUFFID=R110013
##IDEAL CHEMISTRY=Fe^3+^_2_O_3_
##LOCALITY=Itabira, Minas Gerais, Brazil
##OWNER=RRUFF
##SOURCE=University of Arizona Mineral Museum
##DESCRIPTION=A group of black lustrous euhedral crystals
##STATUS=The identification of this mineral is confirmed by single-crystal X-ray diffraction and chemical analysis.
##URL=rruff.info/R110013
##MEASURED CHEMISTRY=Fe_2_O_3_ ; (Pure phase as determined by WDS analysis)
170.1024, 41.18829
170.5845, 42.87039
171.0666, 45.14446
171.5487, 47.22307
172.0309, 49.07393
172.5130, 50.03066
172.9951, 48.69390
173.4772, 46.31389
173.9593, 44.83887
174.4414, 45.83728
174.9236, 47.66205
175.4057, 48.33169
175.8878, 47.83241
176.3699, 47.49212
176.8520, 49.07106
177.3341, 51.66032
177.8163, 53.27934
178.2984, 52.32092
178.7805, 50.16503
179.2626, 48.61056
179.7447, 47.67694
180.2268, 47.61564
180.7090, 49.58761
181.1911, 52.85811
181.6732, 55.11821
182.1553, 54.42212
182.6374, 52.11173
183.1195, 51.30137
183.6017, 52.28670
184.0838, 53.42062
184.5659, 52.36530
185.0480, 49.56997
185.5301, 47.25928
186.0123, 46.45204
186.4944, 46.95132
186.9765, 48.55770
187.4586, 51.57081
187.9407, 54.58761
188.4228, 55.43567
188.9050, 54.28846
189.3871, 52.91820
189.8692, 52.31820
190.3513, 52.30276
190.8334, 51.75190
191.3155, 50.40720
191.7977, 49.06274
192.2798, 49.14189
192.7619, 50.63793
193.2440, 52.30896
193.7261, 53.80497
194.2082, 55.06960
194.6904, 55.29046
195.1725, 54.13682
195.6546, 52.49562
196.1367, 52.01656
196.6188, 52.73505
197.1009, 53.98325
197.5831, 55.77757
198.0652, 58.12925
198.5473, 59.37973
199.0294, 59.17128
199.5115, 58.20593
199.9937, 57.93284
200.4758, 58.44097
200.9579, 59.06810
201.4400, 59.34478
201.9221, 59.21170
202.4042, 59.68223
202.8864, 61.13985
203.3685, 62.90344
203.8506, 63.08898
204.3327, 61.27715
204.8148, 59.58606
205.2969, 59.25880
205.7791, 60.47823
206.2612, 61.68856
206.7433, 62.72622
207.2254, 63.75841
207.7075, 65.20319
208.1896, 67.08817
208.6718, 69.31478
209.1539, 71.98666
209.6360, 75.23190
210.1181, 78.16223
210.6002, 80.75300
211.0823, 82.99379
211.5645, 84.74745
212.0466, 85.79774
212.5287, 86.89600
213.0108, 88.24470
213.4929, 89.56965
213.9750, 92.34528
214.4572, 97.20206
214.9393, 103.3280
215.4214, 108.2309
215.9035, 111.0619
216.3856, 114.4441
216.8678, 119.7500
217.3499, 127.4252
217.8320, 135.6510
218.3141, 143.9035
218.7962, 152.7107
219.2783, 163.8206
219.7605, 177.7085
220.2426, 192.8438
220.7247, 207.7850
221.2068, 220.7792
221.6889, 238.2802
222.1710, 260.1435
222.6532, 286.7426
223.1353, 318.5568
223.6174, 356.5099
224.0995, 398.7098
224.5816, 444.2153
225.0637, 493.7287
225.5459, 547.9208
226.0280, 616.6414
226.5101, 688.1456
226.9922, 725.3381
227.4743, 727.0850
227.9564, 697.3015
228.4386, 631.2455
228.9207, 506.7247
229.4028, 402.4005
229.8849, 320.3407
230.3670, 258.6651
230.8492, 210.7099
231.3313, 179.9294
231.8134, 158.2529
232.2955, 142.5847
232.7776, 135.6557
233.2597, 128.9359
233.7419, 121.8451
234.2240, 115.0418
234.7061, 110.5181
235.1882, 109.0057
235.6703, 108.6471
236.1524, 108.6530
236.6346, 108.7998
237.1167, 109.8375
237.5988, 111.7967
238.0809, 114.6178
238.5630, 118.1803
239.0451, 122.2190
239.5273, 127.3595
240.0094, 133.6755
240.4915, 140.6162
240.9736, 150.2620
241.4557, 162.9445
241.9378, 178.2173
242.4200, 195.2031
242.9021, 214.5519
243.3842, 234.9030
243.8663, 255.8914
244.3484, 277.7437
244.8306, 300.2709
245.3127, 327.0239
245.7948, 352.4159
246.2769, 366.4530
246.7590, 369.7415
247.2411, 360.4276
247.7233, 335.4097
248.2054, 289.1629
248.6875, 247.3709
249.1696, 209.8109
249.6517, 177.2099
250.1338, 151.3364
250.6160, 133.7130
251.0981, 120.0271
251.5802, 109.4330
252.0623, 102.1888
252.5444, 96.46786
253.0265, 92.98611
253.5087, 90.47997
253.9908, 87.01707
254.4729, 81.45860
254.9550, 77.22511
255.4371, 75.62346
255.9192, 77.07417
256.4014, 77.79101
256.8835, 77.44722
257.3656, 76.69275
257.8477, 76.35657
258.3298, 76.72366
258.8120, 76.86489
259.2941, 76.51768
259.7762, 75.65178
260.2583, 74.57774
260.7404, 72.64497
261.2225, 71.29491
261.7047, 72.20808
262.1868, 76.11790
262.6689, 80.56651
263.1510, 86.09441
263.6331, 92.51173
264.1152, 93.48547
264.5974, 86.60880
265.0795, 77.98387
265.5616, 73.76867
266.0437, 75.14008
266.5258, 76.81774
267.0079, 77.89388
267.4901, 78.46177
267.9722, 79.24639
268.4543, 80.28238
268.9364, 81.48699
269.4185, 82.82236
269.9006, 84.31773
270.3828, 85.78007
270.8649, 87.06035
271.3470, 88.30350
271.8291, 90.27021
272.3112, 93.13282
272.7933, 96.32788
273.2755, 99.37280
273.7576, 102.1885
274.2397, 105.4943
274.7218, 109.6603
275.2039, 114.1764
275.6860, 116.9284
276.1682, 117.2045
276.6503, 118.4914
277.1324, 123.4896
277.6145, 132.4578
278.0966, 141.0415
278.5787, 148.8493
279.0609, 156.1375
279.5430, 163.4485
280.0251, 170.6900
280.5072, 178.3482
280.9893, 186.6150
281.4715, 195.4246
281.9536, 204.9359
282.4357, 214.8636
282.9178, 226.0649
283.3999, 240.2047
283.8820, 257.3638
284.3642, 275.9996
284.8463, 294.8350
285.3284, 314.2115
285.8105, 336.4230
286.2926, 361.1969
286.7747, 390.0205
287.2569, 425.0258
287.7390, 466.1464
288.2211, 511.9281
288.7032, 562.3646
289.1853, 617.0497
289.6674, 675.4255
290.1496, 737.9971
290.6317, 802.6266
291.1138, 869.5625
291.5959, 938.0435
292.0780, 1001.371
292.5602, 1065.042
293.0423, 1119.932
293.5244, 1143.533
294.0065, 1135.473
294.4886, 1100.108
294.9707, 1027.859
295.4529, 928.0222
295.9350, 834.7840
296.4171, 752.8362
296.8992, 685.0325
297.3813, 640.2452
297.8634, 617.5637
298.3456, 605.3892
298.8277, 602.0449
299.3098, 602.6101
299.7919, 596.3733
300.2740, 581.0890
300.7561, 558.2184
301.2383, 527.9412
301.7204, 491.0505
302.2025, 453.1011
302.6846, 415.3876
303.1667, 379.2040
303.6488, 345.6084
304.1310, 315.0003
304.6131, 287.2881
305.0952, 262.8652
305.5773, 241.6194
306.0594, 223.3269
306.5415, 208.5770
307.0237, 196.2269
307.5058, 185.0840
307.9879, 175.2036
308.4700, 165.8879
308.9521, 155.8087
309.4343, 145.9710
309.9164, 137.8931
310.3985, 133.4021
310.8806, 130.0481
311.3627, 125.7274
311.8448, 120.2897
312.3270, 115.6254
312.8091, 114.0224
313.2912, 113.4525
313.7733, 111.5205
314.2554, 105.4203
314.7375, 99.43554
315.2197, 96.33108
315.7018, 95.72733
316.1839, 94.55140
316.6660, 90.08016
317.1481, 85.12621
317.6302, 82.09587
318.1124, 83.20406
318.5945, 84.23061
319.0766, 83.70078
319.5587, 81.93802
320.0408, 80.06995
320.5229, 77.92323
321.0051, 76.13671
321.4872, 75.22582
321.9693, 76.24468
322.4514, 76.31738
322.9335, 73.79414
323.4156, 70.01824
323.8978, 67.57879
324.3799, 68.18284
324.8620, 69.09683
325.3441, 69.32043
325.8262, 68.50452
326.3083, 67.87629
326.7905, 67.77378
327.2726, 67.82784
327.7547, 67.58633
328.2368, 66.79059
328.7189, 65.94730
329.2010, 64.95522
329.6832, 63.73713
330.1653, 63.34071
330.6474, 64.64388
331.1295, 66.13637
331.6116, 66.56936
332.0938, 65.20356
332.5759, 63.94747
333.0580, 63.07266
333.5401, 62.51824
334.0222, 61.88597
334.5043, 61.10659
334.9865, 60.33707
335.4686, 59.64935
335.9507, 59.01405
336.4328, 58.54357
336.9149, 58.27363
337.3970, 58.15224
337.8792, 58.02755
338.3613, 57.84666
338.8434, 57.80560
339.3255, 58.08114
339.8076, 58.75637
340.2898, 59.12008
340.7719, 59.16095
341.2540, 58.91962
341.7361, 58.24048
342.2182, 57.03628
342.7003, 56.36493
343.1825, 56.93390
343.6646, 58.45465
344.1467, 58.83266
344.6288, 57.91947
345.1109, 56.63102
345.5930, 55.63224
346.0752, 54.97234
346.5573, 55.10760
347.0394, 56.55879
347.5215, 58.51551
348.0036, 58.96716
348.4857, 57.94450
348.9679, 56.88258
349.4500, 57.01403
349.9321, 57.95245
350.4142, 58.57049
350.8963, 58.66320
351.3784, 58.47628
351.8606, 58.22291
352.3427, 57.93151
352.8248, 57.70176
353.3069, 57.39404
353.7890, 57.26122
354.2711, 57.93058
354.7533, 59.57729
355.2354, 60.84454
355.7175, 59.95714
356.1996, 57.94703
356.6817, 56.61384
357.1638, 57.65365
357.6460, 58.97349
358.1281, 58.69341
358.6102, 56.93981
359.0923, 55.51194
359.5744, 55.58924
360.0565, 56.42772
360.5387, 57.33374
361.0208, 58.38135
361.5029, 59.13157
361.9850, 59.10231
362.4671, 58.56372
362.9492, 58.34732
363.4314, 59.17383
363.9135, 60.08646
364.3956, 60.55376
364.8777, 60.38442
365.3598, 60.05227
365.8419, 59.54999
366.3241, 58.97009
366.8062, 58.45415
367.2883, 57.68544
367.7704, 57.30621
368.2526, 57.62899
368.7347, 58.82306
369.2168, 59.76505
369.6989, 60.23409
370.1810, 60.57381
370.6631, 61.11281
371.1453, 62.51693
371.6274, 63.08680
372.1095, 62.13384
372.5916, 60.00861
373.0737, 59.15316
373.5558, 60.25180
374.0380, 61.59126
374.5201, 62.11039
375.0022, 61.31587
375.4843, 61.44113
375.9664, 63.02437
376.4485, 65.15173
376.9307, 65.96841
377.4128, 65.24267
377.8949, 64.13825
378.3770, 62.83101
378.8591, 61.37926
379.3412, 61.11345
379.8234, 62.24329
380.3055, 63.82674
380.7876, 64.90784
381.2697, 65.50503
381.7518, 65.76749
382.2339, 65.69761
382.7161, 65.35142
383.1982, 64.64436
383.6803, 63.60450
384.1624, 62.87885
384.6445, 63.30016
385.1266, 64.40136
385.6088, 64.88786
386.0909, 64.36477
386.5730, 63.82393
387.0551, 64.59700
387.5372, 66.32479
388.0193, 67.99810
388.5015, 68.95802
388.9836, 69.65133
389.4657, 70.63335
389.9478, 71.94716
390.4299, 73.07945
390.9120, 73.31667
391.3942, 73.28366
391.8763, 73.75179
392.3584, 75.46467
392.8405, 77.28593
393.3226, 78.62103
393.8047, 79.55941
394.2869, 80.50986
394.7690, 81.54257
395.2511, 82.69767
395.7332, 83.99544
396.2154, 85.42429
396.6975, 87.02109
397.1796, 88.58511
397.6617, 90.37359
398.1438, 92.80302
398.6259, 96.42146
399.1081, 100.2220
399.5902, 103.9404
400.0723, 107.5504
400.5544, 111.2180
401.0365, 114.2918
401.5186, 117.9250
402.0008, 123.0353
402.4829, 130.0899
402.9650, 137.8156
403.4471, 146.2779
403.9292, 155.3386
404.4113, 164.1717
404.8935, 172.6823
405.3756, 181.2966
405.8577, 190.1015
406.3398, 198.8999
406.8219, 208.7541
407.3040, 219.7524
407.7862, 231.7023
408.2683, 245.1372
408.7504, 260.1414
409.2325, 273.9704
409.7146, 285.7713
410.1967, 295.6086
410.6789, 304.9737
411.1610, 313.9577
411.6431, 320.3676
412.1252, 322.4352
412.6073, 320.4184
413.0894, 314.6051
413.5716, 304.6268
414.0537, 292.1132
414.5358, 278.5279
415.0179, 264.0563
415.5000, 248.8278
415.9821, 232.2583
416.4643, 215.5103
416.9464, 199.5690
417.4285, 184.5575
417.9106, 170.8831
418.3927, 158.6980
418.8748, 147.9981
419.3570, 138.9954
419.8391, 132.7726
420.3212, 127.1653
420.8033, 121.0031
421.2854, 114.5634
421.7675, 109.0174
422.2497, 105.7548
422.7318, 102.7070
423.2139, 98.58549
423.6960, 92.01140
424.1781, 87.09752
424.6602, 85.59724
425.1424, 85.68291
425.6245, 84.68096
426.1066, 81.29927
426.5887, 78.48060
427.0709, 77.21146
427.5530, 77.48947
428.0351, 76.50757
428.5172, 73.50218
428.9993, 70.26276
429.4814, 68.02077
429.9636, 66.88695
430.4457, 66.40382
430.9278, 66.75304
431.4099, 67.51617
431.8920, 67.73106
432.3741, 67.32887
432.8563, 66.93077
433.3384, 66.99432
433.8205, 67.37418
434.3026, 66.95316
434.7847, 65.64913
435.2668, 64.19597
435.7490, 63.40154
436.2311, 63.09283
436.7132, 62.66936
437.1953, 61.90791
437.6774, 61.05056
438.1595, 60.24877
438.6417, 59.57228
439.1238, 59.31033
439.6059, 60.15339
440.0880, 61.23621
440.5701, 61.49768
441.0522, 60.69807
441.5344, 59.97671
442.0165, 60.42665
442.4986, 61.24797
442.9807, 61.45726
443.4628, 59.90417
443.9449, 58.48716
444.4271, 57.98518
444.9092, 58.28730
445.3913, 58.70832
445.8734, 59.51164
446.3555, 60.05428
446.8376, 59.91134
447.3198, 58.32268
447.8019, 57.52240
448.2840, 58.27565
448.7661, 59.53904
449.2482, 59.78462
449.7303, 58.10355
450.2125, 56.96764
450.6946, 57.10400
451.1767, 58.39641
451.6588, 59.08615
452.1409, 59.05351
452.6230, 58.71220
453.1052, 58.05925
453.5873, 56.98064
454.0694, 57.31268
454.5515, 59.63604
455.0337, 62.50568
455.5158, 63.37775
455.9979, 62.36515
456.4800, 61.00823
456.9621, 59.55261
457.4442, 58.32051
457.9264, 58.18943
458.4085, 59.13036
458.8906, 60.44456
459.3727, 62.12332
459.8548, 63.66150
460.3369, 64.07119
460.8191, 62.75480
461.3012, 61.20909
461.7833, 60.58554
462.2654, 60.62295
462.7475, 60.77784
463.2296, 60.98262
463.7118, 61.10245
464.1939, 61.05653
464.6760, 60.83858
465.1581, 60.52639
465.6402, 59.57418
466.1223, 58.87981
466.6045, 59.09313
467.0866, 61.79574
467.5687, 63.54919
468.0508, 63.55334
468.5329, 62.55450
469.0150, 62.21430
469.4972, 62.88867
469.9793, 63.69051
470.4614, 64.38831
470.9435, 64.98371
471.4256, 65.42990
471.9077, 65.67962
472.3899, 65.87665
472.8720, 66.22818
473.3541, 66.78026
473.8362, 66.87084
474.3183, 66.19024
474.8004, 65.35213
475.2826, 65.71068
475.7647, 67.19044
476.2468, 68.72517
476.7289, 69.93020
477.2110, 70.77812
477.6931, 71.03673
478.1753, 70.71058
478.6574, 70.38964
479.1395, 70.66548
479.6216, 71.22747
480.1037, 71.54086
480.5858, 71.14503
481.0680, 71.08618
481.5501, 72.25164
482.0322, 74.27145
482.5143, 76.36977
482.9964, 78.70822
483.4786, 80.65669
483.9607, 81.63580
484.4428, 81.50818
484.9249, 81.97013
485.4070, 84.34113
485.8892, 86.78767
486.3713, 87.96464
486.8534, 86.40385
487.3355, 85.69518
487.8176, 85.96237
488.2997, 87.11525
488.7819, 89.15820
489.2640, 92.69971
489.7461, 95.76273
490.2282, 97.61279
490.7103, 98.33179
491.1924, 99.02143
491.6746, 99.65676
492.1567, 100.3774
492.6388, 101.1555
493.1209, 102.0566
493.6030, 103.6351
494.0851, 106.1248
494.5673, 108.9176
495.0494, 111.3824
495.5315, 113.4578
496.0136, 114.8341
496.4957, 114.8828
496.9778, 114.4620
497.4600, 114.6741
497.9421, 115.4352
498.4242, 115.8806
498.9063, 115.4403
499.3884, 114.4927
499.8705, 113.3336
500.3527, 111.9958
500.8348, 110.5304
501.3169, 108.9643
501.7990, 107.3079
502.2811, 105.5603
502.7632, 103.7888
503.2454, 101.8796
503.7275, 99.65795
504.2096, 97.18533
504.6917, 95.03247
505.1738, 93.40168
505.6559, 91.85164
506.1381, 90.20523
506.6202, 88.49202
507.1023, 86.46985
507.5844, 83.93443
508.0665, 81.46281
508.5486, 79.84962
509.0308, 79.09971
509.5129, 78.98504
509.9950, 79.86492
510.4771, 80.91708
510.9592, 79.99166
511.4413, 77.28697
511.9235, 74.69968
512.4056, 73.64371
512.8877, 73.38268
513.3698, 72.89497
513.8519, 72.11047
514.3340, 70.99437
514.8162, 68.80165
515.2983, 66.52586
515.7804, 65.41350
516.2625, 66.94751
516.7446, 68.29044
517.2267, 68.10868
517.7089, 66.88622
518.1910, 65.80501
518.6731, 65.26993
519.1552, 64.77174
519.6373, 64.10603
520.1194, 63.23513
520.6016, 62.49252
521.0837, 61.60083
521.5658, 61.15143
522.0479, 61.79590
522.5300, 64.07563
523.0121, 65.41992
523.4943, 65.51925
523.9764, 64.79546
524.4585, 63.91038
524.9406, 62.87847
525.4227, 61.67840
525.9048, 60.03864
526.3870, 58.36163
526.8691, 57.64436
527.3513, 57.85913
527.8334, 58.58357
528.3155, 60.43272
528.7976, 62.27113
529.2797, 62.00901
529.7618, 59.01328
530.2440, 56.31184
530.7261, 56.37745
531.2082, 57.91513
531.6903, 59.26529
532.1724, 59.98043
532.6545, 60.34095
533.1367, 60.39759
533.6188, 60.17275
534.1009, 59.74731
534.5830, 58.73878
535.0651, 57.91158
535.5472, 57.45188
536.0294, 57.32642
536.5115, 57.94183
536.9936, 60.00867
537.4757, 61.82555
537.9578, 61.70956
538.4399, 59.25744
538.9221, 57.37454
539.4042, 56.28654
539.8863, 55.97344
540.3684, 56.75932
540.8505, 58.53156
541.3326, 59.92752
541.8148, 60.14020
542.2969, 59.78550
542.7790, 60.18471
543.2611, 61.19485
543.7432, 61.69954
544.2253, 59.94753
544.7075, 57.83503
545.1896, 57.67995
545.6717, 60.21404
546.1538, 62.30933
546.6359, 61.94857
547.1180, 60.55606
547.6002, 59.64747
548.0823, 60.04654
548.5644, 60.41224
549.0465, 60.40074
549.5286, 60.17898
550.0107, 60.27023
550.4929, 61.09501
550.9750, 61.58180
551.4571, 61.20494
551.9392, 59.95546
552.4213, 59.49334
552.9034, 59.99925
553.3856, 60.71314
553.8677, 60.89007
554.3498, 60.61047
554.8319, 60.98491
555.3140, 62.27116
555.7961, 63.68124
556.2783, 64.27713
556.7604, 64.16734
557.2425, 63.59985
557.7246, 62.22807
558.2067, 60.89557
558.6888, 60.50393
559.1710, 60.86728
559.6531, 61.36958
560.1352, 61.95988
560.6173, 62.40072
561.0994, 62.25395
561.5815, 61.31153
562.0637, 61.38023
562.5458, 64.42151
563.0279, 67.54454
563.5100, 68.60390
563.9921, 65.75301
564.4742, 64.12080
564.9564, 64.27731
565.4385, 65.33993
565.9206, 65.77309
566.4027, 65.39997
566.8848, 65.30743
567.3669, 66.00420
567.8491, 67.09635
568.3312, 67.15675
568.8133, 66.22332
569.2954, 65.26640
569.7775, 64.85562
570.2596, 64.86642
570.7418, 65.20900
571.2239, 65.89413
571.7060, 66.45969
572.1881, 66.06345
572.6702, 65.57301
573.1523, 66.08248
573.6345, 68.72286
574.1166, 70.81972
574.5987, 70.80354
575.0808, 69.70181
575.5629, 69.22005
576.0450, 71.01559
576.5272, 71.85977
577.0093, 70.48164
577.4914, 67.40456
577.9735, 66.24448
578.4556, 67.89967
578.9377, 69.63587
579.4199, 69.98483
579.9020, 68.90902
580.3841, 68.39389
580.8662, 68.49409
581.3483, 68.86436
581.8304, 69.05820
582.3126, 69.22115
582.7947, 70.01778
583.2768, 71.81957
583.7589, 73.52159
584.2410, 73.93740
584.7231, 73.38892
585.2053, 72.51340
585.6874, 71.01795
586.1696, 69.78582
586.6517, 69.31525
587.1338, 69.52202
587.6159, 70.01433
588.0980, 70.99227
588.5801, 71.96381
589.0623, 72.67081
589.5444, 73.04240
590.0265, 73.64499
590.5086, 74.74296
590.9907, 75.73478
591.4728, 76.05861
591.9550, 75.56934
592.4371, 75.31579
592.9192, 75.35583
593.4013, 75.70009
593.8834, 76.38822
594.3655, 77.40756
594.8477, 78.71922
595.3298, 80.48553
595.8119, 82.29591
596.2940, 83.33018
596.7761, 83.86495
597.2582, 84.86050
597.7404, 87.03720
598.2225, 89.68821
598.7046, 92.73188
599.1867, 96.11238
599.6688, 98.42337
600.1509, 98.05944
600.6331, 97.37807
601.1152, 97.82579
601.5973, 99.71387
602.0794, 102.1445
602.5615, 105.3650
603.0436, 108.8713
603.5258, 111.9592
604.0079, 114.4472
604.4900, 117.5039
604.9721, 121.4569
605.4542, 125.8079
605.9363, 129.4313
606.4185, 132.3948
606.9006, 135.5658
607.3827, 138.6356
607.8648, 142.5121
608.3469, 149.4601
608.8290, 158.8862
609.3112, 167.0678
609.7933, 171.5985
610.2754, 174.2666
610.7575, 176.2080
611.2396, 177.4138
611.7217, 178.7104
612.2039, 181.4157
612.6860, 183.5831
613.1681, 183.7048
613.6502, 181.0518
614.1323, 177.5485
614.6144, 172.8010
615.0966, 167.6085
615.5787, 163.1562
616.0608, 159.6855
616.5429, 155.4851
617.0250, 149.9695
617.5071, 143.7170
617.9893, 137.9415
618.4714, 132.6423
618.9535, 128.0229
619.4356, 124.6728
619.9177, 121.6911
620.3998, 117.5208
620.8820, 112.3502
621.3641, 107.9862
621.8462, 106.2054
622.3283, 105.0274
622.8104, 102.8088
623.2925, 98.82381
623.7747, 95.86370
624.2568, 95.78835
624.7389, 96.07881
625.2210, 94.54831
625.7031, 89.60237
626.1852, 86.46877
626.6674, 86.08548
627.1495, 86.90231
627.6316, 86.08324
628.1137, 83.52257
628.5958, 82.03175
629.0779, 82.85061
629.5601, 84.71072
630.0422, 85.13024
630.5243, 84.32901
631.0064, 83.36073
631.4885, 82.70523
631.9706, 82.22633
632.4528, 81.85300
632.9349, 81.57089
633.4170, 81.23625
633.8991, 80.85039
634.3812, 80.34566
634.8633, 79.60575
635.3455, 78.44221
635.8276, 77.65115
636.3097, 77.34616
636.7918, 77.32736
637.2739, 77.51285
637.7560, 78.04094
638.2382, 78.15015
638.7203, 77.65483
639.2024, 76.95716
639.6845, 76.67828
640.1666, 76.77261
640.6487, 76.83955
641.1309, 76.58851
641.6130, 76.49238
642.0951, 77.61236
642.5772, 79.47865
643.0594, 80.71967
643.5415, 80.21166
644.0236, 79.28733
644.5057, 78.48335
644.9879, 77.87482
645.4700, 77.86353
645.9521, 79.24065
646.4342, 80.60218
646.9163, 81.29658
647.3984, 81.20572
647.8806, 81.28688
648.3627, 81.55235
648.8448, 81.97200
649.3269, 82.69827
649.8090, 83.72886
650.2911, 83.99027
650.7733, 83.23254
651.2554, 82.48470
651.7375, 83.46477
652.2196, 85.39392
652.7017, 86.26475
653.1838, 85.03843
653.6660, 83.54432
654.1481, 82.88670
654.6302, 82.98989
655.1123, 83.72042
655.5944, 86.02876
656.0765, 87.90285
656.5587, 88.47216
657.0408, 88.00684
657.5229, 87.83060
658.0050, 87.94888
658.4871, 88.36780
658.9692, 89.21833
659.4514, 90.43132
659.9335, 91.24348
660.4156, 91.63679
660.8977, 91.76576
661.3798, 91.69641
661.8619, 91.44793
662.3441, 91.00767
662.8262, 90.36972
663.3083, 89.77565
663.7904, 89.46830
664.2725, 89.28574
664.7546, 89.06703
665.2368, 88.80849
665.7189, 88.43357
666.2010, 87.59641
666.6831, 86.76962
667.1652, 86.54527
667.6473, 87.74257
668.1295, 88.17249
668.6116, 87.39626
669.0937, 85.98790
669.5758, 85.08107
670.0579, 84.71900
670.5400, 84.38168
671.0222, 83.88245
671.5043, 83.35022
671.9864, 83.00381
672.4685, 82.84486
672.9506, 82.88586
673.4327, 83.53751
673.9149, 84.09658
674.3970, 83.62556
674.8791, 82.30305
675.3612, 81.50405
675.8433, 82.34729
676.3254, 83.36416
676.8076, 83.84431
677.2897, 83.71374
677.7718, 83.19296
678.2539, 82.07993
678.7360, 80.87180
679.2181, 79.76595
679.7003, 78.71383
680.1824, 78.62077
680.6645, 79.76168
681.1466, 80.82140
681.6287, 80.03055
682.1108, 78.00215
682.5930, 76.40534
683.0751, 75.52858
683.5572, 75.23966
684.0393, 75.91691
684.5214, 76.95622
685.0035, 77.49770
685.4857, 76.69313
685.9678, 76.02113
686.4499, 75.78297
686.9320, 75.94430
687.4141, 76.48185
687.8962, 77.99618
688.3784, 78.70828
688.8605, 78.03479
689.3426, 76.36494
689.8247, 74.72498
690.3068, 73.06672
690.7889, 72.43906
691.2711, 74.30230
691.7532, 77.10064
692.2353, 77.02682
692.7174, 74.59846
693.1995, 73.06599
693.6816, 75.14552
694.1638, 78.33297
694.6459, 81.31749
695.1280, 84.02946
695.6101, 84.82418
696.0922, 81.11830
696.5743, 77.19930
697.0565, 75.45532
697.5386, 76.48769
698.0207, 77.18516
698.5028, 77.59258
698.9849, 77.57322
699.4670, 76.57690
699.9492, 74.78564
700.4313, 74.37813
700.9135, 75.82475
701.3956, 77.42869
701.8777, 77.08225
702.3598, 75.68848
702.8419, 74.79578
703.3240, 74.96696
703.8062, 75.42651
704.2883, 76.10590
704.7704, 76.72841
705.2525, 76.87842
705.7346, 75.86967
706.2167, 75.18084
706.6989, 75.04141
707.1810, 75.26707
707.6631, 75.52373
708.1452, 75.85925
708.6273, 75.89397
709.1094, 75.37830
709.5916, 74.62568
710.0737, 74.46311
710.5558, 74.77068
711.0379, 74.91812
711.5200, 74.46687
712.0021, 73.78015
712.4843, 72.95126
712.9664, 72.08814
713.4485, 71.71434
713.9306, 72.46452
714.4127, 73.35215
714.8948, 73.98511
715.3770, 74.36411
715.8591, 74.47775
716.3412, 74.27847
716.8233, 73.90820
717.3054, 73.35323
717.7875, 72.62774
718.2697, 72.27060
718.7518, 72.30310
719.2339, 72.38206
719.7160, 72.18696
720.1981, 71.85432
720.6802, 71.58674
721.1624, 71.41128
721.6445, 71.30333
722.1266, 71.27119
722.6087, 71.28859
723.0908, 71.36938
723.5729, 71.75505
724.0551, 71.64907
724.5372, 70.43684
725.0193, 69.26017
725.5014, 69.54271
725.9835, 71.68426
726.4656, 72.79456
726.9478, 72.46449
727.4299, 71.35237
727.9120, 69.91344
728.3941, 68.42597
728.8762, 67.96563
729.3583, 69.23842
729.8405, 70.73045
730.3226, 70.97670
730.8047, 70.63221
731.2868, 70.76960
731.7689, 72.54446
732.2510, 73.86755
732.7332, 73.96034
733.2153, 73.36254
733.6974, 73.15921
734.1795, 73.57669
734.6616, 73.73425
735.1437, 73.27181
735.6259, 72.53885
736.1080, 72.62008
736.5901, 73.40434
737.0722, 73.89978
737.5543, 73.22591
738.0364, 72.32533
738.5186, 72.25359
739.0007, 72.89656
739.4828, 73.84129
739.9649, 75.53594
740.4470, 76.89339
740.9291, 77.29475
741.4113, 76.77576
741.8934, 76.34106
742.3755, 75.98770
742.8576, 75.72233
743.3397, 75.52359
743.8218, 75.40672
744.3040, 75.50326
744.7861, 75.81409
745.2682, 76.27734
745.7503, 77.14002
746.2324, 78.00947
746.7145, 77.93321
747.1967, 76.97987
747.6788, 76.56139
748.1609, 78.41103
748.6430, 80.32730
749.1251, 80.72310
749.6072, 79.06936
750.0894, 77.84743
750.5715, 77.06559
751.0536, 76.83475
751.5357, 77.50884
752.0178, 79.24889
752.4999, 79.75628
752.9821, 78.85905
753.4642, 77.86834
753.9463, 78.38795
754.4284, 79.62700
754.9105, 79.72991
755.3926, 78.31261
755.8748, 77.32386
756.3569, 78.55840
756.8390, 80.46470
757.3211, 81.61625
757.8032, 81.23915
758.2853, 81.33073
758.7675, 82.46450
759.2496, 83.63728
759.7318, 83.79671
760.2139, 82.73960
760.6960, 82.28524
761.1781, 82.68167
761.6602, 83.33700
762.1423, 83.60217
762.6245, 83.55930
763.1066, 83.32899
763.5887, 82.81826
764.0708, 82.54405
764.5529, 83.27372
765.0350, 84.27999
765.5172, 84.70032
765.9993, 84.02617
766.4814, 83.13745
766.9635, 81.77271
767.4456, 80.46853
767.9277, 79.99589
768.4099, 80.47031
768.8920, 81.00021
769.3741, 81.46533
769.8562, 81.88756
770.3383, 82.39198
770.8204, 82.88794
771.3026, 83.07792
771.7847, 82.62047
772.2668, 82.30674
772.7489, 83.26404
773.2310, 84.56531
773.7131, 84.74770
774.1953, 81.39613
774.6774, 79.70649
775.1595, 80.87334
775.6416, 83.58222
776.1237, 85.63170
776.6058, 87.05430
777.0880, 87.38822
777.5701, 86.08606
778.0522, 84.44084
778.5343, 84.97520
779.0164, 87.00656
779.4985, 88.55412
779.9807, 88.48838
780.4628, 88.07706
780.9449, 87.73208
781.4270, 87.63704
781.9091, 88.16700
782.3912, 90.34335
782.8734, 91.95383
783.3555, 92.65562
783.8376, 92.62251
784.3197, 92.13654
784.8018, 91.14153
785.2839, 90.29443
785.7661, 89.70218
786.2482, 89.50655
786.7303, 90.38338
787.2124, 91.89574
787.6945, 92.82310
788.1766, 91.62443
788.6588, 90.67554
789.1409, 91.95724
789.6230, 94.44720
790.1051, 95.12919
790.5872, 91.60745
791.0693, 89.64771
791.5515, 90.92679
792.0336, 94.22963
792.5157, 96.04537
792.9978, 96.36855
793.4799, 96.35142
793.9620, 96.01374
794.4442, 96.04737
794.9263, 98.21812
795.4084, 101.6593
795.8905, 103.9826
796.3726, 103.3463
796.8547, 102.1741
797.3369, 101.0649
797.8190, 100.2051
798.3011, 100.0697
798.7832, 100.8243
799.2653, 102.0075
799.7474, 103.6657
800.2296, 105.5635
800.7117, 107.1344
801.1938, 108.3689
801.6759, 109.1209
802.1580, 108.8491
802.6401, 108.5841
803.1223, 109.8852
803.6044, 112.1631
804.0865, 113.8559
804.5686, 114.0949
805.0507, 114.0017
805.5328, 113.7105
806.0150, 113.3702
806.4971, 113.2958
806.9792, 113.3840
807.4613, 114.1779
807.9434, 116.2089
808.4255, 118.6172
808.9077, 119.1642
809.3898, 118.2461
809.8719, 117.6461
810.3540, 118.2403
810.8361, 119.3588
811.3182, 121.0583
811.8004, 122.8493
812.2825, 123.6168
812.7646, 121.6763
813.2467, 120.3966
813.7288, 120.5314
814.2109, 121.6660
814.6931, 122.9566
815.1752, 124.5106
815.6573, 125.2036
816.1394, 124.3021
816.6215, 123.0601
817.1037, 123.8748
817.5858, 126.0673
818.0679, 127.8658
818.5500, 128.1458
819.0322, 128.2608
819.5143, 129.3245
819.9964, 130.6153
820.4785, 130.4430
820.9606, 127.2080
821.4427, 125.5358
821.9249, 126.7787
822.4070, 129.2593
822.8891, 129.2662
823.3712, 127.0409
823.8533, 125.2225
824.3354, 124.5390
824.8176, 124.5823
825.2997, 125.5820
825.7818, 126.8440
826.2639, 127.1582
826.7460, 124.8773
827.2281, 123.1261
827.7103, 122.6519
828.1924, 123.0628
828.6745, 124.1153
829.1566, 126.2068
829.6387, 127.2538
830.1208, 126.8121
830.6030, 125.5337
831.0851, 124.0952
831.5672, 122.6470
832.0493, 121.6873
832.5314, 121.5830
833.0135, 121.3901
833.4957, 120.1210
833.9778, 118.5537
834.4599, 117.5845
834.9420, 118.2411
835.4241, 118.2674
835.9063, 117.3180
836.3884, 116.1511
836.8705, 115.6781
837.3526, 115.8841
837.8347, 116.2742
838.3168, 116.8491
838.7990, 117.2864
839.2811, 117.2261
839.7632, 116.8333
840.2453, 116.3157
840.7274, 115.6826
841.2095, 115.0184
841.6917, 114.1813
842.1738, 113.4492
842.6559, 113.0605
843.1380, 113.1711
843.6201, 113.0565
844.1022, 112.6826
844.5844, 112.2003
845.0665, 111.4906
845.5486, 110.8086
846.0307, 111.0975
846.5128, 112.4648
846.9949, 113.6041
847.4771, 113.6663
847.9592, 113.1349
848.4413, 112.3092
848.9234, 111.1666
849.4055, 109.9295
849.8876, 108.1295
850.3698, 107.0281
850.8519, 107.7773
851.3340, 110.1571
851.8161, 111.1890
852.2982, 110.8801
852.7803, 110.3464
853.2625, 110.5283
853.7446, 110.8249
854.2267, 110.5488
854.7088, 109.7110
855.1909, 108.8336
855.6730, 107.9308
856.1552, 107.1940
856.6373, 106.6151
857.1194, 106.2370
857.6015, 106.6035
858.0836, 107.8877
858.5657, 108.6162
859.0479, 107.7178
859.5300, 106.0840
860.0121, 105.4056
860.4942, 105.4998
860.9763, 105.7433
861.4584, 106.0473
861.9406, 106.1990
862.4227, 105.8719
862.9048, 105.2968
863.3869, 105.2777
863.8690, 106.0500
864.3511, 106.8375
864.8333, 107.5966
865.3154, 108.1050
865.7975, 107.6193
866.2796, 106.4076
866.7617, 105.6576
867.2438, 105.9825
867.7260, 106.5506
868.2081, 106.8216
868.6902, 106.8934
869.1723, 106.9277
869.6544, 107.1534
870.1365, 107.0219
870.6187, 106.3189
871.1008, 105.4614
871.5829, 105.0402
872.0650, 105.0375
872.5471, 104.9428
873.0292, 104.5645
873.5114, 104.6913
873.9935, 106.9959
874.4756, 109.8990
874.9577, 111.3170
875.4399, 110.5003
875.9220, 109.3380
876.4041, 107.7520
876.8862, 106.4382
877.3683, 105.9544
877.8505, 106.4623
878.3326, 106.5864
878.8147, 106.2406
879.2968, 106.1236
879.7789, 107.4233
880.2610, 109.1050
880.7432, 108.9747
881.2253, 107.0093
881.7074, 106.1031
882.1895, 108.9632
882.6716, 112.0376
883.1537, 113.3678
883.6359, 113.0215
884.1180, 112.3024
884.6001, 110.9508
885.0822, 110.3465
885.5643, 111.7524
886.0464, 114.0202
886.5286, 114.1299
887.0107, 112.5344
887.4928, 111.0911
887.9749, 110.5635
888.4570, 110.6895
888.9391, 111.9519
889.4213, 113.7885
889.9034, 114.4065
890.3855, 113.2551
890.8676, 112.0785
891.3497, 111.1305
891.8318, 110.4621
892.3140, 110.1625
892.7961, 110.2015
893.2782, 110.5072
893.7603, 111.1892
894.2424, 111.8149
894.7245, 111.6587
895.2067, 111.4291
895.6888, 112.0194
896.1709, 114.6180
896.6530, 116.3800
897.1351, 117.3294
897.6172, 117.3801
898.0994, 115.7758
898.5815, 112.9072
899.0636, 111.9706
899.5457, 113.3649
900.0278, 115.0319
900.5099, 115.3659
900.9921, 115.1439
901.4742, 115.1294
901.9563, 115.4821
902.4384, 115.3760
902.9205, 114.0226
903.4026, 113.2492
903.8848, 114.3155
904.3669, 116.8579
904.8490, 117.6462
905.3311, 116.7358
905.8132, 115.7783
906.2953, 115.6371
906.7775, 116.0357
907.2596, 117.0093
907.7417, 118.3239
908.2238, 119.2112
908.7059, 119.1153
909.1880, 118.9726
909.6702, 119.0201
910.1523, 119.1140
910.6344, 118.7772
911.1165, 118.0267
911.5986, 117.6606
912.0807, 117.9031
912.5629, 118.5979
913.0450, 120.1381
913.5271, 121.8180
914.0092, 122.5616
914.4913, 121.5147
914.9734, 120.4705
915.4556, 119.4645
915.9377, 118.7875
916.4198, 118.8939
916.9019, 119.8605
917.3840, 120.0836
917.8661, 119.3942
918.3483, 118.7905
918.8304, 119.3745
919.3125, 120.4514
919.7946, 121.3434
920.2767, 121.9740
920.7589, 121.9476
921.2410, 120.0839
921.7231, 118.6688
922.2052, 118.8061
922.6873, 120.2619
923.1694, 121.0155
923.6516, 121.0515
924.1337, 120.6733
924.6158, 119.5872
925.0979, 118.5547
925.5800, 118.8705
926.0621, 120.0465
926.5443, 120.8688
927.0264, 120.5022
927.5085, 120.2651
927.9906, 120.5005
928.4727, 120.9578
928.9548, 121.2166
929.4370, 121.2690
929.9191, 121.2965
930.4012, 121.2732
930.8833, 121.4814
931.3654, 122.3120
931.8475, 123.5393
932.3297, 125.0742
932.8118, 127.2632
933.2939, 128.2997
933.7761, 126.5945
934.2582, 124.7808
934.7403, 124.5780
935.2224, 126.0402
935.7045, 126.3391
936.1866, 125.4261
936.6688, 124.7694
937.1509, 125.6616
937.6330, 127.1886
938.1151, 128.6035
938.5972, 129.7942
939.0793, 130.3216
939.5615, 128.9744
940.0436, 128.3220
940.5257, 129.3219
941.0078, 131.2488
941.4899, 132.1620
941.9720, 132.0872
942.4542, 131.5926
942.9363, 130.6218
943.4184, 129.8185
943.9005, 129.8858
944.3826, 130.5548
944.8647, 131.5017
945.3469, 133.0513
945.8290, 134.0297
946.3111, 133.9174
946.7932, 133.7815
947.2753, 134.8045
947.7574, 136.8981
948.2396, 137.8254
948.7217, 137.5111
949.2038, 136.9449
949.6859, 136.5054
950.1680, 136.4583
950.6501, 137.3689
951.1323, 139.1637
951.6144, 140.1842
952.0965, 139.8794
952.5786, 139.4211
953.0607, 139.1786
953.5428, 139.0129
954.0250, 138.2453
954.5071, 137.0610
954.9892, 136.6163
955.4713, 137.7734
955.9534, 139.1055
956.4355, 139.6832
956.9177, 139.7094
957.3998, 139.4529
957.8819, 138.5758
958.3640, 138.1833
958.8461, 138.4617
959.3282, 138.8984
959.8104, 138.8185
960.2925, 138.4424
960.7746, 138.6980
961.2567, 139.6550
961.7388, 140.3176
962.2209, 139.8305
962.7031, 139.0141
963.1852, 138.4566
963.6673, 138.1551
964.1494, 137.3130
964.6315, 135.4809
965.1136, 134.8005
965.5958, 136.7059
966.0779, 139.5655
966.5600, 139.7933
967.0421, 138.1733
967.5242, 136.8376
968.0063, 136.9271
968.4885, 137.0144
968.9706, 136.1890
969.4527, 135.2874
969.9348, 135.5892
970.4169, 137.7007
970.8990, 137.6600
971.3812, 134.9065
971.8633, 131.9092
972.3454, 131.2610
972.8275, 131.8967
973.3096, 132.4372
973.7917, 132.7342
974.2739, 132.6525
974.7560, 131.4113
975.2381, 130.6129
975.7202, 131.0897
976.2023, 132.4930
976.6844, 132.9907
977.1666, 132.5986
977.6487, 132.2735
978.1308, 132.5129
978.6129, 132.8200
979.0950, 132.8731
979.5771, 132.5796
980.0593, 131.7914
980.5414, 129.0102
981.0235, 128.0724
981.5056, 130.1332
981.9877, 132.5773
982.4698, 132.4965
982.9520, 130.3380
983.4341, 128.8542
983.9162, 128.2206
984.3983, 128.0132
984.8804, 128.2260
985.3625, 128.5017
985.8447, 128.3329
986.3268, 127.8052
986.8089, 128.4141
987.2910, 130.6785
987.7731, 132.6103
988.2552, 133.4701
988.7374, 133.7667
989.2195, 134.7887
989.7016, 136.0843
990.1837, 136.3624
990.6658, 134.4963
991.1479, 132.9354
991.6301, 133.1600
992.1122, 133.8734
992.5944, 133.8109
993.0765, 132.8409
993.5586, 131.6675
994.0407, 130.2179
994.5228, 129.1989
995.0049, 129.3700
995.4871, 130.2088
995.9692, 131.2538
996.4513, 132.4000
996.9334, 133.1691
997.4155, 133.4597
997.8976, 133.2099
998.3798, 132.0775
998.8619, 130.6343
999.3440, 130.3337
999.8261, 131.0723
1000.308, 131.8792
1000.790, 132.5225
1001.272, 133.0982
1001.755, 133.9500
1002.237, 134.6376
1002.719, 134.5228
1003.201, 132.9513
1003.683, 132.6308
1004.165, 134.0360
1004.647, 135.4939
1005.129, 135.8483
1005.612, 135.4405
1006.094, 135.1262
1006.576, 134.9360
1007.058, 134.9908
1007.540, 135.6471
1008.022, 136.2386
1008.504, 136.2953
1008.986, 136.1911
1009.468, 136.6042
1009.951, 137.5930
1010.433, 138.7386
1010.915, 140.1032
1011.397, 141.0528
1011.879, 140.3092
1012.361, 139.0320
1012.843, 138.7434
1013.325, 139.7934
1013.807, 140.7225
1014.290, 141.2711
1014.772, 141.6606
1015.254, 141.8940
1015.736, 142.0611
1016.218, 142.5227
1016.700, 143.2678
1017.182, 144.2422
1017.664, 145.6423
1018.147, 146.9902
1018.629, 147.6723
1019.111, 148.2389
1019.593, 149.7002
1020.075, 152.8919
1020.557, 154.2428
1021.039, 153.1841
1021.521, 151.9578
1022.003, 153.0253
1022.486, 155.2612
1022.968, 156.4642
1023.450, 156.6474
1023.932, 157.4337
1024.414, 160.3118
1024.896, 162.8967
1025.378, 164.3167
1025.860, 164.9629
1026.343, 165.8701
1026.825, 167.0210
1027.307, 168.4090
1027.789, 170.0692
1028.271, 171.8386
1028.753, 173.8076
1029.235, 175.6820
1029.717, 177.0456
1030.199, 177.6345
1030.682, 178.4357
1031.164, 179.2995
1031.646, 180.8224
1032.128, 183.9978
1032.610, 187.9033
1033.092, 189.8816
1033.574, 190.3979
1034.056, 191.0953
1034.539, 192.7176
1035.021, 194.6415
1035.503, 196.8723
1035.985, 199.1672
1036.467, 201.4224
1036.949, 203.6428
1037.431, 204.6574
1037.913, 204.2080
1038.396, 203.8116
1038.878, 204.8978
1039.360, 206.6273
1039.842, 208.3366
1040.324, 209.9488
1040.806, 211.4124
1041.288, 212.7885
1041.770, 213.9032
1042.252, 214.6529
1042.734, 215.2110
1043.217, 216.0891
1043.699, 217.0752
1044.181, 217.6390
1044.663, 217.6659
1045.145, 217.1525
1045.627, 215.3265
1046.109, 213.6040
1046.591, 213.1904
1047.074, 214.1577
1047.556, 214.2922
1048.038, 213.5910
1048.520, 213.5702
1049.002, 216.1331
1049.484, 219.0096
1049.966, 220.4935
1050.448, 220.6914
1050.931, 219.8860
1051.413, 217.4198
1051.895, 215.6133
1052.377, 214.7422
1052.859, 214.5339
1053.341, 214.9894
1053.823, 215.7536
1054.305, 215.8148
1054.787, 215.0541
1055.270, 214.9055
1055.752, 216.4946
1056.234, 218.3689
1056.716, 220.1776
1057.198, 221.6947
1057.680, 221.8658
1058.162, 220.7507
1058.644, 219.1479
1059.126, 216.9236
1059.609, 215.2879
1060.091, 215.7511
1060.573, 217.1800
1061.055, 218.3910
1061.537, 219.3405
1062.019, 219.6570
1062.501, 219.1323
1062.983, 218.7522
1063.466, 219.4130
1063.948, 220.5249
1064.430, 221.1348
1064.912, 221.2673
1065.394, 220.9890
1065.876, 219.7527
1066.358, 218.9027
1066.840, 218.7947
1067.323, 218.9845
1067.805, 218.8957
1068.287, 218.5865
1068.769, 218.5455
1069.251, 218.8064
1069.733, 218.9812
1070.215, 219.0580
1070.697, 218.7112
1071.179, 217.4745
1071.661, 215.5877
1072.144, 213.9038
1072.626, 212.3223
1073.108, 211.8290
1073.590, 212.9003
1074.072, 214.4968
1074.554, 216.0038
1075.036, 216.8961
1075.518, 216.2230
1076.001, 213.3304
1076.483, 211.2432
1076.965, 210.5778
1077.447, 209.9241
1077.929, 208.2670
1078.411, 206.2865
1078.893, 206.3071
1079.375, 207.7508
1079.858, 208.7349
1080.340, 208.1328
1080.822, 207.4541
1081.304, 207.0420
1081.786, 206.9094
1082.268, 207.2577
1082.750, 208.1022
1083.232, 208.1660
1083.714, 207.4282
1084.197, 206.7128
1084.679, 206.5156
1085.161, 206.6569
1085.643, 207.2093
1086.125, 207.9906
1086.607, 208.4071
1087.089, 208.2508
1087.571, 208.5921
1088.054, 209.8029
1088.536, 210.7301
1089.018, 208.9284
1089.500, 206.5138
1089.982, 207.2897
1090.464, 211.7139
1090.946, 214.0691
1091.428, 211.7288
1091.911, 209.6482
1092.393, 209.3494
1092.875, 210.2648
1093.357, 211.5849
1093.839, 212.9739
1094.321, 213.2319
1094.803, 211.5493
1095.285, 210.2631
1095.767, 210.7866
1096.250, 211.8432
1096.732, 212.5983
1097.214, 213.0700
1097.696, 213.8223
1098.178, 214.8317
1098.660, 215.5375
1099.142, 215.3784
1099.624, 215.1430
1100.106, 215.2043
1100.589, 215.6811
1101.071, 216.9529
1101.553, 219.8829
1102.035, 220.4904
1102.517, 218.3772
1102.999, 215.7864
1103.481, 214.0636
1103.963, 213.3364
1104.446, 214.3535
1104.928, 216.6466
1105.410, 218.3222
1105.892, 218.6457
1106.374, 218.7991
1106.856, 218.8696
1107.338, 218.9335
1107.820, 219.1343
1108.302, 219.4015
1108.785, 219.4589
1109.267, 219.2797
1109.749, 219.4961
1110.231, 221.0738
1110.713, 222.2804
1111.195, 222.4218
1111.677, 221.8241
1112.159, 221.1890
1112.641, 220.5895
1113.124, 220.5806
1113.606, 221.4676
1114.088, 222.2500
1114.570, 222.4078
1115.052, 222.0460
1115.534, 220.9645
1116.016, 219.2592
1116.498, 219.0252
1116.981, 220.3324
1117.463, 220.8272
1117.945, 218.9688
1118.427, 216.6713
1118.909, 215.6398
1119.391, 215.4688
1119.873, 215.7045
1120.355, 216.6815
1120.838, 216.7478
1121.320, 215.7652
1121.802, 214.4545
1122.284, 213.1764
1122.766, 211.9749
1123.248, 211.0862
1123.730, 210.2995
1124.212, 209.0397
1124.694, 205.6699
1125.177, 204.3158
1125.659, 206.1895
1126.141, 208.2970
1126.623, 206.8763
1127.105, 203.3368
1127.587, 201.4944
1128.069, 201.3377
1128.551, 201.1792
1129.033, 200.2285
1129.516, 199.2095
1129.998, 198.2182
1130.480, 197.3798
1130.962, 196.9375
1131.444, 196.8377
1131.926, 196.9030
1132.408, 197.1299
1132.890, 197.0097
1133.373, 196.1143
1133.855, 194.8678
1134.337, 193.3934
1134.819, 191.8053
1135.301, 190.4034
1135.783, 189.2083
1136.265, 188.5505
1136.747, 188.6523
1137.229, 188.7512
1137.712, 187.9653
1138.194, 187.0497
1138.676, 186.6792
1139.158, 186.8591
1139.640, 187.4885
1140.122, 188.6818
1140.604, 189.2301
1141.086, 188.5334
1141.569, 187.1796
1142.051, 185.0234
1142.533, 182.9883
1143.015, 182.5239
1143.497, 184.6599
1143.979, 185.3526
1144.461, 184.2748
1144.943, 183.0064
1145.426, 182.3723
1145.908, 182.2616
1146.390, 182.9095
1146.872, 183.8902
1147.354, 184.3202
1147.836, 183.2128
1148.318, 182.7309
1148.800, 183.1804
1149.282, 183.6609
1149.765, 183.3132
1150.247, 182.4797
1150.729, 181.7296
1151.211, 181.1624
1151.693, 181.0837
1152.175, 181.7654
1152.657, 182.8322
1153.139, 184.4839
1153.621, 186.0594
1154.104, 186.6026
1154.586, 186.4306
1155.068, 186.5713
1155.550, 187.0833
1156.032, 187.7391
1156.514, 188.9012
1156.996, 189.5589
1157.478, 189.1974
1157.961, 188.4063
1158.443, 188.2785
1158.925, 188.6902
1159.407, 188.8728
1159.889, 188.7060
1160.371, 188.7861
1160.853, 189.5734
1161.335, 190.6177
1161.818, 191.7990
1162.300, 193.0022
1162.782, 193.7660
1163.264, 194.1537
1163.746, 195.1651
1164.228, 197.2099
1164.710, 198.7406
1165.192, 197.9760
1165.674, 196.8380
1166.156, 196.8216
1166.639, 197.7397
1167.121, 198.1909
1167.603, 198.1834
1168.085, 198.9925
1168.567, 201.4525
1169.049, 203.5860
1169.531, 203.1833
1170.013, 201.9577
1170.496, 201.7485
1170.978, 202.6315
1171.460, 202.5365
1171.942, 201.3586
1172.424, 201.1283
1172.906, 203.3330
1173.388, 205.8256
1173.870, 205.9120
1174.353, 205.2408
1174.835, 206.2163
1175.317, 209.4194
1175.799, 211.6391
1176.281, 212.8766
1176.763, 213.2382
1177.245, 212.1852
1177.727, 210.9561
1178.209, 211.1748
1178.692, 210.7226
1179.174, 210.7929
1179.656, 211.6129
1180.138, 211.9666
1180.620, 213.8098
1181.102, 215.8169
1181.584, 217.2842
1182.066, 218.1812
1182.548, 218.1459
1183.031, 217.5546
1183.513, 217.2747
1183.995, 217.4096
1184.477, 217.9927
1184.959, 219.1435
1185.441, 220.3100
1185.923, 220.7725
1186.405, 221.1062
1186.888, 222.6226
1187.370, 222.4160
1187.852, 225.3690
1188.334, 222.7821
1188.816, 221.3821
1189.298, 221.7075
1189.780, 222.7766
1190.262, 223.8896
1190.745, 224.9180
1191.227, 225.4969
1191.709, 225.7455
1192.191, 226.4401
1192.673, 228.3887
1193.155, 229.3703
1193.637, 228.8089
1194.119, 227.9872
1194.601, 228.6260
1195.084, 229.9336
1195.566, 230.3987
1196.048, 230.0665
1196.530, 230.7321
1197.012, 233.9094
1197.494, 235.6335
1197.976, 234.8246
1198.458, 233.0866
1198.941, 232.6103
1199.423, 232.7983
1199.905, 232.5095
1200.387, 231.6477
1200.869, 231.4863
1201.351, 232.5520
1201.833, 233.7873
1202.315, 235.1131
1202.797, 236.1333
1203.280, 235.9127
1203.762, 235.0491
1204.244, 234.4288
1204.726, 234.1703
1205.208, 234.7445
1205.690, 236.7942
1206.172, 238.4942
1206.654, 239.3211
1207.136, 239.5141
1207.619, 239.2307
1208.101, 238.7238
1208.583, 238.4336
1209.065, 238.4528
1209.547, 238.5178
1210.029, 238.3234
1210.511, 238.7285
1210.993, 240.2271
1211.476, 242.2040
1211.958, 244.1908
1212.440, 245.6445
1212.922, 245.1195
1213.404, 241.6582
1213.886, 240.0710
1214.368, 241.5497
1214.850, 243.0990
1215.333, 243.2482
1215.815, 243.1008
1216.297, 245.3203
1216.779, 248.5235
1217.261, 250.0047
1217.743, 248.5117
1218.225, 248.2822
1218.707, 250.5759
1219.189, 251.5702
1219.672, 248.5481
1220.154, 244.3829
1220.636, 244.1539
1221.118, 246.6960
1221.600, 250.3307
1222.082, 255.7675
1222.564, 258.1963
1223.046, 256.4677
1223.528, 254.6034
1224.011, 254.6549
1224.493, 255.8419
1224.975, 257.1627
1225.457, 258.5468
1225.939, 259.8981
1226.421, 261.2048
1226.903, 262.5113
1227.385, 263.9602
1227.868, 264.8723
1228.350, 264.5211
1228.832, 263.8047
1229.314, 263.7447
1229.796, 264.4167
1230.278, 266.1548
1230.760, 270.0096
1231.242, 271.6620
1231.724, 270.4934
1232.207, 270.1457
1232.689, 273.8043
1233.171, 278.3709
1233.653, 279.7299
1234.135, 279.2567
1234.617, 279.2524
1235.099, 280.0556
1235.581, 281.1223
1236.063, 282.3944
1236.546, 284.3372
1237.028, 288.5450
1237.510, 292.1737
1237.992, 290.6768
1238.474, 287.1607
1238.956, 287.0403
1239.438, 291.4590
1239.920, 295.3947
1240.403, 298.7949
1240.885, 301.5946
1241.367, 303.2836
1241.849, 304.7675
1242.331, 306.9517
1242.813, 309.3416
1243.295, 310.9820
1243.777, 313.6823
1244.260, 313.9381
1244.742, 318.4630
1245.224, 322.5585
1245.706, 324.4781
1246.188, 325.7267
1246.670, 327.0694
1247.152, 328.5393
1247.634, 329.9999
1248.116, 331.3958
1248.599, 334.2280
1249.081, 338.3762
1249.563, 342.1237
1250.045, 343.6488
1250.527, 345.3779
1251.009, 349.4561
1251.491, 353.7369
1251.973, 355.6990
1252.455, 355.4760
1252.938, 356.6010
1253.420, 358.9953
1253.902, 361.7775
1254.384, 364.4962
1254.866, 367.4958
1255.348, 371.2026
1255.830, 374.9810
1256.313, 378.0555
1256.795, 380.6318
1257.277, 384.0986
1257.759, 388.3307
1258.241, 392.5215
1258.723, 397.2594
1259.205, 400.4381
1259.687, 400.8823
1260.169, 401.0475
1260.651, 403.0969
1261.134, 406.5875
1261.616, 410.5482
1262.098, 414.7032
1262.580, 418.2933
1263.062, 420.5005
1263.544, 422.8533
1264.026, 425.3593
1264.508, 428.3149
1264.991, 432.3862
1265.473, 436.8129
1265.955, 439.9789
1266.437, 442.3217
1266.919, 445.0251
1267.401, 448.9621
1267.883, 452.1554
1268.365, 454.4081
1268.848, 456.6671
1269.330, 459.5984
1269.812, 462.9673
1270.294, 466.6908
1270.776, 470.6122
1271.258, 474.3666
1271.740, 478.1102
1272.222, 480.9451
1272.704, 482.6871
1273.187, 484.9546
1273.669, 489.5687
1274.151, 494.4801
1274.633, 498.0367
1275.115, 500.5728
1275.597, 502.5998
1276.079, 503.8980
1276.561, 506.6117
1277.043, 510.6970
1277.526, 514.7285
1278.008, 517.6172
1278.490, 520.4135
1278.972, 523.9095
1279.454, 527.4503
1279.936, 530.2811
1280.418, 532.4032
1280.900, 534.8788
1281.383, 537.7955
1281.865, 541.7693
1282.347, 548.5539
1282.829, 554.4207
1283.311, 557.5270
1283.793, 560.0023
1284.275, 563.3004
1284.757, 567.2878
1285.240, 571.9902
1285.722, 576.9564
1286.204, 580.4772
1286.686, 579.2148
1287.168, 581.7164
1287.650, 589.9789
1288.132, 599.1173
1288.614, 606.0432
1289.096, 611.2803
1289.578, 614.5391
1290.061, 617.2468
1290.543, 622.5055
1291.025, 632.7569
1291.507, 641.5358
1291.989, 648.7814
1292.471, 654.6962
1292.953, 658.3922
1293.435, 662.0947
1293.918, 669.0002
1294.400, 677.3663
1294.882, 684.5933
1295.364, 690.3013
1295.846, 697.4316
1296.328, 706.0295
1296.810, 714.2755
1297.292, 720.7887
1297.775, 727.5193
1298.257, 736.1233
1298.739, 745.6582
1299.221, 755.3212
1299.703, 764.9991
1300.185, 772.6279
1300.667, 778.7274
1301.149, 786.4473
1301.631, 797.1135
1302.114, 808.3535
1302.596, 820.4481
##END=



