##NAMES=Hematite
##RRUFFID=R040024
##IDEAL CHEMISTRY=Fe^3+^_2_O_3_
##LOCALITY=near Covered Wells, Papago Indian Reservation, Arizona, USA
##OWNER=RRUFF
##SOURCE=University of Arizona Mineral Museum
##DESCRIPTION=Reddish-black foliatated mass
##STATUS=The identification of this mineral has been confirmed by X-ray diffraction and chemical analysis
##URL=rruff.info/R040024
##MEASURED CHEMISTRY=(Fe_1.99_Al_0.01_)_Î£=2_O_3_
142.2531, 412.6470
142.7353, 409.2495
143.2174, 406.4611
143.6995, 400.9149
144.1816, 406.4413
144.6637, 409.4268
145.1458, 410.0081
145.6280, 400.9839
146.1101, 404.3631
146.5922, 402.7717
147.0743, 400.9763
147.5564, 406.1013
148.0385, 398.4743
148.5207, 403.4894
149.0028, 403.4581
149.4849, 405.7364
149.9670, 403.0133
150.4491, 401.8351
150.9312, 405.6598
151.4134, 406.7142
151.8955, 403.4154
152.3776, 405.8405
152.8597, 398.0388
153.3418, 399.2112
153.8239, 404.2557
154.3061, 401.2083
154.7882, 403.7249
155.2703, 404.1225
155.7524, 394.8897
156.2345, 402.4050
156.7166, 402.6773
157.1988, 395.5126
157.6809, 397.5255
158.1630, 398.0064
158.6451, 397.0741
159.1272, 390.6398
159.6093, 395.9883
160.0915, 398.7958
160.5736, 399.1992
161.0557, 389.9972
161.5378, 393.1985
162.0199, 391.4292
162.5020, 389.4560
162.9841, 394.4031
163.4663, 386.5980
163.9484, 391.4354
164.4305, 391.2261
164.9126, 393.3266
165.3947, 390.4256
165.8768, 387.6368
166.3590, 387.9216
166.8411, 390.5103
167.3232, 392.5854
167.8053, 390.4915
168.2874, 386.9080
168.7695, 379.5818
169.2517, 387.6573
169.7338, 392.0628
170.2159, 392.9954
170.6980, 380.0535
171.1801, 385.0277
171.6622, 382.8219
172.1444, 380.3217
172.6265, 387.8174
173.1086, 376.8935
173.5907, 385.7780
174.0728, 389.2777
174.5549, 394.6908
175.0371, 398.6617
175.5192, 395.8925
176.0013, 387.5568
176.4834, 380.1351
176.9655, 378.7178
177.4476, 381.4384
177.9298, 385.2226
178.4119, 391.1053
178.8940, 396.0316
179.3761, 394.4370
179.8582, 386.5080
180.3403, 378.2784
180.8225, 374.8489
181.3046, 375.3692
181.7867, 377.2892
182.2688, 380.7233
182.7509, 384.6958
183.2330, 386.6549
183.7152, 386.3342
184.1973, 385.9807
184.6794, 388.6511
185.1615, 393.7988
185.6436, 398.2743
186.1257, 401.3749
186.6079, 402.8146
187.0900, 400.5597
187.5721, 393.5255
188.0542, 386.3382
188.5363, 387.1515
189.0184, 395.4445
189.5006, 402.2632
189.9827, 401.3838
190.4648, 394.1506
190.9469, 388.5282
191.4290, 385.0984
191.9111, 383.6967
192.3932, 384.5752
192.8754, 387.8385
193.3575, 391.6535
193.8396, 395.1157
194.3217, 398.2445
194.8038, 400.7552
195.2859, 402.7183
195.7681, 403.9659
196.2502, 403.6020
196.7323, 401.2907
197.2144, 399.3106
197.6965, 399.5718
198.1786, 402.1381
198.6608, 405.0716
199.1429, 407.7626
199.6250, 410.5587
200.1071, 415.8545
200.5892, 424.5183
201.0714, 432.8316
201.5535, 436.2018
202.0356, 433.6789
202.5177, 433.6343
202.9998, 439.5517
203.4819, 450.6004
203.9641, 454.5618
204.4462, 449.0326
204.9283, 441.4842
205.4104, 441.2512
205.8925, 450.1642
206.3746, 458.5597
206.8568, 463.5224
207.3389, 464.9569
207.8210, 466.4253
208.3031, 467.2112
208.7852, 469.0988
209.2673, 474.9429
209.7495, 485.6002
210.2316, 497.5872
210.7137, 509.8281
211.1958, 522.2082
211.6779, 534.8990
212.1600, 546.8333
212.6422, 560.1860
213.1243, 578.9281
213.6064, 603.1105
214.0885, 632.0537
214.5706, 666.1777
215.0527, 707.1227
215.5349, 747.7413
216.0170, 786.3140
216.4991, 825.3198
216.9812, 871.7183
217.4633, 929.0275
217.9454, 985.7183
218.4276, 1034.836
218.9097, 1070.523
219.3918, 1114.983
219.8739, 1173.045
220.3560, 1239.154
220.8381, 1294.472
221.3203, 1330.422
221.8024, 1368.973
222.2845, 1424.674
222.7666, 1510.097
223.2487, 1582.415
223.7308, 1636.119
224.2129, 1673.763
224.6951, 1711.239
225.1772, 1765.210
225.6593, 1796.441
226.1414, 1778.543
226.6235, 1700.632
227.1056, 1595.318
227.5878, 1450.943
228.0699, 1276.849
228.5520, 1130.530
229.0341, 1017.388
229.5162, 927.4811
229.9983, 852.8224
230.4805, 794.2034
230.9626, 750.9893
231.4447, 726.3215
231.9268, 719.6509
232.4089, 715.4647
232.8910, 713.4400
233.3732, 714.1570
233.8553, 717.3380
234.3374, 719.4069
234.8195, 731.0967
235.3016, 757.1470
235.7837, 798.0754
236.2659, 833.6183
236.7480, 860.1926
237.2301, 884.8272
237.7122, 914.5150
238.1943, 951.4072
238.6764, 989.3873
239.1586, 1028.054
239.6407, 1067.568
240.1228, 1105.407
240.6049, 1139.019
241.0870, 1173.476
241.5691, 1214.829
242.0513, 1266.223
242.5334, 1319.059
243.0155, 1371.944
243.4976, 1425.149
243.9797, 1478.159
244.4618, 1540.913
244.9440, 1594.821
245.4261, 1617.121
245.9082, 1606.917
246.3903, 1565.927
246.8724, 1489.492
247.3545, 1371.268
247.8367, 1251.396
248.3188, 1123.978
248.8009, 1000.753
249.2830, 898.8535
249.7651, 824.0729
250.2472, 762.1359
250.7294, 710.3467
251.2115, 669.9386
251.6936, 634.0530
252.1757, 602.9216
252.6578, 576.2557
253.1399, 552.5250
253.6220, 531.3174
254.1042, 513.7526
254.5863, 500.7279
255.0684, 492.9179
255.5505, 486.4914
256.0326, 482.3259
256.5147, 478.9250
256.9969, 473.6300
257.4790, 465.9047
257.9611, 457.1920
258.4432, 447.2260
258.9253, 434.7426
259.4074, 426.1257
259.8896, 422.0927
260.3717, 421.3241
260.8538, 421.6802
261.3359, 423.6614
261.8180, 425.7217
262.3001, 428.0604
262.7823, 431.8014
263.2644, 429.9916
263.7465, 419.6476
264.2286, 406.0611
264.7107, 399.8620
265.1928, 402.9175
265.6750, 408.4218
266.1571, 414.6411
266.6392, 422.3340
267.1213, 426.5706
267.6034, 426.2224
268.0855, 423.3999
268.5677, 421.8705
269.0498, 421.6745
269.5319, 422.6677
270.0140, 425.5649
270.4961, 431.1953
270.9782, 433.5415
271.4604, 431.3788
271.9425, 427.2864
272.4246, 425.6919
272.9067, 426.5034
273.3888, 430.1492
273.8709, 438.4757
274.3531, 452.5539
274.8352, 461.0583
275.3173, 462.2213
275.7994, 459.8578
276.2815, 460.7210
276.7636, 465.1013
277.2458, 470.9900
277.7279, 477.5224
278.2100, 484.6752
278.6921, 493.0849
279.1742, 503.2435
279.6563, 513.8481
280.1385, 521.6856
280.6206, 526.0911
281.1027, 532.7192
281.5848, 546.4339
282.0669, 566.9963
282.5490, 580.2719
283.0312, 583.9985
283.5133, 584.6119
283.9954, 593.2004
284.4775, 610.2141
284.9596, 627.5632
285.4417, 640.2980
285.9239, 649.2648
286.4060, 663.0322
286.8881, 682.1684
287.3702, 704.6340
287.8523, 729.0215
288.3344, 755.2917
288.8166, 778.8212
289.2987, 795.0534
289.7808, 806.1235
290.2629, 823.6821
290.7450, 849.0997
291.2271, 876.0894
291.7093, 896.4005
292.1914, 910.5205
292.6735, 922.5789
293.1556, 935.5624
293.6377, 947.9065
294.1198, 954.0245
294.6020, 953.3156
295.0841, 949.1189
295.5662, 944.3610
296.0483, 939.1732
296.5304, 934.1942
297.0125, 931.7737
297.4947, 929.4172
297.9768, 922.6723
298.4589, 911.5709
298.9410, 894.9532
299.4231, 870.5526
299.9052, 839.3636
300.3873, 805.0793
300.8694, 766.2068
301.3516, 726.3839
301.8337, 689.8884
302.3158, 656.6103
302.7979, 627.5417
303.2800, 604.3949
303.7621, 585.9037
304.2443, 568.7363
304.7264, 552.6691
305.2085, 537.0474
305.6906, 520.2451
306.1727, 502.4091
306.6548, 486.4933
307.1370, 476.0598
307.6191, 468.9590
308.1012, 462.0251
308.5833, 455.1948
309.0654, 447.3365
309.5475, 435.8549
310.0297, 421.1470
310.5118, 409.5273
310.9939, 407.2066
311.4760, 409.6436
311.9581, 411.5244
312.4402, 409.6696
312.9224, 407.7831
313.4045, 408.9662
313.8866, 412.7440
314.3687, 414.7695
314.8508, 411.5979
315.3329, 406.2552
315.8151, 401.4853
316.2972, 398.4041
316.7793, 395.6584
317.2614, 392.2986
317.7435, 388.5934
318.2256, 386.0152
318.7078, 387.6336
319.1899, 389.1183
319.6720, 387.2828
320.1541, 375.4262
320.6362, 367.1529
321.1183, 368.8329
321.6005, 377.8619
322.0826, 384.2516
322.5647, 385.1324
323.0468, 383.1046
323.5289, 379.3006
324.0110, 369.6078
324.4932, 363.9384
324.9753, 367.2968
325.4574, 376.1838
325.9395, 380.5476
326.4216, 374.5107
326.9037, 367.7825
327.3859, 364.0762
327.8680, 363.2926
328.3501, 366.0236
328.8322, 376.6522
329.3143, 390.3322
329.7964, 396.7341
330.2786, 390.7357
330.7607, 383.0764
331.2428, 377.1538
331.7249, 373.6004
332.2070, 370.1204
332.6891, 366.0773
333.1713, 362.4265
333.6534, 360.9748
334.1355, 363.2898
334.6176, 364.9936
335.0997, 364.1624
335.5818, 359.9973
336.0640, 358.7878
336.5461, 361.4530
337.0282, 366.0588
337.5103, 370.3756
337.9924, 374.3225
338.4745, 378.1185
338.9567, 382.1448
339.4388, 386.3104
339.9209, 388.6550
340.4030, 389.0171
340.8851, 387.8811
341.3672, 385.3725
341.8494, 381.3178
342.3315, 377.5734
342.8136, 374.2510
343.2957, 371.6371
343.7778, 371.6160
344.2599, 374.6797
344.7421, 377.2758
345.2242, 374.0900
345.7063, 366.1604
346.1884, 364.0228
346.6705, 372.3152
347.1526, 385.1552
347.6348, 388.5177
348.1169, 382.6785
348.5990, 376.2632
349.0811, 376.8084
349.5632, 381.9267
350.0453, 384.7519
350.5275, 383.0021
351.0096, 380.7072
351.4917, 384.6271
351.9738, 393.4223
352.4559, 400.6652
352.9380, 401.5430
353.4202, 398.6759
353.9023, 395.1549
354.3844, 390.8623
354.8665, 387.9832
355.3486, 388.5512
355.8307, 392.0232
356.3129, 397.2336
356.7950, 408.5248
357.2771, 418.2228
357.7592, 417.3821
358.2413, 403.7535
358.7234, 392.2744
359.2056, 394.2217
359.6877, 403.2152
360.1698, 410.3246
360.6519, 411.0244
361.1340, 409.9763
361.6161, 408.7617
362.0982, 407.4500
362.5804, 407.5245
363.0625, 409.9740
363.5446, 413.8300
364.0267, 418.2161
364.5088, 424.2556
364.9909, 429.4417
365.4731, 430.9796
365.9552, 423.4716
366.4373, 433.2692
366.9194, 439.3968
367.4015, 442.0515
367.8836, 430.8317
368.3658, 437.5283
368.8479, 437.0445
369.3300, 436.2664
369.8121, 445.4842
370.2942, 436.2824
370.7763, 445.3418
371.2585, 447.1119
371.7406, 452.2179
372.2227, 450.0996
372.7048, 454.6200
373.1869, 458.0276
373.6690, 459.5377
374.1512, 461.4703
374.6333, 463.8816
375.1154, 466.5842
375.5975, 469.5628
376.0796, 472.8476
376.5617, 476.4308
377.0439, 480.6800
377.5260, 484.5560
378.0081, 486.0158
378.4902, 484.6664
378.9723, 484.7685
379.4544, 488.1047
379.9366, 493.9495
380.4187, 498.3419
380.9008, 500.9309
381.3829, 504.3454
381.8650, 512.7377
382.3471, 524.9757
382.8293, 533.0088
383.3114, 532.5912
383.7935, 529.7829
384.2756, 536.4762
384.7577, 552.1397
385.2398, 569.6635
385.7220, 585.8424
386.2041, 600.3825
386.6862, 612.0750
387.1683, 619.5063
387.6504, 627.5308
388.1325, 643.5333
388.6147, 664.7134
389.0968, 682.4511
389.5789, 689.8502
390.0610, 693.4167
390.5431, 697.0828
391.0252, 700.4181
391.5074, 709.8243
391.9895, 732.4415
392.4716, 762.9170
392.9537, 793.2888
393.4358, 818.6234
393.9179, 845.3029
394.4001, 876.7688
394.8822, 913.0374
395.3643, 950.7147
395.8464, 988.6317
396.3285, 1027.792
396.8106, 1068.529
397.2928, 1107.911
397.7749, 1152.566
398.2570, 1205.515
398.7391, 1265.446
399.2212, 1324.711
399.7033, 1380.681
400.1855, 1438.006
400.6676, 1498.968
401.1497, 1563.533
401.6318, 1630.547
402.1139, 1699.570
402.5960, 1771.250
403.0782, 1847.510
403.5603, 1930.846
404.0424, 2013.880
404.5245, 2095.224
405.0066, 2174.497
405.4887, 2248.271
405.9709, 2316.117
406.4530, 2379.465
406.9351, 2442.375
407.4172, 2505.575
407.8993, 2560.414
408.3814, 2604.485
408.8636, 2638.400
409.3457, 2666.853
409.8278, 2690.520
410.3099, 2702.407
410.7920, 2697.386
411.2741, 2675.802
411.7563, 2639.401
412.2384, 2589.433
412.7205, 2522.387
413.2026, 2425.048
413.6847, 2301.403
414.1668, 2173.545
414.6490, 2049.243
415.1311, 1929.489
415.6132, 1812.953
416.0953, 1698.076
416.5774, 1590.553
417.0595, 1492.300
417.5417, 1402.753
418.0238, 1318.859
418.5059, 1239.716
418.9880, 1166.598
419.4701, 1101.078
419.9522, 1042.653
420.4344, 991.6389
420.9165, 950.3774
421.3986, 915.4474
421.8807, 883.6991
422.3628, 856.2395
422.8449, 830.3663
423.3270, 805.9905
423.8091, 783.1306
424.2913, 761.1887
424.7734, 742.6656
425.2555, 723.2858
425.7376, 700.6577
426.2197, 669.6194
426.7018, 647.7808
427.1840, 639.9114
427.6661, 638.3842
428.1482, 630.9246
428.6303, 614.3882
429.1124, 598.3909
429.5945, 585.2395
430.0767, 574.9437
430.5588, 566.7862
431.0409, 561.5080
431.5230, 556.6326
432.0051, 549.0835
432.4872, 538.7261
432.9694, 530.7944
433.4515, 526.6848
433.9336, 524.9164
434.4157, 521.8350
434.8978, 517.5205
435.3799, 513.9940
435.8621, 514.1080
436.3442, 515.9070
436.8263, 514.2623
437.3084, 508.2742
437.7905, 500.7099
438.2726, 493.5310
438.7548, 486.9376
439.2369, 481.3918
439.7190, 477.1833
440.2011, 474.0358
440.6832, 471.5625
441.1653, 469.7693
441.6475, 469.4514
442.1296, 472.5665
442.6117, 476.6394
443.0938, 479.4245
443.5759, 480.7476
444.0580, 480.2068
444.5402, 475.1005
445.0223, 467.6036
445.5044, 464.5507
445.9865, 474.9044
446.4686, 483.6457
446.9507, 483.9264
447.4329, 471.3394
447.9150, 460.1487
448.3971, 448.2292
448.8792, 438.8666
449.3613, 436.5773
449.8434, 445.9162
450.3256, 453.7945
450.8077, 457.3098
451.2898, 456.7107
451.7719, 454.2828
452.2540, 448.8498
452.7361, 444.5398
453.2183, 447.1814
453.7004, 457.3433
454.1825, 457.1189
454.6646, 440.9382
455.1467, 419.0700
455.6288, 412.4336
456.1110, 420.0239
456.5931, 429.1075
457.0752, 432.6492
457.5573, 432.7515
458.0394, 434.2026
458.5215, 437.3274
459.0037, 439.7901
459.4858, 438.0771
459.9679, 434.3953
460.4500, 432.8907
460.9321, 437.9700
461.4142, 442.5918
461.8964, 441.2193
462.3785, 434.7221
462.8606, 418.1932
463.3427, 431.1222
463.8248, 438.6657
464.3069, 441.1132
464.7891, 423.2015
465.2712, 431.5795
465.7533, 429.4218
466.2354, 426.8320
466.7175, 438.9102
467.1996, 423.9595
467.6818, 435.8053
468.1639, 436.9543
468.6460, 442.9989
469.1281, 438.4427
469.6102, 437.1607
470.0923, 446.4830
470.5745, 435.4573
471.0566, 446.4328
471.5387, 451.8496
472.0208, 447.9256
472.5029, 439.4164
472.9850, 438.1575
473.4672, 445.0055
473.9493, 451.4851
474.4314, 451.6674
474.9135, 447.3734
475.3956, 450.1654
475.8777, 461.0197
476.3599, 472.2737
476.8420, 475.0331
477.3241, 471.6711
477.8062, 468.1941
478.2883, 465.1745
478.7704, 464.3754
479.2526, 469.8535
479.7347, 480.0162
480.2168, 488.1247
480.6989, 485.6549
481.1810, 482.5193
481.6631, 488.6971
482.1453, 509.0173
482.6274, 524.9043
483.1095, 523.6263
483.5916, 514.9765
484.0737, 511.4009
484.5558, 522.1527
485.0379, 531.3827
485.5201, 532.8257
486.0022, 526.9474
486.4843, 527.8213
486.9664, 539.2466
487.4485, 553.7002
487.9306, 567.9075
488.4128, 583.2548
488.8949, 594.1719
489.3770, 598.8938
489.8591, 600.9429
490.3412, 606.8816
490.8233, 617.4634
491.3055, 627.5128
491.7876, 634.4684
492.2697, 639.2845
492.7518, 646.5274
493.2339, 656.1564
493.7160, 667.8092
494.1982, 683.5120
494.6803, 701.0572
495.1624, 713.0535
495.6445, 716.4707
496.1266, 718.1072
496.6087, 726.1782
497.0909, 738.4991
497.5730, 749.6194
498.0551, 757.0487
498.5372, 761.9655
499.0193, 765.2171
499.5014, 766.8792
499.9836, 766.2076
500.4657, 759.9077
500.9478, 752.7803
501.4299, 748.7026
501.9120, 755.1765
502.3941, 756.9224
502.8763, 747.1944
503.3584, 730.9092
503.8405, 722.6766
504.3226, 730.4626
504.8047, 735.8006
505.2868, 732.0682
505.7690, 718.3013
506.2511, 703.2407
506.7332, 685.4539
507.2153, 669.1328
507.6974, 660.4556
508.1795, 660.1477
508.6617, 655.0482
509.1438, 641.3883
509.6259, 623.2709
510.1080, 609.2343
510.5901, 599.0165
511.0722, 589.6142
511.5544, 576.6274
512.0365, 564.1940
512.5186, 562.2830
513.0007, 572.2006
513.4828, 579.7892
513.9650, 570.7195
514.4471, 553.2462
514.9292, 538.3386
515.4113, 530.0632
515.8934, 524.4727
516.3755, 519.1498
516.8576, 514.8876
517.3397, 514.0433
517.8218, 521.3895
518.3040, 528.7637
518.7861, 532.9634
519.2682, 533.5540
519.7503, 531.4164
520.2324, 525.0950
520.7145, 517.1482
521.1967, 509.8241
521.6788, 502.5691
522.1609, 497.5180
522.6430, 496.0006
523.1251, 496.4329
523.6072, 492.7577
524.0894, 484.1997
524.5715, 477.4578
525.0536, 477.2818
525.5357, 482.3299
526.0178, 486.2066
526.4999, 488.7830
526.9821, 490.2564
527.4642, 490.6268
527.9463, 490.0727
528.4284, 488.7532
528.9105, 485.5262
529.3926, 483.2462
529.8748, 485.8040
530.3569, 491.5488
530.8390, 495.6848
531.3211, 495.1328
531.8032, 493.0691
532.2853, 491.2979
532.7675, 490.1781
533.2496, 488.0663
533.7317, 484.0895
534.2138, 479.2840
534.6959, 474.3036
535.1780, 465.7489
535.6602, 462.5947
536.1423, 468.3314
536.6244, 479.0065
537.1065, 483.0958
537.5886, 477.8480
538.0707, 474.0910
538.5529, 477.9220
539.0350, 488.4352
539.5171, 491.2597
539.9992, 485.3304
540.4813, 478.3054
540.9634, 477.5179
541.4456, 481.6942
541.9277, 487.2140
542.4098, 494.5242
542.8919, 500.1143
543.3740, 498.1752
543.8561, 491.0872
544.3383, 484.7728
544.8204, 480.2954
545.3025, 478.9632
545.7846, 483.1775
546.2667, 492.8690
546.7488, 501.5000
547.2310, 508.6208
547.7131, 512.5773
548.1952, 512.0433
548.6773, 500.9757
549.1594, 494.2889
549.6415, 494.9186
550.1237, 499.0560
550.6058, 500.0541
551.0879, 495.4630
551.5700, 493.5876
552.0521, 497.5909
552.5342, 506.2906
553.0164, 511.7156
553.4985, 513.4127
553.9806, 514.6046
554.4627, 517.7973
554.9448, 522.5388
555.4269, 527.8264
555.9091, 534.3846
556.3912, 537.4069
556.8733, 527.4725
557.3554, 510.3678
557.8375, 497.9514
558.3196, 497.1773
558.8018, 500.3771
559.2839, 502.7189
559.7660, 504.6057
560.2481, 507.6904
560.7302, 513.8862
561.2123, 520.4003
561.6945, 525.9231
562.1766, 530.2098
562.6587, 533.7178
563.1408, 536.9034
563.6229, 538.9929
564.1050, 539.3370
564.5872, 537.7908
565.0693, 534.4257
565.5514, 527.8560
566.0335, 520.4079
566.5156, 518.8426
566.9977, 523.6704
567.4799, 528.7762
567.9620, 530.4488
568.4441, 530.2290
568.9262, 534.3023
569.4083, 542.7231
569.8904, 550.4061
570.3726, 551.4733
570.8547, 549.6721
571.3368, 551.1164
571.8189, 558.1179
572.3010, 565.2928
572.7831, 568.3859
573.2653, 569.4871
573.7474, 571.8311
574.2295, 581.5302
574.7116, 587.4684
575.1937, 583.3221
575.6758, 570.2783
576.1580, 562.7896
576.6401, 563.1791
577.1222, 566.8649
577.6043, 572.1563
578.0864, 579.5055
578.5685, 587.4185
579.0507, 597.1182
579.5328, 605.0073
580.0149, 604.6715
580.4970, 596.4647
580.9791, 593.9017
581.4612, 601.9229
581.9434, 613.6721
582.4255, 616.2184
582.9076, 611.5841
583.3897, 607.9759
583.8718, 609.1428
584.3539, 613.8343
584.8361, 623.1095
585.3182, 636.6572
585.8003, 646.6033
586.2824, 643.7013
586.7645, 638.8768
587.2466, 640.4486
587.7288, 653.4034
588.2109, 666.1016
588.6930, 676.8702
589.1751, 686.8401
589.6572, 697.8320
590.1393, 712.1573
590.6215, 722.5056
591.1036, 725.8392
591.5857, 724.5471
592.0678, 729.1110
592.5499, 740.2537
593.0320, 751.9808
593.5142, 759.2618
593.9963, 764.1348
594.4784, 775.0657
594.9605, 792.6450
595.4426, 811.6377
595.9247, 827.3500
596.4069, 841.6220
596.8890, 857.4957
597.3711, 877.0786
597.8532, 895.9166
598.3353, 912.3787
598.8174, 926.5405
599.2996, 938.5846
599.7817, 940.8007
600.2638, 948.6602
600.7459, 970.2003
601.2280, 1004.241
601.7101, 1031.560
602.1923, 1048.199
602.6744, 1063.932
603.1565, 1083.524
603.6386, 1107.717
604.1207, 1132.035
604.6028, 1157.238
605.0850, 1180.715
605.5671, 1197.373
606.0492, 1208.735
606.5313, 1222.521
607.0134, 1240.127
607.4955, 1261.722
607.9777, 1294.685
608.4598, 1332.433
608.9419, 1358.752
609.4240, 1354.313
609.9061, 1345.103
610.3882, 1349.962
610.8704, 1367.794
611.3525, 1377.607
611.8346, 1371.254
612.3167, 1357.248
612.7988, 1339.805
613.2809, 1318.420
613.7631, 1294.829
614.2452, 1266.758
614.7273, 1238.952
615.2094, 1219.912
615.6915, 1212.538
616.1736, 1191.662
616.6558, 1148.871
617.1379, 1096.986
617.6200, 1061.201
618.1021, 1039.732
618.5842, 1021.050
619.0663, 1000.640
619.5485, 979.3251
620.0306, 957.7193
620.5127, 935.9053
620.9948, 913.8062
621.4769, 888.4502
621.9590, 865.0767
622.4412, 847.5111
622.9233, 836.5610
623.4054, 829.6660
623.8875, 833.1516
624.3696, 836.6293
624.8517, 829.6279
625.3339, 803.8170
625.8160, 785.9001
626.2981, 781.3525
626.7802, 783.4516
627.2623, 776.9057
627.7444, 761.0493
628.2266, 745.6273
628.7087, 732.5701
629.1908, 723.3005
629.6729, 724.0333
630.1550, 733.6378
630.6371, 742.4460
631.1193, 743.8189
631.6014, 740.9725
632.0835, 736.8251
632.5656, 731.6006
633.0477, 725.8234
633.5298, 717.0829
634.0120, 709.2519
634.4941, 705.7644
634.9762, 711.4924
635.4583, 715.8746
635.9404, 718.4485
636.4225, 719.5314
636.9047, 719.3578
637.3868, 717.2605
637.8689, 716.0657
638.3510, 716.5766
638.8331, 718.4334
639.3152, 721.1107
639.7973, 724.5424
640.2794, 726.7947
640.7615, 726.5377
641.2437, 724.4019
641.7258, 720.4913
642.2079, 714.9426
642.6900, 710.8076
643.1721, 709.9518
643.6542, 711.5618
644.1364, 715.2664
644.6185, 722.1177
645.1006, 728.2259
645.5827, 731.7380
646.0648, 734.4034
646.5469, 738.2051
647.0291, 743.0804
647.5112, 749.3845
647.9933, 757.8196
648.4754, 767.3200
648.9575, 774.7910
649.4396, 780.2512
649.9218, 784.4456
650.4039, 788.0454
650.8860, 790.4861
651.3681, 790.1610
651.8502, 787.1658
652.3323, 782.3970
652.8145, 770.6210
653.2966, 760.8277
653.7787, 765.0709
654.2608, 787.0537
654.7429, 803.9866
655.2250, 802.4785
655.7072, 794.3350
656.1893, 789.4011
656.6714, 788.1475
657.1535, 791.7880
657.6356, 804.6589
658.1177, 819.3517
658.5999, 822.8683
659.0820, 812.8644
659.5641, 803.7629
660.0462, 798.9907
660.5283, 797.3700
661.0104, 797.5165
661.4926, 798.9429
661.9747, 797.9911
662.4568, 790.7730
662.9389, 781.2090
663.4210, 773.6620
663.9031, 768.2275
664.3853, 763.7079
664.8674, 759.8625
665.3495, 756.5173
665.8316, 753.6360
666.3137, 751.3654
666.7958, 748.9465
667.2780, 751.1612
667.7601, 750.1466
668.2422, 746.0737
668.7243, 729.7852
669.2064, 729.2704
669.6885, 722.4349
670.1707, 715.3381
670.6528, 717.0441
671.1349, 702.5320
671.6170, 704.0977
672.0991, 687.4800
672.5812, 676.8274
673.0634, 665.7414
673.5455, 655.1276
674.0276, 647.7205
674.5097, 648.6100
674.9918, 649.9293
675.4739, 645.8930
675.9561, 636.5828
676.4382, 632.0154
676.9203, 638.0640
677.4024, 644.7343
677.8845, 648.3732
678.3666, 649.2554
678.8488, 644.1763
679.3309, 630.8078
679.8130, 617.1494
680.2951, 610.7813
680.7772, 610.9187
681.2593, 613.2911
681.7415, 618.1622
682.2236, 621.6324
682.7057, 618.0958
683.1878, 610.3547
683.6699, 603.4781
684.1520, 599.9941
684.6342, 596.7479
685.1163, 591.1183
685.5984, 584.6985
686.0805, 581.1537
686.5626, 583.2718
687.0447, 586.1272
687.5269, 589.6629
688.0090, 593.3541
688.4911, 592.9609
688.9732, 587.2704
689.4553, 582.1594
689.9374, 581.7217
690.4196, 584.7194
690.9017, 585.1052
691.3838, 582.8651
691.8659, 579.2643
692.3480, 573.7870
692.8301, 568.1686
693.3123, 563.8643
693.7944, 555.9735
694.2765, 560.2916
694.7586, 562.0688
695.2407, 561.4417
695.7228, 551.2094
696.2050, 553.3799
696.6871, 550.5803
697.1692, 547.5767
697.6513, 551.4933
698.1334, 542.6580
698.6155, 546.4651
699.0977, 545.2250
699.5798, 546.2952
700.0619, 542.3638
700.5440, 539.9772
701.0261, 542.5936
701.5082, 542.4400
701.9904, 537.9325
702.4725, 539.1495
702.9546, 530.1395
703.4367, 530.1036
703.9188, 533.9398
704.4009, 530.4589
704.8831, 530.5679
705.3652, 529.2883
705.8473, 526.4341
706.3294, 524.5242
706.8115, 524.2251
707.2936, 523.7774
707.7758, 521.9051
708.2579, 518.6049
708.7400, 515.8543
709.2221, 503.9502
709.7042, 513.3972
710.1863, 518.1255
710.6685, 518.3884
711.1506, 500.8130
711.6327, 506.2724
712.1148, 502.5005
712.5969, 498.3500
713.0790, 507.0516
713.5612, 492.0704
714.0433, 500.5682
714.5254, 499.6936
715.0075, 503.1085
715.4896, 497.2350
715.9717, 494.2305
716.4539, 500.5169
716.9360, 501.6591
717.4181, 494.7163
717.9002, 494.3799
718.3823, 494.0845
718.8644, 491.1664
719.3466, 487.9610
719.8287, 494.1496
720.3108, 497.7974
720.7929, 499.0410
721.2750, 490.6791
721.7571, 494.7206
722.2393, 493.7914
722.7214, 492.6584
723.2035, 498.4456
723.6856, 491.4808
724.1677, 497.1583
724.6498, 497.7892
725.1320, 500.7299
725.6141, 498.6691
726.0962, 498.1531
726.5783, 502.6401
727.0604, 498.6575
727.5425, 503.2823
728.0247, 499.4480
728.5068, 492.4326
728.9889, 494.8413
729.4710, 512.8113
729.9531, 528.2753
730.4352, 527.3165
730.9174, 517.9155
731.3995, 509.6987
731.8816, 503.1440
732.3637, 500.3882
732.8458, 503.5629
733.3279, 509.4915
733.8101, 512.3320
734.2922, 511.2309
734.7743, 511.3250
735.2564, 514.9765
735.7385, 519.1778
736.2206, 515.0500
736.7028, 504.3474
737.1849, 496.7139
737.6670, 499.5824
738.1491, 505.5042
738.6312, 508.3773
739.1133, 508.5186
739.5955, 507.2683
740.0776, 502.6980
740.5597, 499.1317
741.0418, 499.4991
741.5239, 503.5797
742.0060, 503.8182
742.4882, 497.2892
742.9703, 493.2794
743.4524, 499.0788
743.9345, 513.3212
744.4166, 521.9513
744.8987, 524.8926
745.3809, 523.3331
745.8630, 512.4385
746.3451, 500.2786
746.8272, 499.7405
747.3093, 501.2385
747.7914, 516.6730
748.2736, 525.5016
748.7557, 528.0788
749.2378, 505.6820
749.7199, 515.5341
750.2020, 512.4622
750.6841, 508.8604
751.1663, 523.2514
751.6484, 504.4869
752.1305, 518.5925
752.6126, 519.5770
753.0947, 526.5667
753.5768, 520.5526
754.0590, 518.5551
754.5411, 529.5653
755.0232, 533.3730
755.5053, 525.8621
755.9874, 533.2335
756.4695, 514.0147
756.9517, 518.1293
757.4338, 522.1970
757.9159, 533.8715
758.3980, 539.4415
758.8801, 533.6272
759.3622, 521.7056
759.8444, 517.9435
760.3265, 523.1876
760.8086, 528.6829
761.2907, 531.4326
761.7728, 532.4551
762.2549, 534.4671
762.7370, 536.7082
763.2191, 536.1114
763.7012, 525.8278
764.1833, 516.6906
764.6655, 516.8873
765.1476, 525.4166
765.6297, 533.0713
766.1118, 540.4943
766.5939, 544.2043
767.0760, 541.5583
767.5582, 533.0378
768.0403, 529.0881
768.5224, 530.3344
769.0045, 532.4127
769.4866, 531.9011
769.9688, 530.1796
770.4509, 531.8912
770.9330, 536.8852
771.4151, 539.8470
771.8972, 531.8862
772.3793, 524.0570
772.8615, 526.8745
773.3436, 544.0411
773.8257, 556.7056
774.3078, 560.5950
774.7899, 560.8303
775.2720, 560.2369
775.7542, 559.0456
776.2363, 555.0778
776.7184, 547.4520
777.2005, 540.6505
777.6826, 540.1970
778.1647, 543.9747
778.6469, 546.0732
779.1290, 545.1876
779.6111, 545.3423
780.0932, 549.5760
780.5753, 556.3174
781.0574, 564.2249
781.5396, 576.2242
782.0217, 583.2646
782.5038, 581.2516
782.9859, 576.9692
783.4680, 578.4853
783.9501, 587.2440
784.4323, 591.7872
784.9144, 590.1624
785.3965, 585.6271
785.8786, 581.3259
786.3607, 577.7368
786.8428, 575.7388
787.3250, 574.7773
787.8071, 577.2493
788.2892, 588.0369
788.7713, 602.2791
789.2534, 612.9167
789.7355, 614.4883
790.2177, 617.4643
790.6998, 624.5291
791.1819, 632.3868
791.6640, 634.4147
792.1461, 629.9518
792.6282, 626.3327
793.1104, 624.7308
793.5925, 626.0100
794.0746, 634.6299
794.5567, 647.3552
795.0388, 655.9651
795.5209, 650.5058
796.0031, 646.3043
796.4852, 653.9718
796.9673, 668.7902
797.4494, 677.9246
797.9315, 677.2101
798.4136, 674.7772
798.8958, 671.1644
799.3779, 667.4091
799.8600, 667.0320
800.3421, 670.0331
800.8242, 674.2310
801.3063, 678.5338
801.7885, 683.6702
802.2706, 692.0773
802.7527, 702.3943
803.2348, 710.4241
803.7169, 712.7336
804.1990, 713.6167
804.6812, 715.0148
805.1633, 716.7215
805.6454, 716.8087
806.1275, 712.9717
806.6096, 712.2496
807.0917, 717.7388
807.5739, 727.9340
808.0560, 737.2342
808.5381, 745.6149
809.0202, 752.6579
809.5023, 758.9603
809.9844, 763.2180
810.4666, 762.7828
810.9487, 758.5842
811.4308, 755.3333
811.9129, 752.6590
812.3950, 753.5577
812.8771, 761.3716
813.3593, 774.9990
813.8414, 783.0864
814.3235, 784.6619
814.8056, 784.0493
815.2877, 781.7057
815.7698, 779.1202
816.2520, 783.5469
816.7341, 793.9095
817.2162, 801.4216
817.6983, 796.6050
818.1804, 789.5661
818.6625, 788.7963
819.1447, 794.2249
819.6268, 798.8834
820.1089, 803.9915
820.5910, 804.8134
821.0731, 796.9503
821.5552, 781.5965
822.0374, 777.3002
822.5195, 785.1170
823.0016, 795.3571
823.4837, 803.7489
823.9658, 809.8771
824.4479, 812.8605
824.9301, 812.7192
825.4122, 809.7187
825.8943, 799.0020
826.3764, 789.7443
826.8585, 788.4468
827.3406, 796.0339
827.8228, 800.9696
828.3049, 802.7458
828.7870, 802.5451
829.2691, 800.0652
829.7512, 795.8474
830.2333, 795.1878
830.7155, 797.9615
831.1976, 798.8784
831.6797, 784.4788
832.1618, 793.6942
832.6439, 798.1909
833.1260, 798.2227
833.6082, 780.4152
834.0903, 785.6432
834.5724, 781.6397
835.0545, 777.2576
835.5366, 785.7275
836.0187, 770.5152
836.5009, 778.7809
836.9830, 777.6749
837.4651, 780.8582
837.9472, 774.7531
838.4293, 774.5983
838.9114, 776.7751
839.3936, 777.5741
839.8757, 775.9567
840.3578, 772.5862
840.8399, 768.1704
841.3220, 762.7323
841.8041, 753.8953
842.2863, 736.1500
842.7684, 723.6946
843.2505, 724.5492
843.7326, 736.5283
844.2147, 743.2277
844.6968, 744.5930
845.1790, 741.0733
845.6611, 729.5483
846.1432, 715.3874
846.6253, 702.8733
847.1074, 692.8240
847.5895, 689.3549
848.0717, 701.1579
848.5538, 712.9066
849.0359, 718.3204
849.5180, 717.9196
850.0001, 716.6365
850.4822, 714.2365
850.9644, 712.0988
851.4465, 711.6356
851.9286, 711.6072
852.4107, 707.0510
852.8928, 699.3055
853.3749, 695.0686
853.8571, 704.6933
854.3392, 713.0929
854.8213, 706.4702
855.3034, 687.7156
855.7855, 682.0101
856.2676, 700.3825
856.7498, 714.0112
857.2319, 712.6953
857.7140, 700.3231
858.1961, 688.9407
858.6782, 678.8820
859.1603, 675.8250
859.6425, 689.8806
860.1246, 706.4023
860.6067, 708.0394
861.0888, 699.1299
861.5709, 693.0400
862.0530, 697.3249
862.5352, 701.2292
863.0173, 701.8376
863.4994, 700.0485
863.9815, 698.8679
864.4636, 698.6389
864.9457, 695.8940
865.4279, 687.8419
865.9100, 678.9172
866.3921, 676.1058
866.8742, 678.7347
867.3563, 684.9907
867.8384, 701.0473
868.3206, 712.9930
868.8027, 712.1938
869.2848, 703.5206
869.7669, 698.5993
870.2490, 699.4278
870.7311, 698.9824
871.2133, 695.4438
871.6954, 691.0389
872.1775, 689.9442
872.6596, 691.6442
873.1417, 694.2593
873.6238, 697.6750
874.1060, 700.9335
874.5881, 704.3325
875.0702, 706.7369
875.5523, 706.5040
876.0344, 697.7802
876.5165, 694.5048
876.9987, 699.4032
877.4808, 707.5146
877.9629, 712.8030
878.4450, 715.2338
878.9271, 713.8758
879.4092, 707.5863
879.8914, 702.0244
880.3735, 704.7948
880.8556, 711.0712
881.3377, 714.5725
881.8198, 713.1838
882.3019, 710.5367
882.7841, 703.5338
883.2662, 698.7582
883.7483, 704.0984
884.2304, 722.3990
884.7125, 725.7775
885.1946, 710.5687
885.6768, 695.2813
886.1588, 702.1465
886.6409, 719.8297
887.1230, 731.0114
887.6052, 733.2205
888.0873, 731.5765
888.5694, 727.9493
889.0515, 721.3182
889.5336, 708.4163
890.0157, 686.7611
890.4979, 682.0489
890.9800, 698.1796
891.4621, 715.9930
891.9442, 720.4722
892.4263, 716.5338
892.9084, 716.8633
893.3906, 721.3331
893.8727, 724.4771
894.3548, 723.2733
894.8369, 719.6642
895.3190, 711.8596
895.8011, 700.4688
896.2833, 700.8088
896.7654, 719.1087
897.2475, 733.9822
897.7296, 735.8664
898.2117, 727.9214
898.6938, 716.0273
899.1760, 701.7252
899.6581, 693.9641
900.1402, 703.2078
900.6223, 715.3060
901.1044, 721.5795
901.5865, 723.0312
902.0687, 722.7404
902.5508, 720.1207
903.0329, 717.2867
903.5150, 713.5306
903.9971, 710.8662
904.4792, 716.7722
904.9614, 729.3724
905.4435, 735.4176
905.9256, 727.5331
906.4077, 717.8868
906.8898, 717.1088
907.3719, 721.4888
907.8541, 725.3900
908.3362, 728.3377
908.8183, 729.4382
909.3004, 728.3204
909.7825, 725.7953
910.2646, 722.1824
910.7468, 717.6635
911.2289, 703.4110
911.7110, 718.9811
912.1931, 727.9450
912.6752, 730.6577
913.1573, 708.3964
913.6395, 718.3840
914.1216, 715.4476
914.6037, 711.9813
915.0858, 726.5077
915.5679, 707.8787
916.0500, 722.1198
916.5322, 723.2399
917.0143, 730.3651
917.4964, 724.4865
917.9785, 722.6245
918.4606, 733.7701
918.9427, 737.7134
919.4249, 730.3381
919.9070, 737.8449
920.3891, 718.7618
920.8712, 723.0118
921.3533, 737.3289
921.8354, 730.6073
922.3176, 738.3521
922.7997, 740.5871
923.2818, 717.7836
923.7639, 738.5247
924.2460, 740.4342
924.7281, 723.0077
925.2103, 742.2570
925.6924, 727.4961
926.1745, 724.8748
926.6566, 731.3892
927.1387, 728.3798
927.6208, 740.3857
928.1030, 737.9266
928.5851, 734.1748
929.0672, 736.0632
929.5493, 721.9693
930.0314, 737.5257
930.5135, 732.8285
930.9957, 738.1990
931.4778, 745.8514
931.9599, 736.0308
932.4420, 744.7085
932.9241, 724.6996
933.4063, 728.6940
933.8884, 730.1036
934.3705, 746.8553
934.8526, 726.9864
935.3347, 730.3138
935.8168, 743.5177
936.2990, 741.7043
936.7811, 746.9796
937.2632, 752.4117
937.7453, 751.9083
938.2274, 744.9767
938.7095, 740.1849
939.1917, 740.7742
939.6738, 743.7525
940.1559, 748.5261
940.6380, 754.7725
941.1201, 760.4718
941.6022, 765.6776
942.0844, 767.7460
942.5665, 761.8077
943.0486, 754.8781
943.5307, 757.5659
944.0128, 766.5338
944.4949, 772.6014
944.9771, 769.8625
945.4592, 767.4598
945.9413, 767.3004
946.4234, 768.4968
946.9055, 769.6854
947.3876, 770.8694
947.8698, 771.0845
948.3519, 769.8243
948.8340, 755.8529
949.3161, 770.7177
949.7982, 778.9764
950.2803, 780.9839
950.7625, 758.0173
951.2446, 767.2995
951.7267, 763.6580
952.2088, 759.4864
952.6909, 773.3076
953.1730, 753.9734
953.6552, 767.5092
954.1373, 767.9239
954.6194, 774.3438
955.1015, 767.7601
955.5836, 765.1927
956.0657, 775.6332
956.5479, 778.8712
957.0300, 770.7905
957.5121, 777.5922
957.9942, 757.8037
958.4763, 761.3484
958.9584, 774.9604
959.4406, 767.5335
959.9227, 774.5729
960.4048, 776.1028
960.8869, 752.5940
961.3690, 767.0527
961.8511, 767.8037
962.3333, 766.8043
962.8154, 766.8849
963.2975, 770.5307
963.7796, 771.5789
964.2617, 768.7653
964.7438, 764.6624
965.2260, 762.3171
965.7081, 761.6110
966.1902, 762.1856
966.6723, 763.9833
967.1544, 767.1794
967.6365, 776.4860
968.1187, 784.0238
968.6008, 780.6483
969.0829, 762.9181
969.5650, 756.1553
970.0471, 763.8610
970.5292, 772.6605
971.0114, 774.6317
971.4935, 772.1457
971.9756, 772.6473
972.4577, 775.2776
972.9398, 775.8304
973.4219, 767.6161
973.9041, 761.5583
974.3862, 764.7137
974.8683, 773.6725
975.3504, 779.4068
975.8325, 781.4035
976.3146, 782.6528
976.7968, 784.1378
977.2789, 784.0858
977.7610, 776.8973
978.2431, 767.0569
978.7252, 763.6050
979.2073, 770.6771
979.6895, 778.1702
980.1716, 783.9045
980.6537, 787.4476
981.1358, 787.7910
981.6179, 784.3677
982.1000, 784.7028
982.5822, 789.2930
983.0643, 791.3649
983.5464, 780.3671
984.0285, 767.6116
984.5106, 770.0236
984.9927, 784.9938
985.4749, 792.6224
985.9570, 775.0044
986.4391, 765.0405
986.9212, 773.5031
987.4033, 792.4790
987.8854, 802.4315
988.3676, 803.8797
988.8497, 800.2742
989.3318, 789.3385
989.8139, 781.5766
990.2960, 793.4252
990.7781, 810.8677
991.2603, 814.3290
991.7424, 785.5612
992.2245, 775.4155
992.7066, 789.5297
993.1887, 810.3514
993.6708, 826.3170
994.1530, 836.1801
994.6351, 832.1577
995.1172, 815.0507
995.5993, 801.0881
996.0814, 802.3255
996.5635, 807.6731
997.0457, 811.8895
997.5278, 814.7882
998.0099, 816.3311
998.4920, 816.1790
998.9741, 816.1759
999.4562, 816.5701
999.9384, 817.9905
1000.420, 823.2994
1000.903, 830.0741
1001.385, 833.1954
1001.867, 827.0201
1002.349, 823.8943
1002.831, 831.0760
1003.313, 838.7688
1003.795, 836.7342
1004.277, 824.4328
1004.760, 819.2106
1005.242, 822.0920
1005.724, 825.0487
1006.206, 817.7583
1006.688, 810.2410
1007.170, 815.2293
1007.652, 832.3212
1008.134, 839.8141
1008.616, 829.7195
1009.099, 820.8099
1009.581, 818.5726
1010.063, 821.1252
1010.545, 823.5908
1011.027, 826.5091
1011.509, 832.3278
1011.991, 844.1368
1012.473, 854.6740
1012.955, 858.1237
1013.438, 858.9976
1013.920, 863.4828
1014.402, 874.7706
1014.884, 877.4266
1015.366, 869.1301
1015.848, 862.1754
1016.330, 870.6705
1016.812, 886.2427
1017.294, 894.8089
1017.777, 896.3261
1018.259, 897.8186
1018.741, 906.7147
1019.223, 909.5704
1019.705, 897.4391
1020.187, 878.4371
1020.669, 880.4755
1021.151, 902.0505
1021.634, 921.9943
1022.116, 934.7030
1022.598, 941.5035
1023.080, 937.8524
1023.562, 931.6241
1024.044, 933.2723
1024.526, 950.3445
1025.008, 961.5317
1025.490, 965.3019
1025.973, 967.3546
1026.455, 971.4946
1026.937, 977.5909
1027.419, 987.4964
1027.901, 1000.276
1028.383, 1007.881
1028.865, 1000.119
1029.347, 993.1817
1029.830, 995.9418
1030.312, 1004.223
1030.794, 1006.976
1031.276, 1003.494
1031.758, 1004.664
1032.240, 1013.704
1032.722, 1025.758
1033.204, 1039.302
1033.687, 1050.604
1034.169, 1053.257
1034.651, 1040.354
1035.133, 1038.772
1035.615, 1057.978
1036.097, 1075.094
1036.579, 1072.163
1037.061, 1055.465
1037.543, 1056.683
1038.026, 1073.083
1038.508, 1088.364
1038.990, 1097.578
1039.472, 1099.299
1039.954, 1084.091
1040.436, 1063.559
1040.918, 1062.606
1041.400, 1085.825
1041.882, 1104.032
1042.365, 1113.227
1042.847, 1116.956
1043.329, 1116.231
1043.811, 1114.178
1044.293, 1116.575
1044.775, 1125.406
1045.257, 1126.609
1045.739, 1110.841
1046.222, 1097.484
1046.704, 1095.681
1047.186, 1102.476
1047.668, 1108.264
1048.150, 1112.769
1048.632, 1114.286
1049.114, 1109.836
1049.596, 1105.074
1050.078, 1101.305
1050.561, 1100.102
1051.043, 1104.175
1051.525, 1115.967
1052.007, 1122.857
1052.489, 1124.024
1052.971, 1121.262
1053.453, 1111.118
1053.935, 1100.916
1054.417, 1103.771
1054.900, 1118.839
1055.382, 1127.532
1055.864, 1119.960
1056.346, 1112.302
1056.828, 1109.451
1057.310, 1108.209
1057.792, 1097.168
1058.274, 1080.198
1058.757, 1073.944
1059.239, 1085.822
1059.721, 1101.300
1060.203, 1117.162
1060.685, 1128.642
1061.167, 1130.157
1061.649, 1119.566
1062.131, 1115.835
1062.614, 1119.599
1063.096, 1123.338
1063.578, 1119.537
1064.060, 1114.680
1064.542, 1118.647
1065.024, 1128.593
1065.506, 1135.508
1065.988, 1136.449
1066.470, 1135.130
1066.953, 1132.014
1067.435, 1126.615
1067.917, 1115.673
1068.399, 1101.895
1068.881, 1095.107
1069.363, 1096.794
1069.845, 1100.851
1070.327, 1105.398
1070.809, 1109.827
1071.292, 1113.930
1071.774, 1117.595
1072.256, 1121.038
1072.738, 1124.302
1073.220, 1123.699
1073.702, 1116.018
1074.184, 1107.320
1074.666, 1104.237
1075.148, 1104.141
1075.631, 1103.270
1076.113, 1099.286
1076.595, 1098.849
1077.077, 1103.478
1077.559, 1107.576
1078.041, 1105.626
1078.523, 1100.209
1079.005, 1094.534
1079.488, 1090.007
1079.970, 1093.084
1080.452, 1121.483
1080.934, 1138.664
1081.416, 1130.389
1081.898, 1109.848
1082.380, 1099.876
1082.862, 1099.715
1083.344, 1101.764
1083.827, 1104.831
1084.309, 1109.241
1084.791, 1117.518
1085.273, 1125.427
1085.755, 1128.573
1086.237, 1126.998
1086.719, 1129.447
1087.201, 1137.828
1087.683, 1138.174
1088.166, 1119.535
1088.648, 1097.606
1089.130, 1094.645
1089.612, 1104.444
1090.094, 1116.683
1090.576, 1135.713
1091.058, 1142.956
1091.540, 1133.345
1092.023, 1119.945
1092.505, 1110.278
1092.987, 1105.526
1093.469, 1114.787
1093.951, 1135.214
1094.433, 1148.844
1094.915, 1137.213
1095.397, 1127.473
1095.880, 1131.698
1096.362, 1142.945
1096.844, 1151.481
1097.326, 1157.162
1097.808, 1152.960
1098.290, 1136.244
1098.772, 1122.983
1099.254, 1132.449
1099.736, 1146.807
1100.219, 1149.657
1100.701, 1140.091
1101.183, 1137.527
1101.665, 1143.689
1102.147, 1148.717
1102.629, 1147.958
1103.111, 1146.035
1103.593, 1152.617
1104.075, 1161.802
1104.558, 1163.333
1105.040, 1150.016
1105.522, 1139.727
1106.004, 1134.085
1106.486, 1131.135
1106.968, 1129.935
1107.450, 1130.212
1107.932, 1131.825
1108.415, 1134.213
1108.897, 1134.844
1109.379, 1131.594
1109.861, 1127.411
1110.343, 1121.767
1110.825, 1116.908
1111.307, 1116.692
1111.789, 1120.813
1112.271, 1122.440
1112.754, 1120.891
1113.236, 1117.429
1113.718, 1108.638
1114.200, 1102.036
1114.682, 1105.611
1115.164, 1116.937
1115.646, 1122.379
1116.128, 1121.500
1116.610, 1116.905
1117.093, 1108.160
1117.575, 1099.052
1118.057, 1092.890
1118.539, 1089.571
1119.021, 1079.837
1119.503, 1089.034
1119.985, 1093.512
1120.467, 1093.525
1120.950, 1075.696
1121.432, 1080.905
1121.914, 1076.883
1122.396, 1070.759
1122.878, 1073.664
1123.360, 1076.569
1123.842, 1077.221
1124.324, 1074.102
1124.807, 1063.578
1125.289, 1054.349
1125.771, 1056.549
1126.253, 1067.100
1126.735, 1066.973
1127.217, 1057.418
1127.699, 1052.011
1128.181, 1064.644
1128.663, 1076.076
1129.146, 1076.610
1129.628, 1071.313
1130.110, 1068.894
1130.592, 1069.219
1131.074, 1061.965
1131.556, 1045.112
1132.038, 1031.285
1132.520, 1032.932
1133.002, 1020.456
1133.485, 1030.553
1133.967, 1035.934
1134.449, 1036.850
1134.931, 1019.927
1135.413, 1026.038
1135.895, 1022.919
1136.377, 1019.421
1136.859, 1028.775
1137.342, 1014.445
1137.824, 1023.595
1138.306, 1023.372
1138.788, 1027.440
1139.270, 1022.218
1139.752, 1019.866
1140.234, 1026.805
1140.716, 1028.599
1141.198, 1022.309
1141.681, 1026.647
1142.163, 1033.324
1142.645, 1037.757
1143.127, 1037.415
1143.609, 1028.885
1144.091, 1021.781
1144.573, 1028.354
1145.055, 1042.069
1145.537, 1038.149
1146.020, 1019.852
1146.502, 1005.958
1146.984, 1005.112
1147.466, 1010.281
1147.948, 1022.567
1148.430, 1036.190
1148.912, 1044.412
1149.394, 1047.202
1149.877, 1042.703
1150.359, 1030.971
1150.841, 1021.782
1151.323, 1022.685
1151.805, 1026.500
1152.287, 1031.752
1152.769, 1036.287
1153.251, 1030.648
1153.734, 1015.549
1154.216, 1016.116
1154.698, 1040.286
1155.180, 1065.419
1155.662, 1071.865
1156.144, 1072.595
1156.626, 1081.321
1157.108, 1096.689
1157.590, 1094.456
1158.073, 1073.322
1158.555, 1053.282
1159.037, 1038.339
1159.519, 1034.614
1160.001, 1061.396
1160.483, 1096.317
1160.965, 1108.938
1161.447, 1090.061
1161.929, 1085.154
1162.412, 1097.219
1162.894, 1106.016
1163.376, 1094.684
1163.858, 1078.616
1164.340, 1080.282
1164.822, 1092.112
1165.304, 1098.896
1165.786, 1091.831
1166.269, 1091.778
1166.751, 1100.520
1167.233, 1111.727
1167.715, 1124.656
1168.197, 1134.203
1168.679, 1126.242
1169.161, 1105.953
1169.643, 1094.190
1170.125, 1103.605
1170.608, 1111.917
1171.090, 1116.275
1171.572, 1120.264
1172.054, 1129.908
1172.536, 1141.853
1173.018, 1146.461
1173.500, 1144.125
1173.982, 1148.531
1174.464, 1175.055
1174.947, 1194.925
1175.429, 1200.041
1175.911, 1197.214
1176.393, 1198.325
1176.875, 1201.432
1177.357, 1199.315
1177.839, 1189.980
1178.321, 1186.665
1178.804, 1202.990
1179.286, 1217.103
1179.768, 1219.887
1180.250, 1215.233
1180.732, 1212.216
1181.214, 1210.989
1181.696, 1212.168
1182.178, 1216.158
1182.661, 1221.703
1183.143, 1230.103
1183.625, 1237.879
1184.107, 1243.034
1184.589, 1245.855
1185.071, 1248.062
1185.553, 1249.484
1186.035, 1248.829
1186.517, 1243.678
1187.000, 1239.987
1187.482, 1241.573
1187.964, 1245.170
1188.446, 1249.345
1188.928, 1253.913
1189.410, 1248.545
1189.892, 1235.026
1190.374, 1230.531
1190.856, 1249.786
1191.339, 1274.179
1191.821, 1304.860
1192.303, 1328.427
1192.785, 1324.846
1193.267, 1292.845
1193.749, 1279.440
1194.231, 1285.391
1194.713, 1294.259
1195.195, 1295.292
1195.678, 1295.924
1196.160, 1302.658
1196.642, 1311.015
1197.124, 1311.442
1197.606, 1303.215
1198.088, 1306.322
1198.570, 1322.747
1199.052, 1336.767
1199.535, 1330.242
1200.017, 1322.960
1200.499, 1330.905
1200.981, 1348.381
1201.463, 1360.285
1201.945, 1366.599
1202.427, 1368.798
1202.909, 1366.802
1203.391, 1364.050
1203.874, 1365.671
1204.356, 1365.826
1204.838, 1356.087
1205.320, 1340.484
1205.802, 1336.831
1206.284, 1345.579
1206.766, 1357.389
1207.248, 1371.422
1207.730, 1381.733
1208.213, 1377.817
1208.695, 1371.990
1209.177, 1378.375
1209.659, 1394.579
1210.141, 1394.926
1210.623, 1378.256
1211.105, 1377.436
1211.587, 1408.808
1212.070, 1440.673
1212.552, 1440.939
1213.034, 1428.503
1213.516, 1419.299
1213.998, 1414.076
1214.480, 1420.621
1214.962, 1439.650
1215.444, 1449.273
1215.927, 1435.242
1216.409, 1419.297
1216.891, 1421.184
1217.373, 1431.254
1217.855, 1439.965
1218.337, 1447.264
1218.819, 1445.068
1219.301, 1432.983
1219.783, 1428.507
1220.266, 1444.247
1220.748, 1465.592
1221.230, 1486.103
1221.712, 1501.816
1222.194, 1506.323
1222.676, 1496.812
1223.158, 1499.801
1223.640, 1515.491
1224.122, 1523.733
1224.605, 1499.766
1225.087, 1476.497
1225.569, 1479.324
1226.051, 1498.094
1226.533, 1518.167
1227.015, 1540.894
1227.497, 1548.575
1227.979, 1540.807
1228.462, 1534.944
1228.944, 1547.103
1229.426, 1560.898
1229.908, 1564.482
1230.390, 1562.748
1230.872, 1563.441
1231.354, 1566.333
1231.836, 1576.961
1232.318, 1595.679
1232.801, 1613.190
1233.283, 1619.672
1233.765, 1626.432
1234.247, 1646.092
1234.729, 1668.265
1235.211, 1671.811
1235.693, 1656.787
1236.175, 1650.939
1236.657, 1656.697
1237.140, 1667.583
1237.622, 1683.020
1238.104, 1697.973
1238.586, 1709.137
1239.068, 1718.329
1239.550, 1730.038
1240.032, 1743.729
1240.514, 1746.567
1240.997, 1736.955
1241.479, 1735.349
1241.961, 1766.135
1242.443, 1796.097
1242.925, 1806.974
1243.407, 1807.199
1243.889, 1814.287
1244.371, 1826.940
1244.854, 1834.269
1245.336, 1834.328
##END=



