##NAMES=Hematite
##RRUFFID=R060190
##IDEAL CHEMISTRY=Fe^3+^_2_O_3_
##LOCALITY=Florence mine, Egremont, Cumbria, England
##OWNER=RRUFF
##SOURCE=Lloyd Twaites
##DESCRIPTION=Red tinged, steel-gray fragment of a botryoidal mass
##STATUS=The identification of this mineral has been confirmed by X-ray diffraction and chemical analysis
##URL=rruff.info/R060190
##MEASURED CHEMISTRY=Fe_2.00_O_3_
91.93750, 12.20331
92.41962, 12.56233
92.90173, 12.24325
93.38385, 11.44803
93.86597, 10.87584
94.34808, 11.25975
94.83020, 12.16014
95.31232, 12.27718
95.79443, 11.25297
96.27655, 9.926589
96.75867, 9.939027
97.24078, 11.29822
97.72290, 12.55925
98.20502, 12.54641
98.68713, 11.32890
99.16925, 10.36641
99.65137, 9.920362
100.1335, 9.856792
100.6156, 9.683781
101.0977, 9.357679
101.5798, 9.047743
102.0620, 8.939850
102.5441, 9.117583
103.0262, 9.163494
103.5083, 8.952932
103.9904, 8.488458
104.4725, 8.095609
104.9546, 7.673648
105.4368, 7.427503
105.9189, 7.668643
106.4010, 8.884537
106.8831, 9.829480
107.3652, 10.16128
107.8473, 9.679493
108.3295, 9.274232
108.8116, 8.964618
109.2937, 8.725947
109.7758, 8.509586
110.2579, 8.494526
110.7400, 8.350381
111.2222, 7.933455
111.7043, 6.867993
112.1864, 6.185403
112.6685, 6.027878
113.1506, 6.302027
113.6327, 6.763492
114.1149, 7.722501
114.5970, 8.632006
115.0791, 9.210855
115.5612, 9.449757
116.0433, 9.318861
116.5254, 8.519491
117.0076, 7.222987
117.4897, 6.227601
117.9718, 5.936707
118.4539, 6.012055
118.9360, 6.170084
119.4181, 6.294393
119.9003, 6.504961
120.3824, 6.984555
120.8645, 7.698097
121.3466, 8.232533
121.8287, 8.315279
122.3108, 8.070375
122.7930, 7.663143
123.2751, 6.993953
123.7572, 6.290808
124.2393, 5.645738
124.7214, 5.042644
125.2035, 4.816607
125.6857, 5.587494
126.1678, 6.992109
126.6499, 8.171793
127.1320, 8.508905
127.6141, 8.398831
128.0962, 8.504732
128.5784, 8.916390
129.0605, 9.341317
129.5426, 9.222396
130.0247, 8.688114
130.5068, 8.467523
130.9889, 9.446421
131.4711, 11.16204
131.9532, 11.88654
132.4353, 11.19268
132.9174, 9.905178
133.3995, 9.679926
133.8816, 10.53986
134.3638, 11.37266
134.8459, 11.05195
135.3280, 9.641266
135.8101, 9.386961
136.2922, 10.97455
136.7743, 13.64659
137.2565, 14.79520
137.7386, 14.09428
138.2207, 13.20047
138.7028, 13.62894
139.1849, 15.68190
139.6670, 17.24142
140.1492, 17.94209
140.6313, 17.84435
141.1134, 17.40434
141.5955, 16.48356
142.0776, 15.46194
142.5597, 14.64524
143.0419, 13.96244
143.5240, 13.70717
144.0061, 14.13254
144.4882, 15.31125
144.9703, 15.82950
145.4524, 15.26956
145.9346, 14.40134
146.4167, 14.10702
146.8988, 14.75660
147.3809, 15.45307
147.8630, 16.01438
148.3451, 16.45599
148.8273, 16.72975
149.3094, 16.76542
149.7915, 16.65872
150.2736, 16.54031
150.7557, 16.12138
151.2378, 15.96442
151.7200, 15.84794
152.2021, 16.43015
152.6842, 16.80501
153.1663, 16.98364
153.6484, 16.37837
154.1305, 16.78535
154.6127, 16.78669
155.0948, 16.77137
155.5769, 17.32083
156.0590, 16.82957
156.5411, 17.37007
157.0232, 17.49870
157.5054, 17.81586
157.9875, 17.72483
158.4696, 17.75986
158.9517, 18.20320
159.4338, 18.42046
159.9159, 18.28244
160.3981, 18.52452
160.8802, 18.12942
161.3623, 17.21398
161.8444, 16.70239
162.3265, 17.33550
162.8086, 18.22122
163.2908, 18.76899
163.7729, 18.74668
164.2550, 18.50394
164.7371, 18.05025
165.2192, 17.45519
165.7013, 16.99825
166.1834, 16.92915
166.6656, 16.99957
167.1477, 16.98001
167.6298, 16.60885
168.1119, 16.33901
168.5940, 16.60738
169.0761, 17.31128
169.5583, 17.82798
170.0404, 17.49746
170.5225, 16.86123
171.0046, 16.57805
171.4867, 17.27320
171.9688, 18.07215
172.4510, 18.13779
172.9331, 17.53407
173.4152, 16.98382
173.8973, 17.19291
174.3794, 17.77256
174.8615, 18.10606
175.3437, 17.79892
175.8258, 17.22750
176.3079, 16.77388
176.7900, 16.43216
177.2721, 16.25106
177.7542, 16.40523
178.2364, 16.75576
178.7185, 16.99721
179.2006, 16.86392
179.6827, 16.59508
180.1648, 16.64583
180.6469, 17.03500
181.1291, 17.01185
181.6112, 17.54252
182.0933, 17.86584
182.5754, 17.99293
183.0575, 17.33611
183.5396, 17.69155
184.0218, 17.64134
184.5039, 17.57448
184.9860, 18.07239
185.4681, 17.52959
185.9502, 18.01854
186.4323, 18.09564
186.9145, 18.36125
187.3966, 17.89187
187.8787, 17.78321
188.3608, 17.40884
188.8429, 17.86745
189.3250, 18.11870
189.8072, 18.17373
190.2893, 17.44485
190.7714, 17.72824
191.2535, 17.60595
191.7356, 17.46703
192.2177, 17.89288
192.6999, 17.27801
193.1820, 17.69491
193.6641, 17.69994
194.1462, 17.89348
194.6283, 17.27491
195.1104, 17.82297
195.5926, 18.16368
196.0747, 18.30816
196.5568, 17.66873
197.0389, 18.04156
197.5210, 18.00871
198.0031, 17.95924
198.4853, 18.47455
198.9674, 17.11156
199.4495, 16.60581
199.9316, 16.97202
200.4137, 17.74122
200.8958, 18.07178
201.3780, 17.92597
201.8601, 17.61449
202.3422, 17.13604
202.8243, 16.44223
203.3064, 16.30465
203.7885, 16.89098
204.2707, 17.85196
204.7528, 18.46260
205.2349, 18.62674
205.7170, 18.80556
206.1991, 19.17676
206.6812, 19.73210
207.1634, 20.56916
207.6455, 21.77090
208.1276, 23.16301
208.6097, 24.40395
209.0918, 25.48706
209.5739, 26.40351
210.0561, 27.14968
210.5382, 27.72855
211.0203, 28.07486
211.5024, 28.03992
211.9845, 27.88318
212.4666, 28.28508
212.9488, 29.50923
213.4309, 30.60370
213.9130, 31.06304
214.3951, 30.65561
214.8772, 30.45762
215.3593, 30.44539
215.8414, 30.66570
216.3236, 31.28574
216.8057, 32.46692
217.2878, 33.69176
217.7699, 34.70052
218.2520, 35.32719
218.7341, 36.25564
219.2163, 37.57274
219.6984, 39.14338
220.1805, 40.69202
220.6626, 42.18956
221.1447, 43.73083
221.6268, 45.34963
222.1090, 46.94062
222.5911, 48.91259
223.0732, 51.48575
223.5553, 54.33077
224.0374, 56.79475
224.5195, 58.82777
225.0017, 60.54364
225.4838, 62.08361
225.9659, 63.88808
226.4480, 64.30444
226.9301, 63.09640
227.4122, 60.61707
227.8944, 57.53677
228.3765, 53.52321
228.8586, 49.39893
229.3407, 45.40072
229.8228, 41.40117
230.3049, 37.90283
230.7871, 34.80193
231.2692, 32.28020
231.7513, 30.79038
232.2334, 30.98498
232.7155, 31.18393
233.1976, 30.67352
233.6798, 29.00336
234.1619, 28.07010
234.6440, 28.21907
235.1261, 28.92459
235.6082, 29.17947
236.0903, 28.68159
236.5725, 28.21797
237.0546, 28.06553
237.5367, 28.31605
238.0188, 28.55002
238.5009, 28.65850
238.9830, 28.81159
239.4652, 29.31938
239.9473, 30.37576
240.4294, 31.48554
240.9115, 32.51085
241.3936, 33.43637
241.8757, 34.31332
242.3579, 35.20257
242.8400, 36.00533
243.3221, 36.55146
243.8042, 36.71292
244.2863, 36.84562
244.7684, 37.12348
245.2506, 37.66724
245.7327, 37.73071
246.2148, 37.20338
246.6969, 36.28907
247.1790, 35.27472
247.6611, 34.28542
248.1433, 32.95833
248.6254, 31.05378
249.1075, 28.40127
249.5896, 26.29323
250.0717, 24.87625
250.5538, 23.85391
251.0360, 22.84344
251.5181, 21.74235
252.0002, 20.48071
252.4823, 20.46556
252.9644, 20.28534
253.4465, 19.95120
253.9287, 18.87537
254.4108, 18.85416
254.8929, 18.46958
255.3750, 18.11065
255.8571, 18.35879
256.3392, 17.60851
256.8214, 17.93225
257.3035, 17.88646
257.7856, 18.07146
258.2677, 17.89057
258.7498, 17.87804
259.2319, 18.31611
259.7141, 17.29302
260.1962, 17.66798
260.6783, 17.64632
261.1604, 17.82839
261.6425, 17.61751
262.1246, 17.54793
262.6068, 17.90189
263.0889, 18.04499
263.5710, 17.84804
264.0531, 18.13346
264.5352, 17.59948
265.0173, 17.81313
265.4995, 18.35803
265.9816, 18.25775
266.4637, 18.62679
266.9458, 18.83811
267.4279, 18.27872
267.9100, 18.77271
268.3922, 19.29972
268.8743, 19.72134
269.3564, 20.00948
269.8385, 20.27062
270.3206, 20.53757
270.8027, 20.76650
271.2849, 21.25090
271.7670, 22.17212
272.2491, 23.27434
272.7312, 23.74426
273.2133, 23.37646
273.6954, 23.03608
274.1776, 23.27387
274.6597, 24.19390
275.1418, 24.84221
275.6239, 25.06767
276.1060, 25.11393
276.5881, 25.50858
277.0703, 26.29880
277.5524, 27.20337
278.0345, 28.08700
278.5166, 28.95176
278.9987, 29.87136
279.4808, 30.91681
279.9630, 31.89268
280.4451, 32.35344
280.9272, 32.22131
281.4093, 32.26810
281.8914, 32.86591
282.3735, 33.98627
282.8557, 35.09509
283.3378, 36.19015
283.8199, 37.27920
284.3020, 38.36604
284.7841, 39.45007
285.2662, 40.54776
285.7484, 41.62156
286.2305, 42.69993
286.7126, 44.07388
287.1947, 45.80434
287.6768, 47.53056
288.1589, 48.77836
288.6411, 49.59228
289.1232, 50.44215
289.6053, 51.52362
290.0874, 52.70960
290.5695, 53.70028
291.0516, 54.50294
291.5338, 55.04559
292.0159, 55.24578
292.4980, 55.12636
292.9801, 54.82020
293.4622, 54.38877
293.9443, 53.75033
294.4265, 52.63906
294.9086, 51.07002
295.3907, 49.38646
295.8728, 47.75604
296.3549, 46.21645
296.8370, 44.91869
297.3192, 43.94409
297.8013, 43.13975
298.2834, 42.31987
298.7655, 41.49450
299.2476, 40.69507
299.7297, 39.99874
300.2119, 39.33921
300.6940, 38.57728
301.1761, 37.70592
301.6582, 36.71596
302.1403, 35.49665
302.6224, 34.12711
303.1046, 32.81321
303.5867, 31.67156
304.0688, 30.65600
304.5509, 29.74951
305.0330, 28.95097
305.5151, 28.18131
305.9973, 27.36938
306.4794, 26.53147
306.9615, 25.70396
307.4436, 24.92434
307.9257, 24.14346
308.4078, 23.20197
308.8900, 22.10520
309.3721, 21.22886
309.8542, 20.95236
310.3363, 21.02570
310.8184, 21.12082
311.3005, 21.27503
311.7827, 21.28506
312.2648, 20.94015
312.7469, 20.28301
313.2290, 19.60571
313.7111, 19.09750
314.1932, 18.64113
314.6754, 18.10378
315.1575, 17.25119
315.6396, 16.59449
316.1217, 16.54263
316.6038, 16.92122
317.0859, 17.19606
317.5681, 17.03840
318.0502, 16.76604
318.5323, 16.58537
319.0144, 16.56856
319.4965, 16.56252
319.9786, 16.57145
320.4608, 16.55212
320.9429, 16.42528
321.4250, 15.96953
321.9071, 15.56620
322.3892, 15.39489
322.8713, 15.52299
323.3535, 15.67688
323.8356, 15.89662
324.3177, 16.08199
324.7998, 16.11431
325.2819, 15.71111
325.7640, 15.41069
326.2462, 15.47326
326.7283, 15.95202
327.2104, 16.11279
327.6925, 15.51528
328.1746, 14.79524
328.6567, 14.44614
329.1389, 15.01793
329.6210, 15.32645
330.1031, 14.99448
330.5852, 14.15994
331.0673, 14.00106
331.5494, 15.28139
332.0316, 16.51104
332.5137, 16.83382
332.9958, 15.47928
333.4779, 14.60329
333.9600, 14.38298
334.4421, 14.65853
334.9243, 15.03873
335.4064, 15.69182
335.8885, 16.17104
336.3706, 16.27104
336.8527, 15.92174
337.3348, 15.43947
337.8170, 14.67582
338.2991, 13.93985
338.7812, 13.80924
339.2633, 14.52612
339.7454, 14.99531
340.2275, 14.72603
340.7096, 13.75885
341.1917, 13.42363
341.6739, 13.90789
342.1560, 14.52721
342.6381, 14.45081
343.1202, 13.62019
343.6023, 13.21168
344.0844, 13.65800
344.5666, 14.62683
345.0487, 14.92209
345.5308, 14.48371
346.0129, 14.02410
346.4950, 14.19907
346.9771, 14.88870
347.4593, 15.32812
347.9414, 15.39850
348.4235, 15.21727
348.9056, 14.90367
349.3877, 14.47546
349.8698, 14.07800
350.3520, 13.66074
350.8341, 13.34879
351.3162, 13.56405
351.7983, 14.40744
352.2804, 15.24991
352.7625, 15.24174
353.2447, 14.67342
353.7268, 14.29939
354.2089, 14.76558
354.6910, 15.43336
355.1731, 15.47694
355.6552, 14.91928
356.1374, 14.29770
356.6195, 13.93779
357.1016, 13.76314
357.5837, 13.66681
358.0658, 13.60064
358.5479, 13.62535
359.0301, 13.84697
359.5122, 14.21313
359.9943, 14.53752
360.4764, 14.77098
360.9585, 14.90005
361.4406, 14.87981
361.9228, 14.61512
362.4049, 14.43182
362.8870, 14.45652
363.3691, 14.64880
363.8512, 14.94137
364.3333, 15.65127
364.8155, 16.16388
365.2976, 16.10181
365.7797, 15.32491
366.2618, 14.80300
366.7439, 14.92796
367.2260, 15.29065
367.7082, 15.51453
368.1903, 15.34297
368.6724, 15.26186
369.1545, 15.43008
369.6366, 15.81842
370.1187, 16.01987
370.6009, 15.92041
371.0830, 15.73423
371.5651, 15.55386
372.0472, 15.25080
372.5293, 15.18686
373.0114, 15.47790
373.4936, 15.97662
373.9757, 16.33601
374.4578, 16.48432
374.9399, 16.62664
375.4220, 16.89684
375.9041, 17.36007
376.3863, 17.41968
376.8684, 16.93047
377.3505, 16.26948
377.8326, 15.89279
378.3147, 15.84244
378.7968, 15.83542
379.2790, 15.79550
379.7611, 15.74470
380.2432, 15.76921
380.7253, 15.86573
381.2074, 16.05714
381.6895, 16.41691
382.1717, 16.91710
382.6538, 17.34699
383.1359, 17.69625
383.6180, 17.93203
384.1001, 17.92125
384.5822, 17.70306
385.0644, 17.55978
385.5465, 17.73086
386.0286, 18.06864
386.5107, 18.24517
386.9928, 18.22319
387.4749, 18.26182
387.9571, 18.70823
388.4392, 19.38730
388.9213, 19.96173
389.4034, 20.18470
389.8855, 20.33258
390.3676, 20.61692
390.8498, 21.04049
391.3319, 21.60646
391.8140, 22.48691
392.2961, 23.42192
392.7782, 24.16149
393.2603, 24.53856
393.7425, 24.92202
394.2246, 25.53070
394.7067, 26.26423
395.1888, 26.93195
395.6709, 27.16697
396.1530, 27.56838
396.6352, 28.55857
397.1173, 30.32712
397.5994, 31.71525
398.0815, 32.09382
398.5636, 32.16097
399.0457, 32.57428
399.5279, 33.79900
400.0100, 34.91893
400.4921, 35.71317
400.9742, 36.24401
401.4563, 37.02835
401.9384, 38.25417
402.4206, 39.51765
402.9027, 40.59035
403.3848, 41.28396
403.8669, 42.24086
404.3490, 43.61084
404.8311, 45.14277
405.3133, 46.37524
405.7954, 47.27146
406.2775, 47.97176
406.7596, 48.42002
407.2417, 48.64286
407.7238, 49.37160
408.2060, 50.77496
408.6881, 52.11858
409.1702, 52.61727
409.6523, 52.29218
410.1344, 51.86498
410.6165, 51.46347
411.0987, 51.04814
411.5808, 50.59569
412.0629, 50.09377
412.5450, 49.40468
413.0271, 48.48779
413.5092, 47.31273
413.9914, 45.68979
414.4735, 43.52141
414.9556, 41.38261
415.4377, 39.94154
415.9198, 38.93333
416.4019, 37.78118
416.8841, 36.10586
417.3662, 34.28033
417.8483, 32.60710
418.3304, 31.07804
418.8125, 29.57681
419.2946, 28.00183
419.7768, 26.45985
420.2589, 25.03540
420.7410, 23.61286
421.2231, 22.53589
421.7052, 22.15088
422.1873, 22.17886
422.6695, 22.09731
423.1516, 21.74351
423.6337, 21.28491
424.1158, 20.73529
424.5979, 20.06735
425.0800, 19.51904
425.5622, 19.22096
426.0443, 18.99033
426.5264, 18.68412
427.0085, 18.22797
427.4906, 17.80860
427.9727, 17.42883
428.4549, 17.09952
428.9370, 16.86409
429.4191, 16.73374
429.9012, 16.67487
430.3833, 16.75108
430.8654, 17.03854
431.3476, 16.85220
431.8297, 16.02426
432.3118, 15.04406
432.7939, 14.55874
433.2760, 14.58303
433.7581, 14.73728
434.2403, 14.97212
434.7224, 15.23074
435.2045, 15.30405
435.6866, 15.19282
436.1687, 15.10994
436.6508, 15.30065
437.1330, 15.63820
437.6151, 15.78694
438.0972, 15.68857
438.5793, 15.46539
439.0614, 15.17023
439.5435, 14.84791
440.0256, 14.60170
440.5078, 14.52159
440.9899, 14.50824
441.4720, 14.55815
441.9541, 14.65127
442.4362, 14.55336
442.9183, 13.85259
443.4005, 13.05838
443.8826, 12.61890
444.3647, 12.82138
444.8468, 13.08158
445.3289, 13.19965
445.8110, 13.24600
446.2932, 13.36404
446.7753, 13.75967
447.2574, 14.06349
447.7395, 14.10710
448.2216, 13.82864
448.7037, 13.66128
449.1859, 13.68260
449.6680, 13.75431
450.1501, 13.77019
450.6322, 13.71744
451.1143, 13.63332
451.5964, 13.50653
452.0786, 13.35698
452.5607, 13.22764
453.0428, 13.09969
453.5249, 13.06079
454.0070, 13.19871
454.4891, 13.50496
454.9713, 13.71176
455.4534, 13.82137
455.9355, 13.81520
456.4176, 13.57285
456.8997, 13.15111
457.3818, 12.91334
457.8640, 13.02441
458.3461, 13.27599
458.8282, 13.32520
459.3103, 13.20646
459.7924, 13.09431
460.2745, 13.11480
460.7567, 13.19348
461.2388, 13.20796
461.7209, 13.13349
462.2030, 13.13906
462.6851, 13.51884
463.1672, 13.98990
463.6494, 14.19610
464.1315, 13.62303
464.6136, 13.15339
465.0957, 13.23831
465.5778, 13.75570
466.0599, 14.19316
466.5421, 14.41433
467.0242, 14.53229
467.5063, 14.59920
467.9884, 14.63959
468.4705, 14.57148
468.9526, 14.30706
469.4348, 13.98336
469.9169, 13.73154
470.3990, 13.50357
470.8811, 13.45865
471.3632, 13.73746
471.8453, 14.22988
472.3275, 14.26828
472.8096, 13.66120
473.2917, 13.18252
473.7738, 13.44577
474.2559, 14.44131
474.7380, 14.92338
475.2202, 14.78670
475.7023, 14.38298
476.1844, 14.04097
476.6665, 13.78606
477.1486, 13.78608
477.6307, 14.21502
478.1129, 14.80819
478.5950, 15.17612
479.0771, 15.33842
479.5592, 15.40324
480.0413, 15.33992
480.5234, 15.26809
481.0056, 15.32521
481.4877, 15.53801
481.9698, 15.81498
482.4519, 16.12596
482.9340, 16.46284
483.4161, 16.81709
483.8983, 17.27710
484.3804, 17.65564
484.8625, 17.85984
485.3446, 17.91717
485.8267, 17.98266
486.3088, 18.12469
486.7910, 18.23658
487.2731, 18.23240
487.7552, 17.97525
488.2373, 18.05091
488.7194, 18.68341
489.2015, 19.44677
489.6837, 19.87149
490.1658, 19.87653
490.6479, 19.77827
491.1300, 19.57028
491.6121, 19.32734
492.0942, 19.26917
492.5764, 19.39369
493.0585, 19.72394
493.5406, 20.50983
494.0227, 21.56150
494.5048, 21.91171
494.9869, 21.46079
495.4691, 20.90912
495.9512, 21.01941
496.4333, 21.58301
496.9154, 22.12967
497.3975, 22.60901
497.8796, 22.91178
498.3618, 22.85282
498.8439, 22.52597
499.3260, 22.19868
499.8081, 21.88484
500.2902, 21.70621
500.7723, 21.81770
501.2545, 22.26804
501.7366, 22.59243
502.2187, 22.55803
502.7008, 22.38977
503.1829, 22.26671
503.6650, 22.51624
504.1472, 22.42070
504.6293, 21.73663
505.1114, 20.72049
505.5935, 19.97061
506.0756, 19.57031
506.5577, 19.28589
507.0399, 19.07398
507.5220, 18.93295
508.0041, 18.73179
508.4862, 18.44771
508.9683, 18.17610
509.4504, 18.00613
509.9326, 17.93159
510.4147, 17.87726
510.8968, 17.84382
511.3789, 17.79952
511.8610, 17.65618
512.3431, 17.44950
512.8253, 17.32106
513.3074, 17.41767
513.7895, 17.57451
514.2716, 17.68911
514.7537, 17.73360
515.2358, 17.50378
515.7180, 16.44238
516.2001, 15.30539
516.6822, 14.81533
517.1643, 15.29995
517.6464, 15.75228
518.1285, 15.83292
518.6107, 15.68733
519.0928, 15.49057
519.5749, 15.11562
520.0570, 14.86841
520.5391, 14.86936
521.0212, 15.05698
521.5034, 15.11753
521.9855, 14.99529
522.4676, 14.83530
522.9497, 14.67195
523.4318, 14.48684
523.9139, 14.47777
524.3961, 14.68518
524.8782, 14.96494
525.3603, 15.25498
525.8424, 15.53616
526.3245, 15.45785
526.8066, 14.81438
527.2888, 14.02658
527.7709, 13.86618
528.2530, 14.20369
528.7351, 14.51007
529.2172, 14.44416
529.6993, 14.23595
530.1815, 14.10335
530.6636, 14.05585
531.1457, 13.69672
531.6278, 14.16275
532.1099, 14.42142
532.5920, 14.48388
533.0742, 13.76242
533.5563, 14.05322
534.0384, 13.93836
534.5205, 13.80686
535.0026, 14.24014
535.4847, 13.63270
535.9669, 14.05701
536.4490, 14.06947
536.9311, 14.27043
537.4132, 14.06322
537.8953, 13.98207
538.3774, 14.30923
538.8596, 14.41031
539.3417, 14.15610
539.8238, 14.36904
540.3059, 13.74735
540.7880, 13.85805
541.2701, 14.28476
541.7523, 14.05108
542.2344, 14.27148
542.7165, 14.26655
543.1986, 14.69209
543.6807, 14.92306
544.1628, 14.97822
544.6450, 14.92858
545.1271, 14.73053
545.6092, 14.49995
546.0913, 14.31397
546.5734, 14.17677
547.0555, 14.09226
547.5377, 14.00859
548.0198, 14.01401
548.5019, 14.20844
548.9840, 14.90199
549.4661, 15.20798
549.9482, 14.67658
550.4304, 13.89265
550.9125, 13.60957
551.3946, 14.14902
551.8767, 14.54197
552.3588, 14.58126
552.8409, 14.35299
553.3231, 14.12653
553.8052, 13.86667
554.2873, 13.80879
554.7694, 14.25417
555.2515, 15.06333
555.7336, 15.37224
556.2158, 15.14280
556.6979, 14.88010
557.1800, 15.23671
557.6621, 15.85719
558.1442, 16.03450
558.6263, 15.49866
559.1085, 14.79668
559.5906, 14.18155
560.0727, 13.72875
560.5548, 13.57497
561.0369, 14.01964
561.5190, 14.53247
562.0012, 14.95213
562.4833, 15.27243
562.9654, 15.48199
563.4475, 15.61296
563.9296, 15.59969
564.4117, 15.35379
564.8939, 14.75889
565.3760, 14.47059
565.8581, 14.56903
566.3402, 14.85689
566.8223, 15.22095
567.3044, 15.68883
567.7866, 15.86892
568.2687, 15.63212
568.7508, 15.22449
569.2329, 15.06983
569.7150, 15.13690
570.1971, 15.23557
570.6793, 15.33513
571.1614, 15.38545
571.6435, 15.25075
572.1256, 14.96846
572.6077, 14.76950
573.0898, 14.90710
573.5720, 15.10444
574.0541, 15.10937
574.5362, 14.83288
575.0183, 14.65545
575.5004, 14.70276
575.9825, 14.90117
576.4647, 15.19076
576.9468, 15.79746
577.4289, 16.16055
577.9110, 16.13428
578.3931, 15.89563
578.8752, 15.81897
579.3574, 15.94963
579.8395, 16.10181
580.3216, 16.22480
580.8037, 16.32302
581.2858, 16.39798
581.7679, 16.44746
582.2501, 16.52555
582.7322, 16.81477
583.2143, 17.13787
583.6964, 16.94896
584.1785, 16.15989
584.6606, 15.53974
585.1428, 15.97610
585.6249, 16.86236
586.1069, 17.40259
586.5891, 17.18773
587.0712, 16.92022
587.5533, 16.82801
588.0354, 16.89057
588.5175, 17.07053
588.9996, 17.63949
589.4818, 18.01130
589.9639, 17.94217
590.4460, 17.51465
590.9281, 17.40640
591.4102, 17.75379
591.8923, 18.14429
592.3745, 18.36009
592.8566, 18.39542
593.3387, 18.50061
593.8208, 18.66931
594.3029, 18.93800
594.7850, 19.46383
595.2672, 20.13210
595.7493, 20.51783
596.2314, 20.45603
596.7135, 20.37219
597.1956, 20.84636
597.6777, 21.59284
598.1599, 22.08672
598.6420, 21.78715
599.1241, 21.48670
599.6062, 21.61384
600.0883, 22.06961
600.5704, 22.46788
601.0526, 22.59562
601.5347, 22.76587
602.0168, 23.14665
602.4989, 23.77040
602.9810, 24.15100
603.4631, 24.13856
603.9453, 24.12739
604.4274, 24.42826
604.9095, 25.07862
605.3916, 25.65419
605.8737, 26.14068
606.3558, 26.53470
606.8380, 26.79258
607.3201, 26.94709
607.8022, 27.13456
608.2843, 27.42186
608.7664, 27.70889
609.2485, 27.72150
609.7307, 28.43353
610.2128, 28.90471
610.6949, 29.14801
611.1770, 28.48098
611.6591, 28.98948
612.1412, 29.02687
612.6234, 29.04499
613.1055, 29.71894
613.5876, 28.09435
614.0697, 27.19769
614.5518, 26.58549
615.0339, 26.14437
615.5161, 25.96854
615.9982, 25.81909
616.4803, 25.41802
616.9624, 24.74503
617.4445, 24.31161
617.9266, 24.24839
618.4088, 24.24640
618.8909, 23.67572
619.3730, 22.74648
619.8551, 22.21505
620.3372, 22.66186
620.8193, 23.26238
621.3015, 23.03596
621.7836, 22.25799
622.2657, 21.75989
622.7478, 22.30552
623.2299, 22.85596
623.7120, 22.83014
624.1942, 22.18623
624.6763, 21.71380
625.1584, 21.62512
625.6405, 21.60578
626.1226, 21.49558
626.6047, 21.24152
627.0869, 21.14862
627.5690, 21.29008
628.0511, 21.43876
628.5332, 21.30495
629.0153, 20.91146
629.4974, 20.63241
629.9796, 20.55594
630.4617, 20.52925
630.9438, 20.24192
631.4259, 19.83734
631.9080, 19.68292
632.3901, 20.20959
632.8723, 20.75919
633.3544, 20.82175
633.8365, 20.52073
634.3186, 20.23877
634.8007, 19.98953
635.2828, 19.89175
635.7650, 20.11336
636.2471, 20.67324
636.7292, 20.85026
637.2113, 20.37152
637.6934, 19.89842
638.1755, 19.81323
638.6577, 20.15783
639.1398, 20.55836
639.6219, 21.05770
640.1040, 21.45522
640.5861, 21.40733
641.0682, 21.05502
641.5504, 20.98623
642.0325, 21.39082
642.5146, 21.79404
642.9967, 21.00111
643.4788, 21.76225
643.9609, 22.28257
644.4431, 22.57509
644.9252, 21.95719
645.4073, 22.51484
645.8894, 22.60139
646.3715, 22.66863
646.8536, 23.39170
647.3358, 22.90628
647.8179, 23.61895
648.3000, 23.85336
648.7821, 24.30667
649.2642, 23.85104
649.7463, 23.72248
650.2285, 24.03662
650.7106, 24.71008
651.1927, 25.05117
651.6748, 25.04145
652.1569, 24.93477
652.6390, 24.96835
653.1212, 24.73418
653.6033, 25.29721
654.0854, 25.61943
654.5675, 25.71379
655.0496, 24.89780
655.5317, 25.25734
656.0139, 25.14578
656.4960, 25.01491
656.9781, 25.53990
657.4602, 24.85632
657.9423, 25.37090
658.4244, 25.40721
658.9066, 25.50651
659.3887, 25.58043
659.8708, 25.36274
660.3529, 24.95067
660.8350, 24.61034
661.3171, 24.34480
661.7993, 24.19809
662.2814, 24.30103
662.7635, 24.49464
663.2456, 24.44887
663.7277, 24.19611
664.2098, 23.99131
664.6920, 24.17920
665.1741, 24.35446
665.6562, 24.11308
666.1383, 23.34003
666.6204, 22.78171
667.1025, 22.82096
667.5847, 22.99265
668.0668, 22.95927
668.5489, 22.50694
669.0310, 22.40101
669.5131, 22.82260
669.9952, 23.31524
670.4774, 23.25319
670.9595, 22.64359
671.4416, 22.17842
671.9237, 22.01681
672.4058, 21.95400
672.8879, 21.61797
673.3701, 21.14266
673.8522, 20.87681
674.3343, 21.21664
674.8164, 21.54226
675.2985, 21.28550
675.7806, 20.66760
676.2628, 20.26722
676.7449, 20.66959
677.2270, 20.90257
677.7091, 20.42550
678.1912, 19.38311
678.6733, 19.03312
679.1555, 19.72241
679.6376, 20.38489
680.1197, 20.42924
680.6018, 19.92705
681.0839, 19.84023
681.5660, 20.19981
682.0482, 20.57183
682.5303, 20.60512
683.0124, 20.40626
683.4945, 20.14125
683.9766, 19.82555
684.4587, 19.53460
684.9409, 19.42765
685.4230, 19.31726
685.9051, 18.99333
686.3872, 18.16712
686.8693, 17.59714
687.3514, 17.49962
687.8336, 17.67907
688.3157, 17.99731
688.7978, 18.61508
689.2799, 18.88314
689.7620, 18.61258
690.2441, 18.10379
690.7263, 17.92167
691.2084, 18.04459
691.6905, 18.24282
692.1726, 18.50730
692.6547, 18.71361
693.1368, 18.57510
693.6190, 18.22178
694.1011, 18.04121
694.5832, 18.54159
695.0653, 18.96984
695.5474, 18.81614
696.0295, 18.15366
696.5117, 17.67316
696.9938, 17.50740
697.4759, 17.51281
697.9580, 17.74338
698.4401, 18.19692
698.9222, 18.19837
699.4044, 17.62503
699.8865, 17.04969
700.3686, 16.97808
700.8507, 17.25050
701.3328, 17.04530
701.8149, 16.30962
702.2971, 15.75444
702.7792, 16.19912
703.2613, 17.07006
703.7434, 17.72244
704.2255, 18.07079
704.7076, 18.11633
705.1898, 17.50414
705.6719, 16.77898
706.1540, 16.47284
706.6361, 16.90667
707.1182, 17.26485
707.6003, 17.56566
708.0825, 17.74539
708.5646, 17.67025
709.0467, 17.32509
709.5288, 17.02961
710.0109, 16.86252
710.4930, 16.73995
710.9752, 16.49784
711.4573, 16.18902
711.9394, 15.96793
712.4215, 15.93269
712.9036, 15.96204
713.3857, 15.94682
713.8679, 15.93291
714.3500, 16.03532
714.8321, 16.47787
715.3142, 16.82665
715.7963, 17.00535
716.2784, 17.00991
716.7606, 16.75189
717.2427, 16.08744
717.7248, 15.62455
718.2069, 15.67838
718.6890, 16.13612
719.1711, 16.63602
719.6533, 17.15603
720.1354, 17.36299
720.6175, 16.62157
721.0996, 15.66862
721.5817, 15.50412
722.0638, 16.14147
722.5460, 16.68330
723.0281, 16.59920
723.5102, 16.38723
723.9923, 16.38432
724.4744, 16.71659
724.9565, 16.78587
725.4387, 16.46125
725.9208, 16.05821
726.4029, 15.78618
726.8850, 15.64775
727.3671, 15.63508
727.8492, 15.75276
728.3314, 15.96929
728.8135, 16.45113
729.2956, 16.97334
729.7777, 16.97854
730.2598, 16.23541
730.7419, 15.49979
731.2241, 15.22777
731.7062, 15.24259
732.1883, 15.35741
732.6704, 15.65646
733.1525, 15.87721
733.6346, 15.95971
734.1168, 15.98610
734.5989, 16.07533
735.0810, 16.24958
735.5631, 16.37544
736.0452, 16.42926
736.5273, 16.43078
737.0095, 16.40175
737.4916, 16.34815
737.9737, 16.29867
738.4558, 16.29029
738.9379, 16.25109
739.4200, 16.05213
739.9022, 15.77879
740.3843, 15.61837
740.8664, 15.59971
741.3485, 15.73742
741.8306, 16.24599
742.3127, 16.91069
742.7949, 17.00878
743.2770, 16.20824
743.7591, 15.78273
744.2412, 16.31858
744.7233, 17.42539
745.2054, 17.76096
745.6876, 17.38425
746.1697, 16.96959
746.6518, 16.97823
747.1339, 17.09101
747.6160, 16.89857
748.0981, 16.46052
748.5803, 16.12477
749.0624, 16.01021
749.5445, 16.05741
750.0266, 16.34407
750.5087, 16.86326
750.9908, 17.06852
751.4730, 16.78328
751.9551, 16.52732
752.4372, 16.60600
752.9193, 16.97433
753.4014, 17.15194
753.8835, 17.13312
754.3657, 16.68225
754.8478, 17.25092
755.3299, 17.57879
755.8120, 17.67879
756.2941, 16.86845
756.7762, 17.23363
757.2584, 17.12772
757.7405, 17.00249
758.2226, 17.53312
758.7047, 16.85518
759.1868, 17.37541
759.6689, 17.41736
760.1511, 17.67821
760.6332, 17.46504
761.1153, 17.39829
761.5974, 17.80569
762.0795, 17.95055
762.5616, 17.68282
763.0438, 17.95758
763.5259, 17.26309
764.0080, 17.21957
764.4901, 16.98698
764.9722, 16.81854
765.4543, 16.71206
765.9365, 16.71595
766.4186, 16.89015
766.9007, 17.43909
767.3828, 17.76806
767.8649, 17.78103
768.3470, 17.69200
768.8292, 17.74205
769.3113, 17.93395
769.7934, 18.03181
770.2755, 17.58499
770.7576, 18.11091
771.2397, 18.39604
771.7219, 18.45328
772.2040, 17.60019
772.6861, 17.92262
773.1682, 17.77395
773.6503, 17.60596
774.1324, 18.09385
774.6146, 17.37315
775.0967, 17.85063
775.5788, 17.72739
776.0609, 17.95691
776.5430, 18.26314
777.0251, 18.30887
777.5073, 18.09183
777.9894, 18.04809
778.4715, 18.28842
778.9536, 18.63201
779.4357, 18.93735
779.9178, 19.16242
780.4000, 19.22532
780.8821, 19.04012
781.3642, 18.78928
781.8463, 18.44770
782.3284, 18.12637
782.8105, 18.01035
783.2926, 18.25495
783.7747, 18.44628
784.2568, 18.56186
784.7390, 18.58548
785.2211, 18.39432
785.7032, 18.00850
786.1853, 17.89189
786.6674, 18.25789
787.1495, 18.71921
787.6317, 18.66010
788.1138, 18.35244
788.5959, 18.32791
789.0780, 19.21028
789.5601, 19.88324
790.0422, 19.78346
790.5244, 19.25365
791.0065, 18.96038
791.4886, 18.99772
791.9707, 19.10652
792.4528, 19.28265
792.9349, 19.47082
793.4171, 19.53386
793.8992, 19.48987
794.3813, 19.51201
794.8634, 19.68367
795.3455, 19.89068
795.8276, 19.99134
796.3098, 20.04101
796.7919, 20.14841
797.2740, 20.55460
797.7561, 20.78910
798.2382, 20.55726
798.7203, 20.10842
799.2025, 19.89329
799.6846, 19.89651
800.1667, 20.24112
800.6488, 21.14495
801.1309, 22.11963
801.6130, 21.98128
802.0952, 20.98011
802.5773, 20.30506
803.0594, 20.51710
803.5415, 21.02877
804.0236, 21.48335
804.5057, 21.86810
804.9879, 22.16285
805.4700, 22.22486
805.9521, 22.37308
806.4342, 22.76121
806.9163, 23.21824
807.3984, 23.41264
807.8806, 23.31152
808.3627, 23.13327
808.8448, 22.92087
809.3269, 22.66952
809.8090, 22.24186
810.2911, 21.75876
810.7733, 21.58722
811.2554, 22.06330
811.7375, 22.61192
812.2196, 23.06768
812.7017, 23.33374
813.1838, 23.20623
813.6660, 22.15842
814.1481, 21.47857
814.6302, 21.38675
815.1123, 21.66568
815.5944, 21.97767
816.0765, 22.32098
816.5587, 22.54362
817.0408, 22.57301
817.5229, 22.53919
818.0050, 22.57997
818.4871, 22.68413
818.9692, 22.83369
819.4514, 23.07689
819.9335, 23.29018
820.4156, 23.50372
820.8977, 23.63260
821.3798, 23.54245
821.8619, 23.12325
822.3441, 22.74515
822.8262, 22.41744
823.3083, 22.21516
823.7904, 22.40133
824.2725, 22.85850
824.7546, 23.05604
825.2368, 22.81354
825.7189, 22.38221
826.2010, 21.71314
826.6831, 21.08738
827.1652, 20.88715
827.6473, 21.58029
828.1295, 22.20639
828.6116, 22.69337
829.0937, 23.05306
829.5758, 23.32300
830.0579, 23.52166
830.5400, 23.36136
831.0222, 22.71809
831.5043, 22.04360
831.9864, 21.96869
832.4685, 22.27040
832.9506, 22.54096
833.4327, 22.71908
833.9149, 22.73689
834.3970, 22.33469
834.8791, 21.87398
835.3612, 21.75065
835.8433, 22.29668
836.3254, 22.49819
836.8076, 22.24238
837.2897, 21.84887
837.7718, 21.63710
838.2539, 21.58708
838.7360, 21.60767
839.2181, 21.70178
839.7003, 21.73639
840.1824, 21.51899
840.6645, 21.21795
841.1466, 21.01289
841.6287, 20.93664
842.1108, 20.94018
842.5930, 21.08274
843.0751, 21.24128
843.5572, 21.36062
844.0393, 21.45585
844.5214, 21.37426
845.0035, 21.09006
845.4857, 20.79604
845.9678, 20.62353
846.4499, 20.57046
846.9320, 20.68799
847.4141, 20.97818
847.8962, 21.19980
848.3784, 21.16122
848.8605, 21.05927
849.3426, 21.02765
849.8247, 21.08359
850.3068, 21.07007
850.7889, 20.93238
851.2711, 20.85696
851.7532, 21.04115
852.2353, 21.39242
852.7174, 21.41037
853.1995, 21.11459
853.6816, 20.73113
854.1638, 20.23522
854.6459, 19.84641
855.1280, 19.85187
855.6101, 20.20683
856.0922, 20.37068
856.5743, 20.00967
857.0565, 19.72907
857.5386, 19.75685
858.0207, 20.01394
858.5028, 20.04910
858.9849, 19.85639
859.4670, 19.73735
859.9492, 19.91727
860.4313, 20.18462
860.9134, 20.20133
861.3955, 20.05951
861.8776, 20.02791
862.3597, 20.50018
862.8419, 20.79180
863.3240, 20.50057
863.8061, 19.88535
864.2882, 19.48654
864.7703, 19.29933
865.2524, 19.37381
865.7346, 19.81685
866.2167, 20.35965
866.6988, 20.49125
867.1809, 20.33101
867.6630, 20.22998
868.1451, 20.36977
868.6273, 20.49804
869.1094, 20.47645
869.5915, 20.35801
870.0736, 20.21630
870.5557, 20.01467
871.0378, 19.87456
871.5200, 19.81340
872.0021, 19.80056
872.4842, 19.80847
872.9663, 19.83342
873.4484, 19.87348
873.9305, 19.94241
874.4127, 19.94126
874.8948, 19.69088
875.3769, 19.37635
875.8590, 19.16970
876.3411, 19.05857
876.8232, 19.21308
877.3054, 19.87503
877.7875, 20.50924
878.2696, 20.69044
878.7517, 20.40571
879.2338, 20.19314
879.7159, 20.05959
880.1981, 19.98504
880.6802, 20.04341
881.1623, 20.09932
881.6444, 19.93048
882.1265, 19.52858
882.6086, 19.24312
883.0908, 19.27233
883.5729, 19.36096
884.0550, 19.40359
884.5371, 19.40487
885.0192, 19.43796
885.5013, 19.51029
885.9835, 19.55043
886.4656, 19.47748
886.9477, 19.37682
887.4298, 19.43264
887.9119, 19.59810
888.3940, 19.71444
888.8762, 19.79133
889.3583, 19.71763
889.8404, 19.26575
890.3225, 18.65060
890.8046, 18.42023
891.2867, 18.65777
891.7689, 19.01408
892.2510, 19.49250
892.7331, 19.90218
893.2152, 19.80610
893.6973, 19.36273
894.1794, 18.99905
894.6616, 18.81760
895.1437, 18.80070
895.6258, 19.10396
896.1079, 19.49030
896.5900, 19.65038
897.0721, 19.46694
897.5543, 19.30796
898.0364, 19.20623
898.5185, 19.08139
899.0006, 18.74276
899.4827, 18.30106
899.9648, 18.18647
900.4470, 18.46568
900.9291, 18.80449
901.4112, 18.98410
901.8933, 19.09975
902.3754, 19.24689
902.8575, 19.46498
903.3397, 19.48559
903.8218, 19.17014
904.3039, 18.92423
904.7860, 19.07538
905.2681, 19.50181
905.7502, 19.43454
906.2324, 18.93318
906.7145, 18.56168
907.1966, 18.94096
907.6787, 19.34932
908.1608, 19.05700
908.6429, 18.24833
909.1251, 17.90222
909.6072, 18.55863
910.0893, 18.98324
910.5714, 18.81473
911.0535, 18.32490
911.5356, 18.17779
912.0178, 18.33911
912.4999, 18.51569
912.9820, 18.59566
913.4641, 18.68731
913.9462, 19.02156
914.4283, 19.38361
914.9105, 19.46768
915.3926, 18.71099
915.8747, 18.41768
916.3568, 18.89408
916.8389, 19.50913
917.3210, 19.47738
917.8032, 18.87274
918.2853, 18.77518
918.7674, 19.32280
919.2495, 19.80933
919.7316, 19.40623
920.2137, 18.76228
920.6959, 18.59436
921.1780, 19.05215
921.6601, 19.26643
922.1422, 18.89832
922.6243, 18.56880
923.1064, 18.62087
923.5886, 18.97725
924.0707, 18.95994
924.5528, 18.59369
925.0349, 18.34621
925.5170, 18.70225
925.9991, 19.13439
926.4813, 19.07198
926.9634, 18.66260
927.4455, 18.37700
927.9276, 18.32520
928.4097, 18.45443
928.8918, 18.88745
929.3740, 19.38328
929.8561, 19.35073
930.3382, 18.84323
930.8203, 18.60432
931.3024, 18.87567
931.7845, 19.23299
932.2667, 19.25984
932.7488, 19.13235
933.2309, 19.06697
933.7130, 19.13215
934.1951, 19.21257
934.6772, 19.34224
935.1594, 19.42740
935.6415, 19.39918
936.1236, 19.25966
936.6057, 18.99459
937.0878, 18.60264
937.5699, 18.30348
938.0521, 18.33103
938.5342, 18.47141
939.0163, 18.44989
939.4984, 18.29326
939.9805, 18.48209
940.4626, 19.55860
940.9448, 20.23419
941.4269, 19.98241
941.9090, 19.16580
942.3911, 18.96022
942.8732, 19.29346
943.3553, 19.60095
943.8375, 19.68015
944.3196, 19.65166
944.8017, 19.52198
945.2838, 19.38416
945.7659, 19.37944
946.2480, 19.76170
946.7302, 19.92449
947.2123, 19.80313
947.6944, 19.54540
948.1765, 19.23186
948.6586, 18.90578
949.1407, 18.82842
949.6229, 19.03323
950.1050, 19.27124
950.5871, 19.34336
951.0692, 19.37604
951.5513, 19.48119
952.0334, 19.67574
952.5156, 19.79159
952.9977, 19.77239
953.4798, 19.80572
953.9619, 20.05084
954.4440, 20.36207
954.9261, 20.23613
955.4083, 19.76502
955.8904, 19.34302
956.3725, 19.15925
956.8546, 19.08994
957.3367, 19.17925
957.8188, 19.31091
958.3010, 19.22480
958.7831, 18.68642
959.2652, 18.62499
959.7473, 19.26495
960.2294, 20.04564
960.7115, 20.25440
961.1937, 20.05905
961.6758, 19.84066
962.1579, 19.64792
962.6400, 19.50476
963.1221, 19.55717
963.6042, 19.54763
964.0864, 19.20010
964.5685, 18.49802
965.0506, 18.38216
965.5327, 18.97535
966.0148, 19.43074
966.4969, 19.08591
966.9791, 18.45867
967.4612, 18.52648
967.9433, 19.10876
968.4254, 19.65953
968.9075, 20.07448
969.3896, 20.28022
969.8718, 20.14213
970.3539, 19.86265
970.8360, 19.77238
971.3181, 19.89288
971.8002, 19.86505
972.2823, 19.61171
972.7645, 19.32483
973.2466, 19.23232
973.7287, 19.21530
974.2108, 19.09163
974.6929, 18.79205
975.1750, 18.67081
975.6572, 18.97537
976.1393, 19.24195
976.6214, 19.19612
977.1035, 18.90592
977.5856, 18.86366
978.0677, 19.05888
978.5499, 19.36291
979.0320, 20.01807
979.5141, 20.46481
979.9962, 19.93517
980.4783, 18.87434
980.9604, 18.38229
981.4425, 18.95463
981.9246, 19.43081
982.4067, 19.69871
982.8889, 19.80698
983.3710, 19.75237
983.8531, 19.58770
984.3352, 19.54470
984.8173, 19.67926
985.2994, 19.71274
985.7816, 19.31044
986.2637, 18.85876
986.7458, 18.64388
987.2279, 18.67220
987.7100, 18.86251
988.1921, 19.25209
988.6743, 19.63650
989.1564, 19.95738
989.6385, 20.17312
990.1206, 20.10680
990.6027, 19.86245
991.0848, 19.73526
991.5670, 20.05826
992.0491, 20.25720
992.5312, 20.05032
993.0133, 19.71712
993.4954, 19.60041
993.9775, 19.70876
994.4597, 19.94936
994.9418, 20.34840
995.4239, 20.62321
995.9060, 20.34782
996.3881, 19.90738
996.8702, 19.72915
997.3524, 19.87308
997.8345, 20.07978
998.3166, 20.42328
998.7987, 20.63621
999.2808, 20.54935
999.7629, 20.28778
1000.245, 20.36037
1000.727, 20.69681
1001.209, 20.91506
1001.691, 20.74782
1002.174, 20.56180
1002.656, 20.67653
1003.138, 20.88997
1003.620, 20.88260
1004.102, 20.46834
1004.584, 20.34595
1005.066, 20.60761
1005.548, 20.92773
1006.030, 20.95985
1006.513, 20.83349
1006.995, 20.78350
1007.477, 20.82778
1007.959, 20.95382
1008.441, 21.35726
1008.923, 21.61214
1009.405, 21.46742
1009.887, 21.06310
1010.370, 20.90139
1010.852, 20.98394
1011.334, 21.18554
1011.816, 21.56285
1012.298, 21.82190
1012.780, 21.38533
1013.262, 20.73883
1013.744, 20.56930
1014.226, 21.34798
1014.709, 21.84241
1015.191, 21.91464
1015.673, 21.86683
1016.155, 21.93467
1016.637, 22.07609
1017.119, 22.03840
1017.601, 21.85283
1018.083, 21.76786
1018.565, 21.99691
1019.048, 22.29267
1019.530, 22.59228
1020.012, 22.84623
1020.494, 22.89395
1020.976, 22.64245
1021.458, 22.68109
1021.940, 23.17839
1022.422, 23.74468
1022.905, 23.83575
1023.387, 23.70654
1023.869, 23.76678
1024.351, 24.13050
1024.833, 24.37482
1025.315, 24.25232
1025.797, 24.16422
1026.279, 24.33264
1026.761, 24.68735
1027.244, 24.80377
1027.726, 24.71101
1028.208, 24.64415
1028.690, 24.67122
1029.172, 24.82232
1029.654, 25.27866
1030.136, 25.81934
1030.618, 26.05834
1031.101, 25.86393
1031.583, 25.67231
1032.065, 25.47370
1032.547, 25.38284
1033.029, 25.56836
1033.511, 25.91848
1033.993, 26.24346
1034.475, 26.52858
1034.958, 26.81771
1035.440, 27.20140
1035.922, 27.50351
1036.404, 27.65215
1036.886, 27.68989
1037.368, 27.73812
1037.850, 27.79400
1038.332, 27.80705
1038.814, 27.75247
1039.297, 27.68442
1039.779, 27.53079
1040.261, 27.45770
1040.743, 27.70118
1041.225, 28.43186
1041.707, 28.90286
1042.189, 29.11154
1042.671, 29.05303
1043.153, 28.47500
1043.636, 27.73738
1044.118, 27.80919
1044.600, 28.44226
1045.082, 28.77080
1045.564, 28.08560
1046.046, 27.47583
1046.528, 27.10593
1047.010, 27.04930
1047.493, 27.65293
1047.975, 28.87024
1048.457, 29.20521
1048.939, 28.45378
1049.421, 27.68740
1049.903, 28.06626
1050.385, 28.60858
1050.867, 28.27655
1051.349, 27.07014
1051.832, 26.75673
1052.314, 27.66993
1052.796, 28.51829
1053.278, 28.92700
1053.760, 28.99983
1054.242, 28.77571
1054.724, 28.38549
1055.206, 28.07093
1055.688, 27.86126
1056.171, 27.84270
1056.653, 28.30101
1057.135, 28.69057
1057.617, 28.56748
1058.099, 27.97711
1058.581, 27.86779
1059.063, 28.20472
1059.545, 27.67194
1060.028, 28.71442
1060.510, 29.29039
1060.992, 29.42487
1061.474, 27.79555
1061.956, 28.44381
1062.438, 28.17933
1062.920, 27.87741
1063.402, 28.84623
1063.885, 27.47340
1064.367, 28.42208
1064.849, 28.44406
1065.331, 28.89017
1065.813, 28.41789
1066.295, 28.22927
1066.777, 28.95934
1067.259, 29.18072
1067.741, 28.60272
1068.224, 29.07574
1068.706, 27.67087
1069.188, 27.91392
1069.670, 28.17924
1070.152, 28.55396
1070.634, 28.71031
1071.116, 27.92987
1071.598, 27.08928
1072.080, 26.99020
1072.563, 27.70258
1073.045, 28.25359
1073.527, 28.63797
1074.009, 28.81628
1074.491, 28.57462
1074.973, 28.27693
1075.455, 28.47456
1075.937, 28.91370
1076.420, 29.03930
1076.902, 28.42698
1077.384, 28.03412
1077.866, 27.95406
1078.348, 27.99022
1078.830, 27.96759
1079.312, 27.89628
1079.794, 27.74157
1080.276, 27.52450
1080.759, 27.47933
1081.241, 27.97847
1081.723, 28.36111
1082.205, 28.38024
1082.687, 28.15014
1083.169, 27.85538
1083.651, 27.51955
1084.133, 27.51377
1084.615, 27.99542
1085.098, 28.39144
1085.580, 27.99462
1086.062, 27.47668
1086.544, 27.53220
1087.026, 28.21121
1087.508, 28.53450
1087.990, 28.45742
1088.472, 28.25587
1088.954, 27.97482
1089.437, 27.73904
1089.919, 27.73730
1090.401, 27.90901
1090.883, 28.15206
1091.365, 28.50090
1091.847, 28.82611
1092.329, 29.20695
1092.811, 29.40803
1093.294, 29.08471
1093.776, 28.44687
1094.258, 28.20025
1094.740, 27.72975
1095.222, 28.75854
1095.704, 29.32079
1096.186, 29.44153
1096.668, 27.79848
1097.151, 28.43293
1097.633, 28.15471
1098.115, 27.83906
1098.597, 28.79415
1099.079, 27.40764
1099.561, 27.55643
1100.043, 27.90662
1100.525, 28.37796
1101.007, 28.41059
1101.490, 28.06312
1101.972, 27.93662
1102.454, 28.05898
1102.936, 28.28350
1103.418, 28.63176
1103.900, 28.89868
1104.382, 28.77808
1104.864, 28.44370
1105.346, 28.05568
1105.829, 27.56018
1106.311, 27.54652
1106.793, 28.40263
1107.275, 28.90609
1107.757, 28.24185
1108.239, 27.05462
1108.721, 26.94563
1109.203, 27.60149
1109.686, 28.20207
1110.168, 28.55474
1110.650, 28.60219
1111.132, 28.04669
1111.614, 27.48636
1112.096, 27.38470
1112.578, 27.70789
1113.060, 28.15717
1113.542, 28.68508
1114.025, 28.92347
1114.507, 28.40213
1114.989, 27.81249
1115.471, 27.47712
1115.953, 27.33188
1116.435, 27.25919
1116.917, 27.25201
1117.399, 27.45324
1117.881, 27.90033
1118.364, 28.24627
1118.846, 28.08612
1119.328, 27.77176
1119.810, 27.63749
1120.292, 27.65654
1120.774, 27.50873
1121.256, 27.09564
1121.738, 26.84782
1122.221, 26.88921
1122.703, 27.02277
1123.185, 27.01473
1123.667, 26.91984
1124.149, 26.81291
1124.631, 26.70514
1125.113, 26.57095
1125.595, 26.35825
1126.078, 26.21471
1126.560, 25.65471
1127.042, 26.22254
1127.524, 26.54956
1128.006, 26.64873
1128.488, 25.83754
1128.970, 26.20188
1129.452, 26.09512
1129.934, 25.96905
1130.417, 26.49887
1130.899, 25.82010
1131.381, 26.33949
1131.863, 26.38059
1132.345, 26.64059
1132.827, 26.42659
1133.309, 26.35899
1133.791, 26.63858
1134.273, 25.43044
1134.756, 25.91628
1135.238, 26.16145
1135.720, 26.17877
1136.202, 25.28573
1136.684, 25.56822
1137.166, 25.37960
1137.648, 25.17168
1138.130, 25.61961
1138.613, 24.85883
1139.095, 25.29637
1139.577, 25.25561
1140.059, 25.60468
1140.541, 25.60219
1141.023, 25.45636
1141.505, 25.31815
1141.987, 25.32370
1142.469, 25.41928
1142.952, 25.61251
1143.434, 25.86853
1143.916, 25.94459
1144.398, 25.77864
1144.880, 25.58200
1145.362, 25.37829
1145.844, 25.21782
1146.326, 25.13599
1146.808, 25.16015
1147.291, 25.41305
1147.773, 25.93468
1148.255, 26.17150
1148.737, 25.94942
1149.219, 25.64149
1149.701, 25.30432
1150.183, 25.04025
1150.665, 25.29272
1151.148, 24.77142
1151.630, 25.32520
1152.112, 25.63818
1152.594, 25.72329
1153.076, 24.89805
1153.558, 25.24833
1154.040, 25.12753
1154.522, 24.98740
1155.005, 26.13273
1155.487, 26.71531
1155.969, 26.79529
1156.451, 25.69094
1156.933, 24.83331
1157.415, 25.01433
1157.897, 25.38530
1158.379, 25.27243
1158.861, 24.76589
1159.344, 25.05000
1159.826, 25.99310
1160.308, 26.68258
1160.790, 26.39894
1161.272, 26.00734
1161.754, 25.88037
1162.236, 25.89340
1162.718, 25.91604
1163.200, 25.94704
1163.683, 26.10461
1164.165, 26.38533
1164.647, 26.56638
1165.129, 26.27342
1165.611, 26.05793
1166.093, 26.41732
1166.575, 27.05545
1167.057, 27.36085
1167.540, 27.28402
1168.022, 27.42990
1168.504, 27.87873
1168.986, 28.17031
1169.468, 27.65343
1169.950, 27.06235
1170.432, 27.02460
1170.914, 27.45198
1171.396, 27.80218
1171.879, 28.08588
1172.361, 28.19879
1172.843, 28.08825
1173.325, 27.99589
1173.807, 28.28748
1174.289, 28.63182
1174.771, 28.63420
1175.253, 28.29792
1175.735, 28.23899
1176.218, 28.55392
1176.700, 28.73502
1177.182, 28.62594
1177.664, 28.43154
1178.146, 28.24494
1178.628, 28.21558
1179.110, 28.64747
1179.592, 29.64514
1180.075, 30.18935
1180.557, 30.14510
1181.039, 30.03881
1181.521, 30.03700
1182.003, 30.10468
1182.485, 30.21648
1182.967, 30.35351
1183.449, 30.50290
1183.932, 30.69065
1184.414, 30.72988
1184.896, 30.55326
1185.378, 30.41512
1185.860, 30.45495
1186.342, 30.57405
1186.824, 30.58931
1187.306, 30.55535
1187.788, 30.57062
1188.271, 30.67736
1188.753, 30.79659
1189.235, 30.93932
1189.717, 31.05289
1190.199, 31.09801
1190.681, 31.09813
1191.163, 31.01966
1191.645, 30.94642
1192.127, 31.07432
1192.610, 31.63850
1193.092, 32.13219
1193.574, 32.60305
1194.056, 32.83563
1194.538, 32.51437
1195.020, 31.89641
1195.502, 31.51563
1195.984, 31.34665
1196.467, 31.30867
1196.949, 31.39318
1197.431, 31.62255
1197.913, 32.11824
1198.395, 32.50949
1198.877, 32.27038
1199.359, 31.75636
1199.841, 31.91019
1200.323, 32.59468
1200.806, 33.15069
1201.288, 33.26168
1201.770, 33.30977
1202.252, 33.34018
1202.734, 33.33652
1203.216, 33.24235
1203.698, 33.11267
1204.180, 33.05091
1204.662, 33.07347
1205.145, 33.22898
1205.627, 33.89359
1206.109, 34.12549
1206.591, 33.58892
1207.073, 32.91971
1207.555, 33.00397
1208.037, 33.58332
1208.519, 34.13981
1209.002, 34.60836
1209.484, 34.83776
1209.966, 34.65982
1210.448, 34.34672
1210.930, 33.84671
1211.412, 33.40460
1211.894, 33.44126
1212.376, 33.78666
1212.859, 34.03885
1213.341, 34.16236
1213.823, 34.43335
1214.305, 35.25938
1214.787, 35.78881
1215.269, 35.81663
1215.751, 35.49699
1216.233, 34.76455
1216.715, 33.97561
1217.198, 34.08526
1217.680, 35.24446
1218.162, 36.00602
1218.644, 35.66388
1219.126, 35.38924
1219.608, 35.51824
1220.090, 35.82472
1220.572, 35.90465
1221.054, 35.87084
1221.537, 35.93444
1222.019, 36.12735
1222.501, 36.47096
1222.983, 37.13734
1223.465, 37.63323
1223.947, 37.80528
1224.429, 37.73841
1224.911, 37.42599
1225.394, 37.04722
1225.876, 37.00867
1226.358, 37.46505
1226.840, 37.60569
1227.322, 37.07777
1227.804, 36.79857
1228.286, 37.17194
1228.768, 37.85277
1229.250, 38.35432
1229.733, 38.67431
1230.215, 38.75187
1230.697, 38.50583
1231.179, 38.43515
1231.661, 38.60249
1232.143, 38.87590
1232.625, 39.24025
1233.107, 39.62009
1233.589, 39.83403
1234.072, 39.99408
1234.554, 40.28535
1235.036, 40.78389
1235.518, 41.25416
1236.000, 41.70472
1236.482, 42.04345
1236.964, 42.17631
1237.446, 42.26089
1237.929, 42.62675
1238.411, 43.06227
1238.893, 43.21070
1239.375, 42.89063
1239.857, 42.78188
1240.339, 42.90171
1240.821, 43.16893
1241.303, 43.63323
1241.786, 44.08891
1242.268, 44.23609
1242.750, 44.23990
1243.232, 44.36028
1243.714, 44.67738
1244.196, 44.74262
1244.678, 44.49964
1245.160, 44.46215
1245.642, 44.98397
1246.125, 45.66997
1246.607, 46.09251
1247.089, 46.42881
1247.571, 46.94856
1248.053, 47.69122
1248.535, 48.33821
1249.017, 48.89359
1249.499, 49.21949
1249.981, 49.02191
1250.464, 48.92006
1250.946, 49.67879
1251.428, 50.65516
1251.910, 51.09013
1252.392, 50.93867
1252.874, 50.82516
1253.356, 50.75858
1253.838, 50.94979
1254.321, 51.74780
1254.803, 52.46391
1255.285, 52.36448
1255.767, 52.20272
1256.249, 52.83428
1256.731, 54.20472
1257.213, 54.76360
1257.695, 54.59464
1258.177, 54.38341
1258.660, 54.29405
1259.142, 54.48767
1259.624, 55.27037
1260.106, 56.16906
1260.588, 56.86201
1261.070, 57.36285
1261.552, 57.69508
1262.034, 57.90937
1262.516, 58.23646
1262.999, 58.90459
1263.481, 59.48215
1263.963, 59.76585
1264.445, 60.05967
1264.927, 60.65001
1265.409, 61.40853
1265.891, 61.79363
1266.373, 61.93745
1266.856, 62.25596
1267.338, 63.12209
1267.820, 63.75737
1268.302, 63.99453
1268.784, 64.19578
1269.266, 64.58919
1269.748, 65.14355
1270.230, 65.93537
1270.713, 66.81957
1271.195, 67.45954
1271.677, 67.54649
1272.159, 67.79938
1272.641, 68.25932
1273.123, 68.75076
1273.605, 69.16333
1274.087, 69.53071
1274.569, 69.79323
1275.052, 70.09048
1275.534, 70.75019
1276.016, 72.03904
1276.498, 72.87167
1276.980, 73.21871
1277.462, 73.29426
1277.944, 72.83405
1278.426, 72.60548
1278.908, 73.71030
1279.391, 75.32323
1279.873, 76.23341
1280.355, 76.32681
1280.837, 76.36539
1281.319, 76.35735
1281.801, 76.68058
1282.283, 77.80447
1282.765, 78.94997
1283.247, 79.66283
1283.730, 80.13007
1284.212, 80.46525
1284.694, 80.69304
1285.176, 81.42387
1285.658, 82.56436
1286.140, 83.54127
1286.622, 83.90138
1287.104, 84.39136
1287.587, 85.47549
1288.069, 86.57891
1288.551, 87.28704
1289.033, 87.70430
1289.515, 88.23998
1289.997, 88.87849
1290.479, 89.57484
1290.961, 90.32729
1291.443, 91.13211
1291.926, 92.05882
1292.408, 92.88789
1292.890, 93.47146
1293.372, 93.89216
1293.854, 94.10156
1294.336, 94.33056
1294.818, 95.07523
1295.300, 96.84664
1295.782, 98.07875
1296.265, 98.63466
1296.747, 99.31763
1297.229, 100.7453
1297.711, 102.2489
1298.193, 102.7865
1298.675, 102.9801
1299.157, 103.8463
1299.639, 105.5330
1300.122, 106.6857
1300.604, 107.2928
1301.086, 108.1389
1301.568, 109.8268
1302.050, 111.3634
1302.532, 111.8750
1303.014, 112.0096
1303.496, 112.3723
1303.979, 113.0050
##END=



