##NAMES=Hemimorphite
##RRUFFID=R070536
##IDEAL CHEMISTRY=Zn^2+^_4_Si_2_O_7_(OH)_2_&#183;H_2_O
##LOCALITY=Potosi mine, Santa Eulalia District, Chihuahua, Mexico
##OWNER=RRUFF
##SOURCE=James Shigley
##DESCRIPTION=Colorless striated thin tabular crystals in fan-shaped aggregates
##STATUS=The identification of this mineral has been confirmed by X-ray diffraction and chemical analysis
##URL=rruff.info/R070536
##MEASURED CHEMISTRY=Zn_4.00_Si_2.00_O_7_(OH)_2_Â·H_2_O; total H_2_O estimated by difference, (OH) by charge balance
136.1740, 4880.676
136.6561, 4973.377
137.1382, 5042.075
137.6203, 5097.572
138.1024, 5147.055
138.5845, 5187.666
139.0667, 5241.686
139.5488, 5322.755
140.0309, 5433.399
140.5130, 5521.974
140.9951, 5580.465
141.4772, 5626.892
141.9594, 5694.136
142.4415, 5796.589
142.9236, 5889.506
143.4057, 5954.507
143.8878, 5978.616
144.3699, 6010.736
144.8521, 6057.442
145.3342, 6111.203
145.8163, 6146.274
146.2984, 6151.458
146.7805, 6151.544
147.2626, 6158.722
147.7448, 6169.595
148.2269, 6192.848
148.7090, 6228.690
149.1911, 6277.459
149.6732, 6339.117
150.1554, 6426.592
150.6375, 6519.267
151.1196, 6600.244
151.6017, 6646.142
152.0838, 6706.374
152.5659, 6786.245
153.0481, 6886.923
153.5302, 7003.134
154.0123, 7148.881
154.4944, 7304.713
154.9765, 7450.887
155.4586, 7554.813
155.9408, 7676.328
156.4229, 7834.242
156.9050, 8006.534
157.3871, 8147.941
157.8692, 8291.420
158.3513, 8435.196
158.8335, 8569.950
159.3156, 8684.532
159.7977, 8798.035
160.2798, 8917.211
160.7619, 9037.311
161.2440, 9175.463
161.7262, 9355.005
162.2083, 9558.959
162.6904, 9743.894
163.1725, 9881.774
163.6546, 10001.13
164.1367, 10119.52
164.6189, 10241.25
165.1010, 10364.10
165.5831, 10494.64
166.0652, 10628.81
166.5473, 10747.28
167.0294, 10851.53
167.5116, 10928.61
167.9937, 10964.63
168.4758, 10963.88
168.9579, 10914.24
169.4400, 10800.99
169.9221, 10625.50
170.4043, 10415.15
170.8864, 10186.93
171.3685, 9936.292
171.8506, 9651.466
172.3327, 9294.968
172.8148, 8924.474
173.2970, 8595.000
173.7791, 8310.577
174.2612, 8043.917
174.7433, 7774.282
175.2254, 7508.385
175.7076, 7257.253
176.1897, 7017.074
176.6718, 6799.101
177.1539, 6619.490
177.6360, 6484.557
178.1181, 6367.246
178.6003, 6235.749
179.0824, 6093.979
179.5645, 5963.834
180.0466, 5852.559
180.5287, 5759.303
181.0108, 5686.844
181.4930, 5639.571
181.9751, 5602.612
182.4572, 5556.865
182.9393, 5502.783
183.4214, 5447.686
183.9035, 5391.502
184.3857, 5337.677
184.8678, 5296.021
185.3499, 5270.964
185.8320, 5256.648
186.3141, 5242.646
186.7962, 5228.766
187.2784, 5219.583
187.7605, 5221.504
188.2426, 5232.396
188.7247, 5242.112
189.2068, 5247.983
189.6889, 5234.251
190.1711, 5255.216
190.6532, 5266.784
191.1353, 5269.460
191.6174, 5236.611
192.0995, 5249.635
192.5816, 5244.275
193.0638, 5238.162
193.5459, 5257.643
194.0280, 5229.960
194.5101, 5249.035
194.9922, 5249.446
195.4743, 5258.398
195.9565, 5248.854
196.4386, 5245.022
196.9207, 5259.694
197.4028, 5264.121
197.8849, 5252.446
198.3671, 5261.942
198.8492, 5265.188
199.3313, 5271.230
199.8134, 5257.077
200.2955, 5247.827
200.7776, 5256.702
201.2598, 5284.400
201.7419, 5308.371
202.2240, 5327.898
202.7061, 5344.330
203.1882, 5359.552
203.6703, 5372.745
204.1525, 5387.914
204.6346, 5406.640
205.1167, 5428.701
205.5988, 5455.239
206.0809, 5486.088
206.5630, 5521.457
207.0452, 5563.625
207.5273, 5615.341
208.0094, 5666.053
208.4915, 5709.086
208.9736, 5742.005
209.4557, 5779.927
209.9379, 5828.559
210.4200, 5881.688
210.9021, 5915.020
211.3842, 5922.376
211.8663, 5924.386
212.3484, 5936.422
212.8306, 5963.214
213.3127, 5981.973
213.7948, 5990.340
214.2769, 5988.752
214.7590, 5978.241
215.2411, 5956.344
215.7233, 5930.113
216.2054, 5906.706
216.6875, 5890.496
217.1696, 5862.896
217.6517, 5816.140
218.1338, 5752.616
218.6160, 5703.395
219.0981, 5670.997
219.5802, 5648.313
220.0623, 5632.030
220.5444, 5628.895
221.0265, 5614.165
221.5087, 5577.679
221.9908, 5519.689
222.4729, 5481.848
222.9550, 5474.050
223.4371, 5474.410
223.9192, 5459.131
224.4014, 5418.721
224.8835, 5384.882
225.3656, 5365.811
225.8477, 5362.257
226.3298, 5358.734
226.8119, 5358.174
227.2941, 5354.605
227.7762, 5339.927
228.2583, 5308.454
228.7404, 5276.859
229.2225, 5244.912
229.7046, 5209.671
230.1868, 5201.537
230.6689, 5238.898
231.1510, 5287.734
231.6331, 5303.685
232.1152, 5269.943
232.5974, 5233.335
233.0795, 5205.590
233.5616, 5188.891
234.0437, 5169.827
234.5258, 5144.280
235.0079, 5119.544
235.4901, 5107.402
235.9722, 5117.066
236.4543, 5123.968
236.9364, 5119.637
237.4185, 5100.262
237.9006, 5087.094
238.3828, 5084.117
238.8649, 5084.808
239.3470, 5077.120
239.8291, 5050.894
240.3112, 5032.520
240.7933, 5033.948
241.2755, 5064.824
241.7576, 5078.982
242.2397, 5069.360
242.7218, 5046.591
243.2039, 5028.744
243.6860, 5013.881
244.1682, 5007.000
244.6503, 5011.331
245.1324, 5031.093
245.6145, 5049.004
246.0966, 5069.723
246.5787, 5086.395
247.0609, 5082.696
247.5430, 5041.824
248.0251, 5008.293
248.5072, 5000.942
248.9893, 5030.646
249.4714, 5053.279
249.9536, 5067.358
250.4357, 5075.018
250.9178, 5080.508
251.3999, 5083.449
251.8820, 5084.771
252.3641, 5084.596
252.8463, 5082.316
253.3284, 5080.068
253.8105, 5075.964
254.2926, 5072.858
254.7747, 5078.239
255.2568, 5097.984
255.7390, 5116.002
256.2211, 5124.054
256.7032, 5115.184
257.1853, 5118.463
257.6674, 5140.283
258.1495, 5170.986
258.6317, 5189.494
259.1138, 5195.080
259.5959, 5189.477
260.0780, 5167.476
260.5601, 5113.417
261.0422, 5093.050
261.5244, 5116.337
262.0065, 5167.431
262.4886, 5211.211
262.9707, 5247.955
263.4528, 5277.664
263.9349, 5299.877
264.4171, 5313.082
264.8992, 5324.023
265.3813, 5332.060
265.8634, 5338.504
266.3455, 5345.730
266.8276, 5352.879
267.3098, 5363.067
267.7919, 5378.721
268.2740, 5401.303
268.7561, 5422.283
269.2382, 5440.850
269.7203, 5457.891
270.2025, 5476.534
270.6846, 5498.752
271.1667, 5516.055
271.6488, 5522.518
272.1309, 5515.336
272.6130, 5513.997
273.0952, 5520.273
273.5773, 5530.933
274.0594, 5542.409
274.5415, 5557.414
275.0236, 5562.326
275.5057, 5546.462
275.9879, 5507.025
276.4700, 5476.394
276.9521, 5456.299
277.4342, 5443.542
277.9163, 5434.949
278.3984, 5432.180
278.8806, 5424.044
279.3627, 5402.901
279.8448, 5368.479
280.3269, 5336.753
280.8090, 5307.063
281.2911, 5281.877
281.7733, 5266.812
282.2554, 5262.663
282.7375, 5258.615
283.2196, 5251.795
283.7017, 5241.859
284.1838, 5220.408
284.6660, 5183.326
285.1481, 5143.972
285.6302, 5126.977
286.1123, 5132.654
286.5944, 5130.942
287.0765, 5100.389
287.5587, 5046.665
288.0408, 5011.370
288.5229, 4996.599
289.0050, 4994.676
289.4871, 5000.210
289.9692, 5012.297
290.4514, 5019.047
290.9335, 5009.458
291.4156, 4989.166
291.8977, 4984.489
292.3798, 4998.042
292.8619, 5013.560
293.3441, 5009.421
293.8262, 4988.371
294.3083, 4966.596
294.7904, 4948.080
295.2726, 4933.752
295.7547, 4927.123
296.2368, 4928.684
296.7189, 4933.920
297.2010, 4942.415
297.6831, 4951.644
298.1653, 4952.987
298.6474, 4932.979
299.1295, 4906.277
299.6116, 4902.604
300.0937, 4922.683
300.5758, 4944.980
301.0580, 4948.146
301.5401, 4938.188
302.0222, 4928.629
302.5043, 4920.853
302.9864, 4918.294
303.4685, 4930.824
303.9507, 4957.764
304.4328, 4980.041
304.9149, 4978.567
305.3970, 4962.946
305.8791, 4948.398
306.3612, 4934.848
306.8434, 4928.982
307.3255, 4943.969
307.8076, 4977.130
308.2897, 5005.945
308.7718, 5009.632
309.2539, 5001.321
309.7361, 4996.977
310.2182, 4998.635
310.7003, 5008.491
311.1824, 5031.259
311.6645, 5064.997
312.1466, 5099.941
312.6288, 5134.288
313.1109, 5165.819
313.5930, 5192.844
314.0751, 5214.290
314.5572, 5232.577
315.0393, 5244.447
315.5215, 5253.114
316.0036, 5269.567
316.4857, 5299.535
316.9678, 5338.788
317.4499, 5384.803
317.9320, 5437.523
318.4142, 5496.280
318.8963, 5559.524
319.3784, 5628.253
319.8605, 5706.164
320.3426, 5807.040
320.8247, 5907.966
321.3069, 5991.712
321.7890, 6038.423
322.2711, 6107.408
322.7532, 6228.376
323.2353, 6378.621
323.7174, 6515.629
324.1996, 6609.911
324.6817, 6708.030
325.1638, 6828.505
325.6459, 6983.097
326.1280, 7132.034
326.6101, 7271.036
327.0923, 7403.107
327.5744, 7530.643
328.0565, 7683.681
328.5386, 7804.422
329.0207, 7881.553
329.5028, 7914.237
329.9850, 7906.094
330.4671, 7848.515
330.9492, 7755.401
331.4313, 7639.792
331.9134, 7492.188
332.3955, 7335.271
332.8777, 7166.543
333.3598, 6987.555
333.8419, 6824.964
334.3240, 6679.726
334.8061, 6549.490
335.2882, 6431.126
335.7704, 6325.873
336.2525, 6228.771
336.7346, 6138.841
337.2167, 6055.971
337.6988, 5974.438
338.1809, 5887.650
338.6631, 5813.589
339.1452, 5771.377
339.6273, 5767.977
340.1094, 5760.363
340.5915, 5743.711
341.0736, 5718.545
341.5558, 5684.968
342.0379, 5640.191
342.5200, 5598.343
343.0021, 5569.609
343.4842, 5554.256
343.9663, 5537.970
344.4485, 5518.419
344.9306, 5499.359
345.4127, 5488.933
345.8948, 5487.128
346.3769, 5490.019
346.8590, 5503.526
347.3412, 5522.293
347.8233, 5516.844
348.3054, 5481.580
348.7875, 5437.253
349.2696, 5406.522
349.7517, 5389.779
350.2339, 5387.438
350.7160, 5413.394
351.1981, 5450.844
351.6802, 5463.521
352.1623, 5448.274
352.6444, 5430.015
353.1266, 5431.883
353.6087, 5448.688
354.0908, 5469.530
354.5729, 5496.405
355.0550, 5521.239
355.5371, 5536.360
356.0193, 5541.976
356.5014, 5538.555
356.9835, 5517.318
357.4656, 5490.463
357.9477, 5473.463
358.4298, 5477.961
358.9120, 5486.515
359.3941, 5485.804
359.8762, 5478.875
360.3583, 5478.280
360.8404, 5499.545
361.3225, 5524.399
361.8047, 5538.154
362.2868, 5530.756
362.7689, 5523.775
363.2510, 5525.715
363.7331, 5533.771
364.2152, 5541.320
364.6974, 5550.129
365.1795, 5554.651
365.6616, 5549.716
366.1437, 5526.604
366.6258, 5515.581
367.1079, 5530.932
367.5901, 5558.929
368.0722, 5578.968
368.5543, 5582.505
369.0364, 5584.656
369.5185, 5588.515
370.0006, 5593.944
370.4828, 5602.696
370.9649, 5613.986
371.4470, 5629.336
371.9291, 5650.765
372.4112, 5682.305
372.8933, 5713.771
373.3755, 5744.425
373.8576, 5773.985
374.3397, 5794.462
374.8218, 5799.403
375.3039, 5804.515
375.7861, 5823.746
376.2682, 5862.785
376.7503, 5891.492
377.2324, 5903.392
377.7145, 5904.296
378.1967, 5912.499
378.6788, 5929.770
379.1609, 5945.795
379.6430, 5950.888
380.1251, 5945.572
380.6072, 5954.066
381.0894, 5980.615
381.5715, 6015.342
382.0536, 6044.762
382.5357, 6069.287
383.0178, 6088.835
383.4999, 6098.148
383.9821, 6102.593
384.4642, 6118.463
384.9463, 6146.460
385.4284, 6181.674
385.9105, 6227.372
386.3926, 6277.423
386.8748, 6315.700
387.3569, 6328.438
387.8390, 6332.559
388.3211, 6349.858
388.8032, 6379.255
389.2853, 6408.790
389.7675, 6431.947
390.2496, 6450.347
390.7317, 6464.854
391.2138, 6472.299
391.6959, 6481.799
392.1780, 6501.554
392.6602, 6528.783
393.1423, 6554.816
393.6244, 6574.014
394.1065, 6592.447
394.5886, 6615.540
395.0707, 6647.316
395.5529, 6673.213
396.0350, 6678.749
396.5171, 6677.716
396.9992, 6690.405
397.4813, 6751.097
397.9634, 6797.047
398.4456, 6803.286
398.9277, 6761.780
399.4098, 6730.878
399.8919, 6722.029
400.3740, 6720.861
400.8561, 6715.942
401.3383, 6702.330
401.8204, 6692.474
402.3025, 6689.929
402.7846, 6693.191
403.2667, 6692.484
403.7488, 6689.567
404.2310, 6680.349
404.7131, 6661.012
405.1952, 6628.713
405.6773, 6597.891
406.1594, 6568.657
406.6415, 6541.769
407.1237, 6519.381
407.6058, 6502.251
408.0879, 6485.916
408.5700, 6469.350
409.0521, 6452.167
409.5342, 6430.005
410.0164, 6401.620
410.4985, 6373.788
410.9806, 6359.124
411.4627, 6354.434
411.9448, 6339.815
412.4269, 6305.593
412.9091, 6259.205
413.3912, 6212.417
413.8733, 6165.382
414.3554, 6125.023
414.8375, 6106.074
415.3196, 6095.504
415.8018, 6069.679
416.2839, 6015.748
416.7660, 5962.878
417.2481, 5942.460
417.7302, 5944.461
418.2123, 5944.699
418.6945, 5926.343
419.1766, 5904.920
419.6587, 5893.363
420.1408, 5895.020
420.6229, 5894.136
421.1050, 5887.005
421.5872, 5872.727
422.0693, 5850.057
422.5514, 5798.815
423.0335, 5759.234
423.5156, 5745.853
423.9977, 5758.425
424.4799, 5772.425
424.9620, 5789.763
425.4441, 5803.939
425.9262, 5811.235
426.4083, 5807.302
426.8904, 5802.379
427.3726, 5795.870
427.8547, 5788.542
428.3368, 5782.297
428.8189, 5776.540
429.3010, 5772.890
429.7831, 5771.446
430.2653, 5771.865
430.7474, 5778.244
431.2295, 5791.637
431.7116, 5809.568
432.1937, 5831.642
432.6758, 5858.828
433.1580, 5877.620
433.6401, 5877.650
434.1222, 5869.013
434.6043, 5888.061
435.0864, 5935.440
435.5685, 5990.469
436.0507, 6039.894
436.5328, 6084.061
437.0149, 6121.897
437.4970, 6150.603
437.9791, 6179.465
438.4612, 6223.693
438.9434, 6278.081
439.4255, 6326.371
439.9076, 6338.582
440.3897, 6352.747
440.8718, 6416.847
441.3539, 6537.357
441.8361, 6652.679
442.3182, 6713.091
442.8003, 6753.045
443.2824, 6811.797
443.7645, 6925.820
444.2466, 7037.868
444.7288, 7115.206
445.2109, 7167.453
445.6930, 7241.953
446.1751, 7371.498
446.6572, 7509.801
447.1393, 7632.771
447.6215, 7724.626
448.1036, 7825.690
448.5857, 7952.311
449.0678, 8083.516
449.5499, 8188.865
450.0320, 8268.100
450.5142, 8320.203
450.9963, 8342.699
451.4784, 8335.314
451.9605, 8312.582
452.4426, 8274.063
452.9247, 8220.753
453.4069, 8152.387
453.8890, 8068.457
454.3711, 7969.971
454.8532, 7855.123
455.3353, 7726.193
455.8174, 7584.704
456.2996, 7429.621
456.7817, 7281.858
457.2638, 7160.570
457.7459, 7055.380
458.2281, 6932.836
458.7102, 6789.565
459.1923, 6649.632
459.6744, 6537.902
460.1565, 6448.049
460.6386, 6371.500
461.1208, 6308.421
461.6029, 6252.677
462.0850, 6202.156
462.5671, 6155.599
463.0492, 6107.811
463.5313, 6052.197
464.0135, 5996.205
464.4956, 5944.957
464.9777, 5895.090
465.4598, 5857.501
465.9419, 5842.737
466.4240, 5840.533
466.9062, 5834.547
467.3883, 5811.858
467.8704, 5795.194
468.3525, 5796.969
468.8346, 5819.936
469.3167, 5816.453
469.7989, 5765.566
470.2810, 5709.546
470.7631, 5681.745
471.2452, 5695.893
471.7273, 5699.431
472.2094, 5683.877
472.6916, 5657.988
473.1737, 5643.790
473.6558, 5643.269
474.1379, 5643.096
474.6200, 5638.183
475.1021, 5628.743
475.5843, 5611.918
476.0664, 5586.031
476.5485, 5564.482
477.0306, 5570.508
477.5127, 5594.067
477.9948, 5602.935
478.4770, 5581.237
478.9591, 5548.270
479.4412, 5522.051
479.9233, 5503.077
480.4054, 5494.371
480.8875, 5503.476
481.3697, 5519.742
481.8518, 5535.900
482.3339, 5552.209
482.8160, 5562.028
483.2981, 5555.538
483.7802, 5542.828
484.2624, 5536.909
484.7445, 5547.258
485.2266, 5557.858
485.7087, 5564.934
486.1908, 5568.629
486.6729, 5571.632
487.1551, 5574.084
487.6372, 5576.039
488.1193, 5578.231
488.6014, 5583.878
489.0835, 5581.137
489.5656, 5565.269
490.0478, 5545.618
490.5299, 5537.166
491.0120, 5541.908
491.4941, 5549.126
491.9762, 5556.178
492.4583, 5563.195
492.9405, 5571.788
493.4226, 5582.410
493.9047, 5590.291
494.3868, 5591.296
494.8689, 5586.451
495.3510, 5577.646
495.8332, 5563.379
496.3153, 5550.500
496.7974, 5545.763
497.2795, 5548.238
497.7616, 5555.924
498.2437, 5584.083
498.7259, 5605.131
499.2080, 5585.331
499.6901, 5526.684
500.1722, 5487.998
500.6543, 5510.781
501.1364, 5555.710
501.6186, 5594.591
502.1007, 5630.151
502.5828, 5647.097
503.0649, 5630.558
503.5470, 5594.807
504.0291, 5571.738
504.5113, 5570.521
504.9934, 5570.922
505.4755, 5568.270
505.9576, 5562.551
506.4397, 5555.031
506.9218, 5542.688
507.4040, 5533.931
507.8861, 5537.994
508.3682, 5556.437
508.8503, 5570.021
509.3324, 5575.304
509.8145, 5576.305
510.2967, 5581.263
510.7788, 5589.575
511.2609, 5595.483
511.7430, 5598.264
512.2252, 5596.046
512.7073, 5579.744
513.1894, 5549.609
513.6715, 5526.636
514.1536, 5532.078
514.6357, 5552.617
515.1179, 5572.030
515.6000, 5587.909
516.0821, 5599.138
516.5642, 5602.253
517.0463, 5600.663
517.5284, 5601.312
518.0106, 5609.028
518.4927, 5616.985
518.9748, 5625.045
519.4569, 5634.319
519.9390, 5631.915
520.4211, 5603.445
520.9033, 5575.245
521.3854, 5566.390
521.8675, 5589.888
522.3496, 5601.988
522.8317, 5595.945
523.3138, 5580.706
523.7960, 5576.930
524.2781, 5586.936
524.7602, 5593.239
525.2423, 5583.949
525.7244, 5565.363
526.2065, 5569.594
526.6887, 5597.579
527.1708, 5628.219
527.6529, 5643.896
528.1350, 5648.512
528.6171, 5649.651
529.0992, 5647.611
529.5814, 5645.336
530.0635, 5643.936
530.5456, 5644.195
531.0277, 5647.727
531.5098, 5668.187
531.9919, 5680.450
532.4741, 5660.371
532.9562, 5610.078
533.4383, 5581.113
533.9204, 5603.516
534.4025, 5640.164
534.8846, 5669.282
535.3668, 5690.883
535.8489, 5702.944
536.3310, 5702.452
536.8131, 5694.686
537.2952, 5685.547
537.7773, 5670.893
538.2595, 5668.259
538.7416, 5687.675
539.2237, 5722.788
539.7058, 5735.596
540.1879, 5723.661
540.6700, 5713.834
541.1522, 5728.675
541.6343, 5761.743
542.1164, 5789.541
542.5985, 5809.811
543.0806, 5825.295
543.5627, 5834.391
544.0449, 5841.028
544.5270, 5852.934
545.0091, 5872.778
545.4912, 5899.021
545.9733, 5939.034
546.4554, 5986.778
546.9376, 6019.760
547.4197, 6007.358
547.9018, 5995.131
548.3839, 6009.090
548.8660, 6060.749
549.3481, 6105.435
549.8303, 6141.483
550.3124, 6168.396
550.7945, 6183.212
551.2766, 6173.455
551.7587, 6181.423
552.2408, 6220.846
552.7230, 6275.864
553.2051, 6300.587
553.6872, 6290.838
554.1693, 6279.390
554.6514, 6288.290
555.1335, 6309.069
555.6157, 6298.488
556.0978, 6255.667
556.5799, 6205.359
557.0620, 6169.134
557.5441, 6140.714
558.0262, 6107.580
558.5084, 6064.682
558.9905, 6023.229
559.4726, 5987.607
559.9547, 5959.598
560.4368, 5942.339
560.9189, 5949.323
561.4011, 5955.928
561.8832, 5953.198
562.3653, 5941.077
562.8474, 5924.018
563.3295, 5889.929
563.8116, 5862.328
564.2938, 5854.846
564.7759, 5880.491
565.2580, 5887.666
565.7401, 5867.253
566.2222, 5839.400
566.7043, 5832.228
567.1865, 5848.446
567.6686, 5859.298
568.1507, 5855.237
568.6328, 5844.930
569.1149, 5851.023
569.5970, 5871.869
570.0792, 5890.448
570.5613, 5900.531
571.0434, 5900.436
571.5255, 5881.793
572.0076, 5843.981
572.4897, 5811.713
572.9719, 5803.459
573.4540, 5808.677
573.9361, 5817.454
574.4182, 5830.605
574.9003, 5841.788
575.3824, 5849.299
575.8646, 5853.673
576.3467, 5855.703
576.8288, 5854.528
577.3109, 5852.434
577.7930, 5851.345
578.2751, 5850.723
578.7573, 5841.966
579.2394, 5822.829
579.7215, 5801.539
580.2036, 5779.330
580.6857, 5756.533
581.1678, 5752.209
581.6500, 5770.509
582.1321, 5792.378
582.6142, 5792.210
583.0963, 5776.434
583.5784, 5765.152
584.0605, 5768.312
584.5427, 5772.620
585.0248, 5760.593
585.5069, 5738.237
585.9890, 5722.559
586.4711, 5722.947
586.9532, 5731.273
587.4354, 5747.521
587.9175, 5772.293
588.3996, 5786.999
588.8817, 5783.262
589.3638, 5771.676
589.8459, 5757.071
590.3281, 5727.611
590.8102, 5720.687
591.2923, 5745.771
591.7744, 5783.748
592.2565, 5806.320
592.7386, 5812.345
593.2208, 5810.392
593.7029, 5798.150
594.1850, 5783.002
594.6671, 5789.637
595.1492, 5815.291
595.6313, 5833.742
596.1135, 5818.243
596.5956, 5790.810
597.0777, 5786.473
597.5598, 5808.197
598.0419, 5821.460
598.5240, 5790.946
599.0062, 5749.344
599.4883, 5726.986
599.9704, 5737.008
600.4525, 5756.224
600.9346, 5788.997
601.4167, 5825.658
601.8989, 5849.512
602.3810, 5854.537
602.8631, 5855.087
603.3452, 5852.494
603.8273, 5847.355
604.3094, 5843.201
604.7916, 5839.850
605.2737, 5837.783
605.7558, 5837.058
606.2379, 5837.790
606.7200, 5843.259
607.2021, 5854.470
607.6843, 5860.100
608.1664, 5839.155
608.6485, 5807.905
609.1306, 5796.083
609.6127, 5819.751
610.0948, 5845.121
610.5770, 5848.757
611.0591, 5839.539
611.5412, 5832.517
612.0233, 5830.220
612.5054, 5832.823
612.9875, 5843.556
613.4697, 5861.206
613.9518, 5873.065
614.4339, 5878.479
614.9160, 5879.166
615.3981, 5874.920
615.8802, 5865.322
616.3624, 5856.128
616.8445, 5846.971
617.3266, 5839.622
617.8087, 5836.613
618.2908, 5837.190
618.7729, 5838.884
619.2551, 5842.937
619.7372, 5842.821
620.2193, 5821.100
620.7014, 5790.001
621.1835, 5775.558
621.6656, 5810.039
622.1478, 5844.881
622.6299, 5849.954
623.1120, 5831.560
623.5941, 5817.913
624.0762, 5816.504
624.5583, 5821.350
625.0405, 5832.912
625.5226, 5853.309
626.0047, 5861.838
626.4868, 5850.499
626.9689, 5839.573
627.4510, 5847.338
627.9332, 5875.426
628.4153, 5900.549
628.8974, 5923.245
629.3795, 5934.800
629.8616, 5912.020
630.3438, 5865.579
630.8259, 5834.738
631.3080, 5836.689
631.7901, 5854.947
632.2722, 5885.715
632.7543, 5920.835
633.2365, 5936.281
633.7186, 5896.732
634.2007, 5857.114
634.6828, 5848.800
635.1649, 5875.346
635.6470, 5894.777
636.1292, 5896.567
636.6113, 5896.513
637.0934, 5904.004
637.5755, 5923.722
638.0576, 5933.048
638.5397, 5927.945
639.0219, 5920.343
639.5040, 5926.500
639.9861, 5945.168
640.4682, 5960.219
640.9503, 5968.745
641.4324, 5970.377
641.9146, 5958.372
642.3967, 5938.340
642.8788, 5925.836
643.3609, 5934.059
643.8430, 5947.542
644.3251, 5956.719
644.8073, 5961.892
645.2894, 5966.234
645.7715, 5966.124
646.2536, 5969.483
646.7357, 5981.466
647.2178, 6003.814
647.7000, 6024.857
648.1821, 6049.235
648.6642, 6065.689
649.1463, 6059.547
649.6284, 6027.792
650.1105, 6014.845
650.5927, 6027.933
651.0748, 6049.890
651.5569, 6056.057
652.0390, 6050.798
652.5211, 6049.125
653.0032, 6057.878
653.4854, 6069.062
653.9675, 6077.718
654.4496, 6083.083
654.9317, 6083.388
655.4138, 6059.650
655.8959, 6047.801
656.3781, 6073.203
656.8602, 6135.021
657.3423, 6175.620
657.8244, 6173.021
658.3065, 6173.910
658.7886, 6207.067
659.2708, 6281.281
659.7529, 6313.738
660.2350, 6294.397
660.7171, 6265.622
661.1992, 6265.838
661.6813, 6291.788
662.1635, 6331.704
662.6456, 6387.185
663.1277, 6443.144
663.6099, 6482.198
664.0920, 6510.603
664.5741, 6539.938
665.0562, 6569.744
665.5383, 6606.436
666.0204, 6655.721
666.5026, 6714.278
666.9847, 6772.711
667.4668, 6837.725
667.9489, 6892.980
668.4310, 6930.962
668.9131, 6953.912
669.3953, 6991.365
669.8774, 7048.650
670.3595, 7102.566
670.8416, 7137.128
671.3237, 7154.929
671.8058, 7173.403
672.2880, 7192.670
672.7701, 7212.715
673.2522, 7238.500
673.7343, 7263.197
674.2164, 7278.871
674.6985, 7286.257
675.1807, 7276.504
675.6628, 7235.872
676.1449, 7179.119
676.6270, 7123.682
677.1091, 7068.790
677.5912, 7022.113
678.0734, 6992.309
678.5555, 6968.550
679.0376, 6922.567
679.5197, 6845.962
680.0018, 6778.590
680.4839, 6734.471
680.9661, 6706.591
681.4482, 6672.075
681.9303, 6631.560
682.4124, 6589.709
682.8945, 6547.671
683.3766, 6507.358
683.8588, 6471.553
684.3409, 6440.037
684.8230, 6411.359
685.3051, 6387.840
685.7872, 6364.413
686.2693, 6334.909
686.7515, 6289.424
687.2336, 6264.831
687.7157, 6275.526
688.1978, 6295.525
688.6799, 6300.480
689.1620, 6284.642
689.6442, 6281.625
690.1263, 6299.877
690.6084, 6320.119
691.0905, 6302.809
691.5726, 6257.069
692.0547, 6230.479
692.5369, 6248.594
693.0190, 6275.669
693.5011, 6271.166
693.9832, 6244.544
694.4653, 6219.264
694.9474, 6197.347
695.4296, 6186.799
695.9117, 6202.526
696.3938, 6239.940
696.8759, 6249.468
697.3580, 6207.166
697.8401, 6168.358
698.3223, 6155.396
698.8044, 6168.795
699.2865, 6182.444
699.7686, 6196.734
700.2507, 6209.241
700.7328, 6218.680
701.2150, 6224.608
701.6971, 6224.354
702.1792, 6216.862
702.6613, 6209.837
703.1434, 6208.260
703.6255, 6210.968
704.1077, 6217.343
704.5898, 6230.466
705.0719, 6240.546
705.5540, 6247.852
706.0361, 6249.351
706.5182, 6239.939
707.0004, 6207.729
707.4825, 6191.274
707.9646, 6201.506
708.4467, 6224.926
708.9288, 6233.889
709.4109, 6228.605
709.8931, 6213.760
710.3752, 6184.341
710.8573, 6153.222
711.3394, 6140.278
711.8215, 6143.525
712.3036, 6155.185
712.7858, 6182.392
713.2679, 6207.097
713.7500, 6211.420
714.2321, 6196.536
714.7142, 6195.762
715.1964, 6239.437
715.6785, 6274.813
716.1606, 6278.349
716.6427, 6246.091
717.1248, 6216.247
717.6069, 6186.428
718.0891, 6166.983
718.5712, 6170.866
719.0533, 6193.810
719.5354, 6221.447
720.0175, 6254.798
720.4996, 6275.667
720.9818, 6257.339
721.4639, 6220.919
721.9460, 6193.831
722.4281, 6184.699
722.9102, 6181.461
723.3923, 6179.238
723.8745, 6181.142
724.3566, 6191.395
724.8387, 6212.136
725.3208, 6237.911
725.8029, 6273.191
726.2850, 6308.817
726.7672, 6327.592
727.2493, 6329.345
727.7314, 6317.112
728.2135, 6282.961
728.6956, 6245.461
729.1777, 6234.909
729.6599, 6247.047
730.1420, 6266.637
730.6241, 6298.607
731.1062, 6324.446
731.5883, 6329.727
732.0704, 6316.722
732.5526, 6304.785
733.0347, 6294.975
733.5168, 6290.114
733.9989, 6293.379
734.4810, 6304.828
734.9631, 6309.925
735.4453, 6308.193
735.9274, 6302.765
736.4095, 6293.045
736.8916, 6281.254
737.3737, 6276.479
737.8558, 6279.068
738.3380, 6281.734
738.8201, 6272.005
739.3022, 6262.832
739.7843, 6269.882
740.2664, 6301.062
740.7485, 6328.282
741.2307, 6347.900
741.7128, 6356.535
742.1949, 6349.600
742.6770, 6315.765
743.1591, 6295.729
743.6412, 6293.003
744.1234, 6301.018
744.6055, 6313.792
745.0876, 6330.565
745.5697, 6344.153
746.0518, 6352.521
746.5339, 6358.644
747.0161, 6367.051
747.4982, 6375.228
747.9803, 6378.692
748.4624, 6374.431
748.9445, 6366.348
749.4266, 6349.065
749.9088, 6329.354
750.3909, 6324.768
750.8730, 6347.451
751.3551, 6363.491
751.8372, 6363.352
752.3193, 6352.908
752.8015, 6352.005
753.2836, 6360.685
753.7657, 6368.168
754.2478, 6365.300
754.7299, 6361.175
755.2120, 6374.404
755.6942, 6400.754
756.1763, 6420.780
756.6584, 6417.722
757.1405, 6410.713
757.6226, 6408.893
758.1047, 6412.642
758.5869, 6419.092
759.0690, 6431.256
759.5511, 6440.945
760.0332, 6445.151
760.5153, 6443.816
760.9974, 6434.806
761.4796, 6417.236
761.9617, 6401.258
762.4438, 6392.803
762.9259, 6392.280
763.4080, 6402.396
763.8901, 6423.683
764.3723, 6447.582
764.8544, 6483.701
765.3365, 6510.605
765.8186, 6506.140
766.3007, 6447.764
766.7828, 6415.759
767.2650, 6429.014
767.7471, 6453.580
768.2292, 6460.892
768.7113, 6448.500
769.1934, 6439.543
769.6755, 6434.718
770.1577, 6435.771
770.6398, 6447.754
771.1219, 6466.924
771.6040, 6485.605
772.0861, 6504.059
772.5682, 6516.073
773.0504, 6515.292
773.5325, 6506.880
774.0146, 6496.942
774.4967, 6485.779
774.9788, 6474.400
775.4609, 6461.461
775.9431, 6449.521
776.4252, 6442.454
776.9073, 6440.709
777.3894, 6439.543
777.8715, 6436.730
778.3536, 6436.941
778.8358, 6453.116
779.3179, 6478.694
779.8000, 6495.619
780.2821, 6494.413
780.7642, 6486.465
781.2463, 6470.124
781.7285, 6452.706
782.2106, 6450.038
782.6927, 6479.065
783.1748, 6506.020
783.6569, 6525.848
784.1390, 6539.980
784.6212, 6552.721
785.1033, 6564.068
785.5854, 6572.129
786.0675, 6574.473
786.5496, 6574.683
787.0317, 6585.544
787.5139, 6601.303
787.9960, 6602.173
788.4781, 6562.812
788.9602, 6519.964
789.4423, 6487.548
789.9244, 6467.977
790.4066, 6471.024
790.8887, 6522.218
791.3708, 6558.989
791.8529, 6557.192
792.3350, 6525.429
792.8171, 6515.181
793.2993, 6527.627
793.7814, 6538.514
794.2635, 6530.961
794.7456, 6515.077
795.2277, 6507.595
795.7098, 6507.452
796.1920, 6508.528
796.6741, 6506.118
797.1562, 6505.382
797.6383, 6511.030
798.1204, 6523.460
798.6025, 6529.992
799.0847, 6527.149
799.5668, 6524.022
800.0489, 6525.282
800.5310, 6530.164
801.0131, 6532.437
801.4952, 6531.980
801.9774, 6528.087
802.4595, 6515.002
802.9416, 6500.935
803.4237, 6495.592
803.9058, 6499.519
804.3879, 6510.597
804.8701, 6540.122
805.3522, 6566.499
805.8343, 6573.916
806.3164, 6560.303
806.7985, 6555.744
807.2806, 6564.500
807.7628, 6573.104
808.2449, 6571.305
808.7270, 6561.074
809.2091, 6554.278
809.6912, 6551.188
810.1733, 6550.896
810.6555, 6556.583
811.1376, 6562.176
811.6197, 6557.791
812.1018, 6540.449
812.5839, 6534.603
813.0660, 6561.175
813.5482, 6589.326
814.0303, 6601.067
814.5124, 6594.204
814.9945, 6586.891
815.4766, 6578.720
815.9587, 6572.269
816.4409, 6569.986
816.9230, 6571.350
817.4051, 6574.104
817.8872, 6578.229
818.3693, 6586.198
818.8514, 6608.784
819.3336, 6630.189
819.8157, 6634.217
820.2978, 6611.309
820.7799, 6603.388
821.2620, 6623.936
821.7441, 6646.592
822.2263, 6651.673
822.7084, 6637.280
823.1905, 6632.258
823.6726, 6637.481
824.1547, 6646.241
824.6368, 6654.297
825.1190, 6660.910
825.6011, 6664.964
826.0832, 6666.109
826.5653, 6666.608
827.0474, 6665.775
827.5295, 6666.149
828.0117, 6670.473
828.4938, 6680.732
828.9760, 6688.608
829.4581, 6695.093
829.9402, 6697.889
830.4223, 6691.975
830.9044, 6679.874
831.3865, 6676.799
831.8687, 6684.063
832.3508, 6691.977
832.8329, 6692.135
833.3150, 6688.784
833.7971, 6686.491
834.2792, 6686.630
834.7614, 6683.625
835.2435, 6670.500
835.7256, 6658.716
836.2077, 6654.694
836.6898, 6659.110
837.1719, 6668.500
837.6541, 6684.235
838.1362, 6697.737
838.6183, 6697.595
839.1004, 6690.901
839.5825, 6694.821
840.0646, 6711.469
840.5468, 6723.310
841.0289, 6710.696
841.5110, 6696.435
841.9931, 6698.053
842.4752, 6721.051
842.9573, 6742.923
843.4395, 6764.384
843.9216, 6783.104
844.4037, 6799.216
844.8858, 6811.840
845.3679, 6808.856
845.8500, 6789.785
846.3322, 6772.887
846.8143, 6774.300
847.2964, 6784.263
847.7785, 6794.328
848.2606, 6803.682
848.7427, 6809.522
849.2249, 6808.966
849.7070, 6806.844
850.1891, 6806.841
850.6712, 6809.590
851.1533, 6801.535
851.6354, 6781.014
852.1176, 6760.749
852.5997, 6744.225
853.0818, 6736.035
853.5639, 6751.509
854.0460, 6788.873
854.5281, 6821.477
855.0103, 6828.960
855.4924, 6831.710
855.9745, 6844.741
856.4566, 6869.466
856.9387, 6878.136
857.4208, 6861.948
857.9030, 6848.710
858.3851, 6853.016
858.8672, 6871.769
859.3493, 6895.628
859.8314, 6923.272
860.3135, 6941.016
860.7957, 6934.117
861.2778, 6918.500
861.7599, 6903.499
862.2420, 6890.714
862.7241, 6886.614
863.2062, 6902.447
863.6884, 6916.111
864.1705, 6920.770
864.6526, 6917.853
865.1347, 6915.841
865.6168, 6914.663
866.0989, 6913.536
866.5811, 6907.506
867.0632, 6904.570
867.5453, 6923.792
868.0274, 6957.303
868.5095, 6978.504
868.9916, 6963.725
869.4738, 6948.425
869.9559, 6947.814
870.4380, 6957.370
870.9201, 6963.529
871.4022, 6965.874
871.8843, 6967.836
872.3665, 6970.737
872.8486, 6973.683
873.3307, 6973.017
873.8128, 6970.418
874.2949, 6971.562
874.7770, 6981.161
875.2592, 6992.221
875.7413, 6996.646
876.2234, 7000.208
876.7055, 7016.591
877.1876, 7055.234
877.6697, 7089.820
878.1519, 7121.078
878.6340, 7140.569
879.1161, 7121.146
879.5982, 7071.962
880.0803, 7049.227
880.5624, 7076.997
881.0446, 7112.226
881.5267, 7111.250
882.0088, 7095.886
882.4909, 7095.872
882.9730, 7150.478
883.4551, 7172.049
883.9373, 7134.671
884.4194, 7085.841
884.9015, 7083.954
885.3836, 7129.515
885.8657, 7167.356
886.3478, 7191.971
886.8300, 7202.819
887.3121, 7188.934
887.7942, 7165.362
888.2763, 7151.592
888.7584, 7151.784
889.2405, 7159.932
889.7227, 7183.599
890.2048, 7206.776
890.6869, 7216.569
891.1690, 7208.201
891.6511, 7215.823
892.1332, 7241.269
892.6154, 7269.606
893.0975, 7292.704
893.5796, 7307.731
894.0617, 7305.455
894.5438, 7285.736
895.0259, 7273.704
895.5081, 7288.576
895.9902, 7308.787
896.4723, 7321.707
896.9544, 7327.549
897.4365, 7336.670
897.9186, 7348.764
898.4008, 7367.670
898.8829, 7402.559
899.3650, 7443.754
899.8471, 7467.263
900.3292, 7474.563
900.8113, 7473.737
901.2935, 7454.346
901.7756, 7442.038
902.2577, 7450.691
902.7398, 7479.154
903.2219, 7515.725
903.7040, 7561.736
904.1862, 7610.998
904.6683, 7663.135
905.1504, 7714.698
905.6325, 7760.547
906.1146, 7800.652
906.5967, 7835.616
907.0789, 7862.205
907.5610, 7889.094
908.0431, 7918.194
908.5252, 7952.359
909.0073, 7998.028
909.4894, 8057.102
909.9716, 8124.119
910.4537, 8197.495
910.9358, 8280.311
911.4179, 8384.182
911.9000, 8504.697
912.3821, 8613.684
912.8643, 8703.347
913.3464, 8795.822
913.8285, 8900.394
914.3106, 9022.104
914.7927, 9166.449
915.2748, 9336.575
915.7570, 9526.566
916.2391, 9735.629
916.7212, 9959.513
917.2033, 10194.13
917.6854, 10439.89
918.1675, 10701.26
918.6497, 10979.60
919.1318, 11269.59
919.6139, 11563.62
920.0960, 11870.06
920.5781, 12193.13
921.0602, 12533.23
921.5424, 12899.80
922.0245, 13320.76
922.5066, 13728.05
922.9887, 14091.16
923.4708, 14418.37
923.9529, 14761.97
924.4351, 15121.86
924.9172, 15481.49
925.3993, 15852.86
925.8814, 16202.24
926.3635, 16502.00
926.8456, 16759.21
927.3278, 16989.98
927.8099, 17202.21
928.2920, 17382.05
928.7741, 17536.32
929.2562, 17649.08
929.7383, 17689.27
930.2205, 17658.13
930.7026, 17583.87
931.1847, 17487.84
931.6668, 17310.13
932.1489, 16974.69
932.6310, 16524.96
933.1132, 16020.10
933.5953, 15430.36
934.0774, 14857.67
934.5595, 14309.82
935.0416, 13775.61
935.5237, 13224.46
936.0059, 12662.90
936.4880, 12125.41
936.9701, 11615.66
937.4522, 11152.09
937.9343, 10741.41
938.4164, 10386.60
938.8986, 10086.67
939.3807, 9844.956
939.8628, 9624.669
940.3449, 9411.561
940.8270, 9225.524
941.3091, 9079.055
941.7913, 8965.932
942.2734, 8861.416
942.7555, 8765.703
943.2376, 8666.701
943.7197, 8548.275
944.2018, 8432.829
944.6840, 8339.349
945.1661, 8264.862
945.6482, 8199.645
946.1303, 8151.546
946.6124, 8100.153
947.0945, 8040.811
947.5767, 7979.150
948.0588, 7927.091
948.5409, 7882.964
949.0230, 7834.392
949.5051, 7775.173
949.9872, 7724.775
950.4694, 7714.340
950.9515, 7715.280
951.4336, 7692.791
951.9157, 7617.214
952.3978, 7572.534
952.8799, 7572.728
953.3621, 7581.995
953.8442, 7566.691
954.3263, 7533.257
954.8084, 7523.729
955.2905, 7538.514
955.7726, 7550.237
956.2548, 7536.075
956.7369, 7513.938
957.2190, 7492.385
957.7011, 7472.946
958.1832, 7470.185
958.6653, 7498.023
959.1475, 7509.375
959.6296, 7477.798
960.1117, 7427.810
960.5938, 7432.934
961.0759, 7479.095
961.5580, 7510.979
962.0402, 7501.118
962.5223, 7475.234
963.0044, 7433.373
963.4865, 7389.364
963.9686, 7366.033
964.4507, 7370.596
964.9329, 7379.516
965.4150, 7393.618
965.8971, 7404.335
966.3792, 7396.983
966.8613, 7378.694
967.3434, 7367.120
967.8256, 7365.093
968.3077, 7363.742
968.7898, 7361.228
969.2719, 7354.978
969.7540, 7339.064
970.2361, 7312.116
970.7183, 7311.271
971.2004, 7342.337
971.6825, 7367.524
972.1646, 7357.879
972.6467, 7332.504
973.1288, 7323.541
973.6110, 7328.059
974.0931, 7336.159
974.5752, 7346.289
975.0573, 7356.520
975.5394, 7370.079
976.0215, 7381.398
976.5037, 7376.996
976.9858, 7355.471
977.4679, 7341.107
977.9500, 7339.471
978.4321, 7342.877
978.9142, 7345.563
979.3964, 7346.400
979.8785, 7343.681
980.3606, 7336.419
980.8427, 7327.954
981.3248, 7316.561
981.8069, 7307.435
982.2891, 7304.345
982.7712, 7307.227
983.2533, 7310.958
983.7354, 7315.608
984.2175, 7321.830
984.6996, 7330.161
985.1818, 7339.987
985.6639, 7353.901
986.1460, 7369.617
986.6281, 7374.610
987.1102, 7357.048
987.5923, 7350.410
988.0745, 7365.009
988.5566, 7389.641
989.0387, 7402.619
989.5208, 7406.132
990.0029, 7408.196
990.4850, 7410.627
990.9672, 7413.452
991.4493, 7416.761
991.9314, 7420.707
992.4135, 7427.125
992.8957, 7441.521
993.3778, 7436.657
993.8599, 7407.748
994.3420, 7379.523
994.8242, 7376.613
995.3063, 7386.818
995.7884, 7384.419
996.2705, 7370.918
996.7526, 7365.832
997.2347, 7386.234
997.7169, 7407.952
998.1990, 7424.111
998.6811, 7434.041
999.1632, 7433.668
999.6453, 7422.372
1000.127, 7417.488
1000.610, 7427.221
1001.092, 7437.603
1001.574, 7422.608
1002.056, 7401.167
1002.538, 7402.125
1003.020, 7451.643
1003.502, 7484.269
1003.984, 7492.243
1004.466, 7487.528
1004.949, 7479.108
1005.431, 7466.604
1005.913, 7439.778
1006.395, 7400.104
1006.877, 7378.806
1007.359, 7413.949
1007.841, 7459.607
1008.323, 7487.029
1008.806, 7496.261
1009.288, 7499.419
1009.770, 7491.848
1010.252, 7495.167
1010.734, 7521.985
1011.216, 7549.503
1011.698, 7530.760
1012.180, 7483.301
1012.662, 7445.581
1013.145, 7425.199
1013.627, 7423.764
1014.109, 7462.007
1014.591, 7504.047
1015.073, 7522.035
1015.555, 7513.708
1016.037, 7500.692
1016.519, 7482.483
1017.002, 7470.980
1017.484, 7482.260
1017.966, 7499.296
1018.448, 7503.904
1018.930, 7497.626
1019.412, 7493.568
1019.894, 7497.989
1020.376, 7498.676
1020.858, 7491.892
1021.341, 7481.789
1021.823, 7476.084
1022.305, 7474.404
1022.787, 7474.334
1023.269, 7474.076
1023.751, 7479.822
1024.233, 7503.914
1024.715, 7530.132
1025.198, 7540.925
1025.680, 7530.364
1026.162, 7540.160
1026.644, 7574.638
1027.126, 7603.939
1027.608, 7601.206
1028.090, 7583.043
1028.572, 7573.550
1029.054, 7571.583
1029.536, 7572.385
1030.019, 7568.965
1030.501, 7575.789
1030.983, 7604.402
1031.465, 7637.025
1031.947, 7637.228
1032.429, 7609.379
1032.911, 7594.642
1033.393, 7604.459
1033.876, 7607.579
1034.358, 7557.503
1034.840, 7503.649
1035.322, 7498.870
1035.804, 7558.524
1036.286, 7583.331
1036.768, 7563.280
1037.250, 7541.073
1037.733, 7538.599
1038.215, 7548.731
1038.697, 7558.464
1039.179, 7567.585
1039.661, 7576.468
1040.143, 7586.452
1040.625, 7593.787
1041.107, 7593.333
1041.589, 7592.693
1042.072, 7603.956
1042.554, 7627.218
1043.036, 7639.028
1043.518, 7636.068
1044.000, 7635.620
1044.482, 7662.983
1044.964, 7691.869
1045.446, 7695.513
1045.928, 7671.412
1046.411, 7658.416
1046.893, 7660.651
1047.375, 7666.370
1047.857, 7672.190
1048.339, 7677.919
1048.821, 7681.711
1049.303, 7685.038
1049.785, 7692.345
1050.268, 7709.607
1050.750, 7722.322
1051.232, 7725.552
1051.714, 7721.930
1052.196, 7709.325
1052.678, 7686.647
1053.160, 7686.313
1053.642, 7709.273
1054.125, 7728.185
1054.607, 7717.775
1055.089, 7700.029
1055.571, 7693.426
1056.053, 7696.620
1056.535, 7698.294
1057.017, 7693.432
1057.499, 7698.692
1057.981, 7720.730
1058.464, 7746.493
1058.946, 7752.339
1059.428, 7747.227
1059.910, 7752.472
1060.392, 7775.305
1060.874, 7792.507
1061.356, 7787.658
1061.838, 7781.925
1062.320, 7788.107
1062.803, 7804.275
1063.285, 7809.978
1063.767, 7805.659
1064.249, 7797.213
1064.731, 7777.632
1065.213, 7765.904
1065.695, 7783.433
1066.177, 7817.003
1066.660, 7842.841
1067.142, 7859.875
1067.624, 7867.035
1068.106, 7862.464
1068.588, 7854.243
1069.070, 7849.693
1069.552, 7847.667
1070.034, 7845.492
1070.516, 7843.322
1070.999, 7845.857
1071.481, 7857.985
1071.963, 7872.110
1072.445, 7888.587
1072.927, 7903.850
1073.409, 7907.791
1073.891, 7901.653
1074.373, 7890.363
1074.855, 7872.009
1075.338, 7859.393
1075.820, 7873.767
1076.302, 7889.257
1076.784, 7876.162
1077.266, 7827.342
1077.748, 7813.261
1078.230, 7838.668
1078.713, 7864.895
1079.195, 7872.207
1079.677, 7863.986
1080.159, 7829.803
1080.641, 7784.525
1081.123, 7765.962
1081.605, 7813.327
1082.087, 7845.602
1082.569, 7852.601
1083.052, 7850.340
1083.534, 7859.304
1084.016, 7874.732
1084.498, 7881.368
1084.980, 7877.814
1085.462, 7875.850
1085.944, 7885.521
1086.426, 7894.104
1086.908, 7894.009
1087.391, 7888.682
1087.873, 7891.255
1088.355, 7901.576
1088.837, 7911.962
1089.319, 7923.277
1089.801, 7925.329
1090.283, 7890.778
1090.765, 7852.139
1091.248, 7851.792
1091.730, 7906.280
1092.212, 7932.854
1092.694, 7925.695
1093.176, 7913.689
1093.658, 7912.174
1094.140, 7918.587
1094.622, 7933.818
1095.104, 7953.159
1095.587, 7963.660
1096.069, 7943.314
1096.551, 7941.305
1097.033, 7974.757
1097.515, 8011.030
1097.997, 8002.036
1098.479, 7961.992
1098.961, 7960.465
1099.443, 8000.342
1099.926, 8031.585
1100.408, 8006.541
1100.890, 7983.718
1101.372, 8004.294
1101.854, 8047.505
1102.336, 8045.042
1102.818, 7996.984
1103.300, 7957.907
1103.783, 7941.868
1104.265, 7937.895
1104.747, 7940.297
1105.229, 7947.134
1105.711, 7956.815
1106.193, 7969.588
1106.675, 7986.996
1107.157, 8012.686
1107.640, 8028.379
1108.122, 8018.377
1108.604, 7999.229
1109.086, 8002.005
1109.568, 8016.712
1110.050, 8022.109
1110.532, 7979.902
1111.014, 7979.527
1111.496, 8049.117
1111.979, 8121.553
1112.461, 8124.641
1112.943, 8079.017
1113.425, 8063.757
1113.907, 8078.180
1114.389, 8097.612
1114.871, 8114.218
1115.353, 8127.245
1115.835, 8138.358
1116.318, 8145.053
1116.800, 8139.219
1117.282, 8122.294
1117.764, 8115.164
1118.246, 8122.367
1118.728, 8129.746
1119.210, 8134.136
1119.692, 8128.149
1120.175, 8093.922
1120.657, 8037.556
1121.139, 8024.968
1121.621, 8063.514
1122.103, 8086.673
1122.585, 8064.673
1123.067, 8033.946
1123.549, 8038.691
1124.031, 8062.652
1124.514, 8084.710
1124.996, 8103.734
1125.478, 8110.804
1125.960, 8101.541
1126.442, 8092.208
1126.924, 8090.789
1127.406, 8097.272
1127.888, 8118.137
1128.370, 8146.810
1128.853, 8165.059
1129.335, 8153.406
1129.817, 8148.283
1130.299, 8153.563
1130.781, 8167.249
1131.263, 8195.968
1131.745, 8231.443
1132.227, 8232.615
1132.710, 8201.352
1133.192, 8180.689
1133.674, 8213.638
1134.156, 8240.175
1134.638, 8227.460
1135.120, 8197.697
1135.602, 8200.866
1136.084, 8233.646
1136.567, 8248.223
1137.049, 8234.371
1137.531, 8220.989
1138.013, 8235.337
1138.495, 8254.596
1138.977, 8258.058
1139.459, 8248.430
1139.941, 8252.711
1140.423, 8272.893
1140.906, 8276.647
1141.388, 8246.683
1141.870, 8212.587
1142.352, 8200.371
1142.834, 8205.341
1143.316, 8226.090
1143.798, 8270.680
1144.280, 8289.711
1144.762, 8278.410
1145.245, 8261.809
1145.727, 8250.272
1146.209, 8245.603
1146.691, 8262.241
1147.173, 8285.671
1147.655, 8285.255
1148.137, 8211.615
1148.619, 8181.266
1149.102, 8210.893
1149.584, 8250.970
1150.066, 8248.024
1150.548, 8225.345
1151.030, 8245.375
1151.512, 8298.583
1151.994, 8328.349
1152.476, 8281.876
1152.958, 8251.516
1153.441, 8259.274
1153.923, 8283.996
1154.405, 8300.465
1154.887, 8308.996
1155.369, 8309.206
1155.851, 8301.252
1156.333, 8290.908
1156.815, 8266.550
1157.297, 8259.065
1157.780, 8290.757
1158.262, 8339.242
1158.744, 8337.847
1159.226, 8296.064
1159.708, 8281.634
1160.190, 8315.050
1160.672, 8345.145
1161.154, 8330.485
1161.637, 8307.113
1162.119, 8300.116
1162.601, 8307.084
1163.083, 8307.619
1163.565, 8302.106
1164.047, 8298.181
1164.529, 8299.640
1165.011, 8301.871
1165.494, 8302.885
1165.976, 8301.745
1166.458, 8294.789
1166.940, 8279.433
1167.422, 8285.119
1167.904, 8313.356
1168.386, 8340.552
1168.868, 8351.172
1169.350, 8357.415
1169.833, 8374.927
1170.315, 8394.310
1170.797, 8395.445
1171.279, 8362.090
1171.761, 8366.896
1172.243, 8418.067
1172.725, 8465.555
1173.207, 8464.110
1173.689, 8442.601
1174.172, 8434.017
1174.654, 8434.273
1175.136, 8424.945
1175.618, 8395.644
1176.100, 8380.067
1176.582, 8382.009
1177.064, 8396.959
1177.546, 8431.783
1178.029, 8469.908
1178.511, 8483.408
1178.993, 8473.794
1179.475, 8478.540
1179.957, 8520.159
1180.439, 8533.635
1180.921, 8495.110
1181.403, 8449.544
1181.885, 8475.418
1182.368, 8533.740
1182.850, 8552.957
1183.332, 8521.512
1183.814, 8495.268
1184.296, 8484.086
1184.778, 8480.752
1185.260, 8484.833
1185.742, 8492.999
1186.224, 8499.780
1186.707, 8505.206
1187.189, 8511.741
1187.671, 8524.215
1188.153, 8516.630
1188.635, 8465.902
1189.117, 8422.857
1189.599, 8408.001
1190.081, 8419.358
1190.564, 8470.033
1191.046, 8540.961
1191.528, 8577.862
1192.010, 8541.417
1192.492, 8521.348
1192.974, 8549.189
1193.456, 8581.525
1193.938, 8593.471
1194.421, 8587.281
1194.903, 8562.204
1195.385, 8525.179
1195.867, 8500.784
1196.349, 8507.620
1196.831, 8517.808
1197.313, 8527.560
1197.795, 8535.257
1198.277, 8538.696
1198.760, 8538.713
1199.242, 8539.397
1199.724, 8540.771
1200.206, 8542.877
1200.688, 8540.324
1201.170, 8546.310
1201.652, 8573.964
1202.134, 8600.419
1202.616, 8593.104
1203.099, 8559.638
1203.581, 8537.092
1204.063, 8527.900
1204.545, 8532.624
1205.027, 8569.744
1205.509, 8598.563
1205.991, 8606.571
1206.473, 8598.328
1206.956, 8573.522
1207.438, 8537.124
1207.920, 8512.536
1208.402, 8502.802
1208.884, 8506.745
1209.366, 8546.564
1209.848, 8572.081
1210.330, 8555.163
1210.813, 8519.200
1211.295, 8517.176
1211.777, 8542.574
1212.259, 8562.324
1212.741, 8571.460
1213.223, 8572.020
1213.705, 8550.296
1214.187, 8537.769
1214.669, 8552.894
1215.151, 8584.535
1215.634, 8597.429
1216.116, 8595.801
1216.598, 8599.323
1217.080, 8611.597
1217.562, 8634.550
1218.044, 8689.751
1218.526, 8732.578
1219.008, 8734.917
1219.491, 8708.357
1219.973, 8695.515
1220.455, 8694.273
1220.937, 8695.775
1221.419, 8696.136
1221.901, 8702.132
1222.383, 8732.501
1222.865, 8752.357
1223.348, 8735.300
1223.830, 8693.047
1224.312, 8688.698
1224.794, 8712.952
1225.276, 8723.777
1225.758, 8702.035
1226.240, 8674.081
1226.722, 8638.686
1227.204, 8614.539
1227.687, 8620.956
1228.169, 8649.136
1228.651, 8644.201
1229.133, 8614.089
1229.615, 8592.168
1230.097, 8596.192
1230.579, 8605.476
1231.061, 8618.235
1231.543, 8628.634
1232.026, 8629.717
1232.508, 8624.139
1232.990, 8630.060
1233.472, 8644.194
1233.954, 8651.889
1234.436, 8635.807
1234.918, 8627.975
1235.400, 8638.431
1235.883, 8654.385
1236.365, 8665.814
1236.847, 8673.389
1237.329, 8681.382
1237.811, 8688.422
1238.293, 8688.574
1238.775, 8665.064
1239.257, 8656.263
1239.740, 8677.693
1240.222, 8699.970
1240.704, 8686.770
1241.186, 8651.900
1241.668, 8634.726
1242.150, 8634.313
1242.632, 8637.905
1243.114, 8651.425
1243.596, 8651.012
1244.079, 8627.130
1244.561, 8601.429
1245.043, 8599.308
1245.525, 8613.220
1246.007, 8631.178
1246.489, 8650.819
1246.971, 8663.942
1247.453, 8660.177
1247.936, 8662.322
1248.418, 8674.175
1248.900, 8689.963
1249.382, 8704.492
1249.864, 8717.328
1250.346, 8730.534
1250.828, 8742.425
1251.310, 8739.741
1251.792, 8712.208
1252.275, 8686.316
1252.757, 8662.714
1253.239, 8653.103
1253.721, 8691.464
1254.203, 8740.292
1254.685, 8740.379
1255.167, 8694.042
1255.649, 8673.421
1256.131, 8691.369
1256.614, 8706.440
1257.096, 8709.232
1257.578, 8713.900
1258.060, 8749.294
1258.542, 8786.223
1259.024, 8785.281
1259.506, 8748.119
1259.988, 8733.509
1260.471, 8746.594
1260.953, 8754.396
1261.435, 8748.955
1261.917, 8741.030
1262.399, 8733.536
1262.881, 8734.854
1263.363, 8762.247
1263.845, 8808.376
1264.328, 8823.185
1264.810, 8804.438
1265.292, 8798.977
1265.774, 8819.418
1266.256, 8844.106
1266.738, 8861.417
1267.220, 8869.924
1267.702, 8865.488
1268.184, 8851.718
1268.667, 8840.819
1269.149, 8832.443
1269.631, 8819.202
1270.113, 8796.813
1270.595, 8785.247
1271.077, 8810.838
1271.559, 8838.127
1272.041, 8846.245
1272.523, 8841.043
1273.006, 8843.898
1273.488, 8851.893
1273.970, 8848.146
1274.452, 8826.234
1274.934, 8808.312
1275.416, 8799.354
1275.898, 8804.950
1276.380, 8833.153
1276.863, 8871.794
1277.345, 8891.510
1277.827, 8894.428
1278.309, 8882.000
1278.791, 8849.571
1279.273, 8832.382
1279.755, 8844.782
1280.237, 8863.072
1280.719, 8879.157
1281.202, 8895.085
1281.684, 8919.323
1282.166, 8945.156
1282.648, 8961.617
1283.130, 8966.302
1283.612, 8957.163
1284.094, 8925.030
1284.576, 8911.198
1285.058, 8937.664
1285.541, 8976.456
1286.023, 8995.358
1286.505, 8997.761
1286.987, 8981.041
1287.469, 8940.717
1287.951, 8934.546
1288.433, 8968.811
1288.915, 8985.273
1289.398, 8954.206
1289.880, 8918.533
1290.362, 8916.667
1290.844, 8936.729
1291.326, 8977.553
1291.808, 9033.790
1292.290, 9048.934
1292.772, 9024.635
1293.255, 9000.647
1293.737, 8990.838
1294.219, 8983.128
##END=



