##NAMES=Hemihedrite
##RRUFFID=R050551
##IDEAL CHEMISTRY=Pb^2+^_10_Zn^2+^(Cr^6+^O_4_)_6_(SiO_4_)_2_(OH)_2_
##LOCALITY=Belmont Mountains, Wickenberg, Maricopa County, Arizona, USA
##OWNER=RRUFF
##SOURCE=Dave Bunk Minerals
##DESCRIPTION=Orange fragments and bladed crystals
##STATUS=The identification of this mineral is confirmed by single-crystal X-ray diffraction and chemical analysis.
##URL=rruff.info/R050551
##MEASURED CHEMISTRY=Pb_10.06_(Zn_0.96_Mg_0.02_)_∑=0.98_(Cr_5.97_S_0.02_P_0.01_)_∑=6.00_Si_2.02_O_34_H_1.85_ ; H_2_O calculated to achieve 34 O atoms.
92.37695, 17976.21
92.85907, 17744.60
93.34119, 17793.56
93.82330, 17973.89
94.30542, 18118.40
94.78754, 18207.59
95.26965, 18273.01
95.75177, 18307.11
96.23389, 18314.14
96.71600, 18300.25
97.19812, 18282.94
97.68024, 18268.35
98.16235, 18256.65
98.64447, 18247.44
99.12659, 18217.09
99.60870, 18194.98
100.0908, 18151.05
100.5729, 18111.02
101.0551, 18067.77
101.5372, 18016.03
102.0193, 17952.60
102.5014, 17871.05
102.9835, 17771.48
103.4656, 17646.19
103.9478, 17503.36
104.4299, 17332.06
104.9120, 17115.17
105.3941, 16839.68
105.8762, 16498.90
106.3583, 16111.50
106.8405, 15653.74
107.3226, 15173.96
107.8047, 14687.60
108.2868, 14200.31
108.7689, 13723.19
109.2510, 13268.30
109.7332, 12834.32
110.2153, 12440.26
110.6974, 12100.16
111.1795, 11798.79
111.6616, 11511.66
112.1437, 11235.77
112.6259, 10976.16
113.1080, 10736.10
113.5901, 10515.40
114.0722, 10308.62
114.5543, 10116.07
115.0364, 9936.710
115.5185, 9768.171
116.0007, 9610.068
116.4828, 9463.693
116.9649, 9331.931
117.4470, 9215.423
117.9291, 9104.229
118.4112, 8982.986
118.8934, 8844.395
119.3755, 8714.691
119.8576, 8599.786
120.3397, 8491.032
120.8218, 8382.384
121.3039, 8271.295
121.7861, 8158.347
122.2682, 8044.201
122.7503, 7929.689
123.2324, 7813.086
123.7145, 7693.659
124.1966, 7571.910
124.6788, 7449.061
125.1609, 7324.301
125.6430, 7198.295
126.1251, 7077.015
126.6072, 6957.141
127.0893, 6843.256
127.5715, 6736.463
128.0536, 6636.815
128.5357, 6545.849
129.0178, 6466.206
129.4999, 6397.076
129.9821, 6327.776
130.4642, 6252.079
130.9463, 6178.577
131.4284, 6116.167
131.9105, 6066.056
132.3926, 6023.063
132.8748, 5986.269
133.3569, 5953.433
133.8390, 5921.865
134.3211, 5887.019
134.8032, 5852.071
135.2853, 5828.367
135.7674, 5822.561
136.2496, 5820.077
136.7317, 5814.785
137.2138, 5806.761
137.6959, 5796.738
138.1780, 5784.864
138.6601, 5770.980
139.1423, 5757.140
139.6244, 5741.630
140.1065, 5727.639
140.5886, 5720.220
141.0707, 5717.235
141.5528, 5710.334
142.0350, 5688.540
142.5171, 5643.532
142.9992, 5604.310
143.4813, 5576.942
143.9634, 5550.255
144.4455, 5517.427
144.9277, 5476.662
145.4098, 5429.081
145.8919, 5375.876
146.3740, 5311.475
146.8561, 5251.583
147.3382, 5197.556
147.8204, 5147.890
148.3025, 5101.113
148.7846, 5056.899
149.2667, 5014.485
149.7488, 4971.588
150.2309, 4926.964
150.7131, 4884.740
151.1952, 4849.231
151.6773, 4817.923
152.1594, 4782.470
152.6415, 4736.048
153.1236, 4687.604
153.6058, 4650.591
154.0879, 4627.743
154.5700, 4608.438
155.0521, 4584.611
155.5342, 4556.167
156.0163, 4527.420
156.4985, 4499.470
156.9806, 4472.405
157.4627, 4446.715
157.9448, 4422.723
158.4269, 4399.219
158.9090, 4373.504
159.3912, 4343.417
159.8733, 4316.964
160.3554, 4297.272
160.8375, 4280.969
161.3196, 4265.539
161.8017, 4250.058
162.2839, 4234.227
162.7660, 4217.229
163.2481, 4197.553
163.7302, 4178.640
164.2123, 4161.999
164.6944, 4146.085
165.1766, 4128.436
165.6587, 4107.291
166.1408, 4083.951
166.6229, 4066.625
167.1050, 4065.125
167.5871, 4059.001
168.0693, 4040.223
168.5514, 4013.682
169.0335, 3989.507
169.5156, 3974.887
169.9977, 3968.852
170.4798, 3957.171
170.9620, 3936.537
171.4441, 3914.766
171.9262, 3895.620
172.4083, 3878.688
172.8904, 3861.158
173.3725, 3841.150
173.8547, 3818.620
174.3368, 3795.197
174.8189, 3770.195
175.3010, 3744.645
175.7831, 3719.535
176.2652, 3694.866
176.7474, 3670.075
177.2295, 3647.091
177.7116, 3623.532
178.1937, 3593.842
178.6758, 3549.085
179.1579, 3500.197
179.6401, 3464.707
180.1222, 3447.046
180.6043, 3430.350
181.0864, 3406.633
181.5685, 3376.650
182.0506, 3340.193
182.5328, 3292.538
183.0149, 3238.874
183.4970, 3195.374
183.9791, 3166.198
184.4612, 3142.140
184.9433, 3119.061
185.4255, 3097.386
185.9076, 3078.119
186.3897, 3063.370
186.8718, 3052.265
187.3539, 3035.529
187.8360, 3008.719
188.3182, 2980.252
188.8003, 2949.648
189.2824, 2919.230
189.7645, 2892.934
190.2466, 2874.385
190.7287, 2863.817
191.2109, 2853.763
191.6930, 2848.955
192.1751, 2840.095
192.6572, 2819.561
193.1393, 2791.521
193.6214, 2766.821
194.1036, 2755.877
194.5857, 2761.113
195.0678, 2760.117
195.5499, 2750.602
196.0320, 2738.576
196.5141, 2725.381
196.9963, 2711.871
197.4784, 2699.662
197.9605, 2690.658
198.4426, 2685.509
198.9247, 2678.246
199.4068, 2666.452
199.8890, 2654.575
200.3711, 2644.749
200.8532, 2637.363
201.3353, 2633.333
201.8174, 2635.285
202.2995, 2643.483
202.7817, 2644.591
203.2638, 2633.011
203.7459, 2617.065
204.2280, 2604.088
204.7101, 2594.854
205.1922, 2587.264
205.6744, 2578.845
206.1565, 2570.218
206.6386, 2564.928
207.1207, 2566.975
207.6028, 2571.518
208.0849, 2571.092
208.5671, 2563.868
209.0492, 2556.687
209.5313, 2556.410
210.0134, 2560.380
210.4955, 2563.133
210.9776, 2561.037
211.4598, 2556.562
211.9419, 2555.613
212.4240, 2559.844
212.9061, 2564.316
213.3882, 2566.202
213.8703, 2566.240
214.3525, 2565.553
214.8346, 2563.665
215.3167, 2561.489
215.7988, 2562.858
216.2809, 2570.536
216.7630, 2577.545
217.2451, 2581.306
217.7273, 2582.430
218.2094, 2581.840
218.6915, 2579.483
219.1736, 2575.864
219.6557, 2574.021
220.1378, 2574.209
220.6200, 2576.205
221.1021, 2583.115
221.5842, 2591.302
222.0663, 2594.377
222.5484, 2586.866
223.0305, 2570.493
223.5127, 2562.092
223.9948, 2575.374
224.4769, 2582.480
224.9590, 2573.430
225.4411, 2554.534
225.9232, 2536.698
226.4054, 2527.087
226.8875, 2525.123
227.3696, 2523.515
227.8517, 2523.368
228.3338, 2522.445
228.8159, 2518.829
229.2981, 2514.192
229.7802, 2511.615
230.2623, 2513.237
230.7444, 2518.625
231.2265, 2522.798
231.7086, 2528.991
232.1908, 2530.659
232.6729, 2521.197
233.1550, 2506.078
233.6371, 2496.638
234.1192, 2500.655
234.6013, 2515.450
235.0835, 2520.673
235.5656, 2505.752
236.0477, 2494.750
236.5298, 2498.402
237.0119, 2511.451
237.4940, 2522.040
237.9762, 2523.347
238.4583, 2517.296
238.9404, 2513.046
239.4225, 2511.769
239.9046, 2510.591
240.3867, 2507.360
240.8689, 2503.373
241.3510, 2502.288
241.8331, 2506.683
242.3152, 2514.367
242.7973, 2518.604
243.2794, 2517.269
243.7616, 2516.480
244.2437, 2519.918
244.7258, 2526.166
245.2079, 2530.679
245.6900, 2530.912
246.1721, 2529.164
246.6543, 2530.479
247.1364, 2536.193
247.6185, 2541.074
248.1006, 2542.947
248.5827, 2541.944
249.0648, 2537.657
249.5470, 2527.174
250.0291, 2516.772
250.5112, 2515.928
250.9933, 2525.740
251.4754, 2536.860
251.9576, 2546.134
252.4397, 2552.971
252.9218, 2554.423
253.4039, 2547.115
253.8860, 2537.171
254.3681, 2531.856
254.8503, 2531.128
255.3324, 2530.087
255.8145, 2524.483
256.2966, 2515.527
256.7787, 2509.869
257.2608, 2511.065
257.7430, 2512.687
258.2251, 2508.736
258.7072, 2500.019
259.1893, 2491.823
259.6714, 2488.141
260.1535, 2488.132
260.6357, 2487.071
261.1178, 2484.560
261.5999, 2480.791
262.0820, 2474.875
262.5641, 2467.738
263.0462, 2462.194
263.5284, 2460.941
264.0105, 2463.191
264.4926, 2464.382
264.9747, 2465.087
265.4568, 2463.614
265.9389, 2457.675
266.4211, 2449.286
266.9032, 2442.619
267.3853, 2440.782
267.8674, 2442.580
268.3495, 2442.216
268.8316, 2435.566
269.3138, 2433.400
269.7959, 2442.911
270.2780, 2458.103
270.7601, 2469.613
271.2422, 2471.426
271.7243, 2467.257
272.2065, 2470.215
272.6886, 2486.813
273.1707, 2499.476
273.6528, 2498.642
274.1349, 2493.614
274.6170, 2495.511
275.0992, 2509.726
275.5813, 2531.768
276.0634, 2549.891
276.5455, 2559.568
277.0276, 2574.188
277.5097, 2602.517
277.9919, 2632.841
278.4740, 2651.949
278.9561, 2655.332
279.4382, 2653.295
279.9203, 2666.159
280.4024, 2701.908
280.8846, 2736.063
281.3667, 2765.498
281.8488, 2793.001
282.3309, 2820.030
282.8130, 2847.121
283.2951, 2874.493
283.7773, 2902.145
284.2594, 2929.000
284.7415, 2959.056
285.2236, 2991.537
285.7057, 3027.364
286.1878, 3068.151
286.6700, 3113.385
287.1521, 3160.679
287.6342, 3207.531
288.1163, 3253.079
288.5984, 3300.452
289.0805, 3348.133
289.5627, 3398.524
290.0448, 3452.806
290.5269, 3511.000
291.0090, 3572.493
291.4911, 3637.475
291.9732, 3706.353
292.4554, 3771.727
292.9375, 3828.680
293.4196, 3887.255
293.9017, 3950.066
294.3838, 4017.144
294.8659, 4088.356
295.3481, 4164.080
295.8302, 4243.974
296.3123, 4319.221
296.7944, 4381.090
297.2765, 4447.820
297.7586, 4526.085
298.2408, 4610.778
298.7229, 4693.252
299.2050, 4768.299
299.6871, 4838.280
300.1692, 4911.848
300.6513, 4991.983
301.1335, 5072.063
301.6156, 5148.368
302.0977, 5224.969
302.5798, 5306.581
303.0619, 5394.827
303.5440, 5488.256
304.0262, 5585.567
304.5083, 5689.708
304.9904, 5792.588
305.4725, 5891.860
305.9546, 5991.025
306.4367, 6093.444
306.9189, 6199.607
307.4010, 6308.208
307.8831, 6417.442
308.3652, 6526.999
308.8473, 6637.858
309.3294, 6751.181
309.8116, 6865.233
310.2937, 6977.434
310.7758, 7088.581
311.2579, 7202.051
311.7400, 7320.660
312.2221, 7446.341
312.7043, 7570.115
313.1864, 7689.235
313.6685, 7809.931
314.1506, 7930.081
314.6327, 8053.897
315.1148, 8190.033
315.5970, 8344.432
316.0791, 8516.584
316.5612, 8699.519
317.0433, 8894.713
317.5254, 9100.527
318.0075, 9313.827
318.4897, 9537.842
318.9718, 9777.405
319.4539, 10035.06
319.9360, 10308.79
320.4181, 10595.31
320.9002, 10881.65
321.3824, 11197.46
321.8645, 11558.73
322.3466, 11941.46
322.8287, 12323.98
323.3108, 12696.58
323.7929, 13071.44
324.2751, 13466.35
324.7572, 13895.15
325.2393, 14320.72
325.7214, 14748.33
326.2035, 15172.09
326.6856, 15590.59
327.1678, 16003.08
327.6499, 16411.70
328.1320, 16820.72
328.6141, 17232.07
329.0962, 17637.47
329.5783, 18033.92
330.0605, 18428.56
330.5426, 18826.62
331.0247, 19226.56
331.5068, 19620.58
331.9889, 20004.15
332.4710, 20376.94
332.9532, 20732.16
333.4353, 21077.55
333.9174, 21398.29
334.3995, 21698.21
334.8816, 21968.87
335.3637, 22197.25
335.8459, 22375.18
336.3280, 22510.46
336.8101, 22621.21
337.2922, 22709.46
337.7743, 22766.09
338.2564, 22785.82
338.7386, 22780.06
339.2206, 22760.63
339.7028, 22730.07
340.1849, 22679.82
340.6670, 22598.67
341.1491, 22491.26
341.6312, 22338.32
342.1133, 22143.07
342.5955, 21907.82
343.0776, 21625.98
343.5597, 21302.29
344.0418, 20951.45
344.5239, 20584.33
345.0060, 20200.06
345.4882, 19814.69
345.9703, 19406.13
346.4524, 19018.75
346.9345, 18658.66
347.4166, 18329.38
347.8987, 18033.22
348.3809, 17772.41
348.8630, 17547.17
349.3451, 17364.30
349.8272, 17231.64
350.3093, 17132.09
350.7914, 17065.01
351.2736, 17022.76
351.7557, 17002.39
352.2378, 17002.39
352.7199, 17013.57
353.2020, 17024.53
353.6841, 17041.93
354.1663, 17037.71
354.6484, 17020.28
355.1305, 16972.51
355.6126, 16884.25
356.0947, 16754.11
356.5768, 16585.29
357.0590, 16384.47
357.5411, 16154.06
358.0232, 15865.67
358.5053, 15485.08
358.9874, 15080.01
359.4695, 14667.97
359.9517, 14255.74
360.4338, 13854.04
360.9159, 13465.60
361.3980, 13094.66
361.8801, 12748.08
362.3622, 12427.18
362.8444, 12133.33
363.3265, 11875.07
363.8086, 11637.47
364.2907, 11405.80
364.7728, 11174.23
365.2549, 10949.21
365.7371, 10739.38
366.2192, 10544.69
366.7013, 10357.05
367.1834, 10165.02
367.6655, 9988.908
368.1476, 9843.480
368.6298, 9728.564
369.1119, 9635.343
369.5940, 9564.686
370.0761, 9512.490
370.5582, 9461.253
371.0403, 9413.203
371.5225, 9359.216
372.0046, 9300.410
372.4867, 9232.278
372.9688, 9140.450
373.4509, 9010.401
373.9330, 8859.755
374.4152, 8709.330
374.8973, 8558.201
375.3794, 8419.276
375.8615, 8295.141
376.3436, 8191.512
376.8257, 8114.553
377.3079, 8065.690
377.7900, 8041.577
378.2721, 8041.351
378.7542, 8064.190
379.2363, 8108.596
379.7184, 8179.294
380.2006, 8263.867
380.6827, 8351.109
381.1648, 8441.006
381.6469, 8521.604
382.1290, 8587.436
382.6111, 8642.793
383.0933, 8689.386
383.5754, 8726.956
384.0575, 8769.131
384.5396, 8828.052
385.0217, 8902.826
385.5038, 8980.386
385.9860, 9052.722
386.4681, 9134.339
386.9502, 9239.270
387.4323, 9361.843
387.9144, 9487.948
388.3965, 9615.279
388.8787, 9734.022
389.3608, 9816.243
389.8429, 9866.121
390.3250, 9882.666
390.8071, 9865.388
391.2892, 9814.697
391.7714, 9730.361
392.2535, 9612.714
392.7356, 9462.862
393.2177, 9281.572
393.6998, 9063.986
394.1819, 8826.962
394.6641, 8566.427
395.1462, 8290.915
395.6283, 8000.099
396.1104, 7698.569
396.5925, 7399.033
397.0746, 7106.675
397.5568, 6824.753
398.0389, 6561.060
398.5210, 6311.258
399.0031, 6088.757
399.4852, 5901.216
399.9673, 5738.610
400.4495, 5589.319
400.9316, 5450.040
401.4137, 5323.419
401.8958, 5214.663
402.3779, 5129.593
402.8600, 5047.596
403.3422, 4968.029
403.8243, 4891.101
404.3064, 4820.757
404.7885, 4753.663
405.2706, 4680.888
405.7527, 4595.627
406.2349, 4498.831
406.7170, 4402.221
407.1991, 4310.896
407.6812, 4212.609
408.1633, 4104.329
408.6454, 3988.621
409.1276, 3867.004
409.6097, 3740.219
410.0918, 3611.379
410.5739, 3481.909
411.0560, 3350.167
411.5381, 3229.286
412.0203, 3125.597
412.5024, 3031.130
412.9845, 2944.077
413.4666, 2863.519
413.9487, 2786.035
414.4308, 2708.708
414.9130, 2632.778
415.3951, 2562.753
415.8772, 2498.529
416.3593, 2440.608
416.8414, 2391.816
417.3235, 2348.650
417.8057, 2306.767
418.2878, 2264.439
418.7699, 2224.419
419.2520, 2190.804
419.7341, 2162.807
420.2162, 2132.459
420.6984, 2096.297
421.1805, 2058.412
421.6626, 2024.763
422.1447, 1995.090
422.6268, 1964.764
423.1089, 1927.931
423.5911, 1891.311
424.0732, 1865.964
424.5553, 1853.262
425.0374, 1841.438
425.5195, 1820.907
426.0016, 1793.367
426.4838, 1771.412
426.9659, 1759.940
427.4480, 1748.707
427.9301, 1733.650
428.4122, 1715.451
428.8943, 1694.687
429.3765, 1671.119
429.8586, 1647.930
430.3407, 1630.863
430.8228, 1623.255
431.3049, 1615.059
431.7870, 1606.776
432.2692, 1597.522
432.7513, 1584.918
433.2334, 1570.132
433.7155, 1558.410
434.1976, 1554.963
434.6797, 1558.744
435.1619, 1554.034
435.6440, 1530.256
436.1261, 1509.936
436.6082, 1497.275
437.0903, 1489.742
437.5724, 1484.998
438.0546, 1482.035
438.5367, 1479.452
439.0188, 1475.157
439.5009, 1469.062
439.9830, 1461.485
440.4651, 1449.650
440.9473, 1438.754
441.4294, 1431.611
441.9115, 1427.536
442.3936, 1424.254
442.8757, 1420.532
443.3578, 1416.337
443.8400, 1411.580
444.3221, 1406.036
444.8042, 1400.465
445.2863, 1394.477
445.7684, 1388.927
446.2505, 1385.357
446.7327, 1384.277
447.2148, 1382.427
447.6969, 1376.686
448.1790, 1367.593
448.6611, 1357.499
449.1432, 1345.560
449.6254, 1335.110
450.1075, 1328.859
450.5896, 1326.279
451.0717, 1326.679
451.5538, 1333.149
452.0359, 1340.186
452.5181, 1343.806
453.0002, 1343.749
453.4823, 1337.065
453.9644, 1319.529
454.4465, 1298.000
454.9286, 1289.622
455.4108, 1299.116
455.8929, 1304.703
456.3750, 1298.722
456.8571, 1287.862
457.3392, 1277.758
457.8214, 1269.820
458.3035, 1266.083
458.7856, 1269.313
459.2677, 1279.650
459.7498, 1284.388
460.2319, 1279.530
460.7141, 1274.651
461.1962, 1272.709
461.6783, 1272.299
462.1604, 1271.582
462.6425, 1269.806
463.1246, 1266.803
463.6068, 1261.383
464.0889, 1249.987
464.5710, 1245.912
465.0531, 1258.445
465.5352, 1269.234
466.0173, 1268.593
466.4995, 1258.721
466.9816, 1246.873
467.4637, 1237.041
467.9458, 1229.424
468.4279, 1224.878
468.9100, 1224.246
469.3922, 1224.488
469.8743, 1225.388
470.3564, 1226.381
470.8385, 1226.753
471.3206, 1226.425
471.8027, 1226.598
472.2849, 1229.047
472.7670, 1232.886
473.2491, 1234.245
473.7312, 1231.845
474.2133, 1229.656
474.6954, 1230.949
475.1776, 1234.584
475.6597, 1238.074
476.1418, 1241.117
476.6239, 1243.789
477.1060, 1245.443
477.5881, 1246.684
478.0703, 1249.657
478.5524, 1255.322
479.0345, 1261.997
479.5166, 1267.626
479.9987, 1272.546
480.4808, 1274.460
480.9630, 1270.284
481.4451, 1265.523
481.9272, 1261.928
482.4093, 1260.835
482.8914, 1266.126
483.3735, 1280.985
483.8557, 1301.535
484.3378, 1313.894
484.8199, 1311.256
485.3020, 1309.630
485.7841, 1308.371
486.2662, 1309.178
486.7484, 1316.010
487.2305, 1327.473
487.7126, 1335.626
488.1947, 1331.713
488.6768, 1316.850
489.1589, 1309.581
489.6411, 1315.534
490.1232, 1320.272
490.6053, 1318.112
491.0874, 1312.999
491.5695, 1309.540
492.0516, 1309.110
492.5338, 1309.191
493.0159, 1307.104
493.4980, 1303.076
493.9801, 1299.394
494.4622, 1297.069
494.9443, 1293.854
495.4265, 1288.873
495.9086, 1281.753
496.3907, 1270.604
496.8728, 1253.030
497.3549, 1232.952
497.8370, 1212.076
498.3192, 1191.179
498.8013, 1173.344
499.2834, 1160.027
499.7655, 1149.691
500.2476, 1140.278
500.7297, 1132.657
501.2119, 1122.649
501.6940, 1106.693
502.1761, 1090.975
502.6582, 1079.381
503.1403, 1071.897
503.6224, 1067.322
504.1045, 1065.196
504.5866, 1064.583
505.0688, 1062.050
505.5509, 1056.270
506.0330, 1050.545
506.5151, 1044.802
506.9972, 1039.363
507.4793, 1033.254
507.9615, 1027.245
508.4436, 1024.709
508.9257, 1030.650
509.4078, 1042.597
509.8899, 1044.371
510.3720, 1031.467
510.8542, 1018.165
511.3363, 1008.696
511.8184, 1002.027
512.3005, 997.5609
512.7827, 995.2541
513.2648, 994.3690
513.7469, 994.3401
514.2290, 995.2853
514.7111, 998.0729
515.1932, 1003.301
515.6754, 1007.937
516.1575, 1008.472
516.6396, 1006.369
517.1217, 1008.369
517.6038, 1021.217
518.0859, 1030.619
518.5681, 1025.563
519.0502, 1013.940
519.5323, 1010.686
520.0144, 1019.851
520.4965, 1031.431
520.9786, 1033.070
521.4608, 1022.921
521.9429, 1013.798
522.4250, 1003.912
522.9071, 996.6798
523.3892, 992.7500
523.8713, 992.4423
524.3535, 997.3258
524.8356, 1007.914
525.3177, 1020.229
525.7998, 1027.056
526.2819, 1026.967
526.7640, 1028.567
527.2462, 1034.537
527.7283, 1039.968
528.2104, 1042.803
528.6925, 1043.287
529.1746, 1041.631
529.6567, 1035.960
530.1389, 1031.343
530.6210, 1037.329
531.1031, 1053.058
531.5852, 1063.060
532.0673, 1061.757
532.5494, 1054.863
533.0316, 1047.256
533.5137, 1039.016
533.9958, 1035.158
534.4779, 1041.820
534.9600, 1049.003
535.4421, 1048.909
535.9243, 1042.468
536.4064, 1033.281
536.8885, 1022.686
537.3706, 1012.404
537.8527, 1006.542
538.3348, 1009.984
538.8170, 1007.778
539.2991, 996.1646
539.7812, 982.7687
540.2633, 971.2418
540.7454, 961.6842
541.2275, 952.4373
541.7097, 942.1803
542.1918, 932.6041
542.6739, 929.6678
543.1560, 937.3445
543.6381, 938.8382
544.1202, 925.3126
544.6024, 908.9772
545.0845, 896.1274
545.5666, 887.1253
546.0487, 881.4320
546.5308, 881.2513
547.0129, 882.8592
547.4951, 879.7865
547.9772, 872.1608
548.4593, 864.9642
548.9414, 860.2503
549.4235, 857.1199
549.9056, 854.0490
550.3878, 850.8898
550.8699, 848.4811
551.3520, 846.5723
551.8341, 845.8118
552.3162, 847.7835
552.7983, 851.6008
553.2805, 854.1215
553.7626, 853.4331
554.2447, 850.5882
554.7268, 848.7329
555.2089, 849.3737
555.6910, 848.2609
556.1732, 843.9287
556.6553, 839.2025
557.1374, 835.0132
557.6195, 831.8992
558.1016, 830.9907
558.5837, 833.7327
559.0659, 838.0456
559.5480, 838.5568
560.0301, 834.5135
560.5122, 831.2191
560.9943, 831.2215
561.4764, 831.4962
561.9586, 829.0259
562.4407, 823.9427
562.9228, 818.4595
563.4049, 812.5462
563.8870, 807.2121
564.3691, 803.8048
564.8513, 802.1043
565.3334, 800.8094
565.8155, 799.3320
566.2976, 797.9777
566.7797, 797.4244
567.2618, 798.5277
567.7440, 798.3743
568.2261, 794.0838
568.7082, 791.1880
569.1903, 795.4634
569.6724, 803.6160
570.1545, 807.6565
570.6367, 803.1670
571.1188, 793.5177
571.6009, 785.1913
572.0830, 777.5618
572.5651, 773.4871
573.0472, 775.9334
573.5294, 779.5084
574.0115, 782.2106
574.4936, 783.7056
574.9757, 783.0663
575.4578, 777.7366
575.9399, 773.0872
576.4221, 778.7473
576.9042, 792.0316
577.3863, 796.0712
577.8684, 783.8105
578.3505, 767.6252
578.8326, 762.1898
579.3148, 768.4792
579.7969, 772.7494
580.2790, 775.3246
580.7611, 775.1344
581.2432, 769.0346
581.7253, 760.5677
582.2075, 755.7619
582.6896, 756.6329
583.1717, 759.8566
583.6538, 760.6258
584.1359, 758.2386
584.6180, 758.4835
585.1002, 764.0998
585.5823, 769.1596
586.0643, 771.2175
586.5464, 771.8857
587.0286, 773.8261
587.5107, 777.9833
587.9928, 781.0743
588.4749, 779.1185
588.9570, 773.3549
589.4391, 768.6283
589.9213, 765.5306
590.4034, 762.9723
590.8855, 760.2485
591.3676, 757.4734
591.8497, 754.9011
592.3318, 751.0475
592.8140, 749.8217
593.2961, 755.2751
593.7782, 762.4032
594.2603, 764.6877
594.7424, 762.0533
595.2245, 759.9396
595.7067, 763.0694
596.1888, 770.0668
596.6709, 772.9938
597.1530, 770.4313
597.6351, 766.0779
598.1172, 757.7521
598.5994, 750.1288
599.0815, 747.5860
599.5636, 749.4576
600.0457, 750.8275
600.5278, 747.4291
601.0099, 742.2816
601.4921, 741.9261
601.9742, 746.4379
602.4563, 749.7067
602.9384, 749.0129
603.4205, 746.9739
603.9026, 747.5491
604.3848, 750.8102
604.8669, 753.1742
605.3490, 753.8989
605.8311, 753.8304
606.3132, 752.6011
606.7953, 751.1259
607.2775, 751.3241
607.7596, 753.9265
608.2417, 758.0071
608.7238, 762.9341
609.2059, 770.1859
609.6880, 770.7783
610.1702, 757.3662
610.6523, 745.5433
611.1344, 741.0881
611.6165, 740.9283
612.0986, 740.7172
612.5807, 739.1804
613.0629, 737.8662
613.5450, 737.4671
614.0271, 738.4246
614.5092, 743.2899
614.9913, 753.0351
615.4734, 761.3365
615.9556, 764.0303
616.4377, 762.2391
616.9198, 760.0704
617.4019, 757.6390
617.8840, 754.6724
618.3661, 748.7174
618.8483, 743.8972
619.3304, 745.6512
619.8125, 752.5868
620.2946, 757.8458
620.7767, 756.6420
621.2589, 751.7055
621.7410, 751.6281
622.2231, 759.0055
622.7052, 763.5107
623.1873, 760.5130
623.6694, 757.2707
624.1516, 758.9657
624.6337, 763.8934
625.1158, 766.5876
625.5979, 764.0779
626.0800, 759.7324
626.5621, 756.1041
627.0443, 753.3942
627.5264, 752.9067
628.0085, 755.2231
628.4906, 757.4567
628.9727, 756.2555
629.4548, 751.6063
629.9370, 750.5006
630.4191, 757.0527
630.9012, 761.4103
631.3833, 757.5920
631.8654, 752.7915
632.3475, 755.6486
632.8297, 766.5350
633.3118, 778.4354
633.7939, 785.7580
634.2760, 788.9869
634.7581, 789.2360
635.2402, 785.5369
635.7224, 782.6934
636.2045, 782.6871
636.6866, 783.7666
637.1687, 784.4485
637.6508, 784.6828
638.1329, 783.8118
638.6151, 780.5705
639.0972, 777.0507
639.5793, 774.0160
640.0614, 772.1568
640.5435, 773.9335
641.0256, 780.2326
641.5078, 787.2235
641.9899, 789.3004
642.4720, 785.4261
642.9541, 785.1819
643.4362, 792.5029
643.9183, 798.9813
644.4005, 802.8339
644.8826, 804.8483
645.3647, 805.8444
645.8468, 806.0279
646.3289, 805.4222
646.8110, 802.7181
647.2932, 799.4947
647.7753, 800.4933
648.2574, 805.9940
648.7395, 810.9835
649.2216, 813.1876
649.7037, 813.7272
650.1859, 814.2565
650.6680, 814.4437
651.1501, 816.0945
651.6322, 822.1003
652.1143, 826.9244
652.5964, 825.0034
653.0786, 820.0942
653.5607, 819.8618
654.0428, 827.0243
654.5249, 836.6732
655.0070, 842.2982
655.4891, 843.7880
655.9713, 843.7731
656.4534, 840.2079
656.9355, 839.1061
657.4176, 844.5877
657.8997, 853.5879
658.3818, 864.1926
658.8640, 877.0879
659.3461, 885.0060
659.8282, 881.8627
660.3103, 873.9170
660.7924, 866.5535
661.2745, 860.7352
661.7567, 857.7361
662.2388, 858.1844
662.7209, 861.9276
663.2030, 869.4249
663.6851, 883.6678
664.1672, 891.9117
664.6494, 889.9414
665.1315, 886.4557
665.6136, 883.1559
666.0957, 880.5288
666.5778, 878.8234
667.0599, 878.0768
667.5421, 878.8898
668.0242, 882.6064
668.5063, 888.1127
668.9884, 892.3307
669.4705, 895.0255
669.9526, 899.3239
670.4348, 907.9821
670.9169, 917.7033
671.3990, 921.0594
671.8811, 915.4091
672.3632, 909.5872
672.8453, 900.0160
673.3275, 894.0028
673.8096, 899.0885
674.2917, 909.6232
674.7738, 914.7673
675.2559, 910.3927
675.7380, 904.3778
676.2202, 908.2399
676.7023, 920.5951
677.1844, 926.5125
677.6665, 923.4920
678.1486, 920.8021
678.6307, 923.4255
679.1129, 929.1663
679.5950, 934.1901
680.0771, 938.9917
680.5592, 941.1722
681.0413, 938.5651
681.5234, 934.4910
682.0056, 928.9874
682.4877, 924.3508
682.9698, 926.7260
683.4519, 938.5900
683.9340, 952.5714
684.4161, 956.8765
684.8983, 950.3885
685.3804, 947.3771
685.8625, 949.4435
686.3446, 952.2126
686.8267, 954.4290
687.3088, 956.0151
687.7910, 956.4896
688.2731, 955.6514
688.7552, 955.5983
689.2373, 958.8317
689.7194, 962.1590
690.2015, 960.0272
690.6837, 954.7178
691.1658, 955.3779
691.6479, 966.0095
692.1300, 979.2523
692.6121, 983.6658
693.0942, 977.4055
693.5764, 975.3735
694.0585, 980.5620
694.5406, 986.0953
695.0227, 990.3777
695.5048, 993.8236
695.9869, 996.9645
696.4691, 999.8580
696.9512, 1002.112
697.4333, 1002.454
697.9154, 1002.673
698.3975, 1005.068
698.8796, 1009.550
699.3618, 1016.118
699.8439, 1025.067
700.3260, 1033.271
700.8081, 1036.033
701.2902, 1032.477
701.7723, 1031.823
702.2545, 1034.561
702.7366, 1039.750
703.2187, 1051.649
703.7008, 1063.096
704.1829, 1064.871
704.6650, 1057.556
705.1472, 1052.963
705.6293, 1061.940
706.1114, 1076.040
706.5935, 1080.599
707.0756, 1077.203
707.5577, 1076.539
708.0399, 1081.995
708.5220, 1089.616
709.0041, 1095.020
709.4862, 1098.192
709.9683, 1103.893
710.4504, 1116.703
710.9326, 1125.932
711.4147, 1126.904
711.8968, 1125.743
712.3789, 1126.545
712.8610, 1130.281
713.3431, 1137.877
713.8253, 1152.022
714.3074, 1166.750
714.7895, 1171.229
715.2716, 1166.956
715.7537, 1164.317
716.2358, 1164.966
716.7180, 1170.213
717.2001, 1183.059
717.6822, 1201.612
718.1643, 1213.365
718.6464, 1211.671
719.1285, 1212.990
719.6107, 1221.682
720.0928, 1231.516
720.5749, 1236.970
721.0570, 1239.690
721.5391, 1245.247
722.0212, 1256.604
722.5034, 1270.571
722.9855, 1283.155
723.4676, 1294.628
723.9497, 1306.419
724.4318, 1318.946
724.9139, 1330.425
725.3961, 1339.865
725.8782, 1347.377
726.3603, 1352.698
726.8424, 1353.894
727.3245, 1357.485
727.8066, 1362.265
728.2888, 1371.081
728.7709, 1387.988
729.2530, 1409.364
729.7351, 1429.375
730.2172, 1445.937
730.6993, 1459.967
731.1815, 1471.080
731.6636, 1480.342
732.1457, 1492.003
732.6278, 1506.332
733.1099, 1520.481
733.5920, 1532.264
734.0742, 1545.160
734.5563, 1566.135
735.0384, 1598.757
735.5205, 1620.579
736.0026, 1619.418
736.4847, 1621.871
736.9669, 1639.228
737.4490, 1664.241
737.9311, 1690.548
738.4132, 1715.669
738.8953, 1736.482
739.3774, 1747.424
739.8596, 1755.325
740.3417, 1777.669
740.8238, 1813.230
741.3059, 1840.091
741.7880, 1850.224
742.2701, 1858.636
742.7523, 1880.479
743.2344, 1914.700
743.7165, 1943.923
744.1986, 1965.543
744.6807, 1986.035
745.1628, 2007.342
745.6450, 2026.840
746.1271, 2039.527
746.6092, 2048.499
747.0913, 2062.462
747.5734, 2085.604
748.0555, 2114.933
748.5377, 2148.518
749.0198, 2185.171
749.5019, 2220.190
749.9840, 2253.201
750.4661, 2283.702
750.9482, 2311.253
751.4304, 2336.532
751.9125, 2360.929
752.3946, 2380.086
752.8767, 2408.896
753.3588, 2453.220
753.8409, 2500.071
754.3231, 2544.729
754.8052, 2588.340
755.2873, 2631.828
755.7694, 2675.628
756.2515, 2723.482
756.7336, 2781.081
757.2158, 2843.177
757.6979, 2898.078
758.1800, 2947.890
758.6621, 3006.783
759.1442, 3080.449
759.6263, 3157.686
760.1085, 3223.841
760.5906, 3278.589
761.0727, 3353.212
761.5548, 3461.875
762.0369, 3570.117
762.5190, 3667.113
763.0012, 3766.214
763.4833, 3877.631
763.9654, 4000.525
764.4475, 4128.756
764.9296, 4257.705
765.4117, 4394.948
765.8939, 4549.431
766.3760, 4716.315
766.8581, 4887.114
767.3402, 5061.175
767.8223, 5241.521
768.3044, 5430.696
768.7866, 5627.631
769.2687, 5826.216
769.7508, 6026.978
770.2329, 6229.901
770.7150, 6434.292
771.1971, 6643.081
771.6793, 6860.277
772.1614, 7080.848
772.6435, 7297.625
773.1256, 7509.684
773.6077, 7716.209
774.0898, 7909.006
774.5720, 8102.103
775.0541, 8310.426
775.5362, 8526.729
776.0183, 8737.507
776.5004, 8938.160
776.9825, 9133.976
777.4647, 9332.598
777.9468, 9530.261
778.4289, 9704.091
778.9110, 9852.181
779.3931, 9993.685
779.8752, 10138.54
780.3574, 10269.10
780.8395, 10364.36
781.3216, 10429.99
781.8037, 10491.81
782.2858, 10566.74
782.7679, 10615.42
783.2501, 10625.18
783.7322, 10607.73
784.2143, 10571.50
784.6964, 10516.47
785.1785, 10439.47
785.6606, 10338.62
786.1428, 10216.29
786.6249, 10074.47
787.1070, 9913.414
787.5891, 9727.399
788.0712, 9515.877
788.5533, 9311.491
789.0355, 9130.310
789.5176, 8962.513
789.9997, 8794.172
790.4818, 8623.714
790.9639, 8460.574
791.4460, 8296.304
791.9282, 8149.507
792.4103, 8027.164
792.8924, 7921.776
793.3745, 7822.975
793.8566, 7732.488
794.3387, 7661.623
794.8209, 7620.119
795.3030, 7594.077
795.7851, 7569.931
796.2672, 7550.873
796.7493, 7540.535
797.2314, 7540.970
797.7136, 7563.082
798.1957, 7614.771
798.6778, 7689.130
799.1599, 7767.208
799.6420, 7843.927
800.1241, 7945.746
800.6063, 8075.065
801.0884, 8226.956
801.5705, 8397.742
802.0526, 8589.966
802.5347, 8806.942
803.0168, 9049.404
803.4990, 9314.215
803.9811, 9593.223
804.4632, 9900.818
804.9453, 10248.47
805.4274, 10627.44
805.9095, 11031.91
806.3917, 11455.89
806.8738, 11889.88
807.3559, 12322.54
807.8380, 12763.52
808.3201, 13234.63
808.8022, 13737.14
809.2844, 14239.34
809.7665, 14735.96
810.2486, 15233.74
810.7307, 15732.89
811.2128, 16236.94
811.6949, 16748.45
812.1771, 17264.96
812.6592, 17790.67
813.1413, 18332.60
813.6234, 18873.22
814.1055, 19402.20
814.5876, 19922.42
815.0698, 20439.91
815.5519, 20953.64
816.0340, 21443.85
816.5161, 21893.93
816.9982, 22314.51
817.4803, 22737.02
817.9625, 23135.61
818.4446, 23439.68
818.9267, 23635.08
819.4088, 23758.23
819.8909, 23842.41
820.3730, 23873.80
820.8552, 23800.13
821.3373, 23612.31
821.8194, 23354.12
822.3015, 23020.50
822.7836, 22630.70
823.2657, 22180.46
823.7479, 21686.44
824.2300, 21183.37
824.7121, 20661.80
825.1942, 20174.94
825.6763, 19730.84
826.1584, 19330.12
826.6406, 18957.04
827.1227, 18635.66
827.6048, 18399.09
828.0869, 18253.24
828.5690, 18178.21
829.0511, 18157.53
829.5333, 18220.67
830.0154, 18331.71
830.4975, 18543.60
830.9796, 18817.74
831.4617, 19150.73
831.9438, 19533.15
832.4260, 19961.90
832.9081, 20429.16
833.3902, 20916.90
833.8723, 21422.68
834.3544, 21956.09
834.8365, 22524.81
835.3187, 23108.20
835.8008, 23705.65
836.2829, 24306.57
836.7650, 24898.30
837.2471, 25477.98
837.7292, 26072.92
838.2114, 26707.96
838.6935, 27347.57
839.1756, 27972.58
839.6577, 28587.48
840.1398, 29209.65
840.6219, 29834.62
841.1041, 30427.15
841.5862, 30969.27
842.0683, 31451.63
842.5504, 31863.57
843.0325, 32201.57
843.5146, 32439.39
843.9968, 32572.82
844.4789, 32608.15
844.9610, 32554.08
845.4431, 32392.27
845.9252, 32089.02
846.4073, 31639.70
846.8895, 31065.63
847.3716, 30334.37
847.8537, 29519.20
848.3358, 28602.13
848.8179, 27628.63
849.3000, 26607.01
849.7822, 25556.42
850.2643, 24550.79
850.7464, 23590.75
851.2285, 22708.79
851.7106, 21910.24
852.1927, 21208.09
852.6749, 20613.76
853.1570, 20124.42
853.6391, 19738.49
854.1212, 19456.30
854.6033, 19260.07
855.0854, 19133.83
855.5676, 19075.76
856.0497, 19085.26
856.5318, 19163.36
857.0139, 19279.40
857.4960, 19426.06
857.9781, 19597.29
858.4603, 19789.31
858.9424, 20000.44
859.4245, 20216.15
859.9066, 20454.19
860.3887, 20665.28
860.8708, 20849.45
861.3530, 21004.17
861.8351, 21126.42
862.3172, 21218.88
862.7993, 21291.77
863.2814, 21352.71
863.7635, 21358.73
864.2457, 21279.83
864.7278, 21150.75
865.2099, 20998.20
865.6920, 20815.60
866.1741, 20590.50
866.6563, 20320.48
867.1384, 20015.11
867.6205, 19679.62
868.1026, 19318.02
868.5847, 18945.83
869.0668, 18558.07
869.5490, 18113.26
870.0311, 17604.29
870.5132, 17071.02
870.9953, 16529.99
871.4774, 15979.97
871.9595, 15418.45
872.4417, 14843.58
872.9238, 14261.07
873.4059, 13656.34
873.8880, 13062.04
874.3701, 12479.59
874.8522, 11920.07
875.3344, 11397.47
875.8165, 10908.81
876.2986, 10434.54
876.7807, 9969.420
877.2628, 9523.242
877.7449, 9091.198
878.2271, 8688.415
878.7092, 8338.772
879.1913, 8031.925
879.6734, 7741.669
880.1555, 7459.896
880.6376, 7200.230
881.1198, 6980.346
881.6019, 6792.302
882.0840, 6625.405
882.5661, 6477.554
883.0482, 6342.129
883.5303, 6217.271
884.0125, 6100.192
884.4946, 5988.073
884.9767, 5882.913
885.4588, 5794.458
885.9409, 5727.471
886.4230, 5648.521
886.9052, 5548.599
887.3873, 5451.445
887.8694, 5370.949
888.3515, 5297.410
888.8336, 5212.119
889.3157, 5112.385
889.7979, 5022.603
890.2800, 4951.979
890.7621, 4879.666
891.2442, 4798.448
891.7263, 4714.568
892.2084, 4634.581
892.6906, 4556.921
893.1727, 4475.628
893.6548, 4385.745
894.1369, 4301.358
894.6190, 4232.712
895.1011, 4174.011
895.5833, 4119.299
896.0654, 4069.227
896.5475, 4026.134
897.0296, 3991.206
897.5117, 3965.745
897.9938, 3951.298
898.4760, 3946.973
898.9581, 3951.844
899.4402, 3965.410
899.9223, 3981.407
900.4044, 3998.517
900.8865, 4022.488
901.3687, 4059.229
901.8508, 4100.186
902.3329, 4125.009
902.8150, 4127.442
903.2971, 4145.894
903.7792, 4188.135
904.2614, 4233.195
904.7435, 4281.077
905.2256, 4324.196
905.7077, 4352.173
906.1898, 4368.004
906.6719, 4388.239
907.1541, 4421.676
907.6362, 4448.680
908.1183, 4461.144
908.6004, 4468.503
909.0825, 4479.351
909.5646, 4489.106
910.0468, 4489.630
910.5289, 4478.722
911.0110, 4459.104
911.4931, 4430.712
911.9752, 4396.265
912.4573, 4361.709
912.9395, 4322.044
913.4216, 4262.022
913.9037, 4183.364
914.3858, 4108.931
914.8679, 4053.820
915.3500, 4000.332
915.8321, 3915.439
916.3142, 3803.814
916.7963, 3697.497
917.2784, 3597.265
917.7606, 3508.214
918.2427, 3433.199
918.7248, 3365.658
919.2069, 3299.167
919.6890, 3233.475
920.1711, 3163.635
920.6533, 3083.198
921.1354, 3014.147
921.6175, 2963.944
922.0996, 2917.948
922.5817, 2872.092
923.0638, 2823.947
923.5460, 2768.660
924.0281, 2705.179
924.5102, 2643.284
924.9923, 2585.853
925.4744, 2527.838
925.9565, 2468.383
926.4387, 2406.637
926.9208, 2340.207
927.4029, 2270.919
927.8850, 2205.524
928.3671, 2146.541
928.8492, 2089.730
929.3314, 2031.653
929.8135, 1974.666
930.2956, 1919.837
930.7777, 1868.257
931.2598, 1822.469
931.7419, 1782.270
932.2241, 1744.497
932.7062, 1706.236
933.1883, 1669.639
933.6704, 1639.558
934.1525, 1614.789
934.6346, 1589.251
935.1168, 1562.501
935.5989, 1538.196
936.0810, 1518.308
936.5631, 1500.373
937.0452, 1480.754
937.5273, 1459.704
938.0095, 1441.781
938.4916, 1427.935
938.9737, 1412.781
939.4558, 1393.777
939.9379, 1376.235
940.4200, 1364.387
940.9022, 1356.219
941.3843, 1346.694
941.8664, 1335.674
942.3485, 1323.605
942.8306, 1310.671
943.3127, 1296.548
943.7949, 1280.734
944.2770, 1264.014
944.7591, 1244.625
945.2412, 1224.688
945.7233, 1212.618
946.2054, 1214.079
946.6876, 1215.122
947.1697, 1209.445
947.6518, 1202.761
948.1339, 1200.916
948.6160, 1200.298
949.0981, 1194.172
949.5803, 1181.793
950.0624, 1169.067
950.5445, 1159.459
951.0266, 1151.159
951.5087, 1141.890
951.9908, 1132.802
952.4730, 1126.028
952.9551, 1121.332
953.4372, 1117.162
953.9193, 1112.849
954.4014, 1108.386
954.8835, 1104.460
955.3657, 1100.055
955.8478, 1090.881
956.3299, 1077.902
956.8120, 1068.802
957.2941, 1065.117
957.7762, 1060.979
958.2584, 1052.294
958.7405, 1041.858
959.2226, 1035.273
959.7047, 1032.713
960.1868, 1031.586
960.6689, 1032.804
961.1511, 1031.939
961.6332, 1028.157
962.1153, 1020.767
962.5974, 1007.431
963.0795, 990.3995
963.5616, 979.4830
964.0438, 975.5148
964.5259, 975.9669
965.0080, 987.9840
965.4901, 995.1847
965.9722, 988.3827
966.4543, 976.7795
966.9365, 969.4557
967.4186, 966.2743
967.9007, 963.1844
968.3828, 959.6253
968.8649, 956.0956
969.3470, 952.2376
969.8292, 948.9325
970.3113, 948.4775
970.7934, 948.1732
971.2755, 942.8026
971.7576, 931.9351
972.2397, 922.8723
972.7219, 919.0295
973.2040, 918.1799
973.6861, 920.5620
974.1682, 923.9611
974.6503, 927.3561
975.1324, 929.2521
975.6146, 926.1056
976.0967, 916.7809
976.5788, 906.4523
977.0609, 899.7775
977.5430, 894.6108
978.0251, 886.3517
978.5073, 877.6006
978.9894, 875.7552
979.4715, 880.5783
979.9536, 883.8420
980.4357, 880.9318
980.9178, 885.1765
981.4000, 879.5988
981.8821, 886.9688
982.3642, 889.5524
982.8463, 887.6720
983.3284, 884.6230
983.8105, 881.2088
984.2927, 877.6097
984.7748, 874.0657
985.2569, 870.0672
985.7390, 863.6105
986.2211, 854.4046
986.7032, 849.2533
987.1854, 848.6564
987.6675, 850.2806
988.1496, 854.4537
988.6317, 857.4295
989.1138, 855.2307
989.5959, 849.1935
990.0781, 845.4846
990.5602, 846.5267
991.0423, 842.1002
991.5244, 825.9196
992.0065, 815.9349
992.4886, 822.5546
992.9708, 834.6730
993.4529, 840.5450
993.9350, 840.5695
994.4171, 839.5796
994.8992, 837.2433
995.3813, 834.4136
995.8635, 832.0035
996.3456, 828.0887
996.8277, 817.7198
997.3098, 807.9054
997.7919, 810.7901
998.2740, 825.5306
998.7562, 830.3319
999.2383, 809.1710
999.7204, 794.2697
1000.203, 801.6464
1000.685, 810.3846
1001.167, 803.9069
1001.649, 789.9827
1002.131, 781.6017
1002.613, 781.0012
1003.095, 784.3468
1003.577, 795.3878
1004.059, 803.2143
1004.542, 799.8839
1005.024, 791.9948
1005.506, 784.7125
1005.988, 778.6984
1006.470, 772.9589
1006.952, 767.4097
1007.434, 764.8974
1007.916, 768.7972
1008.398, 775.1766
1008.881, 782.3822
1009.363, 788.3713
1009.845, 790.4473
1010.327, 788.3616
1010.809, 781.1476
1011.291, 768.8112
1011.773, 758.6061
1012.255, 760.2097
1012.738, 765.8393
1013.220, 760.4005
1013.702, 764.8840
1014.184, 751.7606
1014.666, 765.1191
1015.148, 773.1082
1015.630, 767.4818
1016.112, 756.8698
1016.594, 750.8248
1017.077, 748.2601
1017.559, 746.6599
1018.041, 745.9022
1018.523, 744.7933
1019.005, 743.3663
1019.487, 745.4211
1019.969, 753.5411
1020.451, 761.1430
1020.934, 756.0473
1021.416, 741.6587
1021.898, 739.5054
1022.380, 749.1669
1022.862, 755.9562
1023.344, 757.1213
1023.826, 752.1086
1024.308, 739.2289
1024.791, 725.7485
1025.273, 726.8271
1025.755, 741.7582
1026.237, 742.7867
1026.719, 727.5825
1027.201, 717.1271
1027.683, 716.5822
1028.165, 718.0903
1028.647, 716.3988
1029.130, 716.6358
1029.612, 716.7943
1030.094, 715.4986
1030.576, 716.4598
1031.058, 715.3857
1031.540, 714.2373
1032.022, 713.6752
1032.504, 712.3582
1032.986, 708.3271
1033.469, 703.9509
1033.951, 705.2526
1034.433, 713.9431
1034.915, 717.2715
1035.397, 710.8282
1035.879, 709.0425
1036.361, 720.1550
1036.843, 728.8431
1037.326, 721.3812
1037.808, 705.3603
1038.290, 698.9473
1038.772, 704.9020
1039.254, 707.9832
1039.736, 706.1371
1040.218, 704.6927
1040.700, 705.9301
1041.182, 706.5264
1041.665, 701.7088
1042.147, 695.2003
1042.629, 697.4899
1043.111, 713.1035
1043.593, 717.6053
1044.075, 696.8894
1044.557, 683.7823
1045.039, 692.0775
1045.521, 703.0416
1046.004, 702.9031
1046.486, 696.3729
1046.968, 694.7206
1047.450, 700.0632
1047.932, 702.2380
1048.414, 699.2494
1048.896, 694.2458
1049.378, 683.3382
1049.861, 675.2220
1050.343, 680.3713
1050.825, 691.4072
1051.307, 691.5757
1051.789, 677.0976
1052.271, 669.2382
1052.753, 678.4803
1053.235, 686.2969
1053.718, 683.2518
1054.200, 680.1372
1054.682, 687.8466
1055.164, 700.4243
1055.646, 706.6233
1056.128, 704.7189
1056.610, 697.0248
1057.092, 672.5944
1057.574, 658.0201
1058.057, 671.9223
1058.539, 690.2504
1059.021, 694.6373
1059.503, 689.9117
1059.985, 687.0770
1060.467, 687.9206
1060.949, 687.5382
1061.431, 683.6182
1061.913, 679.1476
1062.396, 674.4736
1062.878, 670.4581
1063.360, 669.9258
1063.842, 669.5707
1064.324, 661.8331
1064.806, 646.4193
1065.288, 636.5717
1065.770, 642.1495
1066.253, 647.5050
1066.735, 642.8004
1067.217, 638.7845
1067.699, 646.9296
1068.181, 659.8379
1068.663, 664.6647
1069.145, 660.1714
1069.627, 655.6971
1070.109, 654.2087
1070.592, 654.2336
1071.074, 656.5711
1071.556, 658.6722
1072.038, 658.3035
1072.520, 656.6259
1073.002, 655.2739
1073.484, 654.5421
1073.966, 654.2167
1074.448, 654.2167
1074.931, 654.6058
1075.413, 657.5948
1075.895, 658.6970
1076.377, 650.7025
1076.859, 641.2487
1077.341, 643.6035
1077.823, 655.4979
1078.305, 659.9625
1078.788, 649.4853
1079.270, 636.7444
1079.752, 623.1971
1080.234, 614.3824
1080.716, 616.2455
1081.198, 623.3622
1081.680, 630.0223
1082.162, 635.6136
1082.644, 641.9174
1083.127, 650.1599
1083.609, 655.5356
1084.091, 656.5129
1084.573, 653.3188
1085.055, 640.1617
1085.537, 627.5502
1086.019, 630.0107
1086.501, 642.1093
1086.984, 645.9030
1087.466, 635.7114
1087.948, 629.4583
1088.430, 640.8192
1088.912, 650.3759
1089.394, 643.4766
1089.876, 634.1329
1090.358, 637.1978
1090.840, 647.6629
1091.323, 653.7902
1091.805, 653.1459
1092.287, 648.6394
1092.769, 633.8301
1093.251, 625.4391
1093.733, 639.5452
1094.215, 653.8990
1094.697, 647.2000
1095.179, 630.4371
1095.662, 622.7866
1096.144, 626.6299
1096.626, 632.9803
1097.108, 642.5872
1097.590, 648.7762
1098.072, 648.2429
1098.554, 644.8510
1099.036, 637.0651
1099.519, 630.3788
1100.001, 634.7604
1100.483, 648.0236
1100.965, 653.1318
1101.447, 642.4791
1101.929, 631.6401
1102.411, 620.7371
1102.893, 615.2104
1103.375, 623.9181
1103.858, 634.3272
1104.340, 630.1952
1104.822, 616.4318
1105.304, 613.4876
1105.786, 628.4467
1106.268, 639.3182
1106.750, 638.4014
1107.232, 637.8712
1107.714, 643.1898
1108.197, 649.0974
1108.679, 651.2734
1109.161, 650.8754
1109.643, 651.0743
1110.125, 652.4604
1110.607, 651.8871
1111.089, 645.4486
1111.571, 642.2460
1112.054, 650.6632
1112.536, 655.5359
1113.018, 641.2816
1113.500, 621.6615
1113.982, 619.5445
1114.464, 635.4571
1114.946, 647.7042
1115.428, 660.5497
1115.911, 662.2327
1116.393, 638.4036
1116.875, 622.6647
1117.357, 635.7388
1117.839, 656.2345
1118.321, 659.8586
1118.803, 650.1761
1119.285, 648.7064
1119.767, 662.8463
1120.250, 665.9376
1120.732, 650.2351
1121.214, 639.7028
1121.696, 644.4235
1122.178, 651.0016
1122.660, 647.9151
1123.142, 639.2206
1123.624, 635.0481
1124.106, 635.2357
1124.589, 642.8362
1125.071, 663.0175
1125.553, 671.4804
1126.035, 660.2349
1126.517, 646.1998
1126.999, 637.6252
1127.481, 636.0791
1127.963, 645.9706
1128.446, 665.5361
1128.928, 672.9005
1129.410, 666.3025
1129.892, 663.9337
1130.374, 668.4718
1130.856, 671.9191
1131.338, 670.9695
1131.820, 667.1866
1132.302, 661.7352
1132.785, 655.7265
1133.267, 652.8928
1133.749, 653.0606
1134.231, 653.1733
1134.713, 653.1483
1135.195, 655.0236
1135.677, 659.3521
1136.159, 663.9262
1136.641, 667.1461
1137.124, 669.9252
1137.606, 675.8012
1138.088, 682.2949
1138.570, 677.3409
1139.052, 664.0302
1139.534, 657.1289
1140.016, 658.4641
1140.498, 662.6944
1140.981, 667.2200
1141.463, 669.9949
1141.945, 668.0765
1142.427, 663.9990
1142.909, 661.9805
1143.391, 661.2848
1143.873, 662.1145
1144.355, 662.6560
1144.838, 654.7206
1145.320, 638.3447
1145.802, 630.2966
1146.284, 644.5756
1146.766, 662.5203
1147.248, 663.5277
1147.730, 658.9709
1148.212, 663.1782
1148.694, 671.7975
1149.177, 676.7123
1149.659, 676.9762
1150.141, 674.3582
1150.623, 669.0184
1151.105, 666.2050
1151.587, 670.9099
1152.069, 677.1652
1152.551, 684.5406
1153.033, 688.2778
1153.516, 679.2440
1153.998, 664.3847
1154.480, 657.7900
1154.962, 661.8431
1155.444, 668.8163
1155.926, 682.8136
1156.408, 689.4034
1156.890, 676.2220
1157.373, 663.6032
1157.855, 662.1318
1158.337, 668.2038
1158.819, 681.0822
1159.301, 697.6247
1159.783, 704.6454
1160.265, 697.0117
1160.747, 690.8138
1161.229, 688.0287
1161.712, 685.3374
1162.194, 680.8656
1162.676, 677.5377
1163.158, 676.8241
1163.640, 678.9283
1164.122, 685.8709
1164.604, 698.1158
1165.086, 698.5574
1165.568, 679.9700
1166.051, 672.5794
1166.533, 683.4756
1167.015, 693.0482
1167.497, 693.1882
1167.979, 688.5864
1168.461, 683.2450
1168.943, 678.1398
1169.425, 676.3481
1169.908, 677.9202
1170.390, 681.7831
1170.872, 687.9532
1171.354, 694.4363
1171.836, 700.8087
1172.318, 705.8139
1172.800, 708.7993
1173.282, 708.9550
1173.765, 703.3340
1174.247, 695.4509
1174.729, 698.0890
1175.211, 707.3894
1175.693, 709.2075
1176.175, 703.3959
1176.657, 695.0871
1177.139, 686.9492
1177.621, 685.8819
1178.104, 699.1890
1178.586, 713.9442
1179.068, 712.9764
1179.550, 705.3628
1180.032, 704.0620
1180.514, 705.3763
1180.996, 700.2777
1181.478, 689.7953
1181.960, 681.6349
1182.443, 678.5050
1182.925, 680.2462
1183.407, 693.1923
1183.889, 702.9136
1184.371, 695.7700
1184.853, 686.2772
1185.335, 688.2777
1185.817, 696.2114
1186.300, 700.1827
1186.782, 699.2820
1187.264, 697.5912
1187.746, 694.2854
1188.228, 693.7604
1188.710, 699.0178
1189.192, 704.2428
1189.674, 708.5867
1190.156, 710.8514
1190.639, 708.9974
1191.121, 704.9777
1191.603, 703.2277
1192.085, 704.0408
1192.567, 702.7781
1193.049, 696.9874
1193.531, 697.1359
1194.013, 707.5092
1194.495, 713.7682
1194.978, 708.9006
1195.460, 700.4886
1195.942, 695.8560
1196.424, 694.5447
1196.906, 695.2670
1197.388, 698.0231
1197.870, 705.6638
1198.352, 717.3224
1198.835, 714.7424
1199.317, 695.5883
1199.799, 682.7006
1200.281, 688.1939
1200.763, 699.7266
1201.245, 703.7568
1201.727, 703.7658
1202.209, 706.2135
1202.692, 709.3961
1203.174, 709.7886
1203.656, 707.7267
1204.138, 704.3522
1204.620, 700.3762
1205.102, 696.8812
1205.584, 693.7641
1206.066, 694.7913
1206.548, 709.3895
1207.031, 721.5457
1207.513, 713.8293
1207.995, 701.4254
1208.477, 700.3405
1208.959, 707.9277
1209.441, 717.6318
1209.923, 727.9304
1210.405, 731.6814
1210.887, 718.6520
1211.370, 712.3707
1211.852, 727.5696
1212.334, 736.2517
1212.816, 718.4784
1213.298, 697.8375
1213.780, 695.2085
1214.262, 703.4901
1214.744, 704.1319
1215.227, 695.8001
1215.709, 694.7322
1216.191, 702.7744
1216.673, 711.0366
1217.155, 719.0975
1217.637, 723.1381
1218.119, 721.0036
1218.601, 717.2021
1219.083, 716.2491
1219.566, 717.0981
1220.048, 716.4061
1220.530, 715.2693
1221.012, 721.4598
1221.494, 732.3633
1221.976, 733.5863
1222.458, 724.5653
1222.940, 717.1063
1223.422, 716.5750
1223.905, 719.9020
1224.387, 727.1833
1224.869, 732.6967
1225.351, 727.5505
1225.833, 719.4178
1226.315, 717.0844
1226.797, 718.8273
1227.279, 722.6040
1227.762, 726.4580
1228.244, 724.4869
1228.726, 712.9681
1229.208, 706.6901
1229.690, 715.5743
1230.172, 723.6404
1230.654, 724.8036
1231.136, 723.8852
1231.619, 725.2148
1232.101, 725.4948
1232.583, 718.4396
1233.065, 705.9174
1233.547, 699.9800
1234.029, 701.3164
1234.511, 707.9320
1234.993, 722.5616
1235.475, 731.9054
1235.958, 732.1970
1236.440, 731.1088
1236.922, 733.7322
1237.404, 733.4152
1237.886, 718.9093
1238.368, 697.6902
1238.850, 693.3600
1239.332, 702.7181
1239.814, 716.7748
1240.297, 731.9127
1240.779, 735.5040
1241.261, 726.8811
1241.743, 719.2266
1242.225, 719.3764
1242.707, 722.2438
1243.189, 723.7582
1243.671, 725.4523
1244.154, 729.1796
1244.636, 733.4365
1245.118, 738.1202
1245.600, 741.3259
1246.082, 739.6266
1246.564, 733.3306
1247.046, 725.8591
1247.528, 714.9183
1248.010, 711.8846
1248.493, 728.5068
1248.975, 738.9429
1249.457, 733.4105
1249.939, 724.5486
1250.421, 717.6761
1250.903, 713.3193
1251.385, 712.5748
1251.867, 714.8365
1252.349, 716.7504
1252.832, 718.3083
1253.314, 720.0720
1253.796, 722.1237
1254.278, 720.5942
1254.760, 714.7896
1255.242, 713.2352
1255.724, 720.7343
1256.206, 726.5705
1256.689, 715.7262
1257.171, 700.7327
1257.653, 703.5925
1258.135, 715.9786
1258.617, 726.8546
1259.099, 734.1207
1259.581, 734.5211
1260.063, 729.4464
1260.546, 725.6400
1261.028, 725.6218
1261.510, 724.8330
1261.992, 721.2445
1262.474, 716.4537
1262.956, 706.2441
1263.438, 700.5036
1263.920, 709.7936
1264.402, 723.6019
1264.885, 728.5563
1265.367, 735.4084
1265.849, 740.5134
1266.331, 740.4915
1266.813, 743.6927
1267.295, 739.0399
1267.777, 734.4886
1268.259, 731.0576
1268.741, 729.1301
1269.224, 728.9303
1269.706, 729.2570
1270.188, 728.6642
1270.670, 729.1528
1271.152, 738.3089
1271.634, 749.3529
1272.116, 741.2618
1272.598, 723.9982
1273.081, 723.5879
1273.563, 737.3217
1274.045, 747.6742
1274.527, 749.0050
1275.009, 742.1594
1275.491, 719.8185
1275.973, 707.0221
1276.455, 727.5856
1276.938, 746.3629
1277.420, 738.9775
1277.902, 725.7373
1278.384, 725.4507
1278.866, 733.0047
1279.348, 737.1849
1279.830, 738.0610
1280.312, 737.8262
1280.794, 735.7162
1281.276, 735.8571
1281.759, 738.9688
1282.241, 741.1638
1282.723, 741.5093
1283.205, 739.5779
1283.687, 734.8896
1284.169, 730.2642
1284.651, 729.5749
1285.133, 731.0418
1285.616, 731.5199
1286.098, 730.9460
##END=



