##NAMES=Hemimorphite
##RRUFFID=R070536
##IDEAL CHEMISTRY=Zn^2+^_4_Si_2_O_7_(OH)_2_&#183;H_2_O
##LOCALITY=Potosi mine, Santa Eulalia District, Chihuahua, Mexico
##OWNER=RRUFF
##SOURCE=James Shigley
##DESCRIPTION=Colorless striated thin tabular crystals in fan-shaped aggregates
##STATUS=The identification of this mineral has been confirmed by X-ray diffraction and chemical analysis
##URL=rruff.info/R070536
##MEASURED CHEMISTRY=Zn_4.00_Si_2.00_O_7_(OH)_2_Â·H_2_O; total H_2_O estimated by difference, (OH) by charge balance
131.5242, 4300.301
132.0063, 4511.060
132.4884, 4725.203
132.9705, 4965.896
133.4527, 5135.147
133.9348, 5218.054
134.4169, 5256.830
134.8990, 5272.835
135.3811, 5272.077
135.8632, 5252.878
136.3454, 5210.902
136.8275, 5124.741
137.3096, 5060.632
137.7917, 5029.401
138.2738, 5012.197
138.7559, 4988.051
139.2381, 4953.089
139.7202, 4927.958
140.2023, 4946.468
140.6844, 5037.010
141.1665, 5125.734
141.6486, 5195.101
142.1308, 5269.028
142.6129, 5372.676
143.0950, 5514.565
143.5771, 5683.526
144.0592, 5860.560
144.5413, 6038.330
145.0235, 6239.377
145.5056, 6478.647
145.9877, 6739.400
146.4698, 6997.085
146.9519, 7242.154
147.4340, 7486.287
147.9162, 7758.125
148.3983, 8072.923
148.8804, 8372.318
149.3625, 8621.649
149.8446, 8847.065
150.3267, 9105.288
150.8089, 9424.636
151.2910, 9769.601
151.7731, 10061.63
152.2552, 10286.08
152.7373, 10514.05
153.2194, 10785.84
153.7016, 11084.03
154.1837, 11363.70
154.6658, 11607.29
155.1479, 11827.29
155.6300, 12047.96
156.1121, 12269.10
156.5943, 12493.37
157.0764, 12711.46
157.5585, 12930.61
158.0406, 13181.27
158.5227, 13484.95
159.0048, 13819.76
159.4870, 14131.52
159.9691, 14339.58
160.4512, 14540.71
160.9333, 14798.24
161.4154, 15105.68
161.8975, 15426.80
162.3797, 15750.03
162.8618, 16080.30
163.3439, 16415.61
163.8260, 16755.65
164.3081, 17112.50
164.7902, 17521.85
165.2724, 17976.63
165.7545, 18386.11
166.2366, 18710.87
166.7187, 18982.66
167.2008, 19253.28
167.6829, 19546.22
168.1651, 19775.56
168.6472, 19880.66
169.1293, 19865.26
169.6114, 19733.02
170.0935, 19466.10
170.5756, 19086.83
171.0578, 18613.95
171.5399, 18045.36
172.0220, 17406.84
172.5041, 16713.57
172.9862, 15960.48
173.4683, 15201.28
173.9505, 14411.82
174.4326, 13649.06
174.9147, 12954.69
175.3968, 12343.27
175.8789, 11777.77
176.3610, 11215.56
176.8432, 10652.42
177.3253, 10136.81
177.8074, 9687.593
178.2895, 9286.365
178.7716, 8926.199
179.2537, 8605.024
179.7359, 8314.020
180.2180, 8043.902
180.7001, 7793.173
181.1822, 7564.848
181.6643, 7362.882
182.1465, 7183.514
182.6286, 7030.434
183.1107, 6903.940
183.5928, 6792.210
184.0749, 6680.453
184.5570, 6566.512
185.0392, 6464.886
185.5213, 6379.930
186.0034, 6308.750
186.4855, 6253.897
186.9676, 6215.814
187.4497, 6186.324
187.9319, 6156.510
188.4140, 6125.444
188.8961, 6098.504
189.3782, 6072.598
189.8603, 6053.995
190.3424, 6049.150
190.8246, 6058.691
191.3067, 6073.687
191.7888, 6086.697
192.2709, 6099.145
192.7530, 6101.998
193.2351, 6080.015
193.7173, 6057.618
194.1994, 6053.932
194.6815, 6069.728
195.1636, 6081.677
195.6457, 6056.765
196.1278, 5985.448
196.6100, 5934.712
197.0921, 5937.599
197.5742, 5945.243
198.0563, 5931.622
198.5384, 5895.264
199.0205, 5854.321
199.5027, 5824.121
199.9848, 5803.841
200.4669, 5799.703
200.9490, 5826.738
201.4311, 5860.095
201.9132, 5887.608
202.3954, 5909.433
202.8775, 5935.178
203.3596, 5978.740
203.8417, 6043.538
204.3238, 6093.829
204.8059, 6097.596
205.2881, 6112.477
205.7702, 6168.655
206.2523, 6262.211
206.7344, 6366.922
207.2165, 6460.495
207.6986, 6542.410
208.1808, 6625.604
208.6629, 6711.004
209.1450, 6796.133
209.6271, 6877.337
210.1092, 6956.905
210.5913, 7040.339
211.0735, 7138.729
211.5556, 7251.791
212.0377, 7340.820
212.5198, 7394.518
213.0019, 7433.987
213.4840, 7473.980
213.9662, 7507.755
214.4483, 7518.797
214.9304, 7491.752
215.4125, 7430.046
215.8946, 7362.563
216.3767, 7283.456
216.8589, 7205.708
217.3410, 7130.578
217.8231, 7060.482
218.3052, 7000.455
218.7873, 6959.687
219.2694, 6930.811
219.7516, 6876.433
220.2337, 6776.335
220.7158, 6680.934
221.1979, 6610.265
221.6800, 6554.283
222.1621, 6497.153
222.6443, 6430.749
223.1264, 6357.826
223.6085, 6284.686
224.0906, 6207.822
224.5727, 6137.062
225.0548, 6073.355
225.5370, 6016.757
226.0191, 5968.333
226.5012, 5929.090
226.9833, 5895.724
227.4654, 5861.462
227.9475, 5826.004
228.4297, 5789.939
228.9118, 5748.760
229.3939, 5709.060
229.8760, 5678.433
230.3581, 5660.129
230.8402, 5647.689
231.3224, 5633.418
231.8045, 5618.909
232.2866, 5596.036
232.7687, 5549.673
233.2508, 5501.090
233.7329, 5469.305
234.2151, 5459.700
234.6972, 5453.029
235.1793, 5422.307
235.6614, 5363.375
236.1435, 5317.940
236.6256, 5300.349
237.1078, 5297.068
237.5899, 5304.820
238.0720, 5322.762
238.5541, 5335.982
239.0362, 5327.384
239.5183, 5297.625
240.0005, 5273.928
240.4826, 5265.665
240.9647, 5259.501
241.4468, 5244.071
241.9289, 5220.265
242.4111, 5198.971
242.8932, 5190.264
243.3753, 5191.507
243.8574, 5188.235
244.3395, 5178.297
244.8216, 5164.391
245.3038, 5145.017
245.7859, 5122.551
246.2680, 5106.482
246.7501, 5105.827
247.2322, 5114.888
247.7143, 5121.051
248.1965, 5126.883
248.6786, 5121.862
249.1607, 5084.533
249.6428, 5030.616
250.1249, 4995.616
250.6070, 5002.727
251.0892, 5031.189
251.5713, 5053.116
252.0534, 5069.820
252.5355, 5072.724
253.0176, 5040.595
253.4997, 4993.500
253.9819, 4969.877
254.4640, 4990.593
254.9461, 5023.354
255.4282, 5036.399
255.9103, 5030.192
256.3924, 5023.479
256.8745, 5024.675
257.3567, 5031.699
257.8388, 5038.851
258.3209, 5044.223
258.8030, 5052.640
259.2851, 5073.219
259.7672, 5101.413
260.2494, 5116.042
260.7315, 5103.948
261.2136, 5080.827
261.6957, 5076.319
262.1778, 5095.563
262.6599, 5113.211
263.1421, 5119.076
263.6242, 5116.551
264.1063, 5110.054
264.5884, 5099.064
265.0705, 5090.507
265.5526, 5096.918
266.0348, 5120.442
266.5169, 5140.703
266.9990, 5153.057
267.4811, 5160.753
267.9632, 5165.559
268.4453, 5167.822
268.9275, 5173.103
269.4096, 5189.545
269.8917, 5220.417
270.3738, 5236.334
270.8559, 5225.922
271.3380, 5208.827
271.8202, 5196.302
272.3023, 5189.622
272.7844, 5187.458
273.2665, 5188.500
273.7487, 5192.984
274.2308, 5205.808
274.7129, 5247.537
275.1950, 5275.276
275.6771, 5262.504
276.1592, 5222.276
276.6414, 5184.387
277.1235, 5166.134
277.6056, 5162.340
278.0877, 5150.175
278.5698, 5112.149
279.0519, 5087.149
279.5341, 5095.168
280.0162, 5113.813
280.4983, 5113.649
280.9804, 5083.324
281.4625, 5037.400
281.9446, 5005.111
282.4268, 5001.291
282.9089, 4988.183
283.3910, 4956.604
283.8731, 4922.470
284.3552, 4898.032
284.8373, 4885.316
285.3195, 4878.730
285.8016, 4871.750
286.2837, 4864.160
286.7658, 4856.954
287.2479, 4849.114
287.7300, 4842.539
288.2122, 4839.555
288.6943, 4838.903
289.1764, 4837.368
289.6585, 4833.723
290.1406, 4827.579
290.6227, 4809.283
291.1049, 4760.511
291.5870, 4721.235
292.0691, 4710.137
292.5512, 4714.580
293.0333, 4713.552
293.5154, 4694.637
293.9976, 4666.056
294.4797, 4649.994
294.9618, 4651.270
295.4439, 4654.133
295.9260, 4655.660
296.4081, 4655.628
296.8903, 4653.451
297.3724, 4648.828
297.8545, 4642.989
298.3366, 4638.251
298.8187, 4634.955
299.3008, 4627.358
299.7830, 4606.179
300.2651, 4587.259
300.7472, 4585.857
301.2293, 4602.251
301.7114, 4618.861
302.1935, 4621.812
302.6757, 4614.953
303.1578, 4613.557
303.6399, 4621.954
304.1220, 4631.172
304.6041, 4632.172
305.0862, 4627.193
305.5684, 4624.546
306.0505, 4624.747
306.5326, 4629.779
307.0147, 4644.337
307.4968, 4669.142
307.9789, 4694.427
308.4611, 4715.721
308.9432, 4732.087
309.4253, 4742.617
309.9074, 4731.983
310.3895, 4730.530
310.8716, 4762.990
311.3538, 4820.251
311.8359, 4872.745
312.3180, 4905.062
312.8001, 4928.758
313.2822, 4973.719
313.7643, 5049.751
314.2465, 5123.386
314.7286, 5183.868
315.2107, 5240.272
315.6928, 5301.674
316.1749, 5370.590
316.6570, 5447.765
317.1392, 5535.403
317.6213, 5638.845
318.1034, 5735.338
318.5855, 5812.143
319.0676, 5893.132
319.5497, 5996.495
320.0319, 6118.973
320.5140, 6240.002
320.9961, 6341.736
321.4782, 6425.130
321.9603, 6542.367
322.4424, 6705.731
322.9246, 6890.316
323.4067, 7093.939
323.8888, 7316.469
324.3709, 7562.210
324.8530, 7833.874
325.3351, 8122.311
325.8173, 8404.447
326.2994, 8672.581
326.7815, 8953.861
327.2636, 9293.063
327.7457, 9618.225
328.2278, 9882.056
328.7100, 10075.38
329.1921, 10207.70
329.6742, 10299.63
330.1563, 10354.22
330.6384, 10304.03
331.1205, 10102.29
331.6027, 9835.636
332.0848, 9539.863
332.5669, 9223.478
333.0490, 8902.888
333.5311, 8581.382
334.0132, 8263.962
334.4954, 7954.422
334.9775, 7649.331
335.4596, 7368.028
335.9417, 7123.122
336.4238, 6908.732
336.9059, 6724.167
337.3881, 6576.690
337.8702, 6446.715
338.3523, 6318.823
338.8344, 6194.910
339.3165, 6084.210
339.7986, 5992.833
340.2808, 5912.712
340.7629, 5829.163
341.2450, 5738.450
341.7271, 5660.101
342.2092, 5607.073
342.6913, 5566.119
343.1735, 5518.669
343.6556, 5462.203
344.1377, 5409.491
344.6198, 5373.446
345.1019, 5356.047
345.5840, 5339.662
346.0662, 5329.149
346.5483, 5314.940
347.0304, 5291.996
347.5125, 5261.715
347.9946, 5226.264
348.4767, 5186.256
348.9589, 5144.599
349.4410, 5111.962
349.9231, 5084.361
350.4052, 5072.789
350.8873, 5092.291
351.3694, 5119.794
351.8516, 5133.811
352.3337, 5129.223
352.8158, 5116.139
353.2979, 5105.582
353.7800, 5095.740
354.2621, 5095.997
354.7443, 5123.744
355.2264, 5146.528
355.7085, 5147.888
356.1906, 5132.803
356.6727, 5117.118
357.1548, 5112.193
357.6370, 5113.544
358.1191, 5104.504
358.6012, 5077.841
359.0833, 5059.891
359.5654, 5068.081
360.0475, 5088.966
360.5297, 5110.101
361.0118, 5130.084
361.4939, 5145.859
361.9760, 5154.402
362.4581, 5156.163
362.9402, 5152.463
363.4224, 5140.036
363.9045, 5128.005
364.3866, 5126.739
364.8687, 5135.340
365.3508, 5153.202
365.8329, 5197.922
366.3151, 5242.161
366.7972, 5242.192
367.2793, 5198.503
367.7614, 5169.581
368.2435, 5204.810
368.7256, 5297.243
369.2078, 5354.594
369.6899, 5351.078
370.1720, 5347.705
370.6541, 5366.201
371.1362, 5397.371
371.6183, 5427.128
372.1005, 5449.897
372.5826, 5465.707
373.0647, 5472.851
373.5468, 5456.821
374.0289, 5461.477
374.5110, 5504.917
374.9932, 5551.354
375.4753, 5573.595
375.9574, 5575.447
376.4395, 5582.729
376.9216, 5620.600
377.4037, 5685.301
377.8859, 5730.269
378.3680, 5733.648
378.8501, 5751.121
379.3322, 5815.757
379.8143, 5897.641
380.2964, 5955.914
380.7786, 5973.396
381.2607, 5976.927
381.7428, 6001.422
382.2249, 6047.016
382.7070, 6086.603
383.1891, 6111.116
383.6713, 6129.742
384.1534, 6145.850
384.6355, 6159.907
385.1176, 6193.215
385.5997, 6275.551
386.0818, 6373.007
386.5640, 6432.496
387.0461, 6449.739
387.5282, 6462.904
388.0103, 6497.236
388.4924, 6550.462
388.9745, 6603.689
389.4567, 6663.662
389.9388, 6716.026
390.4209, 6749.031
390.9030, 6772.542
391.3851, 6803.325
391.8672, 6847.074
392.3494, 6897.446
392.8315, 6945.137
393.3136, 6992.985
393.7957, 7029.739
394.2778, 7049.778
394.7599, 7065.727
395.2421, 7082.211
395.7242, 7100.662
396.2063, 7123.151
396.6884, 7153.096
397.1706, 7186.882
397.6527, 7205.770
398.1348, 7201.518
398.6169, 7197.173
399.0990, 7202.491
399.5811, 7208.653
400.0633, 7207.051
400.5454, 7195.477
401.0275, 7178.724
401.5096, 7162.911
401.9917, 7146.913
402.4738, 7121.924
402.9560, 7084.467
403.4381, 7040.958
403.9202, 6994.180
404.4023, 6945.128
404.8844, 6897.722
405.3665, 6857.847
405.8487, 6815.813
406.3308, 6760.125
406.8129, 6692.833
407.2950, 6627.538
407.7771, 6573.319
408.2592, 6521.586
408.7414, 6448.098
409.2235, 6328.893
409.7056, 6232.689
410.1877, 6190.034
410.6698, 6160.370
411.1519, 6106.719
411.6341, 6024.369
412.1162, 5928.293
412.5983, 5829.727
413.0804, 5728.658
413.5625, 5646.830
414.0446, 5598.775
414.5268, 5556.115
415.0089, 5522.132
415.4910, 5486.817
415.9731, 5434.536
416.4552, 5358.250
416.9373, 5274.927
417.4195, 5211.851
417.9016, 5171.758
418.3837, 5125.578
418.8658, 5062.067
419.3479, 4998.329
419.8300, 4946.731
420.3122, 4906.031
420.7943, 4868.294
421.2764, 4834.153
421.7585, 4799.172
422.2406, 4751.437
422.7227, 4691.292
423.2049, 4643.893
423.6870, 4626.476
424.1691, 4628.197
424.6512, 4619.113
425.1333, 4599.032
425.6154, 4570.765
426.0976, 4527.220
426.5797, 4479.548
427.0618, 4438.916
427.5439, 4407.887
428.0260, 4387.876
428.5081, 4382.602
428.9903, 4393.928
429.4724, 4390.867
429.9545, 4357.359
430.4366, 4327.321
430.9187, 4309.970
431.4008, 4301.027
431.8830, 4295.794
432.3651, 4292.507
432.8472, 4287.343
433.3293, 4271.276
433.8114, 4241.486
434.2935, 4221.803
434.7757, 4218.419
435.2578, 4223.446
435.7399, 4234.284
436.2220, 4249.272
436.7041, 4262.763
437.1862, 4274.722
437.6684, 4282.378
438.1505, 4275.753
438.6326, 4255.985
439.1147, 4250.359
439.5968, 4278.101
440.0789, 4321.418
440.5611, 4338.654
441.0432, 4320.962
441.5253, 4306.057
442.0074, 4300.023
442.4895, 4301.614
442.9716, 4309.792
443.4538, 4324.298
443.9359, 4345.527
444.4180, 4374.559
444.9001, 4410.953
445.3822, 4444.886
445.8643, 4469.845
446.3465, 4499.967
446.8286, 4549.470
447.3107, 4599.089
447.7928, 4625.051
448.2749, 4621.701
448.7570, 4609.740
449.2392, 4615.066
449.7213, 4637.388
450.2034, 4649.409
450.6855, 4643.576
451.1676, 4636.580
451.6497, 4643.622
452.1319, 4656.922
452.6140, 4660.034
453.0961, 4651.843
453.5782, 4627.774
454.0603, 4573.958
454.5424, 4498.860
455.0246, 4435.219
455.5067, 4394.979
455.9888, 4364.234
456.4709, 4323.168
456.9530, 4267.708
457.4352, 4215.404
457.9173, 4166.048
458.3994, 4119.616
458.8815, 4078.292
459.3636, 4039.869
459.8457, 3997.881
460.3279, 3947.253
460.8100, 3895.725
461.2921, 3866.787
461.7742, 3877.698
462.2563, 3872.578
462.7384, 3833.902
463.2206, 3787.274
463.7027, 3741.354
464.1848, 3700.312
464.6669, 3674.875
465.1490, 3683.769
465.6311, 3710.171
466.1133, 3708.881
466.5954, 3675.547
467.0775, 3649.084
467.5596, 3652.742
468.0417, 3671.359
468.5238, 3674.619
469.0060, 3658.392
469.4881, 3640.013
469.9702, 3624.015
470.4523, 3609.755
470.9344, 3594.507
471.4165, 3578.988
471.8987, 3570.751
472.3808, 3577.657
472.8629, 3597.570
473.3450, 3607.347
473.8271, 3598.121
474.3092, 3588.475
474.7914, 3578.154
475.2735, 3569.622
475.7556, 3566.296
476.2377, 3568.354
476.7198, 3570.923
477.2019, 3567.939
477.6841, 3559.985
478.1662, 3556.467
478.6483, 3561.263
479.1304, 3562.685
479.6125, 3550.110
480.0946, 3531.072
480.5768, 3515.912
481.0589, 3504.146
481.5410, 3501.043
482.0231, 3521.573
482.5052, 3551.380
482.9873, 3555.512
483.4695, 3525.886
483.9516, 3490.840
484.4337, 3478.962
484.9158, 3491.895
485.3979, 3500.888
485.8800, 3508.876
486.3622, 3510.440
486.8443, 3496.038
487.3264, 3477.239
487.8085, 3471.467
488.2906, 3483.787
488.7727, 3500.812
489.2549, 3504.483
489.7370, 3493.549
490.2191, 3482.447
490.7012, 3471.940
491.1833, 3460.692
491.6654, 3442.809
492.1476, 3424.631
492.6297, 3419.212
493.1118, 3436.148
493.5939, 3455.585
494.0760, 3462.846
494.5581, 3458.969
495.0403, 3444.289
495.5224, 3416.999
496.0045, 3390.442
496.4866, 3379.228
496.9687, 3384.944
497.4508, 3394.396
497.9330, 3413.926
498.4151, 3430.103
498.8972, 3435.745
499.3793, 3435.059
499.8614, 3435.055
500.3435, 3438.242
500.8257, 3441.230
501.3078, 3437.830
501.7899, 3426.266
502.2720, 3420.283
502.7541, 3430.601
503.2362, 3433.019
503.7184, 3404.345
504.2005, 3362.299
504.6826, 3342.772
505.1647, 3365.916
505.6468, 3396.798
506.1289, 3401.242
506.6111, 3386.838
507.0932, 3381.271
507.5753, 3392.981
508.0574, 3404.329
508.5395, 3393.650
509.0216, 3358.080
509.5038, 3343.189
509.9859, 3370.537
510.4680, 3393.292
510.9501, 3394.789
511.4322, 3380.564
511.9143, 3354.449
512.3965, 3319.183
512.8786, 3287.772
513.3607, 3281.141
513.8428, 3302.713
514.3250, 3315.190
514.8071, 3310.339
515.2892, 3308.252
515.7713, 3322.184
516.2534, 3343.788
516.7355, 3360.493
517.2177, 3370.496
517.6998, 3371.617
518.1819, 3356.044
518.6640, 3330.891
519.1461, 3312.803
519.6282, 3305.115
520.1104, 3304.323
520.5925, 3308.232
521.0746, 3316.802
521.5567, 3324.581
522.0388, 3335.332
522.5209, 3340.845
523.0031, 3334.443
523.4852, 3324.115
523.9673, 3318.358
524.4494, 3319.222
524.9315, 3323.782
525.4136, 3329.342
525.8958, 3335.926
526.3779, 3345.693
526.8600, 3363.748
527.3421, 3373.302
527.8242, 3354.811
528.3063, 3328.060
528.7885, 3320.471
529.2706, 3340.278
529.7527, 3357.368
530.2348, 3354.011
530.7169, 3340.263
531.1990, 3327.335
531.6812, 3317.569
532.1633, 3317.548
532.6454, 3334.962
533.1275, 3363.170
533.6096, 3368.628
534.0917, 3317.853
534.5739, 3291.673
535.0560, 3311.015
535.5381, 3343.291
536.0202, 3365.931
536.5023, 3377.197
536.9844, 3385.965
537.4666, 3399.134
537.9487, 3413.580
538.4308, 3418.014
538.9129, 3410.161
539.3950, 3416.910
539.8771, 3455.776
540.3593, 3504.771
540.8414, 3533.035
541.3235, 3539.818
541.8056, 3545.409
542.2877, 3547.214
542.7698, 3554.953
543.2520, 3579.361
543.7341, 3615.713
544.2162, 3651.275
544.6983, 3680.087
545.1804, 3705.750
545.6625, 3734.706
546.1447, 3766.466
546.6268, 3802.906
547.1089, 3846.593
547.5910, 3892.574
548.0731, 3938.331
548.5552, 3984.838
549.0374, 4033.726
549.5195, 4084.142
550.0016, 4139.896
550.4837, 4213.314
550.9658, 4295.773
551.4479, 4354.388
551.9301, 4380.651
552.4122, 4402.161
552.8943, 4447.963
553.3764, 4516.875
553.8585, 4552.922
554.3406, 4547.429
554.8228, 4525.494
555.3049, 4487.686
555.7870, 4438.943
556.2691, 4384.098
556.7512, 4324.070
557.2333, 4256.496
557.7155, 4176.525
558.1976, 4087.641
558.6797, 4005.592
559.1618, 3930.109
559.6439, 3863.466
560.1260, 3809.009
560.6082, 3763.134
561.0903, 3720.569
561.5724, 3681.922
562.0545, 3643.965
562.5366, 3602.296
563.0187, 3563.791
563.5009, 3535.896
563.9830, 3516.744
564.4651, 3498.310
564.9472, 3476.344
565.4293, 3453.848
565.9114, 3438.215
566.3936, 3434.460
566.8757, 3423.057
567.3578, 3391.989
567.8399, 3364.609
568.3220, 3352.261
568.8041, 3350.417
569.2863, 3350.071
569.7684, 3348.927
570.2505, 3346.140
570.7326, 3340.077
571.2147, 3331.763
571.6968, 3324.730
572.1790, 3319.869
572.6611, 3313.034
573.1432, 3299.602
573.6253, 3280.570
574.1074, 3268.368
574.5895, 3268.615
575.0717, 3267.991
575.5538, 3264.316
576.0359, 3259.238
576.5180, 3255.363
577.0001, 3252.138
577.4822, 3245.182
577.9644, 3228.417
578.4465, 3207.453
578.9286, 3199.521
579.4107, 3206.258
579.8928, 3207.585
580.3749, 3194.061
580.8571, 3176.073
581.3392, 3167.701
581.8213, 3168.814
582.3034, 3170.474
582.7855, 3177.353
583.2676, 3178.650
583.7498, 3162.917
584.2319, 3138.402
584.7140, 3118.752
585.1961, 3109.077
585.6782, 3107.868
586.1603, 3115.346
586.6425, 3132.161
587.1246, 3145.160
587.6067, 3158.445
588.0888, 3160.538
588.5709, 3134.376
589.0530, 3099.283
589.5352, 3080.113
590.0173, 3082.428
590.4994, 3086.896
590.9815, 3082.375
591.4636, 3076.447
591.9457, 3079.897
592.4279, 3091.559
592.9100, 3102.227
593.3921, 3106.890
593.8742, 3106.583
594.3563, 3103.363
594.8384, 3095.318
595.3206, 3088.890
595.8027, 3084.222
596.2848, 3081.198
596.7669, 3081.325
597.2490, 3082.816
597.7311, 3082.680
598.2133, 3080.827
598.6954, 3074.540
599.1775, 3054.503
599.6596, 3028.989
600.1417, 3021.586
600.6238, 3036.083
601.1060, 3052.911
601.5881, 3056.725
602.0702, 3050.151
602.5523, 3048.961
603.0344, 3060.665
603.5165, 3067.381
603.9987, 3067.413
604.4808, 3062.913
604.9629, 3050.829
605.4450, 3035.004
605.9271, 3027.533
606.4092, 3039.242
606.8914, 3056.741
607.3735, 3059.839
607.8556, 3050.137
608.3377, 3039.540
608.8198, 3030.448
609.3019, 3022.947
609.7841, 3016.813
610.2662, 3012.087
610.7483, 3010.929
611.2304, 3019.244
611.7125, 3023.332
612.1946, 3014.570
612.6768, 3003.548
613.1589, 3003.487
613.6410, 3014.052
614.1231, 3021.221
614.6052, 3010.091
615.0873, 2990.739
615.5695, 2993.498
616.0516, 3019.737
616.5337, 3034.394
617.0158, 3022.289
617.4979, 3002.227
617.9800, 2998.495
618.4622, 3012.648
618.9443, 3017.649
619.4264, 3005.228
619.9085, 2991.697
620.3906, 2980.416
620.8727, 2973.519
621.3549, 2976.242
621.8370, 2988.194
622.3191, 2998.573
622.8012, 2994.299
623.2833, 2979.928
623.7654, 2979.478
624.2476, 2996.922
624.7297, 3005.176
625.2118, 2989.885
625.6939, 2965.449
626.1760, 2949.324
626.6581, 2940.547
627.1403, 2944.549
627.6224, 2978.247
628.1045, 3008.382
628.5866, 3011.944
629.0687, 3001.244
629.5508, 2997.825
630.0330, 3007.706
630.5151, 3019.149
630.9972, 3018.593
631.4793, 3007.411
631.9614, 2995.901
632.4435, 2982.377
632.9257, 2974.768
633.4078, 2978.104
633.8899, 2987.563
634.3720, 2999.081
634.8541, 3014.363
635.3362, 3017.221
635.8184, 2989.830
636.3005, 2963.381
636.7826, 2961.372
637.2647, 2973.383
637.7468, 2978.207
638.2289, 2968.982
638.7111, 2956.597
639.1932, 2954.369
639.6753, 2961.553
640.1574, 2967.656
640.6395, 2971.324
641.1216, 2978.882
641.6038, 2999.241
642.0859, 3020.127
642.5680, 3021.611
643.0501, 3000.990
643.5322, 2983.431
644.0143, 2973.886
644.4965, 2969.035
644.9786, 2968.815
645.4607, 2971.200
645.9428, 2973.360
646.4249, 2974.224
646.9070, 2973.474
647.3892, 2969.966
647.8713, 2964.073
648.3534, 2958.734
648.8355, 2951.489
649.3176, 2954.439
649.7997, 2979.977
650.2819, 3012.378
650.7640, 3027.581
651.2461, 3024.024
651.7282, 3019.082
652.2103, 3007.571
652.6924, 3003.534
653.1746, 3021.368
653.6567, 3050.496
654.1388, 3074.344
654.6209, 3087.440
655.1030, 3092.387
655.5851, 3086.912
656.0673, 3074.595
656.5494, 3081.098
657.0315, 3110.377
657.5136, 3137.362
657.9957, 3149.235
658.4778, 3157.692
658.9600, 3183.391
659.4421, 3229.228
659.9242, 3262.004
660.4063, 3262.873
660.8884, 3267.827
661.3705, 3297.355
661.8527, 3340.144
662.3348, 3378.531
662.8169, 3408.833
663.2990, 3441.291
663.7811, 3488.023
664.2632, 3543.913
664.7454, 3589.426
665.2275, 3623.586
665.7096, 3665.129
666.1917, 3723.023
666.6738, 3785.475
667.1559, 3835.648
667.6381, 3870.927
668.1202, 3920.411
668.6023, 3990.111
669.0844, 4066.379
669.5665, 4158.812
670.0486, 4247.707
670.5308, 4306.651
671.0129, 4335.513
671.4950, 4359.881
671.9771, 4399.023
672.4592, 4445.461
672.9413, 4493.357
673.4235, 4539.948
673.9056, 4557.948
674.3877, 4537.472
674.8698, 4496.857
675.3519, 4452.363
675.8340, 4404.251
676.3162, 4356.828
676.7983, 4316.412
677.2804, 4268.548
677.7625, 4214.033
678.2446, 4149.191
678.7267, 4062.350
679.2089, 3960.652
679.6910, 3871.339
680.1731, 3813.258
680.6552, 3765.256
681.1373, 3701.611
681.6194, 3628.659
682.1016, 3565.894
682.5837, 3517.278
683.0658, 3471.875
683.5479, 3421.371
684.0300, 3366.972
684.5121, 3315.000
684.9943, 3260.744
685.4764, 3218.649
685.9585, 3197.121
686.4406, 3181.957
686.9227, 3169.241
687.4048, 3156.817
687.8870, 3139.919
688.3691, 3115.253
688.8512, 3090.686
689.3333, 3069.275
689.8154, 3051.995
690.2975, 3044.748
690.7797, 3044.530
691.2618, 3034.405
691.7439, 3003.520
692.2260, 2963.976
692.7081, 2941.542
693.1902, 2938.198
693.6724, 2939.297
694.1545, 2949.047
694.6366, 2954.514
695.1187, 2947.107
695.6008, 2931.448
696.0829, 2914.024
696.5651, 2893.073
697.0472, 2877.976
697.5293, 2875.024
698.0114, 2875.254
698.4935, 2875.421
698.9756, 2872.967
699.4578, 2860.577
699.9399, 2836.488
700.4220, 2816.136
700.9041, 2823.690
701.3862, 2851.874
701.8683, 2859.403
702.3505, 2843.808
702.8326, 2830.273
703.3147, 2829.503
703.7968, 2833.390
704.2789, 2830.206
704.7611, 2818.302
705.2432, 2810.592
705.7253, 2813.450
706.2075, 2812.453
706.6896, 2797.227
707.1717, 2780.154
707.6538, 2774.355
708.1359, 2780.725
708.6180, 2790.917
709.1002, 2802.839
709.5823, 2812.766
710.0644, 2814.891
710.5465, 2810.826
711.0286, 2806.344
711.5107, 2802.746
711.9929, 2796.083
712.4750, 2781.544
712.9571, 2761.968
713.4392, 2755.407
713.9213, 2773.261
714.4034, 2777.924
714.8856, 2747.801
715.3677, 2720.493
715.8498, 2720.746
716.3319, 2740.419
716.8140, 2759.502
717.2961, 2777.853
717.7783, 2786.066
718.2604, 2766.347
718.7425, 2743.272
719.2246, 2749.604
719.7067, 2777.708
720.1888, 2795.911
720.6710, 2788.401
721.1531, 2767.485
721.6352, 2748.099
722.1173, 2730.726
722.5994, 2726.120
723.0815, 2738.743
723.5637, 2744.918
724.0458, 2730.637
724.5279, 2706.980
725.0100, 2690.899
725.4921, 2681.335
725.9742, 2685.531
726.4564, 2720.302
726.9385, 2749.305
727.4206, 2758.427
727.9027, 2755.101
728.3848, 2744.201
728.8669, 2728.743
729.3491, 2719.075
729.8312, 2729.086
730.3133, 2742.707
730.7954, 2735.827
731.2775, 2714.541
731.7596, 2697.382
732.2418, 2688.799
732.7239, 2686.252
733.2060, 2688.536
733.6881, 2693.962
734.1702, 2693.404
734.6523, 2683.564
735.1345, 2677.132
735.6166, 2675.385
736.0987, 2677.825
736.5808, 2688.555
737.0629, 2702.556
737.5450, 2706.985
738.0272, 2694.908
738.5093, 2685.426
738.9914, 2688.704
739.4735, 2693.767
739.9556, 2689.820
740.4377, 2680.246
740.9199, 2674.032
741.4020, 2674.833
741.8841, 2679.952
742.3662, 2692.389
742.8483, 2706.500
743.3304, 2694.756
743.8126, 2656.588
744.2947, 2635.175
744.7768, 2650.107
745.2589, 2679.461
745.7410, 2695.322
746.2231, 2697.163
746.7053, 2692.626
747.1874, 2673.554
747.6695, 2659.677
748.1516, 2656.712
748.6337, 2658.482
749.1158, 2662.147
749.5980, 2666.381
750.0801, 2667.165
750.5622, 2660.863
751.0443, 2653.931
751.5264, 2652.404
752.0085, 2651.605
752.4907, 2640.381
752.9728, 2622.197
753.4549, 2617.397
753.9370, 2639.402
754.4191, 2670.019
754.9012, 2674.180
755.3834, 2653.953
755.8655, 2643.854
756.3476, 2647.464
756.8297, 2655.506
757.3118, 2666.068
757.7939, 2674.739
758.2761, 2671.981
758.7582, 2652.087
759.2403, 2642.485
759.7224, 2654.837
760.2045, 2662.454
760.6866, 2651.670
761.1688, 2636.094
761.6509, 2629.663
762.1330, 2633.706
762.6151, 2641.999
763.0972, 2658.865
763.5793, 2671.519
764.0615, 2665.937
764.5436, 2650.083
765.0257, 2636.734
765.5078, 2628.192
765.9899, 2621.421
766.4720, 2614.483
766.9542, 2607.531
767.4363, 2599.866
767.9184, 2591.402
768.4005, 2588.165
768.8826, 2590.878
769.3647, 2598.887
769.8469, 2613.962
770.3290, 2632.228
770.8111, 2644.964
771.2932, 2650.733
771.7753, 2654.747
772.2574, 2659.896
772.7396, 2659.910
773.2217, 2645.860
773.7038, 2629.367
774.1859, 2627.147
774.6680, 2639.495
775.1501, 2645.150
775.6323, 2627.092
776.1144, 2603.907
776.5965, 2587.944
777.0786, 2579.269
777.5607, 2579.786
778.0428, 2588.466
778.5250, 2599.750
779.0071, 2610.578
779.4892, 2618.307
779.9713, 2613.476
780.4534, 2596.499
780.9355, 2593.808
781.4177, 2612.262
781.8998, 2623.922
782.3819, 2609.374
782.8640, 2582.449
783.3461, 2572.718
783.8282, 2587.021
784.3104, 2596.194
784.7925, 2597.254
785.2746, 2596.916
785.7567, 2598.637
786.2388, 2598.846
786.7209, 2591.137
787.2031, 2576.247
787.6852, 2566.734
788.1673, 2571.516
788.6494, 2579.009
789.1315, 2582.635
789.6136, 2583.757
790.0958, 2584.159
790.5779, 2584.089
791.0600, 2583.075
791.5421, 2580.878
792.0242, 2577.471
792.5063, 2570.594
792.9885, 2561.898
793.4706, 2565.274
793.9527, 2582.724
794.4348, 2584.906
794.9169, 2553.764
795.3990, 2510.625
795.8812, 2490.659
796.3633, 2496.266
796.8454, 2507.107
797.3275, 2532.933
797.8096, 2548.254
798.2917, 2537.728
798.7739, 2520.283
799.2560, 2507.812
799.7381, 2501.303
800.2202, 2503.929
800.7023, 2530.441
801.1844, 2547.752
801.6666, 2537.539
802.1487, 2518.490
802.6308, 2503.325
803.1129, 2494.686
803.5950, 2495.539
804.0771, 2508.001
804.5593, 2519.035
805.0414, 2514.486
805.5235, 2500.074
806.0056, 2483.260
806.4877, 2466.433
806.9698, 2457.612
807.4520, 2459.599
807.9341, 2471.475
808.4162, 2495.445
808.8983, 2527.525
809.3804, 2538.889
809.8625, 2525.225
810.3447, 2511.944
810.8268, 2504.176
811.3089, 2497.424
811.7910, 2487.667
812.2731, 2476.145
812.7552, 2467.873
813.2374, 2461.818
813.7195, 2460.821
814.2016, 2473.546
814.6837, 2481.986
815.1658, 2472.135
815.6479, 2455.380
816.1301, 2448.547
816.6122, 2454.474
817.0943, 2461.919
817.5764, 2465.399
818.0585, 2468.569
818.5406, 2477.700
819.0228, 2486.854
819.5049, 2484.583
819.9870, 2471.241
820.4691, 2458.377
820.9512, 2453.722
821.4333, 2453.365
821.9155, 2449.599
822.3976, 2444.517
822.8797, 2451.961
823.3618, 2472.586
823.8439, 2477.427
824.3260, 2449.189
824.8082, 2412.676
825.2903, 2411.509
825.7724, 2448.975
826.2545, 2461.969
826.7366, 2438.679
827.2188, 2420.249
827.7009, 2418.345
828.1830, 2424.799
828.6651, 2436.437
829.1472, 2451.227
829.6293, 2454.635
830.1115, 2430.146
830.5936, 2417.682
831.0757, 2432.655
831.5578, 2450.846
832.0399, 2458.622
832.5220, 2457.965
833.0042, 2452.858
833.4863, 2443.923
833.9684, 2438.019
834.4505, 2441.677
834.9326, 2447.766
835.4147, 2449.848
835.8969, 2449.560
836.3790, 2449.672
836.8611, 2451.095
837.3432, 2455.509
837.8253, 2466.652
838.3074, 2475.406
838.7896, 2459.157
839.2717, 2425.475
839.7538, 2410.538
840.2359, 2418.096
840.7180, 2430.027
841.2001, 2437.646
841.6823, 2440.424
842.1644, 2436.066
842.6465, 2423.889
843.1286, 2417.681
843.6107, 2416.962
844.0928, 2424.750
844.5750, 2449.314
845.0571, 2472.174
845.5392, 2471.552
846.0213, 2451.259
846.5034, 2444.892
846.9855, 2471.798
847.4677, 2483.140
847.9498, 2459.358
848.4319, 2436.968
848.9140, 2440.997
849.3961, 2457.338
849.8782, 2459.051
850.3604, 2440.018
850.8425, 2429.585
851.3246, 2453.142
851.8067, 2474.728
852.2888, 2463.494
852.7709, 2439.231
853.2531, 2430.157
853.7352, 2437.894
854.2173, 2445.415
854.6994, 2441.748
855.1815, 2437.545
855.6636, 2447.993
856.1458, 2466.131
856.6279, 2479.075
857.1100, 2485.306
857.5921, 2482.889
858.0742, 2471.047
858.5563, 2457.921
859.0385, 2454.279
859.5206, 2457.989
860.0027, 2455.051
860.4848, 2444.739
860.9669, 2444.626
861.4490, 2460.540
861.9312, 2478.897
862.4133, 2490.066
862.8954, 2495.135
863.3775, 2498.080
863.8596, 2501.102
864.3417, 2494.523
864.8239, 2464.018
865.3060, 2446.955
865.7881, 2472.633
866.2702, 2509.372
866.7523, 2513.660
867.2344, 2485.560
867.7166, 2472.105
868.1987, 2486.890
868.6808, 2502.912
869.1629, 2521.896
869.6450, 2532.866
870.1271, 2520.065
870.6093, 2494.325
871.0914, 2481.368
871.5735, 2489.979
872.0556, 2499.038
872.5377, 2491.558
873.0198, 2486.180
873.5020, 2508.817
873.9841, 2539.660
874.4662, 2541.735
874.9483, 2512.805
875.4304, 2484.510
875.9125, 2476.952
876.3947, 2480.575
876.8768, 2488.520
877.3589, 2496.729
877.8410, 2492.874
878.3231, 2479.057
878.8052, 2471.046
879.2874, 2475.833
879.7695, 2489.069
880.2516, 2509.056
880.7337, 2532.177
881.2158, 2536.814
881.6979, 2523.299
882.1801, 2520.552
882.6622, 2536.444
883.1443, 2552.280
883.6264, 2553.140
884.1085, 2544.907
884.5906, 2544.738
885.0728, 2554.960
885.5549, 2562.991
886.0370, 2568.584
886.5191, 2571.733
887.0012, 2569.285
887.4833, 2568.073
887.9655, 2577.578
888.4476, 2597.594
888.9297, 2613.767
889.4118, 2632.477
889.8939, 2637.777
890.3760, 2613.367
890.8582, 2590.937
891.3403, 2587.423
891.8224, 2598.227
892.3045, 2616.596
892.7866, 2643.845
893.2687, 2664.366
893.7509, 2671.669
894.2330, 2674.731
894.7151, 2676.478
895.1972, 2677.041
895.6793, 2674.410
896.1614, 2670.374
896.6436, 2670.860
897.1257, 2678.357
897.6078, 2690.124
898.0899, 2703.711
898.5720, 2721.163
899.0541, 2748.946
899.5363, 2780.901
900.0184, 2804.613
900.5005, 2817.361
900.9826, 2826.720
901.4647, 2838.151
901.9468, 2849.515
902.4290, 2853.817
902.9111, 2857.096
903.3932, 2877.778
903.8753, 2913.654
904.3574, 2940.931
904.8395, 2948.494
905.3217, 2952.108
905.8038, 2972.781
906.2859, 3006.670
906.7680, 3038.460
907.2501, 3068.689
907.7322, 3104.014
908.2144, 3146.066
908.6965, 3186.552
909.1786, 3217.609
909.6607, 3248.099
910.1428, 3301.998
910.6249, 3381.833
911.1071, 3453.141
911.5892, 3512.458
912.0713, 3575.988
912.5534, 3647.546
913.0355, 3729.599
913.5176, 3825.431
913.9998, 3934.530
914.4819, 4053.834
914.9640, 4188.815
915.4461, 4319.433
915.9282, 4430.704
916.4103, 4558.852
916.8925, 4724.404
917.3746, 4915.691
917.8567, 5113.305
918.3388, 5314.388
918.8209, 5543.494
919.3030, 5817.637
919.7852, 6096.534
920.2673, 6370.320
920.7494, 6648.800
921.2315, 6931.341
921.7136, 7225.210
922.1957, 7546.192
922.6779, 7900.854
923.1600, 8256.994
923.6421, 8601.863
924.1242, 8953.578
924.6063, 9310.879
925.0884, 9685.682
925.5706, 10100.29
926.0527, 10545.62
926.5348, 10990.79
927.0169, 11431.30
927.4990, 11856.67
927.9811, 12266.67
928.4633, 12654.38
928.9454, 13034.48
929.4275, 13380.82
929.9096, 13677.07
930.3917, 13906.21
930.8738, 14005.76
931.3560, 13932.87
931.8381, 13732.07
932.3202, 13426.21
932.8023, 13026.11
933.2844, 12526.83
933.7665, 11945.24
934.2487, 11317.72
934.7308, 10656.97
935.2129, 9990.320
935.6950, 9320.523
936.1771, 8672.219
936.6592, 8081.755
937.1414, 7542.996
937.6235, 7048.292
938.1056, 6596.628
938.5877, 6192.306
939.0698, 5835.810
939.5519, 5520.920
940.0341, 5244.933
940.5162, 5001.985
940.9983, 4777.253
941.4804, 4570.636
941.9625, 4389.106
942.4446, 4232.619
942.9268, 4086.746
943.4089, 3939.759
943.8910, 3801.920
944.3731, 3696.294
944.8552, 3618.340
945.3373, 3537.140
945.8195, 3451.773
946.3016, 3378.841
946.7837, 3324.029
947.2658, 3268.524
947.7479, 3194.226
948.2300, 3112.098
948.7122, 3058.171
949.1943, 3033.859
949.6764, 2996.526
950.1585, 2941.232
950.6406, 2896.886
951.1228, 2877.749
951.6049, 2861.137
952.0870, 2819.756
952.5692, 2760.080
953.0513, 2721.454
953.5334, 2708.116
954.0155, 2695.596
954.4976, 2682.640
954.9797, 2668.335
955.4619, 2653.260
955.9440, 2634.387
956.4261, 2605.071
956.9082, 2565.967
957.3903, 2544.943
957.8724, 2554.042
958.3546, 2548.029
958.8367, 2510.698
959.3188, 2477.254
959.8009, 2470.070
960.2830, 2476.079
960.7651, 2471.780
961.2473, 2455.092
961.7294, 2447.443
962.2115, 2457.552
962.6936, 2461.172
963.1757, 2455.116
963.6578, 2440.496
964.1400, 2409.339
964.6221, 2373.134
965.1042, 2359.040
965.5863, 2375.169
966.0684, 2381.505
966.5505, 2369.727
967.0327, 2359.546
967.5148, 2354.496
967.9969, 2352.481
968.4790, 2354.621
968.9611, 2358.271
969.4432, 2356.300
969.9254, 2347.265
970.4075, 2336.199
970.8896, 2314.626
971.3717, 2302.507
971.8538, 2313.281
972.3359, 2329.908
972.8181, 2342.328
973.3002, 2347.894
973.7823, 2338.605
974.2644, 2303.034
974.7465, 2280.492
975.2286, 2289.877
975.7108, 2298.348
976.1929, 2289.513
976.6750, 2275.164
977.1571, 2267.772
977.6392, 2266.510
978.1213, 2262.608
978.6035, 2248.704
979.0856, 2245.236
979.5677, 2267.837
980.0498, 2289.831
980.5319, 2298.183
981.0140, 2297.852
981.4962, 2294.160
981.9783, 2287.967
982.4604, 2279.640
982.9425, 2268.429
983.4246, 2256.795
983.9067, 2245.273
984.3889, 2233.648
984.8710, 2216.856
985.3531, 2202.857
985.8352, 2205.512
986.3173, 2223.095
986.7994, 2235.129
987.2816, 2232.054
987.7637, 2228.224
988.2458, 2228.284
988.7279, 2230.152
989.2100, 2236.097
989.6921, 2240.908
990.1743, 2235.056
990.6564, 2219.188
991.1385, 2207.460
991.6206, 2203.509
992.1027, 2207.106
992.5848, 2228.487
993.0670, 2247.125
993.5491, 2243.988
994.0312, 2229.646
994.5133, 2221.692
994.9954, 2222.348
995.4775, 2222.102
995.9597, 2213.466
996.4418, 2209.047
996.9239, 2223.659
997.4060, 2236.103
997.8881, 2224.854
998.3702, 2201.726
998.8524, 2185.255
999.3345, 2179.063
999.8166, 2181.007
1000.299, 2197.288
1000.781, 2210.972
1001.263, 2213.708
1001.745, 2210.669
1002.227, 2202.625
1002.709, 2193.454
1003.191, 2187.672
1003.674, 2186.436
1004.156, 2190.858
1004.638, 2210.578
1005.120, 2222.739
1005.602, 2208.755
1006.084, 2190.289
1006.566, 2186.010
1007.048, 2189.516
1007.530, 2186.352
1008.013, 2175.141
1008.495, 2170.025
1008.977, 2181.733
1009.459, 2193.713
1009.941, 2203.169
1010.423, 2205.361
1010.905, 2190.993
1011.387, 2169.275
1011.870, 2154.253
1012.352, 2148.279
1012.834, 2146.170
1013.316, 2148.920
1013.798, 2150.904
1014.280, 2149.555
1014.762, 2146.712
1015.244, 2141.916
1015.726, 2137.455
1016.209, 2135.388
1016.691, 2136.517
1017.173, 2144.566
1017.655, 2173.402
1018.137, 2190.210
1018.619, 2170.863
1019.101, 2147.838
1019.583, 2143.301
1020.065, 2149.844
1020.548, 2157.428
1021.030, 2163.681
1021.512, 2163.364
1021.994, 2149.022
1022.476, 2137.439
1022.958, 2135.387
1023.440, 2135.891
1023.922, 2136.349
1024.405, 2135.720
1024.887, 2131.149
1025.369, 2123.584
1025.851, 2121.752
1026.333, 2133.180
1026.815, 2140.914
1027.297, 2141.369
1027.779, 2136.719
1028.261, 2123.266
1028.744, 2108.632
1029.226, 2101.339
1029.708, 2101.492
1030.190, 2104.620
1030.672, 2109.176
1031.154, 2118.283
1031.636, 2144.786
1032.118, 2161.115
1032.600, 2146.770
1033.083, 2122.503
1033.565, 2110.096
1034.047, 2108.256
1034.529, 2104.852
1035.011, 2094.246
1035.493, 2091.738
1035.975, 2105.708
1036.457, 2118.492
1036.940, 2124.977
1037.422, 2127.091
1037.904, 2126.827
1038.386, 2123.799
1038.868, 2115.563
1039.350, 2095.987
1039.832, 2086.452
1040.314, 2092.826
1040.797, 2100.344
1041.279, 2105.686
1041.761, 2110.500
1042.243, 2119.231
1042.725, 2127.339
1043.207, 2119.269
1043.689, 2086.244
1044.171, 2073.958
1044.653, 2096.355
1045.135, 2108.585
1045.618, 2094.900
1046.100, 2079.142
1046.582, 2079.415
1047.064, 2087.748
1047.546, 2085.474
1048.028, 2070.407
1048.510, 2068.594
1048.992, 2084.750
1049.475, 2098.529
1049.957, 2108.074
1050.439, 2107.767
1050.921, 2090.792
1051.403, 2069.329
1051.885, 2064.879
1052.367, 2076.449
1052.849, 2082.354
1053.332, 2082.156
1053.814, 2079.924
1054.296, 2075.856
1054.778, 2072.154
1055.260, 2069.515
1055.742, 2070.242
1056.224, 2078.855
1056.706, 2092.303
1057.188, 2096.029
1057.671, 2090.316
1058.153, 2078.468
1058.635, 2061.128
1059.117, 2051.763
1059.599, 2055.783
1060.081, 2066.387
1060.563, 2078.052
1061.045, 2088.141
1061.527, 2089.374
1062.010, 2083.342
1062.492, 2076.500
1062.974, 2069.235
1063.456, 2059.319
1063.938, 2046.543
1064.420, 2036.279
1064.902, 2032.471
1065.384, 2033.543
1065.867, 2037.976
1066.349, 2045.009
1066.831, 2056.615
1067.313, 2068.865
1067.795, 2069.365
1068.277, 2057.393
1068.759, 2043.189
1069.241, 2031.774
1069.724, 2024.791
1070.206, 2027.491
1070.688, 2032.450
1071.170, 2029.153
1071.652, 2022.073
1072.134, 2018.547
1072.616, 2019.315
1073.098, 2022.698
1073.580, 2028.125
1074.063, 2034.044
1074.545, 2040.809
1075.027, 2046.075
1075.509, 2046.286
1075.991, 2045.563
1076.473, 2051.523
1076.955, 2059.201
1077.437, 2056.108
1077.920, 2039.798
1078.402, 2024.208
1078.884, 2010.407
1079.366, 2004.240
1079.848, 2014.463
1080.330, 2026.273
1080.812, 2029.294
1081.294, 2027.532
1081.776, 2028.835
1082.259, 2032.975
1082.741, 2029.730
1083.223, 2004.435
1083.705, 1993.725
1084.187, 2016.339
1084.669, 2035.848
1085.151, 2036.747
1085.633, 2029.057
1086.115, 2018.939
1086.598, 2008.346
1087.080, 2005.828
1087.562, 2015.444
1088.044, 2019.648
1088.526, 2015.878
1089.008, 2012.560
1089.490, 2012.478
1089.972, 2011.194
1090.455, 2003.886
1090.937, 1996.100
1091.419, 2000.923
1091.901, 2018.487
1092.383, 2020.500
1092.865, 2004.362
1093.347, 1996.792
1093.829, 2003.077
1094.312, 2007.110
1094.794, 2000.352
1095.276, 1991.521
1095.758, 1990.857
1096.240, 1997.453
1096.722, 2012.894
1097.204, 2033.751
1097.686, 2035.013
1098.168, 2017.799
1098.651, 2006.968
1099.133, 2010.221
1099.615, 2017.251
1100.097, 2021.233
1100.579, 2019.979
1101.061, 2004.600
1101.543, 1985.083
1102.025, 1980.292
1102.507, 1986.924
1102.990, 1997.780
1103.472, 2009.396
1103.954, 2016.043
1104.436, 2015.085
1104.918, 2009.023
1105.400, 1993.860
1105.882, 1980.896
1106.364, 1982.755
1106.847, 1990.366
1107.329, 1995.237
1107.811, 1995.833
1108.293, 1989.228
1108.775, 1975.151
1109.257, 1969.030
1109.739, 1984.717
1110.221, 1998.056
1110.703, 1997.884
1111.186, 1995.753
1111.668, 2001.787
1112.150, 2008.290
1112.632, 2001.658
1113.114, 1983.666
1113.596, 1974.858
1114.078, 1981.840
1114.560, 1987.311
1115.042, 1989.425
1115.525, 1993.513
1116.007, 2005.135
1116.489, 2012.403
1116.971, 2003.299
1117.453, 1986.037
1117.935, 1979.725
1118.417, 1984.864
1118.899, 1991.914
1119.382, 2002.061
1119.864, 2005.443
1120.346, 2000.038
1120.828, 1990.418
1121.310, 1977.873
1121.792, 1969.467
1122.274, 1975.435
1122.756, 1989.559
1123.239, 1993.651
1123.721, 1989.511
1124.203, 1983.023
1124.685, 1975.910
1125.167, 1975.133
1125.649, 1981.557
1126.131, 1985.502
1126.613, 1979.730
1127.095, 1973.206
1127.578, 1979.161
1128.060, 1987.992
1128.542, 1983.133
1129.024, 1973.990
1129.506, 1980.554
1129.988, 1998.259
1130.470, 2005.480
1130.952, 1995.104
1131.434, 1983.345
1131.917, 1973.603
1132.399, 1971.199
1132.881, 1989.054
1133.363, 2004.745
1133.845, 1995.934
1134.327, 1976.708
1134.809, 1967.567
1135.291, 1969.917
1135.774, 1977.751
1136.256, 1999.454
1136.738, 2009.532
1137.220, 2004.719
1137.702, 1991.988
1138.184, 1964.958
1138.666, 1943.295
1139.148, 1943.047
1139.630, 1957.619
1140.113, 1974.780
1140.595, 1994.809
1141.077, 1997.850
1141.559, 1982.225
1142.041, 1965.901
1142.523, 1950.896
1143.005, 1944.685
1143.487, 1950.905
1143.969, 1961.516
1144.452, 1969.005
1144.934, 1973.217
1145.416, 1972.872
1145.898, 1969.250
1146.380, 1964.013
1146.862, 1959.092
1147.344, 1964.355
1147.826, 1977.557
1148.309, 1975.793
1148.791, 1945.757
1149.273, 1916.841
1149.755, 1912.384
1150.237, 1920.743
1150.719, 1942.291
1151.201, 1962.491
1151.683, 1961.545
1152.166, 1947.876
1152.648, 1941.770
1153.130, 1945.995
1153.612, 1945.579
1154.094, 1926.406
1154.576, 1918.603
1155.058, 1938.911
1155.540, 1957.357
1156.022, 1959.070
1156.505, 1955.904
1156.987, 1954.067
1157.469, 1957.161
1157.951, 1979.658
1158.433, 2028.300
1158.915, 2029.946
1159.397, 1971.273
1159.879, 1936.480
1160.361, 1941.080
1160.844, 1951.699
1161.326, 1953.000
1161.808, 1947.848
1162.290, 1937.560
1162.772, 1927.158
1163.254, 1931.178
1163.736, 1944.776
1164.218, 1953.783
1164.701, 1957.667
1165.183, 1957.208
1165.665, 1953.346
1166.147, 1948.663
1166.629, 1944.253
1167.111, 1941.831
1167.593, 1946.252
1168.075, 1949.233
1168.557, 1940.106
1169.040, 1929.351
1169.522, 1927.476
1170.004, 1932.483
1170.486, 1941.904
1170.968, 1954.089
1171.450, 1958.307
1171.932, 1946.282
1172.414, 1937.599
1172.896, 1936.585
1173.379, 1936.447
1173.861, 1936.101
1174.343, 1935.031
1174.825, 1933.288
1175.307, 1929.859
1175.789, 1920.687
1176.271, 1906.623
1176.753, 1913.770
1177.236, 1944.045
1177.718, 1952.332
1178.200, 1933.941
1178.682, 1923.225
1179.164, 1932.484
1179.646, 1944.407
1180.128, 1944.453
1180.610, 1940.851
1181.093, 1946.843
1181.575, 1957.007
1182.057, 1967.815
1182.539, 1972.448
1183.021, 1949.522
1183.503, 1909.574
1183.985, 1891.131
1184.467, 1905.319
1184.949, 1922.250
1185.432, 1925.441
1185.914, 1930.824
1186.396, 1951.826
1186.878, 1968.842
1187.360, 1965.837
1187.842, 1955.860
1188.324, 1955.771
1188.806, 1961.406
1189.288, 1956.305
1189.771, 1937.113
1190.253, 1926.686
1190.735, 1926.000
1191.217, 1931.863
1191.699, 1945.673
1192.181, 1956.028
1192.663, 1957.490
1193.145, 1954.278
1193.628, 1950.646
1194.110, 1946.044
1194.592, 1934.693
1195.074, 1922.751
1195.556, 1936.037
1196.038, 1963.724
1196.520, 1968.753
1197.002, 1950.879
1197.484, 1937.421
1197.967, 1939.338
1198.449, 1943.007
1198.931, 1936.396
1199.413, 1932.548
1199.895, 1946.667
1200.377, 1958.723
1200.859, 1947.334
1201.341, 1928.679
1201.823, 1926.179
1202.306, 1937.130
1202.788, 1940.532
1203.270, 1932.499
1203.752, 1931.263
1204.234, 1943.554
1204.716, 1942.337
1205.198, 1917.450
1205.680, 1900.067
1206.163, 1906.010
1206.645, 1921.775
1207.127, 1933.783
1207.609, 1942.527
1208.091, 1951.884
1208.573, 1958.500
1209.055, 1944.994
1209.537, 1919.094
1210.020, 1907.109
1210.502, 1910.909
1210.984, 1916.639
1211.466, 1918.813
1211.948, 1922.161
1212.430, 1936.948
1212.912, 1943.834
1213.394, 1920.685
1213.876, 1896.895
1214.359, 1896.517
1214.841, 1906.060
1215.323, 1908.839
1215.805, 1905.901
1216.287, 1906.439
1216.769, 1912.782
1217.251, 1908.689
1217.733, 1889.796
1218.215, 1873.593
1218.698, 1860.328
1219.180, 1863.227
1219.662, 1890.830
1220.144, 1911.161
1220.626, 1891.721
1221.108, 1857.386
1221.590, 1859.838
1222.072, 1882.923
1222.555, 1885.660
1223.037, 1875.875
1223.519, 1875.290
1224.001, 1882.632
1224.483, 1881.989
1224.965, 1869.917
1225.447, 1864.251
1225.929, 1879.608
1226.411, 1891.425
1226.894, 1883.204
1227.376, 1876.432
1227.858, 1884.589
1228.340, 1896.896
1228.822, 1908.657
1229.304, 1914.381
1229.786, 1900.774
1230.268, 1868.872
1230.750, 1852.778
1231.233, 1854.675
1231.715, 1851.600
1232.197, 1841.731
1232.679, 1835.903
1233.161, 1837.181
1233.643, 1842.976
1234.125, 1851.891
1234.607, 1861.047
1235.090, 1868.754
1235.572, 1872.918
1236.054, 1868.870
1236.536, 1861.010
1237.018, 1856.428
1237.500, 1851.942
1237.982, 1834.848
1238.464, 1809.467
1238.947, 1805.816
1239.429, 1840.021
1239.911, 1865.084
1240.393, 1876.057
1240.875, 1873.647
1241.357, 1850.202
1241.839, 1827.851
1242.321, 1815.510
1242.803, 1814.357
1243.286, 1828.945
1243.768, 1848.867
1244.250, 1841.421
1244.732, 1813.687
1245.214, 1801.811
1245.696, 1803.182
1246.178, 1805.337
1246.660, 1807.619
1247.142, 1819.922
1247.625, 1843.580
1248.107, 1855.872
1248.589, 1836.783
1249.071, 1817.946
1249.553, 1818.604
1250.035, 1822.925
1250.517, 1821.276
1250.999, 1819.323
1251.482, 1823.501
1251.964, 1830.888
1252.446, 1837.501
1252.928, 1842.806
1253.410, 1836.946
1253.892, 1816.732
1254.374, 1812.779
1254.856, 1826.986
1255.339, 1836.122
1255.821, 1834.812
1256.303, 1831.710
1256.785, 1831.485
1257.267, 1833.019
1257.749, 1836.594
1258.231, 1839.207
1258.713, 1836.146
1259.195, 1831.395
1259.677, 1828.060
1260.160, 1826.847
1260.642, 1830.439
1261.124, 1836.385
1261.606, 1836.900
1262.088, 1830.426
1262.570, 1820.931
1263.052, 1799.646
1263.534, 1799.599
1264.017, 1833.793
##END=



