##NAMES=Hemimorphite
##RRUFFID=R040117
##IDEAL CHEMISTRY=Zn^2+^_4_Si_2_O_7_(OH)_2_&#183;H_2_O
##LOCALITY=Durango, Mexico
##OWNER=RRUFF
##SOURCE=University of Arizona Mineral Museum
##DESCRIPTION=Colorless thin tabular crystals in a sheaflike aggregate
##STATUS=The identification of this mineral has been confirmed by X-ray diffraction and chemical analysis
##URL=rruff.info/R040117
##MEASURED CHEMISTRY=Zn_4.05_Si_1.97_O_7_((OH)_0.99_F_0.01_)_2_Â·H_2_O
124.8763, 318.6148
125.3585, 351.6666
125.8406, 391.0905
126.3227, 438.0735
126.8048, 489.1946
127.2869, 540.3038
127.7690, 588.3549
128.2512, 636.0723
128.7333, 693.1033
129.2154, 767.8110
129.6975, 842.2949
130.1796, 912.8390
130.6617, 981.0759
131.1439, 1050.862
131.6260, 1125.849
132.1081, 1203.219
132.5902, 1260.568
133.0723, 1292.425
133.5544, 1307.845
134.0366, 1304.331
134.5187, 1285.281
135.0008, 1255.027
135.4829, 1216.042
135.9650, 1168.681
136.4471, 1119.438
136.9293, 1058.679
137.4114, 1006.012
137.8935, 970.8548
138.3756, 948.9737
138.8577, 928.9268
139.3398, 901.7008
139.8220, 867.1060
140.3041, 845.2389
140.7862, 840.4626
141.2683, 840.9216
141.7504, 842.3206
142.2325, 844.6343
142.7147, 849.1255
143.1968, 856.3270
143.6789, 866.5625
144.1610, 883.6856
144.6431, 909.3144
145.1252, 939.4162
145.6074, 974.4120
146.0895, 1013.107
146.5716, 1049.534
147.0537, 1077.642
147.5358, 1097.466
148.0179, 1124.246
148.5001, 1162.497
148.9822, 1204.151
149.4643, 1245.063
149.9464, 1284.970
150.4285, 1322.120
150.9106, 1355.839
151.3928, 1385.419
151.8749, 1409.784
152.3570, 1423.418
152.8391, 1435.060
153.3212, 1452.751
153.8033, 1477.095
154.2855, 1504.519
154.7676, 1533.710
155.2497, 1564.154
155.7318, 1593.224
156.2139, 1619.203
156.6960, 1644.260
157.1782, 1670.032
157.6603, 1696.203
158.1424, 1725.285
158.6245, 1757.125
159.1066, 1793.129
159.5887, 1838.674
160.0709, 1896.901
160.5530, 1964.685
161.0351, 2039.811
161.5172, 2124.384
161.9993, 2206.882
162.4814, 2271.803
162.9636, 2328.412
163.4457, 2395.990
163.9278, 2485.623
164.4099, 2588.687
164.8920, 2690.689
165.3741, 2792.968
165.8563, 2889.605
166.3384, 2977.757
166.8205, 3058.134
167.3026, 3131.152
167.7847, 3203.206
168.2668, 3266.319
168.7490, 3303.265
169.2311, 3311.675
169.7132, 3297.578
170.1953, 3266.648
170.6774, 3217.768
171.1595, 3146.037
171.6417, 3044.788
172.1238, 2921.075
172.6059, 2791.153
173.0880, 2652.573
173.5701, 2512.149
174.0522, 2368.576
174.5344, 2224.998
175.0165, 2087.980
175.4986, 1959.343
175.9807, 1839.283
176.4628, 1726.632
176.9449, 1620.991
177.4271, 1524.528
177.9092, 1437.737
178.3913, 1359.172
178.8734, 1287.630
179.3555, 1222.421
179.8376, 1162.946
180.3197, 1106.567
180.8019, 1052.729
181.2840, 1003.598
181.7661, 957.7103
182.2482, 916.4026
182.7303, 882.5771
183.2124, 858.7969
183.6946, 841.4318
184.1767, 819.4177
184.6588, 787.8165
185.1409, 760.6526
185.6230, 741.6133
186.1051, 728.3163
186.5873, 717.9456
187.0694, 709.1945
187.5515, 702.6892
188.0336, 700.5059
188.5157, 706.0745
188.9978, 710.1675
189.4800, 708.3298
189.9621, 705.2071
190.4442, 706.1079
190.9263, 713.6166
191.4084, 724.8568
191.8905, 733.0155
192.3727, 737.5157
192.8548, 739.5856
193.3369, 738.9260
193.8190, 736.6792
194.3011, 733.8602
194.7832, 730.8680
195.2654, 727.5400
195.7475, 723.3463
196.2296, 716.9930
196.7117, 712.2408
197.1938, 710.8389
197.6759, 710.2657
198.1581, 707.8119
198.6402, 702.6357
199.1223, 696.9358
199.6044, 695.5596
200.0865, 703.3267
200.5686, 705.5142
201.0508, 693.9540
201.5329, 681.5436
202.0150, 679.7278
202.4971, 691.1751
202.9792, 708.0173
203.4613, 716.5391
203.9435, 709.1697
204.4256, 710.8023
204.9077, 729.7614
205.3898, 751.6498
205.8719, 765.9911
206.3540, 771.0933
206.8362, 773.4070
207.3183, 781.5481
207.8004, 796.6091
208.2825, 815.0527
208.7646, 838.6909
209.2467, 863.8166
209.7289, 889.7969
210.2110, 915.6259
210.6931, 939.0038
211.1752, 955.9826
211.6573, 963.0182
212.1395, 976.5287
212.6216, 1008.765
213.1037, 1036.617
213.5858, 1048.178
214.0679, 1043.793
214.5500, 1030.798
215.0322, 1014.733
215.5143, 994.2309
215.9964, 980.2798
216.4785, 983.9680
216.9606, 983.7997
217.4427, 969.7576
217.9249, 944.2114
218.4070, 915.3425
218.8891, 888.8021
219.3712, 864.4420
219.8533, 847.9810
220.3354, 850.9354
220.8176, 850.8972
221.2997, 840.4903
221.7818, 822.3737
222.2639, 802.6617
222.7460, 785.6713
223.2281, 770.9531
223.7103, 755.1276
224.1924, 734.5884
224.6745, 716.9503
225.1566, 704.4499
225.6387, 695.6459
226.1208, 688.6552
226.6030, 682.6487
227.0851, 677.1515
227.5672, 670.2209
228.0493, 661.8124
228.5314, 651.7043
229.0135, 637.3455
229.4957, 622.3382
229.9778, 611.2130
230.4599, 606.1131
230.9420, 604.5700
231.4241, 599.9968
231.9062, 587.9810
232.3884, 580.8441
232.8705, 582.6733
233.3526, 587.8860
233.8347, 592.6641
234.3168, 595.5670
234.7989, 595.7361
235.2811, 590.9488
235.7632, 578.0779
236.2453, 567.6282
236.7274, 561.5484
237.2095, 557.0272
237.6916, 551.9796
238.1738, 546.1171
238.6559, 540.8283
239.1380, 538.5002
239.6201, 540.6604
240.1022, 540.0344
240.5843, 533.3362
241.0665, 526.2882
241.5486, 521.7618
242.0307, 519.7039
242.5128, 518.1196
242.9949, 514.1134
243.4770, 507.0627
243.9592, 505.3021
244.4413, 518.5096
244.9234, 527.8343
245.4055, 523.1699
245.8876, 508.4149
246.3697, 494.3265
246.8519, 488.4456
247.3340, 490.0580
247.8161, 493.4030
248.2982, 502.0833
248.7803, 507.4565
249.2624, 504.5173
249.7446, 496.9851
250.2267, 490.8521
250.7088, 489.3871
251.1909, 491.2898
251.6730, 492.9844
252.1551, 494.7054
252.6373, 495.6939
253.1194, 495.3005
253.6015, 494.3110
254.0836, 493.1233
254.5657, 491.5485
255.0478, 491.1007
255.5300, 495.5386
256.0121, 507.0859
256.4942, 514.9717
256.9763, 514.0815
257.4584, 509.4209
257.9406, 502.3891
258.4227, 493.0533
258.9048, 487.0541
259.3869, 493.6312
259.8690, 513.6428
260.3511, 526.0154
260.8333, 520.2930
261.3154, 511.2872
261.7975, 509.3680
262.2796, 514.7940
262.7617, 522.6716
263.2438, 530.4911
263.7260, 538.1404
264.2081, 544.9973
264.6902, 551.4355
265.1723, 556.2516
265.6544, 557.9962
266.1365, 557.4501
266.6187, 557.1258
267.1008, 557.4091
267.5829, 558.8568
268.0650, 563.1320
268.5471, 570.9913
269.0292, 579.2968
269.5114, 587.1202
269.9935, 593.7904
270.4756, 597.5994
270.9577, 595.9945
271.4398, 593.0745
271.9219, 594.0297
272.4041, 598.9969
272.8862, 603.2957
273.3683, 605.0568
273.8504, 604.3039
274.3325, 601.5048
274.8146, 596.1192
275.2968, 589.6707
275.7789, 582.0522
276.2610, 573.9003
276.7431, 567.9067
277.2252, 565.3694
277.7073, 565.0198
278.1895, 565.0107
278.6716, 565.5881
279.1537, 565.4187
279.6358, 564.9763
280.1179, 563.2545
280.6000, 558.3166
281.0822, 549.5786
281.5643, 538.4380
282.0464, 524.8855
282.5285, 505.0737
283.0106, 503.9282
283.4927, 500.9478
283.9749, 496.2304
284.4570, 484.5789
284.9391, 481.8831
285.4212, 475.5980
285.9033, 469.1660
286.3854, 467.7303
286.8676, 457.0863
287.3497, 455.5718
287.8318, 450.4135
288.3139, 446.9225
288.7960, 439.8207
289.2781, 433.8339
289.7603, 431.4585
290.2424, 427.0843
290.7245, 419.5668
291.2066, 416.1819
291.6887, 405.4131
292.1708, 400.1906
292.6530, 398.4479
293.1351, 398.5309
293.6172, 399.2346
294.0993, 399.8149
294.5814, 398.9388
295.0635, 395.9105
295.5457, 392.5749
296.0278, 388.3860
296.5099, 384.3241
296.9920, 381.2921
297.4741, 379.2524
297.9562, 377.2872
298.4384, 374.0774
298.9205, 368.9583
299.4026, 367.3498
299.8847, 374.5504
300.3668, 379.8741
300.8489, 376.9519
301.3311, 369.2766
301.8131, 365.0251
302.2953, 370.3053
302.7774, 382.5546
303.2595, 388.4290
303.7416, 383.5031
304.2237, 378.3356
304.7058, 374.1018
305.1880, 371.2137
305.6701, 370.1662
306.1522, 371.1620
306.6343, 373.6629
307.1164, 377.2569
307.5985, 382.5873
308.0807, 386.5475
308.5628, 386.9852
309.0449, 386.9720
309.5270, 388.2702
310.0091, 391.0438
310.4912, 394.3439
310.9734, 396.6416
311.4555, 398.2550
311.9376, 402.8267
312.4197, 411.3914
312.9018, 422.0026
313.3839, 433.3099
313.8661, 445.4566
314.3482, 458.7480
314.8303, 473.2397
315.3124, 489.0053
315.7945, 506.8232
316.2766, 527.1559
316.7588, 546.5830
317.2409, 560.9614
317.7230, 573.9293
318.2051, 591.5300
318.6872, 615.4378
319.1693, 642.1852
319.6515, 669.3423
320.1336, 697.0345
320.6157, 726.0841
321.0978, 756.0432
321.5799, 788.3292
322.0620, 825.9811
322.5442, 868.6991
323.0263, 914.5002
323.5084, 960.4103
323.9905, 1010.300
324.4726, 1069.963
324.9547, 1140.600
325.4369, 1217.478
325.9190, 1297.076
326.4011, 1379.700
326.8832, 1461.612
327.3653, 1550.080
327.8474, 1631.694
328.3296, 1702.619
328.8117, 1760.990
329.2938, 1802.519
329.7759, 1824.585
330.2580, 1828.696
330.7401, 1820.833
331.2223, 1812.271
331.7044, 1777.282
332.1865, 1697.511
332.6686, 1596.993
333.1507, 1498.735
333.6328, 1410.637
334.1150, 1329.628
334.5971, 1250.073
335.0792, 1169.075
335.5613, 1098.952
336.0434, 1044.338
336.5255, 995.1718
337.0077, 947.0284
337.4898, 900.0457
337.9719, 856.1123
338.4540, 816.6277
338.9361, 781.6990
339.4182, 752.6482
339.9004, 733.2374
340.3825, 714.7328
340.8646, 693.2696
341.3467, 671.4485
341.8288, 652.3802
342.3109, 637.0515
342.7931, 625.3115
343.2752, 618.5140
343.7573, 617.7780
344.2394, 613.8265
344.7215, 602.2246
345.2036, 588.2163
345.6858, 574.7390
346.1679, 562.0896
346.6500, 552.5936
347.1321, 550.7181
347.6142, 553.0804
348.0963, 548.7841
348.5785, 534.2687
349.0606, 520.8820
349.5427, 519.7526
350.0248, 527.2112
350.5069, 532.7192
350.9890, 535.2642
351.4712, 534.5631
351.9533, 528.2348
352.4354, 517.5668
352.9175, 509.2321
353.3996, 506.5104
353.8817, 507.8950
354.3639, 509.8769
354.8460, 513.0259
355.3281, 515.4617
355.8102, 516.7700
356.2923, 517.1420
356.7744, 516.6689
357.2566, 515.3990
357.7387, 513.5129
358.2208, 511.0035
358.7029, 507.4492
359.1850, 505.7807
359.6671, 507.3705
360.1493, 509.1848
360.6314, 509.2313
361.1135, 508.4578
361.5956, 508.8740
362.0777, 511.6089
362.5598, 516.6259
363.0420, 524.4272
363.5241, 541.2478
364.0062, 550.3597
364.4883, 544.5144
364.9704, 534.4009
365.4525, 528.1293
365.9347, 527.7235
366.4168, 531.2274
366.8989, 537.4849
367.3810, 546.7917
367.8631, 554.7992
368.3452, 561.9893
368.8274, 566.8978
369.3095, 566.7225
369.7916, 563.8882
370.2737, 564.1174
370.7558, 570.5334
371.2379, 581.1664
371.7201, 593.8527
372.2022, 608.9985
372.6843, 622.1176
373.1664, 631.1329
373.6485, 636.8697
374.1306, 640.3447
374.6128, 640.5663
375.0949, 642.1778
375.5770, 648.8314
376.0591, 658.3469
376.5412, 665.9897
377.0233, 670.5692
377.5055, 675.0907
377.9876, 682.9393
378.4697, 694.5365
378.9518, 704.7425
379.4339, 711.8795
379.9160, 719.0381
380.3982, 728.9188
380.8803, 740.3947
381.3624, 750.1309
381.8445, 756.3123
382.3266, 759.5954
382.8087, 761.9259
383.2909, 757.1685
383.7730, 759.9927
384.2551, 774.7532
384.7372, 794.4156
385.2193, 815.6194
385.7014, 836.5021
386.1836, 853.6280
386.6657, 861.5300
387.1478, 859.2462
387.6299, 866.0503
388.1120, 893.7000
388.5941, 917.0019
389.0763, 924.2952
389.5584, 922.8357
390.0405, 923.7436
390.5226, 931.5697
391.0047, 944.4645
391.4868, 961.3275
391.9690, 982.8662
392.4511, 1000.924
392.9332, 1011.947
393.4153, 1019.630
393.8974, 1026.962
394.3795, 1034.069
394.8617, 1041.973
395.3438, 1052.480
395.8259, 1063.652
396.3080, 1072.111
396.7901, 1077.458
397.2722, 1081.916
397.7544, 1087.930
398.2365, 1094.204
398.7186, 1095.099
399.2007, 1084.045
399.6828, 1075.077
400.1649, 1074.845
400.6471, 1079.987
401.1292, 1086.000
401.6113, 1091.453
402.0934, 1094.536
402.5755, 1092.426
403.0576, 1083.542
403.5398, 1073.890
404.0219, 1066.257
404.5040, 1055.339
404.9861, 1034.832
405.4682, 1008.608
405.9503, 986.5670
406.4325, 975.4779
406.9146, 972.0032
407.3967, 965.0421
407.8788, 955.4825
408.3609, 940.2974
408.8430, 912.9216
409.3252, 884.0241
409.8073, 862.2994
410.2894, 848.9182
410.7715, 838.2190
411.2536, 827.7392
411.7357, 816.4738
412.2179, 798.0405
412.7000, 768.7265
413.1821, 740.3566
413.6642, 723.0905
414.1463, 712.5084
414.6284, 700.7422
415.1106, 685.5336
415.5927, 669.6326
416.0748, 655.6695
416.5569, 642.7212
417.0390, 627.5148
417.5211, 608.5614
418.0033, 588.4781
418.4854, 570.8800
418.9675, 555.8290
419.4496, 543.8008
419.9317, 537.1311
420.4138, 531.7175
420.8960, 525.3287
421.3781, 517.7339
421.8602, 509.1028
422.3423, 499.3874
422.8244, 488.9322
423.3065, 479.2119
423.7887, 469.9633
424.2708, 461.9382
424.7529, 455.0266
425.2350, 449.3400
425.7171, 445.8839
426.1992, 444.3206
426.6814, 442.0917
427.1635, 435.3256
427.6456, 424.6799
428.1277, 419.1175
428.6098, 420.8609
429.0919, 423.4761
429.5741, 424.3204
430.0562, 423.7240
430.5383, 421.8012
431.0204, 417.9148
431.5025, 414.1478
431.9846, 412.3808
432.4668, 412.1932
432.9489, 411.7057
433.4310, 410.0141
433.9131, 409.3451
434.3952, 412.3463
434.8773, 419.2631
435.3595, 428.1845
435.8416, 442.9281
436.3237, 456.1126
436.8058, 462.1940
437.2879, 462.9843
437.7701, 462.9710
438.2522, 464.2183
438.7343, 467.5836
439.2164, 475.1688
439.6985, 487.2081
440.1806, 503.4662
440.6628, 528.0472
441.1449, 553.0209
441.6270, 572.6484
442.1091, 587.5755
442.5912, 602.5432
443.0733, 620.7610
443.5555, 641.8307
444.0376, 664.7453
444.5197, 690.6459
445.0018, 715.1915
445.4839, 732.8873
445.9660, 750.6741
446.4482, 776.8670
446.9303, 813.4371
447.4124, 849.9074
447.8945, 878.9542
448.3766, 903.5649
448.8587, 930.1107
449.3409, 959.7278
449.8230, 988.9890
450.3051, 1016.775
450.7872, 1042.195
451.2693, 1059.087
451.7514, 1068.918
452.2336, 1069.358
452.7157, 1057.290
453.1978, 1036.161
453.6799, 1010.051
454.1620, 980.3479
454.6441, 947.3063
455.1263, 910.8646
455.6084, 870.4176
456.0905, 830.2750
456.5726, 790.8564
457.0547, 751.6735
457.5368, 712.3608
458.0190, 673.2635
458.5011, 634.5804
458.9832, 596.0759
459.4653, 559.3182
459.9474, 525.2841
460.4295, 494.0486
460.9117, 469.6104
461.3938, 455.8519
461.8759, 445.0026
462.3580, 429.8966
462.8401, 411.3600
463.3222, 393.4793
463.8044, 376.8161
464.2865, 361.5990
464.7686, 348.0866
465.2507, 336.2534
465.7328, 326.0406
466.2149, 317.4848
466.6971, 310.3654
467.1792, 304.5310
467.6613, 301.2872
468.1434, 296.4919
468.6255, 288.2247
469.1076, 280.0908
469.5898, 274.7145
470.0719, 271.5230
470.5540, 268.5461
471.0361, 264.6127
471.5182, 259.7958
472.0003, 253.8121
472.4825, 245.6197
472.9646, 239.2200
473.4467, 236.6699
473.9288, 235.4074
474.4109, 234.4030
474.8930, 233.3948
475.3752, 231.5234
475.8573, 227.5462
476.3394, 222.6957
476.8215, 218.8622
477.3036, 216.1014
477.7857, 214.7086
478.2679, 215.7648
478.7500, 217.5236
479.2321, 215.2507
479.7142, 207.0143
480.1963, 200.2995
480.6784, 195.8948
481.1606, 194.0401
481.6427, 197.5174
482.1248, 204.7055
482.6069, 208.0045
483.0890, 200.9476
483.5711, 186.1271
484.0533, 177.9229
484.5354, 179.5539
485.0175, 182.8697
485.4996, 189.4121
485.9817, 195.0541
486.4638, 196.0581
486.9460, 192.2990
487.4281, 186.9305
487.9102, 180.6165
488.3923, 174.6614
488.8744, 174.0562
489.3565, 179.8498
489.8387, 185.0984
490.3208, 186.1539
490.8029, 184.4797
491.2850, 183.3113
491.7671, 182.7342
492.2492, 182.3913
492.7314, 182.7373
493.2135, 182.9395
493.6956, 181.9450
494.1777, 179.7318
494.6598, 176.9287
495.1419, 173.8485
495.6241, 170.7047
496.1062, 168.7763
496.5883, 167.6411
497.0704, 168.5190
497.5525, 174.1242
498.0346, 179.9101
498.5168, 181.9272
498.9989, 179.9108
499.4810, 176.4563
499.9631, 173.0445
500.4452, 169.9238
500.9273, 168.2886
501.4095, 168.4503
501.8916, 168.8019
502.3737, 168.8392
502.8558, 168.5404
503.3379, 167.7741
503.8200, 166.3198
504.3022, 165.3392
504.7843, 165.3400
505.2664, 166.0043
505.7485, 167.4040
506.2306, 169.3087
506.7127, 170.5266
507.1949, 170.2152
507.6770, 168.6591
508.1591, 167.1016
508.6412, 165.4363
509.1233, 163.9236
509.6054, 162.2516
510.0876, 160.9741
510.5697, 160.6160
511.0518, 161.1000
511.5339, 161.9106
512.0161, 162.8102
512.4982, 163.6855
512.9803, 164.2502
513.4624, 164.5006
513.9445, 164.4230
514.4266, 163.9007
514.9088, 163.1283
515.3909, 162.2350
515.8730, 161.1687
516.3551, 160.5962
516.8372, 161.3028
517.3193, 162.1583
517.8015, 162.1017
518.2836, 161.2099
518.7657, 160.1441
519.2478, 159.2937
519.7299, 158.3098
520.2120, 156.2187
520.6942, 151.4809
521.1763, 148.6122
521.6584, 147.9226
522.1405, 148.5601
522.6226, 151.4404
523.1047, 155.2593
523.5869, 156.7936
524.0690, 153.6563
524.5511, 148.9775
525.0332, 148.3519
525.5153, 151.7481
525.9974, 153.9373
526.4796, 152.9923
526.9617, 151.6061
527.4438, 153.7384
527.9259, 158.7797
528.4080, 160.5698
528.8901, 154.8959
529.3723, 149.0540
529.8544, 147.4715
530.3365, 148.8121
530.8186, 150.3695
531.3007, 151.2115
531.7828, 152.0096
532.2650, 153.7223
532.7471, 156.5047
533.2292, 159.2823
533.7113, 162.0645
534.1934, 164.8481
534.6755, 168.2784
535.1577, 171.4599
535.6398, 172.9431
536.1219, 172.1730
536.6040, 171.0827
537.0861, 170.4644
537.5682, 170.9312
538.0504, 175.9771
538.5325, 186.8682
539.0146, 195.1533
539.4967, 192.6351
539.9788, 182.6588
540.4609, 181.9168
540.9431, 198.1769
541.4252, 211.9232
541.9073, 217.1111
542.3894, 219.3976
542.8715, 223.0957
543.3536, 229.3206
543.8358, 238.7068
544.3179, 252.5279
544.8000, 269.1783
545.2821, 280.4791
545.7642, 282.5273
546.2463, 289.9908
546.7285, 313.9981
547.2106, 339.2033
547.6927, 351.2763
548.1748, 351.1903
548.6569, 355.6450
549.1390, 376.8466
549.6211, 402.6498
550.1032, 419.1043
550.5853, 427.9582
551.0674, 437.3052
551.5496, 450.3318
552.0317, 466.3015
552.5138, 484.9467
552.9959, 509.7881
553.4780, 525.2152
553.9601, 528.5833
554.4423, 526.9078
554.9244, 521.8475
555.4065, 513.9678
555.8886, 504.2206
556.3707, 492.9738
556.8528, 478.1087
557.3350, 455.1173
557.8171, 425.1944
558.2992, 397.7219
558.7813, 373.1647
559.2634, 352.3745
559.7455, 337.1355
560.2277, 326.0990
560.7098, 314.4643
561.1919, 300.8071
561.6740, 288.9131
562.1561, 281.6652
562.6382, 275.7383
563.1204, 266.6162
563.6025, 254.6609
564.0846, 244.3251
564.5667, 238.9000
565.0488, 237.3578
565.5309, 235.6371
566.0131, 233.6763
566.4952, 231.7013
566.9773, 230.5971
567.4594, 228.7570
567.9415, 224.7324
568.4236, 218.9038
568.9058, 213.1691
569.3879, 207.9257
569.8700, 203.4541
570.3521, 200.3323
570.8342, 198.2274
571.3163, 196.2344
571.7985, 194.1492
572.2806, 191.2683
572.7627, 186.3544
573.2448, 178.8592
573.7269, 174.4355
574.2090, 175.9978
574.6912, 176.9349
575.1733, 175.2892
575.6554, 172.3288
576.1375, 169.2067
576.6196, 166.2986
577.1017, 164.0493
577.5839, 163.0751
578.0660, 163.0758
578.5481, 163.3471
579.0302, 164.0250
579.5123, 163.4490
579.9944, 159.8512
580.4766, 155.4469
580.9587, 155.3187
581.4408, 161.0315
581.9229, 163.7549
582.4050, 159.5502
582.8871, 154.4574
583.3693, 153.4075
583.8514, 154.5656
584.3335, 152.6452
584.8156, 145.2011
585.2977, 136.5121
585.7798, 133.8638
586.2620, 137.8665
586.7441, 141.0222
587.2262, 143.5068
587.7083, 144.2580
588.1904, 140.5725
588.6725, 135.3206
589.1547, 133.5485
589.6368, 137.1700
590.1189, 140.9519
590.6010, 143.0273
591.0831, 143.4979
591.5652, 142.1132
592.0474, 139.1078
592.5295, 135.4225
593.0116, 131.5854
593.4937, 127.8105
593.9758, 124.4292
594.4579, 120.2438
594.9401, 119.3439
595.4222, 125.9831
595.9043, 132.4535
596.3864, 134.9195
596.8685, 134.1279
597.3506, 132.2253
597.8328, 129.2946
598.3149, 126.8937
598.7970, 126.9782
599.2791, 128.6410
599.7612, 129.3520
600.2433, 128.6224
600.7255, 128.0527
601.2076, 129.1525
601.6897, 131.6128
602.1718, 132.9227
602.6539, 133.3398
603.1360, 132.1206
603.6182, 127.0272
604.1003, 122.0240
604.5824, 120.9321
605.0645, 122.9589
605.5466, 123.6051
606.0287, 118.7145
606.5109, 113.1856
606.9930, 116.4646
607.4751, 127.0732
607.9572, 132.4511
608.4393, 128.5301
608.9214, 122.5682
609.4036, 122.2902
609.8857, 127.7219
610.3678, 129.1291
610.8499, 122.6986
611.3320, 117.4768
611.8141, 115.7048
612.2963, 116.0322
612.7784, 117.5920
613.2605, 119.9295
613.7426, 122.2910
614.2247, 124.3402
614.7068, 125.8180
615.1890, 125.9998
615.6711, 124.8559
616.1532, 122.8041
616.6353, 119.1965
617.1174, 116.1341
617.5995, 116.7346
618.0817, 121.0911
618.5638, 123.0830
619.0459, 119.3379
619.5280, 116.8188
620.0101, 119.6949
620.4922, 124.5743
620.9744, 127.3710
621.4565, 127.2239
621.9386, 125.4494
622.4207, 122.7607
622.9028, 119.5893
623.3849, 117.4542
623.8671, 116.2205
624.3492, 117.1406
624.8313, 122.3909
625.3134, 127.9155
625.7955, 127.6698
626.2776, 122.0501
626.7598, 119.0979
627.2419, 122.6492
627.7240, 126.1606
628.2061, 126.2207
628.6882, 124.1987
629.1703, 121.4058
629.6525, 118.5807
630.1346, 117.5085
630.6167, 120.4337
631.0988, 126.5486
631.5809, 131.7100
632.0630, 136.3287
632.5452, 138.2506
633.0273, 134.9373
633.5094, 130.4482
633.9915, 130.2959
634.4736, 134.1512
634.9557, 134.8495
635.4379, 126.7682
635.9200, 119.6081
636.4021, 120.0101
636.8842, 124.4635
637.3663, 127.6766
637.8484, 128.2428
638.3306, 127.3278
638.8127, 125.7369
639.2948, 123.7335
639.7769, 123.1997
640.2590, 124.7025
640.7411, 125.4917
641.2233, 123.0239
641.7054, 121.2616
642.1875, 125.6925
642.6696, 135.6372
643.1517, 142.3212
643.6339, 141.7851
644.1160, 139.8497
644.5981, 138.9607
645.0802, 139.0355
645.5623, 140.5066
646.0444, 143.0863
646.5266, 144.4739
647.0087, 141.8587
647.4908, 136.6555
647.9729, 135.9759
648.4550, 140.9133
648.9371, 146.1883
649.4193, 151.6899
649.9014, 155.7124
650.3835, 155.1356
650.8656, 150.9133
651.3477, 150.0410
651.8298, 155.8902
652.3120, 162.8215
652.7941, 168.4895
653.2762, 173.5441
653.7583, 179.3423
654.2404, 185.7781
654.7225, 190.7808
655.2047, 192.1748
655.6868, 191.5402
656.1689, 194.6500
656.6510, 202.3737
657.1331, 208.2361
657.6152, 209.4318
658.0974, 210.4648
658.5795, 215.6824
659.0616, 224.2974
659.5437, 232.9184
660.0258, 237.5097
660.5079, 246.7302
660.9901, 268.9550
661.4722, 293.7907
661.9543, 308.6906
662.4364, 314.4329
662.9185, 321.6431
663.4006, 337.6190
663.8828, 358.7011
664.3649, 377.1142
664.8470, 392.7552
665.3291, 408.8670
665.8112, 425.5244
666.2933, 443.8973
666.7755, 464.8374
667.2576, 488.2671
667.7397, 513.8229
668.2218, 544.3551
668.7039, 572.2348
669.1860, 591.1523
669.6682, 610.7981
670.1503, 643.5471
670.6324, 683.9322
671.1145, 714.6925
671.5966, 726.5825
672.0787, 731.8990
672.5609, 750.7161
673.0430, 780.0772
673.5251, 798.2927
674.0072, 802.7288
674.4893, 799.7846
674.9714, 793.1685
675.4536, 781.8079
675.9357, 762.5453
676.4178, 731.0733
676.8999, 700.7711
677.3820, 672.6270
677.8641, 644.9991
678.3463, 617.6909
678.8284, 590.3239
679.3105, 561.8889
679.7926, 532.1232
680.2747, 503.7519
680.7568, 480.6270
681.2390, 460.7543
681.7211, 439.6928
682.2032, 417.3475
682.6853, 393.7320
683.1674, 368.1897
683.6495, 343.5178
684.1317, 323.9900
684.6138, 310.4002
685.0959, 298.0853
685.5780, 287.9680
686.0601, 277.8710
686.5422, 266.9910
687.0244, 256.0409
687.5065, 245.7585
687.9886, 236.2018
688.4707, 227.1072
688.9528, 216.5040
689.4349, 207.6621
689.9171, 206.1619
690.3992, 209.5259
690.8813, 210.4624
691.3634, 206.9894
691.8455, 201.5188
692.3276, 196.1971
692.8098, 191.1425
693.2919, 187.8069
693.7740, 187.8719
694.2561, 185.8871
694.7382, 178.7543
695.2203, 171.1217
695.7025, 166.1151
696.1846, 163.2911
696.6667, 160.8210
697.1488, 158.9155
697.6309, 156.2776
698.1130, 149.7867
698.5952, 143.5685
699.0773, 144.5571
699.5594, 151.6737
700.0415, 157.0726
700.5236, 155.8210
701.0057, 150.6418
701.4879, 146.8977
701.9700, 144.6372
702.4521, 142.6295
702.9342, 140.7967
703.4163, 139.1031
703.8984, 137.1668
704.3806, 135.5127
704.8627, 135.7371
705.3448, 139.3257
705.8269, 140.4243
706.3090, 136.0860
706.7911, 131.1918
707.2733, 128.7966
707.7554, 127.8209
708.2375, 125.6991
708.7196, 121.7703
709.2017, 118.8603
709.6838, 121.0556
710.1660, 125.9587
710.6481, 126.2895
711.1302, 122.3784
711.6123, 122.3507
712.0944, 130.0352
712.5765, 138.5619
713.0587, 138.9749
713.5408, 130.7846
714.0229, 124.9083
714.5050, 122.8540
714.9871, 121.1604
715.4692, 119.1365
715.9514, 117.3754
716.4335, 115.9837
716.9156, 115.2320
717.3977, 116.1255
717.8798, 120.2860
718.3619, 124.4750
718.8441, 126.0298
719.3262, 125.8987
719.8083, 125.5632
720.2904, 125.2662
720.7725, 124.7492
721.2546, 123.8391
721.7368, 122.6019
722.2189, 121.4096
722.7010, 120.4907
723.1831, 117.5689
723.6652, 110.3948
724.1473, 105.3098
724.6295, 106.6733
725.1116, 112.2769
725.5937, 117.8095
726.0758, 123.8245
726.5579, 127.6480
727.0400, 127.4434
727.5222, 126.3088
728.0043, 125.6816
728.4864, 125.5393
728.9685, 125.9444
729.4506, 126.7764
729.9327, 126.9350
730.4149, 124.4855
730.8970, 121.0366
731.3791, 121.3345
731.8612, 124.7600
732.3433, 124.7950
732.8254, 119.0823
733.3076, 112.4562
733.7897, 109.7678
734.2718, 110.7966
734.7539, 112.6728
735.2360, 117.4174
735.7181, 119.5926
736.2003, 116.3137
736.6824, 112.5086
737.1645, 111.1068
737.6466, 111.6449
738.1287, 112.4928
738.6108, 113.2745
739.0930, 114.1649
739.5751, 115.3780
740.0572, 116.6765
740.5393, 117.7321
741.0214, 118.6006
741.5035, 119.8878
741.9857, 121.8798
742.4678, 123.1511
742.9499, 120.7448
743.4320, 115.0953
743.9141, 112.5312
744.3962, 113.5939
744.8784, 115.3790
745.3605, 117.5805
745.8426, 118.7181
746.3247, 116.0521
746.8068, 108.8124
747.2889, 105.1067
747.7711, 107.4226
748.2532, 109.7963
748.7353, 109.9330
749.2174, 110.2084
749.6995, 113.7332
750.1816, 119.6762
750.6638, 123.7744
751.1459, 123.2966
751.6280, 121.6284
752.1101, 122.5635
752.5922, 124.2917
753.0743, 123.0939
753.5565, 118.8431
754.0386, 113.5152
754.5207, 108.0505
755.0028, 103.8421
755.4849, 104.4684
755.9670, 110.7159
756.4492, 114.0774
756.9313, 113.0081
757.4134, 112.7323
757.8955, 117.1643
758.3776, 122.4109
758.8597, 121.0503
759.3419, 112.0253
759.8240, 108.3405
760.3061, 115.8119
760.7882, 123.0727
761.2703, 126.9679
761.7524, 127.7873
762.2346, 124.2195
762.7167, 117.6047
763.1988, 113.5789
763.6809, 116.5091
764.1630, 121.3070
764.6451, 122.8137
765.1273, 121.4794
765.6094, 116.9596
766.0915, 109.8764
766.5736, 105.8646
767.0557, 108.7594
767.5378, 115.2168
768.0200, 117.5796
768.5021, 114.7664
768.9842, 114.6720
769.4663, 119.1679
769.9484, 122.5549
770.4305, 121.3236
770.9127, 118.3422
771.3948, 118.1550
771.8769, 121.0874
772.3590, 122.3481
772.8411, 118.7656
773.3232, 116.5710
773.8054, 119.8394
774.2875, 124.5942
774.7696, 126.5391
775.2517, 125.5420
775.7338, 124.1255
776.2159, 123.7717
776.6981, 123.3469
777.1802, 121.0155
777.6623, 117.7785
778.1444, 115.6915
778.6265, 115.0757
779.1086, 116.3253
779.5908, 119.8583
780.0729, 123.9561
780.5550, 125.2249
781.0371, 123.3365
781.5192, 122.0138
782.0013, 121.8723
782.4835, 120.4572
782.9656, 115.1166
783.4477, 109.6914
783.9298, 109.9821
784.4119, 116.1461
784.8940, 120.1261
785.3762, 121.1744
785.8583, 120.5229
786.3404, 117.2044
786.8225, 113.3460
787.3046, 110.0711
787.7867, 107.8915
788.2689, 107.7868
788.7510, 110.6688
789.2331, 114.0463
789.7152, 115.3410
790.1973, 116.0315
790.6794, 119.4945
791.1616, 124.8801
791.6437, 127.6920
792.1258, 126.0061
792.6079, 122.1249
793.0900, 119.0341
793.5721, 116.6074
794.0543, 112.8675
794.5364, 107.0281
795.0185, 105.2906
795.5006, 111.0415
795.9827, 118.0269
796.4648, 120.0465
796.9470, 117.5901
797.4291, 115.8757
797.9112, 116.2598
798.3933, 115.4354
798.8754, 110.2882
799.3575, 106.8409
799.8397, 111.1061
800.3218, 118.8255
800.8039, 121.5874
801.2860, 116.9523
801.7681, 111.0815
802.2502, 105.3186
802.7324, 101.2058
803.2145, 101.6346
803.6966, 104.2986
804.1787, 104.7336
804.6608, 101.9449
805.1429, 97.97541
805.6251, 93.68501
806.1072, 90.52304
806.5893, 93.06136
807.0714, 100.2948
807.5535, 104.2962
808.0356, 103.6045
808.5178, 101.5833
808.9999, 100.3418
809.4820, 99.52605
809.9641, 97.94060
810.4462, 94.43819
810.9283, 94.65168
811.4105, 101.8033
811.8926, 107.4112
812.3747, 106.6888
812.8568, 103.7665
813.3389, 103.3620
813.8210, 105.5178
814.3032, 107.5433
814.7853, 109.5045
815.2674, 110.6941
815.7495, 110.6204
816.2316, 109.8666
816.7137, 109.2769
817.1959, 108.4891
817.6780, 105.8371
818.1601, 99.99274
818.6422, 95.16785
819.1243, 95.56924
819.6064, 98.89650
820.0886, 101.8330
820.5707, 104.3765
821.0528, 108.4581
821.5349, 114.5718
822.0170, 117.8392
822.4991, 111.0638
822.9813, 97.96310
823.4634, 96.30038
823.9455, 106.8435
824.4276, 111.9003
824.9097, 106.5830
825.3918, 100.2660
825.8740, 100.2513
826.3561, 104.4562
826.8382, 105.8383
827.3203, 103.0886
827.8024, 100.4810
828.2845, 95.79011
828.7667, 94.04338
829.2488, 99.65440
829.7309, 107.5711
830.2130, 111.2558
830.6951, 110.3664
831.1772, 111.0106
831.6594, 118.0903
832.1415, 122.7704
832.6236, 119.8003
833.1057, 113.6372
833.5878, 107.1555
834.0699, 101.7962
834.5521, 100.1152
835.0342, 103.7610
835.5163, 108.4100
835.9984, 110.7142
836.4805, 111.0709
836.9626, 108.7527
837.4448, 104.9959
837.9269, 104.3953
838.4090, 108.3538
838.8911, 113.3926
839.3732, 116.0423
839.8553, 116.6592
840.3375, 115.9874
840.8196, 113.9686
841.3017, 114.2694
841.7838, 118.2181
842.2659, 120.9882
842.7480, 118.7864
843.2302, 113.8362
843.7123, 111.7370
844.1944, 113.1219
844.6765, 115.4238
845.1586, 120.9516
845.6407, 123.9497
846.1229, 119.5451
846.6050, 113.7583
847.0871, 112.9054
847.5692, 116.6487
848.0513, 119.5142
848.5334, 120.4024
849.0156, 120.8241
849.4977, 120.3380
849.9798, 120.2958
850.4619, 122.3957
850.9440, 125.6264
851.4261, 127.5855
851.9083, 127.4757
852.3904, 127.2129
852.8725, 128.8802
853.3546, 130.3345
853.8367, 128.0678
854.3188, 124.2029
854.8010, 123.7140
855.2831, 127.0885
855.7652, 130.2833
856.2473, 130.3247
856.7294, 128.5372
857.2115, 125.8131
857.6937, 123.1419
858.1758, 126.3717
858.6579, 135.7671
859.1400, 143.3528
859.6221, 145.4296
860.1042, 144.0337
860.5864, 141.4262
861.0685, 137.7667
861.5506, 137.7773
862.0327, 143.1013
862.5148, 145.2512
862.9969, 140.4777
863.4791, 135.9551
863.9612, 138.6634
864.4433, 145.7336
864.9254, 146.4168
865.4075, 134.8239
865.8896, 129.1701
866.3718, 133.0990
866.8539, 138.3242
867.3360, 143.2680
867.8181, 147.1885
868.3002, 149.0790
868.7823, 148.9941
869.2645, 148.4664
869.7466, 145.4032
870.2287, 145.1811
870.7108, 153.9762
871.1929, 163.0677
871.6750, 163.7630
872.1572, 158.4159
872.6393, 153.2845
873.1214, 150.3489
873.6035, 150.0844
874.0856, 154.1869
874.5677, 160.0038
875.0499, 166.5594
875.5320, 171.9253
876.0141, 170.3758
876.4962, 162.4056
876.9783, 157.0721
877.4604, 160.9654
877.9426, 168.7348
878.4247, 172.2751
878.9068, 172.3123
879.3889, 170.2990
879.8710, 166.8074
880.3531, 167.1448
880.8353, 173.6596
881.3174, 181.4694
881.7995, 184.7166
882.2816, 184.1252
882.7637, 184.1197
883.2458, 184.6997
883.7280, 185.9076
884.2101, 187.8212
884.6922, 190.1278
885.1743, 192.6840
885.6564, 195.4121
886.1385, 198.2373
886.6207, 201.3449
887.1028, 203.5997
887.5849, 203.9185
888.0670, 205.1233
888.5491, 207.9763
889.0313, 211.9897
889.5134, 217.1293
889.9955, 223.1247
890.4776, 228.8641
890.9597, 235.4640
891.4418, 239.5970
891.9240, 239.7762
892.4061, 238.5272
892.8882, 234.2162
893.3703, 230.8942
893.8524, 235.4621
894.3345, 248.0267
894.8167, 258.2251
895.2988, 259.1110
895.7809, 259.9686
896.2630, 267.9668
896.7451, 276.7544
897.2272, 277.8315
897.7094, 274.0781
898.1915, 274.6632
898.6736, 282.8799
899.1557, 292.3669
899.6378, 296.8398
900.1199, 300.7049
900.6021, 311.5583
901.0842, 325.3998
901.5663, 332.3385
902.0484, 331.9788
902.5305, 332.6593
903.0126, 339.5425
903.4948, 350.0381
903.9769, 360.5583
904.4590, 371.5585
904.9411, 385.1529
905.4232, 400.8388
905.9053, 413.4476
906.3875, 421.3250
906.8696, 429.1028
907.3517, 440.8621
907.8338, 456.5927
908.3159, 477.5960
908.7980, 503.8908
909.2802, 526.8622
909.7623, 544.9808
910.2444, 563.9753
910.7265, 586.0121
911.2086, 611.8356
911.6907, 643.1479
912.1729, 679.8862
912.6550, 714.8825
913.1371, 744.0677
913.6192, 785.6323
914.1013, 848.4797
914.5834, 913.1547
915.0656, 964.7725
915.5477, 1010.950
916.0298, 1069.524
916.5119, 1141.818
916.9940, 1222.217
917.4761, 1315.283
917.9583, 1409.832
918.4404, 1500.083
918.9225, 1594.156
919.4046, 1697.176
919.8867, 1809.423
920.3688, 1931.068
920.8510, 2061.280
921.3331, 2203.944
921.8152, 2371.636
922.2973, 2538.107
922.7794, 2686.644
923.2615, 2831.485
923.7437, 2989.820
924.2258, 3161.477
924.7079, 3328.199
925.1900, 3474.890
925.6721, 3633.039
926.1542, 3825.969
926.6364, 4024.837
927.1185, 4208.603
927.6006, 4379.495
928.0827, 4550.437
928.5648, 4721.754
929.0469, 4870.159
929.5291, 4990.866
930.0112, 5074.329
930.4933, 5122.622
930.9754, 5123.721
931.4575, 5056.637
931.9396, 4929.138
932.4218, 4764.320
932.9039, 4569.944
933.3860, 4349.149
933.8681, 4099.500
934.3502, 3829.735
934.8323, 3544.659
935.3145, 3251.534
935.7966, 2962.963
936.2787, 2686.017
936.7608, 2434.620
937.2429, 2217.342
937.7250, 2025.637
938.2072, 1848.983
938.6893, 1689.133
939.1714, 1551.928
939.6535, 1434.689
940.1356, 1327.494
940.6177, 1227.602
941.0999, 1137.569
941.5820, 1059.328
942.0641, 990.4948
942.5462, 926.9040
943.0283, 868.8945
943.5104, 820.1981
943.9926, 780.3509
944.4747, 737.9333
944.9568, 689.3009
945.4389, 643.6576
945.9210, 609.8646
946.4031, 584.2867
946.8853, 556.1626
947.3674, 525.4841
947.8495, 499.3635
948.3316, 478.3537
948.8137, 461.4139
949.2958, 448.9053
949.7780, 436.5765
950.2601, 419.4968
950.7422, 398.7353
951.2243, 379.6598
951.7064, 362.1272
952.1885, 347.5168
952.6707, 336.4356
953.1528, 327.1632
953.6349, 319.7180
954.1170, 311.8655
954.5991, 299.6797
955.0812, 283.6363
955.5634, 273.3272
956.0455, 271.2133
956.5276, 267.4190
957.0097, 260.6747
957.4918, 251.9915
957.9739, 240.5526
958.4561, 228.9236
958.9382, 221.2788
959.4203, 217.7469
959.9024, 216.2598
960.3845, 218.8905
960.8666, 219.4018
961.3488, 216.4209
961.8309, 211.7522
962.3130, 206.1851
962.7951, 199.8081
963.2772, 192.0050
963.7593, 181.5121
964.2415, 176.4049
964.7236, 181.1372
965.2057, 184.7811
965.6878, 185.5347
966.1699, 184.6384
966.6520, 181.6610
967.1342, 177.8864
967.6163, 176.7739
968.0984, 179.8696
968.5805, 179.6923
969.0626, 172.6944
969.5447, 166.6531
970.0269, 162.8336
970.5090, 161.2796
970.9911, 163.9577
971.4732, 168.6337
971.9553, 169.2360
972.4374, 163.8348
972.9196, 159.2981
973.4017, 156.9821
973.8838, 155.1010
974.3659, 151.7623
974.8480, 149.6629
975.3301, 152.7821
975.8123, 159.1073
976.2944, 162.1662
976.7765, 160.3103
977.2586, 157.3001
977.7407, 152.1692
978.2228, 148.2447
978.7050, 147.1452
979.1871, 147.8423
979.6692, 150.5313
980.1513, 154.0672
980.6334, 154.8931
981.1155, 151.3261
981.5977, 147.9168
982.0798, 145.9538
982.5619, 144.5493
983.0440, 142.9500
983.5261, 141.8643
984.0082, 142.6039
984.4904, 144.6397
984.9725, 145.9731
985.4546, 146.6050
985.9367, 144.9207
986.4188, 136.8203
986.9009, 130.1992
987.3831, 131.9133
987.8652, 136.1317
988.3473, 135.5392
988.8294, 130.5783
989.3115, 126.5745
989.7936, 125.0390
990.2758, 124.8486
990.7579, 127.1662
991.2400, 128.9210
991.7221, 128.3134
992.2042, 125.8881
992.6863, 120.1646
993.1685, 113.0789
993.6506, 112.6404
994.1327, 124.6446
994.6148, 134.2524
995.0969, 132.7420
995.5790, 128.8892
996.0612, 128.9384
996.5433, 130.0071
997.0254, 126.7813
997.5075, 120.3043
997.9896, 117.8489
998.4717, 123.6872
998.9539, 128.3346
999.4360, 126.3207
999.9181, 122.7741
1000.400, 119.9397
1000.882, 118.5676
1001.364, 120.3602
1001.847, 124.4122
1002.329, 126.6354
1002.811, 124.9518
1003.293, 123.4325
1003.775, 124.2453
1004.257, 125.5973
1004.739, 126.7659
1005.221, 127.4110
1005.703, 127.0466
1006.186, 125.8206
1006.668, 124.2651
1007.150, 122.1371
1007.632, 121.1594
1008.114, 124.4954
1008.596, 126.6131
1009.078, 121.7699
1009.560, 115.0923
1010.043, 113.0341
1010.525, 115.2734
1011.007, 117.7611
1011.489, 119.6945
1011.971, 120.1871
1012.453, 118.1962
1012.935, 115.4158
1013.417, 112.1662
1013.899, 109.2159
1014.382, 107.2101
1014.864, 106.2659
1015.346, 106.3563
1015.828, 107.4356
1016.310, 109.7258
1016.792, 116.2653
1017.274, 120.5489
1017.756, 116.4623
1018.239, 110.3774
1018.721, 108.5557
1019.203, 110.6673
1019.685, 114.3123
1020.167, 119.8475
1020.649, 122.2130
1021.131, 116.2870
1021.613, 111.1540
1022.095, 112.5962
1022.578, 115.3780
1023.060, 114.0416
1023.542, 110.0419
1024.024, 108.2576
1024.506, 110.0871
1024.988, 110.7856
1025.470, 108.7918
1025.952, 105.9019
1026.435, 101.0224
1026.917, 97.13082
1027.399, 97.23634
1027.881, 99.97382
1028.363, 102.0632
1028.845, 102.8517
1029.327, 105.0404
1029.809, 112.6991
1030.292, 116.8456
1030.774, 111.8307
1031.256, 105.8069
1031.738, 105.5836
1032.220, 107.6914
1032.702, 104.3192
1033.184, 94.15030
1033.666, 89.82304
1034.148, 98.71992
1034.630, 104.5991
1035.113, 102.7415
1035.595, 99.51440
1036.077, 97.58815
1036.559, 96.90115
1037.041, 97.50041
1037.523, 99.41537
1038.005, 101.3479
1038.487, 104.4273
1038.970, 105.6584
1039.452, 103.7521
1039.934, 101.3877
1040.416, 98.79562
1040.898, 97.16482
1041.380, 98.66309
1041.862, 102.8350
1042.344, 104.4766
1042.826, 101.5898
1043.309, 100.6627
1043.791, 103.3099
1044.273, 105.3076
1044.755, 104.9774
1045.237, 103.4592
1045.719, 101.1532
1046.201, 98.83033
1046.683, 100.5194
1047.166, 108.5093
1047.648, 112.7043
1048.130, 112.4368
1048.612, 109.7025
1049.094, 103.7975
1049.576, 99.01263
1050.058, 99.40961
1050.540, 103.0556
1051.022, 104.6263
1051.505, 103.8180
1051.987, 104.2519
1052.469, 106.3817
1052.951, 106.4876
1053.433, 103.2144
1053.915, 100.6186
1054.397, 101.6694
1054.879, 104.1870
1055.361, 104.1017
1055.844, 101.6392
1056.326, 99.25046
1056.808, 96.92413
1057.290, 95.40892
1057.772, 94.82137
1058.254, 96.37734
1058.736, 100.9179
1059.218, 105.4865
1059.701, 105.9771
1060.183, 103.4979
1060.665, 101.8474
1061.147, 100.7024
1061.629, 97.23487
1062.111, 91.83253
1062.593, 90.67223
1063.075, 95.96127
1063.557, 101.8269
1064.040, 102.4171
1064.522, 100.4129
1065.004, 100.9850
1065.486, 102.7111
1065.968, 101.2739
1066.450, 97.68065
1066.932, 97.13102
1067.414, 100.4051
1067.896, 101.9002
1068.379, 96.87712
1068.861, 92.03966
1069.343, 97.17923
1069.825, 105.5102
1070.307, 107.8117
1070.789, 105.7515
1071.271, 102.6852
1071.753, 99.79289
1072.236, 98.30046
1072.718, 98.93559
1073.200, 99.72517
1073.682, 99.45631
1074.164, 98.50531
1074.646, 96.85936
1075.128, 94.95459
1075.610, 93.25484
1076.093, 91.76196
1076.575, 90.11447
1077.057, 88.17971
1077.539, 87.20240
1078.021, 88.82619
1078.503, 90.07233
1078.985, 89.43533
1079.467, 88.06033
1079.949, 85.98801
1080.432, 84.21825
1080.914, 84.80140
1081.396, 87.75835
1081.878, 89.17701
1082.360, 85.27593
1082.842, 84.53499
1083.324, 91.68230
1083.806, 98.10448
1084.288, 99.28958
1084.771, 98.27559
1085.253, 98.01936
1085.735, 98.44896
1086.217, 99.25573
1086.699, 101.5006
1087.181, 101.0752
1087.663, 95.71501
1088.145, 92.43693
1088.628, 94.17240
1089.110, 96.25044
1089.592, 94.70648
1090.074, 91.90149
1090.556, 93.58824
1091.038, 100.0915
1091.520, 100.8780
1092.002, 94.56313
1092.484, 91.78796
1092.967, 94.76443
1093.449, 98.13927
1093.931, 99.38042
1094.413, 98.76364
1094.895, 96.32117
1095.377, 92.71670
1095.859, 90.04107
1096.341, 88.40675
1096.823, 89.23965
1097.306, 92.37184
1097.788, 95.73074
1098.270, 98.49628
1098.752, 98.81429
1099.234, 94.57703
1099.716, 89.76556
1100.198, 92.05389
1100.680, 97.37048
1101.163, 97.10534
1101.645, 92.80041
1102.127, 88.68058
1102.609, 85.70572
1103.091, 83.23864
1103.573, 80.92542
1104.055, 80.61250
1104.537, 86.50170
1105.020, 92.22803
1105.502, 90.82283
1105.984, 86.68494
1106.466, 84.83139
1106.948, 84.97238
1107.430, 84.92518
1107.912, 84.30687
1108.394, 85.19419
1108.876, 91.00483
1109.359, 94.57099
1109.841, 90.71724
1110.323, 86.62148
1110.805, 86.81109
1111.287, 89.15158
1111.769, 91.71761
1112.251, 93.93242
1112.733, 93.71294
1113.215, 88.76293
1113.698, 86.63019
1114.180, 87.78350
1114.662, 91.59441
1115.144, 102.2236
1115.626, 109.1063
1116.108, 102.4939
1116.590, 90.25316
1117.072, 87.47976
1117.555, 94.23185
1118.037, 98.63484
1118.519, 100.8934
1119.001, 98.63902
1119.483, 90.50264
1119.965, 85.42369
1120.447, 87.52618
1120.929, 91.54425
1121.411, 92.06033
1121.894, 90.46877
1122.376, 90.55641
1122.858, 91.82124
1123.340, 90.73613
1123.822, 88.05291
1124.304, 89.39352
1124.786, 95.36172
1125.268, 100.2016
1125.750, 100.6078
1126.233, 99.18929
1126.715, 97.23065
1127.197, 96.58128
1127.679, 103.1582
1128.161, 110.7609
1128.643, 106.5619
1129.125, 95.03518
1129.607, 91.18983
1130.090, 98.22945
1130.572, 104.9299
1131.054, 105.9463
1131.536, 104.7901
1132.018, 101.7036
1132.500, 98.83746
1132.982, 97.14674
1133.464, 96.88016
1133.947, 99.11385
1134.429, 102.9828
1134.911, 104.9707
1135.393, 103.5844
1135.875, 104.0013
1136.357, 109.8216
1136.839, 112.5972
1137.321, 109.1366
1137.803, 104.8689
1138.286, 102.6047
1138.768, 101.6715
1139.250, 101.5894
1139.732, 101.9650
1140.214, 98.00959
1140.696, 88.39281
1141.178, 85.31804
1141.660, 90.11835
1142.142, 95.75153
1142.625, 100.1387
1143.107, 101.5641
1143.589, 98.29369
1144.071, 93.30972
1144.553, 92.05973
1145.035, 93.22771
1145.517, 92.42309
1145.999, 90.62982
1146.482, 91.26233
1146.964, 94.25907
1147.446, 97.72810
1147.928, 100.7906
1148.410, 102.0119
1148.892, 99.60317
1149.374, 96.17303
1149.856, 92.63013
1150.339, 90.53500
1150.821, 93.53527
1151.303, 97.78622
1151.785, 96.39455
1152.267, 90.42309
1152.749, 87.86991
1153.231, 91.53683
1153.713, 95.18697
1154.195, 98.17841
1154.677, 99.90634
1155.160, 99.58392
1155.642, 98.61354
1156.124, 98.44014
1156.606, 97.64564
1157.088, 93.40988
1157.570, 86.29868
1158.052, 83.09256
1158.534, 84.32825
1159.017, 87.64078
1159.499, 93.68832
1159.981, 96.86705
1160.463, 95.23280
1160.945, 92.56704
1161.427, 91.51581
1161.909, 91.53100
1162.391, 92.10876
1162.874, 92.81588
1163.356, 91.73158
1163.838, 89.59524
1164.320, 88.50266
1164.802, 88.79989
1165.284, 91.52384
1165.766, 96.43207
1166.248, 98.41586
1166.730, 92.49226
1167.213, 86.64605
1167.695, 88.74529
1168.177, 92.51534
1168.659, 91.70526
1169.141, 89.68480
1169.623, 92.27523
1170.105, 97.53675
1170.587, 98.03098
1171.069, 91.60362
1171.552, 87.67418
1172.034, 89.97832
1172.516, 91.51788
1172.998, 89.19238
1173.480, 89.01248
1173.962, 95.49567
1174.444, 102.3983
1174.926, 102.5765
1175.409, 98.40759
1175.891, 98.45334
1176.373, 103.1540
1176.855, 105.8102
1177.337, 106.4035
1177.819, 106.1464
1178.301, 105.2593
1178.783, 102.7347
1179.266, 98.06348
1179.748, 94.92306
1180.230, 97.86375
1180.712, 103.4703
1181.194, 107.3416
1181.676, 109.2596
1182.158, 107.6257
1182.640, 104.1721
1183.122, 102.4110
1183.604, 102.5781
1184.087, 102.6465
1184.569, 101.7557
1185.051, 101.7190
1185.533, 106.7269
1186.015, 108.1730
1186.497, 96.81982
1186.979, 86.63126
1187.461, 90.11308
1187.944, 98.85026
1188.426, 99.47906
1188.908, 93.86152
1189.390, 94.38426
1189.872, 104.2421
1190.354, 108.7484
1190.836, 107.0314
1191.318, 103.2892
1191.801, 97.90334
1192.283, 94.38337
1192.765, 94.83022
1193.247, 97.36786
1193.729, 99.85815
1194.211, 102.3851
1194.693, 106.0891
1195.175, 109.6870
1195.657, 108.8030
1196.140, 104.9280
1196.622, 102.5152
1197.104, 102.5191
1197.586, 104.4654
1198.068, 108.4233
1198.550, 111.3397
1199.032, 110.9448
1199.514, 109.4236
1199.996, 107.4346
1200.479, 105.4203
1200.961, 104.1381
1201.443, 102.7736
1201.925, 99.39172
1202.407, 94.51579
1202.889, 92.32137
1203.371, 93.30421
1203.853, 95.80643
1204.336, 101.0968
1204.818, 103.4126
1205.300, 100.8875
1205.782, 98.78472
1206.264, 100.1152
1206.746, 101.7383
1207.228, 99.48815
1207.710, 95.63790
1208.193, 96.99940
1208.675, 101.0697
1209.157, 99.48947
1209.639, 94.32855
1210.121, 93.32247
1210.603, 96.57725
1211.085, 97.93528
1211.567, 94.91531
1212.049, 91.93006
1212.531, 91.16577
1213.014, 91.87199
1213.496, 95.89506
1213.978, 98.76586
1214.460, 95.72894
1214.942, 90.94951
1215.424, 89.42729
1215.906, 90.79760
1216.388, 93.17532
1216.871, 97.03771
1217.353, 98.85719
1217.835, 98.30665
1218.317, 97.04900
1218.799, 95.25317
1219.281, 92.78348
1219.763, 89.41336
1220.245, 87.67274
1220.728, 90.20774
1221.210, 94.31642
1221.692, 95.21050
1222.174, 94.21131
1222.656, 94.23405
1223.138, 94.42610
1223.620, 91.86105
1224.102, 87.86515
1224.584, 87.24451
1225.067, 90.94871
1225.549, 94.42539
1226.031, 96.94339
1226.513, 96.53438
1226.995, 89.64122
1227.477, 83.43395
1227.959, 79.51303
1228.441, 79.29824
1228.923, 86.40871
1229.406, 95.29154
1229.888, 95.86421
1230.370, 89.05064
1230.852, 84.71579
1231.334, 82.88153
1231.816, 84.12718
1232.298, 88.18654
1232.780, 87.50112
1233.263, 80.71548
1233.745, 75.99662
1234.227, 78.03529
1234.709, 81.74309
1235.191, 81.95066
1235.673, 80.94796
1236.155, 81.46763
##END=



