##NAMES=Hennomartinite
##RRUFFID=R130039
##IDEAL CHEMISTRY=SrMn^3+^_2_Si_2_O_7_(OH)_2_&#183;H_2_O
##LOCALITY=Wessels mine, Kuruman, Kalahari manganese field, Cape Province, South Africa
##OWNER=RRUFF
##SOURCE=William W. Pinch
##DESCRIPTION=Brown spherical aggregates, associated with purple sugilite, brownish quartz and white hydroxyapophyllite-(K).
##STATUS=The identification of this mineral has been confirmed only by single crystal X-ray diffraction.
##URL=rruff.info/R130039
222.3653, 221.7049
222.8474, 226.8356
223.3295, 232.0225
223.8116, 237.1820
224.2938, 242.3511
224.7759, 247.6073
225.2580, 253.1425
225.7401, 258.2097
226.2222, 262.8504
226.7043, 266.9867
227.1865, 270.5948
227.6686, 274.0038
228.1507, 276.2889
228.6328, 276.8360
229.1149, 275.3096
229.5970, 272.8272
230.0792, 269.3767
230.5613, 265.0144
231.0434, 260.0077
231.5255, 254.1731
232.0076, 248.0730
232.4897, 242.0024
232.9719, 235.7495
233.4540, 230.0235
233.9361, 224.7652
234.4182, 220.0338
234.9003, 215.9737
235.3824, 212.7404
235.8646, 209.9538
236.3467, 207.4342
236.8288, 205.1601
237.3109, 203.1786
237.7930, 201.4072
238.2751, 199.9312
238.7573, 199.1535
239.2394, 199.6071
239.7215, 199.9804
240.2036, 199.6108
240.6857, 197.9602
241.1678, 196.7809
241.6500, 196.1905
242.1321, 196.0397
242.6142, 195.9827
243.0963, 196.1600
243.5784, 196.2199
244.0605, 195.9102
244.5427, 194.7794
245.0248, 194.4682
245.5069, 195.2752
245.9890, 196.7888
246.4711, 198.0949
246.9532, 199.1045
247.4354, 200.0756
247.9175, 201.0153
248.3996, 201.7329
248.8817, 203.0893
249.3638, 205.3093
249.8459, 208.0447
250.3281, 210.6580
250.8102, 213.0858
251.2923, 215.5167
251.7744, 218.0351
252.2565, 220.6178
252.7386, 223.2755
253.2208, 225.9369
253.7029, 228.7248
254.1850, 231.9314
254.6671, 235.7949
255.1492, 239.6257
255.6313, 243.2021
256.1135, 246.4901
256.5956, 249.6279
257.0777, 252.5051
257.5598, 255.2904
258.0419, 258.2508
258.5240, 261.5309
259.0062, 264.5812
259.4883, 267.2824
259.9704, 269.5859
260.4525, 271.5575
260.9346, 273.1133
261.4167, 274.4145
261.8989, 275.6783
262.3810, 277.0146
262.8631, 278.0003
263.3452, 278.5113
263.8273, 278.5562
264.3094, 278.4387
264.7916, 278.3389
265.2737, 277.8083
265.7558, 276.2527
266.2379, 273.3309
266.7200, 270.5692
267.2021, 268.3657
267.6843, 266.6263
268.1664, 264.2891
268.6485, 261.2058
269.1306, 257.8389
269.6127, 254.6121
270.0948, 251.5881
270.5770, 248.4488
271.0591, 245.1475
271.5412, 241.7162
272.0233, 238.1579
272.5054, 234.4444
272.9875, 230.8250
273.4697, 227.5406
273.9518, 224.6122
274.4339, 221.6859
274.9160, 218.7285
275.3981, 215.7547
275.8802, 212.6943
276.3624, 209.5492
276.8445, 206.4993
277.3266, 203.6617
277.8087, 201.0417
278.2908, 198.5904
278.7729, 196.3445
279.2551, 194.2222
279.7372, 192.0434
280.2193, 189.7637
280.7014, 187.6802
281.1835, 185.9665
281.6656, 184.6188
282.1478, 183.3797
282.6299, 182.2574
283.1120, 181.2032
283.5941, 180.1027
284.0762, 178.9435
284.5583, 177.9098
285.0405, 177.0271
285.5226, 176.3103
286.0047, 175.9426
286.4868, 175.9728
286.9689, 176.1916
287.4510, 176.3687
287.9332, 176.5019
288.4153, 176.5507
288.8974, 176.3993
289.3795, 176.1432
289.8616, 176.1253
290.3438, 176.3417
290.8259, 176.8208
291.3080, 177.7215
291.7901, 178.9685
292.2722, 180.1596
292.7543, 181.0993
293.2365, 181.9153
293.7186, 182.9065
294.2007, 184.0663
294.6828, 185.2949
295.1649, 186.4779
295.6470, 187.6443
296.1292, 188.9469
296.6113, 190.4736
297.0934, 192.0815
297.5755, 193.5701
298.0576, 194.9512
298.5397, 196.2706
299.0219, 197.5773
299.5040, 198.8662
299.9861, 200.0838
300.4682, 201.1719
300.9503, 202.2872
301.4324, 203.7823
301.9146, 205.5324
302.3967, 207.0728
302.8788, 207.8247
303.3609, 208.2673
303.8430, 209.2027
304.3251, 210.9047
304.8073, 212.4731
305.2894, 212.9490
305.7715, 212.6322
306.2536, 212.2687
306.7357, 211.9652
307.2178, 211.9435
307.7000, 212.5337
308.1821, 213.8044
308.6642, 215.2223
309.1463, 216.4314
309.6284, 217.5157
310.1105, 218.6261
310.5927, 219.9856
311.0748, 221.2590
311.5569, 222.0905
312.0390, 222.4818
312.5211, 223.0381
313.0032, 224.1633
313.4854, 225.6195
313.9675, 227.1403
314.4496, 228.6415
314.9317, 230.1831
315.4138, 231.9493
315.8959, 233.8632
316.3781, 235.5004
316.8602, 236.1928
317.3423, 236.8038
317.8244, 238.0165
318.3065, 240.6553
318.7886, 242.9480
319.2708, 243.9413
319.7529, 244.0808
320.2350, 244.6235
320.7171, 246.2975
321.1992, 248.1870
321.6813, 249.8635
322.1635, 251.2654
322.6456, 252.4571
323.1277, 253.4472
323.6098, 254.2310
324.0919, 254.8043
324.5740, 255.1612
325.0562, 255.3011
325.5383, 255.2713
326.0204, 255.1467
326.5025, 254.5535
326.9846, 253.1560
327.4667, 251.4119
327.9489, 249.7940
328.4310, 248.8334
328.9131, 247.4145
329.3952, 245.2612
329.8773, 242.3590
330.3594, 239.4132
330.8416, 236.4851
331.3237, 233.4966
331.8058, 230.4019
332.2879, 227.1663
332.7700, 223.8518
333.2521, 220.3732
333.7343, 216.7770
334.2164, 213.2824
334.6985, 209.9568
335.1806, 206.6824
335.6627, 203.3424
336.1448, 199.8235
336.6270, 196.6733
337.1091, 193.9533
337.5912, 191.6091
338.0733, 189.5380
338.5554, 187.8240
339.0375, 186.1743
339.5197, 184.3706
340.0018, 182.3909
340.4839, 181.0651
340.9660, 180.6231
341.4481, 180.3862
341.9302, 179.3623
342.4124, 177.4640
342.8945, 175.8462
343.3766, 174.8439
343.8587, 174.3904
344.3408, 174.2040
344.8229, 174.3094
345.3051, 174.5205
345.7872, 174.5951
346.2693, 174.5851
346.7514, 174.8635
347.2335, 175.5515
347.7156, 176.5081
348.1978, 177.5031
348.6799, 178.5331
349.1620, 179.5377
349.6441, 180.3341
350.1262, 181.0858
350.6083, 182.2210
351.0905, 183.8619
351.5726, 185.6752
352.0547, 187.2434
352.5368, 188.6605
353.0189, 190.2108
353.5010, 192.0927
353.9832, 194.1596
354.4653, 196.1930
354.9474, 198.1944
355.4295, 200.3460
355.9116, 202.7540
356.3937, 205.4275
356.8759, 208.3434
357.3580, 211.6915
357.8401, 215.1432
358.3222, 218.4578
358.8043, 221.6852
359.2864, 224.9406
359.7686, 228.1243
360.2507, 231.4686
360.7328, 235.1280
361.2149, 239.1645
361.6970, 243.5188
362.1791, 248.4005
362.6613, 253.5872
363.1434, 258.5700
363.6255, 262.7021
364.1076, 266.9757
364.5897, 271.9921
365.0718, 277.9803
365.5540, 283.7824
366.0361, 288.9081
366.5182, 293.8295
367.0003, 299.1138
367.4824, 305.2461
367.9645, 311.3172
368.4467, 317.1615
368.9288, 322.6754
369.4109, 328.2070
369.8930, 333.4970
370.3751, 339.0151
370.8572, 345.1445
371.3394, 352.3461
371.8215, 359.2641
372.3036, 365.6393
372.7857, 371.6679
373.2678, 378.1473
373.7499, 385.3165
374.2321, 392.6085
374.7142, 399.6268
375.1963, 406.2440
375.6784, 413.3785
376.1605, 421.2082
376.6426, 429.2731
377.1248, 436.5578
377.6069, 443.0363
378.0890, 449.3754
378.5711, 455.8649
379.0532, 462.4358
379.5353, 468.0465
380.0175, 472.6479
380.4996, 476.8007
380.9817, 481.3417
381.4638, 486.0943
381.9459, 489.6606
382.4280, 491.5356
382.9102, 492.3128
383.3923, 493.0984
383.8744, 493.8455
384.3565, 494.0388
384.8386, 493.2284
385.3207, 491.6465
385.8029, 489.8000
386.2850, 487.7384
386.7671, 485.3125
387.2492, 482.4546
387.7313, 479.1031
388.2134, 475.1650
388.6956, 470.3098
389.1777, 465.1062
389.6598, 460.1426
390.1419, 455.4140
390.6240, 450.3184
391.1061, 444.3413
391.5883, 437.8248
392.0704, 431.0620
392.5525, 423.7614
393.0346, 416.7704
393.5167, 410.6661
393.9988, 405.1253
394.4810, 399.1659
394.9631, 391.9777
395.4452, 384.6480
395.9273, 377.7792
396.4094, 371.6490
396.8915, 365.3012
397.3737, 358.1258
397.8558, 350.7754
398.3379, 344.0541
398.8200, 338.8083
399.3021, 333.3737
399.7842, 327.2352
400.2664, 320.3965
400.7485, 314.0932
401.2306, 308.5965
401.7127, 303.4400
402.1948, 298.3209
402.6769, 293.0343
403.1591, 288.2871
403.6412, 284.4298
404.1233, 281.0055
404.6054, 276.6230
405.0875, 270.9492
405.5696, 265.4293
406.0518, 260.6254
406.5339, 256.5480
407.0160, 252.9768
407.4981, 250.0470
407.9802, 247.3530
408.4623, 244.4686
408.9445, 241.3864
409.4266, 238.2433
409.9087, 235.0139
410.3908, 231.8071
410.8729, 228.9346
411.3550, 226.3812
411.8372, 223.9823
412.3193, 221.4754
412.8014, 219.0217
413.2835, 217.0294
413.7656, 215.5981
414.2477, 214.3791
414.7299, 213.0403
415.2120, 211.6244
415.6941, 210.2754
416.1762, 209.0169
416.6583, 207.8580
417.1404, 206.8227
417.6226, 205.8964
418.1047, 205.0197
418.5868, 204.1060
419.0689, 203.2371
419.5510, 202.4807
420.0331, 201.9170
420.5153, 201.3930
420.9974, 200.9449
421.4795, 200.5068
421.9616, 199.9265
422.4437, 198.8703
422.9258, 197.9139
423.4080, 197.3450
423.8901, 197.3054
424.3722, 197.1985
424.8543, 197.0178
425.3364, 196.7364
425.8185, 196.3077
426.3007, 195.3904
426.7828, 194.8348
427.2649, 194.9320
427.7470, 195.5465
428.2291, 195.7475
428.7112, 195.2934
429.1934, 194.8403
429.6755, 194.8314
430.1576, 195.4312
430.6397, 195.5603
431.1218, 195.0315
431.6039, 194.2784
432.0861, 194.0687
432.5682, 194.4495
433.0503, 194.6549
433.5324, 194.3411
434.0145, 193.6666
434.4966, 193.2474
434.9788, 193.0974
435.4609, 192.8401
435.9430, 191.8489
436.4251, 190.4857
436.9072, 189.8683
437.3893, 190.4138
437.8715, 191.1873
438.3536, 191.2066
438.8357, 190.5969
439.3178, 189.7071
439.7999, 188.4314
440.2820, 187.1274
440.7642, 186.1958
441.2463, 185.6483
441.7284, 185.0709
442.2105, 184.1629
442.6926, 183.1373
443.1747, 182.1978
443.6569, 181.3985
444.1390, 180.6858
444.6211, 180.1773
445.1032, 179.7603
445.5853, 179.1254
446.0674, 177.8469
446.5496, 176.6643
447.0317, 175.9535
447.5138, 176.0080
447.9959, 175.5751
448.4780, 174.1973
448.9601, 172.6556
449.4423, 171.7533
449.9244, 171.9666
450.4065, 171.8184
450.8886, 170.8814
451.3707, 169.4351
451.8528, 168.7134
452.3350, 168.9210
452.8171, 169.2217
453.2992, 169.1742
453.7813, 168.7709
454.2634, 168.2045
454.7455, 167.3752
455.2277, 166.6901
455.7098, 166.8237
456.1919, 167.6548
456.6740, 168.3741
457.1561, 168.6618
457.6382, 168.7166
458.1204, 168.8000
458.6025, 168.9250
459.0846, 169.1710
459.5667, 169.4666
460.0488, 169.9716
460.5309, 171.1122
461.0131, 173.1669
461.4952, 174.8068
461.9773, 174.4146
462.4594, 173.1510
462.9415, 172.7108
463.4236, 174.5823
463.9058, 176.6176
464.3879, 177.8723
464.8700, 178.3903
465.3521, 178.9566
465.8342, 179.8152
466.3163, 180.7412
466.7985, 181.6231
467.2806, 182.4989
467.7627, 183.2307
468.2448, 183.6677
468.7269, 184.0170
469.2090, 184.6378
469.6912, 185.9745
470.1733, 186.7609
470.6554, 186.5493
471.1375, 185.4620
471.6196, 184.7498
472.1017, 184.5775
472.5839, 184.3143
473.0660, 183.3165
473.5481, 181.5771
474.0302, 180.5225
474.5123, 180.3690
474.9944, 180.6404
475.4766, 180.7212
475.9587, 180.6265
476.4408, 180.4321
476.9229, 180.0697
477.4050, 179.6921
477.8871, 179.5723
478.3693, 179.6947
478.8514, 179.9037
479.3335, 180.0577
479.8156, 180.2521
480.2977, 180.5679
480.7798, 180.9758
481.2620, 181.6446
481.7441, 182.7527
482.2262, 184.1629
482.7083, 185.6731
483.1904, 187.3841
483.6725, 189.0229
484.1547, 190.4610
484.6368, 191.6989
485.1189, 192.8904
485.6010, 193.8236
486.0831, 194.9016
486.5652, 196.3122
487.0474, 198.1511
487.5295, 200.1419
488.0116, 202.2936
488.4937, 204.5667
488.9758, 206.9199
489.4579, 209.3393
489.9401, 211.9102
490.4222, 214.7106
490.9043, 217.6769
491.3864, 220.6046
491.8685, 223.4826
492.3506, 226.4866
492.8328, 229.7842
493.3149, 233.3132
493.7970, 236.8147
494.2791, 240.2427
494.7612, 243.8461
495.2433, 247.9887
495.7255, 252.5759
496.2076, 257.4170
496.6897, 262.5909
497.1718, 267.8490
497.6539, 272.7696
498.1360, 277.4561
498.6182, 282.4281
499.1003, 288.0557
499.5824, 293.9737
500.0645, 299.8004
500.5466, 305.5600
501.0287, 311.3315
501.5109, 316.9196
501.9930, 322.6445
502.4751, 328.7571
502.9572, 335.6540
503.4393, 342.5040
503.9214, 349.2761
504.4036, 355.8769
504.8857, 362.1611
505.3678, 368.0801
505.8499, 373.8861
506.3320, 379.7501
506.8141, 385.7064
507.2963, 391.2116
507.7784, 396.3159
508.2605, 401.0154
508.7426, 405.4703
509.2247, 409.6571
509.7068, 413.2681
510.1890, 416.3288
510.6711, 418.6239
511.1532, 419.5944
511.6353, 419.3636
512.1174, 418.5342
512.5995, 417.5202
513.0817, 416.0231
513.5638, 413.6158
514.0459, 410.3083
514.5280, 406.4977
515.0101, 402.2586
515.4922, 397.7105
515.9744, 393.0313
516.4565, 388.3076
516.9386, 383.2977
517.4207, 377.4499
517.9028, 371.3623
518.3849, 366.0135
518.8671, 362.2671
519.3492, 358.5182
519.8313, 354.2383
520.3134, 349.5251
520.7955, 345.2682
521.2776, 341.4191
521.7598, 338.0788
522.2419, 335.4326
522.7240, 333.6052
523.2061, 331.6909
523.6882, 329.6025
524.1703, 327.5684
524.6525, 325.8021
525.1346, 324.3065
525.6167, 323.2736
526.0988, 322.8312
526.5809, 322.8135
527.0630, 322.9213
527.5452, 323.1833
528.0273, 323.7410
528.5094, 324.8669
528.9915, 326.2390
529.4736, 327.4229
529.9557, 328.3770
530.4379, 329.5979
530.9200, 331.1257
531.4021, 333.2020
531.8842, 336.0972
532.3663, 340.3312
532.8484, 344.7158
533.3306, 348.8278
533.8127, 352.8888
534.2948, 357.2658
534.7769, 362.2389
535.2590, 367.2983
535.7411, 372.1776
536.2233, 376.8839
536.7054, 382.5521
537.1875, 389.5143
537.6696, 396.7186
538.1517, 403.4085
538.6339, 409.4326
539.1160, 416.2974
539.5981, 424.1172
540.0802, 432.6191
540.5623, 441.9388
541.0444, 451.9098
541.5266, 461.7438
542.0087, 470.8755
542.4908, 480.1086
542.9729, 490.5769
543.4550, 502.0087
543.9371, 513.6589
544.4193, 525.0977
544.9014, 536.6902
545.3835, 548.7896
545.8656, 561.4330
546.3477, 574.3166
546.8298, 587.5296
547.3120, 600.9929
547.7941, 614.5332
548.2762, 628.2998
548.7583, 642.0372
549.2404, 655.7640
549.7225, 669.4422
550.2047, 683.0580
550.6868, 696.8055
551.1689, 710.1312
551.6510, 722.6074
552.1331, 734.4516
552.6152, 746.9480
553.0974, 760.3289
553.5795, 773.2514
554.0616, 784.8440
554.5437, 795.2219
555.0258, 804.9549
555.5079, 814.1065
555.9901, 822.6920
556.4722, 831.0902
556.9543, 839.0168
557.4364, 845.8199
557.9185, 851.0690
558.4006, 855.5420
558.8828, 860.3088
559.3649, 864.7928
559.8470, 867.7852
560.3291, 868.8048
560.8112, 868.1633
561.2933, 865.8340
561.7755, 861.8044
562.2576, 856.7062
562.7397, 850.5797
563.2218, 843.4466
563.7039, 835.2709
564.1860, 825.9944
564.6682, 815.7899
565.1503, 804.6938
565.6324, 792.5187
566.1145, 778.9403
566.5966, 763.7041
567.0787, 748.4821
567.5609, 733.6711
568.0430, 719.0558
568.5251, 704.7778
569.0072, 690.6392
569.4893, 676.0820
569.9714, 660.2342
570.4536, 643.8571
570.9357, 627.8118
571.4178, 612.1882
571.8999, 596.9460
572.3820, 582.5759
572.8641, 568.4291
573.3463, 554.0562
573.8284, 538.9062
574.3105, 524.3582
574.7926, 510.9086
575.2747, 498.2336
575.7568, 485.9976
576.2390, 474.2712
576.7211, 462.6048
577.2032, 450.7523
577.6853, 438.8930
578.1674, 428.1372
578.6495, 418.8226
579.1317, 409.6172
579.6138, 399.7847
580.0959, 389.5020
580.5780, 380.3790
581.0601, 372.4077
581.5422, 364.8509
582.0244, 356.9846
582.5065, 349.0101
582.9886, 341.5800
583.4707, 334.6797
583.9528, 328.2455
584.4349, 322.3247
584.9171, 316.7811
585.3992, 311.4188
585.8813, 306.5726
586.3634, 301.4295
586.8455, 295.2486
587.3276, 288.4748
587.8098, 282.5683
588.2919, 278.4005
588.7740, 274.5410
589.2561, 270.6098
589.7382, 266.6040
590.2203, 262.5896
590.7025, 258.4567
591.1846, 254.5858
591.6667, 251.3353
592.1488, 248.7475
592.6309, 246.0267
593.1130, 243.1319
593.5952, 240.1101
594.0773, 236.8092
594.5594, 233.3745
595.0415, 230.5070
595.5236, 228.5934
596.0057, 226.8544
596.4879, 224.3569
596.9700, 221.3726
597.4521, 218.5601
597.9342, 216.0210
598.4163, 213.9099
598.8984, 212.6587
599.3806, 212.1142
599.8627, 210.9722
600.3448, 208.4551
600.8269, 205.6754
601.3090, 203.0777
601.7911, 200.6139
602.2733, 198.5208
602.7554, 196.9110
603.2375, 195.5147
603.7196, 194.1017
604.2017, 192.6456
604.6838, 191.3565
605.1660, 190.2946
605.6481, 189.3027
606.1302, 188.0978
606.6123, 186.7344
607.0944, 185.4691
607.5765, 184.3947
608.0587, 183.4534
608.5408, 182.5640
609.0229, 181.7401
609.5050, 180.9993
609.9871, 180.5402
610.4692, 180.0211
610.9514, 179.1922
611.4335, 178.0123
611.9156, 176.8676
612.3977, 175.7763
612.8798, 174.7882
613.3619, 173.9666
613.8441, 173.4443
614.3262, 172.7311
614.8083, 171.7511
615.2904, 170.6812
615.7725, 169.7308
616.2546, 168.9006
616.7368, 168.2242
617.2189, 167.7439
617.7010, 167.3459
618.1831, 166.8122
618.6652, 166.1781
619.1473, 165.5800
619.6295, 165.0293
620.1116, 164.5912
620.5937, 164.4851
621.0758, 164.6128
621.5579, 164.4776
622.0400, 163.4913
622.5222, 162.4460
623.0043, 161.7674
623.4864, 161.5138
623.9685, 161.5345
624.4506, 162.2492
624.9327, 162.8660
625.4149, 162.7986
625.8970, 161.7209
626.3791, 160.9371
626.8612, 160.5050
627.3433, 160.3515
627.8254, 160.4490
628.3076, 160.7851
628.7897, 161.0928
629.2718, 161.2999
629.7539, 161.4574
630.2360, 161.6879
630.7181, 161.9445
631.2003, 162.0745
631.6824, 161.7362
632.1645, 161.4516
632.6466, 161.7702
633.1287, 162.5886
633.6108, 163.1810
634.0930, 162.9348
634.5751, 162.7104
635.0572, 162.9817
635.5393, 163.8784
636.0214, 164.6708
636.5035, 165.1686
636.9857, 165.7969
637.4678, 166.9674
637.9499, 168.7890
638.4320, 170.3118
638.9141, 171.4262
639.3962, 172.3374
639.8784, 173.2051
640.3605, 174.0685
640.8426, 175.1312
641.3247, 176.4340
641.8068, 177.9685
642.2889, 179.8349
642.7711, 181.9297
643.2532, 184.0661
643.7353, 185.9101
644.2174, 187.9852
644.6995, 190.5903
645.1816, 193.6735
645.6638, 196.9000
646.1459, 200.1439
646.6280, 203.5976
647.1101, 207.3616
647.5922, 211.4075
648.0743, 215.7210
648.5565, 220.2968
649.0386, 225.0764
649.5207, 229.8628
650.0028, 234.6830
650.4849, 239.9106
650.9670, 245.5620
651.4492, 251.3583
651.9313, 256.6792
652.4134, 261.9446
652.8955, 267.8896
653.3776, 275.0151
653.8597, 282.3877
654.3419, 289.5201
654.8240, 296.5348
655.3061, 303.5000
655.7882, 310.3407
656.2703, 317.2575
656.7524, 324.3898
657.2346, 331.6434
657.7167, 338.7754
658.1988, 345.8900
658.6809, 352.6890
659.1630, 359.2448
659.6451, 365.4159
660.1273, 370.3692
660.6094, 374.1468
661.0915, 376.8368
661.5736, 378.4475
662.0557, 379.0718
662.5378, 379.0761
663.0200, 378.4667
663.5021, 376.4662
663.9842, 372.3889
664.4663, 366.7109
664.9484, 359.8578
665.4305, 351.7165
665.9127, 342.8601
666.3948, 332.8529
666.8769, 322.4991
667.3590, 312.5924
667.8411, 303.6059
668.3232, 294.2148
668.8054, 284.1694
669.2875, 273.9803
669.7696, 264.5837
670.2517, 255.9854
670.7338, 247.8088
671.2159, 239.9632
671.6981, 232.5876
672.1802, 226.0160
672.6623, 220.2194
673.1444, 214.8530
673.6265, 209.9234
674.1086, 205.2952
674.5908, 200.8269
675.0729, 196.5843
675.5550, 192.7380
676.0371, 189.4619
676.5192, 186.5061
677.0013, 183.7312
677.4835, 181.1283
677.9656, 178.6505
678.4477, 176.2873
678.9298, 174.0301
679.4119, 171.8633
679.8940, 169.7602
680.3762, 167.9724
680.8583, 166.5070
681.3404, 165.1933
681.8225, 163.8161
682.3046, 162.4510
682.7867, 161.2691
683.2689, 160.3925
683.7510, 159.4351
684.2331, 157.8965
684.7152, 156.2075
685.1973, 154.9533
685.6794, 155.0007
686.1616, 154.6250
686.6437, 153.2422
687.1258, 151.3155
687.6079, 149.5949
688.0900, 147.9531
688.5721, 146.9585
689.0543, 147.0108
689.5364, 147.6414
690.0185, 147.4041
690.5006, 146.3219
690.9827, 145.1357
691.4648, 144.1749
691.9470, 143.3522
692.4291, 142.4263
692.9112, 141.4544
693.3933, 140.7566
693.8754, 140.8168
694.3575, 140.9603
694.8397, 140.7081
695.3218, 139.9883
695.8039, 139.3605
696.2860, 138.9096
696.7681, 138.5639
697.2502, 138.3238
697.7324, 138.2490
698.2145, 137.9641
698.6966, 137.4078
699.1787, 136.8165
699.6608, 136.4948
700.1429, 136.3631
700.6251, 135.9313
701.1072, 135.0677
701.5893, 134.2867
702.0714, 134.1802
702.5535, 134.4580
703.0356, 134.6993
703.5178, 134.7572
703.9999, 134.8025
704.4820, 135.0121
704.9641, 135.2157
705.4462, 135.1375
705.9283, 134.5904
706.4105, 134.0374
706.8926, 133.4743
707.3747, 132.9750
707.8568, 132.7787
708.3389, 132.9166
708.8210, 132.9224
709.3032, 132.5480
709.7853, 132.0317
710.2674, 131.9651
710.7495, 132.2260
711.2316, 132.3018
711.7137, 131.6500
712.1959, 130.9262
712.6780, 130.6407
713.1601, 130.7495
713.6422, 130.8436
714.1243, 130.9098
714.6064, 130.8330
715.0886, 130.5166
715.5707, 129.9476
716.0528, 129.5567
716.5349, 129.3836
717.0170, 129.2808
717.4991, 129.1450
717.9813, 128.9898
718.4634, 128.9514
718.9455, 129.0406
719.4276, 129.0784
719.9097, 128.8994
720.3918, 128.5801
720.8740, 128.1005
721.3561, 127.3562
721.8382, 127.0812
722.3203, 128.4020
722.8024, 129.8886
723.2845, 130.2359
723.7667, 128.1541
724.2488, 127.0320
724.7309, 127.2749
725.2130, 128.0342
725.6951, 128.3453
726.1772, 128.1831
726.6594, 127.9326
727.1415, 127.6268
727.6236, 127.3327
728.1057, 127.1695
728.5878, 127.0924
729.0699, 126.9847
729.5521, 126.8148
730.0342, 126.5942
730.5163, 126.1147
730.9984, 125.6290
731.4805, 125.5869
731.9626, 126.8487
732.4448, 127.6487
732.9269, 127.4632
733.4090, 126.6658
733.8911, 126.3247
734.3732, 126.5914
734.8553, 126.6820
735.3375, 126.2408
735.8196, 125.5506
736.3017, 125.4118
736.7838, 125.7425
737.2659, 126.0434
737.7480, 125.9995
738.2302, 125.8319
738.7123, 125.7245
739.1944, 125.6723
739.6765, 125.6346
740.1586, 125.5234
740.6407, 125.4930
741.1229, 125.7033
741.6050, 126.1343
742.0871, 126.2466
742.5692, 125.9006
743.0513, 125.5681
743.5334, 125.5506
744.0156, 125.7922
744.4977, 125.8215
744.9798, 125.6397
745.4619, 125.3464
745.9440, 124.7946
746.4261, 124.2947
746.9083, 124.3119
747.3904, 124.8937
747.8725, 125.4900
748.3546, 125.9141
748.8367, 126.2040
749.3188, 126.3924
749.8010, 126.5092
750.2831, 126.3744
750.7652, 125.8270
751.2473, 125.2722
751.7294, 125.0727
752.2115, 125.2242
752.6937, 125.2174
753.1758, 124.9915
753.6579, 124.8281
754.1400, 125.1832
754.6221, 125.7450
755.1042, 125.9476
755.5864, 125.5782
756.0685, 125.2799
756.5506, 125.6383
757.0327, 126.1173
757.5148, 126.1617
757.9969, 124.9999
758.4791, 124.5287
758.9612, 125.0299
759.4433, 125.9075
759.9254, 126.4490
760.4075, 126.6449
760.8896, 126.8032
761.3718, 126.9893
761.8539, 127.0873
762.3360, 126.8220
762.8181, 126.3690
763.3002, 126.1138
763.7823, 126.2854
764.2645, 126.4649
764.7466, 126.3997
765.2287, 126.2044
765.7108, 126.0483
766.1929, 125.8470
766.6750, 125.8641
767.1572, 126.2327
767.6393, 126.7483
768.1214, 127.0406
768.6035, 127.1000
769.0856, 127.0345
769.5677, 126.8231
770.0499, 126.5901
770.5320, 126.5124
771.0141, 126.5676
771.4962, 126.7008
771.9783, 127.0611
772.4604, 127.3094
772.9426, 127.0856
773.4247, 126.6283
773.9068, 126.5081
774.3889, 127.1529
774.8710, 127.6160
775.3531, 127.6919
775.8353, 127.5034
776.3174, 127.3842
776.7995, 127.3378
777.2816, 127.3303
777.7637, 127.3563
778.2458, 127.4091
778.7280, 127.5114
779.2101, 127.6368
779.6922, 127.6968
780.1743, 127.6451
780.6564, 127.5226
781.1385, 127.2117
781.6207, 126.8123
782.1028, 126.7846
782.5849, 127.4595
783.0670, 128.0026
783.5491, 128.1663
784.0313, 128.0392
784.5134, 127.9849
784.9955, 128.0035
785.4776, 127.9704
785.9597, 127.8297
786.4418, 127.5978
786.9240, 127.1548
787.4061, 126.6092
787.8882, 126.3721
788.3703, 126.9415
788.8524, 127.5963
789.3345, 128.0319
789.8167, 128.2435
790.2988, 128.3013
790.7809, 128.0947
791.2630, 127.9444
791.7451, 127.9337
792.2272, 128.0706
792.7094, 128.5217
793.1915, 129.2637
793.6736, 129.7754
794.1557, 129.5886
794.6378, 129.1044
795.1199, 128.7542
795.6021, 128.5455
796.0842, 128.4694
796.5663, 128.7514
797.0484, 128.9479
797.5305, 128.7676
798.0126, 128.2701
798.4948, 127.9811
798.9769, 127.9551
799.4590, 128.0113
799.9411, 128.0795
800.4232, 128.1705
800.9053, 128.3812
801.3875, 128.6898
801.8696, 128.8741
802.3517, 128.7334
802.8338, 128.4527
803.3159, 128.1151
803.7980, 127.7658
804.2802, 127.6372
804.7623, 128.0112
805.2444, 128.4044
805.7265, 128.6431
806.2086, 128.7409
806.6907, 128.8295
807.1729, 128.9101
807.6550, 128.9662
808.1371, 128.9758
808.6192, 128.9606
809.1013, 129.0363
809.5834, 129.1681
810.0656, 129.1548
810.5477, 128.5435
811.0298, 128.0343
811.5119, 128.2598
811.9940, 129.1197
812.4761, 129.7153
812.9583, 129.7517
813.4404, 129.7098
813.9225, 129.7083
814.4046, 129.7470
814.8867, 129.8226
815.3688, 129.9353
815.8510, 130.0772
816.3331, 130.3246
816.8152, 130.5502
817.2973, 130.4870
817.7794, 130.1957
818.2615, 129.9221
818.7437, 129.6874
819.2258, 129.5979
819.7079, 129.8175
820.1900, 130.2763
820.6721, 130.4662
821.1542, 130.2719
821.6364, 130.0592
822.1185, 129.9331
822.6006, 129.8842
823.0827, 129.8788
823.5648, 129.9169
824.0469, 129.9925
824.5291, 130.1037
825.0112, 130.2534
825.4933, 130.5058
825.9754, 130.8094
826.4575, 131.0017
826.9396, 130.9960
827.4218, 130.9081
827.9039, 130.7233
828.3860, 130.4896
828.8681, 130.3732
829.3502, 130.3818
829.8323, 130.4671
830.3145, 130.6585
830.7966, 130.8606
831.2787, 130.9160
831.7608, 130.8298
832.2429, 130.6175
832.7250, 129.8390
833.2072, 129.3871
833.6893, 130.1394
834.1714, 131.5719
834.6535, 132.2555
835.1356, 131.7089
835.6177, 131.1361
836.0999, 130.6573
836.5820, 130.3465
837.0641, 130.4741
837.5462, 130.9947
838.0283, 131.3747
838.5104, 131.3687
838.9926, 131.2899
839.4747, 131.5864
839.9568, 132.0336
840.4389, 132.2429
840.9210, 131.8550
841.4031, 131.4837
841.8853, 131.2012
842.3674, 131.0381
842.8495, 131.0778
843.3316, 131.3670
843.8137, 131.6458
844.2958, 131.9122
844.7780, 132.0511
845.2601, 131.6500
845.7422, 131.0073
846.2243, 130.9079
846.7064, 131.8088
847.1885, 132.6604
847.6707, 132.9445
848.1528, 132.8107
848.6349, 132.3934
849.1170, 131.2724
849.5991, 130.7233
850.0812, 130.9207
850.5634, 131.4554
851.0455, 131.9634
851.5276, 132.4281
852.0097, 132.6772
852.4918, 132.6675
852.9739, 132.6078
853.4561, 132.7020
853.9382, 132.8470
854.4203, 132.9143
854.9024, 132.8408
855.3845, 132.8291
855.8666, 133.1336
856.3488, 133.3116
856.8309, 132.8938
857.3130, 131.6726
857.7951, 131.5840
858.2772, 132.7746
858.7593, 134.1057
859.2415, 134.5972
859.7236, 134.5485
860.2057, 134.3819
860.6878, 134.1385
861.1699, 134.0137
861.6520, 134.1516
862.1342, 134.3960
862.6163, 134.7050
863.0984, 135.0821
863.5805, 135.2637
864.0626, 135.1543
864.5447, 135.1384
865.0269, 135.5352
865.5090, 136.1884
865.9911, 136.5243
866.4732, 136.5760
866.9553, 136.5697
867.4374, 136.3051
867.9196, 136.3241
868.4017, 137.3588
868.8838, 139.1962
869.3659, 140.1624
869.8480, 139.4397
870.3301, 139.0083
870.8123, 139.5517
871.2944, 140.7387
871.7765, 141.5007
872.2586, 141.8441
872.7407, 141.9200
873.2228, 141.5520
873.7050, 141.2150
874.1871, 141.5732
874.6692, 142.3210
875.1513, 142.7987
875.6334, 142.5307
876.1155, 142.2978
876.5977, 142.1776
877.0798, 142.2126
877.5619, 142.5640
878.0440, 143.2696
878.5261, 143.7412
879.0082, 143.8165
879.4904, 143.7513
879.9725, 143.9427
880.4546, 144.2184
880.9367, 144.2359
881.4188, 143.6978
881.9009, 143.3441
882.3831, 143.5782
882.8652, 144.0374
883.3473, 144.3555
883.8294, 144.5137
884.3115, 144.6098
884.7936, 144.6339
885.2758, 144.6504
885.7579, 144.5943
886.2400, 144.6077
886.7221, 145.1051
887.2042, 146.1606
887.6863, 147.1910
888.1685, 147.9283
888.6506, 148.4781
889.1327, 148.8217
889.6148, 148.8986
890.0969, 149.3492
890.5790, 150.2813
891.0612, 151.3133
891.5433, 152.1750
892.0254, 152.9519
892.5075, 153.9975
892.9896, 155.2849
893.4717, 156.5687
893.9539, 157.5119
894.4360, 158.5854
894.9181, 160.1137
895.4002, 162.0808
895.8823, 164.2503
896.3644, 166.9286
896.8466, 169.1764
897.3287, 170.5736
897.8108, 171.5442
898.2929, 173.3052
898.7750, 175.7529
899.2571, 178.2570
899.7393, 180.6033
900.2214, 182.8735
900.7035, 184.8887
901.1856, 186.9144
901.6677, 189.3526
902.1498, 192.8318
902.6320, 196.0118
903.1141, 198.7053
903.5962, 201.2135
904.0783, 203.8927
904.5604, 206.7474
905.0425, 209.5494
905.5247, 212.2561
906.0068, 214.9751
906.4889, 217.6861
906.9710, 220.5334
907.4531, 223.7985
907.9352, 227.8348
908.4174, 231.1800
908.8995, 233.1436
909.3816, 234.9887
909.8637, 237.5100
910.3458, 240.7347
910.8279, 243.4904
911.3101, 245.7639
911.7922, 248.2085
912.2743, 251.5906
912.7564, 255.1942
913.2385, 258.1833
913.7206, 260.6042
914.2028, 263.0558
914.6849, 265.4392
915.1670, 268.2102
915.6491, 271.4997
916.1312, 275.2706
916.6133, 279.4276
917.0955, 283.9943
917.5776, 288.7337
918.0597, 293.6107
918.5418, 298.6157
919.0239, 303.8847
919.5060, 309.2699
919.9882, 314.4028
920.4703, 318.3091
920.9524, 323.1985
921.4345, 329.9414
921.9166, 337.3218
922.3987, 343.7186
922.8809, 349.0599
923.3630, 354.9203
923.8451, 361.5492
924.3272, 368.4720
924.8093, 375.6430
925.2914, 382.5262
925.7736, 388.0078
926.2557, 391.6695
926.7378, 395.9099
927.2199, 402.0573
927.7020, 408.3248
928.1841, 413.9972
928.6663, 419.0519
929.1484, 423.0082
929.6305, 425.8816
930.1126, 428.0515
930.5947, 430.0036
931.0768, 431.2744
931.5590, 430.9927
932.0411, 429.4160
932.5232, 427.6644
933.0053, 427.3172
933.4874, 425.2696
933.9695, 420.4557
934.4517, 413.6753
934.9338, 406.5812
935.4159, 399.2296
935.8980, 391.6818
936.3801, 384.1826
936.8622, 376.3131
937.3444, 367.6734
937.8265, 358.4845
938.3086, 348.9090
938.7907, 338.8135
939.2728, 328.8593
939.7549, 319.1108
940.2371, 309.6875
940.7192, 300.4007
941.2013, 291.2718
941.6834, 282.9394
942.1655, 275.4789
942.6476, 268.2635
943.1298, 260.5698
943.6119, 253.0927
944.0940, 246.5963
944.5761, 241.0501
945.0582, 235.7152
945.5403, 230.2012
946.0225, 225.1684
946.5046, 221.0299
946.9867, 217.5069
947.4688, 213.1660
947.9509, 208.1294
948.4330, 203.4805
948.9152, 199.8535
949.3973, 196.5776
949.8794, 193.2568
950.3615, 189.7707
950.8436, 185.8909
951.3257, 181.0041
951.8079, 176.5910
952.2900, 172.8298
952.7721, 169.4355
953.2542, 166.0671
953.7363, 162.7485
954.2184, 159.6257
954.7006, 156.6944
955.1827, 154.1066
955.6648, 152.0439
956.1469, 150.2921
956.6290, 148.7479
957.1111, 147.4226
957.5933, 145.9986
958.0754, 144.3991
958.5575, 142.8295
959.0396, 141.4079
959.5217, 140.1003
960.0038, 138.7006
960.4860, 137.2579
960.9681, 136.0228
961.4502, 135.2879
961.9323, 134.6503
962.4144, 133.9272
962.8965, 133.1258
963.3787, 132.2613
963.8608, 131.1979
964.3429, 130.4492
964.8250, 130.1688
965.3071, 129.9799
965.7892, 129.2810
966.2714, 128.2852
966.7535, 127.5221
967.2356, 127.1098
967.7177, 126.7761
968.1998, 126.3904
968.6819, 126.0230
969.1641, 125.7609
969.6462, 125.6187
970.1283, 125.2845
970.6104, 124.7197
971.0925, 124.1563
971.5746, 123.7888
972.0568, 123.4700
972.5389, 122.7400
973.0210, 121.7936
973.5031, 121.2966
973.9852, 122.2051
974.4673, 122.7788
974.9495, 122.2686
975.4316, 121.2737
975.9137, 120.8601
976.3958, 121.0714
976.8779, 121.0492
977.3600, 120.5850
977.8422, 120.1507
978.3243, 120.2601
978.8064, 120.6952
979.2885, 121.3156
979.7706, 122.2574
980.2527, 122.5082
980.7349, 121.4486
981.2170, 120.3109
981.6991, 119.7488
982.1812, 119.6914
982.6633, 119.6693
983.1454, 119.6792
983.6276, 119.6976
984.1097, 119.7667
984.5918, 119.7843
985.0739, 119.5711
985.5560, 119.2476
986.0381, 119.1664
986.5203, 119.5523
987.0024, 119.7165
987.4845, 119.4821
987.9666, 119.1754
988.4487, 119.4785
988.9308, 120.0905
989.4130, 119.9770
989.8951, 118.8428
990.3772, 117.9599
990.8593, 118.3113
991.3414, 119.0048
991.8235, 119.4324
992.3057, 119.5761
992.7878, 119.5869
993.2699, 119.4614
993.7520, 119.2254
994.2341, 118.8211
994.7162, 118.3661
995.1984, 117.9940
995.6805, 117.7387
996.1626, 117.7038
996.6447, 118.0604
997.1268, 118.4877
997.6089, 119.0810
998.0911, 119.5784
998.5732, 119.5017
999.0553, 118.8582
999.5374, 118.4605
1000.020, 118.4265
1000.502, 118.5285
1000.984, 118.7240
1001.466, 118.8450
1001.948, 118.6412
1002.430, 118.0445
1002.912, 117.7488
1003.394, 118.0482
1003.876, 118.1329
1004.359, 117.4869
1004.841, 116.4981
1005.323, 116.5354
1005.805, 117.3516
1006.287, 117.9346
1006.769, 117.6559
1007.251, 117.2846
1007.733, 117.1733
1008.216, 117.2316
1008.698, 117.3890
1009.180, 117.8125
1009.662, 117.5608
1010.144, 116.4414
1010.626, 115.3656
1011.108, 115.4430
1011.590, 116.0615
1012.072, 116.3227
1012.555, 116.1749
1013.037, 115.9749
1013.519, 115.7384
1014.001, 115.6106
1014.483, 115.7410
1014.965, 115.9710
1015.447, 115.6396
1015.929, 114.8156
1016.411, 114.2449
1016.894, 114.1953
1017.376, 114.4211
1017.858, 114.9856
1018.340, 115.5726
1018.822, 115.7563
1019.304, 115.2964
1019.786, 114.8971
1020.268, 114.5212
1020.751, 114.3074
1021.233, 114.4487
1021.715, 114.8164
1022.197, 115.1301
1022.679, 115.3660
1023.161, 115.4208
1023.643, 115.0548
1024.125, 114.7046
1024.607, 114.5650
1025.090, 114.5497
1025.572, 114.4536
1026.054, 114.2593
1026.536, 114.2813
1027.018, 114.6323
1027.500, 114.9561
1027.982, 114.5950
1028.464, 114.1455
1028.947, 114.4991
1029.429, 116.1047
1029.911, 116.7156
1030.393, 115.8007
1030.875, 114.6502
1031.357, 113.8057
1031.839, 113.2720
1032.321, 113.1902
1032.803, 113.4780
1033.286, 113.7803
1033.768, 113.9263
1034.250, 114.0420
1034.732, 114.2001
1035.214, 114.3519
1035.696, 114.4019
1036.178, 114.3026
1036.660, 114.4033
1037.143, 114.7645
1037.625, 115.0778
1038.107, 115.0448
1038.589, 114.8106
1039.071, 114.4335
1039.553, 113.9487
1040.035, 113.8211
1040.517, 114.3931
1041.000, 114.9601
1041.482, 115.3482
1041.964, 115.5874
1042.446, 115.6888
1042.928, 115.6853
1043.410, 115.7097
1043.892, 115.8170
1044.374, 115.9142
1044.856, 115.9148
1045.339, 115.9016
1045.821, 115.9722
1046.303, 116.1598
1046.785, 116.1163
1047.267, 115.7960
1047.749, 115.6468
1048.231, 116.1884
1048.713, 116.9152
1049.195, 117.1770
1049.677, 117.0797
1050.160, 116.9337
1050.642, 116.8157
1051.124, 116.6546
1051.606, 116.4013
1052.088, 116.1618
1052.570, 116.1563
1053.052, 116.2948
1053.534, 116.1245
1054.017, 115.5768
1054.499, 115.2721
1054.981, 115.8904
1055.463, 116.6090
1055.945, 116.8847
1056.427, 116.7934
1056.909, 116.7580
1057.391, 116.7806
1057.874, 116.8534
1058.356, 116.9936
1058.838, 117.1435
1059.320, 117.1277
1059.802, 117.1190
1060.284, 117.3998
1060.766, 118.2933
1061.248, 118.8143
1061.730, 118.7474
1062.213, 118.6696
1062.695, 119.0515
1063.177, 119.7496
1063.659, 120.3299
1064.141, 120.7728
1064.623, 120.9816
1065.105, 120.4942
1065.587, 120.2342
1066.070, 120.8413
1066.552, 121.7451
1067.034, 122.0376
1067.516, 121.6911
1067.998, 121.5659
1068.480, 121.7637
1068.962, 122.1650
1069.444, 122.9430
1069.927, 123.6696
1070.409, 123.8935
1070.891, 123.5771
1071.373, 123.3559
1071.855, 123.2424
1072.337, 123.2674
1072.819, 123.5125
1073.301, 123.7846
1073.783, 123.6539
1074.266, 123.3024
1074.748, 123.1162
1075.230, 123.2380
1075.712, 123.4254
1076.194, 123.8344
1076.676, 124.0438
1077.158, 123.6747
1077.640, 122.8164
1078.122, 122.4886
1078.604, 122.6194
1079.087, 122.5977
1079.569, 121.9188
1080.051, 121.1525
1080.533, 120.5061
1081.015, 120.0588
1081.497, 119.9691
1081.979, 120.3907
1082.461, 120.4074
1082.944, 119.9076
1083.426, 119.3061
1083.908, 119.0214
1084.390, 118.8508
1084.872, 118.5406
1085.354, 118.0885
1085.836, 117.6930
1086.318, 117.4312
1086.801, 117.1088
1087.283, 116.6263
1087.765, 116.1463
1088.247, 116.0735
1088.729, 116.2339
1089.211, 116.1381
1089.693, 115.6199
1090.175, 115.1758
1090.657, 115.0967
1091.140, 115.0740
1091.622, 114.9480
1092.104, 114.7289
1092.586, 114.4684
1093.068, 114.1754
1093.550, 113.9774
1094.032, 114.0310
1094.514, 114.0469
1094.997, 113.7266
1095.479, 113.2848
1095.961, 113.0063
1096.443, 112.9227
1096.925, 112.9491
1097.407, 113.1072
1097.889, 113.2316
1098.371, 113.1623
1098.854, 113.0052
1099.336, 112.8835
1099.818, 112.7907
1100.300, 112.6873
1100.782, 112.5028
1101.264, 112.4263
1101.746, 112.5238
1102.228, 112.6527
1102.710, 112.6185
1103.193, 112.4672
1103.675, 112.2095
1104.157, 111.8515
1104.639, 111.8405
1105.121, 113.0555
1105.603, 113.8455
1106.085, 113.4440
1106.567, 112.2644
1107.049, 111.4698
1107.531, 111.0507
1108.014, 111.0695
1108.496, 111.6784
1108.978, 112.2259
1109.460, 112.1207
1109.942, 111.8455
1110.424, 111.8494
1110.906, 112.1553
1111.388, 112.2520
1111.871, 112.1185
1112.353, 112.0883
1112.835, 112.4931
1113.317, 112.8750
1113.799, 112.5870
1114.281, 111.9767
1114.763, 111.6188
1115.245, 111.7147
1115.728, 111.8787
1116.210, 112.1447
1116.692, 112.3690
1117.174, 112.4259
1117.656, 112.3612
1118.138, 112.2100
1118.620, 112.0027
1119.102, 111.8517
1119.584, 111.7101
1120.067, 111.7902
1120.549, 112.2801
1121.031, 112.7547
1121.513, 112.5177
1121.995, 111.7859
1122.477, 111.3059
1122.959, 111.1426
1123.441, 111.0749
1123.924, 110.9466
1124.406, 110.9471
1124.888, 111.2487
1125.370, 111.6831
1125.852, 111.7389
1126.334, 111.4527
1126.816, 111.2080
1127.298, 111.0759
1127.781, 111.1023
1128.263, 111.6770
1128.745, 112.1461
1129.227, 111.7966
1129.709, 110.6840
1130.191, 110.1346
1130.673, 110.1662
1131.155, 110.4464
1131.637, 110.9667
1132.120, 111.4457
1132.602, 111.5304
1133.084, 111.4090
1133.566, 111.3390
1134.048, 111.3666
1134.530, 111.3939
1135.012, 111.4203
1135.494, 111.4449
1135.976, 111.4576
1136.458, 111.4750
1136.941, 111.5363
1137.423, 111.6235
1137.905, 111.6916
1138.387, 111.9384
1138.869, 111.7559
1139.351, 110.8849
1139.833, 110.0827
1140.315, 110.2557
1140.798, 111.0216
1141.280, 111.5648
1141.762, 111.8465
1142.244, 111.8745
1142.726, 111.2329
1143.208, 110.9357
1143.690, 111.4370
1144.172, 112.0890
1144.655, 111.6908
1145.137, 110.5667
1145.619, 110.1102
1146.101, 110.5041
1146.583, 110.7783
1147.065, 110.0618
1147.547, 109.4881
1148.029, 109.7182
1148.511, 110.3962
1148.994, 110.4691
1149.476, 109.9978
1149.958, 109.4768
1150.440, 108.9622
1150.922, 108.6884
1151.404, 109.0922
1151.886, 109.5715
1152.368, 109.6007
1152.851, 109.2442
1153.333, 109.2688
1153.815, 109.6763
1154.297, 109.7572
1154.779, 109.0713
1155.261, 108.3554
1155.743, 108.3112
1156.225, 108.6062
1156.708, 108.9031
1157.190, 109.1958
1157.672, 109.3609
1158.154, 109.3977
1158.636, 109.3136
1159.118, 109.0420
1159.600, 108.7350
1160.082, 108.5088
1160.564, 108.3863
1161.047, 108.4302
1161.529, 108.8317
1162.011, 108.9336
1162.493, 108.6794
1162.975, 108.3577
1163.457, 108.1461
1163.939, 108.0310
1164.421, 108.0941
1164.903, 108.2395
1165.385, 108.1783
1165.868, 107.6980
1166.350, 107.2517
1166.832, 106.8229
1167.314, 106.5762
1167.796, 106.8089
1168.278, 107.2862
1168.760, 107.6268
1169.242, 107.8168
1169.725, 107.9228
1170.207, 107.9328
1170.689, 107.8839
1171.171, 107.7139
1171.653, 107.6191
1172.135, 108.1382
1172.617, 108.8763
1173.099, 108.8000
1173.582, 107.8158
1174.064, 107.0504
1174.546, 107.2381
1175.028, 107.2621
1175.510, 106.7363
1175.992, 106.0210
1176.474, 105.8945
1176.956, 106.1793
1177.438, 106.3523
1177.921, 106.2929
1178.403, 106.3275
1178.885, 106.7973
1179.367, 107.1418
1179.849, 107.0939
1180.331, 106.7962
1180.813, 106.7611
1181.295, 106.8728
1181.778, 106.6213
1182.260, 105.7029
1182.742, 105.0190
1183.224, 105.1357
1183.706, 105.4596
1184.188, 105.7149
1184.670, 105.8904
1185.152, 105.8217
1185.635, 105.5786
1186.117, 105.5654
1186.599, 106.2078
1187.081, 106.5316
1187.563, 105.5381
1188.045, 104.4922
1188.527, 104.4497
1189.009, 105.3037
1189.491, 105.6005
1189.974, 105.4103
1190.456, 105.2474
1190.938, 105.4766
1191.420, 105.6469
1191.902, 105.3727
1192.384, 105.0534
1192.866, 105.1254
1193.348, 105.6006
1193.830, 105.9041
1194.313, 106.0350
1194.795, 106.0013
1195.277, 105.5921
1195.759, 105.2592
1196.241, 105.4919
1196.723, 105.7950
1197.205, 105.4088
1197.687, 104.3004
1198.169, 103.8682
1198.652, 104.1583
1199.134, 104.6306
1199.616, 105.2004
1200.098, 105.5449
1200.580, 105.2810
1201.062, 104.7439
1201.544, 104.4730
1202.026, 104.4744
1202.509, 104.5018
1202.991, 104.5338
1203.473, 104.6777
1203.955, 105.2801
1204.437, 105.7536
1204.919, 105.6495
1205.401, 105.1481
1205.883, 104.5706
1206.365, 103.9051
1206.848, 103.5089
1207.330, 103.4331
1207.812, 103.5394
1208.294, 103.8100
1208.776, 104.1421
1209.258, 104.5134
1209.740, 104.8808
1210.222, 105.1543
1210.705, 105.3383
1211.187, 105.1791
1211.669, 104.5839
1212.151, 104.1099
1212.633, 104.4500
1213.115, 104.8663
1213.597, 104.6902
1214.079, 104.1341
1214.562, 103.9998
1215.044, 104.2788
1215.526, 104.6536
1216.008, 105.1209
1216.490, 105.2937
1216.972, 104.5148
1217.454, 103.6279
1217.936, 103.2907
1218.418, 103.4165
1218.901, 103.6208
1219.383, 103.9004
1219.865, 104.1732
1220.347, 104.4105
1220.829, 104.6539
1221.311, 105.0982
1221.793, 105.4020
1222.275, 105.2084
1222.757, 104.6312
1223.240, 104.6064
1223.722, 105.0763
1224.204, 105.2535
1224.686, 104.7770
1225.168, 104.2441
1225.650, 103.9380
1226.132, 103.8553
1226.614, 104.0664
1227.096, 104.5024
1227.579, 104.4512
1228.061, 103.9775
1228.543, 103.6515
1229.025, 103.7379
1229.507, 103.9105
1229.989, 104.1081
1230.471, 104.1937
1230.953, 104.0465
1231.436, 103.6921
1231.918, 103.2473
1232.400, 102.7767
1232.882, 102.7743
1233.364, 103.8197
1233.846, 104.6565
1234.328, 104.4339
1234.810, 103.9871
1235.292, 103.9481
1235.775, 104.2441
1236.257, 104.2448
1236.739, 104.0041
1237.221, 103.8080
1237.703, 103.8007
1238.185, 103.8277
1238.667, 103.8396
1239.149, 103.8559
1239.632, 103.8516
1240.114, 103.8586
1240.596, 104.2340
1241.078, 104.8328
1241.560, 105.0522
1242.042, 104.1670
1242.524, 103.5295
1243.006, 103.5181
1243.489, 103.7748
1243.971, 104.1140
1244.453, 104.4900
1244.935, 104.7192
1245.417, 104.8073
1245.899, 104.7690
1246.381, 104.4196
1246.863, 104.2355
1247.345, 104.3260
1247.828, 104.5009
1248.310, 104.6622
1248.792, 104.7643
1249.274, 104.5722
1249.756, 104.2008
1250.238, 104.0398
1250.720, 104.5584
1251.202, 104.7274
1251.684, 104.2667
1252.167, 103.9376
1252.649, 104.7579
1253.131, 105.9942
1253.613, 106.0684
1254.095, 105.2970
1254.577, 104.7876
1255.059, 105.0464
1255.541, 105.1264
1256.023, 104.9356
1256.506, 104.7145
1256.988, 104.7588
1257.470, 104.8436
1257.952, 104.5438
1258.434, 104.0194
1258.916, 103.7982
1259.398, 104.1013
1259.880, 104.1577
1260.363, 103.8603
1260.845, 103.7056
1261.327, 104.4655
1261.809, 105.2826
1262.291, 105.0945
1262.773, 104.2741
1263.255, 103.8911
1263.737, 104.0967
1264.219, 104.1796
1264.702, 104.0833
1265.184, 104.0174
1265.666, 104.2301
1266.148, 104.4536
1266.630, 104.4203
1267.112, 104.2682
1267.594, 104.3079
1268.076, 104.5572
1268.559, 104.7832
1269.041, 104.9677
1269.523, 104.9030
1270.005, 104.0153
1270.487, 103.3016
1270.969, 103.6498
1271.451, 104.3516
1271.933, 104.4066
1272.416, 103.8745
1272.898, 103.4685
1273.380, 103.2505
1273.862, 103.3683
1274.344, 104.4117
1274.826, 105.1619
1275.308, 105.1429
1275.790, 104.7247
1276.272, 104.1779
1276.755, 103.6320
1277.237, 103.7074
1277.719, 104.3415
1278.201, 104.8594
1278.683, 104.9984
1279.165, 104.8754
1279.647, 104.3557
1280.129, 103.9078
1280.611, 104.2558
1281.094, 104.9730
1281.576, 105.0723
1282.058, 104.6481
1282.540, 104.4156
1283.022, 104.7570
1283.504, 104.9076
1283.986, 104.7545
1284.468, 104.5306
1284.950, 104.4189
1285.433, 104.4098
1285.915, 104.5251
1286.397, 104.7373
1286.879, 104.9610
1287.361, 105.2258
1287.843, 105.3439
1288.325, 105.2887
1288.807, 105.1683
1289.290, 104.8954
1289.772, 104.7647
1290.254, 105.2556
1290.736, 106.0243
1291.218, 106.2365
1291.700, 105.8420
1292.182, 105.5698
1292.664, 105.4679
1293.146, 105.3550
1293.629, 104.8859
1294.111, 104.6102
1294.593, 105.1248
1295.075, 105.8274
1295.557, 105.8730
1296.039, 105.3777
1296.521, 105.4047
1297.003, 105.9293
1297.486, 106.2496
1297.968, 105.7537
1298.450, 105.3413
1298.932, 105.2516
1299.414, 105.3173
1299.896, 105.3562
1300.378, 105.4068
1300.860, 105.6148
1301.343, 105.9468
1301.825, 106.2402
##END=



