##NAMES=Henritermierite
##RRUFFID=R060253
##IDEAL CHEMISTRY=Ca_3_Mn^3+^_2_(SiO_4_)_2_(OH)_4_
##LOCALITY=N'Chwaning mine, Kuruman, Kakahari mining area, Cape Province, South Africa
##OWNER=RRUFF
##SOURCE=William W. Pinch
##DESCRIPTION=Reddish-brown granular coating on darker andradite
##STATUS=The identification of this mineral is confirmed by single-crystal X-ray diffraction and chemical analysis.
##URL=rruff.info/R060253
##MEASURED CHEMISTRY=Ca_3.00_(Mn^3+^_1.97_Al_0.03_)_Î£=2_(Si_1.00_O_4_)_2_(OH)_4_
142.6364, 91.26424
143.1185, 94.98211
143.6006, 98.55906
144.0827, 102.9271
144.5648, 108.3212
145.0469, 114.9379
145.5291, 121.8486
146.0112, 128.9682
146.4933, 136.5018
146.9754, 144.8732
147.4575, 153.8374
147.9396, 163.8252
148.4218, 175.2407
148.9039, 188.7046
149.3860, 201.9539
149.8681, 216.7338
150.3502, 230.9841
150.8323, 240.5609
151.3145, 247.4114
151.7966, 247.9488
152.2787, 240.4830
152.7608, 219.0658
153.2429, 198.8228
153.7250, 179.7853
154.2072, 162.4618
154.6893, 148.2773
155.1714, 137.8792
155.6535, 129.2933
156.1356, 122.5943
156.6177, 117.9807
157.0999, 114.8980
157.5820, 113.8613
158.0641, 114.4369
158.5462, 114.8738
159.0283, 114.5861
159.5104, 114.0932
159.9926, 113.7333
160.4747, 113.7008
160.9568, 113.6937
161.4389, 113.7617
161.9210, 113.8557
162.4031, 113.5873
162.8853, 112.2881
163.3674, 110.7759
163.8495, 109.7986
164.3316, 109.9425
164.8137, 110.3719
165.2958, 110.5744
165.7780, 110.5538
166.2601, 110.8775
166.7422, 111.7027
167.2243, 113.0784
167.7064, 115.0494
168.1885, 118.0310
168.6707, 121.3420
169.1528, 124.7685
169.6349, 128.3636
170.1170, 131.2691
170.5991, 133.2107
171.0812, 134.0921
171.5634, 133.7240
172.0455, 131.8089
172.5276, 128.7540
173.0097, 124.7310
173.4918, 119.6017
173.9739, 114.3099
174.4561, 109.2496
174.9382, 104.5140
175.4203, 100.3190
175.9024, 96.77848
176.3845, 93.86799
176.8666, 91.72257
177.3488, 90.47639
177.8309, 89.48807
178.3130, 87.92590
178.7951, 85.96384
179.2772, 84.31211
179.7593, 83.38374
180.2415, 83.02980
180.7236, 83.00407
181.2057, 83.34778
181.6878, 83.82890
182.1699, 84.11048
182.6520, 84.22312
183.1342, 84.41035
183.6163, 84.80260
184.0984, 85.38862
184.5805, 86.16256
185.0626, 87.20186
185.5447, 88.30607
186.0269, 89.07271
186.5090, 89.51472
186.9911, 90.04311
187.4732, 91.13464
187.9553, 92.63687
188.4374, 93.73674
188.9196, 94.21512
189.4017, 94.32809
189.8838, 94.59110
190.3659, 95.00945
190.8480, 95.55355
191.3301, 96.36821
191.8123, 97.40343
192.2944, 98.06362
192.7765, 98.21238
193.2586, 97.93262
193.7407, 97.32960
194.2228, 96.34938
194.7050, 95.44041
195.1871, 95.08698
195.6692, 95.28246
196.1513, 95.35799
196.6334, 95.21908
197.1155, 94.84844
197.5977, 94.01159
198.0798, 92.57552
198.5619, 91.21507
199.0440, 90.64878
199.5261, 90.91746
200.0082, 91.26761
200.4904, 91.62244
200.9725, 91.93174
201.4546, 91.80553
201.9367, 91.12852
202.4188, 90.33762
202.9009, 90.00301
203.3831, 90.24730
203.8652, 90.05433
204.3473, 88.97367
204.8294, 87.13001
205.3115, 86.00648
205.7936, 85.77263
206.2758, 85.89536
206.7579, 85.86597
207.2400, 85.69699
207.7221, 85.30582
208.2042, 84.52000
208.6863, 83.35738
209.1685, 82.87413
209.6506, 83.30354
210.1327, 84.00423
210.6148, 84.14319
211.0969, 83.45512
211.5790, 83.12393
212.0612, 83.59708
212.5433, 84.89440
213.0254, 85.73799
213.5075, 85.92307
213.9896, 85.93277
214.4717, 86.44804
214.9538, 87.79430
215.4360, 88.75151
215.9181, 88.87943
216.4002, 88.10336
216.8823, 87.62314
217.3644, 87.41621
217.8465, 87.52869
218.3287, 88.13440
218.8108, 89.60368
219.2929, 90.70090
219.7750, 90.91561
220.2571, 90.06252
220.7392, 90.07841
221.2214, 91.33681
221.7035, 93.08540
222.1856, 94.29684
222.6677, 94.49332
223.1498, 95.16248
223.6319, 96.86250
224.1141, 99.81169
224.5962, 102.1570
225.0783, 103.5994
225.5604, 104.6760
226.0425, 106.1644
226.5246, 108.3697
227.0068, 110.3655
227.4889, 111.7483
227.9710, 112.3743
228.4531, 113.5022
228.9352, 115.3345
229.4173, 117.4966
229.8995, 119.4661
230.3816, 121.2143
230.8637, 122.8521
231.3458, 124.2543
231.8279, 125.2932
232.3100, 127.1300
232.7922, 130.3108
233.2743, 133.8344
233.7564, 136.4039
234.2385, 137.5415
234.7206, 138.5273
235.2027, 139.6255
235.6849, 140.8077
236.1670, 142.2876
236.6491, 144.0828
237.1312, 146.1613
237.6133, 148.4335
238.0954, 150.7132
238.5776, 153.5667
239.0597, 157.2778
239.5418, 161.9522
240.0239, 166.4670
240.5060, 170.6346
240.9881, 174.7968
241.4703, 179.4175
241.9524, 184.7495
242.4345, 190.0606
242.9166, 195.0730
243.3987, 199.7275
243.8808, 204.6850
244.3630, 210.0039
244.8451, 215.6143
245.3272, 221.5157
245.8093, 228.1239
246.2914, 234.2821
246.7735, 239.6929
247.2557, 244.3067
247.7378, 248.9346
248.2199, 253.9401
248.7020, 258.6466
249.1841, 262.3047
249.6662, 264.7414
250.1484, 266.4571
250.6305, 267.5577
251.1126, 268.0383
251.5947, 267.7742
252.0768, 266.6467
252.5589, 264.9029
253.0411, 262.6892
253.5232, 259.6901
254.0053, 256.9239
254.4874, 254.4333
254.9695, 252.2004
255.4516, 251.1237
255.9338, 251.5996
256.4159, 252.7412
256.8980, 253.6436
257.3801, 254.0234
257.8622, 254.8973
258.3444, 256.5699
258.8265, 259.0143
259.3086, 261.3360
259.7907, 263.5216
260.2728, 265.5495
260.7549, 267.3988
261.2371, 269.1742
261.7192, 270.5699
262.2013, 271.7308
262.6834, 272.5609
263.1655, 271.9599
263.6476, 269.7605
264.1298, 266.3909
264.6119, 262.0374
265.0940, 256.6270
265.5761, 250.5695
266.0582, 243.8647
266.5403, 236.6059
267.0225, 228.9946
267.5046, 220.8551
267.9867, 212.8264
268.4688, 205.3775
268.9509, 198.4710
269.4330, 191.9837
269.9152, 185.8461
270.3973, 180.1039
270.8794, 175.2174
271.3615, 171.3046
271.8436, 167.9311
272.3257, 164.8948
272.8079, 162.1650
273.2900, 159.8847
273.7721, 158.0889
274.2542, 156.7177
274.7363, 155.5312
275.2184, 154.4787
275.7006, 153.8176
276.1827, 153.8391
276.6648, 154.6029
277.1469, 155.2778
277.6290, 155.7491
278.1111, 156.1663
278.5933, 157.0078
279.0754, 158.4058
279.5575, 159.4866
280.0396, 159.5798
280.5217, 158.6765
281.0038, 158.2329
281.4860, 158.5343
281.9681, 158.9126
282.4502, 158.1218
282.9323, 156.1084
283.4144, 153.6830
283.8965, 151.1808
284.3787, 148.6142
284.8608, 145.8474
285.3429, 142.8573
285.8250, 139.7290
286.3071, 136.4494
286.7892, 133.0287
287.2714, 129.9156
287.7535, 127.4502
288.2356, 125.4897
288.7177, 123.2784
289.1998, 120.7178
289.6819, 118.3058
290.1641, 116.8240
290.6462, 116.1554
291.1283, 115.3474
291.6104, 113.9058
292.0925, 112.0798
292.5746, 110.5705
293.0568, 109.3646
293.5389, 108.5129
294.0210, 108.2106
294.5031, 108.3522
294.9852, 108.5248
295.4673, 108.5138
295.9495, 108.4996
296.4316, 108.8727
296.9137, 109.6219
297.3958, 110.4979
297.8779, 111.4405
298.3600, 112.3485
298.8422, 112.9529
299.3243, 112.9975
299.8064, 112.9167
300.2885, 113.2444
300.7706, 113.9714
301.2527, 115.0684
301.7349, 116.8296
302.2170, 118.8863
302.6991, 120.5606
303.1812, 121.6581
303.6633, 122.4682
304.1454, 123.2561
304.6276, 124.0094
305.1097, 124.6989
305.5918, 125.2756
306.0739, 125.7854
306.5560, 126.2007
307.0381, 126.4178
307.5203, 126.8636
308.0024, 128.1347
308.4845, 129.9247
308.9666, 131.5155
309.4487, 132.2647
309.9308, 132.8246
310.4130, 133.7404
310.8951, 135.0931
311.3772, 136.6404
311.8593, 138.2077
312.3414, 139.8564
312.8235, 141.7020
313.3057, 144.2228
313.7878, 146.6485
314.2699, 148.4127
314.7520, 149.4480
315.2341, 150.4888
315.7162, 152.0843
316.1984, 153.7947
316.6805, 155.1089
317.1626, 155.8422
317.6447, 156.1892
318.1268, 156.3811
318.6089, 156.3837
319.0911, 155.5814
319.5732, 152.9895
320.0553, 149.9206
320.5374, 147.4143
321.0195, 146.1647
321.5016, 144.9684
321.9838, 143.3794
322.4659, 141.5514
322.9480, 140.2346
323.4301, 139.8574
323.9122, 139.8270
324.3943, 139.8512
324.8765, 140.0799
325.3586, 140.0977
325.8407, 139.5542
326.3228, 138.7542
326.8049, 138.4741
327.2870, 138.7986
327.7692, 139.6196
328.2513, 141.0063
328.7334, 143.3843
329.2155, 145.3082
329.6976, 146.5178
330.1797, 147.3640
330.6619, 148.3655
331.1440, 149.5372
331.6261, 150.8478
332.1082, 152.2384
332.5903, 153.6218
333.0724, 155.5757
333.5546, 158.5672
334.0367, 161.7107
334.5188, 163.9704
335.0009, 164.9823
335.4830, 165.9698
335.9651, 167.1376
336.4473, 168.4837
336.9294, 169.9098
337.4115, 171.5475
337.8936, 173.0045
338.3757, 173.8958
338.8578, 174.1237
339.3399, 174.3151
339.8221, 174.5306
340.3042, 174.7797
340.7863, 175.1596
341.2684, 175.7515
341.7505, 176.1111
342.2326, 175.9880
342.7148, 175.3853
343.1969, 174.3681
343.6790, 172.8712
344.1611, 171.1125
344.6432, 169.4708
345.1253, 167.9427
345.6075, 166.4387
346.0896, 165.2185
346.5717, 164.0415
347.0538, 161.7808
347.5359, 158.2797
348.0180, 154.3831
348.5002, 150.8810
348.9823, 147.7654
349.4644, 145.0272
349.9465, 142.9475
350.4286, 141.1039
350.9107, 138.5027
351.3929, 135.1916
351.8750, 132.1801
352.3571, 130.4507
352.8392, 129.5802
353.3213, 128.8158
353.8034, 128.0073
354.2856, 127.1738
354.7677, 126.1797
355.2498, 125.1207
355.7319, 124.3628
356.2140, 124.2284
356.6961, 124.4555
357.1783, 124.7971
357.6604, 125.2277
358.1425, 125.7081
358.6246, 126.2821
359.1067, 126.8845
359.5888, 127.3960
360.0710, 127.4734
360.5531, 127.6617
361.0352, 128.2788
361.5173, 129.3696
361.9994, 130.7272
362.4815, 132.6750
362.9637, 134.6972
363.4458, 136.2409
363.9279, 136.3376
364.4100, 136.7653
364.8921, 138.2330
365.3742, 140.6741
365.8564, 142.9403
366.3385, 144.8068
366.8206, 146.4678
367.3027, 148.0405
367.7848, 149.0585
368.2669, 150.5801
368.7491, 152.9882
369.2312, 155.9541
369.7133, 158.4597
370.1954, 159.8440
370.6775, 161.5030
371.1596, 164.0750
371.6418, 168.1882
372.1239, 171.4063
372.6060, 173.1720
373.0881, 174.4122
373.5702, 176.6117
374.0523, 180.4287
374.5345, 183.7028
375.0166, 185.7806
375.4987, 186.6818
375.9808, 187.6340
376.4629, 188.7874
376.9450, 189.6716
377.4272, 189.7735
377.9093, 189.0041
378.3914, 188.2672
378.8735, 187.8323
379.3556, 187.4355
379.8377, 186.1011
380.3199, 183.7471
380.8020, 181.5258
381.2841, 180.2644
381.7662, 179.8149
382.2483, 179.3786
382.7304, 178.8077
383.2126, 178.4875
383.6947, 179.2108
384.1768, 180.7728
384.6589, 182.1206
385.1410, 182.6618
385.6231, 182.7346
386.1053, 182.9359
386.5874, 183.2787
387.0695, 183.5273
387.5516, 183.6422
388.0337, 183.5015
388.5158, 182.8909
388.9980, 181.5992
389.4801, 179.9709
389.9622, 178.2659
390.4443, 176.4781
390.9264, 174.5359
391.4085, 172.5736
391.8907, 170.3587
392.3728, 167.5829
392.8549, 163.9414
393.3370, 160.4909
393.8191, 157.9079
394.3012, 155.8088
394.7834, 153.5465
395.2655, 150.4803
395.7476, 147.6135
396.2297, 145.4077
396.7118, 143.9675
397.1939, 142.5405
397.6761, 140.6355
398.1582, 138.8884
398.6403, 137.8302
399.1224, 138.1574
399.6045, 138.4072
400.0866, 138.3432
400.5688, 138.0544
401.0509, 138.0779
401.5330, 138.6385
402.0151, 139.2409
402.4972, 139.6000
402.9793, 139.4523
403.4615, 139.7865
403.9436, 140.7815
404.4257, 142.1029
404.9078, 143.1330
405.3899, 143.7889
405.8720, 144.4618
406.3542, 145.0733
406.8363, 145.7061
407.3184, 147.6154
407.8005, 151.0510
408.2826, 154.7515
408.7647, 157.3828
409.2469, 159.0257
409.7290, 160.9040
410.2111, 163.2782
410.6932, 166.0077
411.1753, 168.7829
411.6574, 171.6084
412.1396, 174.7796
412.6217, 178.6511
413.1038, 182.9214
413.5859, 187.0752
414.0680, 191.0751
414.5501, 194.9918
415.0323, 198.9957
415.5144, 202.9871
415.9965, 206.8682
416.4786, 210.2053
416.9607, 213.6406
417.4428, 217.9153
417.9250, 222.8954
418.4071, 227.6965
418.8892, 232.0970
419.3713, 235.9334
419.8534, 238.9131
420.3355, 240.3456
420.8177, 242.0136
421.2998, 244.8853
421.7819, 248.4118
422.2640, 251.4745
422.7461, 253.0076
423.2282, 254.7332
423.7104, 257.5917
424.1925, 262.1967
424.6746, 265.5126
425.1567, 266.6470
425.6388, 266.9417
426.1209, 267.5947
426.6031, 269.0445
427.0852, 270.1369
427.5673, 270.7488
428.0494, 270.8868
428.5315, 270.6012
429.0136, 269.9654
429.4958, 268.7514
429.9779, 266.7257
430.4600, 263.7683
430.9421, 260.8206
431.4242, 257.9727
431.9063, 255.0221
432.3885, 251.6242
432.8706, 247.8044
433.3527, 243.9801
433.8348, 240.2498
434.3169, 236.6470
434.7990, 233.3858
435.2812, 230.4855
435.7633, 227.4766
436.2454, 223.7506
436.7275, 219.6738
437.2096, 216.0052
437.6917, 212.9136
438.1739, 210.2242
438.6560, 207.8761
439.1381, 205.7955
439.6202, 203.7870
440.1023, 202.0814
440.5844, 200.1898
441.0666, 197.4384
441.5487, 193.7706
442.0308, 190.4423
442.5129, 188.3767
442.9950, 186.8284
443.4771, 185.0853
443.9593, 182.6574
444.4414, 180.3310
444.9235, 178.3405
445.4056, 176.6175
445.8877, 174.8526
446.3698, 172.6529
446.8520, 170.6997
447.3341, 169.2988
447.8162, 168.6361
448.2983, 167.9787
448.7804, 167.3059
449.2625, 166.6536
449.7447, 166.0546
450.2268, 165.4386
450.7089, 165.0224
451.1910, 164.8357
451.6731, 164.8828
452.1552, 165.2257
452.6374, 165.8943
453.1195, 166.7288
453.6016, 167.6629
454.0837, 168.6883
454.5658, 169.7361
455.0479, 170.7886
455.5301, 171.8848
456.0122, 173.0388
456.4943, 174.2726
456.9764, 175.5878
457.4585, 176.8058
457.9406, 178.2326
458.4228, 180.6611
458.9049, 183.9714
459.3870, 187.2032
459.8691, 189.5328
460.3512, 191.3942
460.8333, 193.2880
461.3155, 195.2999
461.7976, 197.4395
462.2797, 199.8246
462.7618, 202.3381
463.2439, 204.7322
463.7260, 206.9796
464.2082, 209.0420
464.6903, 210.7635
465.1724, 212.1469
465.6545, 213.6601
466.1366, 215.4036
466.6187, 217.2935
467.1009, 219.2715
467.5830, 221.8087
468.0651, 223.8254
468.5472, 225.0526
469.0293, 225.8215
469.5114, 226.7950
469.9936, 228.0018
470.4757, 229.3496
470.9578, 230.8135
471.4399, 232.3928
471.9220, 234.0923
472.4041, 235.8817
472.8863, 237.8110
473.3684, 239.8873
473.8505, 242.1106
474.3326, 244.5293
474.8147, 247.1835
475.2968, 249.9696
475.7790, 252.5041
476.2611, 254.9078
476.7432, 257.8780
477.2253, 261.8254
477.7074, 266.5647
478.1895, 271.8522
478.6717, 277.6811
479.1538, 283.9769
479.6359, 290.3593
480.1180, 297.3103
480.6001, 305.4362
481.0822, 315.0905
481.5644, 325.7127
482.0465, 336.8985
482.5286, 348.8452
483.0107, 361.9770
483.4928, 375.9081
483.9749, 391.5865
484.4571, 409.4362
484.9392, 429.6423
485.4213, 451.2963
485.9034, 474.1323
486.3855, 498.5085
486.8676, 524.9780
487.3498, 554.5956
487.8319, 584.5531
488.3140, 614.1799
488.7961, 644.1957
489.2782, 676.0720
489.7603, 709.4647
490.2425, 744.9363
490.7246, 782.4301
491.2067, 822.0091
491.6888, 862.7739
492.1709, 904.3978
492.6530, 948.0168
493.1352, 994.7623
493.6173, 1044.462
494.0994, 1095.853
494.5815, 1148.247
495.0636, 1202.285
495.5457, 1258.473
496.0279, 1316.406
496.5100, 1374.597
496.9921, 1435.644
497.4742, 1495.120
497.9563, 1549.251
498.4384, 1598.424
498.9206, 1643.432
499.4027, 1689.344
499.8848, 1728.981
500.3669, 1757.832
500.8490, 1775.291
501.3311, 1780.610
501.8133, 1774.531
502.2954, 1756.092
502.7775, 1723.652
503.2596, 1672.063
503.7417, 1611.173
504.2238, 1542.134
504.7060, 1465.109
505.1881, 1384.664
505.6702, 1298.838
506.1523, 1213.707
506.6344, 1132.928
507.1165, 1056.805
507.5987, 984.4581
508.0808, 916.7936
508.5629, 853.5407
509.0450, 795.0641
509.5271, 741.2781
510.0092, 691.1317
510.4914, 643.3708
510.9735, 599.0186
511.4556, 559.9988
511.9377, 526.3914
512.4199, 495.9811
512.9020, 467.8246
513.3841, 441.8539
513.8662, 418.0925
514.3483, 396.6373
514.8304, 376.8893
515.3126, 358.5629
515.7947, 341.7488
516.2768, 326.2879
516.7589, 312.1872
517.2410, 299.3969
517.7231, 288.1372
518.2053, 278.2564
518.6874, 268.9886
519.1695, 260.2950
519.6516, 252.2617
520.1337, 245.0265
520.6158, 238.5800
521.0980, 232.8582
521.5801, 228.0877
522.0622, 223.7517
522.5443, 219.2368
523.0264, 214.4596
523.5085, 209.9986
523.9907, 205.9839
524.4728, 202.3523
524.9549, 198.7803
525.4370, 195.2799
525.9191, 192.4535
526.4012, 190.9982
526.8834, 190.3114
527.3655, 189.1310
527.8476, 187.4585
528.3297, 185.5813
528.8118, 183.3780
529.2939, 181.2554
529.7761, 179.7688
530.2582, 179.2171
530.7403, 178.9308
531.2224, 178.6258
531.7045, 178.3316
532.1866, 178.0985
532.6688, 177.9749
533.1509, 177.8730
533.6330, 177.7803
534.1151, 177.6932
534.5972, 177.5583
535.0793, 177.2982
535.5615, 177.0696
536.0436, 176.8905
536.5257, 176.6283
537.0078, 176.9388
537.4899, 177.9811
537.9720, 179.3456
538.4542, 180.5069
538.9363, 181.4626
539.4184, 182.4383
539.9005, 183.3940
540.3826, 184.4980
540.8647, 186.1819
541.3469, 188.3862
541.8290, 190.6366
542.3111, 192.6073
542.7932, 194.5132
543.2753, 196.5860
543.7574, 198.8361
544.2396, 201.4144
544.7217, 204.4598
545.2038, 207.8384
545.6859, 211.3759
546.1680, 214.7787
546.6501, 218.7845
547.1323, 223.7101
547.6144, 229.3471
548.0965, 235.4195
548.5786, 241.6042
549.0607, 248.5390
549.5428, 256.1930
550.0250, 264.6139
550.5071, 274.3557
550.9892, 285.6440
551.4713, 297.8872
551.9534, 310.6151
552.4355, 323.6596
552.9177, 338.9638
553.3998, 356.6145
553.8819, 376.2870
554.3640, 397.9332
554.8461, 421.3886
555.3282, 445.7336
555.8104, 470.2153
556.2925, 495.8960
556.7746, 524.3134
557.2567, 555.0647
557.7388, 587.0281
558.2209, 618.6019
558.7031, 651.6367
559.1852, 687.0648
559.6673, 725.0452
560.1494, 765.1377
560.6315, 807.0322
561.1136, 850.6275
561.5958, 895.7033
562.0779, 942.0172
562.5600, 990.7037
563.0421, 1042.605
563.5242, 1096.333
564.0063, 1150.314
564.4885, 1204.350
564.9706, 1258.102
565.4527, 1312.836
565.9348, 1366.523
566.4169, 1414.612
566.8990, 1456.885
567.3812, 1492.925
567.8633, 1524.818
568.3454, 1550.545
568.8275, 1564.785
569.3096, 1567.433
569.7917, 1556.341
570.2739, 1528.004
570.7560, 1485.207
571.2381, 1431.324
571.7202, 1364.713
572.2023, 1292.829
572.6844, 1216.102
573.1666, 1137.820
573.6487, 1061.353
574.1308, 986.4340
574.6129, 915.7543
575.0950, 850.0012
575.5771, 789.4777
576.0593, 733.2601
576.5414, 681.3761
577.0235, 634.3723
577.5056, 592.2232
577.9877, 555.2810
578.4698, 521.7889
578.9520, 491.8274
579.4341, 465.0927
579.9162, 442.0417
580.3983, 422.5573
580.8804, 403.2845
581.3625, 383.6372
581.8447, 364.8910
582.3268, 348.9719
582.8089, 335.5470
583.2910, 322.9381
583.7731, 310.3698
584.2552, 298.6280
584.7373, 288.6490
585.2194, 280.1617
585.7015, 272.1464
586.1837, 263.9913
586.6658, 256.3481
587.1479, 249.3311
587.6300, 242.9549
588.1121, 237.5124
588.5942, 233.8923
589.0764, 230.5827
589.5585, 226.6098
590.0406, 221.6428
590.5227, 216.6902
591.0048, 211.5424
591.4869, 206.6668
591.9691, 202.8931
592.4512, 200.2920
592.9333, 197.9875
593.4154, 195.8261
593.8975, 193.7356
594.3796, 191.4077
594.8618, 188.9465
595.3439, 186.8519
595.8260, 186.0403
596.3081, 185.4008
596.7902, 183.4177
597.2723, 180.0800
597.7545, 176.9938
598.2366, 174.9978
598.7187, 173.6570
599.2008, 172.7265
599.6829, 172.5715
600.1650, 171.9293
600.6472, 170.1525
601.1293, 168.0139
601.6114, 166.3733
602.0935, 165.4392
602.5756, 164.6118
603.0577, 163.8351
603.5399, 163.0961
604.0220, 162.3627
604.5041, 161.6526
604.9862, 160.8318
605.4683, 159.6793
605.9504, 158.4145
606.4326, 157.7760
606.9147, 157.7233
607.3968, 157.6873
607.8789, 157.3259
608.3610, 156.7116
608.8431, 155.7872
609.3253, 154.4448
609.8074, 153.4950
610.2895, 153.7001
610.7716, 154.3471
611.2537, 154.7594
611.7358, 154.8819
612.2180, 154.6416
612.7001, 153.5751
613.1822, 152.2796
613.6643, 151.8352
614.1464, 152.8137
614.6285, 153.3828
615.1107, 152.9807
615.5928, 151.8780
616.0749, 151.1736
616.5570, 150.8782
617.0391, 150.8528
617.5212, 151.1965
618.0034, 151.7304
618.4855, 151.8853
618.9676, 151.6600
619.4497, 151.5461
619.9318, 152.3107
620.4139, 153.2203
620.8961, 153.3135
621.3782, 152.1339
621.8603, 151.0840
622.3424, 150.8654
622.8245, 151.0678
623.3066, 151.2203
623.7888, 151.2781
624.2709, 151.2337
624.7530, 150.9736
625.2351, 150.6431
625.7172, 150.6540
626.1993, 151.1886
626.6815, 151.4749
627.1636, 151.1636
627.6457, 150.4385
628.1278, 150.2009
628.6099, 150.4535
629.0920, 150.4857
629.5742, 149.4644
630.0563, 148.0210
630.5384, 147.4057
631.0205, 147.6882
631.5026, 148.0128
631.9847, 147.8367
632.4669, 147.3762
632.9490, 146.8297
633.4311, 146.2348
633.9132, 145.5806
634.3953, 144.7444
634.8774, 143.9019
635.3596, 143.2676
635.8417, 143.0447
636.3238, 142.6776
636.8059, 142.0189
637.2880, 141.2242
637.7701, 140.6915
638.2523, 140.4495
638.7344, 140.2164
639.2165, 139.8621
639.6986, 139.4499
640.1807, 139.1470
640.6628, 138.9496
641.1450, 138.8499
641.6271, 139.0836
642.1092, 139.2778
642.5913, 138.9216
643.0734, 137.9745
643.5555, 137.0368
644.0377, 136.4010
644.5198, 135.8829
645.0019, 135.3350
645.4840, 134.6229
645.9661, 134.1370
646.4482, 134.0231
646.9304, 134.0406
647.4125, 133.9110
647.8946, 133.5333
648.3767, 133.3922
648.8588, 133.6660
649.3409, 134.0443
649.8231, 133.8952
650.3052, 133.2576
650.7873, 132.5480
651.2694, 131.8025
651.7515, 131.1748
652.2336, 130.9540
652.7158, 131.0634
653.1979, 131.2130
653.6800, 131.2981
654.1621, 131.3316
654.6442, 131.3289
655.1263, 131.2898
655.6085, 131.1783
656.0906, 130.9102
656.5727, 130.6317
657.0548, 130.4256
657.5369, 130.3236
658.0190, 130.1535
658.5012, 129.8863
658.9833, 129.6040
659.4654, 129.1792
659.9475, 128.6436
660.4296, 129.1655
660.9117, 131.1474
661.3939, 133.2554
661.8760, 133.8750
662.3581, 133.3140
662.8402, 132.2260
663.3223, 130.3867
663.8044, 128.7299
664.2866, 128.0255
664.7687, 127.9811
665.2508, 127.9564
665.7329, 127.7185
666.2150, 127.5242
666.6971, 127.5717
667.1793, 127.7709
667.6614, 127.5927
668.1435, 126.8253
668.6256, 126.1013
669.1077, 125.5932
669.5898, 125.3226
670.0720, 125.7571
670.5541, 126.9810
671.0362, 127.9270
671.5183, 127.4065
672.0004, 126.1063
672.4825, 125.5391
672.9647, 125.8677
673.4468, 126.2885
673.9289, 126.1997
674.4110, 125.9228
674.8931, 125.7852
675.3752, 125.9010
675.8574, 126.0540
676.3395, 126.3172
676.8216, 126.5332
677.3037, 126.4954
677.7858, 126.0028
678.2679, 125.7381
678.7501, 125.8876
679.2322, 126.1972
679.7143, 126.0694
680.1964, 125.5147
680.6785, 125.1616
681.1606, 125.2706
681.6428, 125.6557
682.1249, 126.0872
682.6070, 126.5430
683.0891, 126.9276
683.5712, 127.2681
684.0533, 127.4576
684.5355, 127.3542
685.0176, 126.9895
685.4997, 126.6863
685.9818, 126.5492
686.4639, 126.4706
686.9460, 126.3570
687.4282, 126.1719
687.9103, 126.3380
688.3924, 126.9944
688.8745, 127.6866
689.3566, 128.1686
689.8387, 128.4283
690.3209, 128.0924
690.8030, 127.0583
691.2851, 126.1565
691.7672, 126.5172
692.2493, 127.5238
692.7314, 128.1551
693.2136, 128.1275
693.6957, 127.9024
694.1778, 127.6900
694.6599, 127.4512
695.1420, 127.1364
695.6241, 126.4474
696.1063, 126.0740
696.5884, 126.2308
697.0705, 126.6547
697.5526, 126.8264
698.0347, 126.6604
698.5168, 126.6266
698.9990, 126.9714
699.4811, 127.3815
699.9632, 126.8737
700.4453, 125.6171
700.9274, 124.6846
701.4095, 124.8900
701.8917, 125.5059
702.3738, 125.7354
702.8559, 125.6688
703.3380, 125.7253
703.8201, 126.4792
704.3022, 127.0584
704.7844, 126.7975
705.2665, 125.5970
705.7486, 125.1582
706.2307, 125.8630
706.7128, 126.8022
707.1949, 127.6178
707.6771, 128.3199
708.1592, 128.3804
708.6413, 127.7150
709.1234, 126.9557
709.6055, 126.6701
710.0876, 126.7113
710.5698, 126.7340
711.0519, 126.6894
711.5340, 126.6910
712.0161, 126.8289
712.4982, 127.0490
712.9803, 127.3094
713.4625, 127.6673
713.9446, 127.9273
714.4267, 127.9854
714.9088, 127.9599
715.3909, 127.9497
715.8730, 127.9115
716.3552, 128.0532
716.8373, 128.4797
717.3194, 128.9648
717.8015, 129.0876
718.2836, 128.8911
718.7657, 128.6731
719.2479, 128.4994
719.7300, 128.3911
720.2121, 128.3458
720.6942, 128.3861
721.1763, 128.5610
721.6584, 129.0712
722.1406, 129.5376
722.6227, 129.7199
723.1048, 129.7057
723.5869, 129.8672
724.0690, 130.4463
724.5511, 130.8226
725.0333, 130.7326
725.5154, 130.2899
725.9975, 130.1538
726.4796, 130.3485
726.9617, 130.5522
727.4438, 130.5795
727.9260, 130.4953
728.4081, 130.3705
728.8902, 130.2269
729.3723, 130.2271
729.8544, 130.6259
730.3365, 131.0902
730.8187, 131.3444
731.3008, 131.3449
731.7829, 131.4422
732.2650, 131.7564
732.7471, 132.1280
733.2292, 132.5242
733.7114, 132.9825
734.1935, 133.1903
734.6756, 133.1107
735.1577, 132.9126
735.6398, 132.6884
736.1219, 132.4663
736.6041, 132.3454
737.0862, 132.3355
737.5683, 132.4388
738.0504, 132.7454
738.5325, 133.1248
739.0146, 133.4298
739.4968, 133.6181
739.9789, 133.7660
740.4610, 133.8566
740.9431, 133.9379
741.4252, 134.0604
741.9073, 134.2401
742.3895, 134.4186
742.8716, 134.5995
743.3537, 134.7641
743.8358, 134.8477
744.3179, 134.8695
744.8000, 135.0063
745.2822, 135.3249
745.7643, 135.7027
746.2464, 135.8795
746.7285, 136.0405
747.2106, 136.5162
747.6927, 138.1019
748.1749, 139.2149
748.6570, 138.7916
749.1391, 137.6172
749.6212, 137.3799
750.1033, 138.8720
750.5854, 139.8020
751.0676, 139.5786
751.5497, 138.7023
752.0318, 138.3776
752.5139, 138.5921
752.9960, 139.0405
753.4781, 139.7162
753.9603, 140.4375
754.4424, 140.9949
754.9245, 141.3865
755.4066, 141.5890
755.8887, 141.3061
756.3708, 141.1190
756.8530, 141.3402
757.3351, 141.9133
757.8172, 142.5368
758.2993, 143.4221
758.7814, 143.9606
759.2635, 143.8093
759.7457, 143.1662
760.2278, 143.1201
760.7099, 143.6909
761.1920, 144.4479
761.6741, 145.3826
762.1563, 146.2490
762.6384, 146.4531
763.1205, 146.1216
763.6026, 145.9423
764.0847, 146.5481
764.5668, 147.2080
765.0490, 147.4566
765.5311, 147.2749
766.0132, 147.1079
766.4953, 146.8389
766.9774, 146.8010
767.4595, 147.2031
767.9417, 148.0271
768.4238, 148.7709
768.9059, 149.4395
769.3880, 149.8939
769.8701, 149.7538
770.3522, 149.4314
770.8344, 149.8808
771.3165, 151.0794
771.7986, 151.9035
772.2807, 151.2661
772.7628, 150.3465
773.2449, 149.9436
773.7271, 150.2241
774.2092, 150.4797
774.6913, 150.7414
775.1734, 150.8931
775.6555, 150.8638
776.1376, 150.6510
776.6198, 150.2451
777.1019, 149.6054
777.5840, 149.1718
778.0661, 149.5805
778.5482, 150.3669
779.0303, 150.7404
779.5125, 150.6128
779.9946, 150.2324
780.4767, 149.1783
780.9588, 148.3181
781.4409, 148.4372
781.9230, 150.1858
782.4052, 151.1536
782.8873, 150.9730
783.3694, 150.5115
783.8515, 150.4360
784.3336, 150.7453
784.8157, 150.8838
785.2979, 150.7991
785.7800, 150.7852
786.2621, 151.2469
786.7442, 151.9188
787.2263, 152.4636
787.7084, 152.8680
788.1906, 152.8840
788.6727, 151.7458
789.1548, 150.5981
789.6369, 150.4642
790.1190, 151.8853
790.6011, 152.9926
791.0833, 153.7241
791.5654, 154.2316
792.0475, 154.5722
792.5296, 154.7688
793.0117, 155.0791
793.4938, 155.5415
793.9760, 155.9826
794.4581, 156.1877
794.9402, 156.2926
795.4223, 156.4869
795.9044, 156.8268
796.3865, 157.1738
796.8687, 157.5947
797.3508, 157.9264
797.8329, 157.9963
798.3150, 157.5207
798.7971, 157.5712
799.2792, 158.2962
799.7614, 159.2232
800.2435, 159.9476
800.7256, 160.4786
801.2077, 160.8549
801.6898, 161.0717
802.1719, 161.2187
802.6541, 161.3263
803.1362, 161.4283
803.6183, 161.5206
804.1004, 161.4896
804.5825, 161.7803
805.0646, 162.9046
805.5468, 164.0807
806.0289, 164.6743
806.5110, 164.4740
806.9931, 164.6513
807.4752, 165.3347
807.9573, 166.0338
808.4395, 165.9795
808.9216, 165.5554
809.4037, 165.9256
809.8858, 167.3616
810.3679, 168.6539
810.8500, 168.3654
811.3322, 167.8741
811.8143, 168.5723
812.2964, 171.5422
812.7785, 173.4447
813.2606, 173.7248
813.7427, 173.4068
814.2249, 173.1395
814.7070, 172.8992
815.1891, 173.3542
815.6712, 174.6062
816.1533, 176.0047
816.6354, 176.9290
817.1176, 177.5709
817.5997, 178.2427
818.0818, 179.0014
818.5639, 179.7215
819.0460, 180.2930
819.5281, 180.8381
820.0103, 181.3632
820.4924, 181.6607
820.9745, 182.8214
821.4566, 185.2258
821.9387, 187.6846
822.4208, 189.1013
822.9030, 189.6543
823.3851, 190.1236
823.8672, 190.5462
824.3493, 191.1660
824.8314, 192.2167
825.3135, 193.5376
825.7957, 195.0222
826.2778, 196.6905
826.7599, 198.2389
827.2420, 199.9343
827.7241, 201.1785
828.2062, 201.4525
828.6884, 200.5999
829.1705, 200.8628
829.6526, 202.4123
830.1347, 204.0893
830.6168, 204.8999
831.0989, 205.2436
831.5811, 206.0766
832.0632, 207.3856
832.5453, 208.3033
833.0274, 207.8147
833.5095, 207.1590
833.9916, 207.2377
834.4738, 208.2156
834.9559, 208.6867
835.4380, 208.5535
835.9201, 208.0870
836.4022, 207.3633
836.8843, 206.4123
837.3665, 205.3371
837.8486, 204.1546
838.3307, 203.1624
838.8128, 202.8285
839.2949, 202.5904
839.7770, 201.9348
840.2592, 200.8565
840.7413, 199.5046
841.2234, 197.6308
841.7055, 195.7938
842.1876, 194.0521
842.6697, 192.4724
843.1519, 191.5937
843.6340, 191.5152
844.1161, 191.4229
844.5982, 190.8333
845.0803, 190.0738
845.5624, 189.8323
846.0446, 190.0034
846.5267, 190.2275
847.0088, 190.5074
847.4909, 190.6131
847.9730, 190.2440
848.4551, 189.5866
848.9373, 189.3159
849.4194, 189.5316
849.9015, 189.9442
850.3836, 190.4852
850.8657, 191.1815
851.3478, 192.1740
851.8300, 193.4124
852.3121, 194.5706
852.7942, 195.4096
853.2763, 196.2873
853.7584, 197.5589
854.2405, 199.0895
854.7227, 200.6482
855.2048, 202.1511
855.6869, 203.6593
856.1690, 204.9511
856.6511, 206.4162
857.1332, 208.8399
857.6154, 212.2992
858.0975, 215.5375
858.5796, 218.3020
859.0617, 220.9753
859.5438, 224.0104
860.0259, 227.2822
860.5081, 230.4419
860.9902, 233.0789
861.4723, 236.3693
861.9544, 240.8228
862.4365, 246.1080
862.9186, 251.8267
863.4008, 258.2402
863.8829, 264.3782
864.3650, 270.1047
864.8471, 275.8677
865.3292, 282.0939
865.8113, 288.7774
866.2935, 295.9272
866.7756, 303.6031
867.2577, 311.7733
867.7398, 320.5221
868.2219, 329.7992
868.7040, 339.8527
869.1862, 351.1540
869.6683, 361.4429
870.1504, 370.0196
870.6325, 378.7929
871.1146, 388.9951
871.5967, 400.4914
872.0789, 411.6604
872.5610, 422.6420
873.0431, 433.5002
873.5252, 444.4296
874.0073, 455.1826
874.4894, 465.3705
874.9716, 475.1274
875.4537, 485.0617
875.9358, 496.2162
876.4179, 506.3635
876.9000, 514.7032
877.3821, 521.5234
877.8643, 528.3497
878.3464, 535.1719
878.8285, 540.8943
879.3106, 545.1540
879.7927, 547.7308
880.2748, 548.0714
880.7570, 546.4645
881.2391, 543.6357
881.7212, 540.8439
882.2033, 535.6864
882.6854, 526.7469
883.1675, 515.3519
883.6497, 503.1873
884.1318, 490.2423
884.6139, 476.5063
885.0960, 461.8320
885.5781, 446.7444
886.0602, 431.6667
886.5424, 416.7422
887.0245, 402.4752
887.5066, 389.1255
887.9887, 376.2282
888.4708, 363.3367
888.9529, 350.9976
889.4351, 339.7238
889.9172, 329.9670
890.3993, 320.1144
890.8814, 309.9541
891.3635, 300.4831
891.8456, 292.8690
892.3278, 286.6153
892.8099, 280.2922
893.2920, 273.8188
893.7741, 267.7789
894.2562, 262.7729
894.7383, 258.2677
895.2205, 253.8435
895.7026, 249.4904
896.1847, 245.4839
896.6668, 241.8763
897.1489, 238.5767
897.6310, 235.6166
898.1132, 232.9343
898.5953, 230.3389
899.0774, 227.8637
899.5595, 225.7460
900.0416, 224.5184
900.5237, 223.3020
901.0059, 221.2385
901.4880, 218.6311
901.9701, 216.6119
902.4522, 215.5225
902.9343, 214.6487
903.4164, 213.9241
903.8986, 213.2472
904.3807, 212.3311
904.8628, 211.2226
905.3449, 210.2023
905.8270, 209.3584
906.3091, 208.6216
906.7913, 208.0103
907.2734, 207.4427
907.7555, 206.7925
908.2376, 205.6268
908.7197, 205.1029
909.2018, 205.5393
909.6840, 206.2298
910.1661, 206.5382
910.6482, 206.4780
911.1303, 206.1622
911.6124, 205.5821
912.0945, 205.0689
912.5767, 204.7570
913.0588, 204.7458
913.5409, 205.1802
914.0230, 206.0959
914.5051, 207.1633
914.9872, 208.5331
915.4694, 209.7537
915.9515, 210.4969
916.4336, 210.8877
916.9157, 212.0122
917.3978, 213.8223
917.8799, 215.5347
918.3621, 216.6830
918.8442, 217.5370
919.3263, 218.2890
919.8084, 218.9592
920.2905, 219.6230
920.7726, 220.2863
921.2548, 220.9716
921.7369, 221.7361
922.2190, 222.4868
922.7011, 223.0731
923.1832, 223.4891
923.6653, 223.6849
924.1475, 223.6400
924.6296, 223.4055
925.1117, 222.9125
925.5938, 222.3178
926.0759, 221.8677
926.5580, 221.8746
927.0402, 221.3292
927.5223, 219.8004
928.0044, 218.1044
928.4865, 216.9289
928.9686, 216.2691
929.4507, 215.2368
929.9329, 213.8251
930.4150, 212.2801
930.8971, 210.5103
931.3792, 208.9026
931.8613, 208.0074
932.3434, 207.7663
932.8256, 207.1919
933.3077, 205.7575
933.7898, 204.3574
934.2719, 203.2266
934.7540, 202.3183
935.2361, 201.5417
935.7183, 200.8810
936.2004, 200.2602
936.6825, 199.6280
937.1646, 199.0339
937.6467, 198.6306
938.1288, 198.2656
938.6110, 197.7077
939.0931, 196.6782
939.5752, 195.7442
940.0573, 194.8888
940.5394, 194.2163
941.0215, 193.9684
941.5037, 194.0881
941.9858, 193.9395
942.4679, 193.4482
942.9500, 192.9743
943.4321, 192.8867
943.9142, 192.9156
944.3964, 192.8316
944.8785, 192.6035
945.3606, 192.3534
945.8427, 192.2546
946.3248, 191.8326
946.8069, 190.7090
947.2891, 189.1376
947.7712, 188.2696
948.2533, 188.0306
948.7354, 187.9932
949.2175, 188.1830
949.6996, 188.2481
950.1818, 187.6999
950.6639, 186.8825
951.1460, 186.6015
951.6281, 187.4579
952.1102, 187.6893
952.5923, 186.8879
953.0745, 185.8569
953.5566, 185.8057
954.0387, 186.4642
954.5208, 186.8598
955.0029, 186.8284
955.4850, 186.6178
955.9672, 186.2480
956.4493, 185.8737
956.9314, 185.6411
957.4135, 185.5822
957.8956, 185.3974
958.3777, 185.0208
958.8599, 184.7171
959.3420, 184.6858
959.8241, 184.8083
960.3062, 184.7763
960.7883, 184.6224
961.2704, 184.4796
961.7526, 184.4402
962.2347, 184.3956
962.7168, 184.2007
963.1989, 183.9968
963.6810, 184.1361
964.1631, 184.7863
964.6453, 184.9356
965.1274, 184.3104
965.6095, 183.5347
966.0916, 183.3166
966.5737, 183.5280
967.0558, 184.0478
967.5380, 184.9408
968.0201, 185.6170
968.5022, 185.7225
968.9843, 185.6629
969.4664, 185.6267
969.9485, 185.6164
970.4307, 185.8343
970.9128, 186.2849
971.3949, 186.8600
971.8770, 187.6415
972.3591, 188.4011
972.8412, 188.7328
973.3234, 188.8121
973.8055, 189.1429
974.2876, 190.0409
974.7697, 191.0102
975.2518, 192.0432
975.7339, 193.0421
976.2161, 193.8436
976.6982, 194.4626
977.1803, 194.8677
977.6624, 194.9432
978.1445, 195.5258
978.6266, 198.1387
979.1088, 201.1253
979.5909, 202.7010
980.0730, 202.2612
980.5551, 202.4782
981.0372, 203.6219
981.5193, 205.0753
982.0015, 206.6808
982.4836, 208.3118
982.9657, 209.3605
983.4478, 209.9733
983.9299, 210.8343
984.4120, 212.4748
984.8942, 214.2638
985.3763, 216.1433
985.8584, 217.8754
986.3405, 219.0013
986.8226, 219.2992
987.3047, 219.7704
987.7869, 220.5545
988.2690, 221.4350
988.7511, 222.1403
989.2332, 222.7577
989.7153, 223.5107
990.1974, 224.4573
990.6796, 225.1157
991.1617, 225.1755
991.6438, 225.0110
992.1259, 224.8921
992.6080, 224.7535
993.0901, 223.8892
993.5723, 222.2908
994.0544, 220.7378
994.5365, 219.5907
995.0186, 218.6504
995.5007, 217.8758
995.9828, 217.0895
996.4650, 215.9518
996.9471, 213.9113
997.4292, 212.2099
997.9113, 211.0431
998.3934, 210.0253
998.8755, 208.6488
999.3577, 207.0020
999.8398, 205.7092
1000.322, 204.7971
1000.804, 203.9706
1001.286, 202.9557
1001.768, 202.0016
1002.250, 201.4552
1002.732, 201.2401
1003.215, 200.3604
1003.697, 198.5198
1004.179, 197.1723
1004.661, 196.9914
1005.143, 197.1724
1005.625, 196.1171
1006.107, 194.3674
1006.589, 193.0855
1007.072, 192.8161
1007.554, 192.6842
1008.036, 192.6206
1008.518, 192.4144
1009.000, 191.8384
1009.482, 190.8519
1009.964, 189.9938
1010.446, 189.2489
1010.928, 188.8653
1011.411, 189.2894
1011.893, 189.9317
1012.375, 190.2712
1012.857, 190.3277
1013.339, 190.3131
1013.821, 190.3953
1014.303, 190.1486
1014.785, 189.4010
1015.268, 188.4278
1015.750, 187.5698
1016.232, 186.8666
1016.714, 186.4432
1017.196, 186.3187
1017.678, 186.4936
1018.160, 187.4201
1018.642, 188.2815
1019.124, 188.3351
1019.607, 187.5442
1020.089, 187.4434
1020.571, 188.1459
1021.053, 188.6610
1021.535, 188.2679
1022.017, 187.5652
1022.499, 187.5065
1022.981, 187.7990
1023.464, 187.7795
1023.946, 186.6718
1024.428, 186.0407
1024.910, 186.2146
1025.392, 186.7063
1025.874, 187.0026
1026.356, 187.1149
1026.838, 187.0958
1027.320, 186.9502
1027.803, 186.9573
1028.285, 187.4958
1028.767, 188.1084
1029.249, 188.6599
1029.731, 189.0421
1030.213, 188.5138
1030.695, 186.7044
1031.177, 185.4790
1031.660, 185.5272
1032.142, 186.0679
1032.624, 185.7584
1033.106, 185.0716
1033.588, 184.9395
1034.070, 185.8507
1034.552, 186.6165
1035.034, 187.0311
1035.516, 187.1321
1035.999, 186.8764
1036.481, 186.2892
1036.963, 185.5870
1037.445, 184.8091
1037.927, 184.3187
1038.409, 184.2746
1038.891, 184.6546
1039.373, 185.9230
1039.855, 187.5246
1040.338, 188.0945
1040.820, 187.0882
1041.302, 186.5425
1041.784, 186.7516
1042.266, 187.1294
1042.748, 186.8611
1043.230, 186.3422
1043.712, 186.3974
1044.195, 187.1158
1044.677, 187.6092
1045.159, 187.2190
1045.641, 186.9496
1046.123, 187.2581
1046.605, 187.9175
1047.087, 188.1256
1047.569, 187.9260
1048.052, 187.6907
1048.534, 187.5280
1049.016, 187.3901
1049.498, 187.2781
1049.980, 187.1456
1050.462, 186.8815
1050.944, 186.3374
1051.426, 186.3395
1051.908, 187.0302
1052.391, 187.6695
1052.873, 187.7699
1053.355, 187.5047
1053.837, 186.9830
1054.319, 186.3502
1054.801, 186.0594
1055.283, 186.6253
1055.765, 187.0956
1056.247, 187.3082
1056.730, 187.3596
1057.212, 187.3051
1057.694, 187.1799
1058.176, 187.2655
1058.658, 187.5933
1059.140, 187.9517
1059.622, 188.0970
1060.104, 188.2897
1060.587, 188.7282
1061.069, 189.3852
1061.551, 190.2030
1062.033, 191.3375
1062.515, 191.6033
1062.997, 190.3417
1063.479, 188.8198
1063.961, 188.7791
1064.443, 189.5338
1064.926, 190.0802
1065.408, 190.1117
1065.890, 190.2579
1066.372, 190.8093
1066.854, 191.0818
1067.336, 190.4191
1067.818, 189.2137
1068.300, 189.1683
1068.782, 190.0369
1069.265, 190.7922
1069.747, 190.9370
1070.229, 190.8403
1070.711, 190.3810
1071.193, 189.9210
1071.675, 189.9720
1072.157, 190.6099
1072.639, 190.8100
1073.122, 190.4882
1073.604, 190.2173
1074.086, 190.5869
1074.568, 191.1374
1075.050, 191.4465
1075.532, 191.5346
1076.014, 191.6929
1076.496, 192.0614
1076.979, 192.1308
1077.461, 191.6677
1077.943, 191.1724
1078.425, 191.5835
1078.907, 192.4413
1079.389, 192.8190
1079.871, 192.4953
1080.353, 192.2646
1080.835, 192.4340
1081.318, 192.7217
1081.800, 193.0689
1082.282, 193.4288
1082.764, 193.5843
1083.246, 193.5645
1083.728, 193.5287
1084.210, 193.5222
1084.692, 193.5492
1085.174, 193.6503
1085.656, 193.7652
1086.139, 193.8323
1086.621, 193.8455
1087.103, 193.8426
1087.585, 193.8180
1088.067, 193.8671
1088.549, 194.2921
1089.031, 194.6350
1089.513, 194.1333
1089.996, 193.1685
1090.478, 192.7508
1090.960, 193.3867
1091.442, 193.9087
1091.924, 194.2376
1092.406, 194.4023
1092.888, 194.4482
1093.370, 194.3461
1093.853, 193.7845
1094.335, 192.8347
1094.817, 192.5571
1095.299, 194.3523
1095.781, 195.6996
1096.263, 195.6650
1096.745, 194.8856
1097.227, 194.7350
1097.709, 195.1277
1098.192, 195.5395
1098.674, 195.8631
1099.156, 196.2284
1099.638, 196.8771
1100.120, 197.4748
1100.602, 197.7957
1101.084, 197.8501
1101.566, 197.5303
1102.048, 196.7987
1102.531, 196.4677
1103.013, 197.0638
1103.495, 197.8000
1103.977, 197.9048
1104.459, 197.5828
1104.941, 197.0076
1105.423, 195.8516
1105.905, 195.6878
1106.388, 196.8172
1106.870, 197.9630
1107.352, 198.2845
1107.834, 198.0800
1108.316, 197.7519
1108.798, 197.3844
1109.280, 197.2050
1109.762, 197.3755
1110.245, 197.6404
1110.727, 198.0403
1111.209, 198.4085
1111.691, 198.4558
1112.173, 198.3247
1112.655, 198.7364
1113.137, 199.6402
1113.619, 200.2105
1114.101, 199.6530
1114.583, 199.0637
1115.066, 198.8560
1115.548, 198.9257
1116.030, 199.1800
1116.512, 199.6021
1116.994, 199.8230
1117.476, 199.7880
1117.958, 199.5574
1118.440, 198.8913
1118.923, 198.2910
1119.405, 198.1983
1119.887, 198.5435
1120.369, 198.7373
1120.851, 198.6879
1121.333, 199.3953
1121.815, 201.4298
1122.297, 203.4294
1122.780, 203.8912
1123.262, 203.4641
1123.744, 202.8100
1124.226, 201.9335
1124.708, 201.4363
1125.190, 201.4074
1125.672, 201.5064
1126.154, 201.6142
1126.636, 201.7121
1127.119, 201.7078
1127.601, 201.6813
1128.083, 201.8075
1128.565, 202.3057
1129.047, 202.5772
1129.529, 202.5465
1130.011, 202.3295
1130.493, 201.7815
1130.975, 201.1563
1131.458, 201.5264
1131.940, 202.6314
1132.422, 203.4845
1132.904, 203.3334
1133.386, 203.2701
1133.868, 203.6146
1134.350, 204.1183
1134.832, 204.6482
1135.315, 205.1559
1135.797, 205.0902
1136.279, 204.4829
1136.761, 204.0398
1137.243, 204.4301
1137.725, 204.8459
1138.207, 204.8599
1138.689, 204.6364
1139.172, 204.3428
1139.654, 203.9660
1140.136, 204.1111
1140.618, 204.8699
1141.100, 205.7229
1141.582, 206.5145
1142.064, 207.0144
1142.546, 206.8927
1143.028, 206.2910
1143.510, 205.9166
1143.993, 205.7953
1144.475, 205.7304
1144.957, 205.6744
1145.439, 205.6975
1145.921, 205.9274
1146.403, 206.2419
1146.885, 206.5447
1147.367, 206.8215
1147.850, 207.0026
1148.332, 207.1143
1148.814, 207.0082
1149.296, 206.5458
1149.778, 206.0490
1150.260, 205.9213
1150.742, 206.0839
1151.224, 206.4491
1151.707, 207.0506
1152.189, 207.6558
1152.671, 208.3659
1153.153, 208.7757
1153.635, 208.6200
1154.117, 208.1267
1154.599, 207.6818
1155.081, 207.2749
1155.563, 206.9021
1156.046, 206.5631
1156.528, 206.2290
1157.010, 205.7270
1157.492, 205.5244
1157.974, 206.0957
1158.456, 207.1543
1158.938, 207.7969
1159.420, 208.0843
1159.902, 208.1900
1160.385, 208.1154
1160.867, 207.9628
1161.349, 207.7600
1161.831, 207.4823
1162.313, 206.8755
1162.795, 206.1253
1163.277, 206.6627
1163.759, 208.2299
1164.242, 209.2649
1164.724, 208.3116
1165.206, 207.4717
1165.688, 207.5691
1166.170, 208.0677
1166.652, 208.4364
1167.134, 208.6788
1167.616, 208.7137
1168.099, 208.5639
1168.581, 208.5683
1169.063, 209.2597
1169.545, 209.8111
1170.027, 209.6494
1170.509, 209.8409
1170.991, 209.0474
1171.473, 209.2495
1171.955, 208.9654
1172.438, 208.0977
1172.920, 207.5643
1173.402, 208.4699
1173.884, 209.5186
1174.366, 209.8064
1174.848, 209.6077
1175.330, 209.6312
1175.812, 209.8837
1176.294, 209.6065
1176.777, 208.5584
1177.259, 208.0545
1177.741, 210.0051
1178.223, 212.2242
1178.705, 212.9926
1179.187, 212.5175
1179.669, 211.8121
1180.151, 210.8275
1180.634, 210.4198
1181.116, 210.8990
1181.598, 211.4652
1182.080, 211.2437
1182.562, 210.8566
1183.044, 210.8858
1183.526, 211.3330
1184.008, 211.7994
1184.490, 212.3021
1184.973, 212.7040
1185.455, 212.9849
1185.937, 213.0739
1186.419, 212.5747
1186.901, 212.0523
1187.383, 212.2987
1187.865, 213.4268
1188.347, 213.7668
1188.829, 213.2123
1189.312, 212.7166
1189.794, 212.6882
1190.276, 212.7871
1190.758, 212.3640
1191.240, 211.9893
1191.722, 212.6254
1192.204, 214.6847
1192.686, 215.1464
1193.169, 213.7036
1193.651, 212.6285
1194.133, 213.2848
1194.615, 214.3376
1195.097, 214.1053
1195.579, 213.2905
1196.061, 212.9118
1196.543, 213.1775
1197.026, 213.5134
1197.508, 213.9488
1197.990, 214.3072
1198.472, 214.5737
1198.954, 214.6135
1199.436, 213.8690
1199.918, 212.9254
1200.400, 212.8294
1200.882, 214.1358
1201.365, 214.9425
1201.847, 215.2367
1202.329, 215.0842
1202.811, 214.1371
1203.293, 213.1101
1203.775, 212.8643
1204.257, 213.1623
1204.739, 213.5754
1205.221, 214.0795
1205.704, 214.6716
1206.186, 215.4402
1206.668, 215.8259
1207.150, 215.0773
1207.632, 214.0170
1208.114, 213.4853
1208.596, 213.3905
1209.078, 213.5605
1209.561, 214.1163
1210.043, 214.4958
1210.525, 214.6809
1211.007, 214.7367
1211.489, 214.5378
1211.971, 214.3862
1212.453, 214.7931
1212.935, 215.5029
1213.417, 215.7879
1213.900, 215.4231
1214.382, 215.2361
1214.864, 215.2820
1215.346, 215.4261
1215.828, 215.6631
1216.310, 215.8510
1216.792, 215.5652
1217.274, 215.1296
1217.756, 215.6295
1218.239, 217.6111
1218.721, 218.3998
1219.203, 217.6810
1219.685, 216.7461
1220.167, 216.6918
1220.649, 216.9902
1221.131, 217.2840
1221.613, 217.4850
1222.096, 217.3559
1222.578, 216.7257
1223.060, 216.6814
1223.542, 217.3990
1224.024, 218.0116
1224.506, 217.3916
1224.988, 216.6455
1225.470, 216.8810
1225.953, 217.8185
1226.435, 218.3201
1226.917, 218.2769
1227.399, 218.5190
1227.881, 219.1733
1228.363, 219.6379
1228.845, 219.1129
1229.327, 218.4335
1229.809, 218.3387
1230.292, 218.6267
1230.774, 218.4140
1231.256, 219.1987
1231.738, 218.2738
1232.220, 220.9505
1232.702, 223.5365
1233.184, 224.9316
1233.666, 225.1464
1234.148, 223.3968
1234.631, 220.6725
1235.113, 219.1963
1235.595, 218.9850
1236.077, 219.7499
1236.559, 221.5051
1237.041, 222.8338
1237.523, 222.3485
1238.005, 221.4679
1238.488, 221.0243
1238.970, 220.8274
1239.452, 220.4722
1239.934, 219.9783
1240.416, 219.4368
1240.898, 218.8573
1241.380, 218.8110
1241.862, 220.3050
1242.344, 221.7267
1242.827, 222.2483
1243.309, 222.2221
1243.791, 222.2282
1244.273, 222.2734
1244.755, 222.4806
1245.237, 222.8633
1245.719, 222.9775
1246.201, 222.0757
1246.683, 221.5069
1247.166, 221.8851
1247.648, 222.7019
1248.130, 223.1059
1248.612, 223.1670
1249.094, 223.0049
1249.576, 222.6503
1250.058, 222.6013
1250.540, 223.5857
1251.023, 224.1935
1251.505, 223.9096
1251.987, 223.3349
1252.469, 223.4585
1252.951, 224.0256
1253.433, 224.5443
1253.915, 224.9399
1254.397, 224.8994
1254.880, 223.7681
1255.362, 223.1690
1255.844, 223.5329
1256.326, 224.3034
1256.808, 224.8380
1257.290, 225.1894
1257.772, 225.3208
1258.254, 225.2795
1258.736, 225.6437
1259.219, 226.7720
1259.701, 227.5547
1260.183, 227.7784
1260.665, 227.6541
1261.147, 227.0978
1261.629, 226.5624
1262.111, 226.7133
1262.593, 227.4936
1263.075, 228.0959
1263.558, 228.5351
1264.040, 228.4500
1264.522, 227.6691
1265.004, 226.9911
1265.486, 227.2033
1265.968, 227.8788
1266.450, 228.8968
1266.932, 230.0415
1267.415, 230.5128
1267.897, 230.2602
1268.379, 229.9581
1268.861, 229.7054
1269.343, 229.4263
1269.825, 228.8143
1270.307, 228.3943
1270.789, 228.6070
1271.271, 229.2663
1271.754, 230.2324
1272.236, 231.4498
1272.718, 231.8232
1273.200, 231.2443
1273.682, 230.8558
1274.164, 231.9514
1274.646, 232.6857
1275.128, 232.0663
1275.610, 230.8616
1276.093, 230.1725
1276.575, 229.9692
1277.057, 230.2498
1277.539, 230.9693
1278.021, 231.6648
1278.503, 232.3570
1278.985, 232.5838
1279.467, 232.0263
1279.950, 231.3929
1280.432, 231.7428
1280.914, 232.6378
1281.396, 233.0049
1281.878, 232.9190
1282.360, 233.2603
1282.842, 234.8222
1283.324, 235.6930
1283.807, 235.5021
1284.289, 235.1191
1284.771, 235.7278
1285.253, 236.4964
1285.735, 235.9883
1286.217, 234.6118
1286.699, 234.1981
1287.181, 235.2441
1287.663, 235.6614
1288.146, 235.2118
1288.628, 234.7093
1289.110, 234.9280
1289.592, 235.2991
1290.074, 235.4324
1290.556, 235.3142
1291.038, 234.8547
1291.520, 233.9791
1292.002, 234.0977
1292.485, 235.2404
1292.967, 236.2326
1293.449, 235.9313
1293.931, 235.7100
1294.413, 236.5380
1294.895, 237.6240
1295.377, 238.1878
1295.859, 238.2693
1296.342, 237.9939
1296.824, 237.4701
1297.306, 237.2352
1297.788, 237.6415
1298.270, 238.2873
1298.752, 239.3234
1299.234, 240.1291
1299.716, 239.8501
1300.198, 239.0466
1300.681, 239.3374
1301.163, 240.3531
1301.645, 241.0264
1302.127, 241.0075
##END=



