##NAMES=Hentschelite
##RRUFFID=R061015
##IDEAL CHEMISTRY=Cu^2+^Fe^3+^_2_(PO_4_)_2_(OH)_2_
##LOCALITY=Spring Creek Copper mine, South Australia, Australia
##OWNER=RRUFF
##SOURCE=Michael Scott
##DESCRIPTION=Dark green platy crystals in radial aggregates associated with quartz and malachite
##STATUS=The identification of this mineral is confirmed by single-crystal X-ray diffraction and chemical analysis.
##URL=rruff.info/R061015
##MEASURED CHEMISTRY=(Cu_0.91_Fe^2+^_0.08_Mn_0.01_)_Î£=1_Fe^3+^_2.00_(P_1.00_O_4_)_2_(OH)_2_; OH estimated by charge balance; Fe^2+^ by charge balance and stoichiometry
193.8456, 3328.285
194.3277, 3334.463
194.8099, 3337.443
195.2920, 3332.720
195.7741, 3323.658
196.2562, 3314.152
196.7383, 3302.972
197.2204, 3296.102
197.7026, 3299.111
198.1847, 3309.735
198.6668, 3324.906
199.1489, 3351.737
199.6310, 3379.826
200.1131, 3391.405
200.5953, 3382.977
201.0774, 3370.083
201.5595, 3361.863
202.0416, 3357.075
202.5237, 3354.371
203.0058, 3353.996
203.4880, 3355.175
203.9701, 3357.302
204.4522, 3360.712
204.9343, 3363.342
205.4164, 3360.432
205.8985, 3355.911
206.3807, 3357.709
206.8628, 3372.083
207.3449, 3391.391
207.8270, 3408.224
208.3091, 3423.486
208.7912, 3430.062
209.2734, 3413.115
209.7555, 3385.802
210.2376, 3372.296
210.7197, 3383.814
211.2018, 3406.286
211.6839, 3423.943
212.1661, 3436.254
212.6482, 3450.416
213.1303, 3475.032
213.6124, 3502.825
214.0945, 3520.149
214.5766, 3518.506
215.0588, 3512.654
215.5409, 3517.619
216.0230, 3533.583
216.5051, 3550.203
216.9872, 3560.235
217.4693, 3568.750
217.9515, 3585.542
218.4336, 3618.313
218.9157, 3649.932
219.3978, 3666.132
219.8799, 3667.443
220.3620, 3661.714
220.8442, 3647.825
221.3263, 3631.260
221.8084, 3621.883
222.2905, 3622.550
222.7726, 3625.584
223.2547, 3626.319
223.7369, 3624.903
224.2190, 3622.793
224.7011, 3621.348
225.1832, 3618.490
225.6653, 3610.307
226.1474, 3594.049
226.6296, 3579.735
227.1117, 3573.234
227.5938, 3573.448
228.0759, 3578.036
228.5580, 3590.185
229.0401, 3600.941
229.5223, 3592.967
230.0044, 3560.297
230.4865, 3535.461
230.9686, 3538.653
231.4507, 3560.337
231.9328, 3577.391
232.4150, 3582.317
232.8971, 3582.748
233.3792, 3591.349
233.8613, 3609.316
234.3434, 3622.901
234.8255, 3620.208
235.3077, 3611.925
235.7898, 3618.228
236.2719, 3645.721
236.7540, 3679.395
237.2361, 3699.891
237.7182, 3706.542
238.2004, 3715.425
238.6825, 3733.721
239.1646, 3754.152
239.6467, 3764.949
240.1288, 3763.681
240.6109, 3763.951
241.0931, 3781.345
241.5752, 3817.451
242.0573, 3851.377
242.5394, 3886.805
243.0215, 3916.380
243.5036, 3930.134
243.9858, 3928.171
244.4679, 3923.891
244.9500, 3927.350
245.4321, 3939.541
245.9142, 3958.363
246.3963, 3988.195
246.8785, 4020.727
247.3606, 4049.358
247.8427, 4074.968
248.3248, 4105.129
248.8069, 4146.940
249.2890, 4198.762
249.7712, 4239.263
250.2533, 4266.087
250.7354, 4285.643
251.2175, 4292.817
251.6996, 4293.869
252.1817, 4305.146
252.6639, 4337.798
253.1460, 4386.191
253.6281, 4420.912
254.1102, 4431.920
254.5923, 4442.771
255.0744, 4458.130
255.5566, 4476.760
256.0387, 4496.989
256.5208, 4518.132
257.0029, 4539.363
257.4850, 4558.287
257.9671, 4581.160
258.4492, 4593.571
258.9314, 4589.417
259.4135, 4576.914
259.8956, 4563.414
260.3777, 4551.518
260.8598, 4541.380
261.3419, 4533.166
261.8241, 4528.145
262.3062, 4523.183
262.7883, 4521.135
263.2704, 4517.322
263.7525, 4505.980
264.2346, 4487.317
264.7168, 4468.800
265.1989, 4461.400
265.6810, 4472.862
266.1631, 4468.601
266.6452, 4442.269
267.1273, 4408.090
267.6095, 4364.749
268.0916, 4317.916
268.5737, 4282.299
269.0558, 4274.675
269.5379, 4297.401
270.0201, 4304.416
270.5022, 4284.855
270.9843, 4258.409
271.4664, 4220.859
271.9485, 4180.549
272.4306, 4152.928
272.9128, 4150.584
273.3949, 4168.205
273.8770, 4177.875
274.3591, 4178.882
274.8412, 4171.749
275.3233, 4147.753
275.8055, 4119.431
276.2876, 4104.224
276.7697, 4111.729
277.2518, 4130.610
277.7339, 4135.896
278.2160, 4120.653
278.6982, 4110.498
279.1803, 4120.060
279.6624, 4133.501
280.1445, 4136.104
280.6266, 4123.254
281.1087, 4107.124
281.5909, 4101.653
282.0730, 4107.438
282.5551, 4116.502
283.0372, 4130.107
283.5193, 4144.224
284.0014, 4158.205
284.4836, 4171.862
284.9657, 4177.711
285.4478, 4162.519
285.9299, 4132.238
286.4120, 4117.927
286.8941, 4128.481
287.3763, 4148.885
287.8584, 4169.988
288.3405, 4190.868
288.8226, 4204.768
289.3047, 4201.569
289.7868, 4191.934
290.2690, 4194.439
290.7511, 4211.545
291.2332, 4234.210
291.7153, 4262.041
292.1974, 4290.704
292.6795, 4303.763
293.1617, 4283.632
293.6438, 4258.329
294.1259, 4252.885
294.6080, 4265.579
295.0901, 4278.970
295.5722, 4283.371
296.0544, 4281.052
296.5365, 4281.040
297.0186, 4279.468
297.5007, 4284.380
297.9828, 4305.323
298.4649, 4334.643
298.9471, 4355.013
299.4292, 4358.615
299.9113, 4354.279
300.3934, 4361.087
300.8755, 4384.813
301.3576, 4408.422
301.8398, 4435.401
302.3219, 4458.840
302.8040, 4469.393
303.2861, 4465.730
303.7682, 4456.668
304.2503, 4451.905
304.7325, 4449.310
305.2146, 4460.721
305.6967, 4502.585
306.1788, 4542.415
306.6609, 4559.104
307.1430, 4555.948
307.6252, 4551.567
308.1073, 4562.169
308.5894, 4587.442
309.0715, 4602.110
309.5536, 4594.627
310.0357, 4588.360
310.5179, 4587.708
311.0000, 4591.766
311.4821, 4598.894
311.9642, 4608.500
312.4463, 4619.742
312.9284, 4632.195
313.4106, 4655.977
313.8927, 4660.142
314.3748, 4627.064
314.8569, 4582.149
315.3390, 4545.683
315.8211, 4523.205
316.3033, 4509.233
316.7854, 4499.343
317.2675, 4494.514
317.7496, 4484.617
318.2317, 4460.688
318.7138, 4438.025
319.1960, 4429.671
319.6781, 4433.643
320.1602, 4434.030
320.6423, 4414.215
321.1244, 4381.396
321.6065, 4362.549
322.0887, 4361.634
322.5708, 4368.880
323.0529, 4383.855
323.5350, 4401.950
324.0171, 4412.019
324.4992, 4406.850
324.9814, 4394.745
325.4635, 4381.326
325.9456, 4366.715
326.4277, 4360.616
326.9098, 4371.892
327.3919, 4393.481
327.8741, 4406.404
328.3562, 4408.881
328.8383, 4406.246
329.3204, 4399.387
329.8025, 4389.301
330.2846, 4376.493
330.7668, 4360.413
331.2489, 4345.996
331.7310, 4343.270
332.2131, 4361.054
332.6952, 4365.654
333.1773, 4349.135
333.6595, 4322.341
334.1416, 4287.458
334.6237, 4248.160
335.1058, 4219.721
335.5879, 4218.402
336.0700, 4247.308
336.5522, 4266.244
337.0343, 4269.042
337.5164, 4269.772
337.9985, 4272.590
338.4806, 4276.966
338.9627, 4281.583
339.4449, 4285.872
339.9270, 4289.045
340.4091, 4288.673
340.8912, 4285.975
341.3733, 4276.902
341.8554, 4256.904
342.3376, 4233.468
342.8197, 4210.703
343.3018, 4190.324
343.7839, 4176.350
344.2660, 4177.095
344.7481, 4195.058
345.2303, 4206.372
345.7124, 4207.186
346.1945, 4201.786
346.6766, 4188.867
347.1587, 4170.935
347.6408, 4157.042
348.1230, 4157.974
348.6051, 4166.521
349.0872, 4161.257
349.5693, 4137.775
350.0514, 4115.063
350.5335, 4108.810
351.0157, 4110.183
351.4978, 4103.329
351.9799, 4080.858
352.4620, 4055.692
352.9441, 4041.479
353.4262, 4034.797
353.9084, 4017.388
354.3905, 3978.432
354.8726, 3931.367
355.3547, 3905.057
355.8368, 3904.565
356.3189, 3900.520
356.8011, 3884.863
357.2832, 3863.112
357.7653, 3839.112
358.2474, 3814.201
358.7295, 3793.448
359.2116, 3783.896
359.6938, 3788.757
360.1759, 3776.934
360.6580, 3728.173
361.1401, 3685.878
361.6222, 3673.974
362.1043, 3682.381
362.5865, 3688.074
363.0686, 3677.662
363.5507, 3656.612
364.0328, 3643.786
364.5149, 3641.696
364.9970, 3644.490
365.4792, 3661.255
365.9613, 3676.088
366.4434, 3672.225
366.9255, 3647.363
367.4076, 3617.852
367.8897, 3601.701
368.3719, 3599.601
368.8540, 3599.981
369.3361, 3602.327
369.8182, 3607.277
370.3003, 3617.046
370.7824, 3629.645
371.2646, 3639.665
371.7467, 3643.503
372.2288, 3643.602
372.7109, 3642.614
373.1930, 3639.867
373.6751, 3641.936
374.1573, 3653.465
374.6394, 3671.586
375.1215, 3691.443
375.6036, 3717.201
376.0857, 3735.373
376.5678, 3731.777
377.0500, 3716.051
377.5321, 3710.849
378.0142, 3723.278
378.4963, 3739.595
378.9784, 3741.980
379.4605, 3725.755
379.9427, 3713.424
380.4248, 3706.928
380.9069, 3703.025
381.3890, 3699.940
381.8711, 3697.554
382.3532, 3696.943
382.8354, 3699.558
383.3175, 3703.873
383.7996, 3700.187
384.2817, 3675.873
384.7638, 3658.945
385.2459, 3659.676
385.7281, 3665.551
386.2102, 3663.033
386.6923, 3648.480
387.1744, 3629.686
387.6565, 3615.394
388.1386, 3605.002
388.6208, 3603.296
389.1029, 3619.995
389.5850, 3636.120
390.0671, 3639.726
390.5492, 3634.278
391.0313, 3631.473
391.5135, 3640.618
391.9956, 3654.897
392.4777, 3661.172
392.9598, 3658.874
393.4419, 3651.865
393.9240, 3638.458
394.4062, 3623.017
394.8883, 3613.840
395.3704, 3613.731
395.8525, 3613.779
396.3346, 3609.170
396.8167, 3601.609
397.2989, 3594.693
397.7810, 3589.371
398.2631, 3583.544
398.7452, 3574.623
399.2273, 3561.853
399.7094, 3549.797
400.1916, 3544.050
400.6737, 3533.909
401.1558, 3506.961
401.6379, 3470.544
402.1200, 3444.342
402.6021, 3440.385
403.0843, 3451.278
403.5664, 3450.758
404.0485, 3429.343
404.5306, 3411.592
405.0127, 3404.423
405.4948, 3398.295
405.9770, 3383.866
406.4591, 3360.663
406.9412, 3337.810
407.4233, 3324.855
407.9054, 3321.368
408.3875, 3318.369
408.8697, 3316.663
409.3518, 3313.901
409.8339, 3310.527
410.3160, 3305.088
410.7981, 3293.873
411.2802, 3270.892
411.7624, 3248.130
412.2445, 3239.710
412.7266, 3243.820
413.2087, 3247.758
413.6908, 3247.548
414.1729, 3244.460
414.6551, 3240.626
415.1372, 3236.666
415.6193, 3229.612
416.1014, 3214.941
416.5835, 3199.516
417.0656, 3189.854
417.5478, 3186.182
418.0299, 3185.553
418.5120, 3186.385
418.9941, 3188.232
419.4762, 3186.015
419.9583, 3169.005
420.4405, 3160.867
420.9226, 3177.953
421.4047, 3199.529
421.8868, 3198.667
422.3689, 3168.784
422.8510, 3132.542
423.3332, 3122.565
423.8153, 3143.157
424.2974, 3155.041
424.7795, 3152.716
425.2616, 3145.242
425.7437, 3132.843
426.2259, 3119.141
426.7080, 3113.215
427.1901, 3125.150
427.6722, 3141.074
428.1543, 3140.121
428.6364, 3122.696
429.1186, 3104.989
429.6007, 3090.694
430.0828, 3082.109
430.5649, 3084.072
431.0470, 3098.231
431.5291, 3113.507
432.0113, 3133.769
432.4934, 3149.782
432.9755, 3148.253
433.4576, 3129.723
433.9397, 3108.427
434.4218, 3094.954
434.9040, 3089.208
435.3861, 3088.966
435.8682, 3099.566
436.3503, 3109.328
436.8324, 3116.466
437.3145, 3121.707
437.7967, 3125.978
438.2788, 3129.573
438.7609, 3132.063
439.2430, 3131.283
439.7251, 3126.169
440.2072, 3128.365
440.6894, 3145.560
441.1715, 3161.366
441.6536, 3166.923
442.1357, 3164.757
442.6178, 3160.827
443.0999, 3155.949
443.5821, 3151.965
444.0642, 3150.898
444.5463, 3152.672
445.0284, 3157.739
445.5105, 3168.613
445.9926, 3179.365
446.4748, 3177.457
446.9569, 3159.408
447.4390, 3149.130
447.9211, 3154.584
448.4032, 3166.536
448.8853, 3178.183
449.3675, 3188.939
449.8496, 3201.526
450.3317, 3218.619
450.8138, 3237.940
451.2959, 3246.636
451.7780, 3236.285
452.2602, 3226.830
452.7423, 3214.457
453.2244, 3207.585
453.7065, 3217.979
454.1886, 3245.238
454.6707, 3272.207
455.1529, 3280.256
455.6350, 3271.528
456.1171, 3265.741
456.5992, 3261.547
457.0813, 3263.514
457.5634, 3279.933
458.0455, 3302.984
458.5276, 3320.214
459.0098, 3327.177
459.4919, 3332.124
459.9740, 3342.004
460.4561, 3354.094
460.9382, 3361.191
461.4203, 3361.265
461.9025, 3357.940
462.3846, 3354.439
462.8667, 3350.050
463.3488, 3351.389
463.8309, 3364.113
464.3130, 3376.342
464.7952, 3382.172
465.2773, 3383.897
465.7594, 3385.737
466.2415, 3389.615
466.7236, 3395.275
467.2057, 3401.941
467.6879, 3408.939
468.1700, 3419.407
468.6521, 3443.705
469.1342, 3462.279
469.6163, 3458.205
470.0984, 3438.458
470.5806, 3427.176
471.0627, 3442.217
471.5448, 3468.691
472.0269, 3485.440
472.5090, 3492.628
472.9911, 3492.926
473.4733, 3482.948
473.9554, 3471.646
474.4375, 3479.581
474.9196, 3513.846
475.4017, 3534.351
475.8839, 3520.259
476.3660, 3499.540
476.8481, 3496.371
477.3302, 3510.193
477.8123, 3528.247
478.2944, 3542.458
478.7766, 3552.909
479.2587, 3559.396
479.7408, 3560.227
480.2229, 3559.800
480.7050, 3555.942
481.1871, 3553.124
481.6693, 3556.853
482.1514, 3566.544
482.6335, 3574.270
483.1156, 3571.422
483.5977, 3561.555
484.0798, 3557.372
484.5620, 3560.331
485.0441, 3562.698
485.5262, 3562.285
486.0083, 3557.605
486.4904, 3544.607
486.9725, 3515.022
487.4547, 3496.502
487.9368, 3513.507
488.4189, 3540.789
488.9010, 3542.010
489.3831, 3513.924
489.8652, 3483.150
490.3474, 3473.405
490.8295, 3483.025
491.3116, 3483.748
491.7937, 3467.576
492.2758, 3451.689
492.7579, 3435.987
493.2401, 3423.119
493.7222, 3416.243
494.2043, 3415.801
494.6864, 3417.786
495.1685, 3419.166
495.6506, 3419.820
496.1328, 3419.431
496.6149, 3419.064
497.0970, 3414.629
497.5791, 3400.850
498.0612, 3381.891
498.5433, 3366.219
499.0255, 3355.133
499.5076, 3346.167
499.9897, 3338.977
500.4718, 3332.837
500.9539, 3325.865
501.4360, 3317.932
501.9182, 3312.041
502.4003, 3311.354
502.8824, 3315.925
503.3645, 3320.689
503.8466, 3329.099
504.3287, 3333.564
504.8109, 3326.575
505.2930, 3317.994
505.7751, 3321.398
506.2572, 3339.377
506.7393, 3357.281
507.2214, 3359.326
507.7036, 3347.012
508.1857, 3329.692
508.6678, 3303.105
509.1499, 3284.544
509.6320, 3293.801
510.1141, 3317.159
510.5963, 3322.529
511.0784, 3291.049
511.5605, 3246.269
512.0426, 3274.037
512.5247, 3288.956
513.0068, 3291.717
513.4890, 3245.901
513.9711, 3262.811
514.4532, 3260.638
514.9353, 3301.620
515.4174, 3323.407
515.8995, 3307.813
516.3817, 3294.448
516.8638, 3292.800
517.3459, 3294.990
517.8280, 3292.676
518.3101, 3284.053
518.7922, 3273.612
519.2744, 3264.655
519.7565, 3257.207
520.2386, 3252.403
520.7207, 3251.678
521.2028, 3247.390
521.6849, 3232.267
522.1671, 3211.133
522.6492, 3197.788
523.1313, 3198.290
523.6134, 3195.112
524.0955, 3179.684
524.5776, 3159.335
525.0598, 3141.102
525.5419, 3126.392
526.0240, 3114.925
526.5061, 3106.982
526.9882, 3101.754
527.4703, 3093.219
527.9525, 3079.716
528.4346, 3065.538
528.9167, 3049.812
529.3988, 3035.026
529.8809, 3024.796
530.3630, 3018.905
530.8452, 3010.780
531.3273, 2992.785
531.8094, 2970.636
532.2915, 2955.343
532.7736, 2947.224
533.2557, 2943.623
533.7379, 2945.661
534.2200, 2948.858
534.7021, 2941.857
535.1842, 2919.167
535.6663, 2900.138
536.1484, 2887.121
536.6306, 2878.061
537.1127, 2873.398
537.5948, 2871.470
538.0769, 2868.808
538.5590, 2863.407
539.0411, 2855.336
539.5233, 2842.180
540.0054, 2819.625
540.4875, 2810.324
540.9696, 2833.853
541.4517, 2856.887
541.9338, 2850.894
542.4160, 2821.491
542.8981, 2797.873
543.3802, 2793.186
543.8623, 2796.914
544.3444, 2801.909
544.8265, 2807.509
545.3087, 2813.252
545.7908, 2819.513
546.2729, 2820.733
546.7550, 2806.465
547.2371, 2768.285
547.7192, 2751.989
548.2014, 2779.685
548.6835, 2802.944
549.1656, 2801.493
549.6477, 2785.732
550.1298, 2771.900
550.6119, 2765.794
551.0941, 2761.961
551.5762, 2752.904
552.0583, 2739.828
552.5404, 2731.959
553.0225, 2731.115
553.5046, 2732.794
553.9868, 2737.239
554.4689, 2741.517
554.9510, 2735.198
555.4331, 2706.973
555.9152, 2684.168
556.3973, 2676.359
556.8795, 2677.822
557.3616, 2685.079
557.8437, 2695.871
558.3258, 2704.739
558.8079, 2706.850
559.2900, 2703.284
559.7722, 2700.780
560.2543, 2700.951
560.7364, 2698.516
561.2185, 2689.841
561.7006, 2679.529
562.1827, 2669.993
562.6649, 2661.608
563.1470, 2656.380
563.6291, 2660.684
564.1112, 2664.976
564.5933, 2653.633
565.0754, 2630.414
565.5576, 2615.482
566.0397, 2618.010
566.5218, 2630.222
567.0039, 2639.588
567.4860, 2648.374
567.9681, 2647.137
568.4503, 2616.693
568.9324, 2597.497
569.4145, 2620.360
569.8966, 2662.673
570.3787, 2683.833
570.8608, 2666.718
571.3430, 2638.422
571.8251, 2631.329
572.3072, 2641.747
572.7893, 2647.436
573.2714, 2643.639
573.7535, 2643.962
574.2357, 2662.244
574.7178, 2693.248
575.1999, 2709.549
575.6820, 2699.861
576.1641, 2691.292
576.6462, 2691.107
577.1284, 2693.960
577.6105, 2696.418
578.0926, 2696.942
578.5747, 2692.687
579.0568, 2680.108
579.5389, 2662.610
580.0211, 2651.443
580.5032, 2646.291
580.9853, 2649.295
581.4674, 2667.825
581.9495, 2688.496
582.4316, 2698.856
582.9138, 2699.369
583.3959, 2696.818
583.8780, 2688.379
584.3601, 2681.780
584.8422, 2682.783
585.3243, 2690.146
585.8065, 2702.623
586.2886, 2719.602
586.7707, 2735.190
587.2528, 2740.979
587.7349, 2735.925
588.2170, 2730.535
588.6992, 2720.374
589.1813, 2716.264
589.6634, 2724.304
590.1455, 2738.414
590.6276, 2753.336
591.1097, 2768.490
591.5919, 2777.463
592.0740, 2769.197
592.5561, 2754.964
593.0382, 2755.649
593.5203, 2771.003
594.0024, 2783.249
594.4846, 2781.393
594.9667, 2772.966
595.4488, 2777.607
595.9309, 2810.135
596.4130, 2826.479
596.8951, 2811.183
597.3773, 2796.613
597.8594, 2798.961
598.3415, 2814.764
598.8236, 2835.620
599.3057, 2859.572
599.7878, 2881.678
600.2700, 2892.964
600.7521, 2896.858
601.2342, 2909.782
601.7163, 2935.571
602.1984, 2961.541
602.6805, 2977.821
603.1627, 2985.591
603.6448, 2992.962
604.1269, 2998.022
604.6090, 3005.294
605.0911, 3017.332
605.5732, 3030.347
606.0554, 3042.909
606.5375, 3053.616
607.0196, 3058.704
607.5017, 3053.350
607.9838, 3044.312
608.4659, 3046.750
608.9481, 3060.791
609.4302, 3074.408
609.9123, 3087.087
610.3944, 3093.570
610.8765, 3085.639
611.3586, 3063.448
611.8408, 3046.886
612.3229, 3045.971
612.8050, 3039.509
613.2871, 3011.936
613.7692, 2978.579
614.2513, 2960.492
614.7335, 2959.979
615.2156, 2960.629
615.6977, 2945.452
616.1798, 2919.678
616.6619, 2908.332
617.1440, 2915.206
617.6262, 2916.180
618.1083, 2899.860
618.5904, 2877.637
619.0725, 2864.860
619.5546, 2861.614
620.0367, 2855.036
620.5189, 2837.052
621.0010, 2821.165
621.4831, 2820.111
621.9652, 2825.061
622.4473, 2819.513
622.9294, 2798.926
623.4116, 2774.050
623.8937, 2756.868
624.3758, 2747.042
624.8579, 2739.886
625.3400, 2737.764
625.8221, 2731.627
626.3043, 2713.193
626.7864, 2691.920
627.2685, 2681.725
627.7506, 2684.354
628.2327, 2685.240
628.7148, 2678.595
629.1970, 2670.562
629.6791, 2665.137
630.1612, 2662.073
630.6433, 2661.518
631.1254, 2663.344
631.6075, 2662.997
632.0897, 2652.023
632.5718, 2629.568
633.0539, 2613.931
633.5360, 2605.281
634.0181, 2603.382
634.5002, 2619.192
634.9824, 2636.284
635.4645, 2627.903
635.9466, 2586.083
636.4287, 2552.213
636.9108, 2542.025
637.3929, 2543.369
637.8751, 2551.826
638.3572, 2562.644
638.8393, 2565.207
639.3214, 2554.810
639.8035, 2539.443
640.2856, 2532.201
640.7678, 2534.036
641.2499, 2533.003
641.7320, 2527.701
642.2141, 2522.033
642.6962, 2521.855
643.1783, 2520.852
643.6605, 2506.601
644.1426, 2472.544
644.6247, 2448.739
645.1068, 2452.635
645.5889, 2464.931
646.0710, 2471.205
646.5532, 2470.815
647.0353, 2465.556
647.5174, 2456.210
647.9995, 2445.628
648.4816, 2438.479
648.9637, 2434.970
649.4459, 2432.966
649.9280, 2434.808
650.4101, 2432.980
650.8922, 2416.329
651.3743, 2396.344
651.8564, 2395.608
652.3386, 2424.305
652.8207, 2440.108
653.3028, 2414.361
653.7849, 2384.037
654.2670, 2385.196
654.7491, 2407.837
655.2313, 2419.478
655.7134, 2405.111
656.1955, 2382.947
656.6776, 2383.079
657.1597, 2405.632
657.6418, 2418.199
658.1240, 2416.620
658.6061, 2412.965
659.0882, 2412.793
659.5703, 2414.876
660.0524, 2415.644
660.5345, 2387.913
661.0167, 2412.485
661.4988, 2424.209
661.9809, 2423.774
662.4630, 2374.764
662.9451, 2388.479
663.4272, 2377.057
663.9094, 2364.603
664.3915, 2387.146
664.8736, 2345.202
665.3557, 2367.190
665.8378, 2363.657
666.3199, 2371.805
666.8021, 2354.659
667.2842, 2345.327
667.7663, 2361.294
668.2484, 2363.253
668.7305, 2343.196
669.2126, 2352.087
669.6948, 2309.257
670.1769, 2311.813
670.6590, 2333.949
671.1411, 2315.164
671.6232, 2324.517
672.1053, 2323.154
672.5875, 2285.810
673.0696, 2288.953
673.5517, 2303.126
674.0338, 2315.345
674.5159, 2325.412
674.9980, 2329.267
675.4802, 2323.558
675.9623, 2313.889
676.4444, 2309.017
676.9265, 2309.296
677.4086, 2313.363
677.8907, 2328.338
678.3729, 2338.563
678.8550, 2335.559
679.3371, 2326.470
679.8192, 2319.891
680.3013, 2317.551
680.7834, 2315.844
681.2656, 2311.679
681.7477, 2306.662
682.2298, 2302.891
682.7119, 2300.559
683.1940, 2301.788
683.6761, 2307.914
684.1583, 2312.924
684.6404, 2308.394
685.1225, 2293.501
685.6046, 2284.285
686.0867, 2284.837
686.5688, 2285.511
687.0510, 2286.229
687.5331, 2284.887
688.0152, 2277.970
688.4973, 2266.187
688.9794, 2256.741
689.4615, 2250.452
689.9437, 2250.004
690.4258, 2262.862
690.9079, 2282.283
691.3900, 2294.442
691.8721, 2296.049
692.3542, 2290.737
692.8364, 2280.751
693.3185, 2267.437
693.8006, 2258.720
694.2827, 2255.194
694.7648, 2254.240
695.2469, 2255.578
695.7291, 2259.123
696.2112, 2266.992
696.6933, 2277.440
697.1754, 2282.883
697.6575, 2278.052
698.1396, 2273.316
698.6218, 2273.385
699.1039, 2275.146
699.5860, 2275.597
700.0681, 2274.382
700.5502, 2272.692
701.0323, 2271.746
701.5145, 2269.024
701.9966, 2257.929
702.4787, 2239.016
702.9608, 2224.173
703.4429, 2214.897
703.9250, 2210.342
704.4072, 2211.813
704.8893, 2216.901
705.3714, 2217.485
705.8535, 2212.281
706.3356, 2204.954
706.8177, 2190.456
707.2999, 2178.935
707.7820, 2177.041
708.2641, 2182.058
708.7462, 2189.223
709.2283, 2197.186
709.7104, 2203.604
710.1926, 2205.582
710.6747, 2204.889
711.1568, 2206.233
711.6389, 2209.120
712.1210, 2207.245
712.6031, 2197.415
713.0853, 2183.284
713.5674, 2169.743
714.0495, 2155.647
714.5316, 2149.844
715.0137, 2154.652
715.4958, 2164.375
715.9780, 2184.547
716.4601, 2203.959
716.9422, 2209.372
717.4243, 2200.075
717.9064, 2190.846
718.3885, 2186.393
718.8707, 2184.181
719.3528, 2181.020
719.8349, 2179.370
720.3170, 2187.305
720.7991, 2204.312
721.2813, 2214.771
721.7634, 2202.410
722.2455, 2175.567
722.7276, 2160.328
723.2097, 2157.040
723.6918, 2162.547
724.1740, 2180.874
724.6561, 2196.669
725.1382, 2194.977
725.6203, 2178.045
726.1024, 2165.437
726.5845, 2155.125
727.0667, 2151.492
727.5488, 2164.212
728.0309, 2175.696
728.5130, 2168.683
728.9951, 2150.419
729.4772, 2142.192
729.9594, 2154.718
730.4415, 2169.977
730.9236, 2169.892
731.4057, 2160.808
731.8878, 2154.094
732.3699, 2151.006
732.8521, 2152.568
733.3342, 2160.070
733.8163, 2167.742
734.2984, 2163.131
734.7805, 2142.275
735.2626, 2133.786
735.7448, 2144.582
736.2269, 2155.664
736.7090, 2160.920
737.1911, 2161.656
737.6732, 2158.963
738.1553, 2152.788
738.6375, 2144.911
739.1196, 2132.102
739.6017, 2121.631
740.0838, 2118.056
740.5659, 2119.048
741.0480, 2121.941
741.5302, 2125.861
742.0123, 2130.726
742.4944, 2138.380
742.9765, 2144.623
743.4586, 2139.443
743.9407, 2124.049
744.4229, 2106.541
744.9050, 2087.316
745.3871, 2078.098
745.8692, 2091.399
746.3513, 2121.169
746.8334, 2137.338
747.3156, 2133.062
747.7977, 2128.002
748.2798, 2116.447
748.7619, 2111.031
749.2440, 2124.685
749.7261, 2147.079
750.2083, 2158.439
750.6904, 2153.231
751.1725, 2142.949
751.6546, 2126.598
752.1367, 2113.086
752.6188, 2115.576
753.1010, 2127.736
753.5831, 2132.740
754.0652, 2124.585
754.5473, 2111.185
755.0294, 2099.836
755.5115, 2091.073
755.9937, 2090.031
756.4758, 2097.636
756.9579, 2099.088
757.4400, 2086.827
757.9221, 2074.242
758.4042, 2077.703
758.8864, 2097.165
759.3685, 2109.521
759.8506, 2111.187
760.3327, 2110.251
760.8148, 2106.222
761.2969, 2100.941
761.7791, 2095.185
762.2612, 2089.298
762.7433, 2083.877
763.2254, 2079.392
763.7075, 2074.830
764.1896, 2069.265
764.6718, 2063.351
765.1539, 2056.988
765.6360, 2050.981
766.1181, 2047.144
766.6002, 2046.298
767.0823, 2049.873
767.5645, 2064.396
768.0466, 2088.006
768.5287, 2094.010
769.0108, 2079.167
769.4929, 2064.277
769.9750, 2056.076
770.4572, 2054.455
770.9393, 2061.207
771.4214, 2078.013
771.9035, 2086.831
772.3856, 2083.074
772.8677, 2077.643
773.3499, 2071.210
773.8320, 2064.918
774.3141, 2060.177
774.7962, 2056.525
775.2783, 2050.898
775.7604, 2035.233
776.2426, 2029.110
776.7247, 2057.029
777.2068, 2096.139
777.6889, 2117.936
778.1710, 2120.471
778.6531, 2110.521
779.1353, 2090.885
779.6174, 2071.258
780.0995, 2069.306
780.5816, 2082.627
781.0637, 2089.750
781.5458, 2089.299
782.0280, 2086.684
782.5101, 2083.025
782.9922, 2080.860
783.4743, 2084.643
783.9564, 2095.443
784.4385, 2102.277
784.9207, 2099.670
785.4028, 2100.461
785.8849, 2116.673
786.3670, 2129.340
786.8491, 2116.373
787.3312, 2084.012
787.8134, 2064.067
788.2955, 2073.135
788.7776, 2086.069
789.2597, 2093.752
789.7418, 2095.548
790.2239, 2085.938
790.7061, 2069.739
791.1882, 2062.040
791.6703, 2070.468
792.1524, 2082.882
792.6345, 2082.022
793.1166, 2072.264
793.5988, 2071.417
794.0809, 2079.748
794.5630, 2083.714
795.0451, 2077.614
795.5272, 2066.614
796.0093, 2056.500
796.4915, 2047.239
796.9736, 2044.290
797.4557, 2053.668
797.9378, 2056.700
798.4199, 2041.362
798.9020, 2026.264
799.3842, 2028.518
799.8663, 2043.323
800.3484, 2018.889
800.8305, 2049.460
801.3126, 2067.183
801.7947, 2072.746
802.2769, 2029.735
802.7590, 2049.448
803.2411, 2044.024
803.7232, 2037.569
804.2053, 2066.111
804.6874, 2030.164
805.1696, 2058.151
805.6517, 2060.616
806.1338, 2074.762
806.6159, 2063.615
807.0980, 2060.281
807.5801, 2082.247
808.0623, 2090.204
808.5444, 2076.145
809.0265, 2062.986
809.5086, 2057.978
809.9907, 2058.863
810.4728, 2061.020
810.9550, 2065.152
811.4371, 2066.171
811.9192, 2057.537
812.4013, 2044.472
812.8834, 2043.977
813.3655, 2067.454
813.8477, 2079.504
814.3298, 2073.109
814.8119, 2063.778
815.2940, 2052.033
815.7761, 2043.674
816.2582, 2050.100
816.7404, 2071.769
817.2225, 2083.248
817.7046, 2059.900
818.1867, 2038.419
818.6688, 2051.171
819.1509, 2076.434
819.6331, 2084.364
820.1152, 2072.945
820.5973, 2057.563
821.0794, 2046.702
821.5615, 2038.687
822.0436, 2029.218
822.5258, 2020.676
823.0079, 2023.192
823.4900, 2036.715
823.9721, 2049.114
824.4542, 2054.914
824.9363, 2055.572
825.4185, 2052.907
825.9006, 2046.883
826.3827, 2038.978
826.8648, 2027.152
827.3469, 2019.906
827.8290, 2020.256
828.3111, 2025.188
828.7932, 2035.425
829.2753, 2049.141
829.7574, 2050.972
830.2396, 2027.418
830.7217, 2012.240
831.2038, 2011.843
831.6859, 2016.892
832.1680, 2024.749
832.6501, 2033.265
833.1323, 2041.029
833.6144, 2048.259
834.0965, 2047.629
834.5786, 2028.591
835.0607, 2006.690
835.5428, 1991.544
836.0250, 1983.947
836.5071, 1987.711
836.9892, 2001.076
837.4713, 2012.172
837.9534, 2012.604
838.4355, 2005.927
838.9177, 1994.186
839.3998, 1980.176
839.8819, 1974.340
840.3640, 1977.702
840.8461, 1986.160
841.3282, 1998.181
841.8104, 2009.447
842.2925, 2011.431
842.7746, 2003.638
843.2567, 1997.784
843.7388, 1993.708
844.2209, 1991.925
844.7031, 1992.123
845.1852, 1995.640
845.6673, 2006.224
846.1494, 2022.722
846.6315, 2029.744
847.1136, 2023.301
847.5958, 2012.678
848.0779, 1985.825
848.5600, 1967.599
849.0421, 1981.511
849.5242, 2010.416
850.0063, 2021.392
850.4885, 2006.536
850.9706, 1991.631
851.4527, 1984.766
851.9348, 1981.795
852.4169, 1981.609
852.8990, 1982.875
853.3812, 1984.745
853.8633, 1986.587
854.3454, 1986.290
854.8275, 1980.484
855.3096, 1976.352
855.7917, 1988.074
856.2739, 2004.902
856.7560, 2001.744
857.2381, 1980.680
857.7202, 1964.647
858.2023, 1964.429
858.6844, 1969.732
859.1666, 1964.797
859.6487, 1952.779
860.1308, 1956.113
860.6129, 1975.239
861.0950, 1981.048
861.5771, 1963.621
862.0593, 1942.727
862.5414, 1935.299
863.0235, 1939.621
863.5056, 1950.828
863.9877, 1977.503
864.4698, 1983.045
864.9520, 1951.797
865.4341, 1922.255
865.9162, 1912.084
866.3983, 1915.096
866.8804, 1923.823
867.3625, 1939.806
867.8447, 1949.437
868.3268, 1947.492
868.8089, 1945.379
869.2910, 1947.369
869.7731, 1949.189
870.2552, 1947.213
870.7374, 1941.867
871.2195, 1934.509
871.7016, 1922.610
872.1837, 1916.916
872.6658, 1930.896
873.1479, 1945.403
873.6301, 1942.275
874.1122, 1928.482
874.5943, 1916.446
875.0764, 1910.076
875.5585, 1910.198
876.0406, 1921.397
876.5228, 1934.917
877.0049, 1940.375
877.4870, 1939.575
877.9691, 1935.507
878.4512, 1929.038
878.9333, 1920.245
879.4155, 1908.779
879.8976, 1900.231
880.3797, 1907.464
880.8618, 1925.774
881.3439, 1927.152
881.8260, 1911.819
882.3082, 1906.774
882.7903, 1921.708
883.2724, 1936.829
883.7545, 1932.107
884.2366, 1912.042
884.7188, 1896.415
885.2009, 1884.980
885.6830, 1879.211
886.1651, 1880.047
886.6472, 1885.003
887.1293, 1895.059
887.6115, 1906.096
888.0936, 1910.820
888.5757, 1908.121
889.0578, 1906.102
889.5399, 1900.169
890.0220, 1901.602
890.5042, 1926.803
890.9863, 1946.974
891.4684, 1933.367
891.9505, 1897.809
892.4326, 1878.900
892.9147, 1889.203
893.3969, 1896.484
893.8790, 1889.767
894.3611, 1882.753
894.8432, 1880.165
895.3253, 1883.334
895.8074, 1898.399
896.2896, 1923.208
896.7717, 1937.020
897.2538, 1923.469
897.7359, 1905.714
898.2180, 1896.947
898.7001, 1892.842
899.1823, 1887.797
899.6644, 1883.179
900.1465, 1886.047
900.6286, 1898.995
901.1107, 1908.818
901.5928, 1897.979
902.0750, 1881.372
902.5571, 1883.897
903.0392, 1897.383
903.5213, 1899.403
904.0034, 1887.206
904.4855, 1874.108
904.9677, 1868.121
905.4498, 1869.644
905.9319, 1887.002
906.4140, 1912.747
906.8961, 1907.562
907.3782, 1873.396
907.8604, 1862.139
908.3425, 1893.563
908.8246, 1929.122
909.3067, 1926.202
909.7888, 1895.445
910.2709, 1883.667
910.7531, 1892.713
911.2352, 1894.776
911.7173, 1884.023
912.1994, 1879.388
912.6815, 1895.168
913.1636, 1914.313
913.6458, 1902.837
914.1279, 1855.855
914.6100, 1848.363
915.0921, 1904.039
915.5742, 1939.599
916.0563, 1926.662
916.5385, 1903.943
917.0206, 1903.760
917.5027, 1916.856
917.9848, 1910.004
918.4669, 1863.477
918.9490, 1842.196
919.4312, 1865.565
919.9133, 1889.755
920.3954, 1904.786
920.8775, 1911.959
921.3596, 1911.514
921.8417, 1904.077
922.3239, 1893.887
922.8060, 1873.152
923.2881, 1862.047
923.7702, 1872.400
924.2523, 1885.396
924.7344, 1891.412
925.2166, 1891.524
925.6987, 1887.211
926.1808, 1878.938
926.6629, 1872.752
927.1450, 1871.034
927.6271, 1871.837
928.1093, 1873.275
928.5914, 1877.374
929.0735, 1889.405
929.5556, 1905.430
930.0377, 1914.804
930.5198, 1913.492
931.0020, 1911.370
931.4841, 1917.774
931.9662, 1923.682
932.4483, 1918.754
932.9304, 1908.358
933.4125, 1900.793
933.8947, 1897.329
934.3768, 1895.571
934.8589, 1894.220
935.3410, 1894.271
935.8231, 1900.092
936.3052, 1906.026
936.7874, 1898.104
937.2695, 1882.688
937.7516, 1882.377
938.2337, 1900.787
938.7158, 1914.856
939.1979, 1904.180
939.6801, 1884.713
940.1622, 1885.141
940.6443, 1898.804
941.1264, 1905.307
941.6085, 1904.104
942.0906, 1904.925
942.5728, 1911.595
943.0549, 1919.479
943.5370, 1924.256
944.0191, 1925.529
944.5012, 1918.750
944.9833, 1905.748
945.4655, 1904.969
945.9476, 1918.845
946.4297, 1932.044
946.9118, 1936.532
947.3939, 1934.093
947.8760, 1924.849
948.3582, 1910.528
948.8403, 1912.302
949.3224, 1931.993
949.8045, 1934.413
950.2866, 1909.046
950.7687, 1885.601
951.2509, 1884.307
951.7330, 1899.455
952.2151, 1921.471
952.6972, 1952.721
953.1793, 1963.488
953.6614, 1948.161
954.1436, 1936.217
954.6257, 1936.467
955.1078, 1940.430
955.5899, 1939.687
956.0720, 1937.602
956.5541, 1948.567
957.0363, 1981.237
957.5184, 1995.761
958.0005, 1984.529
958.4826, 1971.579
958.9647, 1962.077
959.4468, 1959.230
959.9290, 1968.016
960.4111, 1986.951
960.8932, 2004.460
961.3753, 2023.976
961.8574, 2034.038
962.3395, 2026.390
962.8217, 2021.216
963.3038, 2027.956
963.7859, 2041.038
964.2680, 2055.072
964.7501, 2070.030
965.2322, 2078.802
965.7144, 2077.669
966.1965, 2076.050
966.6786, 2068.184
967.1607, 2067.115
967.6428, 2088.691
968.1249, 2116.276
968.6071, 2122.375
969.0892, 2104.427
969.5713, 2092.961
970.0534, 2088.600
970.5355, 2091.984
971.0176, 2112.480
971.4998, 2131.412
971.9819, 2133.735
972.4640, 2127.695
972.9461, 2129.220
973.4282, 2140.484
973.9103, 2152.157
974.3925, 2160.511
974.8746, 2172.315
975.3567, 2195.760
975.8388, 2217.445
976.3209, 2223.089
976.8030, 2220.107
977.2852, 2226.604
977.7673, 2246.475
978.2494, 2268.467
978.7315, 2295.931
979.2136, 2317.656
979.6957, 2322.137
980.1779, 2325.299
980.6600, 2342.411
981.1421, 2370.449
981.6242, 2399.444
982.1063, 2430.354
982.5884, 2450.162
983.0706, 2441.561
983.5527, 2437.222
984.0348, 2456.175
984.5169, 2484.807
984.9990, 2510.312
985.4811, 2532.111
985.9633, 2555.141
986.4454, 2583.187
986.9275, 2603.477
987.4096, 2606.327
987.8917, 2605.663
988.3738, 2603.563
988.8560, 2606.346
989.3381, 2626.421
989.8202, 2658.547
990.3023, 2678.534
990.7844, 2674.965
991.2665, 2670.627
991.7487, 2677.821
992.2308, 2683.808
992.7129, 2676.323
993.1950, 2665.362
993.6771, 2664.065
994.1592, 2672.503
994.6414, 2682.795
995.1235, 2695.161
995.6056, 2701.834
996.0877, 2692.108
996.5698, 2683.071
997.0519, 2692.607
997.5341, 2706.848
998.0162, 2702.555
998.4983, 2681.596
998.9804, 2670.167
999.4625, 2682.826
999.9446, 2695.567
1000.427, 2693.741
1000.909, 2691.298
1001.391, 2703.712
1001.873, 2719.138
1002.355, 2717.385
1002.837, 2699.098
1003.319, 2685.724
1003.802, 2689.170
1004.284, 2690.896
1004.766, 2678.839
1005.248, 2665.134
1005.730, 2662.275
1006.212, 2661.842
1006.694, 2647.995
1007.176, 2621.562
1007.659, 2602.213
1008.141, 2600.077
1008.623, 2600.588
1009.105, 2606.178
1009.587, 2602.573
1010.069, 2562.800
1010.551, 2515.945
1011.033, 2511.990
1011.515, 2549.485
1011.998, 2571.099
1012.480, 2547.226
1012.962, 2521.181
1013.444, 2513.085
1013.926, 2508.207
1014.408, 2496.342
1014.890, 2480.648
1015.372, 2465.334
1015.854, 2451.470
1016.337, 2441.013
1016.819, 2438.569
1017.301, 2431.912
1017.783, 2413.391
1018.265, 2392.178
1018.747, 2369.859
1019.229, 2351.245
1019.711, 2342.728
1020.194, 2344.078
1020.676, 2350.054
1021.158, 2370.468
1021.640, 2373.368
1022.122, 2331.948
1022.604, 2287.914
1023.086, 2262.275
1023.568, 2251.586
1024.051, 2254.361
1024.533, 2267.214
1025.015, 2274.351
1025.497, 2268.191
1025.979, 2263.592
1026.461, 2264.317
1026.943, 2267.631
1027.425, 2268.429
1027.907, 2273.549
1028.390, 2297.316
1028.872, 2334.790
1029.354, 2355.993
1029.836, 2347.356
1030.318, 2339.723
1030.800, 2343.373
1031.282, 2343.614
1031.764, 2324.361
1032.246, 2305.619
1032.729, 2311.174
1033.211, 2337.279
1033.693, 2361.384
1034.175, 2384.287
1034.657, 2398.499
1035.139, 2401.131
1035.621, 2397.748
1036.103, 2381.721
1036.586, 2367.595
1037.068, 2370.398
1037.550, 2386.758
1038.032, 2402.333
1038.514, 2421.346
1038.996, 2428.392
1039.478, 2411.939
1039.960, 2399.423
1040.443, 2400.784
1040.925, 2405.572
1041.407, 2407.561
1041.889, 2405.940
1042.371, 2397.319
1042.853, 2377.942
1043.335, 2364.960
1043.817, 2358.915
1044.299, 2358.658
1044.781, 2368.081
1045.264, 2376.899
1045.746, 2377.247
1046.228, 2371.983
1046.710, 2367.518
1047.192, 2363.772
1047.674, 2362.184
1048.156, 2365.213
1048.638, 2362.037
1049.121, 2345.778
1049.603, 2336.095
1050.085, 2350.179
1050.567, 2371.001
1051.049, 2364.849
1051.531, 2331.251
1052.013, 2315.490
1052.495, 2322.238
1052.978, 2317.995
1053.460, 2295.182
1053.942, 2270.871
1054.424, 2253.220
1054.906, 2242.085
1055.388, 2237.271
1055.870, 2238.813
1056.352, 2249.706
1056.834, 2270.102
1057.317, 2284.702
1057.799, 2291.768
1058.281, 2286.064
1058.763, 2264.474
1059.245, 2237.085
1059.727, 2214.313
1060.209, 2196.340
1060.691, 2183.798
1061.173, 2176.529
1061.656, 2175.411
1062.138, 2179.382
1062.620, 2176.989
1063.102, 2164.689
1063.584, 2156.112
1064.066, 2165.093
1064.548, 2180.544
1065.030, 2182.252
1065.513, 2174.157
1065.995, 2162.892
1066.477, 2151.868
1066.959, 2153.329
1067.441, 2168.250
1067.923, 2180.676
1068.405, 2179.842
1068.887, 2172.689
1069.370, 2168.162
1069.852, 2162.103
1070.334, 2142.777
1070.816, 2118.947
1071.298, 2110.450
1071.780, 2117.722
1072.262, 2127.521
1072.744, 2134.447
1073.226, 2135.726
1073.708, 2123.328
1074.191, 2110.351
1074.673, 2111.931
1075.155, 2118.316
1075.637, 2117.643
1076.119, 2109.267
1076.601, 2093.962
1077.083, 2071.223
1077.565, 2057.119
1078.047, 2068.320
1078.530, 2079.067
1079.012, 2070.997
1079.494, 2061.148
1079.976, 2066.029
1080.458, 2079.664
1080.940, 2088.714
1081.422, 2091.263
1081.904, 2096.217
1082.387, 2114.574
1082.869, 2122.428
1083.351, 2104.577
1083.833, 2086.045
1084.315, 2078.958
1084.797, 2079.818
1085.279, 2087.783
1085.761, 2101.260
1086.244, 2102.550
1086.726, 2078.837
1087.208, 2066.483
1087.690, 2071.318
1088.172, 2078.190
1088.654, 2085.168
1089.136, 2088.182
1089.618, 2082.169
1090.100, 2070.070
1090.583, 2060.630
1091.065, 2052.691
1091.547, 2054.803
1092.029, 2069.637
1092.511, 2083.505
1092.993, 2094.128
1093.475, 2099.038
1093.957, 2095.604
1094.439, 2088.759
1094.922, 2087.613
1095.404, 2091.017
1095.886, 2089.827
1096.368, 2084.142
1096.850, 2073.049
1097.332, 2057.115
1097.814, 2051.814
1098.296, 2064.248
1098.779, 2079.655
1099.261, 2082.163
1099.743, 2076.681
1100.225, 2068.602
1100.707, 2062.416
1101.189, 2075.537
1101.671, 2102.400
1102.153, 2119.982
1102.635, 2122.165
1103.118, 2116.591
1103.600, 2106.187
1104.082, 2097.590
1104.564, 2100.412
1105.046, 2106.426
1105.528, 2106.662
1106.010, 2102.368
1106.492, 2091.689
1106.974, 2079.338
1107.457, 2082.968
1107.939, 2112.319
1108.421, 2134.111
1108.903, 2121.712
1109.385, 2108.360
1109.867, 2117.431
1110.349, 2129.773
1110.831, 2124.046
1111.314, 2108.884
1111.796, 2104.016
1112.278, 2112.199
1112.760, 2124.539
1113.242, 2151.647
1113.724, 2164.508
1114.206, 2143.796
1114.688, 2125.765
1115.171, 2128.585
1115.653, 2140.887
1116.135, 2152.123
1116.617, 2161.682
1117.099, 2165.711
1117.581, 2162.176
1118.063, 2159.712
1118.545, 2158.906
1119.027, 2157.469
1119.510, 2154.677
1119.992, 2151.019
1120.474, 2146.100
1120.956, 2142.682
1121.438, 2148.384
1121.920, 2161.379
1122.402, 2161.167
1122.884, 2148.892
1123.366, 2138.782
1123.849, 2133.430
1124.331, 2138.625
1124.813, 2156.907
1125.295, 2168.489
1125.777, 2146.076
1126.259, 2115.656
1126.741, 2130.708
1127.223, 2168.474
1127.706, 2187.844
1128.188, 2187.435
1128.670, 2166.440
1129.152, 2131.266
1129.634, 2113.369
1130.116, 2134.392
1130.598, 2157.386
1131.080, 2152.681
1131.563, 2141.392
1132.045, 2141.086
1132.527, 2143.787
1133.009, 2138.429
1133.491, 2127.150
1133.973, 2117.941
1134.455, 2112.120
1134.937, 2110.937
1135.419, 2117.726
1135.901, 2124.709
1136.384, 2131.416
1136.866, 2136.116
1137.348, 2138.845
1137.830, 2138.101
1138.312, 2128.826
1138.794, 2113.399
1139.276, 2112.195
1139.758, 2132.461
1140.241, 2142.725
1140.723, 2140.425
1141.205, 2133.945
1141.687, 2124.281
1142.169, 2117.218
1142.651, 2117.707
1143.133, 2121.192
1143.615, 2117.632
1144.098, 2109.264
1144.580, 2111.758
1145.062, 2123.011
1145.544, 2129.613
1146.026, 2129.947
1146.508, 2126.799
1146.990, 2121.512
1147.472, 2116.833
1147.954, 2116.438
1148.437, 2115.225
1148.919, 2104.390
1149.401, 2090.505
1149.883, 2083.788
1150.365, 2080.743
1150.847, 2069.440
1151.329, 2053.144
1151.811, 2054.730
1152.293, 2088.455
1152.776, 2110.554
1153.258, 2092.974
1153.740, 2070.022
1154.222, 2049.209
1154.704, 2038.039
1155.186, 2051.263
1155.668, 2074.123
1156.150, 2076.009
1156.633, 2054.934
1157.115, 2051.608
1157.597, 2081.033
1158.079, 2095.139
1158.561, 2089.212
1159.043, 2072.030
1159.525, 2041.452
1160.007, 2014.089
1160.490, 2004.334
1160.972, 2007.237
1161.454, 2013.446
1161.936, 2022.359
1162.418, 2025.226
1162.900, 2022.435
1163.382, 2015.847
1163.864, 2006.730
1164.346, 2004.094
1164.828, 2011.516
1165.311, 2016.558
1165.793, 2005.171
1166.275, 1990.364
1166.757, 1989.994
1167.239, 1996.904
1167.721, 2003.922
1168.203, 2008.912
1168.685, 2007.371
1169.168, 2001.092
1169.650, 2000.129
1170.132, 2009.587
1170.614, 2015.562
1171.096, 2013.117
1171.578, 2005.183
1172.060, 1983.647
1172.542, 1966.642
1173.025, 1971.509
1173.507, 1987.617
1173.989, 1998.839
1174.471, 2004.968
1174.953, 2003.584
1175.435, 1990.078
1175.917, 1984.377
1176.399, 1990.431
1176.881, 1990.963
1177.364, 1979.619
1177.846, 1967.862
1178.328, 1963.414
1178.810, 1966.019
1179.292, 1977.146
1179.774, 1994.255
1180.256, 2011.188
1180.738, 2024.809
1181.220, 2020.368
1181.703, 2000.472
1182.185, 1981.129
1182.667, 1967.588
1183.149, 1956.328
1183.631, 1943.069
1184.113, 1937.182
1184.595, 1954.237
1185.077, 1973.816
1185.560, 1975.381
1186.042, 1971.590
1186.524, 1981.839
1187.006, 1999.683
1187.488, 2003.202
1187.970, 1987.535
1188.452, 1974.740
1188.934, 1963.969
1189.417, 1962.669
1189.899, 1979.143
1190.381, 1991.542
1190.863, 1989.659
1191.345, 1983.548
1191.827, 1982.122
1192.309, 1984.605
1192.791, 1990.082
1193.273, 1998.298
1193.755, 2000.884
1194.238, 1998.176
1194.720, 1992.227
1195.202, 1984.543
1195.684, 1986.676
1196.166, 2002.721
1196.648, 2013.734
1197.130, 1997.963
1197.612, 1981.150
1198.095, 1999.537
1198.577, 2028.696
1199.059, 2041.368
1199.541, 2043.026
1200.023, 2044.791
1200.505, 2046.570
1200.987, 2040.505
1201.469, 2022.802
1201.952, 2013.218
1202.434, 2023.905
1202.916, 2032.252
1203.398, 2027.534
1203.880, 2027.790
1204.362, 2048.442
1204.844, 2066.407
1205.326, 2054.187
1205.808, 2023.458
1206.291, 2012.987
1206.773, 2023.492
1207.255, 2034.169
1207.737, 2045.022
1208.219, 2057.791
1208.701, 2071.923
1209.183, 2075.378
1209.665, 2063.214
1210.147, 2050.491
1210.630, 2053.533
1211.112, 2057.098
1211.594, 2029.027
1212.076, 2002.010
1212.558, 2027.528
1213.040, 2076.068
1213.522, 2099.600
1214.004, 2099.217
1214.487, 2101.120
1214.969, 2111.953
1215.451, 2118.896
1215.933, 2115.795
1216.415, 2113.536
1216.897, 2113.871
1217.379, 2115.375
1217.861, 2114.975
1218.344, 2120.405
1218.826, 2142.540
1219.308, 2171.540
1219.790, 2179.432
1220.272, 2167.252
1220.754, 2154.860
1221.236, 2143.426
1221.718, 2150.627
1222.200, 2175.293
1222.682, 2191.654
1223.165, 2190.632
1223.647, 2183.918
1224.129, 2178.356
1224.611, 2176.416
1225.093, 2179.618
1225.575, 2188.539
1226.057, 2213.555
1226.539, 2236.916
1227.022, 2232.594
1227.504, 2210.298
1227.986, 2196.552
1228.468, 2195.180
1228.950, 2196.879
1229.432, 2201.719
1229.914, 2207.666
1230.396, 2213.325
1230.879, 2225.274
1231.361, 2250.565
1231.843, 2264.522
1232.325, 2246.207
1232.807, 2216.879
1233.289, 2214.268
1233.771, 2229.449
1234.253, 2229.985
1234.735, 2220.939
1235.218, 2216.775
1235.700, 2218.780
1236.182, 2228.112
1236.664, 2242.662
1237.146, 2250.680
1237.628, 2244.934
1238.110, 2241.608
1238.592, 2254.521
1239.074, 2266.405
1239.557, 2264.785
1240.039, 2262.644
1240.521, 2271.607
1241.003, 2284.823
1241.485, 2292.188
1241.967, 2294.850
1242.449, 2298.146
1242.931, 2301.997
1243.414, 2307.603
1243.896, 2315.315
1244.378, 2319.262
1244.860, 2318.469
1245.342, 2324.354
1245.824, 2341.891
1246.306, 2351.059
1246.788, 2329.029
1247.271, 2301.126
1247.753, 2301.464
1248.235, 2314.974
1248.717, 2327.479
1249.199, 2337.000
1249.681, 2340.972
1250.163, 2341.270
1250.645, 2343.703
1251.127, 2349.439
1251.609, 2350.268
1252.092, 2340.531
1252.574, 2332.811
1253.056, 2324.322
1253.538, 2326.236
1254.020, 2346.394
##END=



