##NAMES=Hentschelite
##RRUFFID=R061015
##IDEAL CHEMISTRY=Cu^2+^Fe^3+^_2_(PO_4_)_2_(OH)_2_
##LOCALITY=Spring Creek Copper mine, South Australia, Australia
##OWNER=RRUFF
##SOURCE=Michael Scott
##DESCRIPTION=Dark green platy crystals in radial aggregates associated with quartz and malachite
##STATUS=The identification of this mineral is confirmed by single-crystal X-ray diffraction and chemical analysis.
##URL=rruff.info/R061015
##MEASURED CHEMISTRY=(Cu_0.91_Fe^2+^_0.08_Mn_0.01_)_Î£=1_Fe^3+^_2.00_(P_1.00_O_4_)_2_(OH)_2_; OH estimated by charge balance; Fe^2+^ by charge balance and stoichiometry
163.4663, 2021.862
163.9484, 2026.270
164.4305, 2039.776
164.9126, 2056.458
165.3947, 2072.317
165.8768, 2094.479
166.3590, 2130.111
166.8411, 2176.902
167.3232, 2224.203
167.8053, 2260.659
168.2874, 2296.384
168.7695, 2342.381
169.2517, 2409.726
169.7338, 2483.721
170.2159, 2552.390
170.6980, 2614.818
171.1801, 2682.080
171.6622, 2763.511
172.1444, 2854.524
172.6265, 2947.497
173.1086, 3042.142
173.5907, 3135.493
174.0728, 3225.381
174.5549, 3311.821
175.0371, 3396.305
175.5192, 3484.127
176.0013, 3572.045
176.4834, 3650.780
176.9655, 3721.597
177.4476, 3777.962
177.9298, 3809.479
178.4119, 3814.752
178.8940, 3795.279
179.3761, 3746.596
179.8582, 3672.147
180.3403, 3586.970
180.8224, 3493.966
181.3046, 3397.784
181.7867, 3305.628
182.2688, 3217.542
182.7509, 3137.507
183.2330, 3073.413
183.7151, 3025.959
184.1973, 2987.278
184.6794, 2957.816
185.1615, 2934.096
185.6436, 2903.615
186.1257, 2861.136
186.6078, 2810.920
187.0900, 2762.222
187.5721, 2715.151
188.0542, 2668.413
188.5363, 2619.619
189.0184, 2569.542
189.5005, 2520.573
189.9827, 2475.046
190.4648, 2431.820
190.9469, 2383.151
191.4290, 2328.190
191.9111, 2275.064
192.3932, 2234.260
192.8754, 2205.897
193.3575, 2179.879
193.8396, 2148.612
194.3217, 2113.516
194.8038, 2096.060
195.2859, 2099.902
195.7681, 2113.067
196.2502, 2116.543
196.7323, 2109.257
197.2144, 2103.916
197.6965, 2108.413
198.1786, 2122.803
198.6608, 2133.474
199.1429, 2139.525
199.6250, 2141.962
200.1071, 2140.302
200.5892, 2132.543
201.0714, 2130.746
201.5535, 2143.685
202.0356, 2172.672
202.5177, 2202.516
202.9998, 2233.402
203.4819, 2263.545
203.9641, 2284.247
204.4462, 2292.818
204.9283, 2300.564
205.4104, 2317.414
205.8925, 2346.484
206.3746, 2367.369
206.8568, 2375.469
207.3389, 2373.562
207.8210, 2375.584
208.3031, 2382.347
208.7852, 2391.408
209.2673, 2399.827
209.7494, 2405.938
210.2316, 2418.329
210.7137, 2439.455
211.1958, 2468.844
211.6779, 2501.347
212.1600, 2538.992
212.6421, 2576.917
213.1243, 2608.908
213.6064, 2630.910
214.0885, 2658.403
214.5706, 2697.336
215.0527, 2748.554
215.5348, 2790.407
216.0170, 2819.593
216.4991, 2843.050
216.9812, 2870.079
217.4633, 2904.391
217.9454, 2932.475
218.4275, 2950.648
218.9097, 2958.348
219.3918, 2958.918
219.8739, 2951.791
220.3560, 2938.148
220.8381, 2919.436
221.3202, 2896.014
221.8024, 2867.419
222.2845, 2834.526
222.7666, 2798.504
223.2487, 2752.219
223.7308, 2691.523
224.2129, 2623.383
224.6951, 2559.372
225.1772, 2494.467
225.6593, 2413.304
226.1414, 2416.817
226.6235, 2404.853
227.1056, 2378.243
227.5878, 2293.117
228.0699, 2283.551
228.5520, 2243.706
229.0341, 2202.620
229.5162, 2203.688
229.9983, 2127.077
230.4805, 2127.471
230.9626, 2097.129
231.4447, 2080.857
231.9268, 2034.119
232.4089, 2022.716
232.8910, 2020.855
233.3732, 2018.620
233.8553, 2013.232
234.3374, 1997.358
234.8195, 1994.275
235.3016, 2008.895
235.7837, 2037.272
236.2658, 2064.783
236.7480, 2097.156
237.2301, 2121.278
237.7122, 2126.511
238.1943, 2094.654
238.6764, 2081.858
239.1585, 2096.714
239.6407, 2135.333
240.1228, 2174.270
240.6049, 2215.227
241.0870, 2254.795
241.5691, 2290.809
242.0512, 2322.808
242.5334, 2351.438
243.0155, 2372.261
243.4976, 2387.616
243.9797, 2419.091
244.4618, 2472.419
244.9439, 2534.332
245.4261, 2595.350
245.9082, 2653.326
246.3903, 2714.281
246.8724, 2778.147
247.3545, 2845.082
247.8366, 2919.258
248.3188, 3004.803
248.8009, 3091.721
249.2830, 3171.040
249.7651, 3235.669
250.2472, 3306.361
250.7293, 3388.918
251.2115, 3482.761
251.6936, 3569.730
252.1757, 3649.345
252.6578, 3723.123
253.1399, 3794.158
253.6220, 3863.042
254.1042, 3928.355
254.5863, 3987.710
255.0684, 4041.592
255.5505, 4100.771
256.0326, 4170.965
256.5147, 4239.765
256.9969, 4296.918
257.4790, 4338.941
257.9611, 4377.065
258.4432, 4413.799
258.9253, 4449.172
259.4074, 4478.776
259.8896, 4502.060
260.3717, 4520.313
260.8538, 4536.287
261.3359, 4552.765
261.8180, 4559.418
262.3001, 4552.219
262.7823, 4531.172
263.2644, 4511.708
263.7465, 4500.104
264.2286, 4481.592
264.7107, 4437.585
265.1928, 4357.514
265.6750, 4282.225
266.1571, 4223.247
266.6392, 4180.969
267.1213, 4128.618
267.6034, 4065.964
268.0855, 3994.288
268.5677, 3912.480
269.0498, 3816.756
269.5319, 3725.009
270.0140, 3639.833
270.4961, 3561.693
270.9782, 3494.401
271.4604, 3441.077
271.9425, 3391.737
272.4246, 3332.812
272.9067, 3260.894
273.3888, 3195.249
273.8709, 3142.300
274.3531, 3101.409
274.8352, 3057.701
275.3173, 3008.352
275.7994, 2931.146
276.2815, 2935.593
276.7636, 2924.561
277.2457, 2898.886
277.7278, 2814.699
278.2100, 2806.062
278.6921, 2767.151
279.1742, 2727.000
279.6563, 2729.002
280.1384, 2703.766
280.6205, 2717.191
281.1027, 2728.437
281.5848, 2730.571
282.0669, 2723.946
282.5490, 2707.564
283.0311, 2678.548
283.5132, 2650.766
283.9954, 2640.773
284.4775, 2648.703
284.9596, 2659.461
285.4417, 2668.981
285.9238, 2677.922
286.4059, 2687.944
286.8881, 2698.339
287.3702, 2713.398
287.8523, 2740.077
288.3344, 2777.559
288.8165, 2813.960
289.2986, 2847.341
289.7808, 2876.964
290.2629, 2898.312
290.7450, 2910.364
291.2271, 2922.364
291.7092, 2945.128
292.1913, 2976.707
292.6735, 3006.091
293.1556, 3027.508
293.6377, 3045.359
294.1198, 3069.439
294.6019, 3100.078
295.0840, 3132.553
295.5662, 3160.481
296.0483, 3186.685
296.5304, 3220.642
297.0125, 3268.134
297.4946, 3322.984
297.9767, 3373.450
298.4589, 3419.948
298.9410, 3466.637
299.4231, 3513.028
299.9052, 3561.971
300.3873, 3619.552
300.8694, 3690.709
301.3516, 3767.774
301.8337, 3841.318
302.3158, 3911.973
302.7979, 3983.507
303.2800, 4063.875
303.7621, 4146.437
304.2443, 4221.192
304.7264, 4277.820
305.2085, 4332.045
305.6906, 4403.352
306.1727, 4488.160
306.6548, 4570.599
307.1370, 4643.622
307.6191, 4706.639
308.1012, 4756.435
308.5833, 4784.004
309.0654, 4809.648
309.5475, 4855.712
310.0297, 4915.110
310.5118, 4961.870
310.9939, 4978.494
311.4760, 4976.272
311.9581, 4965.469
312.4402, 4948.395
312.9224, 4923.017
313.4045, 4886.810
313.8866, 4840.896
314.3687, 4789.429
314.8508, 4738.064
315.3329, 4679.569
315.8151, 4607.594
316.2972, 4513.669
316.7793, 4419.352
317.2614, 4334.181
317.7435, 4254.589
318.2256, 4172.444
318.7078, 4084.255
319.1899, 3993.252
319.6720, 3898.429
320.1541, 3792.168
320.6362, 3700.130
321.1183, 3643.206
321.6005, 3604.936
322.0826, 3555.948
322.5647, 3476.766
323.0468, 3396.200
323.5289, 3324.660
324.0110, 3263.613
324.4932, 3209.620
324.9753, 3173.035
325.4574, 3141.515
325.9395, 3097.706
326.4216, 3020.753
326.9037, 2949.509
327.3859, 2896.151
327.8680, 2867.321
328.3501, 2833.880
328.8322, 2787.713
329.3143, 2740.724
329.7964, 2706.559
330.2786, 2700.198
330.7607, 2687.967
331.2428, 2660.720
331.7249, 2616.593
332.2070, 2576.880
332.6891, 2540.161
333.1712, 2509.019
333.6534, 2487.038
334.1355, 2480.088
334.6176, 2470.218
335.0997, 2451.990
335.5818, 2426.150
336.0639, 2408.200
336.5461, 2400.379
337.0282, 2396.954
337.5103, 2393.247
337.9924, 2389.090
338.4745, 2385.410
338.9566, 2383.316
339.4388, 2381.769
339.9209, 2374.918
340.4030, 2361.714
340.8851, 2346.676
341.3672, 2332.671
341.8493, 2319.431
342.3315, 2309.433
342.8136, 2303.263
343.2957, 2300.299
343.7778, 2299.561
344.2599, 2301.321
344.7420, 2302.919
345.2242, 2302.757
345.7063, 2300.937
346.1884, 2297.622
346.6705, 2292.190
347.1526, 2286.565
347.6347, 2286.213
348.1169, 2290.154
348.5990, 2289.929
349.0811, 2276.579
349.5632, 2255.689
350.0453, 2242.077
350.5274, 2238.345
351.0096, 2235.080
351.4917, 2217.941
351.9738, 2191.523
352.4559, 2170.345
352.9380, 2168.439
353.4201, 2173.054
353.9023, 2168.604
354.3844, 2154.422
354.8665, 2133.110
355.3486, 2101.025
355.8307, 2064.258
356.3128, 2032.123
356.7950, 2010.870
357.2771, 1994.752
357.7592, 1979.235
358.2413, 1964.424
358.7234, 1953.463
359.2055, 1952.915
359.6877, 1955.198
360.1698, 1952.481
360.6519, 1933.741
361.1340, 1917.717
361.6161, 1915.988
362.0982, 1925.541
362.5804, 1929.752
363.0625, 1918.986
363.5446, 1903.189
364.0267, 1888.635
364.5088, 1874.151
364.9909, 1864.242
365.4731, 1860.592
365.9552, 1862.269
366.4373, 1866.502
366.9194, 1876.777
367.4015, 1886.458
367.8836, 1892.201
368.3658, 1888.175
368.8479, 1890.795
369.3300, 1901.408
369.8121, 1918.594
370.2942, 1940.065
370.7763, 1972.982
371.2585, 2001.335
371.7406, 2018.859
372.2227, 2021.967
372.7048, 2031.024
373.1869, 2048.426
373.6690, 2069.378
374.1512, 2088.344
374.6333, 2104.564
375.1154, 2120.607
375.5975, 2136.500
376.0796, 2152.522
376.5617, 2172.766
377.0439, 2198.660
377.5260, 2225.131
378.0081, 2246.969
378.4902, 2264.074
378.9723, 2280.945
379.4544, 2299.426
379.9366, 2317.807
380.4187, 2333.154
380.9008, 2345.778
381.3829, 2350.748
381.8650, 2342.742
382.3471, 2323.401
382.8293, 2300.503
383.3114, 2273.686
383.7935, 2246.146
384.2756, 2222.154
384.7577, 2201.314
385.2398, 2181.683
385.7219, 2161.152
386.2040, 2140.908
386.6862, 2122.797
387.1683, 2106.740
387.6504, 2092.779
388.1325, 2082.246
388.6146, 2073.641
389.0967, 2064.367
389.5789, 2047.452
390.0610, 2033.267
390.5431, 2033.445
391.0252, 2047.989
391.5073, 2061.623
391.9894, 2067.052
392.4716, 2066.769
392.9537, 2063.442
393.4358, 2054.215
393.9179, 2045.829
394.4000, 2043.178
394.8821, 2044.594
395.3643, 2041.049
395.8464, 2022.276
396.3285, 2002.735
396.8106, 1991.152
397.2927, 1991.869
397.7748, 1995.390
398.2570, 2006.510
398.7391, 2019.718
399.2212, 2021.648
399.7033, 2000.630
400.1854, 1979.507
400.6675, 1965.605
401.1497, 1961.665
401.6318, 1955.801
402.1139, 1946.789
402.5960, 1936.786
403.0781, 1928.609
403.5602, 1922.946
404.0424, 1917.686
404.5245, 1912.788
405.0066, 1908.161
405.4887, 1900.844
405.9708, 1889.510
406.4529, 1878.596
406.9351, 1872.350
407.4172, 1871.100
407.8993, 1869.592
408.3814, 1866.904
408.8635, 1863.450
409.3456, 1861.348
409.8278, 1860.669
410.3099, 1856.973
410.7920, 1846.950
411.2741, 1831.530
411.7562, 1811.863
412.2383, 1785.800
412.7205, 1763.180
413.2026, 1756.514
413.6847, 1763.031
414.1668, 1773.482
414.6489, 1793.694
415.1310, 1810.304
415.6132, 1802.687
416.0953, 1769.338
416.5774, 1736.064
417.0595, 1718.362
417.5416, 1711.953
418.0237, 1711.204
418.5059, 1720.759
418.9880, 1729.375
419.4701, 1729.450
419.9522, 1722.726
420.4343, 1717.939
420.9164, 1720.124
421.3986, 1724.284
421.8807, 1727.737
422.3628, 1732.110
422.8449, 1732.199
423.3270, 1721.137
423.8091, 1705.631
424.2913, 1699.066
424.7734, 1714.347
425.2555, 1727.647
425.7376, 1731.118
426.2197, 1721.331
426.7018, 1717.399
427.1840, 1721.964
427.6661, 1730.151
428.1482, 1737.179
428.6303, 1743.732
429.1124, 1747.368
429.5945, 1746.673
430.0767, 1742.592
430.5588, 1739.900
431.0409, 1737.771
431.5230, 1739.772
432.0051, 1752.018
432.4872, 1774.583
432.9694, 1786.225
433.4515, 1781.393
433.9336, 1771.778
434.4157, 1781.896
434.8978, 1809.772
435.3799, 1833.013
435.8621, 1833.471
436.3442, 1821.918
436.8263, 1823.763
437.3084, 1840.418
437.7905, 1860.824
438.2726, 1873.674
438.7548, 1883.115
439.2369, 1896.945
439.7190, 1921.125
440.2011, 1948.008
440.6832, 1971.842
441.1653, 1992.930
441.6474, 2012.376
442.1295, 2031.531
442.6117, 2048.795
443.0938, 2061.709
443.5759, 2064.041
444.0580, 2073.566
444.5401, 2100.535
445.0222, 2137.893
445.5044, 2172.563
445.9865, 2199.251
446.4686, 2225.750
446.9507, 2254.688
447.4328, 2287.247
447.9149, 2317.690
448.3971, 2346.950
448.8792, 2373.352
449.3613, 2394.690
449.8434, 2403.283
450.3255, 2423.087
450.8076, 2460.564
451.2898, 2511.410
451.7719, 2556.864
452.2540, 2596.340
452.7361, 2631.050
453.2182, 2662.842
453.7003, 2691.541
454.1825, 2709.468
454.6646, 2712.003
455.1467, 2714.275
455.6288, 2743.391
456.1109, 2796.159
456.5930, 2844.799
457.0752, 2878.147
457.5573, 2899.056
458.0394, 2907.961
458.5215, 2905.319
459.0036, 2903.592
459.4857, 2916.818
459.9679, 2936.569
460.4500, 2948.539
460.9321, 2944.417
461.4142, 2940.385
461.8963, 2952.419
462.3784, 2974.301
462.8606, 2989.419
463.3427, 2985.318
463.8248, 2976.346
464.3069, 2969.740
464.7890, 2965.726
465.2711, 2966.138
465.7533, 2976.758
466.2354, 2989.814
466.7175, 2997.001
467.1996, 2988.700
467.6817, 2984.238
468.1638, 2987.984
468.6460, 2998.644
469.1281, 3005.880
469.6102, 3005.700
470.0923, 3007.356
470.5744, 3016.830
471.0565, 3037.331
471.5387, 3053.111
472.0208, 3061.062
472.5029, 3067.674
472.9850, 3086.348
473.4671, 3118.403
473.9492, 3146.235
474.4314, 3158.631
474.9135, 3162.198
475.3956, 3187.101
475.8777, 3234.838
476.3598, 3278.933
476.8419, 3286.043
477.3241, 3271.895
477.8062, 3275.501
478.2883, 3311.176
478.7704, 3354.509
479.2525, 3383.861
479.7346, 3401.088
480.2168, 3411.048
480.6989, 3409.712
481.1810, 3406.616
481.6631, 3409.292
482.1452, 3418.841
482.6273, 3427.751
483.1095, 3434.988
483.5916, 3438.862
484.0737, 3437.669
484.5558, 3435.548
485.0379, 3423.167
485.5201, 3391.775
486.0022, 3346.245
486.4843, 3312.191
486.9664, 3305.914
487.4485, 3292.976
487.9306, 3256.377
488.4128, 3186.524
488.8949, 3132.345
489.3770, 3099.609
489.8591, 3074.459
490.3412, 3038.917
490.8233, 2991.550
491.3055, 2943.007
491.7876, 2895.049
492.2697, 2848.823
492.7518, 2808.100
493.2339, 2773.244
493.7160, 2739.274
494.1982, 2702.863
494.6803, 2664.688
495.1624, 2627.227
495.6445, 2589.969
496.1266, 2554.814
496.6087, 2523.594
497.0908, 2495.229
497.5729, 2466.753
498.0551, 2439.498
498.5372, 2409.975
499.0193, 2372.068
499.5014, 2327.195
499.9835, 2290.697
500.4656, 2279.345
500.9478, 2271.824
501.4299, 2252.852
501.9120, 2208.364
502.3941, 2171.965
502.8762, 2153.740
503.3583, 2145.403
503.8405, 2131.625
504.3226, 2106.731
504.8047, 2084.345
505.2868, 2067.859
505.7689, 2057.261
506.2510, 2049.037
506.7332, 2043.852
507.2153, 2039.762
507.6974, 2036.932
508.1795, 2035.707
508.6616, 2027.151
509.1437, 2008.660
509.6259, 1985.642
510.1080, 1965.184
510.5901, 1947.661
511.0722, 1935.632
511.5543, 1936.053
512.0364, 1940.687
512.5186, 1933.915
513.0007, 1916.005
513.4828, 1900.366
513.9649, 1899.576
514.4470, 1905.471
514.9291, 1908.482
515.4113, 1904.793
515.8934, 1900.277
516.3755, 1899.194
516.8576, 1899.167
517.3397, 1895.224
517.8218, 1876.750
518.3040, 1862.852
518.7861, 1863.444
519.2682, 1882.024
519.7503, 1890.885
520.2324, 1884.798
520.7145, 1873.678
521.1967, 1864.266
521.6788, 1856.177
522.1609, 1851.258
522.6430, 1851.408
523.1251, 1853.357
523.6072, 1849.659
524.0894, 1840.010
524.5715, 1827.904
525.0536, 1811.565
525.5357, 1793.902
526.0178, 1788.525
526.4999, 1795.981
526.9821, 1803.633
527.4642, 1798.748
527.9463, 1786.323
528.4284, 1776.201
528.9105, 1771.205
529.3926, 1767.184
529.8748, 1761.076
530.3569, 1753.352
530.8390, 1745.138
531.3211, 1734.373
531.8032, 1725.518
532.2853, 1723.510
532.7675, 1728.819
533.2496, 1726.952
533.7317, 1707.300
534.2138, 1684.660
534.6959, 1668.531
535.1780, 1661.542
535.6602, 1657.665
536.1423, 1659.154
536.6244, 1662.405
537.1065, 1660.491
537.5886, 1652.266
538.0707, 1642.377
538.5529, 1630.948
539.0350, 1618.820
539.5171, 1611.103
539.9992, 1607.918
540.4813, 1607.716
540.9634, 1613.037
541.4456, 1620.593
541.9277, 1618.391
542.4098, 1602.574
542.8919, 1585.023
543.3740, 1579.949
543.8561, 1582.704
544.3383, 1584.000
544.8204, 1577.415
545.3025, 1570.182
545.7846, 1566.181
546.2667, 1565.428
546.7488, 1567.350
547.2310, 1576.406
547.7131, 1584.604
548.1952, 1587.904
548.6773, 1586.167
549.1594, 1578.285
549.6415, 1557.370
550.1237, 1534.507
550.6058, 1523.769
551.0879, 1529.999
551.5700, 1536.840
552.0521, 1542.401
552.5342, 1545.958
553.0164, 1542.034
553.4985, 1529.060
553.9806, 1520.926
554.4627, 1533.080
554.9448, 1558.325
555.4269, 1563.363
555.9091, 1545.077
556.3912, 1524.377
556.8733, 1524.023
557.3554, 1535.681
557.8375, 1544.166
558.3196, 1541.409
558.8018, 1539.083
559.2839, 1546.595
559.7660, 1560.878
560.2481, 1574.145
560.7302, 1584.931
561.2123, 1592.856
561.6945, 1596.140
562.1766, 1593.383
562.6587, 1595.131
563.1408, 1602.456
563.6229, 1613.943
564.1050, 1629.836
564.5872, 1654.608
565.0693, 1672.107
565.5514, 1679.582
566.0335, 1681.381
566.5156, 1685.682
566.9977, 1692.646
567.4799, 1699.386
567.9620, 1703.268
568.4441, 1706.704
568.9262, 1717.619
569.4083, 1735.742
569.8904, 1754.217
570.3726, 1770.436
570.8547, 1783.061
571.3368, 1789.613
571.8189, 1788.443
572.3010, 1787.151
572.7831, 1793.775
573.2653, 1802.106
573.7474, 1804.104
574.2295, 1790.213
574.7116, 1777.549
575.1937, 1773.475
575.6758, 1775.268
576.1580, 1770.077
576.6401, 1752.114
577.1222, 1733.936
577.6042, 1720.285
578.0864, 1711.608
578.5685, 1701.747
579.0506, 1689.592
579.5327, 1678.808
580.0148, 1673.050
580.4969, 1672.200
580.9791, 1673.309
581.4612, 1676.574
581.9433, 1680.033
582.4254, 1677.869
582.9075, 1672.673
583.3896, 1673.208
583.8718, 1688.909
584.3539, 1708.418
584.8360, 1721.331
585.3181, 1728.150
585.8002, 1734.867
586.2823, 1746.768
586.7645, 1757.776
587.2466, 1762.687
587.7287, 1756.123
588.2108, 1756.122
588.6929, 1766.389
589.1750, 1783.389
589.6572, 1804.478
590.1393, 1832.691
590.6214, 1858.358
591.1035, 1878.887
591.5856, 1896.860
592.0677, 1919.624
592.5499, 1947.331
593.0320, 1978.553
593.5141, 2012.335
593.9962, 2049.234
594.4783, 2092.334
594.9604, 2142.019
595.4426, 2190.163
595.9247, 2229.691
596.4068, 2264.314
596.8889, 2297.729
597.3710, 2328.388
597.8531, 2365.365
598.3353, 2417.877
598.8174, 2479.366
599.2995, 2540.727
599.7816, 2592.863
600.2637, 2650.968
600.7458, 2723.619
601.2280, 2807.436
601.7101, 2880.485
602.1922, 2931.901
602.6743, 2989.926
603.1564, 3069.139
603.6385, 3171.965
604.1207, 3260.702
604.6028, 3333.808
605.0849, 3400.782
605.5670, 3468.851
606.0491, 3537.920
606.5313, 3608.021
607.0134, 3680.828
607.4955, 3751.429
607.9776, 3818.980
608.4597, 3880.466
608.9418, 3931.054
609.4240, 3962.061
609.9061, 3986.581
610.3882, 4020.673
610.8703, 4058.801
611.3524, 4068.576
611.8345, 4034.929
612.3167, 3976.415
612.7988, 3896.176
613.2809, 3786.294
613.7630, 3690.478
614.2451, 3614.661
614.7272, 3544.284
615.2094, 3467.294
615.6915, 3383.159
616.1736, 3299.639
616.6557, 3218.890
617.1378, 3137.732
617.6199, 3048.034
618.1021, 2951.889
618.5842, 2860.771
619.0663, 2781.221
619.5484, 2707.920
620.0305, 2630.342
620.5126, 2551.328
620.9948, 2482.962
621.4769, 2441.886
621.9590, 2406.903
622.4411, 2364.264
622.9232, 2310.541
623.4053, 2258.833
623.8875, 2208.600
624.3696, 2163.416
624.8517, 2126.198
625.3338, 2101.107
625.8159, 2075.277
626.2980, 2046.338
626.7802, 2018.399
627.2623, 2001.235
627.7444, 1995.773
628.2265, 1984.115
628.7086, 1957.763
629.1907, 1924.302
629.6729, 1901.336
630.1550, 1887.197
630.6371, 1872.522
631.1192, 1851.959
631.6013, 1828.002
632.0834, 1801.502
632.5656, 1772.349
633.0477, 1746.886
633.5298, 1726.040
634.0119, 1710.824
634.4940, 1702.856
634.9761, 1710.464
635.4583, 1711.053
635.9404, 1701.144
636.4225, 1685.677
636.9046, 1670.632
637.3867, 1656.156
637.8688, 1641.946
638.3510, 1628.118
638.8331, 1614.546
639.3152, 1601.132
639.7973, 1587.974
640.2794, 1574.586
640.7615, 1559.151
641.2437, 1544.223
641.7258, 1533.017
642.2079, 1525.765
642.6900, 1523.094
643.1721, 1530.284
643.6542, 1539.230
644.1364, 1543.864
644.6185, 1543.312
645.1006, 1537.805
645.5827, 1521.971
646.0648, 1503.958
646.5469, 1491.808
647.0291, 1486.963
647.5112, 1485.571
647.9933, 1489.954
648.4754, 1495.326
648.9575, 1489.944
649.4396, 1472.911
649.9218, 1457.754
650.4039, 1450.243
650.8860, 1447.018
651.3681, 1439.775
651.8502, 1429.433
652.3323, 1422.031
652.8145, 1424.439
653.2966, 1429.680
653.7787, 1430.629
654.2608, 1426.500
654.7429, 1423.798
655.2250, 1430.208
655.7072, 1435.799
656.1893, 1432.687
656.6714, 1411.347
657.1535, 1397.285
657.6356, 1394.398
658.1177, 1395.373
658.5999, 1389.466
659.0820, 1374.252
659.5641, 1366.479
660.0462, 1371.510
660.5283, 1382.729
661.0104, 1388.218
661.4926, 1388.331
661.9747, 1384.973
662.4568, 1376.396
662.9389, 1366.582
663.4210, 1359.680
663.9031, 1355.658
664.3853, 1353.652
664.8674, 1354.768
665.3495, 1356.590
665.8316, 1357.674
666.3137, 1357.650
666.7958, 1357.687
667.2780, 1355.738
667.7601, 1355.691
668.2422, 1362.149
668.7243, 1379.285
669.2064, 1384.301
669.6885, 1372.498
670.1707, 1355.461
670.6528, 1349.406
671.1349, 1352.946
671.6170, 1358.000
672.0991, 1364.439
672.5812, 1367.914
673.0634, 1359.769
673.5455, 1344.470
674.0276, 1333.140
674.5097, 1334.409
674.9918, 1337.937
675.4739, 1338.201
675.9561, 1335.576
676.4382, 1335.440
676.9203, 1343.589
677.4024, 1348.941
677.8845, 1345.388
678.3666, 1331.028
678.8488, 1326.722
679.3309, 1334.733
679.8130, 1346.070
680.2951, 1356.274
680.7772, 1364.090
681.2593, 1359.971
681.7415, 1340.413
682.2236, 1322.303
682.7057, 1326.391
683.1878, 1342.919
683.6699, 1356.021
684.1520, 1361.659
684.6342, 1362.176
685.1163, 1353.781
685.5984, 1341.816
686.0805, 1336.201
686.5626, 1350.142
687.0447, 1356.483
687.5268, 1345.709
688.0089, 1323.965
688.4910, 1320.062
688.9731, 1338.871
689.4553, 1354.614
689.9374, 1352.626
690.4195, 1338.005
690.9016, 1330.604
691.3837, 1330.331
691.8658, 1333.921
692.3480, 1343.377
692.8301, 1353.163
693.3122, 1355.530
693.7943, 1348.614
694.2764, 1342.989
694.7585, 1347.000
695.2407, 1352.140
695.7228, 1351.060
696.2049, 1336.040
696.6870, 1326.198
697.1691, 1322.785
697.6512, 1323.476
698.1334, 1326.636
698.6155, 1333.129
699.0976, 1334.824
699.5797, 1328.860
700.0618, 1319.864
700.5439, 1315.626
701.0261, 1315.455
701.5082, 1316.694
701.9903, 1320.322
702.4724, 1323.019
702.9545, 1320.399
703.4366, 1314.069
703.9188, 1309.933
704.4009, 1314.596
704.8830, 1317.633
705.3651, 1312.600
705.8472, 1299.304
706.3293, 1292.121
706.8115, 1293.083
707.2936, 1296.610
707.7757, 1301.256
708.2578, 1307.019
708.7399, 1304.646
709.2220, 1293.080
709.7042, 1281.909
710.1863, 1282.422
710.6684, 1289.351
711.1505, 1292.023
711.6326, 1287.313
712.1147, 1284.228
712.5969, 1292.799
713.0790, 1304.405
713.5611, 1309.353
714.0432, 1297.537
714.5253, 1288.857
715.0074, 1285.942
715.4896, 1286.537
715.9717, 1287.377
716.4538, 1288.951
716.9359, 1288.495
717.4180, 1284.266
717.9001, 1278.792
718.3823, 1279.270
718.8644, 1284.661
719.3465, 1288.311
719.8286, 1286.706
720.3107, 1281.748
720.7928, 1271.318
721.2750, 1257.916
721.7571, 1252.961
722.2392, 1272.397
722.7213, 1292.030
723.2034, 1298.450
723.6855, 1289.724
724.1677, 1284.804
724.6498, 1285.062
725.1319, 1287.035
725.6140, 1289.634
726.0961, 1292.945
726.5782, 1291.939
727.0604, 1285.910
727.5425, 1280.308
728.0246, 1282.185
728.5067, 1287.829
728.9888, 1290.324
729.4709, 1288.449
729.9531, 1283.435
730.4352, 1271.054
730.9173, 1258.295
731.3994, 1252.551
731.8815, 1261.644
732.3636, 1269.707
732.8458, 1275.589
733.3279, 1279.873
733.8100, 1283.283
734.2921, 1285.791
734.7742, 1287.355
735.2563, 1287.396
735.7385, 1287.327
736.2206, 1291.016
736.7027, 1297.516
737.1848, 1302.225
737.6669, 1303.200
738.1490, 1301.581
738.6312, 1296.878
739.1133, 1290.254
739.5954, 1285.308
740.0775, 1282.998
740.5596, 1282.944
741.0417, 1286.960
741.5239, 1294.098
742.0060, 1295.904
742.4881, 1289.753
742.9702, 1284.172
743.4523, 1283.344
743.9344, 1286.729
744.4166, 1291.193
744.8987, 1296.727
745.3808, 1302.631
745.8629, 1308.772
746.3450, 1314.739
746.8271, 1291.293
747.3093, 1326.155
747.7914, 1345.540
748.2735, 1350.279
748.7556, 1296.508
749.2377, 1318.291
749.7198, 1309.795
750.2020, 1300.057
750.6841, 1332.474
751.1662, 1287.213
751.6483, 1318.961
752.1304, 1319.969
752.6125, 1335.046
753.0947, 1319.657
753.5768, 1313.678
754.0589, 1338.174
754.5410, 1345.796
755.0231, 1326.900
755.5052, 1342.871
755.9874, 1296.546
756.4695, 1304.886
756.9516, 1336.813
757.4337, 1319.449
757.9158, 1335.977
758.3979, 1339.597
758.8801, 1303.799
759.3622, 1299.340
759.8443, 1300.024
760.3264, 1306.224
760.8085, 1314.784
761.2906, 1327.623
761.7728, 1338.827
762.2549, 1332.588
762.7370, 1314.540
763.2191, 1304.080
763.7012, 1319.171
764.1833, 1337.351
764.6655, 1345.191
765.1476, 1344.007
765.6297, 1342.089
766.1118, 1337.983
766.5939, 1336.810
767.0760, 1343.165
767.5582, 1355.032
768.0403, 1348.932
768.5224, 1321.470
769.0045, 1300.329
769.4866, 1308.580
769.9688, 1333.955
770.4509, 1347.422
770.9330, 1349.234
771.4151, 1345.231
771.8972, 1332.551
772.3793, 1320.583
772.8615, 1317.301
773.3436, 1324.326
773.8257, 1330.977
774.3078, 1337.249
774.7899, 1341.277
775.2720, 1341.262
775.7542, 1336.374
776.2363, 1334.351
776.7184, 1335.440
777.2005, 1338.292
777.6826, 1342.110
778.1647, 1346.666
778.6469, 1352.457
779.1290, 1359.947
779.6111, 1364.348
780.0932, 1359.547
780.5753, 1351.555
781.0574, 1346.098
781.5396, 1344.817
782.0217, 1344.581
782.5038, 1345.495
782.9859, 1346.901
783.4680, 1348.184
783.9501, 1349.306
784.4323, 1350.063
784.9144, 1349.657
785.3965, 1351.580
785.8786, 1365.188
786.3607, 1384.314
786.8428, 1393.596
787.3250, 1386.885
787.8071, 1375.355
788.2892, 1357.570
788.7713, 1342.400
789.2534, 1341.222
789.7355, 1375.823
790.2177, 1398.443
790.6998, 1402.285
791.1819, 1395.603
791.6640, 1390.895
792.1461, 1388.324
792.6282, 1385.361
793.1104, 1380.757
793.5925, 1376.901
794.0746, 1376.740
794.5567, 1380.180
795.0388, 1387.213
795.5209, 1404.319
796.0031, 1417.265
796.4852, 1416.982
796.9672, 1407.791
797.4493, 1398.833
797.9315, 1388.210
798.4136, 1382.822
798.8957, 1385.692
799.3778, 1393.326
799.8599, 1396.617
800.3420, 1395.592
800.8242, 1393.668
801.3063, 1389.719
801.7884, 1388.346
802.2705, 1399.439
802.7526, 1418.758
803.2347, 1435.013
803.7169, 1445.496
804.1990, 1449.199
804.6811, 1440.445
805.1632, 1423.332
805.6453, 1416.325
806.1274, 1424.807
806.6096, 1432.059
807.0917, 1431.493
807.5738, 1427.127
808.0559, 1436.726
808.5380, 1458.710
809.0201, 1474.004
809.5023, 1466.638
809.9844, 1451.583
810.4665, 1440.745
810.9486, 1435.322
811.4307, 1439.602
811.9128, 1469.261
812.3950, 1494.392
812.8771, 1501.632
813.3592, 1494.098
813.8413, 1490.454
814.3234, 1491.574
814.8055, 1493.466
815.2877, 1495.274
815.7698, 1496.235
816.2519, 1491.019
816.7340, 1481.265
817.2161, 1477.600
817.6982, 1495.312
818.1804, 1514.529
818.6625, 1517.169
819.1446, 1505.243
819.6267, 1498.778
820.1088, 1508.742
820.5909, 1517.334
821.0731, 1517.613
821.5552, 1511.133
822.0373, 1512.882
822.5194, 1523.784
823.0015, 1534.153
823.4836, 1537.968
823.9658, 1537.800
824.4479, 1537.298
824.9300, 1536.815
825.4121, 1538.489
825.8942, 1547.647
826.3763, 1555.465
826.8585, 1556.001
827.3406, 1549.013
827.8227, 1544.298
828.3048, 1542.240
828.7869, 1542.030
829.2690, 1544.241
829.7512, 1548.130
830.2333, 1548.515
830.7154, 1545.612
831.1975, 1543.440
831.6796, 1545.061
832.1617, 1548.462
832.6439, 1551.725
833.1260, 1554.812
833.6081, 1558.057
834.0902, 1561.205
834.5723, 1565.037
835.0544, 1571.656
835.5366, 1580.399
836.0187, 1579.220
836.5008, 1565.737
836.9829, 1552.829
837.4650, 1547.341
837.9471, 1547.317
838.4293, 1548.556
838.9114, 1550.956
839.3935, 1553.823
839.8756, 1555.281
840.3577, 1558.349
840.8398, 1566.506
841.3220, 1579.305
841.8041, 1588.677
842.2862, 1594.963
842.7683, 1596.178
843.2504, 1588.880
843.7325, 1575.628
844.2147, 1574.433
844.6968, 1584.895
845.1789, 1592.979
845.6610, 1586.753
846.1431, 1576.043
846.6252, 1570.774
847.1074, 1571.023
847.5895, 1576.025
848.0716, 1593.301
848.5537, 1607.075
849.0358, 1611.033
849.5179, 1606.437
850.0001, 1599.823
850.4822, 1590.643
850.9643, 1581.983
851.4464, 1573.747
851.9285, 1567.845
852.4106, 1571.432
852.8928, 1582.306
853.3749, 1591.157
853.8570, 1595.180
854.3391, 1593.653
854.8212, 1580.705
855.3033, 1560.102
855.7855, 1551.716
856.2676, 1562.763
856.7497, 1574.196
857.2318, 1581.689
857.7139, 1585.441
858.1960, 1585.233
858.6782, 1581.353
859.1603, 1577.860
859.6424, 1578.717
860.1245, 1578.573
860.6066, 1567.011
861.0887, 1549.937
861.5709, 1542.966
862.0530, 1566.015
862.5351, 1581.381
863.0172, 1575.801
863.4993, 1558.848
863.9814, 1556.122
864.4636, 1569.742
864.9457, 1577.826
865.4278, 1571.306
865.9099, 1560.555
866.3920, 1565.701
866.8741, 1579.805
867.3563, 1586.728
867.8384, 1574.605
868.3205, 1559.905
868.8026, 1544.146
869.2847, 1531.491
869.7668, 1530.286
870.2490, 1548.151
870.7311, 1556.868
871.2132, 1549.728
871.6953, 1536.274
872.1774, 1532.712
872.6595, 1536.666
873.1417, 1539.434
873.6238, 1538.254
874.1059, 1536.043
874.5880, 1534.661
875.0701, 1533.657
875.5522, 1532.484
876.0344, 1528.342
876.5165, 1528.397
876.9986, 1535.335
877.4807, 1543.358
877.9628, 1544.111
878.4449, 1538.322
878.9271, 1536.465
879.4092, 1540.690
879.8913, 1545.184
880.3734, 1545.253
880.8555, 1541.755
881.3376, 1534.383
881.8198, 1519.040
882.3019, 1511.571
882.7840, 1518.967
883.2661, 1531.707
883.7482, 1544.848
884.2303, 1559.345
884.7125, 1565.469
885.1946, 1562.284
885.6767, 1555.541
886.1588, 1549.138
886.6409, 1543.395
887.1230, 1537.527
887.6052, 1531.245
888.0873, 1530.486
888.5694, 1544.848
889.0515, 1559.602
889.5336, 1565.247
890.0157, 1560.953
890.4979, 1559.471
890.9800, 1561.573
891.4621, 1563.143
891.9442, 1559.295
892.4263, 1553.407
892.9084, 1556.461
893.3906, 1566.897
893.8727, 1572.074
894.3548, 1557.337
894.8369, 1542.261
895.3190, 1538.531
895.8011, 1545.904
896.2833, 1553.947
896.7654, 1565.262
897.2475, 1570.639
897.7296, 1564.967
898.2117, 1552.121
898.6938, 1539.349
899.1760, 1528.216
899.6581, 1526.515
900.1402, 1550.602
900.6223, 1573.497
901.1044, 1573.799
901.5865, 1559.527
902.0687, 1552.285
902.5508, 1556.652
903.0329, 1563.573
903.5150, 1573.781
903.9971, 1583.158
904.4792, 1580.675
904.9614, 1568.522
905.4435, 1560.888
905.9256, 1563.778
906.4077, 1567.849
906.8898, 1562.107
907.3719, 1553.606
907.8540, 1551.995
908.3361, 1568.484
908.8182, 1578.969
909.3004, 1580.704
909.7825, 1578.834
910.2646, 1578.041
910.7467, 1578.440
911.2288, 1583.241
911.7109, 1593.633
912.1931, 1601.728
912.6752, 1595.978
913.1573, 1586.519
913.6394, 1586.402
914.1215, 1601.569
914.6036, 1607.071
915.0858, 1591.945
915.5679, 1575.097
916.0500, 1567.609
916.5321, 1569.424
917.0142, 1569.716
917.4963, 1568.418
917.9785, 1570.196
918.4606, 1581.786
918.9427, 1596.074
919.4248, 1605.126
919.9069, 1608.963
920.3890, 1612.176
920.8712, 1615.953
921.3533, 1619.294
921.8354, 1621.561
922.3175, 1623.075
922.7996, 1624.889
923.2817, 1626.935
923.7639, 1632.019
924.2460, 1643.279
924.7281, 1655.891
925.2102, 1665.145
925.6923, 1671.163
926.1744, 1674.241
926.6566, 1674.062
927.1387, 1670.958
927.6208, 1660.218
928.1029, 1650.130
928.5850, 1656.887
929.0671, 1681.769
929.5493, 1699.095
930.0314, 1704.439
930.5135, 1701.218
930.9956, 1686.212
931.4777, 1668.050
931.9598, 1660.225
932.4420, 1669.720
932.9241, 1677.942
933.4062, 1678.256
933.8883, 1677.910
934.3704, 1683.238
934.8525, 1695.420
935.3347, 1697.579
935.8168, 1688.578
936.2989, 1681.964
936.7810, 1692.929
937.2631, 1710.551
937.7452, 1721.114
938.2274, 1723.939
938.7095, 1726.113
939.1916, 1725.633
939.6737, 1729.884
940.1558, 1743.542
940.6379, 1764.324
941.1201, 1779.328
941.6022, 1788.448
942.0843, 1792.604
942.5664, 1789.192
943.0485, 1784.057
943.5306, 1783.560
944.0128, 1787.010
944.4949, 1792.767
944.9770, 1802.852
945.4591, 1811.734
945.9412, 1815.854
946.4233, 1820.235
946.9055, 1835.933
947.3876, 1862.778
947.8697, 1881.136
948.3518, 1885.720
948.8339, 1888.374
949.3160, 1902.333
949.7982, 1921.492
950.2803, 1938.838
950.7624, 1953.733
951.2445, 1963.887
951.7266, 1964.411
952.2087, 1965.962
952.6909, 1976.612
953.1730, 1996.213
953.6551, 2014.230
954.1372, 2030.482
954.6193, 2048.129
955.1014, 2074.693
955.5836, 2099.566
956.0657, 2108.825
956.5478, 2104.233
957.0299, 2108.536
957.5120, 2127.122
957.9941, 2152.932
958.4763, 2187.366
958.9584, 2225.375
959.4405, 2248.630
959.9226, 2259.446
960.4047, 2274.793
960.8868, 2304.918
961.3690, 2335.784
961.8511, 2354.172
962.3332, 2366.725
962.8153, 2384.312
963.2974, 2409.243
963.7795, 2439.576
964.2617, 2479.656
964.7438, 2517.868
965.2259, 2532.729
965.7080, 2532.631
966.1901, 2552.482
966.6722, 2597.292
967.1544, 2645.329
967.6365, 2682.677
968.1186, 2715.862
968.6007, 2749.000
969.0828, 2783.089
969.5649, 2814.003
970.0471, 2841.041
970.5292, 2867.511
971.0113, 2893.311
971.4934, 2920.846
971.9755, 2958.301
972.4576, 3004.036
972.9398, 3052.818
973.4219, 3110.196
973.9040, 3161.735
974.3861, 3194.870
974.8682, 3219.453
975.3503, 3256.074
975.8325, 3306.235
976.3146, 3364.348
976.7967, 3430.185
977.2788, 3502.115
977.7609, 3577.127
978.2430, 3657.719
978.7252, 3752.411
979.2073, 3869.368
979.6894, 3975.071
980.1715, 4036.304
980.6536, 4098.362
981.1357, 4189.523
981.6179, 4310.970
982.1000, 4441.105
982.5821, 4581.475
983.0642, 4723.168
983.5463, 4852.866
984.0284, 4984.204
984.5106, 5137.361
984.9927, 5307.410
985.4748, 5469.492
985.9569, 5608.876
986.4390, 5749.433
986.9211, 5897.300
987.4033, 6047.895
987.8854, 6193.709
988.3675, 6335.331
988.8496, 6479.440
989.3317, 6631.883
989.8138, 6775.488
990.2960, 6896.569
990.7781, 7000.980
991.2602, 7092.906
991.7423, 7176.786
992.2244, 7244.403
992.7065, 7301.800
993.1887, 7329.500
993.6708, 7289.278
994.1529, 7207.648
994.6350, 7183.316
995.1171, 7212.708
995.5992, 7232.000
996.0814, 7197.631
996.5635, 7148.956
997.0456, 7096.203
997.5277, 7045.640
998.0098, 7024.363
998.4919, 7038.253
998.9741, 7050.439
999.4562, 7048.745
999.9383, 7043.886
1000.420, 7055.286
1000.903, 7074.482
1001.385, 7085.971
1001.867, 7084.412
1002.349, 7075.994
1002.831, 7064.615
1003.313, 7044.668
1003.795, 7012.067
1004.277, 6966.569
1004.759, 6910.249
1005.242, 6842.558
1005.724, 6761.649
1006.206, 6662.602
1006.688, 6550.684
1007.170, 6425.110
1007.652, 6288.101
1008.134, 6154.767
1008.616, 6031.860
1009.099, 5899.769
1009.581, 5746.082
1010.063, 5586.077
1010.545, 5451.048
1011.027, 5335.083
1011.509, 5220.610
1011.991, 5098.785
1012.473, 4985.195
1012.955, 4895.074
1013.438, 4812.829
1013.920, 4718.878
1014.402, 4606.738
1014.884, 4509.646
1015.366, 4429.807
1015.848, 4349.686
1016.330, 4251.251
1016.812, 4144.546
1017.294, 4046.451
1017.777, 3956.426
1018.259, 3868.937
1018.741, 3784.790
1019.223, 3697.602
1019.705, 3600.534
1020.187, 3502.133
1020.669, 3428.081
1021.151, 3376.882
1021.633, 3321.270
1022.116, 3250.856
1022.598, 3183.047
1023.080, 3135.535
1023.562, 3098.042
1024.044, 3058.997
1024.526, 3015.128
1025.008, 2971.112
1025.490, 2921.361
1025.973, 2884.730
1026.455, 2882.242
1026.937, 2901.816
1027.419, 2913.439
1027.901, 2916.856
1028.383, 2913.136
1028.865, 2894.047
1029.347, 2877.913
1029.829, 2869.909
1030.312, 2870.713
1030.794, 2885.797
1031.276, 2916.636
1031.758, 2938.348
1032.240, 2943.062
1032.722, 2947.926
1033.204, 2977.728
1033.686, 3014.914
1034.169, 3038.007
1034.651, 3039.905
1035.133, 3041.418
1035.615, 3044.017
1036.097, 3046.886
1036.579, 3050.222
1037.061, 3053.269
1037.543, 3057.593
1038.026, 3060.492
1038.508, 3048.675
1038.990, 3003.705
1039.472, 2955.079
1039.954, 2917.971
1040.436, 2885.181
1040.918, 2842.857
1041.400, 2789.529
1041.882, 2735.444
1042.365, 2680.079
1042.847, 2630.953
1043.329, 2599.383
1043.811, 2576.668
1044.293, 2551.580
1044.775, 2522.265
1045.257, 2496.982
1045.739, 2474.341
1046.221, 2460.411
1046.704, 2460.917
1047.186, 2470.163
1047.668, 2471.187
1048.150, 2464.538
1048.632, 2451.842
1049.114, 2425.338
1049.596, 2406.500
1050.078, 2413.892
1050.561, 2432.295
1051.043, 2442.447
1051.525, 2442.559
1052.007, 2439.146
1052.489, 2430.930
1052.971, 2428.355
1053.453, 2443.699
1053.935, 2467.983
1054.417, 2493.767
1054.900, 2518.872
1055.382, 2532.667
1055.864, 2521.144
1056.346, 2513.699
1056.828, 2518.594
1057.310, 2529.101
1057.792, 2532.016
1058.274, 2528.386
1058.756, 2521.384
1059.239, 2510.531
1059.721, 2501.718
1060.203, 2499.522
1060.685, 2500.199
1061.167, 2500.495
1061.649, 2500.157
1062.131, 2502.842
1062.613, 2508.883
1063.096, 2514.076
1063.578, 2513.272
1064.060, 2512.251
1064.542, 2515.763
1065.024, 2524.815
1065.506, 2541.990
1065.988, 2587.111
1066.470, 2609.882
1066.953, 2601.077
1067.435, 2578.692
1067.917, 2565.174
1068.399, 2556.676
1068.881, 2538.582
1069.363, 2509.491
1069.845, 2487.028
1070.327, 2489.327
1070.809, 2492.592
1071.292, 2485.704
1071.774, 2469.606
1072.256, 2445.894
1072.738, 2414.468
1073.220, 2386.913
1073.702, 2367.630
1074.184, 2352.397
1074.666, 2341.004
1075.148, 2329.504
1075.630, 2311.937
1076.113, 2280.039
1076.595, 2262.300
1077.077, 2261.624
1077.559, 2266.359
1078.041, 2270.730
1078.523, 2273.660
1079.005, 2273.451
1079.487, 2269.754
1079.970, 2261.279
1080.452, 2233.104
1080.934, 2219.671
1081.416, 2235.344
1081.898, 2262.260
1082.380, 2270.336
1082.862, 2262.299
1083.344, 2269.200
1083.827, 2296.641
1084.309, 2314.766
1084.791, 2292.244
1085.273, 2258.677
1085.755, 2233.703
1086.237, 2218.076
1086.719, 2211.293
1087.201, 2215.232
1087.683, 2216.041
1088.166, 2207.704
1088.648, 2195.966
1089.130, 2188.291
1089.612, 2182.628
1090.094, 2175.596
1090.576, 2164.974
1091.058, 2156.553
1091.540, 2152.162
1092.022, 2147.158
1092.505, 2138.233
1092.987, 2125.954
1093.469, 2110.472
1093.951, 2092.970
1094.433, 2078.602
1094.915, 2074.590
1095.397, 2068.590
1095.879, 2053.011
1096.362, 2035.494
1096.844, 2027.338
1097.326, 2028.390
1097.808, 2032.882
1098.290, 2040.719
1098.772, 2044.659
1099.254, 2038.403
1099.736, 2026.346
1100.219, 2008.473
1100.701, 1986.136
1101.183, 1972.721
1101.665, 1967.928
1102.147, 1975.667
1102.629, 2003.663
1103.111, 2029.553
1103.593, 2012.731
1104.075, 1977.087
1104.557, 1960.034
1105.040, 1978.810
1105.522, 1988.849
1106.004, 1983.155
1106.486, 1975.480
1106.968, 1975.722
1107.450, 1979.772
1107.932, 1971.807
1108.414, 1955.459
1108.897, 1943.878
1109.379, 1948.032
1109.861, 1951.882
1110.343, 1949.438
1110.825, 1945.724
1111.307, 1947.820
1111.789, 1955.077
1112.271, 1954.085
1112.754, 1943.924
1113.236, 1934.425
1113.718, 1933.312
1114.200, 1934.236
1114.682, 1932.814
1115.164, 1929.737
1115.646, 1928.608
1116.128, 1929.831
1116.610, 1929.391
1117.093, 1925.680
1117.575, 1922.946
1118.057, 1926.904
1118.539, 1933.914
1119.021, 1940.978
1119.503, 1948.278
1119.985, 1948.834
1120.467, 1939.976
1120.949, 1931.203
1121.432, 1925.600
1121.914, 1923.682
1122.396, 1929.042
1122.878, 1938.451
1123.360, 1944.709
1123.842, 1943.005
1124.324, 1942.923
1124.806, 1944.875
1125.289, 1949.962
1125.771, 1961.768
1126.253, 1977.772
1126.735, 1984.053
1127.217, 1981.790
1127.699, 1978.652
1128.181, 1973.533
1128.663, 1974.410
1129.146, 1988.671
1129.628, 2008.003
1130.110, 2023.514
1130.592, 2035.117
1131.074, 2033.443
1131.556, 2017.145
1132.038, 2003.856
1132.520, 2010.945
1133.002, 2022.614
1133.484, 2028.329
1133.967, 2028.758
1134.449, 2027.364
1134.931, 2022.918
1135.413, 2028.688
1135.895, 2050.888
1136.377, 2072.709
1136.859, 2073.579
1137.341, 2065.323
1137.824, 2060.303
1138.306, 2060.296
1138.788, 2064.579
1139.270, 2074.462
1139.752, 2083.413
1140.234, 2087.346
1140.716, 2090.154
1141.198, 2101.573
1141.681, 2116.032
1142.163, 2122.553
1142.645, 2114.385
1143.127, 2106.004
1143.609, 2099.426
1144.091, 2091.520
1144.573, 2076.131
1145.055, 2058.482
1145.537, 2060.127
1146.020, 2075.624
1146.502, 2083.306
1146.984, 2068.354
1147.466, 2051.258
1147.948, 2031.598
1148.430, 2017.500
1148.912, 2023.035
1149.394, 2043.704
1149.876, 2053.050
1150.359, 2049.608
1150.841, 2040.664
1151.323, 2022.815
1151.805, 2008.839
1152.287, 2005.918
1152.769, 2010.011
1153.251, 2016.934
1153.733, 2025.919
1154.216, 2016.832
1154.698, 1983.855
1155.180, 1956.206
1155.662, 1966.178
1156.144, 1981.982
1156.626, 1977.683
1157.108, 1956.688
1157.590, 1938.981
1158.073, 1924.656
1158.555, 1912.318
1159.037, 1902.380
1159.519, 1891.799
1160.001, 1870.513
1160.483, 1851.154
1160.965, 1852.653
1161.447, 1880.691
1161.929, 1883.665
1162.411, 1857.412
1162.894, 1832.891
1163.376, 1824.941
1163.858, 1827.406
1164.340, 1841.387
1164.822, 1857.413
1165.304, 1858.772
1165.786, 1830.048
1166.268, 1816.347
1166.751, 1821.121
1167.233, 1828.967
1167.715, 1829.740
1168.197, 1825.654
1168.679, 1819.514
1169.161, 1811.594
1169.643, 1802.461
1170.125, 1787.687
1170.608, 1780.179
1171.090, 1784.237
1171.572, 1787.303
1172.054, 1769.316
1172.536, 1743.269
1173.018, 1739.246
1173.500, 1755.141
1173.982, 1765.812
1174.464, 1754.368
1174.947, 1748.252
1175.429, 1754.122
1175.911, 1764.679
1176.393, 1771.023
1176.875, 1772.935
1177.357, 1769.372
1177.839, 1760.248
1178.321, 1747.291
1178.803, 1715.137
1179.286, 1701.446
1179.768, 1726.756
1180.250, 1769.071
1180.732, 1776.288
1181.214, 1757.217
1181.696, 1741.091
1182.178, 1734.797
1182.660, 1730.300
1183.142, 1725.006
1183.625, 1719.397
1184.107, 1712.861
1184.589, 1706.556
1185.071, 1709.031
1185.553, 1716.887
1186.035, 1712.629
1186.517, 1683.214
1186.999, 1659.013
1187.482, 1653.723
1187.964, 1660.468
1188.446, 1679.287
1188.928, 1707.477
1189.410, 1714.202
1189.892, 1702.153
1190.374, 1690.393
1190.856, 1686.130
1191.339, 1686.690
1191.821, 1698.916
1192.303, 1709.083
1192.785, 1700.737
1193.267, 1673.207
1193.749, 1664.868
1194.231, 1674.515
1194.713, 1684.071
1195.195, 1681.251
1195.677, 1676.911
1196.160, 1678.316
1196.642, 1680.851
1197.124, 1677.415
1197.606, 1667.737
1198.088, 1660.388
1198.570, 1655.808
1199.052, 1655.137
1199.534, 1665.357
1200.017, 1673.483
1200.499, 1667.923
1200.981, 1655.670
1201.463, 1650.317
1201.945, 1651.958
1202.427, 1657.925
1202.909, 1668.209
1203.391, 1677.278
1203.874, 1680.157
1204.356, 1680.651
1204.838, 1681.258
1205.320, 1681.588
1205.802, 1680.708
1206.284, 1678.692
1206.766, 1671.784
1207.248, 1658.503
1207.730, 1646.415
1208.213, 1639.963
1208.695, 1638.754
1209.177, 1645.927
1209.659, 1658.383
1210.141, 1662.278
1210.623, 1657.378
1211.105, 1652.056
1211.587, 1648.272
1212.069, 1645.497
1212.552, 1639.560
1213.034, 1637.458
1213.516, 1649.635
1213.998, 1673.216
1214.480, 1682.658
1214.962, 1677.839
1215.444, 1676.871
1215.926, 1689.142
1216.409, 1697.704
1216.891, 1682.995
1217.373, 1661.332
1217.855, 1646.495
1218.337, 1638.854
1218.819, 1644.152
1219.301, 1662.431
1219.783, 1678.825
1220.266, 1687.963
1220.748, 1692.066
1221.230, 1691.019
1221.712, 1687.021
1222.194, 1682.537
1222.676, 1677.712
1223.158, 1669.480
1223.640, 1657.978
1224.122, 1651.944
1224.604, 1660.185
1225.087, 1669.626
1225.569, 1669.526
1226.051, 1666.204
1226.533, 1668.412
1227.015, 1677.335
1227.497, 1677.718
1227.979, 1669.835
1228.461, 1662.557
1228.944, 1661.127
1229.426, 1662.234
1229.908, 1668.324
1230.390, 1672.939
1230.872, 1664.636
1231.354, 1641.805
1231.836, 1640.675
1232.318, 1661.174
1232.801, 1681.413
1233.283, 1688.689
1233.765, 1690.587
1234.247, 1687.346
1234.729, 1683.469
1235.211, 1686.374
1235.693, 1695.835
1236.175, 1696.847
1236.657, 1689.122
1237.140, 1682.321
1237.622, 1681.395
1238.104, 1684.621
1238.586, 1698.068
1239.068, 1710.775
1239.550, 1701.654
1240.032, 1674.029
1240.514, 1669.815
1240.996, 1691.093
1241.479, 1710.000
1241.961, 1708.613
1242.443, 1701.923
1242.925, 1695.636
1243.407, 1688.565
1243.889, 1675.906
1244.371, 1659.779
1244.853, 1654.877
1245.336, 1662.215
1245.818, 1671.818
1246.300, 1682.173
1246.782, 1688.342
1247.264, 1686.537
1247.746, 1682.414
1248.228, 1689.511
1248.710, 1702.853
1249.193, 1701.752
1249.675, 1684.041
1250.157, 1668.569
1250.639, 1663.615
1251.121, 1662.844
1251.603, 1664.315
1252.085, 1669.134
1252.567, 1684.089
1253.049, 1702.773
1253.531, 1707.515
1254.014, 1695.466
1254.496, 1685.621
1254.978, 1682.885
1255.460, 1685.745
1255.942, 1697.071
1256.424, 1707.972
1256.906, 1698.301
1257.388, 1678.382
1257.871, 1668.503
1258.353, 1672.293
1258.835, 1675.210
1259.317, 1675.515
1259.799, 1672.871
1260.281, 1665.540
1260.763, 1659.042
1261.245, 1664.691
1261.728, 1675.434
1262.210, 1680.867
1262.692, 1679.124
1263.174, 1676.831
1263.656, 1674.936
1264.138, 1670.445
1264.620, 1661.097
1265.102, 1652.355
1265.584, 1652.061
1266.067, 1656.114
1266.549, 1660.719
1267.031, 1665.395
1267.513, 1663.361
1267.995, 1652.988
1268.477, 1645.718
1268.959, 1644.122
1269.441, 1649.993
1269.923, 1676.545
1270.406, 1703.646
1270.888, 1706.868
1271.370, 1687.774
1271.852, 1675.439
1272.334, 1669.794
1272.816, 1668.866
1273.298, 1674.138
1273.780, 1677.105
1274.263, 1664.273
1274.745, 1652.483
1275.227, 1657.632
1275.709, 1676.296
1276.191, 1684.413
1276.673, 1682.797
1277.155, 1674.995
1277.637, 1657.339
1278.120, 1649.226
1278.602, 1675.972
1279.084, 1700.108
1279.566, 1697.380
1280.048, 1675.404
1280.530, 1662.958
1281.012, 1659.064
1281.494, 1661.751
##END=



