##NAMES=Herbertsmithite
##RRUFFID=R070099
##IDEAL CHEMISTRY=Cu^2+^_3_Zn^2+^(OH)_6_Cl_2_
##LOCALITY=San Francisco mine, Sierra Gorda, Antofagasta, Chile
##OWNER=RRUFF
##SOURCE=Michael Scott
##DESCRIPTION=Blue-green crystals scattered on matrix, showing a range of habits from hexagonal plates to pseudo-octahedra
##STATUS=The identification of this mineral has been confirmed by single-crystal X-ray diffraction.
##URL=rruff.info/R070099
129.4512, 3718.218
129.9333, 3801.716
130.4154, 3894.531
130.8976, 3995.334
131.3797, 4113.139
131.8618, 4242.593
132.3439, 4350.843
132.8260, 4435.700
133.3081, 4507.807
133.7903, 4583.878
134.2724, 4664.234
134.7545, 4744.533
135.2366, 4822.481
135.7187, 4898.500
136.2008, 4970.700
136.6830, 5038.378
137.1651, 5101.692
137.6472, 5159.422
138.1293, 5207.856
138.6114, 5261.314
139.0935, 5332.454
139.5757, 5424.469
140.0578, 5519.088
140.5399, 5610.142
141.0220, 5698.350
141.5041, 5803.999
141.9862, 5927.333
142.4684, 6066.850
142.9505, 6220.479
143.4326, 6397.453
143.9147, 6573.983
144.3968, 6745.605
144.8789, 6906.102
145.3611, 7077.615
145.8432, 7276.479
146.3253, 7479.604
146.8074, 7646.180
147.2895, 7807.048
147.7716, 7900.541
148.2537, 7907.786
148.7359, 7828.928
149.2180, 7664.000
149.7001, 7369.441
150.1822, 6977.542
150.6643, 6604.194
151.1464, 6225.164
151.6286, 5877.624
152.1107, 5578.247
152.5928, 5341.922
153.0749, 5138.612
153.5570, 4970.340
154.0391, 4836.522
154.5213, 4720.608
155.0034, 4621.280
155.4855, 4539.656
155.9676, 4476.867
156.4497, 4444.826
156.9318, 4420.004
157.4140, 4396.841
157.8961, 4375.181
158.3782, 4353.426
158.8603, 4327.394
159.3424, 4302.100
159.8245, 4283.313
160.3067, 4274.190
160.7888, 4271.289
161.2709, 4274.800
161.7530, 4287.564
162.2351, 4297.256
162.7172, 4295.399
163.1993, 4286.788
163.6815, 4281.075
164.1636, 4288.826
164.6457, 4297.462
165.1278, 4296.470
165.6099, 4277.498
166.0920, 4259.316
166.5742, 4251.571
167.0563, 4253.403
167.5384, 4261.553
168.0205, 4284.396
168.5026, 4309.236
168.9847, 4321.069
169.4669, 4306.149
169.9490, 4286.191
170.4311, 4278.969
170.9132, 4283.526
171.3953, 4289.074
171.8774, 4283.856
172.3596, 4275.058
172.8417, 4274.010
173.3238, 4300.540
173.8059, 4329.620
174.2880, 4325.206
174.7701, 4284.655
175.2523, 4247.331
175.7344, 4261.534
176.2165, 4308.450
176.6986, 4340.617
177.1807, 4317.625
177.6628, 4270.107
178.1450, 4247.277
178.6271, 4255.810
179.1092, 4274.817
179.5913, 4283.964
180.0734, 4283.959
180.5555, 4278.423
181.0376, 4263.161
181.5198, 4244.073
182.0019, 4236.214
182.4840, 4244.958
182.9661, 4258.841
183.4482, 4260.054
183.9303, 4249.286
184.4125, 4235.391
184.8946, 4223.221
185.3767, 4212.773
185.8588, 4203.717
186.3409, 4195.817
186.8230, 4189.420
187.3052, 4185.089
187.7873, 4182.791
188.2694, 4183.449
188.7515, 4189.371
189.2336, 4200.005
189.7157, 4210.171
190.1979, 4221.238
190.6800, 4230.460
191.1621, 4224.609
191.6442, 4201.491
192.1263, 4176.025
192.6084, 4163.727
193.0906, 4164.525
193.5727, 4172.929
194.0548, 4193.943
194.5369, 4223.686
195.0190, 4230.765
195.5011, 4211.090
195.9832, 4180.592
196.4654, 4158.478
196.9475, 4144.727
197.4296, 4139.633
197.9117, 4149.045
198.3938, 4173.018
198.8759, 4181.173
199.3581, 4168.406
199.8402, 4147.464
200.3223, 4142.367
200.8044, 4155.831
201.2865, 4171.104
201.7686, 4179.777
202.2508, 4181.102
202.7329, 4183.450
203.2150, 4187.953
203.6971, 4192.977
204.1792, 4194.555
204.6613, 4192.278
205.1435, 4187.919
205.6256, 4181.990
206.1077, 4174.188
206.5898, 4166.488
207.0719, 4157.779
207.5540, 4149.674
208.0362, 4148.478
208.5183, 4155.403
209.0004, 4166.418
209.4825, 4181.334
209.9646, 4203.208
210.4467, 4214.697
210.9289, 4209.587
211.4110, 4191.302
211.8931, 4182.886
212.3752, 4185.846
212.8573, 4196.096
213.3394, 4212.821
213.8215, 4241.200
214.3037, 4260.556
214.7858, 4264.577
215.2679, 4254.241
215.7500, 4248.869
216.2321, 4248.492
216.7142, 4253.091
217.1964, 4263.911
217.6785, 4284.225
218.1606, 4302.400
218.6427, 4315.173
219.1248, 4322.053
219.6069, 4331.919
220.0891, 4346.279
220.5712, 4362.095
221.0533, 4376.618
221.5354, 4391.421
222.0175, 4401.114
222.4996, 4401.485
222.9818, 4389.674
223.4639, 4389.295
223.9460, 4406.366
224.4281, 4430.033
224.9102, 4443.598
225.3923, 4439.247
225.8745, 4438.986
226.3566, 4451.124
226.8387, 4480.184
227.3208, 4504.744
227.8029, 4525.405
228.2850, 4541.272
228.7672, 4549.103
229.2493, 4542.850
229.7314, 4538.535
230.2135, 4543.266
230.6956, 4562.727
231.1777, 4575.058
231.6599, 4578.935
232.1420, 4576.214
232.6241, 4571.565
233.1062, 4568.655
233.5883, 4558.335
234.0704, 4535.713
234.5526, 4495.898
235.0347, 4455.241
235.5168, 4411.825
235.9989, 4368.124
236.4810, 4331.704
236.9631, 4311.729
237.4453, 4286.613
237.9274, 4244.846
238.4095, 4178.752
238.8916, 4113.384
239.3737, 4044.435
239.8558, 3976.501
240.3380, 3926.678
240.8201, 3906.044
241.3022, 3888.644
241.7843, 3860.561
242.2664, 3816.114
242.7485, 3772.452
243.2307, 3729.347
243.7128, 3687.414
244.1949, 3649.010
244.6770, 3612.580
245.1591, 3581.720
245.6412, 3559.926
246.1233, 3554.200
246.6055, 3542.457
247.0876, 3520.276
247.5697, 3489.837
248.0518, 3465.638
248.5339, 3451.328
249.0160, 3438.151
249.4982, 3418.792
249.9803, 3385.024
250.4624, 3363.684
250.9445, 3363.404
251.4266, 3379.866
251.9087, 3382.558
252.3909, 3364.702
252.8730, 3341.946
253.3551, 3325.727
253.8372, 3318.069
254.3193, 3312.128
254.8014, 3308.057
255.2836, 3305.433
255.7657, 3299.917
256.2478, 3289.544
256.7299, 3278.976
257.2120, 3271.823
257.6941, 3269.197
258.1762, 3267.346
258.6584, 3266.188
259.1405, 3265.554
259.6226, 3262.884
260.1047, 3255.821
260.5868, 3250.207
261.0689, 3253.653
261.5511, 3273.913
262.0332, 3280.111
262.5153, 3260.496
262.9974, 3219.206
263.4795, 3197.821
263.9616, 3204.042
264.4438, 3217.750
264.9259, 3221.466
265.4080, 3212.143
265.8901, 3202.719
266.3722, 3195.458
266.8543, 3190.184
267.3365, 3184.794
267.8186, 3178.758
268.3007, 3173.647
268.7828, 3171.676
269.2649, 3174.054
269.7470, 3174.179
270.2292, 3168.635
270.7113, 3158.827
271.1934, 3160.668
271.6755, 3179.023
272.1576, 3197.647
272.6397, 3199.182
273.1219, 3179.758
273.6040, 3164.618
274.0861, 3161.499
274.5682, 3167.747
275.0503, 3160.907
275.5324, 3136.038
276.0146, 3112.306
276.4967, 3111.873
276.9788, 3138.230
277.4609, 3157.309
277.9430, 3161.516
278.4251, 3152.254
278.9073, 3134.097
279.3894, 3104.592
279.8715, 3076.182
280.3536, 3062.730
280.8357, 3064.780
281.3178, 3064.738
281.8000, 3056.524
282.2821, 3043.578
282.7642, 3040.629
283.2463, 3048.722
283.7284, 3061.113
284.2105, 3072.631
284.6927, 3083.263
285.1748, 3093.075
285.6569, 3103.523
286.1390, 3112.597
286.6211, 3112.001
287.1032, 3100.765
287.5853, 3088.054
288.0674, 3082.821
288.5496, 3084.054
289.0317, 3083.662
289.5138, 3079.160
289.9959, 3072.175
290.4780, 3064.354
290.9601, 3055.436
291.4423, 3052.206
291.9244, 3064.559
292.4065, 3088.719
292.8886, 3109.233
293.3707, 3122.927
293.8528, 3130.425
294.3350, 3129.891
294.8171, 3121.563
295.2992, 3115.777
295.7813, 3124.889
296.2634, 3143.333
296.7455, 3155.341
297.2277, 3156.512
297.7098, 3150.598
298.1919, 3139.647
298.6740, 3124.505
299.1561, 3113.767
299.6382, 3119.065
300.1204, 3132.672
300.6025, 3137.829
301.0846, 3124.627
301.5667, 3110.876
302.0488, 3123.043
302.5309, 3156.537
303.0131, 3185.925
303.4952, 3190.650
303.9773, 3181.793
304.4594, 3173.765
304.9415, 3167.080
305.4236, 3166.434
305.9058, 3185.286
306.3879, 3216.941
306.8700, 3236.023
307.3521, 3210.510
307.8342, 3171.843
308.3163, 3155.491
308.7985, 3176.340
309.2806, 3202.803
309.7627, 3213.541
310.2448, 3212.167
310.7269, 3208.113
311.2090, 3199.011
311.6912, 3193.392
312.1733, 3199.531
312.6554, 3222.673
313.1375, 3247.942
313.6196, 3273.592
314.1017, 3295.919
314.5839, 3307.150
315.0660, 3293.785
315.5481, 3275.372
316.0302, 3263.652
316.5123, 3261.625
316.9944, 3261.828
317.4766, 3256.132
317.9587, 3251.395
318.4408, 3259.427
318.9229, 3297.773
319.4050, 3338.401
319.8871, 3370.853
320.3692, 3394.698
320.8513, 3407.866
321.3335, 3397.332
321.8156, 3378.925
322.2977, 3374.300
322.7798, 3405.973
323.2619, 3434.958
323.7440, 3445.894
324.2262, 3431.892
324.7083, 3428.981
325.1904, 3449.841
325.6725, 3480.024
326.1546, 3503.530
326.6367, 3519.798
327.1189, 3528.957
327.6010, 3526.059
328.0831, 3507.992
328.5652, 3504.525
329.0473, 3522.382
329.5294, 3550.723
330.0116, 3580.085
330.4937, 3610.980
330.9758, 3641.902
331.4579, 3673.473
331.9400, 3705.739
332.4221, 3732.372
332.9043, 3749.280
333.3864, 3764.745
333.8685, 3783.861
334.3506, 3802.250
334.8327, 3834.940
335.3148, 3889.617
335.7970, 3960.856
336.2791, 4020.192
336.7612, 4060.646
337.2433, 4103.273
337.7254, 4167.133
338.2076, 4257.740
338.6897, 4338.056
339.1718, 4401.117
339.6539, 4452.494
340.1360, 4509.721
340.6181, 4570.601
341.1003, 4645.302
341.5824, 4742.268
342.0645, 4862.415
342.5466, 4985.363
343.0287, 5110.350
343.5108, 5238.262
343.9930, 5367.303
344.4751, 5497.336
344.9572, 5643.513
345.4393, 5817.992
345.9214, 6016.457
346.4035, 6228.489
346.8857, 6453.523
347.3678, 6687.910
347.8499, 6928.624
348.3320, 7175.122
348.8141, 7423.458
349.2962, 7657.744
349.7784, 7897.122
350.2605, 8190.136
350.7426, 8541.945
351.2247, 8911.075
351.7068, 9253.915
352.1889, 9582.964
352.6710, 9925.428
353.1531, 10300.19
353.6353, 10693.72
354.1174, 11094.81
354.5995, 11503.29
355.0816, 11918.58
355.5637, 12336.79
356.0458, 12760.03
356.5280, 13182.74
357.0101, 13615.52
357.4922, 14036.58
357.9743, 14443.63
358.4564, 14832.36
358.9385, 15176.67
359.4207, 15459.43
359.9028, 15690.50
360.3849, 15877.80
360.8670, 16038.56
361.3491, 16135.59
361.8312, 16171.25
362.3134, 16135.74
362.7955, 15997.30
363.2776, 15715.85
363.7597, 15351.01
364.2418, 14928.96
364.7239, 14442.61
365.2061, 13917.08
365.6882, 13351.92
366.1703, 12753.10
366.6524, 12136.87
367.1345, 11467.25
367.6166, 10814.81
368.0988, 10191.49
368.5809, 9587.093
369.0630, 9038.836
369.5451, 8557.826
370.0272, 8123.988
370.5093, 7708.946
370.9915, 7303.547
371.4736, 6936.827
371.9557, 6623.326
372.4378, 6362.458
372.9199, 6119.804
373.4020, 5891.677
373.8842, 5683.238
374.3663, 5504.248
374.8484, 5359.095
375.3305, 5223.474
375.8126, 5095.777
376.2947, 4974.826
376.7769, 4863.718
377.2590, 4761.382
377.7411, 4669.391
378.2232, 4587.013
378.7053, 4513.954
379.1874, 4454.398
379.6696, 4409.372
380.1517, 4377.497
380.6338, 4357.619
381.1159, 4349.801
381.5980, 4347.456
382.0801, 4346.289
382.5623, 4347.382
383.0444, 4353.150
383.5265, 4362.784
384.0086, 4381.067
384.4907, 4415.934
384.9728, 4465.121
385.4549, 4519.741
385.9370, 4578.574
386.4192, 4639.254
386.9013, 4695.477
387.3834, 4745.954
387.8655, 4802.084
388.3476, 4872.374
388.8297, 4953.514
389.3119, 5040.158
389.7940, 5131.492
390.2761, 5227.809
390.7582, 5332.568
391.2403, 5444.520
391.7224, 5553.858
392.2046, 5651.391
392.6867, 5746.612
393.1688, 5847.533
393.6509, 5961.192
394.1330, 6073.457
394.6151, 6183.449
395.0973, 6290.112
395.5794, 6389.469
396.0615, 6482.216
396.5436, 6567.222
397.0257, 6645.766
397.5078, 6726.331
397.9900, 6782.625
398.4721, 6802.514
398.9542, 6799.651
399.4363, 6795.499
399.9184, 6809.672
400.4005, 6797.749
400.8827, 6744.493
401.3648, 6645.295
401.8469, 6543.646
402.3290, 6442.341
402.8111, 6335.520
403.2932, 6215.939
403.7754, 6081.813
404.2575, 5942.938
404.7396, 5799.710
405.2217, 5653.909
405.7038, 5517.499
406.1859, 5390.861
406.6681, 5272.166
407.1502, 5162.500
407.6323, 5063.284
408.1144, 4959.254
408.5965, 4847.757
409.0786, 4732.064
409.5608, 4616.420
410.0429, 4501.020
410.5250, 4394.652
411.0071, 4305.051
411.4892, 4227.934
411.9713, 4152.849
412.4535, 4078.745
412.9356, 4005.695
413.4177, 3928.837
413.8998, 3851.890
414.3819, 3784.570
414.8640, 3736.963
415.3462, 3696.247
415.8283, 3648.954
416.3104, 3595.351
416.7925, 3542.718
417.2746, 3489.276
417.7567, 3441.323
418.2388, 3404.958
418.7209, 3391.366
419.2031, 3377.516
419.6852, 3351.463
420.1673, 3317.171
420.6494, 3287.339
421.1315, 3276.776
421.6136, 3262.598
422.0958, 3229.884
422.5779, 3161.268
423.0600, 3112.938
423.5421, 3109.980
424.0242, 3125.813
424.5063, 3121.337
424.9885, 3076.896
425.4706, 3035.613
425.9527, 3007.638
426.4348, 2993.608
426.9169, 2977.191
427.3990, 2953.576
427.8812, 2933.623
428.3633, 2928.472
428.8454, 2944.446
429.3275, 2952.604
429.8096, 2947.221
430.2917, 2932.267
430.7739, 2920.797
431.2560, 2913.324
431.7381, 2906.223
432.2202, 2897.923
432.7023, 2888.315
433.1844, 2876.534
433.6666, 2862.477
434.1487, 2846.013
434.6308, 2822.304
435.1129, 2793.990
435.5950, 2774.842
436.0771, 2780.740
436.5593, 2795.562
437.0414, 2789.999
437.5235, 2764.607
438.0056, 2740.307
438.4877, 2734.597
438.9698, 2739.591
439.4520, 2744.710
439.9341, 2748.645
440.4162, 2749.666
440.8983, 2740.968
441.3804, 2727.324
441.8625, 2723.629
442.3447, 2749.659
442.8268, 2777.977
443.3089, 2790.861
443.7910, 2780.326
444.2731, 2772.386
444.7552, 2773.846
445.2374, 2780.828
445.7195, 2788.098
446.2016, 2798.860
446.6837, 2805.844
447.1658, 2805.025
447.6479, 2796.286
448.1301, 2794.547
448.6122, 2801.232
449.0943, 2813.417
449.5764, 2829.841
450.0585, 2852.885
450.5406, 2873.050
451.0227, 2887.483
451.5049, 2899.725
451.9870, 2919.768
452.4691, 2948.666
452.9512, 2978.720
453.4333, 3007.516
453.9154, 3034.780
454.3976, 3054.029
454.8797, 3063.415
455.3618, 3072.375
455.8439, 3091.944
456.3260, 3120.623
456.8081, 3151.284
457.2903, 3180.934
457.7724, 3212.106
458.2545, 3249.554
458.7366, 3292.706
459.2187, 3338.450
459.7008, 3384.972
460.1830, 3432.951
460.6651, 3483.015
461.1472, 3536.195
461.6293, 3588.713
462.1114, 3640.355
462.5935, 3689.172
463.0757, 3731.672
463.5578, 3753.928
464.0399, 3780.882
464.5220, 3831.139
465.0041, 3909.222
465.4862, 3963.847
465.9684, 3967.422
466.4505, 3956.356
466.9326, 3959.391
467.4147, 3983.812
467.8968, 4012.485
468.3789, 4047.394
468.8611, 4085.587
469.3432, 4115.565
469.8253, 4131.139
470.3074, 4150.760
470.7895, 4185.592
471.2716, 4237.808
471.7538, 4280.300
472.2359, 4309.369
472.7180, 4337.393
473.2001, 4383.546
473.6822, 4447.021
474.1643, 4504.638
474.6465, 4547.741
475.1286, 4582.045
475.6107, 4620.532
476.0928, 4662.809
476.5749, 4701.977
477.0570, 4721.210
477.5392, 4737.185
478.0213, 4779.756
478.5034, 4859.007
478.9855, 4947.776
479.4676, 5019.854
479.9497, 5087.042
480.4319, 5170.979
480.9140, 5291.153
481.3961, 5421.729
481.8782, 5550.418
482.3603, 5676.742
482.8424, 5808.388
483.3246, 5943.274
483.8066, 6086.217
484.2888, 6238.615
484.7709, 6390.306
485.2530, 6566.255
485.7351, 6777.910
486.2172, 7012.085
486.6993, 7243.061
487.1815, 7458.489
487.6636, 7687.911
488.1457, 7940.928
488.6278, 8220.229
489.1099, 8499.547
489.5920, 8772.731
490.0742, 9054.567
490.5563, 9361.144
491.0384, 9691.248
491.5205, 10018.71
492.0026, 10334.68
492.4847, 10645.54
492.9669, 10954.57
493.4490, 11264.61
493.9311, 11575.78
494.4132, 11908.51
494.8953, 12239.72
495.3774, 12526.84
495.8596, 12762.56
496.3417, 12989.43
496.8238, 13262.68
497.3059, 13540.86
497.7880, 13760.97
498.2701, 13881.92
498.7523, 13960.64
499.2344, 14033.44
499.7165, 14091.24
500.1986, 14091.88
500.6807, 14015.89
501.1628, 13885.62
501.6450, 13711.17
502.1271, 13487.55
502.6092, 13227.07
503.0913, 12935.50
503.5734, 12609.52
504.0555, 12237.42
504.5377, 11798.42
505.0198, 11359.99
505.5019, 10934.73
505.9840, 10518.61
506.4661, 10110.06
506.9482, 9713.886
507.4304, 9321.166
507.9125, 8921.720
508.3946, 8515.279
508.8767, 8137.378
509.3588, 7791.432
509.8409, 7470.625
510.3231, 7167.406
510.8052, 6883.686
511.2873, 6616.333
511.7694, 6368.668
512.2515, 6134.072
512.7336, 5903.299
513.2158, 5677.719
513.6979, 5466.133
514.1800, 5272.156
514.6621, 5095.729
515.1442, 4935.471
515.6263, 4793.315
516.1085, 4661.779
516.5906, 4547.446
517.0727, 4439.891
517.5548, 4324.333
518.0369, 4181.563
518.5190, 4048.929
519.0012, 3931.825
519.4833, 3830.915
519.9654, 3742.191
520.4475, 3673.196
520.9296, 3605.554
521.4117, 3525.520
521.8939, 3426.615
522.3760, 3346.320
522.8581, 3290.070
523.3402, 3245.343
523.8223, 3192.294
524.3044, 3131.848
524.7866, 3077.845
525.2687, 3037.647
525.7508, 3005.656
526.2329, 2968.183
526.7150, 2925.990
527.1971, 2886.211
527.6793, 2855.636
528.1614, 2829.297
528.6435, 2800.933
529.1256, 2768.805
529.6077, 2736.743
530.0898, 2708.369
530.5720, 2681.538
531.0541, 2653.265
531.5362, 2620.685
532.0183, 2588.210
532.5004, 2553.863
532.9825, 2518.956
533.4646, 2493.766
533.9467, 2490.242
534.4288, 2486.710
534.9109, 2472.357
535.3931, 2438.967
535.8752, 2418.807
536.3573, 2417.638
536.8394, 2422.842
537.3215, 2416.378
537.8036, 2396.364
538.2858, 2377.980
538.7679, 2366.192
539.2500, 2357.988
539.7321, 2344.004
540.2142, 2324.656
540.6964, 2307.862
541.1785, 2302.534
541.6606, 2302.679
542.1427, 2297.487
542.6248, 2285.810
543.1069, 2270.249
543.5891, 2246.908
544.0712, 2222.690
544.5533, 2206.985
545.0354, 2210.041
545.5175, 2214.796
545.9996, 2214.497
546.4818, 2210.256
546.9639, 2205.872
547.4460, 2202.290
547.9281, 2198.588
548.4102, 2194.644
548.8923, 2190.827
549.3745, 2184.923
549.8566, 2175.211
550.3387, 2165.280
550.8208, 2158.812
551.3029, 2156.852
551.7850, 2153.295
552.2672, 2146.515
552.7493, 2138.600
553.2314, 2134.421
553.7135, 2133.914
554.1956, 2134.416
554.6777, 2135.554
555.1599, 2136.540
555.6420, 2134.199
556.1241, 2128.647
556.6062, 2125.841
557.0883, 2135.777
557.5704, 2149.005
558.0526, 2152.623
558.5347, 2138.604
559.0168, 2126.264
559.4989, 2129.299
559.9810, 2139.385
560.4631, 2142.298
560.9453, 2120.158
561.4274, 2104.961
561.9095, 2112.316
562.3916, 2140.086
562.8737, 2152.084
563.3558, 2137.861
563.8380, 2121.668
564.3201, 2118.842
564.8022, 2134.091
565.2843, 2138.518
565.7664, 2128.484
566.2485, 2114.188
566.7307, 2108.719
567.2128, 2111.593
567.6949, 2118.815
568.1770, 2132.766
568.6591, 2146.424
569.1412, 2146.204
569.6234, 2134.127
570.1055, 2120.031
570.5876, 2106.665
571.0697, 2095.822
571.5518, 2088.596
572.0339, 2085.090
572.5161, 2086.323
572.9982, 2095.139
573.4803, 2107.672
573.9624, 2120.749
574.4445, 2134.261
574.9266, 2147.660
575.4088, 2166.618
575.8909, 2184.329
576.3730, 2184.693
576.8551, 2156.101
577.3372, 2132.579
577.8193, 2125.547
578.3015, 2133.351
578.7836, 2137.553
579.2657, 2137.391
579.7478, 2137.739
580.2299, 2145.315
580.7120, 2157.288
581.1942, 2159.937
581.6763, 2150.479
582.1584, 2138.150
582.6405, 2133.196
583.1226, 2132.607
583.6047, 2130.447
584.0869, 2121.741
584.5690, 2113.448
585.0511, 2110.337
585.5332, 2111.418
586.0153, 2113.027
586.4974, 2114.385
586.9796, 2115.671
587.4617, 2116.657
587.9438, 2116.925
588.4259, 2119.080
588.9080, 2125.038
589.3901, 2130.960
589.8723, 2133.740
590.3544, 2132.715
590.8365, 2130.994
591.3186, 2128.420
591.8007, 2125.917
592.2828, 2125.658
592.7650, 2127.500
593.2471, 2128.960
593.7292, 2131.565
594.2113, 2131.563
594.6934, 2116.368
595.1755, 2089.021
595.6577, 2070.629
596.1398, 2087.602
596.6219, 2112.658
597.1040, 2119.181
597.5861, 2100.994
598.0682, 2080.048
598.5503, 2057.629
599.0324, 2040.111
599.5145, 2033.732
599.9966, 2054.662
600.4788, 2067.379
600.9609, 2064.912
601.4430, 2054.037
601.9251, 2051.312
602.4072, 2058.625
602.8893, 2069.114
603.3715, 2083.937
603.8536, 2100.525
604.3357, 2098.709
604.8178, 2077.290
605.2999, 2054.523
605.7820, 2042.918
606.2642, 2040.589
606.7463, 2045.847
607.2284, 2060.002
607.7105, 2072.417
608.1926, 2074.134
608.6747, 2068.700
609.1569, 2060.990
609.6390, 2047.873
610.1211, 2037.975
610.6032, 2038.615
611.0853, 2045.173
611.5674, 2044.387
612.0496, 2024.600
612.5317, 2008.128
613.0138, 2000.134
613.4959, 2000.520
613.9780, 2011.662
614.4601, 2039.979
614.9423, 2063.374
615.4244, 2061.274
615.9065, 2035.177
616.3886, 2020.766
616.8707, 2022.145
617.3528, 2028.237
617.8350, 2026.232
618.3171, 2018.734
618.7992, 2012.115
619.2813, 2008.662
619.7634, 2006.402
620.2455, 2004.186
620.7277, 2001.982
621.2098, 1999.651
621.6919, 1997.741
622.1740, 1995.136
622.6561, 1988.960
623.1382, 1978.723
623.6204, 1978.332
624.1025, 2000.605
624.5846, 2018.974
625.0667, 2015.780
625.5488, 1982.132
626.0309, 1966.349
626.5131, 1973.460
626.9952, 1987.347
627.4773, 1986.320
627.9594, 1972.572
628.4415, 1965.234
628.9236, 1971.425
629.4058, 1980.907
629.8879, 1979.432
630.3700, 1970.172
630.8521, 1961.839
631.3342, 1959.595
631.8163, 1958.910
632.2985, 1955.934
632.7806, 1951.080
633.2627, 1949.638
633.7448, 1959.544
634.2269, 1967.881
634.7090, 1967.459
635.1912, 1955.612
635.6733, 1943.917
636.1554, 1929.863
636.6375, 1919.507
637.1196, 1920.987
637.6017, 1935.405
638.0839, 1947.160
638.5660, 1954.124
639.0481, 1957.296
639.5302, 1956.870
640.0123, 1953.625
640.4944, 1950.540
640.9766, 1947.100
641.4587, 1945.884
641.9408, 1952.588
642.4229, 1964.646
642.9050, 1971.809
643.3871, 1965.886
643.8693, 1956.589
644.3514, 1948.215
644.8335, 1940.802
645.3156, 1935.914
645.7977, 1932.192
646.2798, 1932.162
646.7620, 1938.227
647.2441, 1952.217
647.7262, 1966.034
648.2083, 1980.385
648.6904, 1991.899
649.1725, 1992.471
649.6547, 1984.002
650.1368, 1982.769
650.6189, 1997.384
651.1010, 2014.937
651.5831, 2014.259
652.0652, 2001.800
652.5474, 1996.086
653.0295, 2016.879
653.5116, 2038.049
653.9937, 2038.276
654.4758, 2019.216
654.9579, 2013.504
655.4401, 2043.512
655.9222, 2075.313
656.4043, 2092.117
656.8864, 2088.917
657.3685, 2093.782
657.8506, 2108.999
658.3328, 2128.339
658.8149, 2149.278
659.2970, 2171.605
659.7791, 2178.245
660.2612, 2162.104
660.7433, 2145.106
661.2255, 2164.356
661.7076, 2206.195
662.1897, 2235.757
662.6718, 2224.779
663.1539, 2212.848
663.6360, 2230.594
664.1182, 2269.718
664.6002, 2306.126
665.0823, 2334.958
665.5645, 2357.247
666.0466, 2367.137
666.5287, 2365.013
667.0108, 2383.252
667.4929, 2433.234
667.9750, 2483.591
668.4572, 2512.051
668.9393, 2517.677
669.4214, 2538.060
669.9035, 2575.261
670.3856, 2618.056
670.8677, 2655.888
671.3499, 2689.968
671.8320, 2724.410
672.3141, 2759.042
672.7962, 2797.155
673.2783, 2841.011
673.7604, 2889.820
674.2426, 2942.365
674.7247, 3005.849
675.2068, 3063.878
675.6889, 3103.302
676.1710, 3133.436
676.6531, 3185.658
677.1353, 3273.061
677.6174, 3359.250
678.0995, 3432.985
678.5816, 3496.645
679.0637, 3562.710
679.5458, 3631.982
680.0280, 3703.811
680.5101, 3779.176
680.9922, 3856.949
681.4743, 3936.246
681.9564, 4016.308
682.4385, 4099.878
682.9207, 4181.847
683.4028, 4270.295
683.8849, 4374.354
684.3670, 4508.703
684.8491, 4631.304
685.3312, 4724.416
685.8134, 4803.457
686.2955, 4886.137
686.7776, 4972.111
687.2597, 5060.585
687.7418, 5152.529
688.2239, 5244.752
688.7061, 5332.551
689.1882, 5415.543
689.6703, 5493.229
690.1524, 5564.703
690.6345, 5632.323
691.1166, 5705.667
691.5988, 5781.620
692.0809, 5848.146
692.5630, 5884.103
693.0451, 5918.098
693.5272, 5976.027
694.0093, 6059.435
694.4915, 6129.417
694.9736, 6176.079
695.4557, 6208.497
695.9378, 6231.347
696.4199, 6243.881
696.9020, 6248.996
697.3842, 6244.785
697.8663, 6236.968
698.3484, 6237.099
698.8305, 6242.487
699.3126, 6223.134
699.7947, 6172.423
700.2769, 6106.208
700.7590, 6031.961
701.2411, 5957.184
701.7232, 5897.200
702.2053, 5876.021
702.6874, 5846.774
703.1696, 5783.693
703.6517, 5696.012
704.1338, 5603.645
704.6159, 5501.941
705.0980, 5405.693
705.5801, 5325.597
706.0623, 5254.443
706.5444, 5154.396
707.0265, 5019.469
707.5086, 4881.095
707.9907, 4752.953
708.4728, 4634.067
708.9550, 4525.675
709.4371, 4426.518
709.9192, 4328.827
710.4013, 4222.321
710.8834, 4114.515
711.3655, 4012.062
711.8477, 3916.467
712.3298, 3827.931
712.8119, 3752.312
713.2940, 3680.074
713.7761, 3603.304
714.2582, 3517.996
714.7404, 3436.398
715.2225, 3357.064
715.7046, 3283.187
716.1867, 3219.422
716.6688, 3166.643
717.1509, 3109.562
717.6331, 3045.366
718.1152, 2979.713
718.5973, 2920.585
719.0794, 2867.159
719.5615, 2819.082
720.0436, 2776.755
720.5258, 2738.397
721.0079, 2704.004
721.4900, 2672.584
721.9721, 2640.459
722.4542, 2599.594
722.9363, 2566.056
723.4185, 2546.607
723.9006, 2538.253
724.3827, 2522.305
724.8648, 2496.691
725.3469, 2469.792
725.8290, 2443.540
726.3112, 2419.135
726.7933, 2404.003
727.2754, 2397.697
727.7575, 2387.498
728.2396, 2359.401
728.7217, 2324.991
729.2039, 2296.655
729.6860, 2275.485
730.1681, 2259.957
730.6501, 2255.820
731.1323, 2252.784
731.6144, 2242.333
732.0965, 2217.814
732.5786, 2203.663
733.0607, 2205.791
733.5428, 2209.724
734.0250, 2197.758
734.5071, 2170.329
734.9892, 2149.173
735.4713, 2137.932
735.9534, 2131.531
736.4355, 2124.928
736.9177, 2118.374
737.3998, 2112.356
737.8819, 2108.209
738.3640, 2102.899
738.8461, 2091.277
739.3282, 2077.973
739.8104, 2071.708
740.2925, 2088.525
740.7746, 2093.289
741.2567, 2074.315
741.7388, 2041.912
742.2209, 2029.799
742.7031, 2041.611
743.1852, 2045.904
743.6673, 2026.100
744.1494, 1992.945
744.6315, 1968.814
745.1136, 1953.536
745.5958, 1947.766
746.0779, 1964.044
746.5600, 1980.501
747.0421, 1976.940
747.5242, 1953.859
748.0063, 1937.648
748.4885, 1941.745
748.9706, 1947.619
749.4527, 1947.665
749.9348, 1941.467
750.4169, 1934.730
750.8990, 1927.478
751.3812, 1919.779
751.8633, 1910.794
752.3454, 1901.375
752.8275, 1894.320
753.3096, 1889.811
753.7917, 1888.852
754.2739, 1901.058
754.7560, 1913.009
755.2381, 1905.922
755.7202, 1866.027
756.2023, 1838.921
756.6844, 1850.404
757.1666, 1872.089
757.6487, 1876.503
758.1308, 1853.342
758.6129, 1840.169
759.0950, 1840.926
759.5771, 1848.608
760.0593, 1855.443
760.5414, 1861.020
761.0235, 1862.021
761.5056, 1857.529
761.9877, 1848.620
762.4698, 1829.567
762.9520, 1808.223
763.4341, 1798.348
763.9162, 1820.085
764.3983, 1836.777
764.8804, 1833.978
765.3625, 1818.917
765.8447, 1808.008
766.3268, 1803.094
766.8089, 1798.114
767.2910, 1790.412
767.7731, 1782.811
768.2552, 1785.073
768.7374, 1796.161
769.2195, 1804.240
769.7016, 1802.426
770.1837, 1795.875
770.6658, 1790.555
771.1479, 1785.933
771.6301, 1779.847
772.1122, 1766.847
772.5943, 1756.537
773.0764, 1752.438
773.5585, 1754.746
774.0406, 1765.184
774.5228, 1791.935
775.0049, 1809.837
775.4870, 1803.586
775.9691, 1777.881
776.4512, 1765.101
776.9333, 1764.954
777.4155, 1766.823
777.8976, 1765.757
778.3797, 1761.071
778.8618, 1746.945
779.3439, 1723.712
779.8260, 1712.929
780.3082, 1740.555
780.7903, 1769.998
781.2724, 1776.609
781.7545, 1755.323
782.2366, 1739.987
782.7188, 1730.250
783.2009, 1727.176
783.6830, 1735.489
784.1651, 1753.183
784.6472, 1760.971
785.1293, 1757.520
785.6115, 1749.784
786.0936, 1738.475
786.5757, 1729.145
787.0578, 1729.283
787.5399, 1741.736
788.0220, 1756.195
788.5042, 1772.211
788.9863, 1786.585
789.4684, 1797.516
789.9505, 1807.543
790.4326, 1805.774
790.9147, 1787.153
791.3969, 1767.135
791.8790, 1767.519
792.3611, 1783.880
792.8432, 1788.401
793.3253, 1774.266
793.8074, 1759.774
794.2896, 1767.650
794.7717, 1784.171
795.2538, 1790.524
795.7359, 1773.047
796.2180, 1760.798
796.7001, 1764.148
797.1822, 1774.584
797.6643, 1782.474
798.1464, 1785.919
798.6285, 1794.872
799.1107, 1814.283
799.5928, 1831.731
800.0749, 1820.555
800.5570, 1789.842
801.0391, 1774.389
801.5212, 1789.769
802.0034, 1810.720
802.4855, 1818.656
802.9676, 1818.015
803.4497, 1815.633
803.9318, 1806.245
804.4139, 1804.550
804.8961, 1815.399
805.3782, 1833.166
805.8603, 1850.054
806.3424, 1867.616
806.8245, 1873.335
807.3066, 1861.294
807.7888, 1841.922
808.2709, 1829.746
808.7530, 1824.576
809.2351, 1826.170
809.7172, 1840.526
810.1993, 1854.250
810.6815, 1857.814
811.1636, 1855.478
811.6457, 1856.343
812.1278, 1867.013
812.6099, 1873.079
813.0920, 1870.840
813.5742, 1863.680
814.0563, 1859.209
814.5384, 1857.463
815.0205, 1857.968
815.5026, 1861.495
815.9847, 1865.918
816.4669, 1867.377
816.9490, 1867.257
817.4311, 1869.128
817.9132, 1880.667
818.3953, 1887.947
818.8774, 1880.604
819.3596, 1864.564
819.8417, 1858.587
820.3238, 1866.546
820.8059, 1876.047
821.2880, 1884.526
821.7701, 1892.241
822.2523, 1901.106
822.7344, 1910.418
823.2165, 1914.697
823.6986, 1908.317
824.1807, 1898.937
824.6628, 1891.410
825.1450, 1886.734
825.6271, 1887.901
826.1092, 1908.456
826.5913, 1919.734
827.0734, 1907.135
827.5555, 1881.632
828.0377, 1880.477
828.5198, 1908.932
829.0019, 1932.852
829.4840, 1941.403
829.9661, 1937.398
830.4482, 1916.797
830.9304, 1886.673
831.4125, 1870.914
831.8946, 1900.668
832.3767, 1929.599
832.8588, 1926.862
833.3409, 1901.756
833.8231, 1889.865
834.3052, 1898.136
834.7873, 1912.512
835.2694, 1934.381
835.7515, 1957.591
836.2336, 1960.133
836.7158, 1943.021
837.1979, 1927.616
837.6800, 1923.997
838.1621, 1925.471
838.6442, 1922.815
839.1263, 1918.826
839.6085, 1920.956
840.0906, 1940.150
840.5727, 1956.848
841.0548, 1962.740
841.5369, 1962.020
842.0190, 1966.761
842.5012, 1979.588
842.9833, 1987.268
843.4654, 1984.766
843.9475, 1976.198
844.4296, 1968.414
844.9117, 1961.898
845.3939, 1958.474
845.8760, 1959.429
846.3581, 1963.317
846.8402, 1969.380
847.3223, 1977.729
847.8044, 1988.871
848.2866, 2008.323
848.7687, 2021.879
849.2508, 2027.189
849.7329, 2025.109
850.2150, 2012.642
850.6971, 1990.819
851.1793, 1981.963
851.6614, 2000.278
852.1435, 2023.885
852.6256, 2025.791
853.1077, 2014.280
853.5898, 2006.270
854.0720, 2011.030
854.5541, 2015.836
855.0362, 2012.448
855.5183, 2009.179
856.0004, 2023.907
856.4825, 2063.062
856.9647, 2087.469
857.4468, 2085.340
857.9289, 2073.817
858.4110, 2081.715
858.8931, 2102.479
859.3752, 2118.736
859.8574, 2121.691
860.3395, 2124.280
860.8216, 2136.507
861.3037, 2151.751
861.7858, 2158.577
862.2679, 2147.530
862.7500, 2146.430
863.2321, 2160.417
863.7142, 2180.847
864.1964, 2194.728
864.6785, 2203.234
865.1606, 2214.434
865.6427, 2230.770
866.1248, 2248.183
866.6069, 2261.168
867.0891, 2273.724
867.5712, 2291.449
868.0533, 2325.316
868.5354, 2347.596
869.0175, 2349.894
869.4996, 2345.876
869.9818, 2350.630
870.4639, 2365.170
870.9460, 2372.168
871.4281, 2368.993
871.9102, 2364.338
872.3923, 2365.127
872.8745, 2371.590
873.3566, 2386.741
873.8387, 2414.904
874.3208, 2435.422
874.8029, 2438.641
875.2850, 2432.313
875.7672, 2420.806
876.2493, 2398.789
876.7314, 2394.397
877.2135, 2411.727
877.6956, 2432.052
878.1777, 2435.274
878.6599, 2429.059
879.1420, 2432.234
879.6241, 2446.468
880.1062, 2463.462
880.5883, 2488.490
881.0704, 2506.500
881.5526, 2501.320
882.0347, 2465.917
882.5168, 2451.625
882.9989, 2466.412
883.4810, 2485.400
883.9631, 2492.640
884.4453, 2491.060
884.9274, 2499.336
885.4095, 2516.463
885.8916, 2530.474
886.3737, 2526.501
886.8558, 2521.587
887.3380, 2533.614
887.8201, 2561.343
888.3022, 2576.609
888.7843, 2565.896
889.2664, 2556.427
889.7485, 2556.641
890.2307, 2565.407
890.7128, 2579.041
891.1949, 2597.446
891.6770, 2616.601
892.1591, 2639.297
892.6412, 2658.133
893.1234, 2659.162
893.6055, 2648.998
894.0876, 2646.571
894.5697, 2663.939
895.0518, 2682.544
895.5339, 2698.496
896.0161, 2712.489
896.4982, 2724.739
896.9803, 2735.068
897.4624, 2749.008
897.9445, 2768.551
898.4266, 2791.985
898.9088, 2820.080
899.3909, 2850.020
899.8730, 2876.930
900.3551, 2894.752
900.8372, 2914.790
901.3193, 2940.086
901.8015, 2969.142
902.2836, 3002.629
902.7657, 3042.891
903.2478, 3072.417
903.7299, 3086.831
904.2120, 3097.758
904.6942, 3116.996
905.1763, 3143.764
905.6584, 3176.066
906.1405, 3212.590
906.6226, 3258.189
907.1047, 3326.190
907.5869, 3396.000
908.0690, 3449.008
908.5511, 3477.314
909.0332, 3521.225
909.5153, 3583.795
909.9974, 3650.885
910.4796, 3711.837
910.9617, 3767.815
911.4438, 3817.733
911.9259, 3861.732
912.4080, 3919.420
912.8901, 4016.873
913.3723, 4118.817
913.8544, 4196.791
914.3365, 4250.675
914.8186, 4336.089
915.3007, 4463.249
915.7828, 4592.261
916.2650, 4703.793
916.7471, 4802.490
917.2292, 4891.007
917.7113, 4974.251
918.1934, 5075.192
918.6755, 5215.104
919.1577, 5367.935
919.6398, 5518.902
920.1219, 5671.129
920.6040, 5830.827
921.0861, 5999.979
921.5682, 6172.987
922.0504, 6346.976
922.5325, 6526.641
923.0146, 6727.059
923.4967, 6940.145
923.9788, 7148.190
924.4609, 7336.047
924.9431, 7536.911
925.4252, 7787.432
925.9073, 8054.977
926.3894, 8292.671
926.8715, 8452.387
927.3536, 8678.610
927.8357, 8998.365
928.3178, 9340.739
928.7999, 9626.854
929.2820, 9873.584
929.7642, 10132.75
930.2463, 10411.74
930.7284, 10717.26
931.2105, 11069.92
931.6926, 11440.79
932.1747, 11800.95
932.6569, 12147.61
933.1390, 12505.58
933.6211, 12879.77
934.1032, 13260.87
934.5853, 13657.28
935.0674, 14055.68
935.5496, 14429.03
936.0317, 14778.60
936.5138, 15123.77
936.9959, 15493.01
937.4780, 15849.27
937.9601, 16174.68
938.4423, 16466.88
938.9244, 16748.23
939.4065, 17039.70
939.8886, 17282.09
940.3707, 17466.02
940.8528, 17586.06
941.3350, 17623.41
941.8171, 17582.43
942.2992, 17482.74
942.7813, 17343.04
943.2634, 17122.27
943.7455, 16782.39
944.2277, 16351.31
944.7098, 15864.51
945.1919, 15309.15
945.6740, 14728.31
946.1561, 14124.35
946.6382, 13507.48
947.1204, 12889.19
947.6025, 12269.29
948.0846, 11636.79
948.5667, 10988.00
949.0488, 10375.45
949.5309, 9838.234
950.0131, 9343.822
950.4952, 8871.225
950.9773, 8417.117
951.4594, 7994.781
951.9415, 7605.010
952.4236, 7240.962
952.9058, 6892.894
953.3879, 6564.896
953.8700, 6275.916
954.3521, 6021.217
954.8342, 5786.319
955.3163, 5568.356
955.7985, 5363.946
956.2806, 5174.499
956.7627, 4996.117
957.2448, 4823.890
957.7269, 4653.388
958.2090, 4502.230
958.6912, 4376.700
959.1733, 4265.679
959.6554, 4155.118
960.1375, 4047.145
960.6196, 3946.530
961.1017, 3855.416
961.5839, 3771.799
962.0660, 3694.964
962.5481, 3624.662
963.0302, 3561.077
963.5123, 3503.733
963.9944, 3456.105
964.4766, 3420.054
964.9587, 3382.767
965.4408, 3331.320
965.9229, 3272.933
966.4050, 3216.572
966.8871, 3162.961
967.3693, 3115.694
967.8514, 3082.217
968.3335, 3049.197
968.8156, 3012.541
969.2977, 2972.731
969.7798, 2933.599
970.2620, 2894.835
970.7441, 2858.696
971.2262, 2828.253
971.7083, 2797.503
972.1904, 2753.950
972.6725, 2706.970
973.1547, 2674.546
973.6368, 2678.552
974.1189, 2674.036
974.6010, 2656.263
975.0831, 2630.181
975.5652, 2602.110
976.0474, 2571.348
976.5295, 2526.983
977.0116, 2466.320
977.4937, 2412.568
977.9758, 2389.786
978.4579, 2380.234
978.9401, 2371.906
979.4222, 2364.631
979.9043, 2341.948
980.3864, 2293.869
980.8685, 2251.402
981.3506, 2233.901
981.8328, 2231.611
982.3149, 2207.144
982.7970, 2165.888
983.2791, 2135.788
983.7612, 2147.438
984.2433, 2156.498
984.7255, 2136.242
985.2076, 2097.152
985.6897, 2062.880
986.1718, 2030.147
986.6539, 2017.230
987.1360, 2033.195
987.6182, 2051.574
988.1003, 2028.414
988.5824, 1984.196
989.0645, 1963.189
989.5466, 1979.162
990.0287, 1986.830
990.5109, 1958.697
990.9930, 1923.892
991.4751, 1898.946
991.9572, 1883.947
992.4393, 1877.070
992.9214, 1878.996
993.4036, 1878.745
993.8856, 1866.314
994.3677, 1849.965
994.8499, 1841.562
995.3320, 1838.334
995.8141, 1831.437
996.2962, 1814.328
996.7783, 1798.377
997.2604, 1785.550
997.7426, 1774.622
998.2247, 1763.882
998.7068, 1753.274
999.1889, 1740.337
999.6710, 1722.773
1000.153, 1711.650
1000.635, 1723.530
1001.117, 1742.044
1001.599, 1751.861
1002.082, 1750.118
1002.564, 1740.615
1003.046, 1720.305
1003.528, 1700.375
1004.010, 1687.867
1004.492, 1681.482
1004.974, 1679.846
1005.456, 1681.841
1005.939, 1681.721
1006.421, 1674.180
1006.903, 1666.461
1007.385, 1664.450
1007.867, 1663.758
1008.349, 1654.967
1008.831, 1637.456
1009.313, 1615.274
1009.795, 1587.208
1010.278, 1563.025
1010.760, 1557.425
1011.242, 1561.747
1011.724, 1564.597
1012.206, 1564.796
1012.688, 1559.087
1013.170, 1543.298
1013.652, 1526.244
1014.135, 1512.041
1014.617, 1500.704
1015.099, 1491.701
1015.581, 1485.162
1016.063, 1482.001
1016.545, 1486.032
1017.027, 1490.558
1017.509, 1491.229
1017.991, 1488.654
1018.474, 1485.218
1018.956, 1482.078
1019.438, 1474.973
1019.920, 1461.908
1020.402, 1447.691
1020.884, 1437.137
1021.366, 1431.073
1021.848, 1432.395
1022.331, 1442.949
1022.813, 1452.775
1023.295, 1460.722
1023.777, 1463.416
1024.259, 1457.030
1024.741, 1442.128
1025.223, 1437.221
1025.705, 1442.547
1026.188, 1443.888
1026.670, 1429.164
1027.152, 1409.825
1027.634, 1397.300
1028.116, 1389.296
1028.598, 1380.405
1029.080, 1367.531
1029.562, 1356.753
1030.044, 1348.032
1030.526, 1342.519
1031.009, 1344.079
1031.491, 1350.256
1031.973, 1350.759
1032.455, 1343.732
1032.937, 1341.175
1033.419, 1361.207
1033.901, 1378.356
1034.383, 1372.569
1034.865, 1346.148
1035.348, 1330.427
1035.830, 1326.516
1036.312, 1323.269
1036.794, 1314.465
1037.276, 1305.698
1037.758, 1305.669
1038.240, 1310.928
1038.722, 1314.914
1039.205, 1316.473
1039.687, 1314.903
1040.169, 1308.222
1040.651, 1301.452
1041.133, 1302.356
1041.615, 1308.487
1042.097, 1304.136
1042.579, 1288.588
1043.062, 1273.004
1043.544, 1262.459
1044.026, 1256.422
1044.508, 1254.750
1044.990, 1257.403
1045.472, 1266.056
1045.954, 1283.212
1046.436, 1293.107
1046.918, 1289.453
1047.401, 1280.095
1047.883, 1274.603
1048.365, 1271.384
1048.847, 1267.517
1049.329, 1260.796
1049.811, 1257.433
1050.293, 1260.809
1050.775, 1263.932
1051.257, 1261.641
1051.740, 1254.560
1052.222, 1245.756
1052.704, 1235.929
1053.186, 1231.430
1053.668, 1240.886
1054.150, 1252.030
1054.632, 1259.497
1055.114, 1262.657
1055.597, 1260.283
1056.079, 1251.090
1056.561, 1241.566
1057.043, 1231.663
1057.525, 1225.811
1058.007, 1236.256
1058.489, 1250.766
1058.971, 1249.662
1059.453, 1227.186
1059.936, 1212.756
1060.418, 1214.432
1060.900, 1221.206
1061.382, 1231.926
1061.864, 1242.831
1062.346, 1233.482
1062.828, 1209.735
1063.310, 1200.222
1063.792, 1231.546
1064.275, 1260.497
1064.757, 1262.852
1065.239, 1250.879
1065.721, 1240.934
1066.203, 1232.743
1066.685, 1229.518
1067.167, 1232.399
1067.649, 1231.301
1068.132, 1210.816
1068.614, 1186.013
1069.096, 1173.205
1069.578, 1172.695
1070.060, 1179.747
1070.542, 1201.595
1071.024, 1215.026
1071.506, 1212.047
1071.989, 1201.894
1072.471, 1203.337
1072.953, 1211.900
1073.435, 1214.270
1073.917, 1205.751
1074.399, 1197.705
1074.881, 1197.668
1075.363, 1197.730
1075.845, 1191.064
1076.328, 1178.022
1076.810, 1175.457
1077.292, 1183.149
1077.774, 1193.525
1078.256, 1209.623
1078.738, 1219.533
1079.220, 1201.220
1079.702, 1171.808
1080.184, 1168.985
1080.667, 1215.906
1081.149, 1234.864
1081.631, 1215.316
1082.113, 1186.974
1082.595, 1180.123
1083.077, 1185.982
1083.559, 1188.894
1084.041, 1188.091
1084.524, 1190.448
1085.006, 1206.356
1085.488, 1215.809
1085.970, 1212.387
1086.452, 1199.649
1086.934, 1183.102
1087.416, 1164.266
1087.898, 1152.171
1088.380, 1149.911
1088.863, 1150.938
1089.345, 1153.646
1089.827, 1155.732
1090.309, 1154.548
1090.791, 1149.701
1091.273, 1148.893
1091.755, 1152.481
1092.237, 1155.404
1092.719, 1154.138
1093.202, 1151.427
1093.684, 1149.956
1094.166, 1149.408
1094.648, 1149.266
1095.130, 1152.263
1095.612, 1149.426
1096.094, 1138.031
1096.576, 1126.612
1097.058, 1127.706
1097.541, 1134.143
1098.023, 1126.263
1098.505, 1104.670
1098.987, 1090.770
1099.469, 1098.519
1099.951, 1110.099
1100.433, 1123.828
1100.915, 1134.828
1101.398, 1126.722
1101.880, 1103.278
1102.362, 1091.005
1102.844, 1097.668
1103.326, 1106.812
1103.808, 1108.642
1104.290, 1107.072
1104.772, 1105.219
1105.255, 1103.241
1105.737, 1099.123
1106.219, 1092.722
1106.701, 1086.087
1107.183, 1079.480
1107.665, 1074.012
1108.147, 1073.310
1108.629, 1073.963
1109.111, 1069.917
1109.594, 1051.078
1110.076, 1046.102
1110.558, 1058.839
1111.040, 1074.126
1111.522, 1078.262
1112.004, 1076.220
1112.486, 1079.981
1112.968, 1087.603
1113.450, 1087.606
1113.933, 1064.474
1114.415, 1048.550
1114.897, 1048.428
1115.379, 1055.016
1115.861, 1052.624
1116.343, 1043.912
1116.825, 1040.323
1117.307, 1043.607
1117.790, 1050.056
1118.272, 1063.905
1118.754, 1073.682
1119.236, 1071.378
1119.718, 1059.873
1120.200, 1053.609
1120.682, 1052.418
1121.164, 1048.286
1121.646, 1037.108
1122.129, 1026.152
1122.611, 1017.613
1123.093, 1015.111
1123.575, 1026.890
1124.057, 1058.740
1124.539, 1068.259
1125.021, 1052.479
1125.503, 1032.159
1125.985, 1015.558
1126.468, 1004.773
1126.950, 1007.149
1127.432, 1016.922
1127.914, 1021.234
1128.396, 1010.802
1128.878, 1005.477
1129.360, 1007.084
1129.842, 1011.203
1130.325, 1013.124
1130.807, 1014.474
1131.289, 1020.131
1131.771, 1029.426
1132.253, 1035.858
1132.735, 1037.299
1133.217, 1034.284
1133.699, 1024.132
1134.182, 1013.107
1134.664, 1014.386
1135.146, 1024.818
1135.628, 1032.723
1136.110, 1036.686
1136.592, 1033.022
1137.074, 1009.497
1137.556, 988.1926
1138.038, 980.6309
1138.521, 984.6755
1139.003, 992.9088
1139.485, 1004.634
1139.967, 1010.856
1140.449, 1008.315
1140.931, 1000.693
1141.413, 985.0228
1141.895, 969.5245
1142.377, 961.6661
1142.860, 961.4747
1143.342, 972.0036
1143.824, 994.3543
1144.306, 1009.214
1144.788, 998.8047
1145.270, 982.9330
1145.752, 981.8597
1146.234, 989.4256
1146.717, 994.0410
1147.199, 992.8734
1147.681, 993.8194
1148.163, 997.7894
1148.645, 1000.530
1149.127, 997.4803
1149.609, 991.5704
1150.091, 986.7670
1150.573, 982.8538
1151.056, 978.2754
1151.538, 971.7888
1152.020, 965.9719
1152.502, 960.4903
1152.984, 957.3149
1153.466, 958.6748
1153.948, 964.3871
1154.430, 976.0279
1154.912, 993.4205
1155.395, 1007.628
1155.877, 1017.393
1156.359, 1020.224
1156.841, 1012.828
1157.323, 1001.081
1157.805, 997.6104
1158.287, 1000.060
1158.769, 1001.101
1159.251, 998.7014
1159.734, 997.6146
1160.216, 1003.499
1160.698, 1007.215
1161.180, 1003.510
1161.662, 994.3168
1162.144, 986.0137
1162.626, 979.3662
1163.108, 979.0546
1163.591, 990.3499
1164.073, 1000.641
1164.555, 1004.253
1165.037, 1003.068
1165.519, 998.2239
1166.001, 989.8351
1166.483, 979.9851
1166.965, 969.2374
1167.448, 965.2098
1167.930, 981.7992
1168.412, 996.1071
1168.894, 989.5892
1169.376, 974.5083
1169.858, 968.2075
1170.340, 971.7143
1170.822, 976.8904
1171.304, 983.5713
1171.786, 989.7471
1172.269, 994.0829
1172.751, 996.9981
1173.233, 999.8333
1173.715, 1001.119
1174.197, 997.0146
1174.679, 986.2343
1175.161, 975.6848
1175.643, 965.4698
1176.126, 959.6013
1176.608, 966.1586
1177.090, 975.2521
1177.572, 975.4409
1178.054, 967.9982
1178.536, 968.7302
1179.018, 980.3693
1179.500, 991.3516
1179.983, 1000.291
1180.465, 1004.064
1180.947, 992.8411
1181.429, 977.9736
1181.911, 973.5301
1182.393, 981.8901
1182.875, 992.8835
1183.357, 1009.125
1183.839, 1018.015
1184.322, 1014.543
1184.804, 1003.981
1185.286, 987.7343
1185.768, 972.1612
1186.250, 967.8226
1186.732, 979.8779
1187.214, 990.7083
1187.696, 1000.045
1188.178, 1006.227
1188.661, 1007.506
1189.143, 1006.104
1189.625, 1007.669
1190.107, 1009.287
1190.589, 1004.933
1191.071, 989.4951
1191.553, 974.5044
1192.035, 957.2896
1192.518, 948.4407
1193.000, 958.6537
1193.482, 980.1962
1193.964, 1000.158
1194.446, 1016.745
1194.928, 1025.680
1195.410, 1019.327
1195.892, 1014.369
1196.375, 1013.149
1196.857, 1011.117
1197.339, 997.2203
1197.821, 981.9632
1198.303, 1001.131
1198.785, 1044.189
1199.267, 1065.875
1199.749, 1026.399
1200.231, 997.1294
1200.714, 989.2977
1201.196, 991.6840
1201.678, 993.8553
1202.160, 995.5645
1202.642, 996.8634
1203.124, 997.4498
1203.606, 995.0770
1204.088, 985.2784
1204.570, 977.2288
1205.053, 972.4532
1205.535, 970.5357
1206.017, 971.5438
1206.499, 974.6412
1206.981, 977.3511
1207.463, 979.4597
1207.945, 983.9668
1208.427, 995.7065
1208.910, 1005.188
1209.392, 1009.850
1209.874, 1010.992
1210.356, 1009.396
1210.838, 1006.343
1211.320, 1006.415
1211.802, 1010.977
1212.284, 1010.281
1212.766, 994.4135
1213.249, 981.1824
1213.731, 975.9511
1214.213, 977.3587
1214.695, 987.8682
1215.177, 1001.804
1215.659, 1002.046
1216.141, 980.6335
1216.623, 968.0071
1217.105, 981.3845
1217.588, 992.5860
1218.070, 988.2734
1218.552, 975.1454
1219.034, 967.2401
1219.516, 965.6179
1219.998, 975.3389
1220.480, 1005.496
1220.962, 1022.647
1221.445, 1012.592
1221.927, 999.6234
1222.409, 997.4647
1222.891, 1001.045
1223.373, 993.3610
1223.855, 979.3744
1224.337, 972.7851
1224.819, 984.8223
1225.301, 989.6132
1225.784, 980.8112
1226.266, 969.3231
1226.748, 959.1879
1227.230, 953.0003
1227.712, 964.0076
1228.194, 985.2198
1228.676, 997.2659
1229.158, 982.7711
1229.641, 975.8965
1230.123, 982.5108
1230.605, 991.6846
1231.087, 996.5942
1231.569, 996.8159
1232.051, 989.2760
1232.533, 976.0471
1233.015, 963.4852
1233.497, 950.9680
1233.979, 944.2447
1234.462, 944.0920
1234.944, 948.6398
1235.426, 957.7021
1235.908, 969.5061
1236.390, 984.2677
1236.872, 998.9591
1237.354, 1003.490
1237.836, 984.2613
1238.319, 971.2327
1238.801, 966.7762
1239.283, 967.4919
1239.765, 973.8197
1240.247, 980.9045
1240.729, 980.0068
1241.211, 972.2202
1241.693, 963.8688
1242.176, 953.8001
1242.658, 947.9935
1243.140, 946.9086
1243.622, 950.6913
1244.104, 966.7809
1244.586, 983.0986
1245.068, 980.0289
1245.550, 960.5474
1246.032, 948.2607
1246.515, 946.8360
1246.997, 946.9885
1247.479, 947.4631
1247.961, 949.1309
1248.443, 954.6420
1248.925, 960.5724
1249.407, 963.8656
1249.889, 964.0559
1250.371, 960.7244
1250.854, 952.8689
1251.336, 946.0286
1251.818, 940.9739
1252.300, 937.9952
1252.782, 938.9527
1253.264, 940.9216
1253.746, 940.4254
1254.228, 938.1454
1254.711, 939.7545
1255.193, 945.9698
1255.675, 948.5679
1256.157, 945.2460
1256.639, 942.7936
1257.121, 949.3171
1257.603, 957.4982
1258.085, 963.4596
1258.568, 965.8251
1259.050, 955.4352
1259.532, 932.3352
1260.014, 924.2259
1260.496, 939.2836
1260.978, 954.7255
1261.460, 950.5684
1261.942, 943.8927
1262.424, 948.1334
1262.906, 958.4786
1263.389, 955.2905
1263.871, 940.8515
1264.353, 933.4044
1264.835, 937.7249
1265.317, 945.4301
1265.799, 956.4830
1266.281, 963.9402
1266.763, 963.0268
1267.246, 957.1581
1267.728, 957.1788
1268.210, 961.1516
1268.692, 960.9790
1269.174, 953.9196
1269.656, 948.4229
1270.138, 947.9952
1270.620, 950.4952
1271.103, 956.7482
1271.585, 963.7390
1272.067, 962.2750
1272.549, 955.8444
1273.031, 953.6377
1273.513, 958.7913
1273.995, 960.6296
1274.477, 955.9162
1274.959, 949.4437
1275.442, 941.4216
1275.924, 935.2533
1276.406, 940.5034
1276.888, 951.0455
1277.370, 956.2979
1277.852, 953.4614
1278.334, 948.4080
1278.816, 939.5732
1279.298, 936.2367
1279.781, 944.7078
1280.263, 954.7794
1280.745, 949.3361
1281.227, 938.5583
1281.709, 936.8110
1282.191, 946.7476
1282.673, 954.7747
1283.155, 960.8726
1283.638, 965.2834
1284.120, 968.6385
1284.602, 968.8268
1285.084, 960.5637
1285.566, 950.2912
1286.048, 942.8875
1286.530, 938.7596
1287.012, 950.0140
1287.495, 975.5515
1287.977, 983.8732
1288.459, 955.9104
1288.941, 930.9289
1289.423, 941.0500
1289.905, 960.1936
1290.387, 970.4730
1290.869, 972.6174
1291.351, 967.0574
1291.833, 956.2014
1292.316, 953.2246
1292.798, 965.3981
1293.280, 975.2363
1293.762, 974.5862
1294.244, 970.0523
1294.726, 962.9246
1295.208, 955.0890
1295.690, 951.3281
1296.172, 951.6381
1296.655, 957.1952
1297.137, 971.3987
1297.619, 979.2241
1298.101, 978.8672
1298.583, 971.9086
1299.065, 955.3424
1299.547, 938.2664
1300.029, 938.7319
1300.512, 949.1636
1300.994, 957.9938
1301.476, 962.9739
1301.958, 966.6873
1302.440, 969.1854
1302.922, 970.3938
1303.404, 970.8262
1303.886, 968.7775
1304.369, 955.4474
1304.851, 942.9610
1305.333, 949.7137
1305.815, 974.4604
1306.297, 988.8969
1306.779, 992.9449
1307.261, 986.2291
1307.743, 963.6003
1308.225, 945.6680
1308.708, 952.6555
1309.190, 965.0762
1309.672, 969.2160
1310.154, 966.5253
1310.636, 960.1467
1311.118, 952.6050
##END=



