##NAMES=Herbertsmithite
##RRUFFID=R060387
##IDEAL CHEMISTRY=Cu^2+^_3_Zn^2+^(OH)_6_Cl_2_
##LOCALITY=San Francisco mine, Sierra Gorda, Antofagasta, Chile
##OWNER=RRUFF
##SOURCE=Michael Scott
##DESCRIPTION=Greenish-blue thin hexagonal plates associated with hemimorphite, anglesite, and quartz
##STATUS=The identification of this mineral is confirmed by single-crystal X-ray diffraction and chemical analysis.
##URL=rruff.info/R060387
##MEASURED CHEMISTRY=(Cu_2.98_Zn_0.02_)_Î£=3_Zn_1.00_(OH)_6_Cl_2.00_
171.5487, 230.0875
172.0309, 228.8813
172.5130, 227.3409
172.9951, 225.7411
173.4772, 224.4078
173.9593, 223.8577
174.4414, 225.2282
174.9236, 226.9699
175.4057, 227.3339
175.8878, 226.3183
176.3699, 224.7738
176.8520, 223.0698
177.3341, 221.3459
177.8163, 219.9113
178.2984, 219.2828
178.7805, 218.8910
179.2626, 217.7166
179.7447, 215.6979
180.2268, 213.6685
180.7090, 212.5332
181.1911, 212.1003
181.6732, 211.8100
182.1553, 211.5830
182.6374, 211.3011
183.1195, 210.5562
183.6017, 209.2295
184.0838, 208.0225
184.5659, 207.9536
185.0480, 208.8076
185.5301, 209.4980
186.0123, 209.3384
186.4944, 208.5905
186.9765, 208.1606
187.4586, 208.1629
187.9407, 208.1489
188.4228, 207.3733
188.9050, 205.9071
189.3871, 204.4536
189.8692, 203.3165
190.3513, 202.4855
190.8334, 201.9692
191.3155, 201.8462
191.7977, 201.8437
192.2798, 201.5240
192.7619, 200.8905
193.2440, 200.1861
193.7261, 199.4823
194.2082, 198.7925
194.6904, 198.2532
195.1725, 197.9281
195.6546, 197.6516
196.1367, 197.0714
196.6188, 196.1584
197.1009, 195.2980
197.5831, 194.8217
198.0652, 194.7216
198.5473, 194.1637
199.0294, 192.9334
199.5115, 191.4583
199.9937, 190.6357
200.4758, 190.5331
200.9579, 190.6698
201.4400, 190.8707
201.9221, 191.1515
202.4042, 191.2625
202.8864, 191.1978
203.3685, 190.9466
203.8506, 190.3795
204.3327, 189.3897
204.8148, 188.5330
205.2969, 188.1699
205.7791, 188.3737
206.2612, 188.5221
206.7433, 188.5540
207.2254, 188.5293
207.7075, 188.6470
208.1896, 188.9950
208.6718, 189.2322
209.1539, 189.1261
209.6360, 188.5940
210.1181, 188.1189
210.6002, 187.6323
211.0823, 187.2708
211.5645, 187.5472
212.0466, 188.7788
212.5287, 189.9118
213.0108, 190.2960
213.4929, 189.6907
213.9750, 189.3157
214.4572, 189.2909
214.9393, 189.5172
215.4214, 189.7440
215.9035, 190.0583
216.3856, 190.1944
216.8678, 189.8404
217.3499, 188.5730
217.8320, 188.2389
218.3141, 189.2857
218.7962, 191.2066
219.2783, 192.4391
219.7605, 192.8609
220.2426, 192.7868
220.7247, 192.2610
221.2068, 190.9863
221.6889, 190.0850
222.1710, 189.5530
222.6532, 189.4398
223.1353, 190.0253
223.6174, 191.7817
224.0995, 193.4653
224.5816, 194.3927
225.0637, 194.1960
225.5459, 194.2227
226.0280, 194.6144
226.5101, 195.2370
226.9922, 195.6374
227.4743, 195.6379
227.9564, 195.7020
228.4386, 196.1825
228.9207, 197.6297
229.4028, 198.0908
229.8849, 197.1738
230.3670, 195.3438
230.8492, 193.8354
231.3313, 192.6356
231.8134, 191.7946
232.2955, 191.4414
232.7776, 192.0925
233.2597, 192.0181
233.7419, 190.9325
234.2240, 189.1961
234.7061, 187.7979
235.1882, 187.0014
235.6703, 186.1538
236.1524, 184.9294
236.6346, 183.0598
237.1167, 181.4798
237.5988, 180.4534
238.0809, 179.6208
238.5630, 178.0686
239.0451, 175.4220
239.5273, 172.6258
240.0094, 169.9998
240.4915, 167.4179
240.9736, 165.3452
241.4557, 164.0133
241.9378, 163.0681
242.4200, 161.7524
242.9021, 159.7650
243.3842, 157.8465
243.8663, 156.2628
244.3484, 155.0613
244.8306, 154.0834
245.3127, 153.5510
245.7948, 153.1347
246.2769, 152.2167
246.7590, 150.6546
247.2411, 148.8480
247.7233, 146.8037
248.2054, 144.2621
248.6875, 142.4941
249.1696, 141.8290
249.6517, 141.7321
250.1338, 141.3259
250.6160, 140.3753
251.0981, 139.5403
251.5802, 139.0713
252.0623, 139.0571
252.5444, 138.9412
253.0265, 138.7240
253.5087, 138.4074
253.9908, 137.9772
254.4729, 137.3460
254.9550, 136.7729
255.4371, 136.3170
255.9192, 135.9804
256.4014, 135.8075
256.8835, 135.9500
257.3656, 136.1054
257.8477, 135.8231
258.3298, 134.7610
258.8120, 134.0378
259.2941, 134.0261
259.7762, 134.7820
260.2583, 135.3311
260.7404, 135.7565
261.2225, 135.8748
261.7047, 135.4057
262.1868, 134.0677
262.6689, 132.8557
263.1510, 131.9214
263.6331, 131.2723
264.1152, 131.0473
264.5974, 131.4558
265.0795, 131.9670
265.5616, 132.0632
266.0437, 131.6600
266.5258, 131.1144
267.0079, 130.4085
267.4901, 129.5843
267.9722, 129.0954
268.4543, 129.0445
268.9364, 129.1207
269.4185, 129.0914
269.9006, 128.9544
270.3828, 128.7290
270.8649, 128.4091
271.3470, 128.0018
271.8291, 127.4888
272.3112, 126.7809
272.7933, 126.1781
273.2755, 125.9817
273.7576, 126.2749
274.2397, 126.3578
274.7218, 126.0946
275.2039, 125.5962
275.6860, 125.2029
276.1682, 124.9305
276.6503, 124.6903
277.1324, 124.3356
277.6145, 123.8320
278.0966, 123.8187
278.5787, 124.5491
279.0609, 125.5618
279.5430, 125.7563
280.0251, 125.0181
280.5072, 124.1835
280.9893, 123.7457
281.4715, 123.7065
281.9536, 123.4461
282.4357, 122.8431
282.9178, 122.1952
283.3999, 122.1140
283.8820, 122.6327
284.3642, 123.0748
284.8463, 123.0838
285.3284, 122.6918
285.8105, 122.2644
286.2926, 121.7590
286.7747, 121.3420
287.2569, 121.4079
287.7390, 121.9275
288.2211, 122.1500
288.7032, 121.4550
289.1853, 120.1648
289.6674, 119.8353
290.1496, 120.5690
290.6317, 121.5741
291.1138, 121.9695
291.5959, 121.8302
292.0780, 121.6673
292.5602, 121.7132
293.0423, 121.8289
293.5244, 121.5414
294.0065, 120.8324
294.4886, 120.2093
294.9707, 120.2401
295.4529, 120.7641
295.9350, 121.1946
296.4171, 121.3460
296.8992, 121.3561
297.3813, 121.3889
297.8634, 121.4554
298.3456, 121.6949
298.8277, 122.5058
299.3098, 123.5534
299.7919, 124.0372
300.2740, 123.6266
300.7561, 122.8765
301.2383, 122.5032
301.7204, 122.4330
302.2025, 122.3558
302.6846, 121.7632
303.1667, 121.1267
303.6488, 121.3084
304.1310, 122.6792
304.6131, 124.1208
305.0952, 124.4245
305.5773, 123.8835
306.0594, 123.2930
306.5415, 122.9677
307.0237, 122.8546
307.5058, 122.9838
307.9879, 123.4068
308.4700, 123.7225
308.9521, 123.3010
309.4343, 122.5943
309.9164, 122.3851
310.3985, 123.5327
310.8806, 124.9500
311.3627, 125.7811
311.8448, 125.9894
312.3270, 126.0952
312.8091, 126.3987
313.2912, 126.7803
313.7733, 127.0990
314.2554, 127.1761
314.7375, 127.2892
315.2197, 127.6046
315.7018, 128.1064
316.1839, 128.6277
316.6660, 129.0836
317.1481, 129.5352
317.6302, 130.0408
318.1124, 130.8715
318.5945, 131.4434
319.0766, 131.3705
319.5587, 130.8372
320.0408, 130.4844
320.5229, 130.4398
321.0051, 130.6810
321.4872, 131.2637
321.9693, 132.5442
322.4514, 133.4963
322.9335, 133.6891
323.4156, 133.4322
323.8978, 133.3223
324.3799, 133.3814
324.8620, 133.6743
325.3441, 134.2416
325.8262, 135.1210
326.3083, 136.1489
326.7905, 137.6361
327.2726, 139.1660
327.7547, 140.2074
328.2368, 140.0878
328.7189, 140.1728
329.2010, 140.8016
329.6832, 142.0309
330.1653, 143.0984
330.6474, 143.7760
331.1295, 144.4550
331.6116, 145.4769
332.0938, 147.0993
332.5759, 148.6540
333.0580, 149.9710
333.5401, 151.1185
334.0222, 152.5364
334.5043, 154.4094
334.9865, 156.3127
335.4686, 157.9211
335.9507, 158.9020
336.4328, 160.5104
336.9149, 162.8829
337.3970, 165.9220
337.8792, 169.3583
338.3613, 173.4207
338.8434, 177.3703
339.3255, 180.7199
339.8076, 183.3016
340.2898, 186.7651
340.7719, 191.3254
341.2540, 196.4502
341.7361, 201.3608
342.2182, 205.8890
342.7003, 211.0191
343.1825, 217.1578
343.6646, 224.2182
344.1467, 231.0491
344.6288, 237.5672
345.1109, 244.5684
345.5930, 253.2751
346.0752, 263.4368
346.5573, 273.5970
347.0394, 283.4419
347.5215, 293.1069
348.0036, 303.3831
348.4857, 314.2015
348.9679, 324.6140
349.4500, 333.2283
349.9321, 340.9350
350.4142, 350.4561
350.8963, 362.6371
351.3784, 375.7379
351.8606, 387.0378
352.3427, 397.0128
352.8248, 407.6992
353.3069, 420.5443
353.7890, 434.5259
354.2711, 448.3448
354.7533, 461.7626
355.2354, 475.7774
355.7175, 491.0785
356.1996, 507.4390
356.6817, 524.4622
357.1638, 542.7651
357.6460, 561.0770
358.1281, 578.6497
358.6102, 595.4259
359.0923, 611.9016
359.5744, 628.9099
360.0565, 645.3278
360.5387, 660.1953
361.0208, 674.8290
361.5029, 685.9314
361.9850, 691.7003
362.4671, 692.6907
362.9492, 690.4353
363.4314, 686.5480
363.9135, 678.7861
364.3956, 665.7364
364.8777, 646.3011
365.3598, 623.5677
365.8419, 596.8621
366.3241, 567.5785
366.8062, 537.9558
367.2883, 508.1416
367.7704, 478.1703
368.2526, 447.3418
368.7347, 414.8651
369.2168, 385.6725
369.6989, 360.2942
370.1810, 337.7561
370.6631, 317.0190
371.1453, 298.1599
371.6274, 280.9444
372.1095, 265.1403
372.5916, 250.7701
373.0737, 238.5821
373.5558, 229.1850
374.0380, 220.9063
374.5201, 212.6021
375.0022, 203.8948
375.4843, 196.7323
375.9664, 191.4325
376.4485, 187.4895
376.9307, 183.8065
377.4128, 180.3616
377.8949, 177.4058
378.3770, 175.2027
378.8591, 173.7179
379.3412, 171.9811
379.8234, 169.8710
380.3055, 167.9861
380.7876, 167.1599
381.2697, 167.3337
381.7518, 167.5736
382.2339, 167.5785
382.7161, 167.5357
383.1982, 167.8195
383.6803, 168.4297
384.1624, 169.4415
384.6445, 171.1260
385.1266, 173.2445
385.6088, 175.0776
386.0909, 176.3353
386.5730, 177.8452
387.0551, 180.7468
387.5372, 184.6903
388.0193, 188.7396
388.5015, 192.5908
388.9836, 196.1605
389.4657, 199.1875
389.9478, 201.6372
390.4299, 204.2344
390.9120, 207.3290
391.3942, 210.9094
391.8763, 214.9197
392.3584, 219.3952
392.8405, 224.2475
393.3226, 229.8318
393.8047, 235.9047
394.2869, 241.3490
394.7690, 245.3338
395.2511, 248.8265
395.7332, 252.3970
396.2154, 256.1385
396.6975, 259.9415
397.1796, 264.6214
397.6617, 269.2570
398.1438, 272.2511
398.6259, 272.2249
399.1081, 271.7153
399.5902, 271.6414
400.0723, 272.2893
400.5544, 271.4356
401.0365, 268.5635
401.5186, 264.5499
402.0008, 260.1589
402.4829, 255.5709
402.9650, 250.1768
403.4471, 243.6679
403.9292, 236.2749
404.4113, 229.0861
404.8935, 222.0069
405.3756, 215.2495
405.8577, 209.0557
406.3398, 203.6198
406.8219, 197.6626
407.3040, 191.0009
407.7862, 184.1281
408.2683, 177.3811
408.7504, 170.7347
409.2325, 165.1391
409.7146, 161.3732
410.1967, 158.8319
410.6789, 154.9823
411.1610, 149.7685
411.6431, 144.7163
412.1252, 141.4064
412.6073, 139.3493
413.0894, 137.1764
413.5716, 134.6178
414.0537, 131.9735
414.5358, 129.5090
415.0179, 127.2694
415.5000, 125.3191
415.9821, 124.0471
416.4643, 122.9143
416.9464, 121.2491
417.4285, 118.9677
417.9106, 116.7994
418.3927, 115.3161
418.8748, 114.1729
419.3570, 112.9878
419.8391, 111.6802
420.3212, 110.2453
420.8033, 108.4327
421.2854, 106.3986
421.7675, 104.8287
422.2497, 104.1872
422.7318, 103.8748
423.2139, 103.6248
423.6960, 103.5195
424.1781, 103.2327
424.6602, 102.6590
425.1424, 101.9042
425.6245, 101.1169
426.1066, 100.0923
426.5887, 99.31572
427.0709, 98.99075
427.5530, 99.11630
428.0351, 99.04321
428.5172, 98.77370
428.9993, 98.29749
429.4814, 97.55332
429.9636, 96.43958
430.4457, 95.42233
430.9278, 94.48185
431.4099, 93.71408
431.8920, 93.44390
432.3741, 93.74509
432.8563, 93.94868
433.3384, 93.65935
433.8205, 92.96989
434.3026, 92.54529
434.7847, 92.40519
435.2668, 92.35181
435.7490, 92.09940
436.2311, 91.74622
436.7132, 91.71174
437.1953, 92.33440
437.6774, 93.00166
438.1595, 92.75378
438.6417, 91.77497
439.1238, 90.82694
439.6059, 90.24059
440.0880, 89.98478
440.5701, 90.14983
441.0522, 90.82064
441.5344, 91.37679
442.0165, 91.47087
442.4986, 91.21494
442.9807, 90.74302
443.4628, 89.73069
443.9449, 88.87150
444.4271, 88.35542
444.9092, 88.19440
445.3913, 88.43475
445.8734, 89.66127
446.3555, 90.84773
446.8376, 91.39578
447.3198, 90.57459
447.8019, 90.50426
448.2840, 91.84817
448.7661, 93.69865
449.2482, 94.77467
449.7303, 94.63194
450.2125, 94.44382
450.6946, 94.40862
451.1767, 94.52871
451.6588, 94.82763
452.1409, 95.32437
452.6230, 95.96111
453.1052, 96.71164
453.5873, 97.58934
454.0694, 98.49815
454.5515, 99.43863
455.0337, 100.3868
455.5158, 101.2581
455.9979, 102.0671
456.4800, 102.9163
456.9621, 103.7710
457.4442, 104.7277
457.9264, 106.0916
458.4085, 107.8445
458.8906, 109.6860
459.3727, 111.4282
459.8548, 113.0724
460.3369, 114.5235
460.8191, 115.6349
461.3012, 116.8980
461.7833, 118.8676
462.2654, 121.2811
462.7475, 123.5828
463.2296, 125.2392
463.7118, 126.9873
464.1939, 129.2955
464.6760, 132.2168
465.1581, 135.1847
465.6402, 138.0782
466.1223, 140.8956
466.6045, 143.5960
467.0866, 145.8489
467.5687, 148.3716
468.0508, 151.3378
468.5329, 154.5970
469.0150, 157.8427
469.4972, 160.8013
469.9793, 164.1053
470.4614, 168.0449
470.9435, 172.6692
471.4256, 176.9557
471.9077, 180.8751
472.3899, 184.5209
472.8720, 187.8793
473.3541, 190.9604
473.8362, 194.2246
474.3183, 197.8998
474.8004, 201.5790
475.2826, 204.6537
475.7647, 207.1018
476.2468, 208.6106
476.7289, 208.1842
477.2110, 206.8659
477.6931, 207.1677
478.1753, 209.1015
478.6574, 211.2811
479.1395, 212.2151
479.6216, 212.7610
480.1037, 214.1391
480.5858, 216.5933
481.0680, 220.1047
481.5501, 225.0866
482.0322, 231.1010
482.5143, 237.1973
482.9964, 242.6714
483.4786, 248.4343
483.9607, 254.9788
484.4428, 262.3130
484.9249, 269.9908
485.4070, 277.7707
485.8892, 285.8864
486.3713, 294.5245
486.8534, 303.6303
487.3355, 313.1924
487.8176, 323.2305
488.2997, 333.6914
488.7819, 344.7326
489.2640, 356.5809
489.7461, 368.5844
490.2282, 380.3506
490.7103, 392.0374
491.1924, 404.8153
491.6746, 418.9738
492.1567, 433.3336
492.6388, 446.4501
493.1209, 458.6785
493.6030, 471.6294
494.0851, 485.8411
494.5673, 500.4679
495.0494, 514.0395
495.5315, 526.8904
496.0136, 539.7172
496.4957, 554.1507
496.9778, 568.0557
497.4600, 579.5101
497.9421, 588.5255
498.4242, 595.8846
498.9063, 602.6293
499.3884, 607.6759
499.8705, 610.2141
500.3527, 610.0616
500.8348, 607.3547
501.3169, 602.1115
501.7990, 594.4025
502.2811, 584.2285
502.7632, 571.0366
503.2454, 556.0989
503.7275, 539.0863
504.2096, 520.2425
504.6917, 501.1423
505.1738, 482.5176
505.6559, 462.9825
506.1381, 441.6389
506.6202, 417.6286
507.1023, 395.3083
507.5844, 374.9122
508.0665, 355.8364
508.5486, 337.6279
509.0308, 320.2113
509.5129, 303.8158
509.9950, 288.3711
510.4771, 273.9511
510.9592, 260.5448
511.4413, 248.1839
511.9235, 236.6354
512.4056, 225.8036
512.8877, 215.6993
513.3698, 206.1144
513.8519, 197.0233
514.3340, 188.6672
514.8162, 181.4797
515.2983, 175.0368
515.7804, 168.8249
516.2625, 162.5251
516.7446, 156.6253
517.2267, 151.5360
517.7089, 147.0314
518.1910, 142.6103
518.6731, 138.0156
519.1552, 133.6145
519.6373, 129.6060
520.1194, 125.9833
520.6016, 122.4651
521.0837, 118.8724
521.5658, 115.6249
522.0479, 113.1465
522.5300, 111.7690
523.0121, 109.9838
523.4943, 107.5459
523.9764, 104.8508
524.4585, 102.6022
524.9406, 100.8449
525.4227, 99.15413
525.9048, 97.30633
526.3870, 95.46779
526.8691, 94.05250
527.3513, 93.03786
527.8334, 92.16196
528.3155, 91.19178
528.7976, 90.24549
529.2797, 89.56712
529.7618, 89.24268
530.2440, 88.80314
530.7261, 87.94326
531.2082, 86.76463
531.6903, 85.41444
532.1724, 83.62216
532.6545, 81.98681
533.1367, 80.65112
533.6188, 79.60756
534.1009, 78.77382
534.5830, 78.33128
535.0651, 77.92420
535.5472, 77.43383
536.0294, 76.83444
536.5115, 76.35995
536.9936, 76.25632
537.4757, 75.93554
537.9578, 74.60563
538.4399, 71.90363
538.9221, 70.60081
539.4042, 71.34975
539.8863, 72.94266
540.3684, 73.19092
540.8505, 72.19450
541.3326, 71.13767
541.8148, 70.42201
542.2969, 69.99319
542.7790, 69.90721
543.2611, 70.10661
543.7432, 70.13274
544.2253, 69.32776
544.7075, 68.37649
545.1896, 68.15682
545.6717, 68.97421
546.1538, 69.45267
546.6359, 68.52202
547.1180, 67.06710
547.6002, 66.03947
548.0823, 66.22774
548.5644, 66.20483
549.0465, 65.35275
549.5286, 64.08688
550.0107, 63.65461
550.4929, 64.67125
550.9750, 65.59789
551.4571, 65.93240
551.9392, 65.67130
552.4213, 65.40422
552.9034, 65.15847
553.3856, 64.81789
553.8677, 64.11563
554.3498, 63.11798
554.8319, 62.71288
555.3140, 63.08255
555.7961, 63.70824
556.2783, 63.90308
556.7604, 63.80188
557.2425, 63.79188
557.7246, 64.15620
558.2067, 64.52794
558.6888, 64.53109
559.1710, 64.23595
559.6531, 63.87481
560.1352, 63.47055
560.6173, 63.10870
561.0994, 62.82576
561.5815, 62.61617
562.0637, 62.54847
562.5458, 62.77805
563.0279, 63.06267
563.5100, 63.23083
563.9921, 63.26380
564.4742, 63.19743
564.9564, 62.96665
565.4385, 62.68734
565.9206, 62.59422
566.4027, 62.74556
566.8848, 62.78189
567.3669, 62.56080
567.8491, 62.17205
568.3312, 61.91296
568.8133, 61.78016
569.2954, 61.66207
569.7775, 61.44633
570.2596, 61.20980
570.7418, 61.13317
571.2239, 61.23190
571.7060, 61.30857
572.1881, 60.99928
572.6702, 60.68034
573.1523, 60.84214
573.6345, 62.07722
574.1166, 62.94630
574.5987, 62.58416
575.0808, 61.57125
575.5629, 60.86355
576.0450, 60.71140
576.5272, 60.80157
577.0093, 61.24914
577.4914, 61.95043
577.9735, 62.16538
578.4556, 61.63395
578.9377, 61.15185
579.4199, 61.17942
579.9020, 61.72998
580.3841, 62.02694
580.8662, 62.04618
581.3483, 61.94547
581.8304, 61.80286
582.3126, 61.65990
582.7947, 61.70869
583.2768, 62.05999
583.7589, 62.38036
584.2410, 62.02197
584.7231, 61.39455
585.2053, 61.30946
585.6874, 62.97165
586.1696, 64.46529
586.6517, 64.53819
587.1338, 63.48494
587.6159, 62.65699
588.0980, 62.64812
588.5801, 62.71803
589.0623, 62.49420
589.5444, 61.88316
590.0265, 61.59784
590.5086, 61.84294
590.9907, 62.15297
591.4728, 62.12826
591.9550, 61.69553
592.4371, 61.43125
592.9192, 61.42276
593.4013, 61.49480
593.8834, 61.41333
594.3655, 61.18942
594.8477, 60.85670
595.3298, 60.29649
595.8119, 59.80426
596.2940, 59.91795
596.7761, 60.47281
597.2582, 60.91884
597.7404, 60.87123
598.2225, 60.68175
598.7046, 60.56586
599.1867, 60.53767
599.6688, 60.56196
600.1509, 60.62986
600.6331, 60.74371
601.1152, 60.91023
601.5973, 61.15690
602.0794, 61.39242
602.5615, 61.62820
603.0436, 61.83988
603.5258, 62.06728
604.0079, 62.39287
604.4900, 62.23942
604.9721, 61.37210
605.4542, 60.19605
605.9363, 59.49894
606.4185, 59.25555
606.9006, 59.18591
607.3827, 59.17231
607.8648, 59.25831
608.3469, 59.62009
608.8290, 60.19507
609.3112, 60.61070
609.7933, 60.56641
610.2754, 60.33819
610.7575, 60.06168
611.2396, 59.72499
611.7217, 59.61012
612.2039, 60.12075
612.6860, 60.67902
613.1681, 60.83595
613.6502, 60.31370
614.1323, 59.84130
614.6144, 59.36335
615.0966, 58.99556
615.5787, 58.95614
616.0608, 59.31084
616.5429, 59.58461
617.0250, 59.67785
617.5071, 59.61519
617.9893, 59.43077
618.4714, 59.12932
618.9535, 58.75642
619.4356, 58.08582
619.9177, 57.48800
620.3998, 57.60734
620.8820, 58.36045
621.3641, 58.95803
621.8462, 58.73336
622.3283, 58.34578
622.8104, 58.32791
623.2925, 58.88215
623.7747, 59.24648
624.2568, 59.04245
624.7389, 58.74452
625.2210, 58.78182
625.7031, 59.55650
626.1852, 59.72038
626.6674, 58.95521
627.1495, 57.83290
627.6316, 57.32228
628.1137, 57.44568
628.5958, 57.63842
629.0779, 57.76291
629.5601, 57.83538
630.0422, 57.91490
630.5243, 57.98177
631.0064, 57.94403
631.4885, 57.71675
631.9706, 57.38509
632.4528, 56.98374
632.9349, 56.52989
633.4170, 56.13727
633.8991, 55.49431
634.3812, 55.20347
634.8633, 55.74720
635.3455, 57.55670
635.8276, 58.98228
636.3097, 60.15572
636.7918, 60.77431
637.2739, 60.40442
637.7560, 58.67170
638.2382, 57.47165
638.7203, 57.00636
639.2024, 57.03404
639.6845, 57.33405
640.1666, 57.86299
640.6487, 58.27002
641.1309, 58.47478
641.6130, 58.47397
642.0951, 58.12182
642.5772, 57.54100
643.0594, 57.09349
643.5415, 57.00706
644.0236, 57.05756
644.5057, 57.09151
644.9879, 57.12218
645.4700, 57.30626
645.9521, 58.01480
646.4342, 58.57723
646.9163, 58.63078
647.3984, 58.05105
647.8806, 57.83259
648.3627, 58.07298
648.8448, 58.49047
649.3269, 58.98888
649.8090, 59.56605
650.2911, 59.55650
650.7733, 58.77425
651.2554, 58.01872
651.7375, 58.48610
652.2196, 59.71212
652.7017, 60.51136
653.1838, 60.32126
653.6660, 60.07048
654.1481, 60.63859
654.6302, 61.61556
655.1123, 62.28547
655.5944, 61.97448
656.0765, 61.77447
656.5587, 62.19718
657.0408, 63.05831
657.5229, 63.45829
658.0050, 63.06406
658.4871, 62.75448
658.9692, 62.80474
659.4514, 63.20410
659.9335, 63.90133
660.4156, 64.92535
660.8977, 65.98354
661.3798, 66.92697
661.8619, 67.72629
662.3441, 68.24037
662.8262, 68.45236
663.3083, 68.73469
663.7904, 69.51866
664.2725, 70.46907
664.7546, 71.19349
665.2368, 71.51546
665.7189, 71.88454
666.2010, 72.44933
666.6831, 73.14521
667.1652, 73.90937
667.6473, 74.86349
668.1295, 75.66605
668.6116, 76.20461
669.0937, 76.65536
669.5758, 77.38940
670.0579, 78.44488
670.5400, 79.40881
671.0222, 80.02763
671.5043, 80.62392
671.9864, 82.13342
672.4685, 84.34746
672.9506, 86.24229
673.4327, 86.72188
673.9149, 86.98469
674.3970, 88.21680
674.8791, 90.31925
675.3612, 92.35522
675.8433, 93.93095
676.3254, 95.38771
676.8076, 96.83250
677.2897, 98.23241
677.7718, 99.88758
678.2539, 101.8178
678.7360, 103.9529
679.2181, 106.3360
679.7003, 108.9966
680.1824, 111.3384
680.6645, 113.2559
681.1466, 115.1856
681.6287, 117.5710
682.1108, 120.3604
682.5930, 123.3559
683.0751, 126.5718
683.5572, 129.8933
684.0393, 133.4183
684.5214, 136.9678
685.0035, 140.3078
685.4857, 143.0401
685.9678, 145.9203
686.4499, 149.0628
686.9320, 152.4642
687.4141, 156.1563
687.8962, 160.2494
688.3784, 164.3906
688.8605, 168.5383
689.3426, 172.6662
689.8247, 176.6453
690.3068, 180.5044
690.7889, 184.3635
691.2711, 188.3795
691.7532, 192.4088
692.2353, 195.9486
692.7174, 199.0655
693.1995, 202.3706
693.6816, 206.3960
694.1638, 210.6277
694.6459, 214.8703
695.1280, 219.1316
695.6101, 222.5422
696.0922, 224.2193
696.5743, 225.5373
697.0565, 227.3126
697.5386, 229.8141
698.0207, 231.6868
698.5028, 232.7905
698.9849, 233.5707
699.4670, 234.5678
699.9492, 235.7058
700.4313, 236.1131
700.9135, 235.6244
701.3956, 234.7458
701.8777, 234.0918
702.3598, 233.4024
702.8419, 232.3100
703.3240, 230.9814
703.8062, 228.6534
704.2883, 224.2616
704.7704, 218.8169
705.2525, 213.8832
705.7346, 210.6306
706.2167, 206.6704
706.6989, 201.6335
707.1810, 195.8280
707.6631, 189.7626
708.1452, 183.4542
708.6273, 177.4561
709.1094, 172.0370
709.5916, 166.9600
710.0737, 161.6132
710.5558, 156.1095
711.0379, 150.7851
711.5200, 145.9989
712.0021, 141.3594
712.4843, 136.1486
712.9664, 130.5602
713.4485, 125.6134
713.9306, 122.1826
714.4127, 119.0744
714.8948, 115.8288
715.3770, 112.3997
715.8591, 109.0349
716.3412, 105.7192
716.8233, 102.5096
717.3054, 99.37853
717.7875, 96.32146
718.2697, 93.96375
718.7518, 92.31923
719.2339, 90.92870
719.7160, 89.50637
720.1981, 88.03830
720.6802, 86.45078
721.1624, 84.73759
721.6445, 83.04667
722.1266, 81.36173
722.6087, 79.81483
723.0908, 78.56277
723.5729, 77.87763
724.0551, 77.00236
724.5372, 75.78311
725.0193, 74.48340
725.5014, 73.33562
725.9835, 72.31181
726.4656, 71.70616
726.9478, 71.68746
727.4299, 71.70325
727.9120, 70.65746
728.3941, 68.95712
728.8762, 68.05854
729.3583, 68.78209
729.8405, 69.51408
730.3226, 68.56564
730.8047, 66.78145
731.2868, 65.58588
731.7689, 66.12903
732.2510, 66.45297
732.7332, 65.94849
733.2153, 64.97819
733.6974, 64.21703
734.1795, 63.67726
734.6616, 63.34656
735.1437, 63.28957
735.6259, 63.38367
736.1080, 63.29054
736.5901, 63.03299
737.0722, 62.81727
737.5543, 62.88289
738.0364, 62.93326
738.5186, 62.59015
739.0007, 61.92679
739.4828, 61.19582
739.9649, 60.21679
740.4470, 59.47222
740.9291, 59.27632
741.4113, 59.60240
741.8934, 59.84396
742.3755, 60.04844
742.8576, 60.08190
743.3397, 59.87122
743.8218, 59.43674
744.3040, 58.88356
744.7861, 58.21138
745.2682, 57.62033
745.7503, 57.24834
746.2324, 57.04420
746.7145, 57.06654
747.1967, 57.27995
747.6788, 57.21339
748.1609, 56.08400
748.6430, 54.98748
749.1251, 54.75246
749.6072, 55.69448
750.0894, 56.22846
750.5715, 56.13049
751.0536, 55.84174
751.5357, 55.65498
752.0178, 55.59409
752.4999, 55.23401
752.9821, 54.51053
753.4642, 53.89549
753.9463, 54.02998
754.4284, 54.55354
754.9105, 54.69759
755.3926, 54.33153
755.8748, 53.94013
756.3569, 53.76690
756.8390, 53.74807
757.3211, 53.85896
757.8032, 54.27065
758.2853, 54.39695
758.7675, 54.08363
759.2496, 53.60893
759.7318, 53.15479
760.2139, 52.68764
760.6960, 52.60765
761.1781, 53.04519
761.6602, 53.52497
762.1423, 53.37288
762.6245, 52.81987
763.1066, 52.38285
763.5887, 52.12549
764.0708, 52.17532
764.5529, 53.19458
765.0350, 54.33704
765.5172, 54.59861
765.9993, 52.75808
766.4814, 51.36013
766.9635, 50.56946
767.4456, 50.26193
767.9277, 50.38149
768.4099, 51.02113
768.8920, 51.45965
769.3741, 51.55140
769.8562, 51.48289
770.3383, 51.57571
770.8204, 51.73486
771.3026, 51.68648
771.7847, 51.25628
772.2668, 50.76685
772.7489, 50.31202
773.2310, 49.97399
773.7131, 49.88567
774.1953, 50.57618
774.6774, 50.84711
775.1595, 50.37228
775.6416, 49.53834
776.1237, 49.07692
776.6058, 49.04349
777.0880, 48.90712
777.5701, 48.42628
778.0522, 47.99751
778.5343, 48.55438
779.0164, 49.74207
779.4985, 50.52795
779.9807, 50.27454
780.4628, 49.75118
780.9449, 49.21381
781.4270, 48.76855
781.9091, 48.62394
782.3912, 49.12469
782.8734, 49.56486
783.3555, 49.89034
783.8376, 50.07702
784.3197, 49.98170
784.8018, 49.56576
785.2839, 49.35164
785.7661, 49.59424
786.2482, 49.98930
786.7303, 49.94933
787.2124, 49.63028
787.6945, 49.47502
788.1766, 50.00931
788.6588, 50.43707
789.1409, 50.18158
789.6230, 49.50263
790.1051, 49.14561
790.5872, 49.32771
791.0693, 49.63951
791.5515, 50.17119
792.0336, 50.69131
792.5157, 50.20246
792.9978, 48.69658
793.4799, 47.99953
793.9620, 49.27709
794.4442, 51.14477
794.9263, 51.48608
795.4084, 50.72967
795.8905, 50.08054
796.3726, 50.29478
796.8547, 50.50240
797.3369, 50.15751
797.8190, 49.49839
798.3011, 49.37088
798.7832, 50.06554
799.2653, 50.73832
799.7474, 51.20501
800.2296, 51.50200
800.7117, 51.68914
801.1938, 51.77785
801.6759, 51.89986
802.1580, 52.17794
802.6401, 52.44463
803.1223, 52.45539
803.6044, 52.29660
804.0865, 52.19288
804.5686, 52.25468
805.0507, 52.35559
805.5328, 52.51842
806.0150, 52.68776
806.4971, 52.69096
806.9792, 52.45022
807.4613, 52.30806
807.9434, 52.41085
808.4255, 52.61163
808.9077, 52.43363
809.3898, 52.00591
809.8719, 51.92780
810.3540, 52.91645
810.8361, 53.87415
811.3182, 53.71263
811.8004, 52.86528
812.2825, 52.35754
812.7646, 52.62046
813.2467, 53.06593
813.7288, 53.73244
814.2109, 54.44830
814.6931, 54.70007
815.1752, 54.42973
815.6573, 54.26559
816.1394, 54.43666
816.6215, 54.72892
817.1037, 54.89462
817.5858, 54.89197
818.0679, 54.60987
818.5500, 53.53619
819.0322, 52.67899
819.5143, 52.81010
819.9964, 53.47193
820.4785, 53.67392
820.9606, 52.82996
821.4427, 52.56064
821.9249, 53.32589
822.4070, 54.56742
822.8891, 55.12587
823.3712, 55.05160
823.8533, 54.90602
824.3354, 54.87729
824.8176, 54.78090
825.2997, 54.08664
825.7818, 53.24765
826.2639, 53.05345
826.7460, 54.64252
827.2281, 55.83854
827.7103, 55.86609
828.1924, 55.37294
828.6745, 55.18202
829.1566, 55.35402
829.6387, 55.63619
830.1208, 56.06940
830.6030, 56.41262
831.0851, 55.98777
831.5672, 55.16510
832.0493, 55.08663
832.5314, 56.38435
833.0135, 57.60850
833.4957, 57.59217
833.9778, 57.00556
834.4599, 56.63246
834.9420, 56.81159
835.4241, 56.94574
835.9063, 56.97195
836.3884, 57.02816
836.8705, 57.37168
837.3526, 57.98709
837.8347, 58.21703
838.3168, 57.92045
838.7990, 57.58097
839.2811, 57.70622
839.7632, 58.10456
840.2453, 58.57214
840.7274, 59.17502
841.2095, 59.47847
841.6917, 58.89799
842.1738, 58.27439
842.6559, 58.33175
843.1380, 59.42990
843.6201, 59.83854
844.1022, 59.39122
844.5844, 58.82753
845.0665, 58.86648
845.5486, 59.33515
846.0307, 59.82835
846.5128, 60.31535
846.9949, 60.61101
847.4771, 60.31279
847.9592, 59.97477
848.4413, 60.04192
848.9234, 60.63852
849.4055, 61.29255
849.8876, 62.13686
850.3698, 62.78126
850.8519, 62.84962
851.3340, 62.41693
851.8161, 62.55165
852.2982, 63.24881
852.7803, 63.89642
853.2625, 63.74557
853.7446, 63.51037
854.2267, 64.17694
854.7088, 65.67371
855.1909, 66.73286
855.6730, 66.43365
856.1552, 66.13182
856.6373, 66.31564
857.1194, 66.94676
857.6015, 67.79763
858.0836, 68.93460
858.5657, 69.84348
859.0479, 70.20496
859.5300, 70.24857
860.0121, 70.19545
860.4942, 70.16541
860.9763, 70.59019
861.4584, 72.21436
861.9406, 73.79098
862.4227, 74.58884
862.9048, 74.85256
863.3869, 75.49639
863.8690, 76.76018
864.3511, 77.79314
864.8333, 78.31219
865.3154, 78.61082
865.7975, 79.38038
866.2796, 80.52007
866.7617, 81.60292
867.2438, 82.48759
867.7260, 83.26944
868.2081, 84.00863
868.6902, 84.70321
869.1723, 85.36514
869.6544, 86.02016
870.1365, 86.60442
870.6187, 87.05346
871.1008, 87.49974
871.5829, 88.14486
872.0650, 88.97790
872.5471, 89.80436
873.0292, 90.62571
873.5114, 91.27759
873.9935, 91.48231
874.4756, 91.46675
874.9577, 91.53017
875.4399, 91.78565
875.9220, 91.94884
876.4041, 91.92490
876.8862, 91.80216
877.3683, 91.58440
877.8505, 91.22086
878.3326, 91.20138
878.8147, 91.59132
879.2968, 91.84350
879.7789, 91.33811
880.2610, 90.44088
880.7432, 89.70074
881.2253, 89.15754
881.7074, 88.73351
882.1895, 88.49925
882.6716, 88.27891
883.1537, 87.97603
883.6359, 87.59538
884.1180, 87.18370
884.6001, 86.71334
885.0822, 86.32434
885.5643, 86.12024
886.0464, 86.02412
886.5286, 85.92077
887.0107, 85.77751
887.4928, 85.45537
887.9749, 84.55209
888.4570, 83.79346
888.9391, 83.67390
889.4213, 84.00526
889.9034, 84.14756
890.3855, 84.01810
890.8676, 83.84847
891.3497, 83.66258
891.8318, 83.49013
892.3140, 83.34164
892.7961, 83.24236
893.2782, 83.32542
893.7603, 83.73364
894.2424, 84.08793
894.7245, 83.96813
895.2067, 83.68889
895.6888, 83.64163
896.1709, 84.27025
896.6530, 84.50445
897.1351, 84.26446
897.6172, 83.75137
898.0994, 82.94529
898.5815, 81.96191
899.0636, 81.78669
899.5457, 82.54617
900.0278, 83.53017
900.5099, 84.38578
900.9921, 85.04946
901.4742, 85.41786
901.9563, 85.43346
902.4384, 85.50042
902.9205, 85.49477
903.4026, 85.79221
903.8848, 86.71678
904.3669, 88.14759
904.8490, 89.12897
905.3311, 89.66412
905.8132, 89.99121
906.2953, 89.99467
906.7775, 90.06498
907.2596, 90.68185
907.7417, 91.71220
908.2238, 92.69070
908.7059, 93.35031
909.1880, 94.10880
909.6702, 95.04323
910.1523, 96.13103
910.6344, 97.34907
911.1165, 98.69512
911.5986, 99.99163
912.0807, 101.0704
912.5629, 102.3842
913.0450, 104.7772
913.5271, 107.6266
914.0092, 110.0124
914.4913, 111.2079
914.9734, 112.7192
915.4556, 115.0752
915.9377, 117.5435
916.4198, 119.3332
916.9019, 120.3712
917.3840, 122.0438
917.8661, 124.4515
918.3483, 127.2909
918.8304, 130.5236
919.3125, 133.9298
919.7946, 137.1257
920.2767, 140.0432
920.7589, 143.4626
921.2410, 148.2034
921.7231, 152.8848
922.2052, 156.9194
922.6873, 160.4083
923.1694, 164.1409
923.6516, 168.0771
924.1337, 172.5872
924.6158, 178.0253
925.0979, 184.0022
925.5800, 189.9585
926.0621, 195.9702
926.5443, 202.3133
927.0264, 208.9744
927.5085, 216.1488
927.9906, 224.1459
928.4727, 232.5461
928.9548, 240.3837
929.4370, 247.5752
929.9191, 255.7766
930.4012, 265.2744
930.8833, 275.4804
931.3654, 286.0389
931.8475, 296.7039
932.3297, 307.3604
932.8118, 317.9574
933.2939, 328.3551
933.7761, 337.6826
934.2582, 347.6608
934.7403, 359.4613
935.2224, 373.2352
935.7045, 385.8917
936.1866, 397.4901
936.6688, 409.0591
937.1509, 421.6068
937.6330, 434.3634
938.1151, 446.4339
938.5972, 457.9634
939.0793, 469.2369
939.5615, 481.5233
940.0436, 492.3237
940.5257, 501.0207
941.0078, 507.8337
941.4899, 513.3411
941.9720, 517.4851
942.4542, 518.6415
942.9363, 516.3986
943.4184, 510.8769
943.9005, 501.8766
944.3826, 489.8687
944.8647, 475.1957
945.3469, 457.6447
945.8290, 437.8462
946.3111, 414.8981
946.7932, 391.2066
947.2753, 368.7747
947.7574, 347.3161
948.2396, 326.3680
948.7217, 305.8180
949.2038, 286.3756
949.6859, 268.6566
950.1680, 252.2519
950.6501, 236.5563
951.1323, 221.6192
951.6144, 208.9084
952.0965, 199.8401
952.5786, 190.8623
953.0607, 180.6982
953.5428, 170.0387
954.0250, 160.7934
954.5071, 152.9189
954.9892, 146.2100
955.4713, 141.0459
955.9534, 136.3745
956.4355, 131.4047
956.9177, 126.4648
957.3998, 121.9658
957.8819, 117.9971
958.3640, 114.4109
958.8461, 111.3140
959.3282, 108.3567
959.8104, 104.9948
960.2925, 101.5067
960.7746, 99.18615
961.2567, 98.12074
961.7388, 96.94455
962.2209, 94.52711
962.7031, 91.87524
963.1852, 89.63778
963.6673, 87.84352
964.1494, 86.20658
964.6315, 84.74191
965.1136, 83.43397
965.5958, 82.29929
966.0779, 81.29162
966.5600, 80.30105
967.0421, 79.34530
967.5242, 78.51336
968.0063, 78.11046
968.4885, 77.44996
968.9706, 75.92269
969.4527, 74.18616
969.9348, 73.06030
970.4169, 72.71608
970.8990, 72.19287
971.3812, 71.44101
971.8633, 70.49419
972.3454, 69.05921
972.8275, 67.62244
973.3096, 67.00030
973.7917, 67.25959
974.2739, 67.52988
974.7560, 67.99844
975.2381, 67.81499
975.7202, 66.29974
976.2023, 63.89104
976.6844, 62.95163
977.1666, 63.45567
977.6487, 63.86271
978.1308, 63.59050
978.6129, 62.88646
979.0950, 61.65785
979.5771, 60.26862
980.0593, 59.30695
980.5414, 59.29661
981.0235, 59.20745
981.5056, 59.05096
981.9877, 58.72254
982.4698, 57.98068
982.9520, 56.92622
983.4341, 56.24419
983.9162, 55.97417
984.3983, 55.74900
984.8804, 55.14400
985.3625, 54.61763
985.8447, 54.61590
986.3268, 55.11870
986.8089, 55.35337
987.2910, 55.31819
987.7731, 54.97585
988.2552, 54.18296
988.7374, 53.25250
989.2195, 52.86044
989.7016, 52.86007
990.1837, 52.90055
990.6658, 52.96961
991.1479, 52.85272
991.6301, 52.29062
992.1122, 51.60793
992.5944, 51.10053
993.0765, 50.78104
993.5586, 50.67375
994.0407, 50.81581
994.5228, 50.87025
995.0049, 50.51545
995.4871, 49.93586
995.9692, 49.32262
996.4513, 48.69404
996.9334, 48.10606
997.4155, 47.35857
997.8976, 46.96925
998.3798, 47.25440
998.8619, 47.83453
999.3440, 47.63179
999.8261, 46.76068
1000.308, 46.42454
1000.790, 47.14809
1001.272, 47.76387
1001.755, 47.02998
1002.237, 45.81628
1002.719, 45.06616
1003.201, 45.03912
1003.683, 45.07423
1004.165, 45.27940
1004.647, 45.27529
1005.129, 44.57810
1005.612, 43.52897
1006.094, 43.20959
1006.576, 43.48020
1007.058, 43.66488
1007.540, 43.18444
1008.022, 42.80883
1008.504, 43.14361
1008.986, 43.67659
1009.468, 43.35487
1009.951, 41.99117
1010.433, 41.39335
1010.915, 41.93627
1011.397, 42.80478
1011.879, 43.30756
1012.361, 43.46606
1012.843, 43.18824
1013.325, 42.38398
1013.807, 41.84471
1014.290, 41.84385
1014.772, 41.91881
1015.254, 41.90931
1015.736, 41.81004
1016.218, 41.61420
1016.700, 41.31355
1017.182, 40.84954
1017.664, 39.97926
1018.147, 39.21581
1018.629, 38.91449
1019.111, 38.92068
1019.593, 38.98390
1020.075, 39.06382
1020.557, 39.31854
1021.039, 39.81519
1021.521, 40.24672
1022.003, 40.24594
1022.486, 40.01009
1022.968, 39.97636
1023.450, 40.12501
1023.932, 39.95933
1024.414, 38.64647
1024.896, 37.76807
1025.378, 38.06073
1025.860, 39.01437
1026.343, 39.05395
1026.825, 38.25838
1027.307, 37.75331
1027.789, 37.90507
1028.271, 38.23594
1028.753, 38.47327
1029.235, 38.57075
1029.717, 38.43985
1030.199, 37.96632
1030.682, 37.62962
1031.164, 37.43882
1031.646, 37.35309
1032.128, 37.39476
1032.610, 37.50393
1033.092, 37.52513
1033.574, 37.47561
1034.056, 37.41792
1034.539, 37.38234
1035.021, 37.33834
1035.503, 37.17902
1035.985, 37.06912
1036.467, 37.38205
1036.949, 38.14080
1037.431, 38.19360
1037.913, 37.35427
1038.396, 36.41190
1038.878, 35.86824
1039.360, 35.69587
1039.842, 35.98263
1040.324, 36.72844
1040.806, 37.34983
1041.288, 37.96467
1041.770, 38.07867
1042.252, 37.35672
1042.734, 36.29102
1043.217, 35.93303
1043.699, 36.05383
1044.181, 36.01749
1044.663, 35.47419
1045.145, 35.12532
1045.627, 35.43166
1046.109, 35.88482
1046.591, 36.11549
1047.074, 36.11568
1047.556, 36.06874
1048.038, 35.97402
1048.520, 35.94819
1049.002, 36.23000
1049.484, 36.47180
1049.966, 36.30150
1050.448, 35.84741
1050.931, 35.48506
1051.413, 35.32234
1051.895, 35.04556
1052.377, 34.49915
1052.859, 34.12939
1053.341, 34.82389
1053.823, 36.01798
1054.305, 36.37476
1054.787, 35.73775
1055.270, 35.05104
1055.752, 34.47288
1056.234, 34.24907
1056.716, 34.59657
1057.198, 35.32398
1057.680, 35.76143
1058.162, 35.90301
1058.644, 35.56625
1059.126, 34.43736
1059.609, 33.46499
1060.091, 33.73756
1060.573, 34.50874
1061.055, 34.94058
1061.537, 34.87039
1062.019, 34.76826
1062.501, 34.59855
1062.983, 34.53019
1063.466, 34.73876
1063.948, 35.08931
1064.430, 35.47554
1064.912, 35.79948
1065.394, 35.76581
1065.876, 34.83633
1066.358, 34.11120
1066.840, 33.78519
1067.323, 33.71275
1067.805, 33.68675
1068.287, 33.73711
1068.769, 34.26857
1069.251, 35.30648
1069.733, 35.93065
1070.215, 35.01336
1070.697, 33.89785
1071.179, 33.50227
1071.661, 33.69063
1072.144, 33.82412
1072.626, 33.87967
1073.108, 34.07210
1073.590, 34.53199
1074.072, 34.91429
1074.554, 34.60232
1075.036, 34.03201
1075.518, 33.83302
1076.001, 34.25526
1076.483, 34.35225
1076.965, 33.82897
1077.447, 33.45893
1077.929, 33.77713
1078.411, 34.45613
1078.893, 34.55503
1079.375, 34.18878
1079.858, 33.71721
1080.340, 32.92727
1080.822, 32.56257
1081.304, 33.33400
1081.786, 34.31174
1082.268, 34.64949
1082.750, 34.33336
1083.232, 33.97744
1083.714, 33.59455
1084.197, 33.23552
1084.679, 32.78051
1085.161, 32.50605
1085.643, 32.80853
1086.125, 33.46521
1086.607, 33.72668
1087.089, 33.44037
1087.571, 33.29337
1088.054, 33.45295
1088.536, 33.51960
1089.018, 32.66664
1089.500, 31.59560
1089.982, 31.51233
1090.464, 32.55958
1090.946, 33.17601
1091.428, 32.75614
1091.911, 32.37081
1092.393, 32.40932
1092.875, 32.04031
1093.357, 32.33897
1093.839, 31.72461
1094.321, 31.31759
1094.803, 31.31656
1095.285, 31.37575
1095.767, 31.44452
1096.250, 31.40919
1096.732, 31.10667
1097.214, 30.57244
1097.696, 30.62853
1098.178, 31.23794
1098.660, 31.62162
1099.142, 31.08292
1099.624, 30.52138
1100.106, 30.74545
1100.589, 31.34779
1101.071, 31.69577
1101.553, 31.76775
1102.035, 31.52719
1102.517, 30.91883
1102.999, 30.30830
1103.481, 30.04913
1103.963, 29.94230
1104.446, 29.74100
1104.928, 29.45996
1105.410, 29.18702
1105.892, 28.77530
1106.374, 28.70270
1106.856, 29.16247
1107.338, 29.73226
1107.820, 29.73174
1108.302, 29.41968
1108.785, 29.52929
1109.267, 30.14053
1109.749, 30.49141
1110.231, 30.00804
1110.713, 29.48107
1111.195, 29.18680
1111.677, 29.06223
1112.159, 28.92590
1112.641, 28.79119
1113.124, 28.75943
1113.606, 28.88498
1114.088, 28.99082
1114.570, 28.88153
1115.052, 28.77057
1115.534, 28.92574
1116.016, 29.31746
1116.498, 29.03869
1116.981, 28.05331
1117.463, 27.47613
1117.945, 28.05671
1118.427, 28.83381
1118.909, 28.87087
1119.391, 28.48444
1119.873, 28.08511
1120.355, 27.61124
1120.838, 27.51468
1121.320, 27.87353
1121.802, 28.27202
1122.284, 28.47626
1122.766, 28.50519
1123.248, 28.25511
1123.730, 27.86013
1124.212, 27.67746
1124.694, 27.92605
1125.177, 28.26606
1125.659, 28.75500
1126.141, 29.16940
1126.623, 29.30182
1127.105, 29.16681
1127.587, 28.65019
1128.069, 27.82871
1128.551, 27.28100
1129.033, 27.48836
1129.516, 27.73572
1129.998, 27.85618
1130.480, 27.86703
1130.962, 27.74532
1131.444, 27.52987
1131.926, 27.48577
1132.408, 27.66495
1132.890, 27.65433
1133.373, 26.67454
1133.855, 25.97004
1134.337, 26.44177
1134.819, 27.69293
1135.301, 28.43390
1135.783, 28.66548
1136.265, 28.45931
1136.747, 27.71047
1137.229, 27.02967
1137.712, 27.15686
1138.194, 27.42798
1138.676, 26.97697
1139.158, 25.79419
1139.640, 26.19145
1140.122, 28.41616
1140.604, 29.77597
1141.086, 28.79306
1141.569, 27.18548
1142.051, 26.66183
1142.533, 26.81698
1143.015, 27.17863
1143.497, 27.87021
1143.979, 27.99534
1144.461, 27.41891
1144.943, 26.79602
1145.426, 26.41660
1145.908, 26.33387
1146.390, 26.95169
1146.872, 27.88781
1147.354, 28.34844
1147.836, 27.53328
1148.318, 27.12345
1148.800, 27.26574
1149.282, 27.56522
1149.765, 27.75412
1150.247, 27.83117
1150.729, 27.76068
1151.211, 27.56924
1151.693, 27.36523
1152.175, 27.21032
1152.657, 27.00740
1153.139, 26.69364
1153.621, 26.40249
1154.104, 26.31426
1154.586, 26.37852
1155.068, 26.44065
1155.550, 26.48902
1156.032, 26.52020
1156.514, 26.60340
1156.996, 26.56190
1157.478, 26.22750
1157.961, 25.85705
1158.443, 25.96077
1158.925, 26.45967
1159.407, 26.95063
1159.889, 27.37837
1160.371, 27.67499
1160.853, 27.78272
1161.335, 27.75393
1161.818, 27.57929
1162.300, 27.31265
1162.782, 27.05905
1163.264, 26.83130
1163.746, 26.78164
1164.228, 26.95680
1164.710, 27.22375
1165.192, 27.75443
1165.674, 28.09839
1166.156, 27.79944
1166.639, 26.99428
1167.121, 26.47603
1167.603, 26.24703
1168.085, 26.18221
1168.567, 26.22994
1169.049, 26.46073
1169.531, 27.19260
1170.013, 27.96235
1170.496, 28.33028
1170.978, 28.29749
1171.460, 27.75429
1171.942, 26.64789
1172.424, 25.95882
1172.906, 26.33486
1173.388, 26.94440
1173.870, 26.86146
1174.353, 26.55536
1174.835, 26.69933
1175.317, 27.43845
1175.799, 27.99753
1176.281, 28.38787
1176.763, 28.54379
1177.245, 28.43168
1177.727, 28.06651
1178.209, 27.21362
1178.692, 26.20697
1179.174, 25.61640
1179.656, 25.52258
1180.138, 25.87293
1180.620, 26.78079
1181.102, 27.56455
1181.584, 27.54403
1182.066, 27.26486
1182.548, 27.51454
1183.031, 28.04063
1183.513, 28.21845
1183.995, 27.70561
1184.477, 27.42002
1184.959, 27.41573
1185.441, 27.56922
1185.923, 27.83742
1186.405, 28.15177
1186.888, 28.55828
1187.370, 28.93974
1187.852, 28.85236
1188.334, 27.84155
1188.816, 27.17954
1189.298, 27.02880
1189.780, 27.08643
1190.262, 27.06842
1190.745, 27.04370
1191.227, 27.16618
1191.709, 27.39816
1192.191, 27.49337
1192.673, 27.22862
1193.155, 27.20163
1193.637, 27.57127
1194.119, 27.98337
1194.601, 27.96564
1195.084, 27.73667
1195.566, 27.66495
1196.048, 27.75737
1196.530, 27.74233
1197.012, 27.36183
1197.494, 27.33594
1197.976, 27.93918
1198.458, 28.61330
1198.941, 28.43163
1199.423, 27.83642
1199.905, 27.62346
1200.387, 27.86468
1200.869, 27.94386
1201.351, 27.59802
1201.833, 27.37513
1202.315, 27.41302
1202.797, 27.62562
1203.280, 28.04461
1203.762, 28.46976
1204.244, 28.50219
1204.726, 28.06458
1205.208, 27.66242
1205.690, 27.38743
1206.172, 27.14087
1206.654, 26.87693
1207.136, 26.65112
1207.619, 26.57478
1208.101, 26.59868
1208.583, 26.61580
1209.065, 26.58772
1209.547, 26.74737
1210.029, 27.28524
1210.511, 27.65954
1210.993, 27.66650
1211.476, 27.42487
1211.958, 26.88701
1212.440, 26.35319
1212.922, 26.52241
1213.404, 27.77714
1213.886, 28.35940
1214.368, 27.96722
1214.850, 27.19097
1215.333, 26.03964
1215.815, 24.99944
1216.297, 25.22035
1216.779, 26.11167
1217.261, 26.57176
1217.743, 26.21067
1218.225, 26.06650
1218.707, 26.32543
1219.189, 26.53864
1219.672, 26.48518
1220.154, 26.27824
1220.636, 25.93725
1221.118, 25.65639
1221.600, 25.87612
1222.082, 27.06264
1222.564, 27.47246
1223.046, 26.77459
1223.528, 26.07596
1224.011, 25.95706
1224.493, 26.16841
1224.975, 26.39740
1225.457, 26.61142
1225.939, 26.73929
1226.421, 26.98639
1226.903, 26.83545
1227.385, 27.35033
1227.868, 27.75129
1228.350, 27.81003
1228.832, 27.57522
1229.314, 26.82915
1229.796, 25.94425
1230.278, 25.60134
1230.760, 26.19629
1231.242, 26.58794
1231.724, 26.76873
1232.207, 26.78838
1232.689, 26.57166
1233.171, 26.32178
1233.653, 26.36712
1234.135, 26.20924
1234.617, 26.14450
1235.099, 26.19277
1235.581, 26.08182
1236.063, 26.23864
1236.546, 26.32851
1237.028, 26.01118
1237.510, 25.66315
1237.992, 25.73407
1238.474, 26.02625
1238.956, 26.22802
1239.438, 26.34814
1239.920, 26.19400
1240.403, 25.73623
1240.885, 25.44243
1241.367, 25.87677
1241.849, 26.33061
1242.331, 26.09856
1242.813, 25.52405
1243.295, 25.11112
1243.777, 24.87185
1244.260, 24.83540
1244.742, 25.00114
1245.224, 25.13992
1245.706, 24.88806
1246.188, 24.80082
1246.670, 25.69509
1247.152, 26.71418
1247.634, 26.58677
1248.116, 25.17510
1248.599, 24.68944
1249.081, 25.08697
1249.563, 25.52426
1250.045, 25.42934
1250.527, 25.31803
1251.009, 25.52411
1251.491, 25.80635
1251.973, 25.90016
1252.455, 25.81618
1252.938, 25.85601
1253.420, 25.99973
1253.902, 26.07133
1254.384, 25.79281
1254.866, 25.66385
1255.348, 26.04119
1255.830, 26.46652
1256.313, 26.51223
1256.795, 26.23765
1257.277, 25.97040
1257.759, 25.72221
1258.241, 25.53301
1258.723, 25.47239
1259.205, 25.39412
1259.687, 25.23488
1260.169, 25.10147
1260.651, 25.10642
1261.134, 25.20858
1261.616, 25.25790
1262.098, 25.28372
1262.580, 25.39462
1263.062, 25.89197
1263.544, 26.03087
1264.026, 25.63170
1264.508, 25.15886
1264.991, 25.00285
1265.473, 25.04154
1265.955, 25.07870
1266.437, 25.10852
1266.919, 25.12337
1267.401, 25.14542
1267.883, 25.08783
1268.365, 24.91941
1268.848, 24.78847
1269.330, 24.77379
1269.812, 24.89030
1270.294, 25.23646
1270.776, 25.71358
1271.258, 26.12634
1271.740, 26.58824
1272.222, 26.47497
1272.704, 25.69992
1273.187, 25.07860
1273.669, 25.48200
1274.151, 25.98265
1274.633, 25.67024
1275.115, 24.95487
1275.597, 24.48474
1276.079, 24.28971
1276.561, 24.27380
1277.043, 24.43224
1277.526, 24.65104
1278.008, 24.92184
1278.490, 25.16105
1278.972, 25.33875
1279.454, 25.43786
1279.936, 25.40440
1280.418, 25.24808
1280.900, 25.29908
1281.383, 25.51872
1281.865, 25.66191
1282.347, 25.68366
1282.829, 25.48288
1283.311, 24.65235
1283.793, 24.03675
1284.275, 24.59229
1284.757, 25.86503
1285.240, 25.85244
1285.722, 24.87518
1286.204, 23.95354
1286.686, 23.14284
1287.168, 23.10749
1287.650, 24.15051
1288.132, 25.30731
1288.614, 25.90742
1289.096, 26.16781
1289.578, 26.57637
1290.061, 26.97971
1290.543, 27.05246
1291.025, 26.58411
1291.507, 25.99100
1291.989, 25.18032
1292.471, 24.69532
1292.953, 25.07166
1293.435, 25.64577
1293.918, 25.57801
1294.400, 25.21369
1294.882, 25.08687
1295.364, 25.26813
1295.846, 25.18660
1296.328, 24.83407
1296.810, 24.75026
1297.292, 25.40031
1297.775, 26.01621
1298.257, 25.93774
1298.739, 25.59670
1299.221, 25.41581
1299.703, 25.37099
1300.185, 25.14878
1300.667, 24.80736
1301.149, 24.72509
1301.631, 25.18392
1302.114, 25.53996
1302.596, 25.61607
##END=



