##NAMES=Herbertsmithite
##RRUFFID=R060387
##IDEAL CHEMISTRY=Cu^2+^_3_Zn^2+^(OH)_6_Cl_2_
##LOCALITY=San Francisco mine, Sierra Gorda, Antofagasta, Chile
##OWNER=RRUFF
##SOURCE=Michael Scott
##DESCRIPTION=Greenish-blue thin hexagonal plates associated with hemimorphite, anglesite, and quartz
##STATUS=The identification of this mineral is confirmed by single-crystal X-ray diffraction and chemical analysis.
##URL=rruff.info/R060387
##MEASURED CHEMISTRY=(Cu_2.98_Zn_0.02_)_Î£=3_Zn_1.00_(OH)_6_Cl_2.00_
185.5824, 37.11773
186.0645, 37.14302
186.5466, 37.04297
187.0287, 36.91220
187.5108, 36.81098
187.9930, 36.67678
188.4751, 36.39252
188.9572, 35.88222
189.4393, 35.21730
189.9214, 34.80920
190.4035, 34.73590
190.8857, 34.83199
191.3678, 35.44598
191.8499, 36.18414
192.3320, 36.24678
192.8141, 35.02645
193.2962, 32.81789
193.7784, 31.96916
194.2605, 33.24314
194.7426, 34.69397
195.2247, 35.88380
195.7068, 36.75713
196.1889, 37.21471
196.6711, 37.12921
197.1532, 36.58084
197.6353, 36.09272
198.1174, 35.74681
198.5995, 35.37812
199.0816, 34.71255
199.5638, 33.83582
200.0459, 33.36183
200.5280, 33.84793
201.0101, 34.96510
201.4922, 35.65083
201.9743, 35.60308
202.4565, 35.38723
202.9386, 35.63242
203.4207, 36.36317
203.9028, 36.69933
204.3849, 35.67286
204.8670, 34.11760
205.3492, 33.27447
205.8313, 33.62688
206.3134, 34.42924
206.7955, 34.73891
207.2776, 34.44049
207.7597, 34.18629
208.2419, 34.48082
208.7240, 34.89526
209.2061, 34.96880
209.6882, 34.47729
210.1703, 33.74205
210.6524, 33.30629
211.1346, 33.23650
211.6167, 33.31726
212.0988, 33.57156
212.5809, 33.88543
213.0630, 34.19328
213.5451, 34.48866
214.0273, 34.67887
214.5094, 34.45519
214.9915, 33.27593
215.4736, 32.70388
215.9557, 33.51268
216.4378, 34.76120
216.9200, 35.47629
217.4021, 35.21066
217.8842, 34.33730
218.3663, 33.91655
218.8484, 34.44175
219.3305, 34.72225
219.8127, 34.52089
220.2948, 34.06747
220.7769, 33.56535
221.2590, 33.10680
221.7411, 32.71672
222.2232, 32.46455
222.7054, 32.19474
223.1875, 32.29933
223.6696, 33.36086
224.1517, 34.61188
224.6338, 35.02865
225.1159, 34.15020
225.5980, 32.51883
226.0802, 31.71063
226.5623, 32.72606
227.0444, 33.39958
227.5265, 33.25576
228.0086, 32.77596
228.4907, 32.62916
228.9729, 33.11216
229.4550, 33.93170
229.9371, 34.31934
230.4192, 34.13448
230.9013, 33.77953
231.3834, 32.95220
231.8656, 32.06898
232.3477, 31.93221
232.8298, 32.96019
233.3119, 34.41520
233.7940, 34.53751
234.2761, 32.81942
234.7583, 31.35819
235.2404, 30.76389
235.7225, 30.75222
236.2046, 30.82498
236.6867, 30.81267
237.1688, 30.84844
237.6510, 31.29850
238.1331, 32.28733
238.6152, 32.93576
239.0973, 32.61213
239.5794, 31.75855
240.0615, 31.37245
240.5437, 31.83279
241.0258, 32.59851
241.5079, 32.97432
241.9900, 32.98283
242.4721, 32.86964
242.9542, 32.56886
243.4364, 32.21847
243.9185, 32.23201
244.4006, 32.83782
244.8827, 33.55173
245.3648, 33.96375
245.8469, 34.09441
246.3290, 33.93459
246.8112, 33.25291
247.2933, 32.25709
247.7754, 31.59886
248.2575, 31.49322
248.7396, 31.52277
249.2217, 31.37007
249.7039, 31.07455
250.1860, 30.76320
250.6681, 30.38593
251.1502, 30.02659
251.6323, 30.07973
252.1144, 30.92422
252.5966, 31.57556
253.0787, 31.35564
253.5608, 30.53348
254.0429, 29.69868
254.5250, 29.16161
255.0071, 28.87246
255.4893, 28.62540
255.9714, 28.35968
256.4535, 28.25485
256.9356, 28.49573
257.4177, 28.90694
257.8998, 29.19160
258.3820, 29.13739
258.8641, 28.86200
259.3462, 28.79317
259.8283, 29.06037
260.3104, 29.33096
260.7925, 29.60372
261.2747, 29.78771
261.7568, 29.74451
262.2389, 29.37947
262.7210, 28.79384
263.2031, 28.25382
263.6852, 27.67490
264.1674, 27.31061
264.6495, 27.24488
265.1316, 27.37295
265.6137, 27.60638
266.0958, 27.91106
266.5779, 28.26097
267.0601, 28.63177
267.5422, 29.22720
268.0243, 29.43649
268.5064, 28.99392
268.9885, 28.29285
269.4706, 27.61652
269.9528, 27.07405
270.4349, 26.70419
270.9170, 26.61923
271.3991, 27.04547
271.8812, 27.31425
272.3633, 27.22951
272.8455, 27.09125
273.3276, 27.18143
273.8097, 27.54552
274.2918, 27.95692
274.7739, 28.05575
275.2560, 27.66312
275.7382, 27.32399
276.2202, 27.05273
276.7024, 26.81155
277.1845, 26.50375
277.6666, 26.15599
278.1487, 25.95420
278.6308, 26.17428
279.1129, 27.04042
279.5951, 27.54044
280.0772, 27.51330
280.5593, 27.33420
281.0414, 27.18358
281.5235, 27.07115
282.0056, 26.89081
282.4878, 26.49424
282.9699, 25.78372
283.4520, 25.58711
283.9341, 26.47709
284.4162, 27.24971
284.8983, 27.35193
285.3805, 26.90814
285.8626, 26.33720
286.3447, 25.93838
286.8268, 25.71296
287.3089, 25.67664
287.7910, 26.10469
288.2732, 26.41232
288.7553, 26.28699
289.2374, 25.92582
289.7195, 25.74921
290.2016, 26.03583
290.6837, 26.65828
291.1659, 26.90071
291.6480, 26.46919
292.1301, 26.00282
292.6122, 25.46554
293.0943, 24.98873
293.5764, 24.76355
294.0586, 24.88077
294.5407, 25.24746
295.0228, 25.61387
295.5049, 26.20749
295.9870, 26.50850
296.4691, 26.33375
296.9513, 25.92817
297.4334, 25.46369
297.9155, 25.01144
298.3976, 24.71393
298.8797, 24.85128
299.3618, 25.97806
299.8440, 26.46281
300.3261, 25.68788
300.8082, 24.66909
301.2903, 24.25142
301.7724, 24.57920
302.2545, 25.20796
302.7367, 25.64067
303.2188, 25.83817
303.7009, 25.93138
304.1830, 25.97045
304.6651, 25.87873
305.1472, 25.48660
305.6294, 24.86435
306.1115, 24.32916
306.5936, 24.15542
307.0757, 24.36271
307.5578, 24.65037
308.0399, 25.21909
308.5221, 25.65885
309.0042, 25.66271
309.4863, 25.37579
309.9684, 25.20722
310.4505, 25.44520
310.9326, 26.00337
311.4148, 26.26307
311.8969, 25.97998
312.3790, 25.73235
312.8611, 25.62524
313.3432, 25.64886
313.8253, 25.87910
314.3075, 26.38243
314.7896, 26.89681
315.2717, 26.71326
315.7538, 24.86197
316.2359, 23.71649
316.7180, 23.85024
317.2001, 24.61049
317.6823, 25.44876
318.1644, 26.18486
318.6465, 26.62414
319.1286, 26.42878
319.6107, 25.17011
320.0928, 24.28632
320.5750, 23.81214
321.0571, 23.66936
321.5392, 23.90541
322.0213, 24.47174
322.5034, 25.14730
322.9855, 25.74598
323.4677, 26.29828
323.9498, 26.46316
324.4319, 25.98898
324.9140, 25.42609
325.3961, 24.90846
325.8782, 24.51801
326.3604, 24.42776
326.8425, 24.80485
327.3246, 25.58912
327.8067, 26.09791
328.2888, 26.16126
328.7709, 26.18690
329.2531, 26.37014
329.7352, 26.56649
330.2173, 26.47114
330.6994, 25.92181
331.1815, 25.14554
331.6636, 24.75566
332.1458, 25.27663
332.6279, 25.54812
333.1100, 25.16908
333.5921, 24.70538
334.0742, 24.85116
334.5563, 25.75779
335.0385, 26.84893
335.5206, 27.26501
336.0027, 26.66855
336.4848, 26.21823
336.9669, 25.58945
337.4490, 25.33064
337.9312, 26.11014
338.4133, 27.75474
338.8954, 29.30508
339.3775, 29.82724
339.8596, 29.21347
340.3417, 28.93051
340.8239, 29.32150
341.3060, 29.64088
341.7881, 29.47604
342.2702, 29.04273
342.7523, 28.84204
343.2344, 29.20797
343.7166, 29.98580
344.1987, 30.41847
344.6808, 30.03440
345.1629, 29.82601
345.6450, 29.97864
346.1271, 30.31212
346.6093, 30.59051
347.0914, 30.73176
347.5735, 30.88549
348.0556, 31.39437
348.5377, 32.87770
349.0198, 33.55348
349.5020, 32.67757
349.9841, 31.66281
350.4662, 31.70484
350.9483, 32.77787
351.4304, 33.79252
351.9125, 33.44695
352.3947, 31.41946
352.8768, 30.19262
353.3589, 30.34992
353.8410, 30.71893
354.3231, 31.07388
354.8052, 31.32060
355.2874, 31.35246
355.7695, 31.06727
356.2516, 30.53605
356.7337, 30.16298
357.2158, 30.08815
357.6979, 29.98972
358.1800, 29.91671
358.6621, 29.74736
359.1443, 29.27941
359.6264, 28.43572
360.1085, 27.48315
360.5906, 26.90507
361.0727, 26.81469
361.5548, 26.81692
362.0370, 27.25061
362.5191, 27.47644
363.0012, 26.88471
363.4833, 25.53668
363.9654, 24.18428
364.4475, 23.64932
364.9297, 23.99015
365.4118, 24.16395
365.8939, 24.02542
366.3760, 23.86865
366.8581, 23.80329
367.3402, 23.80890
367.8224, 23.85160
368.3045, 23.96464
368.7866, 24.05849
369.2687, 23.77841
369.7508, 22.81684
370.2329, 22.17689
370.7151, 22.45853
371.1972, 23.07448
371.6793, 23.47217
372.1614, 23.48502
372.6435, 23.30737
373.1256, 23.15936
373.6078, 23.04606
374.0899, 22.89055
374.5720, 22.61304
375.0541, 22.34637
375.5362, 22.15648
376.0183, 22.05221
376.5005, 22.06940
376.9826, 22.29270
377.4647, 22.66506
377.9468, 23.00591
378.4289, 23.36121
378.9110, 23.55356
379.3932, 23.33994
379.8753, 22.89412
380.3574, 22.54038
380.8395, 22.41519
381.3216, 22.39279
381.8037, 22.34843
382.2859, 22.28301
382.7680, 22.13504
383.2501, 21.72973
383.7322, 21.33572
384.2143, 21.44403
384.6964, 22.26449
385.1786, 22.87252
385.6607, 22.37841
386.1428, 21.25663
386.6249, 20.86182
387.1070, 21.65664
387.5891, 22.81993
388.0713, 23.48865
388.5534, 23.70835
389.0355, 23.62506
389.5176, 23.02496
389.9997, 22.28548
390.4818, 21.76339
390.9640, 21.47584
391.4461, 21.29099
391.9282, 21.07236
392.4103, 20.90026
392.8924, 21.12425
393.3745, 22.38335
393.8567, 23.30773
394.3388, 23.07641
394.8209, 22.16231
395.3030, 21.47567
395.7851, 21.35412
396.2672, 21.57013
396.7494, 21.73627
397.2315, 21.84200
397.7136, 21.91491
398.1957, 22.09399
398.6778, 22.14873
399.1599, 21.70963
399.6420, 20.84628
400.1241, 20.15866
400.6063, 20.24186
401.0884, 21.13286
401.5705, 21.52645
402.0526, 21.09258
402.5347, 20.60535
403.0168, 20.11234
403.4990, 19.75995
403.9811, 19.87275
404.4632, 20.61715
404.9453, 21.60650
405.4274, 21.84400
405.9095, 20.50911
406.3917, 19.81014
406.8738, 20.45191
407.3559, 21.22390
407.8380, 21.08223
408.3201, 20.03088
408.8022, 18.99758
409.2844, 19.02386
409.7665, 20.21563
410.2486, 20.74976
410.7307, 19.86872
411.2128, 19.12467
411.6949, 19.03549
412.1771, 19.37188
412.6592, 19.78795
413.1413, 20.15707
413.6234, 20.36497
414.1055, 20.02986
414.5876, 18.82003
415.0698, 18.08009
415.5519, 18.66292
416.0340, 19.47128
416.5161, 19.71455
416.9982, 19.32025
417.4803, 18.85403
417.9625, 18.86883
418.4446, 19.27245
418.9267, 19.41933
419.4088, 19.20549
419.8909, 18.83414
420.3730, 18.26690
420.8552, 17.65610
421.3373, 17.34657
421.8194, 17.56166
422.3015, 18.01375
422.7836, 18.34526
423.2657, 18.55871
423.7479, 18.92705
424.2300, 19.72495
424.7121, 20.57950
425.1942, 20.91102
425.6763, 20.64606
426.1584, 20.26785
426.6406, 19.89776
427.1227, 19.57206
427.6048, 19.39991
428.0869, 19.41130
428.5690, 19.39024
429.0511, 19.07378
429.5333, 18.47417
430.0154, 18.19728
430.4975, 18.41231
430.9796, 18.79320
431.4617, 19.39314
431.9438, 20.02297
432.4260, 20.12347
432.9081, 19.35923
433.3902, 18.19791
433.8723, 17.76305
434.3544, 18.66058
434.8365, 19.30695
435.3187, 19.46169
435.8008, 19.47271
436.2829, 19.71583
436.7650, 20.17239
437.2471, 20.44856
437.7292, 20.14161
438.2114, 19.23134
438.6935, 18.49389
439.1756, 17.72140
439.6577, 17.36190
440.1398, 17.90933
440.6219, 18.81008
441.1040, 19.32785
441.5862, 19.15210
442.0683, 18.54848
442.5504, 17.90287
443.0325, 17.03640
443.5146, 16.67956
443.9967, 17.33721
444.4789, 18.15225
444.9610, 18.82685
445.4431, 19.28286
445.9252, 19.42657
446.4073, 18.96473
446.8894, 18.16492
447.3716, 18.17884
447.8537, 19.39294
448.3358, 20.45485
448.8179, 20.63152
449.3000, 20.40508
449.7821, 20.25469
450.2643, 20.28402
450.7464, 20.36543
451.2285, 20.46120
451.7106, 20.53779
452.1927, 20.35316
452.6748, 19.70858
453.1570, 19.10693
453.6391, 19.21609
454.1212, 19.87216
454.6033, 20.34134
455.0854, 20.40462
455.5675, 20.24625
456.0497, 19.93003
456.5318, 19.50238
457.0139, 19.17397
457.4960, 19.03557
457.9781, 19.08673
458.4602, 19.38206
458.9424, 20.15610
459.4245, 20.65110
459.9066, 20.57733
460.3887, 20.24775
460.8708, 19.93720
461.3529, 19.70513
461.8351, 19.52971
462.3172, 19.38539
462.7993, 19.27097
463.2814, 19.25786
463.7635, 19.33403
464.2456, 19.51632
464.7278, 19.92233
465.2099, 20.40167
465.6920, 20.77406
466.1741, 20.96854
466.6562, 20.99410
467.1383, 20.80260
467.6205, 20.22213
468.1026, 19.95947
468.5847, 20.34904
469.0668, 20.78386
469.5489, 20.99454
470.0310, 21.02085
470.5132, 21.02339
470.9953, 21.08400
471.4774, 21.20274
471.9595, 21.40118
472.4416, 21.71240
472.9237, 21.98133
473.4059, 22.20242
473.8880, 22.31922
474.3701, 22.25537
474.8522, 21.99888
475.3343, 21.67161
475.8164, 21.18966
476.2986, 20.71148
476.7807, 20.72673
477.2628, 21.38031
477.7449, 22.03339
478.2270, 22.16373
478.7091, 21.88431
479.1913, 21.71494
479.6734, 21.60483
480.1555, 21.69401
480.6376, 22.28259
481.1197, 23.09960
481.6018, 23.50876
482.0839, 23.28269
482.5660, 22.85553
483.0482, 22.85660
483.5303, 23.48342
484.0124, 23.81765
484.4945, 23.65872
484.9766, 23.41479
485.4587, 23.17701
485.9409, 23.03533
486.4230, 23.19150
486.9051, 23.78226
487.3872, 24.59803
487.8693, 25.04541
488.3514, 25.13023
488.8336, 24.80109
489.3157, 23.28547
489.7978, 22.02361
490.2799, 22.26839
490.7620, 23.83289
491.2441, 25.43685
491.7263, 26.11095
492.2084, 25.96995
492.6905, 25.48618
493.1726, 24.47587
493.6547, 23.56876
494.1368, 22.85183
494.6190, 22.45849
495.1011, 22.75130
495.5832, 23.90464
496.0653, 24.84881
496.5474, 24.55972
497.0295, 23.40890
497.5117, 22.48005
497.9938, 21.91733
498.4759, 21.64768
498.9580, 21.80642
499.4401, 22.25488
499.9222, 22.26586
500.4044, 21.29880
500.8865, 20.39749
501.3686, 20.18293
501.8507, 20.40994
502.3328, 20.57735
502.8149, 20.51528
503.2971, 20.33778
503.7792, 20.17241
504.2613, 19.93091
504.7434, 20.06568
505.2255, 21.32696
505.7076, 22.18700
506.1898, 21.57553
506.6719, 20.03954
507.1540, 18.71184
507.6361, 18.18070
508.1182, 18.23759
508.6003, 18.46081
509.0825, 18.97623
509.5646, 19.31995
510.0467, 19.35451
510.5288, 19.28507
511.0109, 19.28337
511.4930, 19.28970
511.9752, 19.04692
512.4573, 18.19089
512.9394, 17.10738
513.4215, 16.77760
513.9036, 17.32481
514.3857, 17.83550
514.8679, 17.90769
515.3500, 17.81015
515.8321, 17.93890
516.3142, 18.34145
516.7963, 18.59977
517.2784, 18.42865
517.7606, 18.05730
518.2427, 17.81210
518.7248, 17.71725
519.2069, 17.57353
519.6890, 17.15736
520.1711, 16.61702
520.6533, 16.73227
521.1354, 18.38092
521.6175, 19.41551
522.0996, 19.13323
522.5817, 18.27445
523.0638, 17.42473
523.5460, 16.76400
524.0281, 16.37910
524.5102, 16.38396
524.9923, 16.76727
525.4744, 17.17039
525.9565, 17.64528
526.4387, 18.06472
526.9208, 18.40823
527.4029, 18.68623
527.8850, 18.90380
528.3671, 19.06376
528.8492, 19.17969
529.3314, 19.29869
529.8135, 19.40571
530.2956, 19.33615
530.7777, 19.03525
531.2598, 18.65189
531.7419, 18.17252
532.2241, 17.69536
532.7062, 17.39592
533.1883, 17.36204
533.6704, 17.39875
534.1525, 17.36163
534.6346, 17.29623
535.1168, 17.37269
535.5989, 17.65173
536.0810, 17.81043
536.5631, 17.41351
537.0452, 16.42476
537.5273, 16.07865
538.0095, 16.93067
538.4916, 17.74239
538.9737, 18.06366
539.4558, 18.05614
539.9379, 17.94718
540.4200, 17.82341
540.9022, 17.71417
541.3843, 17.67497
541.8664, 17.73350
542.3485, 17.69828
542.8306, 17.12753
543.3127, 16.96233
543.7948, 18.00227
544.2769, 19.48901
544.7590, 20.23200
545.2411, 19.75393
545.7233, 18.75855
546.2054, 17.99520
546.6875, 17.46151
547.1696, 17.18781
547.6517, 17.24509
548.1339, 17.43595
548.6160, 17.68796
549.0981, 17.95263
549.5802, 18.06891
550.0623, 17.77439
550.5444, 17.57004
551.0266, 18.06708
551.5087, 18.87448
551.9908, 18.93389
552.4729, 17.89537
552.9550, 16.66684
553.4371, 16.41837
553.9193, 17.37212
554.4014, 17.97368
554.8835, 17.87620
555.3656, 17.86335
555.8477, 18.47171
556.3298, 19.26437
556.8120, 19.48681
557.2941, 18.88652
557.7762, 18.03505
558.2583, 17.83134
558.7404, 18.40215
559.2225, 18.53537
559.7047, 17.76932
560.1868, 17.12792
560.6689, 17.23351
561.1510, 17.73366
561.6331, 18.01568
562.1152, 17.84296
562.5974, 17.55999
563.0795, 17.47897
563.5616, 17.55200
564.0437, 17.64596
564.5258, 17.76828
565.0079, 17.73960
565.4901, 17.29991
565.9722, 16.48490
566.4543, 16.00919
566.9364, 16.09381
567.4185, 16.26093
567.9006, 16.27668
568.3828, 16.28444
568.8649, 16.55429
569.3470, 17.12815
569.8291, 17.73810
570.3112, 18.07120
570.7933, 18.11709
571.2755, 18.09410
571.7576, 18.03443
572.2397, 17.85458
572.7218, 17.44862
573.2039, 16.95940
573.6860, 16.49259
574.1682, 16.07986
574.6503, 15.85118
575.1324, 16.05089
575.6145, 16.56248
576.0966, 16.83733
576.5787, 16.78558
577.0609, 16.72308
577.5430, 16.88882
578.0251, 17.15923
578.5072, 17.22726
578.9893, 16.98276
579.4714, 16.77098
579.9536, 16.72253
580.4357, 16.77935
580.9178, 16.89687
581.3999, 17.05592
581.8820, 17.19071
582.3641, 17.22995
582.8463, 17.22079
583.3284, 17.45383
583.8105, 18.41919
584.2926, 18.90198
584.7747, 18.58237
585.2568, 17.95060
585.7390, 17.21031
586.2211, 16.48842
586.7032, 16.02755
587.1853, 16.04097
587.6674, 16.40920
588.1495, 16.91715
588.6317, 17.64532
589.1138, 17.99968
589.5959, 17.65951
590.0780, 16.97071
590.5601, 16.16738
591.0422, 15.25237
591.5244, 14.92937
592.0065, 16.11308
592.4886, 17.43341
592.9707, 17.42142
593.4528, 16.41740
593.9349, 15.78388
594.4171, 16.15372
594.8992, 16.92034
595.3813, 16.95366
595.8634, 15.70872
596.3455, 15.36835
596.8276, 16.75877
597.3098, 18.05381
597.7919, 18.45114
598.2740, 18.23830
598.7561, 17.95427
599.2382, 17.81357
599.7203, 17.74306
600.2025, 17.60779
600.6846, 17.41370
601.1667, 17.43152
601.6488, 17.79337
602.1309, 18.15919
602.6130, 18.42032
603.0952, 18.50096
603.5773, 18.15774
604.0594, 17.08926
604.5415, 16.10719
605.0236, 15.51193
605.5057, 15.30622
605.9879, 15.68914
606.4700, 16.61476
606.9521, 17.43587
607.4342, 17.59983
607.9163, 17.18879
608.3984, 16.81934
608.8806, 16.42351
609.3627, 16.17535
609.8448, 16.09669
610.3269, 16.15975
610.8090, 16.44339
611.2911, 16.87512
611.7733, 17.18633
612.2554, 17.14297
612.7375, 16.89668
613.2196, 16.76719
613.7017, 16.74979
614.1838, 16.92342
614.6660, 17.43747
615.1481, 18.00251
615.6302, 18.38308
616.1123, 18.58398
616.5944, 18.33501
617.0765, 16.83354
617.5587, 15.57200
618.0408, 15.92584
618.5229, 17.24675
619.0050, 18.00143
619.4871, 17.66252
619.9692, 16.98830
620.4514, 17.03971
620.9335, 17.96098
621.4156, 18.50341
621.8977, 18.15244
622.3798, 18.02929
622.8619, 18.85099
623.3441, 19.83459
623.8262, 19.96690
624.3083, 19.02731
624.7904, 17.89208
625.2725, 17.21279
625.7546, 16.91846
626.2367, 16.87812
626.7188, 17.10538
627.2009, 17.38045
627.6830, 17.68072
628.1652, 17.88631
628.6473, 17.62495
629.1294, 16.66775
629.6115, 16.06132
630.0936, 16.22368
630.5757, 16.55773
631.0579, 16.49715
631.5400, 16.23802
632.0221, 16.46726
632.5042, 17.54964
632.9863, 18.91721
633.4684, 19.47552
633.9506, 19.07568
634.4327, 18.58676
634.9148, 17.81494
635.3969, 17.27098
635.8790, 17.32556
636.3611, 17.72257
636.8433, 18.03183
637.3254, 18.14741
637.8075, 18.15517
638.2896, 18.01416
638.7717, 17.83627
639.2538, 17.94271
639.7360, 18.35814
640.2181, 18.54446
640.7002, 18.03057
641.1823, 17.06947
641.6644, 16.69241
642.1465, 17.58480
642.6287, 18.13235
643.1108, 18.07202
643.5929, 17.87328
644.0750, 17.81012
644.5571, 17.88661
645.0392, 18.01604
645.5214, 18.16377
646.0035, 18.29427
646.4856, 18.35201
646.9677, 18.33703
647.4498, 18.21677
647.9319, 17.87808
648.4141, 17.66172
648.8962, 18.07341
649.3783, 18.86876
649.8604, 19.08843
650.3425, 18.03686
650.8246, 17.24584
651.3068, 17.65508
651.7889, 18.47965
652.2710, 18.66943
652.7531, 18.15992
653.2352, 17.68026
653.7173, 17.83170
654.1995, 18.41521
654.6816, 18.57445
655.1637, 18.12296
655.6458, 17.69175
656.1279, 17.20239
656.6100, 16.91553
657.0922, 17.14005
657.5743, 17.72408
658.0564, 18.13589
658.5385, 18.03869
659.0206, 17.87839
659.5027, 18.08257
659.9849, 18.56521
660.4670, 19.18350
660.9491, 19.91560
661.4312, 20.39539
661.9133, 20.21735
662.3954, 19.44646
662.8776, 19.01686
663.3597, 19.36054
663.8418, 19.48136
664.3239, 18.92251
664.8060, 18.37659
665.2881, 18.48498
665.7703, 19.17999
666.2524, 19.93447
666.7345, 20.47909
667.2166, 20.79967
667.6987, 20.74222
668.1808, 20.32403
668.6630, 20.29926
669.1451, 21.07819
669.6272, 21.72343
670.1093, 21.08249
670.5914, 19.30506
671.0735, 18.36382
671.5557, 18.81194
672.0378, 19.45802
672.5199, 20.13288
673.0020, 20.68665
673.4841, 20.85696
673.9662, 20.69333
674.4484, 20.59958
674.9305, 20.91799
675.4126, 21.49290
675.8947, 21.80667
676.3768, 21.82114
676.8589, 21.72964
677.3411, 21.43855
677.8232, 21.20168
678.3053, 21.19668
678.7874, 21.40360
679.2695, 21.76571
679.7516, 22.38673
680.2338, 23.01236
680.7159, 23.62340
681.1980, 24.09204
681.6801, 24.07168
682.1622, 23.58192
682.6443, 23.22732
683.1265, 23.55007
683.6086, 24.35857
684.0907, 24.70631
684.5728, 24.39005
685.0549, 24.05582
685.5370, 23.58994
686.0192, 23.30785
686.5013, 23.55314
686.9834, 24.14206
687.4655, 24.53253
687.9476, 24.44512
688.4297, 24.23615
688.9119, 24.16772
689.3940, 24.22650
689.8761, 24.43509
690.3582, 24.79156
690.8403, 25.09680
691.3224, 25.19969
691.8046, 25.12573
692.2867, 24.99191
692.7688, 24.72786
693.2509, 24.51772
693.7330, 24.42469
694.2151, 24.33397
694.6973, 24.15759
695.1794, 23.92837
695.6615, 23.76627
696.1436, 23.76886
696.6257, 23.69410
697.1078, 23.03388
697.5900, 22.05880
698.0721, 21.82585
698.5542, 22.52763
699.0363, 23.33907
699.5184, 23.76889
700.0005, 23.83946
700.4827, 23.60907
700.9648, 22.71324
701.4469, 22.11470
701.9290, 21.95724
702.4111, 21.97582
702.8932, 22.14796
703.3754, 22.34796
703.8575, 22.34969
704.3396, 22.05128
704.8217, 21.65469
705.3038, 21.37168
705.7859, 21.19767
706.2681, 21.13208
706.7502, 21.19110
707.2323, 21.24697
707.7144, 21.23399
708.1965, 21.16827
708.6786, 21.07961
709.1607, 20.94990
709.6428, 20.85129
710.1249, 21.01733
710.6071, 20.98640
711.0892, 20.18606
711.5713, 19.10337
712.0534, 18.63595
712.5355, 19.06338
713.0176, 19.73122
713.4998, 19.88476
713.9819, 19.62981
714.4640, 19.52072
714.9461, 19.56130
715.4282, 19.81454
715.9103, 20.52930
716.3925, 21.22351
716.8746, 20.98755
717.3567, 19.67755
717.8388, 18.82767
718.3209, 18.83430
718.8030, 19.03572
719.2852, 19.25189
719.7673, 19.41252
720.2494, 19.42965
720.7315, 19.29577
721.2136, 19.09514
721.6957, 18.81708
722.1779, 18.57414
722.6600, 18.93937
723.1421, 20.04081
723.6242, 20.57425
724.1063, 19.85388
724.5884, 18.93563
725.0706, 19.14624
725.5527, 20.36202
726.0348, 20.87305
726.5169, 19.72834
726.9990, 18.92909
727.4811, 19.64524
727.9633, 20.72752
728.4454, 20.85702
728.9275, 20.02213
729.4096, 19.09396
729.8917, 18.64360
730.3738, 18.52506
730.8560, 18.42835
731.3381, 18.35021
731.8202, 18.45076
732.3023, 18.82220
732.7844, 19.21661
733.2665, 19.46851
733.7487, 19.59393
734.2308, 19.68328
734.7129, 19.82427
735.1950, 19.76521
735.6771, 19.16773
736.1592, 18.59307
736.6414, 18.49459
737.1235, 18.79139
737.6056, 19.22636
738.0877, 19.69158
738.5698, 20.09404
739.0519, 20.30823
739.5341, 20.34246
740.0162, 20.28546
740.4983, 20.15864
740.9804, 19.81135
741.4625, 18.92248
741.9446, 17.98586
742.4268, 18.12661
742.9089, 19.70124
743.3910, 20.42451
743.8731, 19.08923
744.3552, 17.97053
744.8373, 18.49944
745.3195, 19.77875
745.8016, 20.46452
746.2837, 20.27346
746.7658, 19.95486
747.2479, 20.32935
747.7300, 20.98756
748.2122, 20.56857
748.6943, 19.04813
749.1764, 18.10495
749.6585, 18.31203
750.1406, 18.99111
750.6227, 19.58393
751.1049, 20.07501
751.5870, 20.16236
752.0691, 19.20035
752.5512, 18.73759
753.0333, 19.59823
753.5154, 20.63268
753.9976, 20.84860
754.4797, 20.34472
754.9618, 19.75287
755.4439, 19.34264
755.9260, 19.16050
756.4081, 19.43923
756.8903, 20.02176
757.3724, 20.17826
757.8545, 19.79540
758.3366, 19.40714
758.8187, 19.27510
759.3008, 19.45686
759.7830, 20.17929
760.2651, 22.17446
760.7472, 22.95084
761.2293, 21.48503
761.7114, 20.02974
762.1935, 19.47937
762.6757, 19.49548
763.1578, 19.55281
763.6399, 19.53599
764.1220, 19.70999
764.6041, 20.61378
765.0862, 21.62238
765.5684, 21.61747
766.0505, 20.79206
766.5326, 20.13330
767.0147, 19.95423
767.4968, 20.04463
767.9789, 20.18851
768.4611, 20.38667
768.9432, 20.66115
769.4253, 21.35522
769.9074, 21.52767
770.3895, 20.41289
770.8716, 19.29881
771.3538, 19.22002
771.8359, 19.88833
772.3180, 20.22270
772.8001, 19.64969
773.2822, 19.14045
773.7643, 19.63317
774.2465, 20.46083
774.7286, 20.55586
775.2107, 19.93925
775.6928, 19.32160
776.1749, 19.08875
776.6570, 19.14820
777.1392, 19.37112
777.6213, 19.79877
778.1034, 20.07358
778.5855, 20.06803
779.0676, 20.15453
779.5497, 20.56531
780.0319, 21.11687
780.5140, 21.63072
780.9961, 22.11939
781.4782, 22.34386
781.9603, 22.11209
782.4424, 21.74464
782.9246, 21.32809
783.4067, 20.93716
783.8888, 20.64540
784.3709, 20.47976
784.8530, 20.50593
785.3351, 20.87848
785.8173, 21.31712
786.2994, 20.90545
786.7815, 19.64211
787.2636, 19.03953
787.7457, 19.45138
788.2278, 20.34298
788.7100, 21.58884
789.1921, 22.93281
789.6742, 23.28408
790.1563, 21.79019
790.6384, 20.92091
791.1205, 21.42815
791.6026, 21.96524
792.0847, 21.58951
792.5668, 20.78797
793.0490, 20.53010
793.5311, 21.08895
794.0132, 21.62920
794.4953, 21.31973
794.9774, 20.61069
795.4595, 20.21313
795.9417, 20.14461
796.4238, 20.49677
796.9059, 21.32911
797.3880, 22.12840
797.8701, 22.29697
798.3522, 21.88218
798.8344, 21.67296
799.3165, 21.88121
799.7986, 21.88471
800.2807, 21.36699
800.7628, 20.81170
801.2449, 20.43109
801.7271, 20.24610
802.2092, 20.33148
802.6913, 20.87636
803.1734, 21.25940
803.6555, 20.83713
804.1376, 20.32284
804.6198, 20.67852
805.1019, 21.64122
805.5840, 22.25229
806.0661, 22.09888
806.5482, 21.67774
807.0303, 21.66163
807.5125, 21.99764
807.9946, 22.14481
808.4767, 22.04592
808.9588, 22.11063
809.4409, 22.58048
809.9230, 23.09512
810.4052, 23.22274
810.8873, 22.96047
811.3694, 22.77724
811.8515, 22.93548
812.3336, 22.81725
812.8157, 21.94764
813.2979, 21.04926
813.7800, 20.81650
814.2621, 21.05874
814.7442, 21.06373
815.2263, 20.46031
815.7084, 19.92803
816.1906, 20.32676
816.6727, 21.20933
817.1548, 21.61837
817.6369, 21.54805
818.1190, 21.54174
818.6011, 21.85504
819.0833, 22.17270
819.5654, 21.95752
820.0475, 21.16910
820.5296, 21.10327
821.0117, 22.38525
821.4938, 23.09417
821.9760, 22.11478
822.4581, 20.91497
822.9402, 20.82937
823.4223, 21.62153
823.9044, 22.13441
824.3865, 22.10662
824.8687, 21.83663
825.3508, 21.08699
825.8329, 20.41523
826.3150, 20.44892
826.7971, 21.04775
827.2792, 21.76574
827.7614, 22.41306
828.2435, 22.82780
828.7256, 22.63964
829.2077, 22.05244
829.6898, 21.89961
830.1719, 22.20192
830.6541, 22.48422
831.1362, 22.59165
831.6183, 22.52710
832.1004, 22.24520
832.5825, 21.75313
833.0646, 21.50119
833.5468, 21.64784
834.0289, 21.79479
834.5110, 21.80530
834.9931, 21.88364
835.4752, 22.27927
835.9573, 22.83316
836.4395, 23.14513
836.9216, 23.08600
837.4037, 22.87313
837.8858, 22.47753
838.3679, 22.09496
838.8500, 21.96573
839.3322, 22.02054
839.8143, 22.06263
840.2964, 22.02118
840.7785, 21.93536
841.2606, 21.81659
841.7427, 21.70087
842.2249, 21.73776
842.7070, 21.92968
843.1891, 22.26600
843.6712, 22.85263
844.1533, 23.19123
844.6354, 22.69199
845.1176, 21.61434
845.5997, 21.24969
846.0818, 22.45333
846.5639, 23.01277
847.0460, 22.32137
847.5281, 21.66450
848.0103, 21.85300
848.4924, 22.37023
848.9745, 22.30047
849.4566, 21.46573
849.9387, 20.87141
850.4208, 21.10858
850.9030, 21.74915
851.3851, 22.76178
851.8672, 23.77183
852.3493, 23.97464
852.8314, 23.31286
853.3135, 22.48050
853.7957, 21.95851
854.2778, 21.75983
854.7599, 22.08700
855.2420, 22.92169
855.7241, 23.23413
856.2062, 22.81068
856.6884, 22.37859
857.1705, 22.31299
857.6526, 22.50018
858.1347, 22.77860
858.6168, 23.23821
859.0989, 23.37215
859.5811, 22.96344
860.0632, 22.51923
860.5453, 22.18830
861.0274, 21.84204
861.5095, 21.17948
861.9916, 20.35346
862.4738, 20.06924
862.9559, 20.87990
863.4380, 21.68659
863.9201, 21.73103
864.4022, 21.41210
864.8843, 21.13640
865.3665, 20.95189
865.8486, 20.80368
866.3307, 20.67164
866.8128, 20.66802
867.2949, 21.10508
867.7770, 21.78514
868.2592, 21.64743
868.7413, 20.67467
869.2234, 20.21496
869.7055, 20.74939
870.1876, 21.42202
870.6697, 21.39633
871.1519, 20.83241
871.6340, 20.63473
872.1161, 20.97453
872.5981, 21.35200
873.0803, 22.14829
873.5624, 22.53567
874.0445, 21.85061
874.5266, 20.68848
875.0087, 19.85364
875.4908, 19.45526
875.9730, 19.29758
876.4551, 19.44264
876.9372, 19.67115
877.4193, 19.88604
877.9014, 20.08162
878.3835, 20.33428
878.8657, 20.58546
879.3478, 20.56810
879.8299, 20.07522
880.3120, 19.43414
880.7941, 19.01076
881.2762, 18.81835
881.7584, 18.98698
882.2405, 19.49272
882.7226, 19.97000
883.2047, 20.26426
883.6868, 20.39587
884.1689, 20.37823
884.6511, 20.21520
885.1332, 19.99248
885.6153, 19.57914
886.0974, 19.49870
886.5795, 20.16042
887.0616, 20.78416
887.5438, 20.64616
888.0259, 20.01081
888.5080, 19.69238
888.9901, 19.86974
889.4722, 19.97862
889.9543, 20.05935
890.4365, 19.92230
890.9186, 19.09283
891.4007, 18.18205
891.8828, 18.16544
892.3649, 19.07000
892.8470, 19.82202
893.3292, 19.74633
893.8113, 19.34986
894.2934, 19.04236
894.7755, 18.78586
895.2576, 18.43529
895.7397, 18.04787
896.2219, 17.96675
896.7040, 18.37956
897.1861, 18.97290
897.6682, 19.36059
898.1503, 19.53017
898.6324, 19.30034
899.1146, 18.63692
899.5967, 18.10864
900.0788, 17.90386
900.5609, 17.82277
901.0430, 17.66188
901.5251, 17.45425
902.0073, 17.42607
902.4894, 17.79376
902.9715, 17.89102
903.4536, 17.36978
903.9357, 16.94199
904.4178, 16.90436
904.9000, 17.15194
905.3821, 17.68848
905.8642, 18.54544
906.3463, 18.93271
906.8284, 17.87307
907.3105, 17.25108
907.7927, 18.68433
908.2748, 20.44932
908.7569, 20.59811
909.2390, 19.35628
909.7211, 18.10021
910.2032, 17.38699
910.6854, 17.14335
911.1675, 17.55434
911.6496, 18.24834
912.1317, 18.58556
912.6138, 18.64473
913.0959, 18.82339
913.5781, 19.23824
914.0602, 19.75593
914.5423, 20.33117
915.0244, 20.78697
915.5065, 20.35333
915.9886, 19.01718
916.4708, 18.59700
916.9529, 19.48426
917.4350, 20.35141
917.9171, 20.44703
918.3992, 20.15212
918.8813, 20.13712
919.3635, 20.44969
919.8456, 20.67995
920.3277, 20.82479
920.8098, 20.89217
921.2919, 20.66635
921.7740, 20.56044
922.2562, 21.00599
922.7383, 21.80157
923.2204, 22.32299
923.7025, 22.37020
924.1846, 22.47336
924.6667, 22.93876
925.1489, 23.30912
925.6310, 23.14823
926.1131, 22.80529
926.5952, 22.81093
927.0773, 23.20075
927.5594, 23.53677
928.0416, 23.47827
928.5237, 23.43422
929.0058, 24.01209
929.4879, 24.72722
929.9700, 24.68032
930.4521, 24.00437
930.9343, 23.52255
931.4164, 23.57654
931.8985, 23.72171
932.3806, 23.33209
932.8627, 23.43165
933.3448, 23.46728
933.8270, 23.24932
934.3091, 23.57755
934.7912, 23.44556
935.2733, 23.32294
935.7554, 23.55579
936.2375, 23.99091
936.7197, 24.36727
937.2018, 24.83964
937.6839, 24.16843
938.1660, 21.53130
938.6481, 19.89212
939.1302, 20.87029
939.6124, 22.41802
940.0945, 22.34758
940.5766, 20.86029
941.0587, 19.84866
941.5408, 19.68177
942.0229, 19.40126
942.5051, 18.63850
942.9872, 18.10908
943.4693, 18.48393
943.9514, 19.13447
944.4335, 19.12023
944.9156, 18.35275
945.3978, 17.69271
945.8799, 17.43723
946.3620, 17.35432
946.8441, 17.34401
947.3262, 17.43721
947.8083, 17.84764
948.2905, 18.36614
948.7726, 18.42868
949.2547, 17.82266
949.7368, 17.13928
950.2189, 16.98382
950.7010, 16.95111
951.1832, 16.21674
951.6653, 15.21629
952.1474, 15.20241
952.6295, 16.24525
953.1116, 17.19421
953.5938, 17.30848
954.0759, 16.96694
954.5580, 16.78684
955.0400, 16.71443
955.5222, 16.36551
956.0043, 15.74026
956.4864, 15.46643
956.9685, 15.77484
957.4506, 16.22577
957.9327, 16.37926
958.4149, 16.33413
958.8970, 16.55810
959.3791, 17.17336
959.8612, 17.41125
960.3433, 17.08476
960.8254, 16.74978
961.3076, 16.72895
961.7897, 16.74283
962.2718, 16.36910
962.7539, 15.59774
963.2360, 15.00663
963.7181, 14.33768
964.2003, 14.26083
964.6824, 15.30687
965.1645, 16.44198
965.6466, 17.41940
966.1287, 18.00897
966.6108, 17.58975
967.0930, 15.94314
967.5751, 15.07953
968.0572, 16.28480
968.5393, 17.25922
969.0214, 16.87448
969.5035, 16.03922
969.9857, 15.45954
970.4678, 15.18979
970.9499, 15.13091
971.4320, 15.26963
971.9141, 15.48474
972.3962, 16.08305
972.8784, 16.36271
973.3605, 15.13507
973.8426, 13.44606
974.3247, 13.17284
974.8068, 14.27095
975.2889, 15.12894
975.7711, 14.81892
976.2532, 14.20115
976.7353, 14.17752
977.2174, 14.53692
977.6995, 15.06903
978.1816, 15.63118
978.6638, 15.67193
979.1459, 15.11493
979.6280, 14.75498
980.1101, 15.30731
980.5922, 16.21436
981.0743, 16.23018
981.5565, 15.51660
982.0386, 15.03684
982.5207, 14.86075
983.0028, 14.84381
983.4849, 14.93778
983.9670, 15.11774
984.4492, 15.38437
984.9313, 15.68657
985.4134, 15.75654
985.8955, 15.55653
986.3776, 15.42844
986.8597, 15.45765
987.3419, 15.31236
987.8240, 14.67135
988.3061, 14.09337
988.7882, 14.51632
989.2703, 15.92916
989.7524, 16.40442
990.2346, 15.30161
990.7167, 14.70450
991.1988, 15.25521
991.6809, 15.80309
992.1630, 15.64243
992.6451, 15.09893
993.1273, 14.68324
993.6094, 14.36576
994.0915, 14.39499
994.5736, 15.41716
995.0557, 15.89031
995.5378, 14.88793
996.0200, 13.86754
996.5021, 13.92959
996.9842, 14.64392
997.4663, 15.08159
997.9484, 15.07930
998.4305, 15.10836
998.9127, 15.63881
999.3948, 15.78134
999.8769, 14.55966
1000.359, 13.26042
1000.841, 13.22578
1001.323, 14.13524
1001.805, 14.92873
1002.287, 15.31644
1002.770, 15.46590
1003.252, 15.24388
1003.734, 15.04810
1004.216, 15.27986
1004.698, 15.64609
1005.180, 15.70947
1005.662, 15.50845
1006.144, 15.45381
1006.627, 15.77438
1007.109, 15.87511
1007.591, 14.85307
1008.073, 13.68733
1008.555, 13.70804
1009.037, 14.40818
1009.519, 14.67690
1010.001, 14.41308
1010.483, 14.32712
1010.966, 14.86106
1011.448, 15.46284
1011.930, 15.38452
1012.412, 15.52113
1012.894, 14.87930
1013.376, 15.03768
1013.858, 14.82576
1014.340, 14.19173
1014.823, 13.96581
1015.305, 14.81161
1015.787, 15.91478
1016.269, 15.76080
1016.751, 14.72603
1017.233, 14.19920
1017.715, 14.20140
1018.197, 14.50075
1018.679, 15.01910
1019.162, 15.38410
1019.644, 15.26245
1020.126, 14.89213
1020.608, 14.82292
1021.090, 15.03050
1021.572, 15.20109
1022.054, 15.32378
1022.536, 15.32127
1023.018, 15.15768
1023.501, 14.95076
1023.983, 14.79006
1024.465, 14.69606
1024.947, 14.72381
1025.429, 14.86928
1025.911, 15.27912
1026.393, 16.08904
1026.875, 16.42045
1027.358, 15.87319
1027.840, 15.03628
1028.322, 14.39590
1028.804, 14.00941
1029.286, 14.20038
1029.768, 15.17419
1030.250, 15.92510
1030.732, 16.56870
1031.214, 16.54937
1031.697, 15.37261
1032.179, 13.96433
1032.661, 13.19407
1033.143, 13.00404
1033.625, 13.12864
1034.107, 13.75033
1034.589, 14.21144
1035.071, 14.30679
1035.553, 14.62752
1036.036, 15.65226
1036.518, 16.67695
1037.000, 16.97913
1037.482, 16.64935
1037.964, 16.20026
1038.446, 15.46725
1038.928, 14.94542
1039.410, 14.74117
1039.893, 14.60616
1040.375, 14.40287
1040.857, 14.27700
1041.339, 14.33817
1041.821, 14.59297
1042.303, 15.12193
1042.785, 16.59163
1043.267, 17.03951
1043.750, 15.31395
1044.232, 13.89087
1044.714, 13.97925
1045.196, 14.50258
1045.678, 14.29727
1046.160, 13.55882
1046.642, 13.40796
1047.124, 14.46354
1047.606, 14.93917
1048.089, 13.78403
1048.571, 13.01187
1049.053, 14.03229
1049.535, 15.34222
1050.017, 15.23679
1050.499, 14.05599
1050.981, 13.54166
1051.463, 14.31225
1051.945, 14.82274
1052.428, 14.38611
1052.910, 14.06251
1053.392, 14.67051
1053.874, 15.35565
1054.356, 15.08376
1054.838, 14.11297
1055.320, 13.54468
1055.802, 13.69314
1056.285, 13.92495
1056.767, 13.85068
1057.249, 14.07130
1057.731, 15.65715
1058.213, 17.06563
1058.695, 16.27597
1059.177, 13.99233
1059.659, 12.67240
1060.141, 13.05424
1060.624, 13.58186
1061.106, 13.73600
1061.588, 13.87667
1062.070, 14.45725
1062.552, 14.89904
1063.034, 14.32712
1063.516, 13.16185
1063.998, 12.65468
1064.480, 13.18345
1064.963, 13.72809
1065.445, 13.87587
1065.927, 13.94854
1066.409, 14.16507
1066.891, 14.34469
1067.373, 14.30449
1067.855, 14.07679
1068.337, 13.66516
1068.820, 13.04048
1069.302, 12.86349
1069.784, 13.94278
1070.266, 14.88398
1070.748, 14.94182
1071.230, 14.54407
1071.712, 13.81616
1072.194, 13.05166
1072.677, 12.75890
1073.159, 13.04255
1073.641, 13.45573
1074.123, 13.95112
1074.605, 14.34199
1075.087, 14.54188
1075.569, 14.58902
1076.051, 14.48666
1076.533, 14.26985
1077.016, 13.89563
1077.498, 13.39796
1077.980, 13.20752
1078.462, 13.84959
1078.944, 14.33668
1079.426, 13.99968
1079.908, 13.50445
1080.390, 13.36924
1080.872, 13.46006
1081.354, 13.52546
1081.837, 13.52233
1082.319, 13.50708
1082.801, 13.46783
1083.283, 13.48545
1083.765, 13.86068
1084.247, 14.03310
1084.729, 13.17455
1085.211, 12.11304
1085.694, 12.15313
1086.176, 13.18780
1086.658, 13.87499
1087.140, 13.63654
1087.622, 13.40086
1088.104, 13.65707
1088.586, 13.93059
1089.068, 13.89993
1089.551, 13.73268
1090.033, 13.60261
1090.515, 13.53384
1090.997, 13.52883
1091.479, 13.61133
1091.961, 13.65014
1092.443, 13.65299
1092.925, 13.53068
1093.407, 12.97577
1093.890, 12.48968
1094.372, 12.74991
1094.854, 13.44298
1095.336, 13.65219
1095.818, 13.11628
1096.300, 12.85011
1096.782, 13.59835
1097.264, 14.11536
1097.746, 13.69468
1098.229, 13.05947
1098.711, 12.68799
1099.193, 12.56987
1099.675, 12.65906
1100.157, 12.94704
1100.639, 13.12461
1101.121, 13.06445
1101.603, 12.95640
1102.086, 12.68615
1102.568, 12.55995
1103.050, 13.07401
1103.532, 13.67122
1104.014, 13.40222
1104.496, 12.32140
1104.978, 11.70750
1105.460, 12.11913
1105.943, 12.42598
1106.425, 12.40040
1106.907, 12.29837
1107.389, 12.12169
1107.871, 12.00978
1108.353, 12.19362
1108.835, 12.58450
1109.317, 12.75142
1109.799, 12.57289
1110.281, 12.39325
1110.764, 12.28254
1111.246, 12.11298
1111.728, 11.52303
1112.210, 11.15759
1112.692, 11.75520
1113.174, 12.92201
1113.656, 13.67908
1114.138, 14.01390
1114.621, 13.97548
1115.103, 13.25246
1115.585, 12.66690
1116.067, 12.42487
1116.549, 12.24988
1117.031, 12.01387
1117.513, 11.71611
1117.995, 11.24247
1118.478, 10.58384
1118.960, 10.72307
1119.442, 12.32212
1119.924, 13.08656
1120.406, 12.33110
1120.888, 11.74558
1121.370, 12.11116
1121.852, 12.91249
1122.334, 13.69132
1122.817, 14.35342
1123.299, 14.29775
1123.781, 13.25164
1124.263, 12.69158
1124.745, 12.88372
1125.227, 12.58030
1125.709, 11.07881
1126.191, 10.09615
1126.673, 11.29424
1127.156, 13.58208
1127.638, 14.18402
1128.120, 13.02149
1128.602, 12.56579
1129.084, 12.89424
1129.566, 13.23068
1130.048, 13.45633
1130.530, 13.25727
1131.013, 12.36317
1131.495, 11.43385
1131.977, 11.51195
1132.459, 12.36991
1132.941, 12.96752
1133.423, 13.30431
1133.905, 13.17780
1134.387, 12.60299
1134.870, 12.38967
1135.352, 12.85708
1135.834, 13.36605
1136.316, 13.27593
1136.798, 12.89681
1137.280, 12.91038
1137.762, 13.19409
1138.244, 13.38045
1138.726, 13.42108
1139.208, 13.06130
1139.691, 12.33824
1140.173, 12.03853
1140.655, 12.70095
1141.137, 13.54947
1141.619, 13.53910
1142.101, 13.08883
1142.583, 12.92303
1143.065, 12.91953
1143.548, 12.74624
1144.030, 12.41845
1144.512, 12.10104
1144.994, 11.87579
1145.476, 12.04030
1145.958, 13.18139
1146.440, 14.37072
1146.922, 14.73159
1147.405, 14.54226
1147.887, 13.85654
1148.369, 13.01828
1148.851, 12.66797
1149.333, 12.86596
1149.815, 13.07876
1150.297, 12.99974
1150.779, 13.04434
1151.261, 13.81308
1151.744, 14.40403
1152.226, 14.01981
1152.708, 13.17669
1153.190, 12.29550
1153.672, 11.57492
1154.154, 11.34726
1154.636, 11.71883
1155.118, 12.34238
1155.600, 13.55242
1156.083, 14.39979
1156.565, 14.60722
1157.047, 14.29098
1157.529, 12.96429
1158.011, 11.46524
1158.493, 11.31825
1158.975, 12.55891
1159.457, 13.20479
1159.940, 12.51487
1160.422, 12.24753
1160.904, 12.58990
1161.386, 13.18940
1161.868, 14.32280
1162.350, 15.18839
1162.832, 14.95389
1163.314, 13.92735
1163.796, 13.03706
1164.279, 12.27456
1164.761, 11.68618
1165.243, 11.21417
1165.725, 11.15358
1166.207, 11.63281
1166.689, 12.31970
1167.171, 13.09152
1167.653, 13.77256
1168.135, 14.11452
1168.618, 14.14707
1169.100, 13.93860
1169.582, 13.49750
1170.064, 13.49144
1170.546, 13.96541
1171.028, 14.29869
1171.510, 14.28492
1171.992, 14.17026
1172.474, 14.16035
1172.957, 14.12946
1173.439, 13.78261
1173.921, 13.26082
1174.403, 12.93960
1174.885, 12.81937
1175.367, 13.00650
1175.849, 13.39541
1176.331, 13.38627
1176.814, 12.73781
1177.296, 12.11880
1177.778, 12.07366
1178.260, 12.42606
1178.742, 13.30717
1179.224, 14.21033
1179.706, 14.41343
1180.188, 14.09588
1180.671, 13.56521
1181.153, 12.99804
1181.635, 12.78466
1182.117, 13.15928
1182.599, 13.67630
1183.081, 14.36159
1183.563, 14.79926
1184.045, 14.54132
1184.527, 14.07098
1185.010, 13.85790
1185.492, 13.82566
1185.974, 13.65674
1186.456, 13.28688
1186.938, 13.18770
1187.420, 13.67652
1187.902, 14.07411
1188.384, 14.41547
1188.866, 14.46233
1189.349, 13.90675
1189.831, 13.21319
1190.313, 12.87407
1190.795, 12.80022
1191.277, 12.62255
1191.759, 12.27772
1192.241, 12.10921
1192.723, 12.12523
1193.206, 12.31634
1193.688, 12.72837
1194.170, 13.13199
1194.652, 13.40152
1195.134, 13.56035
1195.616, 13.63832
1196.098, 13.63588
1196.580, 13.43104
1197.063, 13.09070
1197.545, 13.48653
1198.027, 14.55646
1198.509, 15.14554
1198.991, 14.92429
1199.473, 14.15016
1199.955, 12.92884
1200.437, 11.84349
1200.919, 11.78874
1201.401, 12.28273
1201.884, 12.60155
1202.366, 12.76489
1202.848, 12.79080
1203.330, 12.73472
1203.812, 12.71700
1204.294, 12.77315
1204.776, 12.85550
1205.258, 12.92876
1205.741, 13.03471
1206.223, 13.35772
1206.705, 13.55339
1207.187, 13.21197
1207.669, 12.69463
1208.151, 12.34909
1208.633, 12.24640
1209.115, 12.51391
1209.598, 13.28954
1210.080, 13.75330
1210.562, 13.40477
1211.044, 13.29928
1211.526, 13.97983
1212.008, 14.53444
1212.490, 14.61534
1212.972, 14.25431
1213.454, 13.21475
1213.937, 11.82250
1214.419, 11.82885
1214.901, 13.71136
1215.383, 14.48287
1215.865, 13.93233
1216.347, 13.50951
1216.829, 13.55556
1217.311, 13.59538
1217.793, 13.34038
1218.276, 13.03619
1218.758, 13.00414
1219.240, 13.18529
1219.722, 13.52358
1220.204, 13.91594
1220.686, 13.90244
1221.168, 13.57786
1221.650, 13.50919
1222.133, 13.75844
1222.615, 13.72680
1223.097, 13.03233
1223.579, 12.39911
1224.061, 12.61439
1224.543, 13.06505
1225.025, 13.23899
1225.507, 13.23568
1225.990, 13.13677
1226.472, 12.98784
1226.954, 12.83544
1227.436, 12.69040
1227.918, 12.54554
1228.400, 12.33167
1228.882, 12.26260
1229.364, 12.29346
1229.846, 12.60233
1230.328, 13.89374
1230.811, 14.82917
1231.293, 13.99334
1231.775, 12.40457
1232.257, 12.01099
1232.739, 12.80282
1233.221, 13.32035
1233.703, 13.50936
1234.185, 13.65488
1234.668, 13.76208
1235.150, 13.95398
1235.632, 14.29561
1236.114, 14.51954
1236.596, 14.40788
1237.078, 14.10223
1237.560, 13.77542
1238.042, 13.48468
1238.525, 13.47711
1239.007, 13.65405
1239.489, 13.68376
1239.971, 13.57857
1240.453, 13.61203
1240.935, 13.81564
1241.417, 13.73103
1241.899, 12.93207
1242.381, 12.26518
1242.864, 12.47402
1243.346, 13.01408
1243.828, 13.71374
1244.310, 14.26165
1244.792, 14.18094
1245.274, 13.73902
1245.756, 13.61416
1246.238, 13.90071
1246.720, 13.92102
1247.203, 13.23694
1247.685, 12.82611
1248.167, 12.92027
1248.649, 13.03615
1249.131, 12.92873
1249.613, 12.99600
1250.095, 13.71550
1250.577, 13.36308
1251.059, 14.33632
1251.542, 13.20855
1252.024, 12.64942
1252.506, 12.65674
1252.988, 13.30763
1253.470, 14.55159
1253.952, 15.43029
1254.434, 15.64492
1254.916, 15.48234
1255.399, 15.10766
1255.881, 14.72421
1256.363, 14.73568
1256.845, 14.76797
1257.327, 14.07845
1257.809, 13.18073
1258.291, 12.85843
1258.773, 13.00519
1259.255, 13.27001
1259.738, 13.53950
1260.220, 13.68143
1260.702, 13.58376
1261.184, 13.53764
1261.666, 13.70611
1262.148, 13.85028
1262.630, 13.84489
1263.112, 13.81411
1263.594, 13.80262
1264.077, 13.86940
1264.559, 13.93214
1265.041, 14.83319
1265.523, 14.22356
1266.005, 14.49864
1266.487, 14.82200
1266.969, 13.84879
1267.451, 14.85554
1267.934, 13.83078
1268.416, 12.20181
1268.898, 10.70642
1269.380, 10.02058
1269.862, 11.21343
1270.344, 13.25289
1270.826, 14.43427
1271.308, 14.98774
1271.791, 15.21742
1272.273, 15.23487
1272.755, 15.23747
1273.237, 15.18994
1273.719, 14.75104
1274.201, 13.76482
1274.683, 13.06146
1275.165, 13.18622
1275.647, 13.40662
1276.130, 13.45357
1276.612, 13.51062
1277.094, 13.83780
1277.576, 14.09148
1278.058, 13.67318
1278.540, 13.00051
1279.022, 13.36596
1279.504, 14.91093
1279.986, 15.39815
1280.469, 14.65874
1280.951, 14.00893
1281.433, 13.60533
1281.915, 13.16518
1282.397, 12.57896
1282.879, 12.50854
1283.361, 13.55399
1283.843, 14.84906
1284.326, 15.36628
1284.808, 15.10225
##END=



