##NAMES=Heterosite
##RRUFFID=R050165
##IDEAL CHEMISTRY=Fe^3+^PO_4_
##LOCALITY=White Elephant mine, Custer County, South Dakota, USA
##OWNER=RRUFF
##SOURCE=Marcus Origlieri
##DESCRIPTION=Purple massive
##STATUS=The identification of this mineral is confirmed by single-crystal X-ray diffraction and chemical analysis.
##URL=rruff.info/R050165
##MEASURED CHEMISTRY=(Fe^3+^_0.68_Mn^3+^_0.32_)P_1.00_O_4_
93.26398, 0.0000000E+00
93.74609, 2.869078
94.22821, 2.735214
94.71033, 2.810573
95.19244, 3.056116
95.67456, 3.331235
96.15668, 3.587702
96.63879, 3.832577
97.12091, 4.080530
97.60303, 4.324851
98.08514, 4.603597
98.56726, 4.970490
99.04938, 5.428010
99.53149, 5.932003
100.0136, 6.455202
100.4957, 6.994581
100.9778, 7.587720
101.4600, 8.229945
101.9421, 8.927565
102.4242, 9.681717
102.9063, 10.50497
103.3884, 11.36579
103.8705, 12.24919
104.3527, 13.19267
104.8348, 14.07635
105.3169, 14.90551
105.7990, 15.67274
106.2811, 16.38296
106.7632, 17.04003
107.2454, 17.62932
107.7275, 18.12514
108.2096, 18.46494
108.6917, 18.80562
109.1738, 19.13348
109.6559, 19.43365
110.1381, 19.88886
110.6202, 20.56916
111.1023, 21.38116
111.5844, 22.23365
112.0665, 23.13874
112.5486, 24.08188
113.0308, 25.05040
113.5129, 26.03472
113.9950, 27.11501
114.4771, 28.37939
114.9592, 29.72694
115.4413, 31.03057
115.9235, 32.25160
116.4056, 33.42220
116.8877, 34.53636
117.3698, 35.60324
117.8519, 36.64005
118.3340, 37.67685
118.8162, 38.69160
119.2983, 39.62770
119.7804, 40.48265
120.2625, 41.25158
120.7446, 41.92019
121.2267, 42.46268
121.7089, 42.94685
122.1910, 43.39954
122.6731, 43.82383
123.1552, 44.23423
123.6373, 44.64165
124.1194, 45.03807
124.6016, 45.41422
125.0837, 45.66724
125.5658, 45.96578
126.0479, 46.53037
126.5300, 47.35125
127.0121, 48.20830
127.4943, 48.90508
127.9764, 49.49323
128.4585, 50.11300
128.9406, 50.74313
129.4227, 51.45130
129.9048, 52.41551
130.3869, 53.66162
130.8691, 54.95764
131.3512, 56.01168
131.8333, 56.67451
132.3154, 57.06446
132.7975, 57.53250
133.2796, 58.11925
133.7618, 58.66241
134.2439, 59.17216
134.7260, 59.62444
135.2081, 59.89515
135.6902, 59.97712
136.1723, 60.19468
136.6545, 60.79754
137.1366, 61.78145
137.6187, 62.61432
138.1008, 63.22570
138.5829, 63.72620
139.0650, 64.44469
139.5472, 65.46893
140.0293, 66.39332
140.5114, 66.89252
140.9935, 66.81959
141.4756, 67.02951
141.9577, 67.65190
142.4399, 68.60918
142.9220, 69.53189
143.4041, 70.41607
143.8862, 71.28254
144.3683, 72.15547
144.8504, 73.01789
145.3326, 73.90856
145.8147, 74.79190
146.2968, 75.68554
146.7789, 76.71493
147.2610, 77.96058
147.7431, 79.27985
148.2253, 80.57380
148.7074, 81.81239
149.1895, 83.06425
149.6716, 84.35091
150.1537, 85.69229
150.6358, 86.90925
151.1180, 87.83967
151.6001, 88.71188
152.0822, 89.74938
152.5643, 91.25335
153.0464, 92.61958
153.5285, 93.68021
154.0107, 94.33078
154.4928, 95.03793
154.9749, 95.86333
155.4570, 96.75154
155.9391, 97.63291
156.4212, 98.44557
156.9034, 99.30754
157.3855, 100.2655
157.8676, 101.3297
158.3497, 102.4429
158.8318, 103.5950
159.3139, 104.7988
159.7961, 106.0821
160.2782, 107.3612
160.7603, 108.7920
161.2424, 110.4598
161.7245, 112.4274
162.2066, 114.5186
162.6888, 116.7264
163.1709, 119.0178
163.6530, 121.3196
164.1351, 123.6517
164.6172, 125.9529
165.0993, 128.1834
165.5815, 130.3427
166.0636, 132.4172
166.5457, 134.6730
167.0278, 136.9136
167.5099, 138.5323
167.9920, 139.2642
168.4742, 139.2232
168.9563, 138.5109
169.4384, 137.1548
169.9205, 135.1268
170.4026, 132.3552
170.8847, 128.8801
171.3669, 124.8901
171.8490, 120.1989
172.3311, 115.1580
172.8132, 110.1666
173.2953, 105.2108
173.7774, 100.4613
174.2596, 95.97969
174.7417, 91.76897
175.2238, 88.00707
175.7059, 85.05813
176.1880, 82.63442
176.6701, 80.29417
177.1523, 77.77129
177.6344, 75.34077
178.1165, 73.35654
178.5986, 71.78963
179.0807, 70.45326
179.5628, 69.17094
180.0450, 67.97955
180.5271, 66.99010
181.0092, 66.29057
181.4913, 65.77734
181.9734, 65.32705
182.4555, 64.94157
182.9377, 64.53371
183.4198, 63.95356
183.9019, 63.25795
184.3840, 62.66216
184.8661, 62.25423
185.3482, 61.99758
185.8304, 61.80987
186.3125, 61.69490
186.7946, 61.62631
187.2767, 61.59848
187.7588, 61.60279
188.2409, 61.58850
188.7231, 61.53649
189.2052, 61.45116
189.6873, 61.32790
190.1694, 61.15480
190.6515, 61.00108
191.1336, 60.98877
191.6158, 61.10649
192.0979, 61.18366
192.5800, 61.13490
193.0621, 60.97741
193.5442, 60.83576
194.0263, 60.72417
194.5085, 60.57903
194.9906, 60.28257
195.4727, 59.83424
195.9548, 59.38996
196.4369, 59.03509
196.9190, 58.76192
197.4012, 58.44749
197.8833, 58.08607
198.3654, 57.69439
198.8475, 57.27781
199.3296, 56.82256
199.8117, 56.46112
200.2939, 56.27605
200.7760, 56.26964
201.2581, 56.26989
201.7402, 56.27213
202.2223, 56.28711
202.7044, 56.32958
203.1866, 56.39740
203.6687, 56.50401
204.1508, 56.67661
204.6329, 56.92632
205.1150, 57.11048
205.5971, 57.19628
206.0793, 57.25590
206.5614, 57.45047
207.0435, 57.81615
207.5256, 58.16933
208.0077, 58.39033
208.4898, 58.43441
208.9720, 58.63816
209.4541, 59.03729
209.9362, 59.56635
210.4183, 60.09801
210.9004, 60.62732
211.3825, 61.15972
211.8647, 61.68660
212.3468, 62.18795
212.8289, 62.78333
213.3110, 63.51420
213.7931, 64.31300
214.2752, 64.99783
214.7574, 65.51859
215.2395, 66.06015
215.7216, 66.71340
216.2037, 67.49048
216.6858, 68.31097
217.1679, 69.17406
217.6500, 70.08515
218.1322, 71.04630
218.6143, 72.08183
219.0964, 73.13919
219.5785, 74.17161
220.0606, 75.17739
220.5427, 76.21561
221.0249, 77.31969
221.5070, 78.43587
221.9891, 79.37606
222.4712, 80.02180
222.9533, 80.73122
223.4354, 81.66484
223.9176, 82.93858
224.3997, 84.14230
224.8818, 85.28391
225.3639, 86.35690
225.8460, 87.37465
226.3281, 88.31892
226.8103, 89.22897
227.2924, 90.10780
227.7745, 90.99191
228.2566, 91.78685
228.7387, 92.48895
229.2208, 93.10691
229.7030, 93.62962
230.1851, 94.00733
230.6672, 94.38286
231.1493, 94.83917
231.6314, 95.47464
232.1135, 95.93225
232.5957, 96.21867
233.0778, 96.32671
233.5599, 96.22783
234.0420, 95.88752
234.5241, 95.39662
235.0062, 94.77842
235.4884, 94.01297
235.9705, 93.19914
236.4526, 92.34637
236.9347, 91.43216
237.4168, 90.39674
237.8989, 89.19844
238.3811, 87.94598
238.8632, 86.69474
239.3453, 85.46895
239.8274, 84.14605
240.3095, 82.64671
240.7916, 81.08325
241.2738, 79.67329
241.7559, 78.49103
242.2380, 77.34579
242.7201, 76.17728
243.2022, 74.95940
243.6843, 73.79097
244.1665, 72.62721
244.6486, 71.53173
245.1307, 70.64302
245.6128, 70.12614
246.0949, 69.53655
246.5770, 68.68240
247.0592, 67.43435
247.5413, 66.43935
248.0234, 65.78051
248.5055, 65.32338
248.9876, 64.89156
249.4697, 64.52573
249.9519, 64.10291
250.4340, 63.56580
250.9161, 62.87860
251.3982, 62.25851
251.8803, 61.70193
252.3624, 61.22088
252.8446, 60.85855
253.3267, 60.68467
253.8088, 60.48730
254.2909, 60.20130
254.7730, 59.81153
255.2551, 59.43697
255.7373, 59.05007
256.2194, 58.70601
256.7015, 58.49044
257.1836, 58.45942
257.6657, 58.42939
258.1478, 58.36867
258.6299, 58.27969
259.1121, 58.10618
259.5942, 57.80042
260.0763, 57.46272
260.5584, 57.19642
261.0405, 57.03254
261.5226, 56.86312
262.0048, 56.63918
262.4869, 56.36599
262.9690, 56.23623
263.4511, 56.31641
263.9332, 56.44602
264.4153, 56.46324
264.8975, 56.31930
265.3796, 56.21875
265.8617, 56.22024
266.3438, 56.30978
266.8259, 56.31992
267.3080, 56.21655
267.7902, 56.09764
268.2723, 56.05364
268.7544, 56.10457
269.2365, 56.14906
269.7186, 56.16009
270.2007, 56.15165
270.6829, 56.19001
271.1650, 56.25943
271.6471, 56.41216
272.1292, 56.71999
272.6113, 57.22326
273.0934, 57.64370
273.5756, 57.91078
274.0577, 58.07893
274.5398, 58.35398
275.0219, 58.75662
275.5040, 59.19224
275.9861, 59.60254
276.4683, 59.98397
276.9504, 60.36266
277.4325, 60.73993
277.9146, 61.11606
278.3967, 61.48764
278.8788, 61.84973
279.3610, 62.22868
279.8431, 62.65968
280.3252, 63.14428
280.8073, 63.53515
281.2894, 63.76667
281.7715, 63.99401
282.2537, 64.57267
282.7358, 65.53956
283.2179, 66.49800
283.7000, 67.22487
284.1821, 67.73521
284.6642, 68.29976
285.1464, 68.93268
285.6285, 69.60862
286.1106, 70.30321
286.5927, 71.01540
287.0748, 71.70736
287.5569, 72.32420
288.0391, 72.89123
288.5212, 73.56963
289.0033, 74.37151
289.4854, 75.24085
289.9675, 76.13992
290.4496, 77.06634
290.9318, 77.94496
291.4139, 78.78015
291.8960, 79.55491
292.3781, 80.18166
292.8602, 80.66015
293.3423, 81.05475
293.8245, 81.44292
294.3066, 81.81264
294.7887, 82.10959
295.2708, 82.32755
295.7529, 82.45289
296.2350, 82.44170
296.7172, 82.29366
297.1993, 82.05998
297.6814, 81.80473
298.1635, 81.49718
298.6456, 81.04610
299.1277, 80.38126
299.6099, 79.61214
300.0920, 78.94684
300.5741, 78.35904
301.0562, 77.72210
301.5383, 76.87421
302.0204, 75.91736
302.5026, 75.06104
302.9847, 74.35606
303.4668, 73.72094
303.9489, 73.04878
304.4310, 72.36292
304.9131, 71.70056
305.3953, 71.10235
305.8774, 70.53913
306.3595, 69.95411
306.8416, 69.30901
307.3237, 68.76247
307.8058, 68.55963
308.2880, 68.57186
308.7701, 68.51143
309.2522, 68.15331
309.7343, 67.70434
310.2164, 67.36240
310.6985, 67.15022
311.1807, 66.95528
311.6628, 66.68330
312.1449, 66.38099
312.6270, 66.12724
313.1091, 65.94993
313.5912, 65.83315
314.0734, 65.78197
314.5555, 65.79659
315.0376, 65.82135
315.5197, 65.78406
316.0018, 65.75855
316.4839, 65.82202
316.9661, 66.13255
317.4482, 66.41127
317.9303, 66.52564
318.4124, 66.49291
318.8945, 66.43282
319.3766, 66.31513
319.8588, 66.22813
320.3409, 66.23992
320.8230, 66.43793
321.3051, 66.63771
321.7872, 66.86095
322.2693, 67.06036
322.7515, 67.09171
323.2336, 66.65356
323.7157, 66.24065
324.1978, 66.11823
324.6799, 66.52064
325.1620, 66.81519
325.6442, 66.93234
326.1263, 66.88786
326.6084, 66.70940
327.0905, 66.18671
327.5726, 65.72622
328.0547, 65.49428
328.5369, 65.62598
329.0190, 65.56446
329.5011, 65.19520
329.9832, 64.68001
330.4653, 64.19975
330.9474, 63.78432
331.4296, 63.36801
331.9117, 62.93697
332.3938, 62.49277
332.8759, 62.05266
333.3580, 61.60970
333.8401, 61.17272
334.3223, 60.75161
334.8044, 60.33564
335.2865, 59.95783
335.7686, 59.67801
336.2507, 59.44864
336.7328, 58.99464
337.2150, 58.17925
337.6971, 57.37505
338.1792, 56.81292
338.6613, 56.56234
339.1434, 56.29988
339.6255, 56.02045
340.1077, 55.70856
340.5898, 55.29545
341.0719, 54.75834
341.5540, 54.24584
342.0361, 53.84836
342.5182, 53.56958
343.0003, 53.26035
343.4825, 52.91242
343.9646, 52.56239
344.4467, 52.27681
344.9288, 52.06029
345.4109, 51.83565
345.8930, 51.57826
346.3752, 51.29243
346.8573, 51.00717
347.3394, 50.72094
347.8215, 50.42546
348.3036, 50.07235
348.7857, 49.68699
349.2679, 49.40409
349.7500, 49.29723
350.2321, 49.26847
350.7142, 49.14357
351.1963, 48.93014
351.6784, 48.69605
352.1606, 48.48405
352.6427, 48.28991
353.1248, 48.10597
353.6069, 47.93539
354.0890, 47.75852
354.5711, 47.54530
355.0533, 47.30781
355.5354, 47.07513
356.0175, 46.82492
356.4996, 46.61111
356.9817, 46.51687
357.4638, 46.56321
357.9460, 46.59384
358.4281, 46.49119
358.9102, 46.30370
359.3923, 46.10318
359.8744, 45.84990
360.3565, 45.64547
360.8387, 45.58327
361.3208, 45.65260
361.8029, 45.71413
362.2850, 45.69478
362.7671, 45.64467
363.2492, 45.60700
363.7314, 45.64474
364.2135, 45.63278
364.6956, 45.45614
365.1777, 45.18555
365.6598, 45.04317
366.1419, 45.24418
366.6241, 45.46273
367.1062, 45.52270
367.5883, 45.29076
368.0704, 45.16272
368.5525, 45.27569
369.0346, 45.49549
369.5168, 45.61576
369.9989, 45.50115
370.4810, 45.41771
370.9631, 45.44085
371.4452, 45.59110
371.9273, 45.68232
372.4095, 45.68273
372.8916, 45.64931
373.3737, 45.62669
373.8558, 45.60518
374.3379, 45.61464
374.8200, 45.66650
375.3022, 45.75412
375.7843, 45.85320
376.2664, 46.00357
376.7485, 46.08473
377.2306, 45.97675
377.7127, 45.62154
378.1949, 45.44737
378.6770, 45.51202
379.1591, 45.72231
379.6412, 45.93401
380.1233, 46.15766
380.6054, 46.30595
381.0876, 46.30449
381.5697, 46.18158
382.0518, 46.12982
382.5339, 46.15569
383.0160, 46.21791
383.4981, 46.29496
383.9803, 46.37755
384.4624, 46.40677
384.9445, 46.33116
385.4266, 46.22382
385.9087, 46.22032
386.3908, 46.31336
386.8730, 46.43045
387.3551, 46.50423
387.8372, 46.57062
388.3193, 46.71185
388.8014, 46.97260
389.2835, 47.21564
389.7657, 47.29827
390.2478, 47.26447
390.7299, 47.21413
391.2120, 47.16335
391.6941, 47.13934
392.1762, 47.16711
392.6584, 47.24931
393.1405, 47.36549
393.6226, 47.53026
394.1047, 47.71416
394.5868, 47.88358
395.0689, 48.06856
395.5511, 48.19793
396.0332, 48.16454
396.5153, 48.01882
396.9974, 48.03008
397.4795, 48.51139
397.9616, 48.99200
398.4438, 49.20062
398.9259, 48.89639
399.4080, 48.69508
399.8901, 48.68195
400.3722, 48.80210
400.8543, 48.95192
401.3365, 49.15552
401.8186, 49.36170
402.3007, 49.56597
402.7828, 49.77291
403.2649, 49.93795
403.7470, 50.05377
404.2292, 50.13546
404.7113, 50.19263
405.1934, 50.21966
405.6755, 50.23717
406.1576, 50.24342
406.6397, 50.24279
407.1219, 50.23936
407.6040, 50.21922
408.0861, 50.24802
408.5682, 50.39468
409.0503, 50.65355
409.5324, 50.85505
410.0146, 50.99341
410.4967, 51.06866
410.9788, 51.04834
411.4609, 50.94431
411.9430, 50.86994
412.4251, 50.88848
412.9073, 50.95928
413.3894, 50.99895
413.8715, 51.00793
414.3536, 50.99206
414.8357, 50.92428
415.3178, 50.83997
415.8000, 50.81790
416.2821, 50.91140
416.7642, 51.00108
417.2463, 50.91042
417.7284, 50.71658
418.2105, 50.62716
418.6927, 50.89886
419.1748, 51.21374
419.6569, 51.31837
420.1390, 51.17095
420.6211, 50.97847
421.1032, 50.73473
421.5854, 50.53551
422.0675, 50.48291
422.5496, 50.80708
423.0317, 51.07039
423.5138, 51.11711
423.9959, 50.97742
424.4781, 50.85707
424.9602, 50.77661
425.4423, 50.73376
425.9244, 50.73539
426.4065, 50.84329
426.8886, 50.87263
427.3708, 50.74345
427.8529, 50.56864
428.3350, 50.53727
428.8171, 50.75564
429.2992, 50.91967
429.7813, 50.92960
430.2635, 50.79173
430.7456, 50.72998
431.2277, 50.77691
431.7098, 50.83007
432.1919, 50.81067
432.6740, 50.71675
433.1562, 50.56599
433.6383, 50.33651
434.1204, 50.08699
434.6025, 49.96043
435.0846, 49.95344
435.5667, 49.92242
436.0489, 49.76447
436.5310, 49.52303
437.0131, 49.33223
437.4952, 49.19480
437.9773, 49.09118
438.4594, 49.03467
438.9415, 48.99675
439.4236, 48.91330
439.9058, 48.73877
440.3879, 48.54440
440.8700, 48.38737
441.3521, 48.26501
441.8342, 48.16692
442.3163, 48.14808
442.7985, 48.11298
443.2806, 47.96364
443.7627, 47.65539
444.2448, 47.38325
444.7269, 47.26348
445.2090, 47.21349
445.6912, 47.13645
446.1733, 46.94326
446.6554, 46.78628
447.1375, 46.73417
447.6196, 46.77452
448.1017, 46.76656
448.5839, 46.70309
449.0660, 46.58646
449.5481, 46.40993
450.0302, 46.10999
450.5123, 45.88159
450.9944, 45.74954
451.4766, 45.67528
451.9587, 45.60724
452.4408, 45.56150
452.9229, 45.47034
453.4050, 45.26986
453.8871, 44.99342
454.3693, 44.93381
454.8514, 45.13129
455.3335, 45.37244
455.8156, 45.48147
456.2977, 45.47086
456.7798, 45.47472
457.2620, 45.52265
457.7441, 45.55791
458.2262, 45.43280
458.7083, 45.19621
459.1904, 45.06729
459.6725, 45.25736
460.1547, 45.57424
460.6368, 45.74221
461.1189, 45.76335
461.6010, 45.76342
462.0831, 45.86644
462.5652, 45.98523
463.0474, 46.00026
463.5295, 45.77929
464.0116, 45.63260
464.4937, 45.78572
464.9758, 46.12882
465.4579, 46.43234
465.9401, 46.62491
466.4222, 46.76400
466.9043, 46.85925
467.3864, 46.90558
467.8685, 46.95869
468.3506, 47.01498
468.8328, 47.08636
469.3149, 47.18264
469.7970, 47.32631
470.2791, 47.45059
470.7612, 47.50685
471.2433, 47.55070
471.7255, 47.76335
472.2076, 48.23801
472.6897, 48.64398
473.1718, 48.82858
473.6539, 48.79049
474.1360, 48.82746
474.6182, 48.94894
475.1003, 49.11220
475.5824, 49.28256
476.0645, 49.46038
476.5466, 49.64307
477.0287, 49.84431
477.5109, 50.02987
477.9930, 50.12917
478.4751, 50.15678
478.9572, 50.18114
479.4393, 50.27608
479.9214, 50.37299
480.4036, 50.36922
480.8857, 50.25778
481.3678, 50.13366
481.8499, 50.04691
482.3320, 49.98693
482.8141, 49.94471
483.2963, 49.94193
483.7784, 49.92253
484.2605, 49.87856
484.7426, 49.80243
485.2247, 49.67466
485.7068, 49.49411
486.1890, 49.26048
486.6711, 48.95995
487.1532, 48.57399
487.6353, 48.20982
488.1174, 47.88613
488.5995, 47.57752
489.0817, 47.26778
489.5638, 46.96768
490.0459, 46.64232
490.5280, 46.26316
491.0101, 45.87262
491.4922, 45.59883
491.9744, 45.47393
492.4565, 45.28709
492.9386, 44.90217
493.4207, 44.35682
493.9028, 43.92796
494.3849, 43.61977
494.8671, 43.35032
495.3492, 43.05390
495.8313, 42.73275
496.3134, 42.37712
496.7955, 41.96088
497.2776, 41.56913
497.7598, 41.31219
498.2419, 41.15777
498.7240, 41.03157
499.2061, 40.97506
499.6882, 40.87322
500.1703, 40.60277
500.6525, 40.16465
501.1346, 39.76980
501.6167, 39.50579
502.0988, 39.31105
502.5809, 39.14281
503.0630, 39.01491
503.5452, 38.87648
504.0273, 38.70326
504.5094, 38.51905
504.9915, 38.37132
505.4736, 38.28772
505.9557, 38.19845
506.4379, 38.08352
506.9200, 37.94475
507.4021, 37.82830
507.8842, 37.75270
508.3663, 37.65147
508.8484, 37.45134
509.3306, 37.14876
509.8127, 36.91938
510.2948, 36.78241
510.7769, 36.70041
511.2590, 36.62896
511.7411, 36.56869
512.2233, 36.52918
512.7054, 36.55172
513.1875, 36.56515
513.6696, 36.41714
514.1517, 36.14146
514.6339, 35.92396
515.1160, 35.96150
515.5981, 36.06804
516.0802, 36.05389
516.5623, 35.86979
517.0444, 35.69873
517.5266, 35.66291
518.0087, 35.67004
518.4908, 35.61943
518.9729, 35.37144
519.4550, 35.19345
519.9371, 35.18029
520.4193, 35.29295
520.9014, 35.35902
521.3835, 35.36097
521.8656, 35.34021
522.3477, 35.31325
522.8298, 35.28324
523.3120, 35.21735
523.7941, 35.10603
524.2762, 34.98125
524.7583, 34.84904
525.2404, 34.70544
525.7225, 34.67942
526.2047, 34.82257
526.6868, 35.02881
527.1689, 35.10752
527.6510, 35.07333
528.1331, 35.02356
528.6152, 34.99358
529.0974, 34.98091
529.5795, 35.00553
530.0616, 35.06048
530.5437, 35.06747
531.0258, 34.93489
531.5079, 34.75162
531.9901, 34.59283
532.4722, 34.46516
532.9543, 34.38398
533.4364, 34.37527
533.9185, 34.40994
534.4006, 34.44826
534.8828, 34.52869
535.3649, 34.56031
535.8470, 34.48661
536.3291, 34.33482
536.8112, 34.26841
537.2933, 34.34330
537.7755, 34.41512
538.2576, 34.40269
538.7397, 34.28574
539.2218, 34.25771
539.7039, 34.34104
540.1860, 34.45141
540.6682, 34.47113
541.1503, 34.41359
541.6324, 34.44771
542.1145, 34.64324
542.5966, 34.87717
543.0787, 34.92213
543.5609, 34.82898
544.0430, 34.78658
544.5251, 34.94110
545.0072, 35.16214
545.4893, 35.31400
545.9714, 35.39910
546.4536, 35.49449
546.9357, 35.71400
547.4178, 35.91410
547.8999, 35.86214
548.3820, 36.12839
548.8641, 36.33752
549.3463, 36.49268
549.8284, 36.43195
550.3105, 36.64993
550.7926, 36.75623
551.2747, 36.85795
551.7568, 37.11516
552.2390, 37.08587
552.7211, 37.34063
553.2032, 37.48197
553.6853, 37.67523
554.1674, 37.71403
554.6495, 37.78268
555.1317, 37.98814
555.6138, 38.34263
556.0959, 38.71431
556.5780, 38.97513
557.0601, 39.15289
557.5422, 39.31411
558.0244, 39.46020
558.5065, 39.62757
558.9886, 39.82773
559.4707, 40.07726
559.9528, 40.40400
560.4349, 40.91602
560.9171, 41.42362
561.3992, 41.78543
561.8813, 42.03041
562.3634, 42.35835
562.8455, 42.89791
563.3276, 43.47165
563.8098, 43.83146
564.2919, 44.21516
564.7740, 44.54180
565.2561, 44.81441
565.7382, 44.87118
566.2203, 45.20663
566.7025, 45.43048
567.1846, 45.64965
567.6667, 46.02437
568.1488, 46.11252
568.6309, 46.48477
569.1130, 46.74358
569.5952, 47.05439
570.0773, 47.25271
570.5594, 47.48578
571.0415, 47.65418
571.5236, 47.73465
572.0057, 47.79487
572.4879, 47.85348
572.9700, 47.93505
573.4521, 48.07738
573.9342, 48.30040
574.4163, 48.50943
574.8984, 48.63062
575.3806, 48.72948
575.8627, 48.87413
576.3448, 49.13036
576.8269, 49.36717
577.3090, 49.60883
577.7911, 49.81633
578.2733, 49.88769
578.7554, 49.73442
579.2375, 49.62108
579.7196, 49.65249
580.2017, 49.80376
580.6838, 49.82710
581.1660, 49.70321
581.6481, 49.56994
582.1302, 49.55598
582.6123, 49.62302
583.0944, 49.60096
583.5765, 49.47173
584.0587, 49.31565
584.5408, 49.20740
585.0229, 49.13045
585.5050, 49.05320
585.9871, 48.94507
586.4692, 48.86874
586.9513, 48.90131
587.4334, 48.99023
587.9155, 49.02561
588.3976, 48.91469
588.8798, 48.80318
589.3619, 48.77914
589.8440, 48.83914
590.3261, 48.74155
590.8082, 48.35217
591.2903, 47.98167
591.7725, 47.83154
592.2546, 47.98287
592.7367, 47.84596
593.2188, 47.35729
593.7009, 46.74478
594.1830, 46.26171
594.6652, 45.89558
595.1473, 45.48296
595.6294, 44.98948
596.1115, 44.44869
596.5936, 43.89464
597.0757, 43.32880
597.5579, 42.75020
598.0400, 42.13350
598.5221, 41.53956
599.0042, 41.03437
599.4863, 40.60073
599.9684, 40.15075
600.4506, 39.58268
600.9327, 39.05315
601.4148, 38.64799
601.8969, 38.40488
602.3790, 38.17707
602.8611, 38.02358
603.3433, 37.82120
603.8254, 37.44749
604.3075, 36.81950
604.7896, 36.34616
605.2717, 36.08310
605.7538, 35.92168
606.2360, 35.69882
606.7181, 35.41849
607.2002, 35.14958
607.6823, 34.90007
608.1644, 34.68536
608.6465, 34.55291
609.1287, 34.48389
609.6108, 34.41124
610.0929, 34.31181
610.5750, 34.18354
611.0571, 33.98941
611.5392, 33.73400
612.0214, 33.55622
612.5035, 33.53859
612.9856, 33.58657
613.4677, 33.65763
613.9498, 33.80761
614.4319, 33.82508
614.9141, 33.61718
615.3962, 33.36143
615.8783, 33.25496
616.3604, 33.33286
616.8425, 33.40139
617.3246, 33.44112
617.8068, 33.44667
618.2889, 33.39520
618.7710, 33.29239
619.2531, 33.18180
619.7352, 33.03702
620.2173, 32.92697
620.6995, 32.99209
621.1816, 33.19981
621.6637, 33.38607
622.1458, 33.43794
622.6279, 33.45307
623.1100, 33.49434
623.5922, 33.56772
624.0743, 33.66642
624.5564, 33.82709
625.0385, 33.98598
625.5206, 34.09800
626.0027, 34.14436
626.4849, 34.17554
626.9670, 34.14968
627.4491, 34.15430
627.9312, 34.33247
628.4133, 34.70871
628.8954, 35.02710
629.3776, 35.21613
629.8597, 35.34837
630.3418, 35.59794
630.8239, 35.92774
631.3060, 36.16155
631.7881, 36.10664
632.2703, 35.98456
632.7524, 36.03925
633.2345, 36.24630
633.7166, 36.47840
634.1987, 36.71378
634.6808, 36.92115
635.1630, 37.06199
635.6451, 37.11444
636.1272, 37.23161
636.6093, 37.49617
637.0914, 37.77360
637.5735, 37.96732
638.0557, 38.02791
638.5378, 38.17573
639.0199, 38.45091
639.5020, 38.74885
639.9841, 38.89859
640.4662, 38.91285
640.9484, 39.01762
641.4305, 39.29369
641.9126, 39.62114
642.3947, 39.85287
642.8768, 39.99939
643.3589, 40.09702
643.8411, 40.11863
644.3232, 40.13341
644.8053, 40.19721
645.2874, 40.29848
645.7695, 40.38461
646.2516, 40.43991
646.7338, 40.47552
647.2159, 40.51019
647.6980, 40.55323
648.1801, 40.49583
648.6622, 40.28377
649.1443, 40.05492
649.6265, 39.90593
650.1086, 39.84239
650.5907, 39.76080
651.0728, 39.65939
651.5549, 39.53008
652.0370, 39.34075
652.5192, 39.11340
653.0013, 38.92562
653.4834, 38.80397
653.9655, 38.69827
654.4476, 38.56719
654.9297, 38.42255
655.4119, 38.28201
655.8940, 38.13536
656.3761, 38.01220
656.8582, 37.95734
657.3403, 37.94025
657.8224, 37.84685
658.3046, 37.61094
658.7867, 37.38619
659.2688, 37.20243
659.7509, 37.06237
660.2330, 37.02378
660.7151, 37.10983
661.1973, 37.17282
661.6794, 37.08098
662.1615, 36.88650
662.6436, 36.80194
663.1257, 36.83565
663.6078, 36.86979
664.0900, 36.79468
664.5721, 36.66970
665.0542, 36.55765
665.5363, 36.46194
666.0184, 36.41393
666.5005, 36.48307
666.9827, 36.58213
667.4648, 36.62045
667.9469, 36.48893
668.4290, 36.42834
668.9111, 36.47889
669.3932, 36.58551
669.8754, 36.63755
670.3575, 36.61326
670.8396, 36.64978
671.3217, 36.79078
671.8038, 37.00355
672.2859, 37.26838
672.7681, 37.55806
673.2502, 37.72721
673.7323, 37.57125
674.2144, 37.33445
674.6965, 37.31663
675.1786, 37.48234
675.6608, 37.62093
676.1429, 37.57473
676.6250, 37.51733
677.1071, 37.55154
677.5892, 37.70207
678.0714, 37.83833
678.5535, 37.98461
679.0356, 38.08376
679.5177, 38.08351
679.9998, 37.95336
680.4819, 37.89241
680.9641, 37.91959
681.4462, 37.95659
681.9283, 37.90893
682.4104, 37.79658
682.8925, 37.70419
683.3746, 37.65293
683.8568, 37.60247
684.3389, 37.54692
684.8210, 37.45669
685.3031, 37.28136
685.7852, 36.86686
686.2673, 36.52820
686.7495, 36.43476
687.2316, 36.48544
687.7137, 36.44550
688.1958, 36.26571
688.6779, 36.05239
689.1600, 35.81098
689.6422, 35.55241
690.1243, 35.32029
690.6064, 35.11490
691.0885, 34.91729
691.5706, 34.74622
692.0527, 34.56804
692.5349, 34.25288
693.0170, 33.81960
693.4991, 33.41816
693.9812, 33.17828
694.4633, 32.99527
694.9454, 32.76590
695.4276, 32.48129
695.9097, 32.24548
696.3918, 32.14921
696.8739, 32.07129
697.3560, 31.93197
697.8381, 31.70912
698.3203, 31.48828
698.8024, 31.24987
699.2845, 31.04188
699.7666, 30.93674
700.2487, 30.93229
700.7308, 30.86596
701.2130, 30.71313
701.6951, 30.52323
702.1772, 30.33965
702.6593, 30.16596
703.1414, 30.01350
703.6235, 29.88830
704.1057, 29.77760
704.5878, 29.70892
705.0699, 29.64183
705.5520, 29.51087
706.0341, 29.16926
706.5162, 28.92240
706.9984, 28.86269
707.4805, 28.92022
707.9626, 28.91814
708.4447, 28.84172
708.9268, 28.75439
709.4089, 28.67796
709.8911, 28.60349
710.3732, 28.50756
710.8553, 28.38972
711.3374, 28.25298
711.8195, 28.02978
712.3016, 27.83193
712.7838, 27.83455
713.2659, 28.00961
713.7480, 28.14051
714.2301, 28.08941
714.7122, 27.99802
715.1943, 27.95030
715.6765, 27.96383
716.1586, 27.91564
716.6407, 27.74816
717.1228, 27.59811
717.6049, 27.56707
718.0870, 27.67237
718.5692, 27.67659
719.0513, 27.56589
719.5334, 27.43616
720.0155, 27.38950
720.4976, 27.38887
720.9797, 27.34012
721.4619, 27.22127
721.9440, 27.11683
722.4261, 27.11026
722.9082, 27.14185
723.3903, 27.15343
723.8724, 27.14837
724.3546, 27.09367
724.8367, 26.90160
725.3188, 26.70763
725.8009, 26.67680
726.2830, 26.87251
726.7651, 27.02142
727.2473, 27.09299
727.7294, 27.10108
728.2115, 27.04824
728.6936, 26.94543
729.1757, 26.85830
729.6578, 26.81643
730.1400, 26.78465
730.6221, 26.71673
731.1042, 26.63123
731.5863, 26.56820
732.0684, 26.58188
732.5505, 26.57978
733.0327, 26.49710
733.5148, 26.36802
733.9969, 26.32971
734.4790, 26.43778
734.9611, 26.53111
735.4432, 26.56843
735.9254, 26.55495
736.4075, 26.49775
736.8896, 26.39679
737.3717, 26.30606
737.8538, 26.25033
738.3359, 26.22638
738.8181, 26.24378
739.3002, 26.29505
739.7823, 26.33753
740.2644, 26.35072
740.7465, 26.34501
741.2286, 26.32226
741.7108, 26.28194
742.1929, 26.24088
742.6750, 26.19639
743.1571, 26.15620
743.6392, 26.12078
744.1213, 26.08979
744.6035, 26.08967
745.0856, 26.12617
745.5677, 26.15853
746.0498, 26.13325
746.5319, 26.08352
747.0140, 26.10440
747.4962, 26.20764
747.9783, 26.26575
748.4604, 26.13156
748.9425, 25.95017
749.4246, 25.85556
749.9067, 25.90021
750.3889, 25.93220
750.8710, 25.92030
751.3531, 25.89992
751.8352, 25.90303
752.3173, 25.94292
752.7994, 25.93393
753.2816, 25.85744
753.7637, 25.77613
754.2458, 25.77488
754.7279, 25.82737
755.2100, 25.84925
755.6921, 25.81812
756.1743, 25.78040
756.6564, 25.77977
757.1385, 25.79277
757.6206, 25.79171
758.1027, 25.77714
758.5848, 25.73783
759.0670, 25.63409
759.5491, 25.52680
760.0312, 25.49454
760.5133, 25.56301
760.9954, 25.62055
761.4775, 25.66073
761.9597, 25.66853
762.4418, 25.58815
762.9239, 25.44590
763.4060, 25.35699
763.8881, 25.37274
764.3702, 25.42266
764.8524, 25.46591
765.3345, 25.49329
765.8166, 25.48860
766.2987, 25.38453
766.7808, 25.32030
767.2629, 25.37300
767.7451, 25.47289
768.2272, 25.46700
768.7093, 25.30221
769.1914, 25.21882
769.6735, 25.30093
770.1556, 25.46330
770.6378, 25.52529
771.1199, 25.49926
771.6020, 25.44547
772.0841, 25.35548
772.5662, 25.28538
773.0483, 25.30677
773.5305, 25.38892
774.0126, 25.45286
774.4947, 25.48159
774.9768, 25.47751
775.4589, 25.41443
775.9410, 25.31825
776.4232, 25.28110
776.9053, 25.30872
777.3874, 25.38161
777.8695, 25.53096
778.3516, 25.69461
778.8337, 25.66145
779.3159, 25.46477
779.7980, 25.30180
780.2801, 25.33759
780.7622, 25.40993
781.2443, 25.35038
781.7264, 25.19780
782.2086, 25.11985
782.6907, 25.25055
783.1728, 25.37625
783.6549, 25.43371
784.1370, 25.42778
784.6191, 25.37547
785.1012, 25.26330
785.5833, 25.16474
786.0654, 25.10821
786.5475, 25.09167
787.0297, 25.12324
787.5118, 25.19676
787.9939, 25.26722
788.4760, 25.33932
788.9581, 25.37441
789.4402, 25.30321
789.9224, 25.14491
790.4045, 25.06044
790.8866, 25.16148
791.3687, 25.26258
791.8508, 25.29314
792.3329, 25.26266
792.8151, 25.28403
793.2972, 25.36960
793.7793, 25.43013
794.2614, 25.37314
794.7435, 25.26697
795.2256, 25.31487
795.7078, 25.48982
796.1899, 25.62255
796.6720, 25.56825
797.1541, 25.47658
797.6362, 25.45541
798.1183, 25.50602
798.6005, 25.52175
799.0826, 25.46467
799.5647, 25.40843
800.0468, 25.38305
800.5289, 25.38491
801.0110, 25.36361
801.4932, 25.31597
801.9753, 25.29328
802.4574, 25.36090
802.9395, 25.45925
803.4216, 25.47698
803.9037, 25.42351
804.3859, 25.37639
804.8680, 25.41232
805.3501, 25.43332
805.8322, 25.34641
806.3143, 25.14836
806.7964, 25.10312
807.2786, 25.29975
807.7607, 25.48083
808.2428, 25.51905
808.7249, 25.44298
809.2070, 25.43266
809.6891, 25.48609
810.1713, 25.54526
810.6534, 25.57837
811.1355, 25.59348
811.6176, 25.59953
812.0997, 25.59652
812.5818, 25.58005
813.0640, 25.53531
813.5461, 25.49037
814.0282, 25.45688
814.5103, 25.43453
814.9924, 25.40936
815.4745, 25.36388
815.9567, 25.37789
816.4388, 25.54145
816.9209, 25.77991
817.4030, 25.81538
817.8851, 25.67475
818.3672, 25.55702
818.8494, 25.61622
819.3315, 25.71692
819.8136, 25.75910
820.2957, 25.74628
820.7778, 25.73621
821.2599, 25.75370
821.7421, 25.75905
822.2242, 25.73726
822.7063, 25.69342
823.1884, 25.65896
823.6705, 25.63552
824.1526, 25.60630
824.6348, 25.53909
825.1169, 25.47693
825.5990, 25.52488
826.0811, 25.65101
826.5632, 25.73496
827.0453, 25.66276
827.5275, 25.58880
828.0096, 25.59488
828.4917, 25.66940
828.9738, 25.72381
829.4559, 25.75188
829.9380, 25.76983
830.4202, 25.77686
830.9023, 25.78050
831.3844, 25.82157
831.8665, 25.89028
832.3486, 25.91409
832.8307, 25.80088
833.3129, 25.68111
833.7950, 25.68790
834.2771, 25.78666
834.7592, 25.88762
835.2413, 25.99936
835.7234, 26.06763
836.2056, 26.07305
836.6877, 26.03245
837.1698, 25.97280
837.6519, 25.88354
838.1340, 25.86635
838.6161, 25.98102
839.0983, 26.13247
839.5804, 26.13780
840.0625, 26.04640
840.5446, 25.98781
841.0267, 26.01363
841.5089, 26.08492
841.9910, 26.24000
842.4731, 26.41537
842.9552, 26.48285
843.4373, 26.36334
843.9194, 26.29553
844.4016, 26.32756
844.8837, 26.40102
845.3658, 26.41267
845.8479, 26.37150
846.3300, 26.32636
846.8121, 26.28456
847.2943, 26.25812
847.7764, 26.24914
848.2585, 26.26657
848.7406, 26.32412
849.2227, 26.46948
849.7048, 26.58860
850.1870, 26.67441
850.6691, 26.72289
851.1512, 26.71281
851.6333, 26.63026
852.1154, 26.60263
852.5975, 26.64896
853.0797, 26.72564
853.5618, 26.79411
854.0439, 26.85444
854.5260, 26.91343
855.0081, 26.97970
855.4902, 27.00740
855.9724, 26.91047
856.4545, 26.80694
856.9366, 26.80505
857.4187, 26.94018
857.9008, 27.06792
858.3829, 27.19112
858.8651, 27.29853
859.3472, 27.35484
859.8293, 27.38458
860.3114, 27.52806
860.7935, 27.79529
861.2756, 27.97660
861.7578, 27.80642
862.2399, 27.56804
862.7220, 27.48902
863.2041, 27.60638
863.6862, 27.78581
864.1683, 28.08095
864.6505, 28.32792
865.1326, 28.42943
865.6147, 28.39814
866.0968, 28.36364
866.5789, 28.32551
867.0610, 28.34956
867.5432, 28.55369
868.0253, 28.79533
868.5074, 28.89517
868.9895, 28.87328
869.4716, 28.86576
869.9537, 28.90702
870.4359, 28.98813
870.9180, 29.11425
871.4001, 29.27614
871.8822, 29.42265
872.3643, 29.54717
872.8464, 29.71073
873.3286, 29.96509
873.8107, 30.24408
874.2928, 30.42486
874.7749, 30.53209
875.2570, 30.63228
875.7391, 30.74259
876.2213, 30.86762
876.7034, 31.00733
877.1855, 31.16441
877.6676, 31.34606
878.1497, 31.56945
878.6318, 31.76397
879.1140, 31.90749
879.5961, 32.03412
880.0782, 32.20331
880.5603, 32.40530
881.0424, 32.60320
881.5245, 32.77413
882.0067, 32.97592
882.4888, 33.29900
882.9709, 33.65065
883.4530, 33.92550
883.9351, 34.04559
884.4172, 34.19594
884.8994, 34.35672
885.3815, 34.58095
885.8636, 34.98108
886.3457, 35.51686
886.8278, 35.85142
887.3099, 35.94399
887.7921, 36.03790
888.2742, 36.38233
888.7563, 36.79621
889.2384, 37.07772
889.7205, 37.17860
890.2026, 37.37350
890.6848, 37.73830
891.1669, 38.15067
891.6490, 38.55859
892.1311, 38.96241
892.6132, 39.35866
893.0953, 39.74417
893.5775, 40.07131
894.0596, 40.24174
894.5417, 40.38155
895.0238, 40.67350
895.5059, 41.08257
895.9880, 41.41632
896.4702, 41.51862
896.9523, 41.65193
897.4344, 41.93279
897.9165, 42.29272
898.3986, 42.45451
898.8807, 42.40378
899.3629, 42.43725
899.8450, 42.68139
900.3271, 43.00789
900.8092, 43.29336
901.2913, 43.52009
901.7734, 43.65236
902.2556, 43.55146
902.7377, 43.52093
903.2198, 43.72398
903.7019, 43.99419
904.1840, 44.15215
904.6661, 44.19213
905.1483, 44.12041
905.6304, 43.91040
906.1125, 43.68841
906.5946, 43.59907
907.0767, 43.59716
907.5588, 43.62756
908.0410, 43.69544
908.5231, 43.68397
909.0052, 43.44476
909.4873, 43.18161
909.9694, 43.05094
910.4515, 43.07999
910.9337, 43.00445
911.4158, 42.80690
911.8979, 42.58381
912.3800, 42.40628
912.8621, 42.24861
913.3442, 42.05904
913.8264, 41.83790
914.3085, 41.60331
914.7906, 41.30210
915.2727, 41.05222
915.7548, 40.94902
916.2369, 40.95393
916.7191, 40.91172
917.2012, 40.83328
917.6833, 40.65432
918.1654, 40.30303
918.6475, 39.91966
919.1296, 39.80149
919.6118, 39.87283
920.0939, 39.92788
920.5760, 39.89371
921.0581, 39.82172
921.5402, 39.71088
922.0223, 39.58586
922.5045, 39.47407
922.9866, 39.35939
923.4687, 39.30808
923.9508, 39.33498
924.4329, 39.39181
924.9150, 39.44217
925.3972, 39.47617
925.8793, 39.45370
926.3614, 39.36578
926.8435, 39.29957
927.3256, 39.29525
927.8077, 39.33850
928.2899, 39.43447
928.7720, 39.58447
929.2541, 39.71780
929.7362, 39.83950
930.2183, 39.92880
930.7004, 39.94210
931.1826, 39.93054
931.6647, 40.04179
932.1468, 40.25293
932.6289, 40.46463
933.1110, 40.65419
933.5931, 40.80562
934.0753, 40.87151
934.5574, 40.89841
935.0395, 41.00677
935.5216, 41.20655
936.0037, 41.46952
936.4858, 41.81237
936.9680, 42.17601
937.4501, 42.45701
937.9322, 42.69083
938.4143, 42.95920
938.8964, 43.29964
939.3785, 43.62930
939.8607, 43.84958
940.3428, 44.07710
940.8249, 44.42255
941.3070, 44.92653
941.7891, 45.36126
942.2712, 45.70781
942.7534, 46.05146
943.2355, 46.43500
943.7176, 46.87537
944.1997, 47.45870
944.6818, 48.16434
945.1639, 48.83245
945.6461, 49.39034
946.1282, 49.87470
946.6103, 50.28325
947.0924, 50.63238
947.5745, 50.97017
948.0566, 51.29465
948.5388, 51.61404
949.0209, 51.91617
949.5030, 52.24017
949.9851, 52.72899
950.4672, 53.27758
950.9493, 53.64833
951.4315, 53.64293
951.9136, 53.66258
952.3957, 53.93283
952.8778, 54.20918
953.3599, 54.22379
953.8420, 53.91721
954.3242, 53.80398
954.8063, 53.93136
955.2884, 54.08655
955.7705, 54.13664
956.2526, 54.06197
956.7347, 53.79842
957.2169, 53.34597
957.6990, 52.88690
958.1811, 52.43704
958.6632, 52.04180
959.1453, 51.71451
959.6274, 51.44863
960.1096, 51.22620
960.5917, 51.04588
961.0738, 50.84776
961.5559, 50.60549
962.0380, 50.33202
962.5201, 50.02527
963.0023, 49.69920
963.4844, 49.37369
963.9665, 49.00356
964.4486, 48.71054
964.9307, 48.51736
965.4128, 48.38141
965.8950, 48.26270
966.3771, 48.16075
966.8592, 48.06907
967.3413, 47.98929
967.8234, 47.89883
968.3055, 47.72813
968.7877, 47.57581
969.2698, 47.55340
969.7519, 47.68182
970.2340, 47.75801
970.7161, 47.75589
971.1982, 47.73410
971.6804, 47.70403
972.1625, 47.67916
972.6446, 47.72469
973.1267, 47.82063
973.6088, 47.87437
974.0909, 47.76308
974.5731, 47.69468
975.0552, 47.82286
975.5373, 48.05652
976.0194, 48.24148
976.5015, 48.34911
976.9836, 48.45749
977.4658, 48.55513
977.9479, 48.70184
978.4300, 48.99748
978.9121, 49.38170
979.3942, 49.73470
979.8763, 50.03973
980.3585, 50.33331
980.8406, 50.55536
981.3227, 50.84297
981.8048, 51.31615
982.2869, 51.94270
982.7690, 52.37599
983.2511, 52.59244
983.7332, 52.85144
984.2153, 53.27985
984.6974, 53.79522
985.1796, 54.29164
985.6617, 54.79412
986.1438, 55.34336
986.6259, 56.05612
987.1080, 56.67085
987.5901, 57.06679
988.0723, 57.44815
988.5544, 58.05679
989.0365, 58.88524
989.5186, 59.71710
990.0007, 60.54002
990.4828, 61.33681
990.9650, 62.05226
991.4471, 62.77620
991.9292, 63.63271
992.4113, 64.62191
992.8934, 65.45769
993.3755, 66.00520
993.8577, 66.65757
994.3398, 67.60754
994.8219, 68.69331
995.3040, 69.41396
995.7861, 69.87701
996.2682, 70.51942
996.7504, 71.65916
997.2325, 72.74413
997.7146, 73.45021
998.1967, 73.95186
998.6788, 74.47916
999.1609, 75.04508
999.6431, 75.62935
1000.125, 76.23839
1000.607, 76.78877
1001.089, 77.15134
1001.572, 77.42017
1002.054, 77.79161
1002.536, 78.24814
1003.018, 78.54941
1003.500, 78.56141
1003.982, 78.42481
1004.464, 78.16180
1004.946, 77.80145
1005.428, 77.45919
1005.911, 77.12704
1006.393, 76.67480
1006.875, 76.02176
1007.357, 75.33422
1007.839, 74.81599
1008.321, 74.32169
1008.803, 73.65502
1009.285, 72.69484
1009.768, 71.77762
1010.250, 70.94730
1010.732, 70.05592
1011.214, 68.93636
1011.696, 67.66894
1012.178, 66.63171
1012.660, 65.79796
1013.142, 64.94830
1013.624, 63.89425
1014.107, 62.87063
1014.589, 62.05315
1015.071, 61.34385
1015.553, 60.54135
1016.035, 59.62304
1016.517, 58.74404
1016.999, 57.93146
1017.481, 57.17765
1017.964, 56.48002
1018.446, 55.84754
1018.928, 55.29774
1019.410, 54.85040
1019.892, 54.38261
1020.374, 53.83810
1020.856, 53.30479
1021.338, 52.80817
1021.820, 52.35521
1022.303, 52.02081
1022.785, 51.78936
1023.267, 51.56231
1023.749, 51.25242
1024.231, 50.97215
1024.713, 50.81103
1025.195, 50.72557
1025.677, 50.64085
1026.160, 50.55608
1026.642, 50.45218
1027.124, 50.31188
1027.606, 50.20873
1028.088, 50.23010
1028.570, 50.33961
1029.052, 50.47154
1029.534, 50.62041
1030.016, 50.80803
1030.499, 51.09001
1030.981, 51.35649
1031.463, 51.53600
1031.945, 51.68207
1032.427, 52.00558
1032.909, 52.49287
1033.391, 52.95889
1033.873, 53.34283
1034.355, 53.68607
1034.838, 54.03070
1035.320, 54.35816
1035.802, 54.60589
1036.284, 54.61811
1036.766, 55.07543
1037.248, 56.13652
1037.730, 57.19450
1038.212, 57.73379
1038.695, 57.97480
1039.177, 58.46671
1039.659, 59.16302
1040.141, 59.83998
1040.623, 60.34511
1041.105, 60.87332
1041.587, 61.48055
1042.069, 62.15356
1042.552, 62.88714
1043.034, 63.67805
1043.516, 64.56420
1043.998, 65.57727
1044.480, 66.53854
1044.962, 67.24082
1045.444, 67.87498
1045.926, 68.64890
1046.408, 69.59598
1046.891, 70.41080
1047.373, 71.01550
1047.855, 71.66720
1048.337, 72.49528
1048.819, 73.38690
1049.301, 74.06999
1049.783, 74.62360
1050.265, 75.26192
1050.747, 76.12534
1051.230, 76.93820
1051.712, 77.66679
1052.194, 78.25104
1052.676, 78.61057
1053.158, 78.73454
1053.640, 78.90600
1054.122, 79.12447
1054.604, 79.38123
1055.087, 79.76593
1055.569, 80.09946
1056.051, 80.22808
1056.533, 80.18400
1057.015, 80.08597
1057.497, 79.94776
1057.979, 79.73822
1058.461, 79.41719
1058.943, 79.12580
1059.426, 79.19459
1059.908, 79.38138
1060.390, 79.13960
1060.872, 78.36888
1061.354, 77.71935
1061.836, 77.58452
1062.318, 77.47887
1062.800, 77.23795
1063.282, 76.86756
1063.765, 76.36307
1064.247, 75.72980
1064.729, 75.05363
1065.211, 74.36877
1065.693, 73.62657
1066.175, 72.72430
1066.657, 71.78206
1067.139, 70.94336
1067.622, 70.29195
1068.104, 69.40618
1068.586, 68.26308
1069.068, 67.04884
1069.550, 65.87023
1070.032, 64.71976
1070.514, 63.55782
1070.996, 62.41026
1071.479, 61.34078
1071.961, 60.44728
1072.443, 59.53406
1072.925, 58.57851
1073.407, 57.57726
1073.889, 56.44347
1074.371, 55.24953
1074.853, 54.22690
1075.335, 53.41098
1075.818, 52.64776
1076.300, 51.87040
1076.782, 51.10317
1077.264, 50.34541
1077.746, 49.60732
1078.228, 49.00686
1078.710, 48.54987
1079.192, 48.06675
1079.674, 47.48957
1080.157, 46.93089
1080.639, 46.51961
1081.121, 46.18551
1081.603, 45.84940
1082.085, 45.49376
1082.567, 45.13186
1083.049, 44.76213
1083.531, 44.38999
1084.013, 43.97844
1084.496, 43.58685
1084.978, 43.37336
1085.460, 43.29536
1085.942, 43.22621
1086.424, 43.12107
1086.906, 43.01071
1087.388, 42.86969
1087.870, 42.75948
1088.353, 42.76411
1088.835, 42.87015
1089.317, 42.94112
1089.799, 42.97122
1090.281, 42.98022
1090.763, 42.89851
1091.245, 42.88015
1091.727, 43.06681
1092.209, 43.38931
1092.692, 43.62630
1093.174, 43.75553
1093.656, 43.98321
1094.138, 44.35845
1094.620, 44.78266
1095.102, 45.15595
1095.584, 45.51414
1096.066, 45.90660
1096.548, 46.33973
1097.031, 46.73674
1097.513, 47.06301
1097.995, 47.41850
1098.477, 47.83708
1098.959, 48.31115
1099.441, 48.82931
1099.923, 49.38703
1100.405, 50.01082
1100.888, 50.77800
1101.370, 51.43546
1101.852, 51.78484
1102.334, 52.15336
1102.816, 52.78416
1103.298, 53.62880
1103.780, 54.35553
1104.262, 54.96483
1104.745, 55.48158
1105.227, 55.87992
1105.709, 56.23900
1106.191, 56.60292
1106.673, 56.95251
1107.155, 57.29586
1107.637, 57.66622
1108.119, 57.71535
1108.601, 57.40912
1109.083, 57.01068
1109.566, 56.73657
1110.048, 56.46717
1110.530, 56.11469
1111.012, 55.66600
1111.494, 55.09082
1111.976, 54.38277
1112.458, 53.58566
1112.940, 52.69115
1113.423, 51.73899
1113.905, 50.72636
1114.387, 49.69424
1114.869, 48.72334
1115.351, 47.81315
1115.833, 46.91064
1116.315, 45.97866
1116.797, 45.09011
1117.280, 44.24712
1117.762, 43.47424
1118.244, 42.85324
1118.726, 42.34937
1119.208, 41.71853
1119.690, 39.48380
1120.172, 39.25158
1120.654, 38.96227
1121.136, 38.61901
1121.619, 38.05908
1122.101, 37.77870
1122.583, 37.38652
1123.065, 36.98986
1123.547, 36.74861
1124.029, 36.22080
1124.511, 35.97718
1124.993, 36.64137
1125.475, 36.26572
1125.958, 35.92243
1126.440, 35.60690
1126.922, 35.35967
1127.404, 35.18655
1127.886, 34.99257
1128.368, 34.63702
1128.850, 34.28854
1129.332, 34.13757
1129.815, 34.12607
1130.297, 34.06785
1130.779, 33.95892
1131.261, 33.76705
1131.743, 33.46712
1132.225, 33.17204
1132.707, 33.01166
1133.189, 32.92768
1133.672, 32.83941
1134.154, 32.74200
1134.636, 32.65367
1135.118, 32.60937
1135.600, 32.51497
1136.082, 32.33245
1136.564, 32.12339
1137.046, 31.96431
1137.528, 31.85942
1138.010, 31.84491
1138.493, 31.93934
1138.975, 31.96139
1139.457, 31.75645
1139.939, 31.56758
1140.421, 31.48750
1140.903, 31.48186
1141.385, 31.46569
1141.867, 31.43231
1142.350, 31.34441
1142.832, 31.16316
1143.314, 31.01510
1143.796, 30.96121
1144.278, 30.97341
1144.760, 31.06005
1145.242, 31.20538
1145.724, 31.19498
1146.207, 31.04407
1146.689, 30.89419
1147.171, 30.82434
1147.653, 30.75687
1148.135, 30.60442
1148.617, 30.45406
1149.099, 30.41600
1149.581, 30.52048
1150.063, 30.54163
1150.546, 30.47873
1151.028, 30.37902
1151.510, 30.22000
1151.992, 30.09089
1152.474, 30.08730
1152.956, 30.16398
1153.438, 30.23228
1153.920, 30.30372
1154.402, 30.29076
1154.885, 30.17478
1155.367, 30.06513
1155.849, 30.08423
1156.331, 30.14558
1156.813, 30.14526
1157.295, 30.09678
1157.777, 30.09331
1158.259, 30.21181
1158.742, 30.17278
1159.224, 29.89752
1159.706, 29.59428
1160.188, 29.51550
1160.670, 29.56126
1161.152, 29.61908
1161.634, 29.67211
1162.116, 29.63385
1162.599, 29.40478
1163.081, 29.25972
1163.563, 29.28068
1164.045, 29.37307
1164.527, 29.39672
1165.009, 29.37638
1165.491, 29.37503
1165.973, 29.41014
1166.455, 29.35822
1166.938, 29.06780
1167.420, 28.87810
1167.902, 28.94396
1168.384, 29.13051
1168.866, 29.13172
1169.348, 28.99613
1169.830, 28.84814
1170.312, 28.71003
1170.794, 28.58978
1171.277, 28.45314
1171.759, 28.38859
1172.241, 28.48715
1172.723, 28.67109
1173.205, 28.60915
1173.687, 28.36930
1174.169, 28.19812
1174.651, 28.20380
1175.134, 28.24306
1175.616, 28.28469
1176.098, 28.31826
1176.580, 28.35091
1177.062, 28.37283
1177.544, 28.27592
1178.026, 28.08512
1178.508, 27.93696
1178.990, 27.92412
1179.473, 27.93289
1179.955, 27.93952
1180.437, 27.92401
1180.919, 27.85122
1181.401, 27.72345
1181.883, 27.69217
1182.365, 27.74327
1182.847, 27.72742
1183.329, 27.45021
1183.812, 27.20488
1184.294, 27.19836
1184.776, 27.28067
1185.258, 27.26408
1185.740, 27.14632
1186.222, 27.03538
1186.704, 26.93715
1187.186, 26.87720
1187.669, 26.91706
1188.151, 26.95437
1188.633, 26.91059
1189.115, 26.82649
1189.597, 26.76910
1190.079, 26.73790
1190.561, 26.74468
1191.043, 26.79097
1191.526, 26.84914
1192.008, 26.93663
1192.490, 26.98952
1192.972, 26.95196
1193.454, 26.84379
1193.936, 26.70402
1194.418, 26.52637
1194.900, 26.42838
1195.382, 26.43579
1195.865, 26.43125
1196.347, 26.25368
1196.829, 26.07979
1197.311, 26.07501
1197.793, 26.19529
1198.275, 26.24913
1198.757, 26.23333
1199.239, 26.20862
1199.721, 26.19301
1200.204, 26.13592
1200.686, 25.88545
1201.168, 25.65985
1201.650, 25.71829
1202.132, 26.00319
1202.614, 26.04879
1203.096, 25.83233
1203.578, 25.72770
1204.061, 25.85911
1204.543, 26.01312
1205.025, 25.98465
1205.507, 25.88286
1205.989, 25.80629
1206.471, 25.75705
1206.953, 25.68946
1207.435, 25.59966
1207.917, 25.53884
1208.400, 25.52961
1208.882, 25.53620
1209.364, 25.52213
1209.846, 25.50802
1210.328, 25.53204
1210.810, 25.59317
1211.292, 25.56446
1211.774, 25.43985
1212.256, 25.34037
1212.739, 25.31474
1213.221, 25.32365
1213.703, 25.38130
1214.185, 25.42038
1214.667, 25.34830
1215.149, 25.16064
1215.631, 25.01423
1216.113, 24.90919
1216.596, 24.85159
1217.078, 24.86300
1217.560, 24.88944
1218.042, 24.88083
1218.524, 24.86268
1219.006, 24.86887
1219.488, 24.90343
1219.970, 24.90588
1220.453, 24.87513
1220.935, 24.84844
1221.417, 24.84312
1221.899, 24.85080
1222.381, 24.87005
1222.863, 24.89569
1223.345, 24.92782
1223.827, 24.97161
1224.309, 24.95825
1224.792, 24.88783
1225.274, 24.81358
1225.756, 24.77303
1226.238, 24.72855
1226.720, 24.63895
1227.202, 24.54001
1227.684, 24.47999
1228.166, 24.46577
1228.648, 24.41429
1229.131, 24.32805
1229.613, 24.26415
1230.095, 24.28124
1230.577, 24.30356
1231.059, 24.31098
1231.541, 24.27868
1232.023, 24.14697
1232.505, 23.90268
1232.988, 23.88862
1233.470, 24.08792
1233.952, 24.22765
1234.434, 24.06235
1234.916, 23.88467
1235.398, 23.86424
1235.880, 23.90989
1236.362, 23.93250
1236.844, 23.93178
1237.327, 23.87047
1237.809, 23.75594
1238.291, 23.66637
1238.773, 23.67558
1239.255, 23.43985
1239.737, 23.55718
1240.219, 23.61742
1240.701, 23.62363
1241.183, 23.41398
1241.666, 23.48304
1242.148, 23.44042
1242.630, 23.39322
1243.112, 23.50152
1243.594, 23.32327
1244.076, 23.42912
1244.558, 23.42156
1245.040, 23.46589
1245.523, 23.39782
1246.005, 23.36448
1246.487, 23.44357
1246.969, 23.60775
1247.451, 23.59635
1247.933, 23.52724
1248.415, 23.38224
1248.897, 23.24479
1249.380, 23.23497
1249.862, 23.30497
1250.344, 23.30145
1250.826, 23.23171
1251.308, 23.17951
1251.790, 23.18724
1252.272, 23.20649
1252.754, 23.23804
1253.236, 23.26139
1253.719, 23.24033
1254.201, 23.19964
1254.683, 23.18806
1255.165, 23.20496
1255.647, 23.23431
1256.129, 23.29963
1256.611, 23.32775
1257.093, 23.30871
1257.575, 23.25854
1258.058, 23.16819
1258.540, 23.07452
1259.022, 23.05371
1259.504, 23.08545
1259.986, 23.05682
1260.468, 22.91980
1260.950, 22.81730
1261.432, 22.76266
1261.915, 22.75711
1262.397, 22.83294
1262.879, 22.93506
1263.361, 23.02060
1263.843, 23.07765
1264.325, 23.07404
1264.807, 22.99157
1265.289, 22.92753
1265.771, 22.88973
1266.254, 22.88359
1266.736, 22.95651
1267.218, 23.02378
1267.700, 22.99408
1268.182, 22.90503
1268.664, 22.86832
1269.146, 22.88728
1269.628, 22.90935
1270.110, 22.92989
1270.593, 22.95703
1271.075, 23.02040
1271.557, 23.06893
1272.039, 23.08737
1272.521, 23.05970
1273.003, 22.91513
1273.485, 22.67265
1273.967, 22.57651
1274.450, 22.64081
1274.932, 22.72939
1275.414, 22.77520
1275.896, 22.81084
1276.378, 22.84518
1276.860, 22.88135
1277.342, 22.94605
1277.824, 23.01655
1278.306, 22.98785
1278.789, 22.86403
1279.271, 22.74533
1279.753, 22.63888
1280.235, 22.60602
1280.717, 22.68168
1281.199, 22.78515
1281.681, 22.83548
1282.163, 22.83765
1282.646, 22.77247
1283.128, 22.66069
1283.610, 22.61148
1284.092, 22.71659
1284.574, 22.75522
1285.056, 22.68907
1285.538, 22.60641
1286.020, 22.58705
1286.502, 22.61044
1286.984, 22.66426
1287.467, 22.73641
##END=



