##NAMES=Heulandite-Ca
##RRUFFID=R050097
##IDEAL CHEMISTRY=(Ca,Na,K)_5_(Si_27_Al_9_)O_72_&#183;26H_2_O
##LOCALITY=Rat's Nest Claim, Custer County, Idaho, USA
##OWNER=RRUFF
##SOURCE=John Cornish
##DESCRIPTION=Pale pink coffin-shaped tabular single crystals
##STATUS=The identification of this mineral has been confirmed by X-ray diffraction and chemical analysis
##URL=rruff.info/R050097
##MEASURED CHEMISTRY=(Ca_0.66_Na_0.30_K_0.04_)_5_(Si_0.77_Al_0.23_)_36_O_72_Â·24H_2_O
209.8010, 2735.088
210.2831, 2715.234
210.7652, 2676.765
211.2473, 2664.987
211.7294, 2692.243
212.2116, 2722.087
212.6937, 2724.162
213.1758, 2688.559
213.6579, 2657.701
214.1400, 2636.517
214.6221, 2625.088
215.1043, 2627.576
215.5864, 2653.537
216.0685, 2679.908
216.5506, 2679.840
217.0327, 2639.079
217.5148, 2608.715
217.9970, 2603.136
218.4791, 2624.229
218.9612, 2637.766
219.4433, 2641.527
219.9254, 2639.688
220.4075, 2637.800
220.8897, 2637.370
221.3718, 2633.312
221.8539, 2621.899
222.3360, 2599.170
222.8181, 2587.488
223.3002, 2589.800
223.7824, 2601.364
224.2645, 2614.832
224.7466, 2634.230
225.2287, 2648.842
225.7108, 2653.089
226.1929, 2640.900
226.6750, 2635.867
227.1572, 2641.851
227.6393, 2653.946
228.1214, 2658.601
228.6035, 2649.716
229.0856, 2642.468
229.5677, 2646.049
230.0499, 2670.240
230.5320, 2681.492
231.0141, 2638.486
231.4962, 2672.616
231.9783, 2690.477
232.4604, 2692.942
232.9426, 2633.901
233.4247, 2654.283
233.9068, 2642.836
234.3889, 2630.083
234.8710, 2661.643
235.3531, 2657.687
235.8353, 2668.293
236.3174, 2675.635
236.7995, 2682.759
237.2816, 2692.797
237.7637, 2710.659
238.2458, 2721.617
238.7280, 2719.738
239.2101, 2705.382
239.6922, 2702.779
240.1743, 2714.615
240.6564, 2735.485
241.1385, 2761.732
241.6207, 2800.446
242.1028, 2832.306
242.5849, 2852.568
243.0670, 2860.273
243.5491, 2867.863
244.0313, 2873.166
244.5134, 2880.157
244.9955, 2895.270
245.4776, 2929.163
245.9597, 2952.478
246.4418, 2954.801
246.9240, 2930.778
247.4061, 2908.655
247.8882, 2918.322
248.3703, 2924.283
248.8524, 2926.736
249.3345, 2915.178
249.8167, 2921.713
250.2988, 2920.998
250.7809, 2919.984
251.2630, 2929.066
251.7451, 2919.545
252.2272, 2928.467
252.7094, 2930.027
253.1915, 2934.956
253.6736, 2932.589
254.1557, 2932.476
254.6378, 2920.587
255.1199, 2924.987
255.6021, 2956.887
256.0842, 2999.348
256.5663, 3013.381
257.0484, 2986.888
257.5305, 2952.934
258.0126, 2924.918
258.4948, 2903.131
258.9769, 2885.929
259.4590, 2873.190
259.9411, 2865.042
260.4232, 2863.041
260.9053, 2872.310
261.3875, 2878.420
261.8696, 2871.564
262.3517, 2844.644
262.8338, 2828.413
263.3159, 2828.027
263.7980, 2838.521
264.2802, 2842.366
264.7623, 2836.109
265.2444, 2830.060
265.7265, 2832.858
266.2086, 2850.087
266.6907, 2854.321
267.1729, 2838.810
267.6550, 2809.352
268.1371, 2787.211
268.6192, 2772.970
269.1013, 2765.066
269.5834, 2764.559
270.0656, 2773.837
270.5477, 2778.907
271.0298, 2776.193
271.5119, 2768.285
271.9940, 2766.511
272.4761, 2772.145
272.9583, 2780.825
273.4404, 2791.841
273.9225, 2807.240
274.4046, 2812.451
274.8867, 2801.506
275.3688, 2779.349
275.8510, 2769.077
276.3331, 2773.308
276.8152, 2781.846
277.2973, 2785.005
277.7794, 2781.632
278.2615, 2784.589
278.7437, 2799.254
279.2258, 2821.762
279.7079, 2832.409
280.1900, 2828.315
280.6721, 2823.555
281.1542, 2833.408
281.6364, 2858.769
282.1185, 2879.786
282.6006, 2895.399
283.0827, 2903.005
283.5648, 2886.811
284.0469, 2842.949
284.5291, 2795.480
285.0112, 2770.450
285.4933, 2767.017
285.9754, 2757.232
286.4575, 2729.646
286.9396, 2691.625
287.4217, 2668.841
287.9038, 2661.942
288.3860, 2665.176
288.8681, 2681.800
289.3502, 2708.680
289.8323, 2717.805
290.3144, 2692.272
290.7965, 2646.281
291.2787, 2619.969
291.7608, 2614.313
292.2429, 2616.957
292.7250, 2617.049
293.2071, 2615.350
293.6892, 2615.871
294.1714, 2622.923
294.6535, 2631.838
295.1356, 2630.714
295.6177, 2619.206
296.0998, 2606.373
296.5819, 2598.184
297.0641, 2595.095
297.5462, 2599.260
298.0283, 2620.277
298.5104, 2644.298
298.9925, 2643.723
299.4746, 2618.317
299.9568, 2591.410
300.4389, 2583.820
300.9210, 2590.205
301.4031, 2598.127
301.8852, 2603.679
302.3673, 2607.943
302.8495, 2612.503
303.3316, 2617.251
303.8137, 2621.287
304.2958, 2623.441
304.7779, 2624.329
305.2600, 2625.074
305.7422, 2629.561
306.2243, 2631.856
306.7064, 2620.903
307.1885, 2597.599
307.6706, 2581.823
308.1527, 2594.629
308.6349, 2622.120
309.1170, 2644.782
309.5991, 2657.021
310.0812, 2661.045
310.5633, 2654.431
311.0454, 2637.977
311.5276, 2625.352
312.0097, 2626.880
312.4918, 2635.944
312.9739, 2645.218
313.4560, 2659.027
313.9381, 2666.631
314.4203, 2655.341
314.9024, 2627.129
315.3845, 2608.402
315.8666, 2620.326
316.3487, 2643.824
316.8308, 2660.874
317.3130, 2661.037
317.7951, 2658.439
318.2772, 2659.104
318.7593, 2662.561
319.2414, 2662.884
319.7235, 2653.982
320.2057, 2643.274
320.6878, 2636.644
321.1699, 2636.058
321.6520, 2639.104
322.1341, 2650.055
322.6162, 2667.324
323.0984, 2674.383
323.5805, 2649.985
324.0626, 2624.999
324.5447, 2620.248
325.0268, 2667.644
325.5089, 2703.385
325.9911, 2715.528
326.4732, 2705.723
326.9553, 2694.313
327.4374, 2672.895
327.9195, 2656.422
328.4016, 2653.329
328.8838, 2676.371
329.3659, 2696.785
329.8480, 2714.073
330.3301, 2727.755
330.8122, 2735.347
331.2943, 2732.478
331.7765, 2727.854
332.2586, 2726.184
332.7407, 2728.097
333.2228, 2731.592
333.7049, 2734.302
334.1870, 2738.472
334.6692, 2755.413
335.1513, 2795.573
335.6334, 2832.121
336.1155, 2849.503
336.5976, 2843.500
337.0797, 2830.869
337.5619, 2807.603
338.0440, 2780.502
338.5261, 2772.337
339.0082, 2788.828
339.4903, 2806.929
339.9724, 2811.856
340.4546, 2801.311
340.9367, 2799.302
341.4188, 2810.614
341.9009, 2826.766
342.3830, 2826.494
342.8651, 2807.582
343.3473, 2793.443
343.8294, 2799.839
344.3115, 2825.103
344.7936, 2847.309
345.2757, 2866.668
345.7578, 2880.326
346.2400, 2880.063
346.7221, 2866.837
347.2042, 2856.446
347.6863, 2854.400
348.1684, 2861.206
348.6505, 2882.066
349.1327, 2920.127
349.6148, 2959.126
350.0969, 2975.852
350.5790, 2975.410
351.0611, 2977.835
351.5432, 2995.854
352.0254, 3021.432
352.5075, 3042.562
352.9896, 3058.473
353.4717, 3071.829
353.9538, 3087.090
354.4359, 3101.524
354.9181, 3109.237
355.4002, 3093.691
355.8823, 3079.015
356.3644, 3094.782
356.8465, 3141.710
357.3286, 3182.854
357.8108, 3182.882
358.2929, 3166.227
358.7750, 3164.858
359.2571, 3206.459
359.7392, 3253.126
360.2213, 3284.779
360.7035, 3301.858
361.1856, 3314.682
361.6677, 3323.269
362.1498, 3331.684
362.6319, 3343.535
363.1140, 3358.832
363.5962, 3378.516
364.0783, 3404.823
364.5604, 3436.778
365.0425, 3467.711
365.5246, 3501.242
366.0067, 3530.035
366.4889, 3549.615
366.9710, 3547.402
367.4531, 3550.326
367.9352, 3560.143
368.4173, 3576.747
368.8994, 3600.022
369.3815, 3643.259
369.8636, 3681.415
370.3458, 3701.593
370.8279, 3679.018
371.3100, 3682.167
371.7921, 3724.596
372.2742, 3789.746
372.7563, 3836.532
373.2385, 3856.816
373.7206, 3871.350
374.2027, 3887.036
374.6848, 3903.120
375.1669, 3923.266
375.6490, 3948.614
376.1312, 3976.816
376.6133, 4004.837
377.0954, 4032.967
377.5775, 4060.068
378.0596, 4085.010
378.5417, 4107.587
379.0239, 4131.267
379.5060, 4152.313
379.9881, 4185.161
380.4702, 4263.449
380.9523, 4385.247
381.4344, 4474.758
381.9166, 4491.003
382.3987, 4459.719
382.8808, 4461.475
383.3629, 4497.577
383.8450, 4545.003
384.3271, 4580.333
384.8093, 4608.785
385.2914, 4646.457
385.7735, 4703.125
386.2556, 4765.909
386.7377, 4812.756
387.2198, 4845.759
387.7020, 4882.926
388.1841, 4941.812
388.6662, 5010.604
389.1483, 5073.934
389.6304, 5125.084
390.1125, 5174.316
390.5947, 5231.953
391.0768, 5295.418
391.5589, 5354.651
392.0410, 5392.131
392.5231, 5431.265
393.0052, 5492.092
393.4874, 5586.766
393.9695, 5681.074
394.4516, 5759.118
394.9337, 5828.550
395.4158, 5903.393
395.8979, 5989.761
396.3801, 6080.170
396.8622, 6173.979
397.3443, 6275.731
397.8264, 6363.767
398.3085, 6426.008
398.7906, 6475.394
399.2728, 6527.079
399.7549, 6586.526
400.2370, 6642.826
400.7191, 6693.263
401.2012, 6737.481
401.6833, 6783.202
402.1655, 6835.952
402.6476, 6884.510
403.1297, 6919.493
403.6118, 6940.396
404.0939, 6948.986
404.5760, 6943.726
405.0582, 6926.265
405.5403, 6906.174
406.0224, 6885.713
406.5045, 6856.589
406.9866, 6811.303
407.4688, 6748.828
407.9509, 6682.927
408.4330, 6614.533
408.9151, 6543.206
409.3972, 6464.127
409.8793, 6377.596
410.3615, 6297.937
410.8436, 6238.468
411.3257, 6192.341
411.8078, 6139.753
412.2899, 6080.364
412.7720, 6008.899
413.2542, 5912.164
413.7363, 5797.879
414.2184, 5686.788
414.7005, 5591.911
415.1826, 5504.976
415.6647, 5417.410
416.1469, 5329.682
416.6290, 5241.082
417.1111, 5149.882
417.5932, 5058.007
418.0753, 4970.976
418.5574, 4889.876
419.0396, 4812.666
419.5217, 4737.129
420.0038, 4664.080
420.4859, 4594.222
420.9680, 4528.002
421.4501, 4465.393
421.9323, 4408.496
422.4144, 4365.570
422.8965, 4316.271
423.3786, 4254.358
423.8607, 4183.239
424.3428, 4112.110
424.8250, 4033.136
425.3071, 3961.183
425.7892, 3903.501
426.2713, 3866.073
426.7534, 3824.372
427.2355, 3775.684
427.7177, 3724.223
428.1998, 3677.291
428.6819, 3637.095
429.1640, 3596.046
429.6461, 3549.857
430.1282, 3499.230
430.6104, 3457.014
431.0925, 3426.314
431.5746, 3395.937
432.0567, 3349.953
432.5388, 3287.495
433.0209, 3241.441
433.5031, 3223.534
433.9852, 3222.431
434.4673, 3210.778
434.9494, 3188.860
435.4315, 3162.525
435.9136, 3132.781
436.3958, 3102.151
436.8779, 3076.848
437.3600, 3058.193
437.8421, 3044.767
438.3242, 3041.500
438.8063, 3043.328
439.2885, 3035.961
439.7706, 3002.479
440.2527, 2962.088
440.7348, 2929.927
441.2169, 2906.748
441.6990, 2895.171
442.1812, 2908.012
442.6633, 2929.202
443.1454, 2939.774
443.6275, 2927.345
444.1096, 2909.465
444.5917, 2889.096
445.0739, 2866.819
445.5560, 2849.638
446.0381, 2838.649
446.5202, 2833.325
447.0023, 2833.466
447.4844, 2847.199
447.9666, 2855.749
448.4487, 2852.769
448.9308, 2845.036
449.4129, 2851.961
449.8950, 2881.237
450.3771, 2912.353
450.8593, 2939.175
451.3413, 2962.585
451.8235, 2973.607
452.3056, 2967.396
452.7877, 2956.533
453.2698, 2957.325
453.7519, 2970.271
454.2340, 2989.481
454.7162, 3014.297
455.1983, 3043.808
455.6804, 3076.221
456.1625, 3111.750
456.6446, 3148.554
457.1267, 3186.907
457.6089, 3225.383
458.0910, 3261.505
458.5731, 3292.325
459.0552, 3324.335
459.5373, 3367.539
460.0194, 3418.541
460.5016, 3466.997
460.9837, 3503.746
461.4658, 3536.704
461.9479, 3572.335
462.4300, 3611.135
462.9121, 3653.208
463.3943, 3704.961
463.8764, 3758.043
464.3585, 3800.859
464.8406, 3820.106
465.3227, 3838.301
465.8048, 3863.906
466.2870, 3897.077
466.7691, 3926.271
467.2512, 3950.440
467.7333, 3970.285
468.2154, 3985.285
468.6975, 3980.746
469.1797, 3996.681
469.6618, 4047.495
470.1439, 4116.150
470.6260, 4153.218
471.1081, 4142.851
471.5902, 4139.222
472.0724, 4171.411
472.5545, 4243.143
473.0366, 4288.214
473.5187, 4300.305
474.0008, 4302.279
474.4829, 4317.244
474.9651, 4345.363
475.4472, 4390.433
475.9293, 4464.865
476.4114, 4549.285
476.8935, 4599.560
477.3756, 4617.745
477.8578, 4633.918
478.3399, 4670.044
478.8220, 4718.140
479.3041, 4767.459
479.7862, 4817.718
480.2683, 4864.562
480.7505, 4905.864
481.2326, 4941.253
481.7147, 4970.260
482.1968, 4997.666
482.6789, 5014.736
483.1610, 5014.999
483.6432, 4996.587
484.1253, 4973.107
484.6074, 4952.584
485.0895, 4926.036
485.5716, 4885.504
486.0537, 4820.038
486.5359, 4752.585
487.0180, 4690.159
487.5001, 4628.108
487.9822, 4541.460
488.4643, 4414.314
488.9464, 4290.164
489.4286, 4191.244
489.9107, 4124.099
490.3928, 4053.295
490.8749, 3979.426
491.3570, 3900.483
491.8391, 3809.558
492.3213, 3707.535
492.8034, 3605.156
493.2855, 3505.133
493.7676, 3409.149
494.2497, 3317.834
494.7318, 3232.060
495.2140, 3156.421
495.6961, 3102.519
496.1782, 3060.159
496.6603, 3012.529
497.1424, 2951.172
497.6245, 2892.624
498.1067, 2851.657
498.5888, 2822.981
499.0709, 2794.016
499.5530, 2758.154
500.0351, 2720.988
500.5172, 2684.063
500.9994, 2647.656
501.4815, 2614.429
501.9636, 2587.232
502.4457, 2562.014
502.9278, 2535.116
503.4099, 2499.054
503.8921, 2470.243
504.3742, 2453.812
504.8563, 2446.203
505.3384, 2431.998
505.8205, 2408.333
506.3026, 2383.853
506.7848, 2360.297
507.2669, 2335.760
507.7490, 2328.698
508.2311, 2345.050
508.7132, 2365.297
509.1953, 2360.111
509.6775, 2331.886
510.1596, 2307.589
510.6417, 2299.478
511.1238, 2298.510
511.6059, 2284.441
512.0880, 2258.484
512.5701, 2235.628
513.0522, 2226.625
513.5344, 2226.558
514.0165, 2230.298
514.4986, 2238.488
514.9807, 2245.620
515.4628, 2251.616
515.9449, 2253.779
516.4271, 2247.534
516.9092, 2226.504
517.3913, 2201.542
517.8734, 2172.192
518.3555, 2138.030
518.8376, 2117.645
519.3198, 2126.313
519.8019, 2140.126
520.2840, 2144.298
520.7661, 2131.027
521.2482, 2123.926
521.7303, 2127.263
522.2125, 2135.455
522.6946, 2134.205
523.1767, 2120.279
523.6588, 2110.541
524.1409, 2114.141
524.6230, 2128.771
525.1052, 2138.213
525.5873, 2142.415
526.0694, 2141.857
526.5515, 2134.042
527.0336, 2121.618
527.5157, 2112.666
527.9979, 2110.938
528.4800, 2110.498
528.9621, 2102.885
529.4442, 2091.049
529.9263, 2083.471
530.4084, 2089.759
530.8906, 2098.209
531.3727, 2101.085
531.8548, 2097.451
532.3369, 2090.335
532.8190, 2072.581
533.3011, 2055.718
533.7833, 2050.506
534.2654, 2070.774
534.7475, 2087.797
535.2296, 2100.821
535.7117, 2108.822
536.1938, 2107.132
536.6760, 2089.493
537.1581, 2074.000
537.6402, 2069.337
538.1223, 2076.632
538.6044, 2081.235
539.0865, 2083.402
539.5687, 2082.337
540.0508, 2073.726
540.5329, 2059.240
541.0150, 2053.285
541.4971, 2064.680
541.9792, 2079.789
542.4614, 2071.365
542.9435, 2044.963
543.4256, 2011.220
543.9077, 2021.189
544.3898, 2027.450
544.8719, 2030.205
545.3541, 2018.948
545.8362, 2025.785
546.3183, 2025.370
546.8004, 2024.658
547.2825, 2034.040
547.7646, 2024.821
548.2468, 2034.044
548.7289, 2047.300
549.2110, 2051.527
549.6931, 2053.193
550.1752, 2050.146
550.6573, 2047.459
551.1395, 2047.401
551.6216, 2050.548
552.1037, 2053.084
552.5858, 2055.067
553.0679, 2056.398
553.5500, 2057.723
554.0322, 2058.923
554.5143, 2056.160
554.9964, 2046.248
555.4785, 2034.778
555.9606, 2033.135
556.4427, 2039.861
556.9249, 2047.116
557.4070, 2051.836
557.8891, 2053.657
558.3712, 2050.279
558.8533, 2040.668
559.3354, 2034.292
559.8176, 2042.135
560.2997, 2053.283
560.7818, 2056.542
561.2639, 2037.907
561.7460, 2023.553
562.2281, 2022.031
562.7103, 2029.533
563.1924, 2031.420
563.6745, 2023.599
564.1566, 2015.348
564.6387, 2009.229
565.1208, 2004.964
565.6030, 2006.815
566.0851, 2017.756
566.5672, 2028.013
567.0493, 2023.846
567.5314, 2006.368
568.0135, 1999.483
568.4957, 2010.536
568.9778, 2029.154
569.4599, 2039.453
569.9420, 2042.625
570.4241, 2043.265
570.9063, 2043.281
571.3884, 2042.348
571.8705, 2039.602
572.3526, 2035.047
572.8347, 2030.889
573.3168, 2024.894
573.7990, 2021.663
574.2811, 2025.520
574.7632, 2045.388
575.2453, 2060.963
575.7274, 2062.189
576.2095, 2058.313
576.6917, 2069.168
577.1738, 2111.737
577.6559, 2140.706
578.1380, 2139.568
578.6201, 2110.564
579.1022, 2089.442
579.5844, 2076.235
580.0665, 2070.724
580.5486, 2076.964
581.0307, 2092.713
581.5128, 2100.332
581.9949, 2096.018
582.4771, 2089.816
582.9592, 2095.915
583.4413, 2109.948
583.9234, 2121.106
584.4055, 2122.708
584.8876, 2121.396
585.3698, 2120.164
585.8519, 2119.650
586.3340, 2123.177
586.8161, 2138.717
587.2982, 2153.715
587.7803, 2159.126
588.2625, 2145.529
588.7446, 2145.194
589.2267, 2169.701
589.7088, 2201.013
590.1909, 2220.325
590.6730, 2225.684
591.1552, 2222.368
591.6373, 2205.585
592.1194, 2184.028
592.6015, 2187.125
593.0836, 2216.384
593.5657, 2246.000
594.0479, 2261.294
594.5300, 2266.635
595.0121, 2271.496
595.4942, 2275.958
595.9763, 2285.122
596.4584, 2307.973
596.9406, 2336.360
597.4227, 2360.407
597.9048, 2379.053
598.3869, 2390.332
598.8690, 2387.265
599.3511, 2376.975
599.8333, 2373.274
600.3154, 2377.371
600.7975, 2390.590
601.2796, 2420.038
601.7617, 2464.981
602.2438, 2486.616
602.7260, 2470.463
603.2081, 2456.201
603.6902, 2473.186
604.1723, 2524.803
604.6544, 2565.560
605.1365, 2593.503
605.6187, 2609.276
606.1008, 2605.816
606.5829, 2588.431
607.0650, 2580.147
607.5471, 2595.117
608.0292, 2614.923
608.5114, 2610.707
608.9935, 2590.954
609.4756, 2585.916
609.9577, 2633.267
610.4398, 2683.427
610.9219, 2703.847
611.4041, 2688.249
611.8862, 2669.799
612.3683, 2644.112
612.8504, 2624.989
613.3325, 2624.301
613.8146, 2660.836
614.2968, 2677.960
614.7789, 2667.672
615.2610, 2641.327
615.7431, 2619.203
616.2252, 2601.259
616.7073, 2589.079
617.1895, 2588.076
617.6716, 2591.317
618.1537, 2577.278
618.6358, 2547.065
619.1179, 2516.064
619.6000, 2494.384
620.0822, 2478.524
620.5643, 2465.633
621.0464, 2456.148
621.5285, 2443.975
622.0106, 2419.944
622.4927, 2394.094
622.9749, 2377.280
623.4570, 2381.811
623.9391, 2383.702
624.4212, 2381.273
624.9033, 2373.853
625.3854, 2357.801
625.8676, 2327.068
626.3497, 2301.692
626.8318, 2291.841
627.3139, 2294.958
627.7960, 2283.376
628.2781, 2255.138
628.7603, 2228.192
629.2424, 2219.903
629.7245, 2224.166
630.2066, 2225.236
630.6887, 2221.050
631.1708, 2213.723
631.6530, 2204.670
632.1351, 2193.822
632.6172, 2181.020
633.0993, 2162.160
633.5814, 2145.771
634.0635, 2134.506
634.5457, 2128.038
635.0278, 2125.264
635.5099, 2133.850
635.9920, 2137.089
636.4741, 2126.658
636.9562, 2101.021
637.4384, 2090.768
637.9205, 2101.304
638.4026, 2111.916
638.8847, 2101.340
639.3668, 2072.572
639.8489, 2055.564
640.3311, 2055.829
640.8132, 2060.220
641.2953, 2050.380
641.7774, 2032.967
642.2595, 2022.497
642.7416, 2030.489
643.2238, 2041.204
643.7059, 2045.583
644.1880, 2044.630
644.6701, 2041.904
645.1522, 2034.036
645.6343, 2028.751
646.1165, 2031.935
646.5986, 2045.381
647.0807, 2048.569
647.5628, 2037.448
648.0449, 2022.054
648.5270, 2009.193
649.0092, 1998.978
649.4913, 1989.440
649.9734, 1979.521
650.4555, 1972.761
650.9376, 1977.773
651.4197, 1990.757
651.9019, 1997.439
652.3840, 1986.674
652.8661, 1975.240
653.3482, 1983.949
653.8303, 2005.951
654.3124, 2020.379
654.7946, 2012.334
655.2767, 2000.023
655.7588, 1991.418
656.2409, 1987.232
656.7230, 1984.642
657.2051, 1985.080
657.6872, 1985.264
658.1693, 1982.658
658.6514, 1975.916
659.1335, 1973.179
659.6157, 1975.886
660.0978, 1979.839
660.5799, 1978.149
661.0620, 1972.188
661.5441, 1970.097
662.0262, 1976.144
662.5084, 1983.636
662.9905, 1985.414
663.4726, 1982.149
663.9547, 1975.603
664.4368, 1960.295
664.9189, 1947.543
665.4011, 1944.718
665.8832, 1951.652
666.3653, 1958.030
666.8474, 1960.240
667.3295, 1963.169
667.8116, 1970.201
668.2938, 1984.076
668.7759, 1988.545
669.2580, 1980.794
669.7401, 1969.969
670.2222, 1965.879
670.7043, 1967.991
671.1865, 1970.956
671.6686, 1974.387
672.1507, 1977.019
672.6328, 1978.224
673.1149, 1977.470
673.5970, 1973.440
674.0792, 1958.420
674.5613, 1946.545
675.0434, 1949.451
675.5255, 1964.018
676.0076, 1973.268
676.4897, 1969.995
676.9719, 1963.897
677.4540, 1957.360
677.9361, 1949.806
678.4182, 1947.636
678.9003, 1953.192
679.3824, 1958.819
679.8646, 1956.343
680.3467, 1946.804
680.8288, 1944.085
681.3109, 1950.783
681.7930, 1958.669
682.2751, 1956.968
682.7573, 1949.682
683.2394, 1944.992
683.7215, 1948.217
684.2036, 1951.417
684.6857, 1948.025
685.1678, 1941.363
685.6500, 1933.471
686.1321, 1945.005
686.6142, 1951.889
687.0963, 1954.375
687.5784, 1939.289
688.0605, 1946.894
688.5427, 1945.405
689.0248, 1943.543
689.5069, 1954.342
689.9890, 1941.811
690.4711, 1952.409
690.9532, 1953.775
691.4354, 1959.366
691.9175, 1955.807
692.3996, 1955.074
692.8817, 1963.494
693.3638, 1966.846
693.8459, 1932.857
694.3281, 1936.891
694.8102, 1952.407
695.2923, 1961.847
695.7744, 1957.041
696.2565, 1951.584
696.7386, 1945.285
697.2208, 1939.930
697.7029, 1941.782
698.1850, 1954.144
698.6671, 1961.684
699.1492, 1956.347
699.6313, 1942.825
700.1135, 1938.393
700.5956, 1942.593
701.0777, 1947.679
701.5598, 1945.949
702.0419, 1943.311
702.5240, 1948.553
703.0062, 1962.681
703.4883, 1975.358
703.9704, 1985.407
704.4525, 1989.569
704.9346, 1984.254
705.4167, 1954.983
705.8989, 1941.800
706.3810, 1952.844
706.8631, 1973.212
707.3452, 1984.775
707.8273, 1986.209
708.3094, 1987.936
708.7916, 1991.864
709.2737, 1996.949
709.7558, 2000.728
710.2379, 2003.794
710.7200, 2008.780
711.2021, 2020.077
711.6843, 2031.358
712.1664, 2034.532
712.6485, 2032.011
713.1306, 2034.131
713.6127, 2056.735
714.0948, 2073.987
714.5770, 2071.589
715.0591, 2048.486
715.5412, 2025.480
716.0233, 1999.318
716.5054, 1979.400
716.9875, 1975.274
717.4697, 1986.822
717.9518, 1991.263
718.4339, 1986.908
718.9160, 1980.050
719.3981, 1977.282
719.8802, 1976.872
720.3624, 1975.831
720.8445, 1974.157
721.3266, 1970.087
721.8087, 1960.264
722.2908, 1948.060
722.7729, 1938.571
723.2551, 1931.160
723.7372, 1928.742
724.2193, 1932.931
724.7014, 1941.885
725.1835, 1952.179
725.6656, 1965.953
726.1478, 1971.406
726.6299, 1959.990
727.1120, 1939.007
727.5941, 1930.544
728.0762, 1933.732
728.5583, 1941.132
729.0405, 1952.372
729.5226, 1962.535
730.0047, 1967.143
730.4868, 1965.872
730.9689, 1960.673
731.4510, 1947.718
731.9332, 1934.569
732.4153, 1925.983
732.8974, 1921.947
733.3795, 1923.600
733.8616, 1935.482
734.3438, 1946.156
734.8259, 1938.629
735.3080, 1913.632
735.7901, 1909.226
736.2722, 1935.476
736.7543, 1966.909
737.2365, 1971.859
737.7186, 1957.860
738.2007, 1939.286
738.6828, 1910.941
739.1649, 1892.405
739.6470, 1901.949
740.1292, 1928.309
740.6113, 1945.733
741.0934, 1940.016
741.5755, 1936.952
742.0576, 1942.537
742.5397, 1954.466
743.0219, 1963.403
743.5040, 1969.675
743.9861, 1970.916
744.4682, 1963.195
744.9503, 1950.091
745.4324, 1940.626
745.9146, 1934.720
746.3967, 1932.166
746.8788, 1931.693
747.3609, 1935.285
747.8430, 1946.401
748.3251, 1966.715
748.8073, 1984.115
749.2894, 2001.136
749.7715, 2010.145
750.2536, 2004.642
750.7357, 1976.870
751.2178, 1959.376
751.7000, 1954.327
752.1821, 1954.195
752.6642, 1948.575
753.1463, 1939.650
753.6284, 1939.593
754.1105, 1952.546
754.5927, 1968.544
755.0748, 1982.715
755.5569, 1992.170
756.0390, 1992.579
756.5211, 1964.807
757.0032, 1947.788
757.4854, 1960.560
757.9675, 1990.743
758.4496, 2009.902
758.9317, 2015.312
759.4138, 2015.810
759.8959, 2012.399
760.3781, 2006.169
760.8602, 1999.532
761.3423, 1992.666
761.8244, 1987.828
762.3065, 1985.761
762.7886, 1986.733
763.2708, 1993.607
763.7529, 2005.061
764.2350, 2012.694
764.7171, 2003.046
765.1992, 1996.698
765.6813, 2008.479
766.1635, 2042.401
766.6456, 2062.738
767.1277, 2065.890
767.6098, 2061.188
768.0919, 2051.530
768.5740, 2036.993
769.0562, 2030.087
769.5383, 2031.592
770.0204, 2035.311
770.5025, 2034.167
770.9846, 2031.852
771.4667, 2034.914
771.9489, 2045.516
772.4310, 2056.479
772.9131, 2066.520
773.3952, 2073.926
773.8773, 2076.857
774.3594, 2073.422
774.8416, 2067.452
775.3237, 2054.779
775.8058, 2044.109
776.2879, 2050.694
776.7700, 2074.702
777.2521, 2092.201
777.7343, 2098.178
778.2164, 2095.730
778.6985, 2085.801
779.1806, 2070.958
779.6627, 2056.748
780.1448, 2041.961
780.6270, 2032.169
781.1091, 2031.534
781.5912, 2037.917
782.0733, 2045.338
782.5554, 2055.926
783.0375, 2063.167
783.5197, 2064.861
784.0018, 2062.219
784.4839, 2058.933
784.9660, 2054.896
785.4481, 2052.690
785.9302, 2058.181
786.4124, 2064.042
786.8945, 2052.653
787.3766, 2028.250
787.8587, 2012.817
788.3408, 2025.369
788.8229, 2044.070
789.3051, 2059.427
789.7872, 2070.969
790.2693, 2072.143
790.7514, 2056.495
791.2335, 2040.829
791.7156, 2034.282
792.1978, 2036.657
792.6799, 2040.221
793.1620, 2045.205
793.6441, 2047.855
794.1262, 2042.127
794.6083, 2033.142
795.0905, 2027.796
795.5726, 2026.702
796.0547, 2030.272
796.5368, 2046.306
797.0189, 2062.097
797.5010, 2066.551
797.9832, 2053.975
798.4653, 2042.695
798.9474, 2031.574
799.4295, 2023.529
799.9116, 2024.537
800.3937, 2033.519
800.8759, 2032.333
801.3580, 2016.339
801.8401, 2001.400
802.3222, 2006.033
802.8043, 2022.309
803.2864, 2039.517
803.7686, 2061.412
804.2507, 2071.659
804.7328, 2054.231
805.2149, 2026.335
805.6970, 2012.345
806.1791, 2018.331
806.6613, 2023.651
807.1434, 2025.785
807.6255, 2026.399
808.1076, 2028.219
808.5897, 2031.084
809.0718, 2034.190
809.5540, 2037.097
810.0361, 2040.300
810.5182, 2047.965
811.0003, 2055.787
811.4824, 2055.406
811.9645, 2028.207
812.4467, 2011.091
812.9288, 2019.306
813.4109, 2042.647
813.8930, 2057.008
814.3751, 2062.086
814.8572, 2059.327
815.3394, 2045.890
815.8215, 2028.300
816.3036, 2020.308
816.7857, 2021.201
817.2678, 2027.574
817.7499, 2046.520
818.2321, 2062.546
818.7142, 2061.980
819.1963, 2048.259
819.6784, 2037.717
820.1605, 2042.584
820.6426, 2039.576
821.1248, 2017.023
821.6068, 1980.775
822.0889, 1969.433
822.5710, 1984.883
823.0532, 2003.808
823.5353, 2018.469
824.0174, 2026.279
824.4995, 2017.052
824.9816, 1994.217
825.4637, 1977.657
825.9459, 1987.735
826.4280, 1998.777
826.9101, 1996.300
827.3922, 1978.885
827.8743, 1960.406
828.3564, 1938.860
828.8386, 1920.247
829.3207, 1905.399
829.8028, 1895.245
830.2849, 1900.494
830.7670, 1920.827
831.2491, 1937.609
831.7313, 1935.197
832.2134, 1923.158
832.6955, 1910.341
833.1776, 1897.473
833.6597, 1886.754
834.1418, 1875.886
834.6240, 1870.331
835.1061, 1875.212
835.5882, 1892.814
836.0703, 1894.587
836.5524, 1875.183
837.0345, 1860.255
837.5167, 1878.281
837.9988, 1914.909
838.4809, 1924.053
838.9630, 1903.730
839.4451, 1882.193
839.9272, 1879.971
840.4094, 1883.781
840.8915, 1882.066
841.3736, 1870.725
841.8557, 1867.486
842.3378, 1878.143
842.8199, 1890.490
843.3021, 1897.193
843.7842, 1898.131
844.2663, 1894.948
844.7484, 1887.183
845.2305, 1880.306
845.7126, 1880.694
846.1948, 1884.266
846.6769, 1885.354
847.1590, 1883.018
847.6411, 1880.090
848.1232, 1874.804
848.6053, 1871.628
849.0875, 1874.251
849.5696, 1884.814
850.0517, 1892.220
850.5338, 1895.240
851.0159, 1898.681
851.4980, 1912.627
851.9802, 1930.727
852.4623, 1927.331
852.9444, 1898.524
853.4265, 1871.386
853.9086, 1870.144
854.3907, 1877.907
854.8729, 1878.364
855.3550, 1863.150
855.8371, 1859.705
856.3192, 1876.454
856.8013, 1896.304
857.2834, 1906.782
857.7656, 1907.863
858.2477, 1902.939
858.7298, 1891.469
859.2119, 1879.707
859.6940, 1873.821
860.1761, 1871.185
860.6583, 1867.070
861.1404, 1859.397
861.6225, 1858.277
862.1046, 1875.460
862.5867, 1894.885
863.0688, 1904.740
863.5510, 1903.667
864.0331, 1897.170
864.5152, 1883.066
864.9973, 1870.546
865.4794, 1869.616
865.9615, 1876.807
866.4437, 1883.668
866.9258, 1889.514
867.4079, 1891.903
867.8900, 1886.633
868.3721, 1878.933
868.8542, 1872.867
869.3364, 1868.605
869.8185, 1867.635
870.3006, 1871.563
870.7827, 1876.255
871.2648, 1878.061
871.7469, 1877.372
872.2291, 1879.633
872.7112, 1885.518
873.1933, 1887.906
873.6754, 1872.463
874.1575, 1854.973
874.6396, 1856.288
875.1218, 1885.027
875.6039, 1899.381
876.0860, 1872.605
876.5681, 1843.607
877.0502, 1834.449
877.5323, 1847.487
878.0145, 1858.871
878.4966, 1877.752
878.9787, 1888.127
879.4608, 1894.797
879.9429, 1897.959
880.4250, 1887.110
880.9072, 1894.354
881.3893, 1894.347
881.8714, 1894.043
882.3535, 1903.833
882.8356, 1895.022
883.3177, 1904.652
883.7999, 1906.922
884.2820, 1912.560
884.7641, 1910.902
885.2462, 1911.498
885.7283, 1919.391
886.2104, 1923.244
886.6926, 1901.726
887.1747, 1898.209
887.6568, 1881.458
888.1389, 1865.375
888.6210, 1860.663
889.1031, 1869.324
889.5853, 1876.434
890.0674, 1883.010
890.5495, 1885.216
891.0316, 1878.070
891.5137, 1864.325
891.9958, 1862.850
892.4780, 1873.025
892.9601, 1884.820
893.4422, 1894.942
893.9243, 1901.191
894.4064, 1899.452
894.8885, 1890.530
895.3707, 1883.924
895.8528, 1883.232
896.3349, 1883.096
896.8170, 1881.318
897.2991, 1878.625
897.7813, 1880.544
898.2634, 1887.046
898.7455, 1891.635
899.2276, 1889.884
899.7097, 1884.809
900.1918, 1878.481
900.6740, 1871.750
901.1561, 1867.702
901.6382, 1871.770
902.1203, 1873.658
902.6024, 1867.018
903.0845, 1856.308
903.5667, 1861.156
904.0488, 1884.246
904.5309, 1898.031
905.0130, 1886.709
905.4951, 1868.143
905.9772, 1874.621
906.4594, 1896.955
906.9415, 1911.033
907.4236, 1894.987
907.9057, 1882.243
908.3878, 1890.491
908.8699, 1908.281
909.3521, 1910.683
909.8342, 1891.077
910.3163, 1884.789
910.7984, 1904.001
911.2805, 1930.384
911.7626, 1930.104
912.2448, 1912.857
912.7269, 1902.224
913.2090, 1911.474
913.6911, 1920.092
914.1732, 1917.220
914.6553, 1908.386
915.1375, 1900.978
915.6196, 1893.967
916.1017, 1892.775
916.5838, 1899.904
917.0659, 1908.032
917.5480, 1904.388
918.0302, 1893.809
918.5123, 1891.326
918.9944, 1901.275
919.4765, 1913.637
919.9586, 1926.801
920.4407, 1936.517
920.9229, 1937.726
921.4050, 1925.047
921.8871, 1918.080
922.3692, 1918.789
922.8513, 1921.037
923.3334, 1919.247
923.8156, 1914.258
924.2977, 1908.001
924.7798, 1900.534
925.2619, 1896.069
925.7440, 1900.763
926.2261, 1907.465
926.7083, 1911.309
927.1904, 1911.842
927.6725, 1906.848
928.1546, 1891.358
928.6367, 1880.349
929.1188, 1886.163
929.6010, 1904.336
930.0831, 1911.021
930.5652, 1906.954
931.0473, 1901.002
931.5294, 1895.895
932.0115, 1893.525
932.4937, 1895.566
932.9758, 1901.923
933.4579, 1911.541
933.9400, 1931.752
934.4221, 1940.165
934.9042, 1923.293
935.3864, 1893.697
935.8685, 1894.545
936.3506, 1921.002
936.8327, 1944.042
937.3148, 1949.206
937.7969, 1945.967
938.2791, 1936.912
938.7612, 1924.944
939.2433, 1917.045
939.7254, 1918.189
940.2075, 1915.859
940.6896, 1905.847
941.1718, 1894.688
941.6539, 1895.292
942.1360, 1905.905
942.6181, 1918.096
943.1002, 1931.970
943.5823, 1940.557
944.0645, 1934.119
944.5466, 1921.066
945.0287, 1911.533
945.5108, 1904.470
945.9929, 1907.768
946.4750, 1927.906
946.9572, 1947.706
947.4393, 1944.823
947.9214, 1924.535
948.4035, 1915.562
948.8856, 1921.129
949.3677, 1931.140
949.8499, 1941.113
950.3320, 1950.029
950.8141, 1956.788
951.2962, 1960.813
951.7783, 1965.765
952.2604, 1975.142
952.7426, 1978.536
953.2247, 1965.243
953.7068, 1940.585
954.1889, 1931.330
954.6710, 1935.913
955.1531, 1940.447
955.6353, 1934.830
956.1174, 1927.490
956.5995, 1924.690
957.0816, 1925.733
957.5637, 1923.710
958.0458, 1916.123
958.5280, 1910.910
959.0101, 1910.599
959.4922, 1913.877
959.9743, 1920.407
960.4564, 1928.228
960.9385, 1929.619
961.4207, 1911.499
961.9028, 1899.556
962.3849, 1914.777
962.8670, 1943.445
963.3491, 1961.681
963.8312, 1967.984
964.3134, 1963.890
964.7955, 1945.079
965.2776, 1926.906
965.7597, 1934.709
966.2418, 1958.829
966.7239, 1975.015
967.2061, 1977.929
967.6882, 1976.523
968.1703, 1973.120
968.6524, 1969.138
969.1345, 1966.596
969.6166, 1967.017
970.0988, 1958.032
970.5809, 1935.966
971.0630, 1919.711
971.5451, 1929.826
972.0272, 1953.172
972.5093, 1964.701
972.9915, 1964.405
973.4736, 1961.677
973.9557, 1952.551
974.4378, 1950.963
974.9199, 1969.724
975.4020, 2001.807
975.8842, 2012.118
976.3663, 1998.478
976.8484, 1983.975
977.3305, 1976.447
977.8126, 1974.234
978.2947, 1977.891
978.7769, 1984.734
979.2590, 1988.653
979.7411, 1986.954
980.2232, 1982.429
980.7053, 1970.301
981.1874, 1959.589
981.6696, 1964.728
982.1517, 1986.104
982.6338, 2005.586
983.1159, 2021.109
983.5980, 2030.797
984.0801, 2028.424
984.5623, 2021.333
985.0444, 2018.033
985.5265, 2021.044
986.0085, 2023.870
986.4907, 2027.061
986.9728, 2027.984
987.4549, 2022.045
987.9370, 2010.912
988.4191, 2015.656
988.9012, 2035.146
989.3834, 2051.160
989.8655, 2049.609
990.3476, 2041.759
990.8297, 2034.256
991.3118, 2027.630
991.7939, 2022.554
992.2761, 2018.324
992.7582, 2017.220
993.2403, 2020.428
993.7224, 2026.400
994.2045, 2033.875
994.6866, 2041.390
995.1688, 2043.793
995.6509, 2037.315
996.1330, 2028.940
996.6151, 2014.170
997.0972, 2003.938
997.5793, 2014.309
998.0615, 2057.948
998.5436, 2076.444
999.0257, 2063.612
999.5078, 2041.050
999.9899, 2022.420
1000.472, 2012.459
1000.954, 2025.783
1001.436, 2064.235
1001.918, 2094.232
1002.401, 2094.410
1002.883, 2090.237
1003.365, 2094.978
1003.847, 2106.827
1004.329, 2106.314
1004.811, 2093.166
1005.293, 2080.544
1005.775, 2073.268
1006.257, 2071.382
1006.740, 2078.065
1007.222, 2089.998
1007.704, 2099.131
1008.186, 2105.596
1008.668, 2104.695
1009.150, 2091.755
1009.632, 2076.518
1010.114, 2077.198
1010.596, 2090.059
1011.079, 2092.769
1011.561, 2078.874
1012.043, 2067.674
1012.525, 2078.715
1013.007, 2096.104
1013.489, 2105.765
1013.971, 2106.060
1014.453, 2100.342
1014.936, 2085.307
1015.418, 2074.909
1015.900, 2081.685
1016.382, 2098.740
1016.864, 2111.599
1017.346, 2120.369
1017.828, 2126.315
1018.310, 2129.099
1018.792, 2130.160
1019.275, 2129.690
1019.757, 2128.064
1020.239, 2123.985
1020.721, 2116.885
1021.203, 2121.153
1021.685, 2144.887
1022.167, 2167.750
1022.649, 2164.047
1023.132, 2145.849
1023.614, 2129.116
1024.096, 2114.554
1024.578, 2108.653
1025.060, 2114.878
1025.542, 2124.373
1026.024, 2126.743
1026.506, 2125.285
1026.989, 2150.153
1027.471, 2198.877
1027.953, 2229.824
1028.435, 2193.767
1028.917, 2151.622
1029.399, 2144.249
1029.881, 2166.943
1030.363, 2185.268
1030.845, 2200.123
1031.328, 2205.729
1031.810, 2196.462
1032.292, 2184.968
1032.774, 2198.344
1033.256, 2223.540
1033.738, 2233.688
1034.220, 2210.183
1034.702, 2191.036
1035.184, 2190.901
1035.667, 2192.997
1036.149, 2179.288
1036.631, 2149.600
1037.113, 2145.874
1037.595, 2170.013
1038.077, 2193.241
1038.559, 2190.932
1039.041, 2179.782
1039.524, 2170.165
1040.006, 2163.665
1040.488, 2167.900
1040.970, 2190.803
1041.452, 2204.753
1041.934, 2198.292
1042.416, 2181.857
1042.898, 2173.917
1043.380, 2173.417
1043.863, 2178.173
1044.345, 2193.934
1044.827, 2203.127
1045.309, 2192.027
1045.791, 2176.010
1046.273, 2169.064
1046.755, 2171.857
1047.237, 2178.253
1047.719, 2188.502
1048.202, 2196.591
1048.684, 2195.944
1049.166, 2191.761
1049.648, 2190.303
1050.130, 2191.412
1050.612, 2186.714
1051.094, 2167.297
1051.576, 2159.229
1052.059, 2176.044
1052.541, 2201.780
1053.023, 2190.522
1053.505, 2155.773
1053.987, 2142.451
1054.469, 2177.824
1054.951, 2211.642
1055.433, 2220.239
1055.916, 2215.730
1056.398, 2210.403
1056.880, 2204.799
1057.362, 2192.976
1057.844, 2173.987
1058.326, 2157.718
1058.808, 2147.938
1059.290, 2148.010
1059.772, 2171.370
1060.255, 2213.738
1060.737, 2231.602
1061.219, 2201.845
1061.701, 2179.017
1062.183, 2178.158
1062.665, 2189.260
1063.147, 2192.096
1063.629, 2188.794
1064.111, 2186.573
1064.594, 2188.229
1065.076, 2189.253
1065.558, 2184.332
1066.040, 2180.195
1066.522, 2184.361
1067.004, 2199.635
1067.486, 2200.316
1067.968, 2185.268
1068.450, 2171.708
1068.933, 2171.264
1069.415, 2179.382
1069.897, 2196.202
1070.379, 2218.519
1070.861, 2232.290
1071.343, 2232.673
1071.825, 2228.881
1072.307, 2219.797
1072.790, 2211.917
1073.272, 2222.678
1073.754, 2243.361
1074.236, 2217.773
1074.718, 2257.258
1075.200, 2280.485
1075.682, 2288.329
1076.164, 2234.714
1076.646, 2260.461
1077.129, 2254.408
1077.611, 2247.045
1078.093, 2283.962
1078.575, 2239.286
1079.057, 2275.500
1079.539, 2279.424
1080.021, 2298.127
1080.503, 2284.829
1080.985, 2281.414
1081.468, 2310.016
1081.950, 2320.888
1082.432, 2303.906
1082.914, 2323.548
1083.396, 2277.754
1083.878, 2289.382
1084.360, 2325.782
1084.842, 2310.410
1085.325, 2330.641
1085.807, 2337.310
1086.289, 2282.361
1086.771, 2334.571
1087.253, 2340.438
1087.735, 2298.721
1088.217, 2347.260
1088.699, 2312.103
1089.182, 2306.825
1089.664, 2324.024
1090.146, 2317.787
1090.628, 2348.501
1091.110, 2343.617
1091.592, 2335.552
1092.074, 2341.367
1092.556, 2307.852
1093.038, 2347.303
1093.521, 2336.917
1094.003, 2351.301
1094.485, 2371.301
1094.967, 2348.302
1095.449, 2370.824
1095.931, 2322.753
1096.413, 2333.750
1096.895, 2338.388
1097.377, 2380.780
1097.860, 2333.058
1098.342, 2342.414
1098.824, 2376.076
1099.306, 2375.729
1099.788, 2389.601
1100.270, 2361.378
1100.752, 2372.700
1101.234, 2373.123
1101.717, 2411.216
1102.199, 2419.568
1102.681, 2392.060
1103.163, 2364.703
1103.645, 2405.502
1104.127, 2381.702
1104.609, 2392.753
1105.091, 2367.811
1105.573, 2373.946
1106.056, 2379.593
1106.538, 2401.166
1107.020, 2374.432
1107.502, 2410.359
1107.984, 2410.071
1108.466, 2420.450
1108.948, 2429.643
1109.430, 2390.236
1109.912, 2390.668
1110.395, 2448.114
1110.877, 2431.979
1111.359, 2445.655
1111.841, 2461.279
1112.323, 2466.386
1112.805, 2463.399
1113.287, 2461.154
1113.769, 2465.201
1114.252, 2466.167
1114.734, 2458.167
1115.216, 2446.318
1115.698, 2433.900
1116.180, 2420.352
1116.662, 2416.573
1117.144, 2422.778
1117.626, 2429.076
1118.109, 2426.907
1118.591, 2423.438
1119.073, 2425.422
1119.555, 2431.083
1120.037, 2433.101
1120.519, 2431.032
1121.001, 2425.084
1121.483, 2413.228
1121.965, 2404.556
1122.448, 2413.463
1122.930, 2431.710
1123.412, 2449.079
1123.894, 2464.888
1124.376, 2472.553
1124.858, 2469.073
1125.340, 2462.143
1125.822, 2451.863
1126.304, 2442.726
1126.787, 2452.731
1127.269, 2474.812
1127.751, 2487.891
1128.233, 2481.137
1128.715, 2468.032
1129.197, 2440.761
1129.679, 2419.348
1130.161, 2427.110
1130.644, 2461.693
1131.126, 2477.927
1131.608, 2475.190
1132.090, 2469.892
1132.572, 2476.800
1133.054, 2480.546
1133.536, 2466.079
1134.018, 2441.827
1134.500, 2430.504
1134.983, 2433.022
1135.465, 2441.699
1135.947, 2457.676
1136.429, 2467.203
1136.911, 2444.098
1137.393, 2414.630
1137.875, 2408.295
1138.357, 2432.086
1138.839, 2451.058
1139.322, 2465.266
1139.804, 2473.362
1140.286, 2473.151
1140.768, 2468.587
1141.250, 2463.961
1141.732, 2460.642
1142.214, 2461.795
1142.696, 2479.118
1143.179, 2478.784
1143.661, 2447.094
1144.143, 2419.023
1144.625, 2429.661
1145.107, 2465.728
1145.589, 2486.186
1146.071, 2491.255
1146.553, 2488.307
1147.036, 2472.479
1147.518, 2459.288
1148.000, 2453.548
1148.482, 2452.191
1148.964, 2450.288
1149.446, 2448.208
1149.928, 2449.819
1150.410, 2456.148
1150.892, 2459.224
1151.375, 2447.829
1151.857, 2437.130
1152.339, 2438.454
1152.821, 2449.142
1153.303, 2455.608
1153.785, 2457.906
1154.267, 2458.478
1154.749, 2459.297
1155.231, 2456.012
1155.714, 2435.188
1156.196, 2413.480
1156.678, 2413.715
1157.160, 2442.194
1157.642, 2456.550
1158.124, 2455.581
1158.606, 2449.166
1159.088, 2438.451
1159.571, 2429.691
1160.053, 2435.208
1160.535, 2447.734
1161.017, 2448.453
1161.499, 2425.977
1161.981, 2412.166
1162.463, 2410.107
1162.945, 2414.105
1163.427, 2421.244
1163.910, 2428.862
1164.392, 2433.399
1164.874, 2434.517
1165.356, 2431.306
1165.838, 2419.427
1166.320, 2410.100
1166.802, 2406.125
1167.284, 2405.104
1167.766, 2403.316
1168.249, 2401.016
1168.731, 2397.988
1169.213, 2393.348
1169.695, 2393.034
1170.177, 2407.722
1170.659, 2416.098
1171.141, 2405.642
1171.623, 2383.356
1172.106, 2374.252
1172.588, 2375.740
1173.070, 2377.846
1173.552, 2379.145
1174.034, 2376.208
1174.516, 2360.971
1174.998, 2346.652
1175.480, 2346.023
1175.963, 2358.083
1176.445, 2357.837
1176.927, 2346.210
1177.409, 2333.782
1177.891, 2325.259
1178.373, 2319.699
1178.855, 2315.910
1179.337, 2315.299
1179.819, 2323.327
1180.302, 2340.438
1180.784, 2342.353
1181.266, 2325.941
1181.748, 2308.954
1182.230, 2307.193
1182.712, 2308.149
1183.194, 2301.588
1183.676, 2289.833
1184.158, 2283.604
1184.641, 2287.018
1185.123, 2294.159
1185.605, 2297.595
1186.087, 2297.523
1186.569, 2283.440
1187.051, 2287.450
1187.533, 2284.209
1188.015, 2280.670
1188.498, 2287.224
1188.980, 2275.178
1189.462, 2281.574
1189.944, 2280.609
1190.426, 2283.013
1190.908, 2278.122
1191.390, 2275.483
1191.872, 2280.143
1192.354, 2280.761
1192.837, 2275.027
1193.319, 2277.645
1193.801, 2265.345
1194.283, 2266.136
1194.765, 2272.575
1195.247, 2267.210
1195.729, 2269.962
1196.211, 2269.622
1196.693, 2255.235
1197.176, 2254.929
1197.658, 2257.419
1198.140, 2254.563
1198.622, 2236.010
1199.104, 2214.633
1199.586, 2213.905
1200.068, 2231.185
1200.550, 2236.710
1201.033, 2216.122
1201.515, 2203.695
1201.997, 2207.287
1202.479, 2216.700
1202.961, 2219.663
1203.443, 2217.472
1203.925, 2210.475
1204.407, 2198.355
1204.890, 2191.542
1205.372, 2196.419
1205.854, 2196.667
1206.336, 2184.888
1206.818, 2168.310
1207.300, 2158.727
1207.782, 2156.148
1208.264, 2162.418
1208.746, 2181.813
1209.229, 2196.469
1209.711, 2205.343
1210.193, 2206.892
1210.675, 2196.277
1211.157, 2180.642
1211.639, 2180.728
1212.121, 2190.395
1212.603, 2193.348
1213.085, 2176.994
1213.568, 2165.057
1214.050, 2158.520
1214.532, 2159.457
1215.014, 2176.430
1215.496, 2200.628
1215.978, 2203.635
1216.460, 2188.892
1216.942, 2171.498
1217.425, 2144.498
1217.907, 2136.355
1218.389, 2158.714
1218.871, 2187.483
1219.353, 2194.170
1219.835, 2184.971
1220.317, 2174.031
1220.799, 2163.158
1221.281, 2158.750
1221.764, 2170.154
1222.246, 2179.876
1222.728, 2184.549
1223.210, 2184.844
1223.692, 2180.636
1224.174, 2173.121
1224.656, 2163.846
1225.138, 2152.851
1225.620, 2147.697
1226.103, 2161.241
1226.585, 2167.750
1227.067, 2156.136
1227.549, 2136.824
1228.031, 2135.081
1228.513, 2144.580
1228.995, 2148.370
1229.477, 2142.025
1229.960, 2132.986
1230.442, 2119.830
1230.924, 2109.368
1231.406, 2103.794
1231.888, 2103.869
1232.370, 2116.299
1232.852, 2136.067
1233.334, 2148.857
1233.816, 2144.476
1234.299, 2146.334
1234.781, 2164.985
1235.263, 2181.289
1235.745, 2180.084
1236.227, 2167.808
1236.709, 2163.477
1237.191, 2165.827
1237.673, 2170.877
1238.156, 2188.802
1238.638, 2189.565
1239.120, 2159.588
1239.602, 2130.802
1240.084, 2139.598
1240.566, 2169.952
1241.048, 2179.324
1241.530, 2169.677
1242.012, 2154.759
1242.495, 2123.597
1242.977, 2114.506
1243.459, 2141.788
1243.941, 2173.750
1244.423, 2167.917
1244.905, 2141.702
1245.387, 2133.176
1245.869, 2143.071
1246.351, 2156.725
1246.834, 2179.683
1247.316, 2188.507
1247.798, 2174.474
1248.280, 2155.258
1248.762, 2155.531
1249.244, 2167.835
1249.726, 2183.039
1250.208, 2199.728
1250.691, 2197.515
1251.173, 2157.229
1251.655, 2132.901
1252.137, 2141.510
1252.619, 2163.938
1253.101, 2175.801
1253.583, 2178.623
1254.065, 2170.924
1254.547, 2150.443
1255.030, 2146.173
1255.512, 2167.509
1255.994, 2183.255
1256.476, 2180.690
1256.958, 2170.490
1257.440, 2168.808
1257.922, 2170.504
1258.404, 2166.714
1258.886, 2152.988
1259.369, 2149.779
1259.851, 2161.111
1260.333, 2165.888
1260.815, 2145.090
1261.297, 2126.908
1261.779, 2163.517
1262.261, 2221.108
1262.743, 2246.052
1263.226, 2221.133
1263.708, 2209.550
1264.190, 2213.755
1264.672, 2214.656
1265.154, 2195.583
1265.636, 2174.242
1266.118, 2170.870
1266.600, 2177.004
1267.083, 2178.681
1267.565, 2173.872
1268.047, 2167.719
1268.529, 2159.589
1269.011, 2159.729
1269.493, 2182.688
1269.975, 2208.905
1270.457, 2229.664
1270.939, 2239.589
1271.422, 2228.975
1271.904, 2193.541
1272.386, 2175.274
1272.868, 2175.535
1273.350, 2183.259
1273.832, 2201.606
1274.314, 2213.464
1274.796, 2198.743
1275.278, 2175.051
1275.761, 2171.586
1276.243, 2187.480
1276.725, 2200.113
1277.207, 2207.830
1277.689, 2212.838
1278.171, 2222.448
1278.653, 2222.210
1279.135, 2196.847
1279.618, 2165.146
1280.100, 2161.407
1280.582, 2179.690
1281.064, 2187.696
1281.546, 2182.094
1282.028, 2179.462
1282.510, 2195.558
1282.992, 2206.509
1283.474, 2202.582
1283.957, 2192.623
1284.439, 2192.356
1284.921, 2199.105
1285.403, 2207.567
1285.885, 2217.135
1286.367, 2219.239
1286.849, 2202.675
1287.331, 2191.686
1287.813, 2194.050
##END=



