##NAMES=Heulandite-Ca
##RRUFFID=R050647
##IDEAL CHEMISTRY=(Ca,Na,K)_5_(Si_27_Al_9_)O_72_&#183;26H_2_O
##LOCALITY=Rat's Nest Claim, Custer County, Idaho, USA
##OWNER=RRUFF
##SOURCE=John Cornish
##DESCRIPTION=Pink anhedral grains
##STATUS=The identification of this mineral is confirmed by single-crystal X-ray diffraction and chemical analysis.
##URL=rruff.info/R050647
##MEASURED CHEMISTRY=(Ca_0.69_Na_0.25_K_0.06_)_5_(Si_0.80_Al_0.20_)_36_O_72_Â·24H_2_O
163.1608, 6812.611
163.6429, 6845.093
164.1250, 6853.798
164.6071, 6849.415
165.0893, 6842.914
165.5714, 6830.213
166.0535, 6822.337
166.5356, 6826.404
167.0177, 6842.608
167.4998, 6866.987
167.9820, 6907.744
168.4641, 6953.775
168.9462, 6988.090
169.4283, 6986.597
169.9104, 6979.029
170.3925, 6997.924
170.8747, 7049.801
171.3568, 7100.538
171.8389, 7115.118
172.3210, 7105.958
172.8031, 7103.675
173.2852, 7133.798
173.7674, 7177.580
174.2495, 7210.699
174.7316, 7229.999
175.2137, 7238.608
175.6958, 7226.080
176.1779, 7199.844
176.6601, 7193.875
177.1422, 7253.824
177.6243, 7347.646
178.1064, 7408.820
178.5885, 7412.618
179.0706, 7393.702
179.5528, 7401.646
180.0349, 7434.761
180.5170, 7470.923
180.9991, 7495.437
181.4812, 7509.714
181.9633, 7516.574
182.4455, 7509.309
182.9276, 7499.558
183.4097, 7512.837
183.8918, 7549.767
184.3739, 7596.281
184.8560, 7646.778
185.3382, 7698.476
185.8203, 7732.084
186.3024, 7724.654
186.7845, 7693.694
187.2666, 7708.885
187.7487, 7778.301
188.2309, 7854.666
188.7130, 7871.763
189.1951, 7833.067
189.6772, 7797.353
190.1593, 7784.814
190.6414, 7795.533
191.1236, 7836.379
191.6057, 7916.910
192.0878, 8003.580
192.5699, 8035.327
193.0520, 8010.077
193.5342, 7978.763
194.0163, 7965.223
194.4984, 7969.222
194.9805, 7984.542
195.4626, 8014.462
195.9447, 8050.552
196.4269, 8073.715
196.9090, 8082.719
197.3911, 8086.635
197.8732, 8090.083
198.3553, 8093.013
198.8374, 8095.600
199.3196, 8096.320
199.8017, 8097.555
200.2838, 8108.913
200.7659, 8133.211
201.2480, 8157.406
201.7301, 8172.157
202.2123, 8176.779
202.6944, 8175.850
203.1765, 8166.549
203.6586, 8152.232
204.1407, 8153.536
204.6228, 8176.223
205.1050, 8200.500
205.5871, 8205.291
206.0692, 8183.882
206.5513, 8174.003
207.0334, 8190.533
207.5155, 8230.078
207.9977, 8238.003
208.4798, 8200.452
208.9619, 8155.323
209.4440, 8147.508
209.9261, 8191.091
210.4082, 8226.379
210.8904, 8236.776
211.3725, 8221.408
211.8546, 8203.776
212.3367, 8179.632
212.8188, 8158.514
213.3009, 8153.836
213.7831, 8169.921
214.2652, 8191.553
214.7473, 8216.149
215.2294, 8244.396
215.7115, 8267.295
216.1936, 8283.771
216.6758, 8295.892
217.1579, 8308.051
217.6400, 8324.638
218.1221, 8332.054
218.6042, 8321.701
219.0863, 8283.878
219.5685, 8265.058
220.0506, 8273.098
220.5327, 8295.070
221.0148, 8301.538
221.4969, 8275.259
221.9790, 8263.988
222.4612, 8293.783
222.9433, 8392.808
223.4254, 8457.828
223.9075, 8480.820
224.3896, 8472.486
224.8717, 8457.553
225.3539, 8426.583
225.8360, 8403.459
226.3181, 8402.734
226.8002, 8442.126
227.2823, 8461.491
227.7645, 8448.487
228.2466, 8415.395
228.7287, 8403.902
229.2108, 8422.310
229.6929, 8450.589
230.1750, 8479.697
230.6572, 8514.967
231.1393, 8539.358
231.6214, 8544.907
232.1035, 8537.810
232.5856, 8550.555
233.0677, 8603.435
233.5499, 8649.746
234.0320, 8656.658
234.5141, 8590.288
234.9962, 8553.535
235.4783, 8564.785
235.9604, 8616.169
236.4426, 8655.704
236.9247, 8676.988
237.4068, 8693.543
237.8889, 8715.870
238.3710, 8752.959
238.8531, 8776.944
239.3353, 8776.022
239.8174, 8754.467
240.2995, 8760.880
240.7816, 8820.030
241.2637, 8879.547
241.7458, 8895.120
242.2280, 8832.726
242.7101, 8792.619
243.1922, 8794.095
243.6743, 8835.084
244.1564, 8874.162
244.6385, 8919.780
245.1207, 8954.315
245.6028, 8958.705
246.0849, 8908.436
246.5670, 8875.662
247.0491, 8874.571
247.5313, 8905.188
248.0134, 8939.250
248.4955, 8980.726
248.9776, 9021.631
249.4597, 9054.265
249.9418, 9075.708
250.4240, 9095.445
250.9061, 9120.270
251.3882, 9150.859
251.8703, 9150.055
252.3524, 9096.698
252.8345, 9035.906
253.3167, 9015.622
253.7988, 9056.370
254.2809, 9094.132
254.7630, 9114.713
255.2451, 9117.290
255.7272, 9125.421
256.2094, 9140.770
256.6915, 9159.639
257.1736, 9176.643
257.6557, 9186.416
258.1378, 9207.435
258.6199, 9249.891
259.1021, 9315.546
259.5842, 9357.438
260.0663, 9368.048
260.5484, 9363.191
261.0305, 9358.515
261.5126, 9352.355
261.9948, 9350.963
262.4769, 9358.329
262.9590, 9374.898
263.4411, 9381.199
263.9232, 9371.308
264.4053, 9359.175
264.8875, 9362.649
265.3696, 9387.178
265.8517, 9410.779
266.3338, 9426.616
266.8159, 9434.596
267.2980, 9448.776
267.7802, 9473.516
268.2623, 9498.059
268.7444, 9510.748
269.2265, 9511.234
269.7086, 9500.416
270.1907, 9471.121
270.6729, 9423.555
271.1550, 9406.669
271.6371, 9427.279
272.1192, 9465.932
272.6013, 9503.226
273.0834, 9540.849
273.5656, 9567.980
274.0477, 9578.809
274.5298, 9574.292
275.0119, 9568.107
275.4940, 9553.689
275.9761, 9552.810
276.4583, 9607.508
276.9404, 9729.810
277.4225, 9813.459
277.9046, 9812.413
278.3867, 9736.770
278.8688, 9689.990
279.3510, 9675.278
279.8331, 9679.978
280.3152, 9693.905
280.7973, 9717.569
281.2794, 9739.340
281.7616, 9757.938
282.2437, 9772.138
282.7258, 9769.679
283.2079, 9746.263
283.6900, 9723.957
284.1721, 9734.657
284.6543, 9776.803
285.1364, 9807.078
285.6185, 9800.913
286.1006, 9772.942
286.5827, 9789.936
287.0648, 9858.354
287.5470, 9930.956
288.0291, 9952.503
288.5112, 9928.762
288.9933, 9904.761
289.4754, 9891.544
289.9576, 9888.644
290.4397, 9897.758
290.9218, 9919.535
291.4039, 9943.713
291.8860, 9956.771
292.3681, 9962.235
292.8503, 9977.854
293.3324, 10020.05
293.8145, 10069.93
294.2966, 10083.83
294.7787, 10061.41
295.2608, 10029.55
295.7430, 10006.53
296.2251, 9992.684
296.7072, 9987.836
297.1893, 9993.402
297.6714, 10006.90
298.1535, 10029.32
298.6357, 10059.68
299.1178, 10085.10
299.5999, 10088.39
300.0820, 10079.47
300.5641, 10078.68
301.0462, 10096.96
301.5284, 10120.59
302.0105, 10137.95
302.4926, 10148.20
302.9747, 10143.97
303.4568, 10094.50
303.9389, 10033.22
304.4211, 10011.61
304.9032, 10060.65
305.3853, 10130.76
305.8674, 10189.43
306.3495, 10234.37
306.8316, 10256.07
307.3138, 10227.01
307.7959, 10180.06
308.2780, 10151.55
308.7601, 10151.17
309.2422, 10169.43
309.7243, 10214.70
310.2065, 10277.37
310.6886, 10324.55
311.1707, 10325.98
311.6528, 10311.31
312.1349, 10305.11
312.6170, 10313.70
313.0992, 10328.75
313.5813, 10349.96
314.0634, 10374.95
314.5455, 10397.65
315.0276, 10419.30
315.5097, 10435.41
315.9919, 10440.61
316.4740, 10426.67
316.9561, 10419.47
317.4382, 10435.66
317.9203, 10464.76
318.4024, 10485.64
318.8846, 10482.20
319.3667, 10476.66
319.8488, 10482.12
320.3309, 10508.60
320.8130, 10522.26
321.2951, 10495.32
321.7773, 10454.84
322.2594, 10443.83
322.7415, 10505.05
323.2236, 10565.33
323.7057, 10599.05
324.1878, 10595.30
324.6700, 10595.20
325.1521, 10603.54
325.6342, 10616.68
326.1163, 10630.05
326.5984, 10641.45
327.0805, 10654.93
327.5627, 10671.05
328.0448, 10689.78
328.5269, 10712.62
329.0090, 10757.60
329.4911, 10796.10
329.9732, 10796.55
330.4554, 10723.45
330.9375, 10664.37
331.4196, 10634.14
331.9017, 10633.28
332.3838, 10653.87
332.8659, 10711.08
333.3481, 10772.93
333.8302, 10813.06
334.3123, 10828.29
334.7944, 10827.93
335.2765, 10805.60
335.7586, 10766.10
336.2408, 10750.21
336.7229, 10761.81
337.2050, 10787.98
337.6871, 10820.70
338.1692, 10861.54
338.6513, 10902.88
339.1335, 10946.93
339.6156, 10989.45
340.0977, 11019.81
340.5798, 11038.37
341.0619, 11040.39
341.5440, 11008.18
342.0262, 10942.71
342.5083, 10916.49
342.9904, 10945.31
343.4725, 11002.70
343.9546, 11040.97
344.4367, 11059.52
344.9189, 11068.18
345.4010, 11066.51
345.8831, 11058.15
346.3652, 11057.55
346.8473, 11065.85
347.3294, 11081.98
347.8116, 11109.71
348.2937, 11146.52
348.7758, 11178.63
349.2579, 11193.47
349.7400, 11200.88
350.2222, 11223.29
350.7043, 11263.25
351.1864, 11301.38
351.6685, 11314.23
352.1506, 11310.33
352.6328, 11309.06
353.1149, 11326.13
353.5970, 11345.61
354.0791, 11346.32
354.5612, 11328.38
355.0433, 11314.99
355.5255, 11326.05
356.0076, 11350.18
356.4897, 11373.27
356.9718, 11385.68
357.4539, 11399.49
357.9360, 11426.06
358.4182, 11462.96
358.9003, 11493.67
359.3824, 11500.99
359.8645, 11503.62
360.3466, 11517.54
360.8287, 11558.88
361.3109, 11595.71
361.7930, 11613.13
362.2751, 11616.73
362.7572, 11624.48
363.2393, 11641.11
363.7214, 11663.43
364.2036, 11689.61
364.6857, 11718.23
365.1678, 11752.61
365.6499, 11807.42
366.1320, 11867.37
366.6141, 11901.48
367.0963, 11880.25
367.5784, 11857.92
368.0605, 11851.70
368.5426, 11867.46
369.0247, 11879.15
369.5068, 11877.29
369.9890, 11876.50
370.4711, 11896.30
370.9532, 11949.51
371.4353, 12002.63
371.9174, 12049.14
372.3995, 12088.91
372.8817, 12122.25
373.3638, 12150.68
373.8459, 12169.98
374.3280, 12170.72
374.8101, 12144.37
375.2922, 12134.48
375.7744, 12151.72
376.2565, 12190.93
376.7386, 12233.82
377.2207, 12281.28
377.7028, 12326.91
378.1849, 12364.87
378.6671, 12395.65
379.1492, 12425.50
379.6313, 12457.31
380.1134, 12485.76
380.5955, 12495.80
381.0776, 12488.61
381.5598, 12485.53
382.0419, 12494.63
382.5240, 12517.45
383.0061, 12565.82
383.4882, 12647.51
383.9703, 12725.99
384.4525, 12747.79
384.9346, 12730.92
385.4167, 12728.35
385.8988, 12769.20
386.3809, 12835.84
386.8630, 12918.35
387.3452, 13016.33
387.8273, 13094.90
388.3094, 13102.77
388.7915, 13079.82
389.2736, 13079.67
389.7557, 13129.05
390.2379, 13200.31
390.7200, 13292.45
391.2021, 13398.82
391.6842, 13482.76
392.1663, 13502.43
392.6484, 13505.60
393.1306, 13527.72
393.6127, 13588.15
394.0948, 13650.29
394.5769, 13707.10
395.0590, 13758.80
395.5411, 13804.58
396.0233, 13833.86
396.5054, 13865.41
396.9875, 13908.68
397.4696, 13974.11
397.9517, 14027.15
398.4338, 14061.41
398.9160, 14084.76
399.3981, 14108.72
399.8802, 14148.21
400.3623, 14167.20
400.8444, 14150.69
401.3265, 14096.06
401.8087, 14058.01
402.2908, 14040.77
402.7729, 14034.59
403.2550, 14033.73
403.7371, 14042.22
404.2192, 14039.95
404.7014, 14020.45
405.1835, 13989.02
405.6656, 13967.01
406.1477, 13956.65
406.6298, 13944.60
407.1119, 13918.05
407.5941, 13878.46
408.0762, 13849.69
408.5583, 13836.58
409.0404, 13830.06
409.5225, 13823.97
410.0046, 13816.03
410.4868, 13788.70
410.9689, 13707.26
411.4510, 13604.27
411.9331, 13560.23
412.4152, 13579.75
412.8973, 13608.27
413.3795, 13602.32
413.8616, 13568.69
414.3437, 13518.93
414.8258, 13436.91
415.3079, 13357.15
415.7900, 13317.35
416.2722, 13311.45
416.7543, 13305.69
417.2364, 13275.27
417.7185, 13239.96
418.2006, 13217.51
418.6827, 13221.76
419.1649, 13223.24
419.6470, 13214.37
420.1291, 13194.70
420.6112, 13163.27
421.0934, 13094.39
421.5755, 13035.19
422.0576, 13008.92
422.5397, 13031.75
423.0218, 13041.56
423.5039, 13020.51
423.9861, 12989.75
424.4682, 12972.63
424.9503, 12979.55
425.4324, 12985.28
425.9145, 12983.73
426.3966, 12975.44
426.8788, 12975.67
427.3609, 12990.54
427.8430, 13004.42
428.3251, 13006.85
428.8072, 12997.49
429.2893, 12977.13
429.7715, 12943.03
430.2536, 12900.65
430.7357, 12864.09
431.2178, 12834.01
431.6999, 12803.59
432.1820, 12757.60
432.6642, 12703.98
433.1463, 12697.06
433.6284, 12743.54
434.1105, 12807.13
434.5926, 12852.87
435.0747, 12881.23
435.5569, 12892.70
436.0390, 12877.88
436.5211, 12853.33
437.0032, 12839.27
437.4853, 12835.42
437.9674, 12839.02
438.4496, 12870.71
438.9317, 12899.82
439.4138, 12881.70
439.8959, 12768.42
440.3780, 12679.74
440.8601, 12718.91
441.3423, 12834.38
441.8244, 12911.82
442.3065, 12866.48
442.7886, 12807.52
443.2707, 12789.10
443.7528, 12825.00
444.2350, 12859.58
444.7171, 12885.41
445.1992, 12903.63
445.6813, 12915.16
446.1634, 12915.58
446.6455, 12913.96
447.1277, 12900.58
447.6098, 12880.54
448.0919, 12904.10
448.5740, 13006.52
449.0561, 13101.90
449.5382, 13132.81
450.0204, 13072.50
450.5025, 13048.79
450.9846, 13074.70
451.4667, 13129.72
451.9488, 13178.87
452.4309, 13222.33
452.9131, 13261.76
453.3952, 13296.27
453.8773, 13327.13
454.3594, 13367.62
454.8415, 13420.20
455.3236, 13461.20
455.8058, 13453.63
456.2879, 13414.64
456.7700, 13395.51
457.2521, 13416.47
457.7342, 13453.24
458.2163, 13474.55
458.6985, 13485.08
459.1806, 13503.16
459.6627, 13551.08
460.1448, 13604.71
460.6269, 13638.68
461.1090, 13645.51
461.5912, 13653.83
462.0733, 13687.55
462.5554, 13728.65
463.0375, 13753.42
463.5196, 13717.66
464.0017, 13701.21
464.4839, 13749.67
464.9660, 13858.68
465.4481, 13924.73
465.9302, 13893.92
466.4123, 13848.78
466.8944, 13833.99
467.3766, 13861.92
467.8587, 13901.35
468.3408, 13964.38
468.8229, 14033.28
469.3050, 14065.79
469.7871, 14043.00
470.2693, 14034.03
470.7514, 14069.77
471.2335, 14148.86
471.7156, 14199.50
472.1977, 14215.20
472.6798, 14228.41
473.1620, 14277.50
473.6441, 14357.69
474.1262, 14426.29
474.6083, 14474.95
475.0904, 14506.79
475.5725, 14517.06
476.0547, 14510.57
476.5368, 14512.75
477.0189, 14538.79
477.5010, 14582.51
477.9831, 14645.27
478.4652, 14731.21
478.9474, 14799.68
479.4295, 14800.81
479.9116, 14772.21
480.3937, 14763.42
480.8758, 14825.86
481.3579, 14878.06
481.8401, 14882.14
482.3222, 14844.30
482.8043, 14802.36
483.2864, 14749.60
483.7685, 14708.32
484.2506, 14693.23
484.7328, 14733.10
485.2149, 14745.11
485.6970, 14719.74
486.1791, 14671.35
486.6612, 14619.00
487.1433, 14560.76
487.6255, 14503.08
488.1076, 14444.92
488.5897, 14387.75
489.0718, 14342.77
489.5539, 14312.13
490.0360, 14286.08
490.5182, 14256.56
491.0003, 14224.06
491.4824, 14196.79
491.9645, 14178.31
492.4467, 14157.97
492.9288, 14110.69
493.4109, 14044.20
493.8930, 13991.10
494.3751, 13975.87
494.8572, 13979.44
495.3394, 13982.61
495.8215, 13984.60
496.3036, 13974.96
496.7857, 13923.77
497.2678, 13867.39
497.7499, 13847.37
498.2321, 13900.63
498.7142, 13946.63
499.1963, 13947.90
499.6784, 13918.45
500.1605, 13889.27
500.6426, 13865.99
501.1248, 13845.02
501.6069, 13820.25
502.0890, 13786.54
502.5711, 13781.67
503.0532, 13828.97
503.5353, 13883.68
504.0175, 13906.63
504.4996, 13881.03
504.9817, 13871.81
505.4638, 13894.29
505.9459, 13931.06
506.4280, 13930.30
506.9102, 13885.85
507.3923, 13847.34
507.8744, 13842.30
508.3565, 13864.24
508.8386, 13883.24
509.3207, 13899.73
509.8029, 13907.70
510.2850, 13891.76
510.7671, 13863.16
511.2492, 13847.66
511.7313, 13854.89
512.2134, 13873.27
512.6956, 13902.11
513.1777, 13934.74
513.6598, 13952.41
514.1419, 13924.49
514.6240, 13895.00
515.1061, 13895.63
515.5883, 13933.98
516.0704, 13964.20
516.5525, 13965.55
517.0346, 13957.44
517.5167, 13956.96
517.9988, 13979.86
518.4810, 13992.93
518.9631, 13987.44
519.4452, 13971.02
519.9273, 13967.98
520.4094, 13983.31
520.8915, 14002.20
521.3737, 14019.45
521.8558, 14035.14
522.3379, 14050.75
522.8200, 14068.34
523.3021, 14078.55
523.7842, 14055.52
524.2664, 14007.95
524.7485, 14007.43
525.2306, 14088.20
525.7127, 14191.15
526.1948, 14223.85
526.6769, 14198.55
527.1591, 14166.49
527.6412, 14150.41
528.1233, 14144.53
528.6054, 14139.25
529.0875, 14133.58
529.5696, 14146.29
530.0518, 14216.07
530.5339, 14294.55
531.0160, 14337.96
531.4981, 14301.76
531.9802, 14270.32
532.4623, 14252.16
532.9445, 14249.95
533.4266, 14272.43
533.9087, 14351.54
534.3908, 14415.85
534.8729, 14443.92
535.3550, 14434.17
535.8372, 14414.89
536.3193, 14382.49
536.8014, 14347.30
537.2835, 14313.16
537.7656, 14279.06
538.2477, 14269.50
538.7299, 14292.45
539.2120, 14331.21
539.6941, 14358.13
540.1762, 14375.24
540.6583, 14394.20
541.1404, 14426.85
541.6226, 14461.58
542.1047, 14482.26
542.5868, 14489.46
543.0689, 14488.28
543.5510, 14471.48
544.0331, 14453.54
544.5153, 14449.12
544.9974, 14467.60
545.4795, 14485.56
545.9616, 14483.23
546.4437, 14477.92
546.9258, 14496.82
547.4080, 14587.57
547.8901, 14654.29
548.3722, 14670.08
548.8543, 14639.19
549.3364, 14622.20
549.8185, 14625.33
550.3007, 14631.54
550.7828, 14628.51
551.2649, 14613.72
551.7470, 14614.00
552.2291, 14633.98
552.7112, 14659.13
553.1934, 14672.26
553.6755, 14673.90
554.1576, 14664.66
554.6397, 14629.39
555.1218, 14600.11
555.6039, 14638.94
556.0861, 14731.67
556.5682, 14814.11
557.0503, 14845.37
557.5324, 14850.91
558.0145, 14853.22
558.4966, 14855.84
558.9788, 14846.30
559.4609, 14793.82
559.9430, 14739.41
560.4251, 14720.95
560.9072, 14785.43
561.3893, 14837.47
561.8715, 14865.33
562.3536, 14874.52
562.8357, 14876.78
563.3178, 14868.52
563.7999, 14860.59
564.2820, 14858.55
564.7642, 14861.87
565.2463, 14852.11
565.7284, 14825.16
566.2105, 14802.50
566.6926, 14801.79
567.1747, 14820.92
567.6569, 14852.45
568.1390, 14897.70
568.6211, 14946.25
569.1032, 14996.83
569.5853, 15040.80
570.0674, 15058.29
570.5496, 15001.64
571.0317, 14948.33
571.5138, 14961.77
571.9959, 15031.18
572.4780, 15090.25
572.9601, 15109.06
573.4423, 15114.33
573.9244, 15117.64
574.4065, 15113.94
574.8886, 15126.81
575.3707, 15175.95
575.8528, 15227.34
576.3350, 15244.66
576.8171, 15215.06
577.2992, 15186.81
577.7813, 15165.78
578.2634, 15151.07
578.7455, 15137.05
579.2277, 15123.25
579.7098, 15124.68
580.1919, 15170.03
580.6740, 15234.16
581.1561, 15233.38
581.6382, 15169.29
582.1204, 15118.50
582.6025, 15164.20
583.0846, 15249.81
583.5667, 15300.74
584.0488, 15287.10
584.5309, 15276.66
585.0131, 15317.72
585.4952, 15379.88
585.9773, 15418.36
586.4594, 15400.88
586.9415, 15382.17
587.4236, 15369.56
587.9058, 15364.42
588.3879, 15378.09
588.8700, 15426.35
589.3521, 15467.88
589.8342, 15478.18
590.3163, 15452.95
590.7985, 15456.49
591.2806, 15494.44
591.7627, 15541.83
592.2448, 15572.80
592.7269, 15590.02
593.2090, 15609.17
593.6912, 15641.30
594.1733, 15658.35
594.6554, 15594.63
595.1375, 15486.30
595.6196, 15426.68
596.1017, 15502.05
596.5839, 15603.96
597.0660, 15664.37
597.5482, 15685.71
598.0303, 15705.16
598.5124, 15731.79
598.9945, 15761.55
599.4766, 15793.39
599.9587, 15831.91
600.4409, 15860.21
600.9230, 15876.92
601.4051, 15884.24
601.8872, 15881.89
602.3693, 15867.20
602.8514, 15855.01
603.3336, 15843.62
603.8157, 15841.34
604.2978, 15878.02
604.7799, 15948.94
605.2620, 16004.11
605.7441, 15997.68
606.2263, 15970.21
606.7084, 15998.93
607.1905, 16076.98
607.6726, 16126.60
608.1547, 16048.49
608.6368, 15952.25
609.1190, 15937.70
609.6011, 16053.25
610.0832, 16148.69
610.5653, 16161.80
611.0474, 16143.14
611.5295, 16151.60
612.0117, 16231.22
612.4938, 16268.74
612.9759, 16234.54
613.4580, 16158.42
613.9401, 16120.08
614.4222, 16125.33
614.9044, 16142.25
615.3865, 16162.08
615.8686, 16183.13
616.3507, 16196.62
616.8328, 16202.53
617.3149, 16210.48
617.7971, 16242.63
618.2792, 16276.31
618.7613, 16269.49
619.2434, 16208.83
619.7255, 16152.15
620.2076, 16144.37
620.6898, 16159.22
621.1719, 16166.81
621.6540, 16156.27
622.1361, 16141.27
622.6182, 16108.71
623.1003, 16074.19
623.5825, 16080.00
624.0646, 16154.29
624.5467, 16219.71
625.0288, 16253.76
625.5109, 16259.27
625.9930, 16260.41
626.4752, 16256.80
626.9573, 16251.07
627.4394, 16244.34
627.9215, 16236.92
628.4036, 16230.30
628.8857, 16224.65
629.3679, 16218.69
629.8500, 16218.30
630.3321, 16214.71
630.8142, 16191.69
631.2963, 16115.44
631.7784, 16065.41
632.2606, 16095.88
632.7427, 16173.73
633.2248, 16235.72
633.7069, 16267.28
634.1890, 16284.56
634.6711, 16288.16
635.1533, 16279.52
635.6354, 16267.97
636.1175, 16249.17
636.5996, 16239.03
637.0817, 16248.79
637.5638, 16277.19
638.0460, 16304.67
638.5281, 16331.34
639.0102, 16356.95
639.4923, 16385.65
639.9744, 16412.63
640.4565, 16424.02
640.9387, 16410.90
641.4208, 16401.60
641.9029, 16428.66
642.3850, 16470.42
642.8671, 16493.63
643.3492, 16478.68
643.8314, 16454.11
644.3135, 16411.97
644.7956, 16363.61
645.2777, 16354.43
645.7598, 16415.31
646.2419, 16465.62
646.7241, 16468.32
647.2062, 16428.04
647.6883, 16435.06
648.1704, 16496.70
648.6525, 16562.31
649.1346, 16588.84
649.6168, 16587.23
650.0989, 16594.26
650.5810, 16614.30
651.0631, 16634.34
651.5452, 16644.85
652.0273, 16647.80
652.5095, 16645.61
652.9916, 16635.38
653.4737, 16625.77
653.9558, 16622.90
654.4379, 16622.62
654.9200, 16616.80
655.4022, 16586.20
655.8843, 16573.89
656.3664, 16598.68
656.8485, 16649.28
657.3306, 16659.88
657.8127, 16616.56
658.2949, 16587.00
658.7770, 16620.23
659.2591, 16700.38
659.7412, 16742.92
660.2233, 16747.55
660.7054, 16733.68
661.1876, 16704.33
661.6697, 16671.38
662.1518, 16650.25
662.6339, 16642.67
663.1160, 16650.34
663.5981, 16694.03
664.0803, 16744.72
664.5624, 16770.92
665.0445, 16742.08
665.5266, 16718.10
666.0087, 16696.00
666.4908, 16684.82
666.9730, 16710.52
667.4551, 16792.35
667.9372, 16845.49
668.4193, 16835.46
668.9014, 16785.72
669.3835, 16778.93
669.8657, 16813.34
670.3478, 16843.14
670.8299, 16825.55
671.3120, 16793.67
671.7941, 16802.56
672.2762, 16851.98
672.7584, 16895.41
673.2405, 16896.99
673.7226, 16887.12
674.2047, 16892.98
674.6868, 16933.09
675.1689, 16947.20
675.6511, 16893.84
676.1332, 16834.15
676.6153, 16827.92
677.0974, 16900.66
677.5795, 16949.39
678.0616, 16960.02
678.5438, 16947.38
679.0259, 16931.86
679.5080, 16914.21
679.9901, 16902.38
680.4722, 16897.55
680.9543, 16901.89
681.4365, 16921.44
681.9186, 16953.66
682.4007, 16988.71
682.8828, 17024.53
683.3649, 17059.60
683.8470, 17104.14
684.3292, 17156.98
684.8113, 17169.04
685.2934, 17080.05
685.7755, 16996.17
686.2576, 16968.78
686.7397, 17010.38
687.2219, 17024.78
687.7040, 17001.75
688.1861, 16979.08
688.6682, 17000.31
689.1503, 17057.29
689.6324, 17095.90
690.1146, 17106.08
690.5967, 17111.17
691.0788, 17145.08
691.5609, 17188.84
692.0430, 17209.42
692.5251, 17166.67
693.0073, 17138.84
693.4894, 17190.53
693.9715, 17278.94
694.4536, 17313.11
694.9357, 17212.56
695.4178, 17145.03
695.9000, 17155.60
696.3821, 17223.51
696.8642, 17250.56
697.3463, 17229.15
697.8284, 17203.35
698.3105, 17188.31
698.7927, 17185.84
699.2748, 17209.79
699.7569, 17258.45
700.2390, 17302.85
700.7211, 17316.48
701.2032, 17318.05
701.6854, 17328.48
702.1675, 17351.49
702.6496, 17369.69
703.1317, 17371.40
703.6138, 17368.74
704.0959, 17373.15
704.5781, 17406.24
705.0602, 17400.24
705.5423, 17329.88
706.0244, 17250.75
706.5065, 17239.82
706.9886, 17300.42
707.4708, 17343.85
707.9529, 17348.67
708.4350, 17341.96
708.9171, 17373.26
709.3992, 17427.50
709.8813, 17463.82
710.3635, 17457.04
710.8456, 17434.57
711.3277, 17399.70
711.8098, 17361.98
712.2919, 17350.22
712.7740, 17404.83
713.2562, 17451.53
713.7383, 17460.47
714.2204, 17437.28
714.7025, 17442.33
715.1846, 17486.43
715.6667, 17528.32
716.1489, 17542.77
716.6310, 17534.31
717.1131, 17532.60
717.5952, 17537.56
718.0773, 17549.05
718.5594, 17580.79
719.0416, 17612.68
719.5237, 17612.96
720.0058, 17572.35
720.4879, 17538.42
720.9700, 17533.76
721.4521, 17545.45
721.9343, 17563.57
722.4164, 17597.52
722.8985, 17619.61
723.3806, 17628.17
723.8627, 17626.74
724.3448, 17611.85
724.8270, 17580.35
725.3091, 17582.90
725.7912, 17638.69
726.2733, 17707.60
726.7554, 17730.84
727.2375, 17717.56
727.7197, 17694.34
728.2018, 17662.41
728.6839, 17634.75
729.1660, 17614.56
729.6481, 17605.52
730.1302, 17617.20
730.6124, 17677.05
731.0945, 17730.41
731.5766, 17762.84
732.0587, 17776.83
732.5408, 17787.28
733.0229, 17793.55
733.5051, 17798.96
733.9872, 17809.43
734.4693, 17820.25
734.9514, 17805.89
735.4335, 17767.57
735.9156, 17731.76
736.3978, 17709.59
736.8799, 17703.65
737.3620, 17725.23
737.8441, 17776.64
738.3263, 17815.16
738.8084, 17793.08
739.2905, 17774.71
739.7726, 17814.68
740.2548, 17950.79
740.7369, 18022.27
741.2190, 18010.21
741.7011, 17966.52
742.1832, 17935.18
742.6653, 17916.00
743.1475, 17906.58
743.6296, 17908.33
744.1117, 17912.44
744.5938, 17902.13
745.0759, 17888.78
745.5580, 17890.69
746.0402, 17905.12
746.5223, 17950.50
747.0044, 18087.68
747.4865, 18245.85
747.9686, 18317.97
748.4507, 18229.62
748.9329, 18147.97
749.4150, 18079.50
749.8971, 18034.15
750.3792, 18048.32
750.8613, 18128.17
751.3434, 18173.69
751.8256, 18134.16
752.3077, 18065.11
752.7898, 18069.26
753.2719, 18127.57
753.7540, 18175.75
754.2361, 18180.58
754.7183, 18165.08
755.2004, 18131.03
755.6825, 18084.15
756.1646, 18056.77
756.6467, 18055.76
757.1288, 18073.67
757.6110, 18116.97
758.0931, 18182.28
758.5752, 18220.70
759.0573, 18229.39
759.5394, 18229.65
760.0215, 18231.48
760.5037, 18235.41
760.9858, 18243.44
761.4679, 18255.37
761.9500, 18268.10
762.4321, 18286.68
762.9142, 18300.07
763.3964, 18288.50
763.8785, 18240.01
764.3606, 18235.67
764.8427, 18345.00
765.3248, 18452.68
765.8069, 18480.28
766.2891, 18394.62
766.7712, 18402.74
767.2533, 18532.06
767.7354, 18655.38
768.2175, 18614.33
768.6996, 18463.47
769.1818, 18359.82
769.6639, 18326.33
770.1460, 18339.00
770.6281, 18427.25
771.1102, 18529.07
771.5923, 18571.66
772.0745, 18487.60
772.5566, 18432.35
773.0387, 18435.69
773.5208, 18472.40
774.0029, 18527.39
774.4850, 18614.85
774.9672, 18640.95
775.4493, 18576.10
775.9314, 18487.21
776.4135, 18486.26
776.8956, 18548.80
777.3777, 18592.33
777.8599, 18584.91
778.3420, 18562.20
778.8241, 18543.68
779.3062, 18530.71
779.7883, 18525.77
780.2704, 18545.51
780.7526, 18553.06
781.2347, 18533.61
781.7168, 18501.86
782.1989, 18487.43
782.6810, 18488.32
783.1631, 18520.78
783.6453, 18603.12
784.1274, 18702.69
784.6095, 18751.73
785.0916, 18760.12
785.5737, 18766.34
786.0558, 18809.41
786.5380, 18838.86
787.0201, 18799.14
787.5022, 18713.40
787.9843, 18660.92
788.4664, 18683.78
788.9485, 18714.99
789.4307, 18743.71
789.9128, 18767.75
790.3949, 18772.12
790.8770, 18753.34
791.3591, 18739.95
791.8412, 18750.34
792.3234, 18772.57
792.8055, 18776.23
793.2876, 18765.53
793.7697, 18762.76
794.2518, 18788.89
794.7339, 18820.14
795.2161, 18845.03
795.6982, 18862.66
796.1803, 18866.05
796.6624, 18837.39
797.1445, 18818.39
797.6266, 18831.79
798.1088, 18873.13
798.5909, 18874.53
799.0730, 18831.61
799.5551, 18800.28
800.0372, 18837.90
800.5193, 18903.49
801.0015, 18926.50
801.4836, 18906.79
801.9657, 18872.01
802.4478, 18801.79
802.9299, 18750.44
803.4120, 18759.87
803.8942, 18844.53
804.3763, 18909.95
804.8584, 18960.04
805.3405, 18982.24
805.8226, 18952.21
806.3047, 18874.92
806.7869, 18860.04
807.2690, 18909.75
807.7511, 18963.20
808.2332, 18968.96
808.7153, 18951.35
809.1974, 18935.03
809.6796, 18922.00
810.1617, 18927.51
810.6438, 18979.50
811.1259, 19034.84
811.6080, 19067.38
812.0901, 19075.16
812.5723, 19065.54
813.0544, 19028.45
813.5365, 18999.42
814.0186, 19015.73
814.5007, 19065.38
814.9828, 19088.09
815.4650, 19079.89
815.9471, 19070.97
816.4292, 19090.13
816.9113, 19117.01
817.3934, 19130.16
817.8755, 19122.98
818.3577, 19121.45
818.8398, 19157.11
819.3219, 19177.03
819.8040, 19131.76
820.2861, 18993.96
820.7682, 18975.68
821.2504, 19098.10
821.7325, 19238.45
822.2146, 19283.64
822.6967, 19262.74
823.1788, 19234.47
823.6609, 19204.95
824.1431, 19181.82
824.6252, 19169.73
825.1073, 19166.51
825.5894, 19171.31
826.0715, 19186.61
826.5536, 19203.22
827.0358, 19221.05
827.5179, 19240.08
828.0000, 19262.35
828.4821, 19287.34
828.9642, 19303.88
829.4464, 19310.97
829.9285, 19314.05
830.4106, 19315.08
830.8927, 19316.44
831.3748, 19323.96
831.8569, 19340.99
832.3391, 19347.79
832.8212, 19308.83
833.3033, 19279.80
833.7854, 19300.99
834.2675, 19387.37
834.7496, 19473.30
835.2318, 19567.18
835.7139, 19631.54
836.1960, 19612.43
836.6781, 19536.72
837.1602, 19492.85
837.6423, 19490.02
838.1245, 19488.55
838.6066, 19457.63
839.0887, 19416.66
839.5708, 19375.46
840.0529, 19324.54
840.5350, 19322.07
841.0172, 19403.43
841.4993, 19490.08
841.9814, 19518.99
842.4635, 19487.48
842.9456, 19516.25
843.4277, 19613.93
843.9099, 19688.35
844.3920, 19623.38
844.8741, 19503.18
845.3562, 19442.05
845.8383, 19455.29
846.3204, 19485.22
846.8026, 19522.87
847.2847, 19557.63
847.7668, 19583.47
848.2489, 19600.12
848.7310, 19607.59
849.2131, 19602.04
849.6953, 19599.72
850.1774, 19616.17
850.6595, 19645.40
851.1416, 19671.72
851.6237, 19694.26
852.1058, 19709.38
852.5880, 19695.61
853.0701, 19687.46
853.5522, 19723.87
854.0343, 19816.86
854.5164, 19858.75
854.9985, 19817.84
855.4807, 19766.11
855.9628, 19733.53
856.4449, 19720.55
856.9270, 19751.00
857.4091, 19825.27
857.8912, 19880.04
858.3734, 19835.54
858.8555, 19769.65
859.3376, 19790.76
859.8197, 19893.18
860.3018, 19953.85
860.7839, 19885.96
861.2661, 19807.90
861.7482, 19765.22
862.2303, 19756.59
862.7124, 19778.00
863.1945, 19836.51
863.6766, 19885.36
864.1588, 19893.59
864.6409, 19877.88
865.1230, 19869.49
865.6051, 19869.00
866.0872, 19878.32
866.5693, 19904.95
867.0515, 19935.69
867.5336, 19968.73
868.0157, 20001.59
868.4978, 20018.86
868.9799, 20016.57
869.4620, 20007.06
869.9442, 19991.58
870.4263, 19973.52
870.9084, 19962.58
871.3905, 19958.23
871.8726, 19956.66
872.3547, 19949.74
872.8369, 19950.50
873.3190, 19978.93
873.8011, 20023.03
874.2832, 20050.04
874.7653, 20035.29
875.2474, 20025.42
875.7296, 20027.69
876.2117, 20039.12
876.6938, 20055.77
877.1759, 20077.22
877.6580, 20090.86
878.1401, 20084.84
878.6223, 20084.54
879.1044, 20142.00
879.5865, 20223.38
880.0687, 20266.40
880.5508, 20209.92
881.0329, 20161.39
881.5150, 20145.73
881.9971, 20148.09
882.4792, 20149.36
882.9614, 20148.35
883.4435, 20158.64
883.9256, 20188.99
884.4077, 20209.42
884.8898, 20152.20
885.3719, 20062.11
885.8541, 20030.20
886.3362, 20097.49
886.8183, 20172.46
887.3004, 20234.21
887.7825, 20272.54
888.2646, 20274.15
888.7468, 20218.85
889.2289, 20187.48
889.7110, 20184.14
890.1931, 20196.22
890.6752, 20214.97
891.1573, 20238.55
891.6395, 20266.26
892.1216, 20299.14
892.6037, 20314.48
893.0858, 20272.60
893.5679, 20224.82
894.0500, 20211.16
894.5322, 20241.89
895.0143, 20282.79
895.4964, 20347.09
895.9785, 20395.37
896.4606, 20396.57
896.9427, 20359.28
897.4249, 20330.01
897.9070, 20308.89
898.3891, 20290.69
898.8712, 20256.50
899.3533, 20236.42
899.8354, 20253.95
900.3176, 20309.22
900.7997, 20390.09
901.2818, 20535.58
901.7639, 20638.41
902.2460, 20652.09
902.7281, 20596.85
903.2103, 20545.04
903.6924, 20498.15
904.1745, 20465.49
904.6566, 20448.83
905.1387, 20450.85
905.6208, 20492.70
906.1030, 20555.15
906.5851, 20588.44
907.0672, 20542.05
907.5493, 20512.93
908.0314, 20521.70
908.5135, 20551.63
908.9957, 20571.71
909.4778, 20581.89
909.9599, 20577.63
910.4420, 20551.88
910.9241, 20527.32
911.4063, 20530.03
911.8884, 20549.94
912.3705, 20572.17
912.8526, 20597.88
913.3347, 20616.71
913.8168, 20625.27
914.2990, 20628.27
914.7811, 20625.25
915.2632, 20614.60
915.7453, 20631.62
916.2274, 20682.69
916.7095, 20734.90
917.1917, 20751.11
917.6738, 20750.74
918.1559, 20761.53
918.6380, 20789.80
919.1201, 20808.91
919.6022, 20795.64
920.0844, 20785.76
920.5665, 20800.43
921.0486, 20840.36
921.5307, 20870.38
922.0128, 20890.57
922.4949, 20901.32
922.9771, 20904.24
923.4592, 20897.65
923.9413, 20869.33
924.4234, 20825.63
924.9055, 20799.73
925.3876, 20825.70
925.8698, 20847.82
926.3519, 20837.33
926.8340, 20809.29
927.3161, 20830.32
927.7982, 20906.75
928.2803, 20953.65
928.7625, 20931.63
929.2446, 20880.96
929.7267, 20832.75
930.2088, 20802.77
930.6909, 20822.14
931.1730, 20985.88
931.6552, 21095.43
932.1373, 21060.46
932.6194, 20975.19
933.1015, 20952.38
933.5836, 20999.27
934.0657, 21050.27
934.5479, 21102.54
935.0300, 21138.30
935.5121, 21125.48
935.9942, 21088.77
936.4763, 21062.52
936.9584, 21052.62
937.4406, 21056.95
937.9227, 21076.63
938.4048, 21110.17
938.8869, 21166.10
939.3690, 21249.47
939.8511, 21268.39
940.3333, 21217.03
940.8154, 21171.62
941.2975, 21206.60
941.7796, 21268.93
942.2617, 21285.27
942.7438, 21260.34
943.2260, 21236.64
943.7081, 21229.88
944.1902, 21226.63
944.6723, 21220.16
945.1544, 21214.21
945.6365, 21222.71
946.1187, 21245.88
946.6008, 21277.41
947.0829, 21320.06
947.5650, 21361.83
948.0471, 21380.46
948.5292, 21388.63
949.0114, 21408.27
949.4935, 21488.07
949.9756, 21520.35
950.4577, 21464.23
950.9398, 21383.96
951.4219, 21357.06
951.9041, 21384.31
952.3862, 21385.71
952.8683, 21349.87
953.3504, 21321.42
953.8325, 21357.99
954.3146, 21416.51
954.7968, 21444.93
955.2789, 21430.87
955.7610, 21432.46
956.2431, 21485.10
956.7252, 21519.16
957.2073, 21490.72
957.6895, 21411.00
958.1716, 21368.88
958.6537, 21363.95
959.1358, 21384.52
959.6179, 21449.11
960.1000, 21514.65
960.5822, 21538.17
961.0643, 21530.94
961.5464, 21529.71
962.0285, 21542.55
962.5106, 21559.34
962.9927, 21580.25
963.4749, 21602.29
963.9570, 21613.60
964.4391, 21619.57
964.9212, 21659.15
965.4033, 21762.45
965.8854, 21831.32
966.3676, 21735.42
966.8497, 21596.46
967.3318, 21550.44
967.8139, 21664.59
968.2960, 21731.01
968.7781, 21737.18
969.2603, 21723.67
969.7424, 21721.38
970.2245, 21725.70
970.7066, 21716.90
971.1887, 21696.13
971.6708, 21684.10
972.1530, 21693.40
972.6351, 21714.84
973.1172, 21749.84
973.5993, 21794.18
974.0814, 21821.68
974.5635, 21821.72
975.0457, 21850.05
975.5278, 21943.66
976.0099, 22046.62
976.4920, 22044.88
976.9741, 21974.21
977.4562, 21916.02
977.9384, 21899.78
978.4205, 21899.67
978.9026, 21941.03
979.3847, 21972.12
979.8668, 21920.01
980.3489, 21757.48
980.8311, 21708.00
981.3132, 21795.61
981.7953, 21912.73
982.2774, 21968.80
982.7595, 21985.91
983.2416, 21983.28
983.7238, 21963.17
984.2059, 21952.70
984.6880, 21975.99
985.1701, 21991.37
985.6522, 21975.46
986.1343, 21940.45
986.6165, 21955.21
987.0986, 22016.28
987.5807, 22066.06
988.0628, 22068.77
988.5449, 22063.02
989.0270, 22095.01
989.5092, 22140.68
989.9913, 22154.65
990.4734, 22082.82
990.9555, 22059.67
991.4376, 22111.74
991.9197, 22181.31
992.4019, 22195.93
992.8840, 22168.68
993.3661, 22149.80
993.8482, 22145.04
994.3303, 22147.72
994.8124, 22160.60
995.2946, 22173.56
995.7767, 22176.27
996.2588, 22168.51
996.7409, 22174.12
997.2230, 22197.70
997.7051, 22213.40
998.1873, 22198.55
998.6694, 22177.75
999.1515, 22210.10
999.6336, 22275.99
1000.116, 22320.13
1000.598, 22299.45
1001.080, 22278.96
1001.562, 22276.22
1002.044, 22282.27
1002.526, 22283.11
1003.008, 22277.55
1003.491, 22296.68
1003.973, 22348.08
1004.455, 22394.15
1004.937, 22387.17
1005.419, 22362.21
1005.901, 22353.93
1006.383, 22366.24
1006.865, 22402.58
1007.347, 22491.81
1007.830, 22553.64
1008.312, 22539.07
1008.794, 22474.94
1009.276, 22466.69
1009.758, 22504.04
1010.240, 22530.31
1010.722, 22493.94
1011.204, 22464.98
1011.687, 22497.00
1012.169, 22559.23
1012.651, 22602.10
1013.133, 22628.33
1013.615, 22614.05
1014.097, 22545.43
1014.579, 22478.66
1015.061, 22487.30
1015.543, 22536.94
1016.026, 22567.79
1016.508, 22572.58
1016.990, 22567.30
1017.472, 22535.14
1017.954, 22519.50
1018.436, 22543.56
1018.918, 22600.11
1019.400, 22645.98
1019.883, 22681.54
1020.365, 22710.30
1020.847, 22733.39
1021.329, 22750.84
1021.811, 22760.47
1022.293, 22765.08
1022.775, 22769.43
1023.257, 22777.54
1023.740, 22778.70
1024.222, 22768.82
1024.704, 22759.66
1025.186, 22764.48
1025.668, 22779.99
1026.150, 22800.05
1026.632, 22823.49
1027.114, 22837.60
1027.596, 22818.01
1028.078, 22804.10
1028.561, 22833.30
1029.043, 22889.13
1029.525, 22873.08
1030.007, 22773.91
1030.489, 22724.78
1030.971, 22791.18
1031.453, 22885.18
1031.935, 22887.99
1032.418, 22842.94
1032.900, 22817.75
1033.382, 22844.88
1033.864, 22863.49
1034.346, 22862.66
1034.828, 22861.74
1035.310, 22886.07
1035.792, 22926.45
1036.275, 22915.60
1036.757, 22858.00
1037.239, 22827.25
1037.721, 22918.84
1038.203, 23004.82
1038.685, 22990.54
1039.167, 22906.81
1039.649, 22872.87
1040.131, 22900.38
1040.614, 22913.09
1041.096, 22880.82
1041.578, 22864.08
1042.060, 22993.27
1042.542, 23172.14
1043.024, 23247.68
1043.506, 23155.15
1043.988, 23074.51
1044.470, 23030.77
1044.953, 23015.07
1045.435, 23031.27
1045.917, 23073.00
1046.399, 23096.72
1046.881, 23104.20
1047.363, 23108.92
1047.845, 23123.71
1048.327, 23132.83
1048.810, 23115.15
1049.292, 23087.95
1049.774, 23090.65
1050.256, 23135.04
1050.738, 23164.60
1051.220, 23173.36
1051.702, 23163.67
1052.184, 23103.88
1052.667, 23043.80
1053.149, 23076.22
1053.631, 23216.85
1054.113, 23313.18
1054.595, 23300.45
1055.077, 23267.86
1055.559, 23236.84
1056.041, 23212.73
1056.523, 23222.57
1057.005, 23259.91
1057.488, 23291.88
1057.970, 23307.77
1058.452, 23311.21
1058.934, 23301.14
1059.416, 23281.05
1059.898, 23250.45
1060.380, 23193.90
1060.862, 23195.53
1061.345, 23264.32
1061.827, 23338.84
1062.309, 23372.10
1062.791, 23378.57
1063.273, 23362.90
1063.755, 23333.11
1064.237, 23328.68
1064.719, 23379.26
1065.202, 23431.05
1065.684, 23482.64
1066.166, 23520.73
1066.648, 23512.14
1067.130, 23468.44
1067.612, 23434.96
1068.094, 23420.74
1068.576, 23414.79
1069.058, 23417.54
1069.541, 23420.28
1070.023, 23414.33
1070.505, 23399.96
1070.987, 23400.25
1071.469, 23415.69
1071.951, 23436.49
1072.433, 23463.61
1072.915, 23487.41
1073.397, 23493.74
1073.880, 23490.22
1074.362, 23490.92
1074.844, 23490.15
1075.326, 23512.85
1075.808, 23570.15
1076.290, 23627.31
1076.772, 23655.57
1077.254, 23656.55
1077.737, 23615.15
1078.219, 23538.11
1078.701, 23501.82
1079.183, 23590.83
1079.665, 23670.23
1080.147, 23685.11
1080.629, 23661.46
1081.111, 23667.47
1081.594, 23700.23
1082.076, 23715.93
1082.558, 23700.17
1083.040, 23682.36
1083.522, 23694.98
1084.004, 23711.61
1084.486, 23697.73
1084.968, 23643.09
1085.450, 23642.26
1085.932, 23706.15
1086.415, 23768.13
1086.897, 23789.52
1087.379, 23791.62
1087.861, 23802.49
1088.343, 23820.33
1088.825, 23841.22
1089.307, 23888.76
1089.789, 23897.35
1090.272, 23841.65
1090.754, 23781.90
1091.236, 23790.57
1091.718, 23847.05
1092.200, 23858.08
1092.682, 23825.01
1093.164, 23832.70
1093.646, 24004.50
1094.129, 24144.08
1094.611, 24134.97
1095.093, 24039.39
1095.575, 24007.70
1096.057, 24039.82
1096.539, 24065.46
1097.021, 24067.68
1097.503, 24068.41
1097.985, 24093.05
1098.468, 24122.49
1098.950, 24140.85
1099.432, 24146.75
1099.914, 24127.14
1100.396, 24071.50
1100.878, 24031.42
1101.360, 24034.52
1101.842, 24060.93
1102.325, 24077.56
1102.807, 24092.22
1103.289, 24121.04
1103.771, 24199.55
1104.253, 24240.02
1104.735, 24224.91
1105.217, 24191.90
1105.699, 24167.35
1106.182, 24152.07
1106.664, 24151.66
1107.146, 24165.25
1107.628, 24185.81
1108.110, 24221.07
1108.592, 24248.87
1109.074, 24253.57
1109.556, 24249.91
1110.038, 24267.41
1110.521, 24305.24
1111.003, 24325.60
1111.485, 24320.88
1111.967, 24317.87
1112.449, 24352.71
1112.931, 24386.92
1113.413, 24384.62
1113.895, 24347.22
1114.377, 24315.12
1114.860, 24284.06
1115.342, 24284.83
1115.824, 24338.20
1116.306, 24404.43
1116.788, 24435.08
1117.270, 24443.93
1117.752, 24449.23
1118.234, 24452.92
1118.717, 24459.56
1119.199, 24473.82
1119.681, 24479.46
1120.163, 24454.29
1120.645, 24418.88
1121.127, 24440.21
1121.609, 24497.35
1122.091, 24525.44
1122.573, 24456.14
1123.056, 24412.89
1123.538, 24421.07
1124.020, 24456.13
1124.502, 24499.64
1124.984, 24548.53
1125.466, 24586.26
1125.948, 24611.70
1126.430, 24621.78
1126.912, 24618.79
1127.395, 24594.96
1127.877, 24513.75
1128.359, 24420.71
1128.841, 24437.89
1129.323, 24565.72
1129.805, 24628.70
1130.287, 24584.95
1130.769, 24533.45
1131.252, 24569.54
1131.734, 24627.46
1132.216, 24654.81
1132.698, 24648.02
1133.180, 24607.77
1133.662, 24522.23
1134.144, 24483.80
1134.626, 24540.69
1135.109, 24626.25
1135.591, 24662.02
1136.073, 24668.35
1136.555, 24673.75
1137.037, 24689.58
1137.519, 24680.59
1138.001, 24634.15
1138.483, 24599.98
1138.965, 24623.93
1139.448, 24671.43
1139.930, 24660.99
1140.412, 24615.58
1140.894, 24597.46
1141.376, 24656.05
1141.858, 24704.08
1142.340, 24733.16
1142.822, 24747.99
1143.304, 24740.83
1143.787, 24724.25
1144.269, 24748.82
1144.751, 24811.05
1145.233, 24866.71
1145.715, 24922.18
1146.197, 24928.18
1146.679, 24836.77
1147.161, 24722.13
1147.644, 24732.43
1148.126, 24845.84
1148.608, 24912.07
1149.090, 24909.29
1149.572, 24888.15
1150.054, 24873.32
1150.536, 24858.08
1151.018, 24833.37
1151.500, 24805.42
1151.983, 24800.57
1152.465, 24818.16
1152.947, 24842.00
1153.429, 24869.52
1153.911, 24896.29
1154.393, 24918.94
1154.875, 24938.85
1155.357, 24958.26
1155.839, 24977.38
1156.322, 24988.23
1156.804, 24990.54
1157.286, 24986.56
1157.768, 24967.21
1158.250, 24957.97
1158.732, 25012.98
1159.214, 25084.21
1159.696, 25097.07
1160.179, 25020.86
1160.661, 24961.93
1161.143, 24919.80
1161.625, 24897.32
1162.107, 24916.28
1162.589, 24942.34
1163.071, 24910.62
1163.553, 24849.57
1164.036, 24831.94
1164.518, 24914.90
1165.000, 24958.19
1165.482, 24944.74
1165.964, 24920.62
1166.446, 24932.11
1166.928, 24963.25
1167.410, 24996.07
1167.892, 25025.58
1168.375, 25030.45
1168.857, 24974.40
1169.339, 24939.13
1169.821, 24939.34
1170.303, 24960.42
1170.785, 24995.63
1171.267, 25032.63
1171.749, 25036.71
1172.231, 25004.70
1172.714, 24987.83
1173.196, 25030.18
1173.678, 25056.37
1174.160, 25037.71
1174.642, 25000.14
1175.124, 24993.61
1175.606, 25013.66
1176.088, 25056.14
1176.571, 25128.65
1177.053, 25168.99
1177.535, 25111.10
1178.017, 25059.43
1178.499, 25063.75
1178.981, 25106.21
1179.463, 25126.87
1179.945, 25128.44
1180.427, 25119.09
1180.910, 25093.06
1181.392, 25078.64
1181.874, 25086.79
1182.356, 25115.02
1182.838, 25171.08
1183.320, 25248.62
1183.802, 25290.45
1184.284, 25297.52
1184.766, 25275.05
1185.249, 25199.91
1185.731, 25132.50
1186.213, 25091.44
1186.695, 25081.58
1187.177, 25121.69
1187.659, 25213.14
1188.141, 25236.62
1188.623, 25196.43
1189.106, 25154.62
1189.588, 25141.12
1190.070, 25145.38
1190.552, 25178.59
1191.034, 25217.03
1191.516, 25224.18
1191.998, 25198.17
1192.480, 25185.46
1192.963, 25188.50
1193.445, 25207.92
1193.927, 25279.82
1194.409, 25332.22
1194.891, 25296.16
1195.373, 25213.29
1195.855, 25175.29
1196.337, 25184.06
1196.819, 25181.68
1197.302, 25159.20
1197.784, 25157.41
1198.266, 25237.54
1198.748, 25324.92
1199.230, 25360.24
1199.712, 25355.95
1200.194, 25359.38
1200.676, 25370.96
1201.158, 25385.43
1201.641, 25404.62
1202.123, 25406.92
1202.605, 25346.98
1203.087, 25283.12
1203.569, 25275.06
1204.051, 25311.75
1204.533, 25303.55
1205.015, 25246.55
1205.498, 25221.68
1205.980, 25258.21
1206.462, 25309.13
1206.944, 25336.18
1207.426, 25352.71
1207.908, 25373.04
1208.390, 25397.26
1208.872, 25397.81
1209.354, 25372.49
1209.837, 25368.18
1210.319, 25413.47
1210.801, 25458.95
1211.283, 25440.67
1211.765, 25409.54
1212.247, 25438.93
1212.729, 25538.85
1213.211, 25527.64
1213.693, 25399.47
1214.176, 25294.22
1214.658, 25278.90
1215.140, 25309.23
1215.622, 25380.70
1216.104, 25455.91
1216.586, 25483.38
1217.068, 25454.57
1217.550, 25435.59
1218.033, 25426.74
1218.515, 25426.80
1218.997, 25431.82
1219.479, 25449.20
1219.961, 25505.44
1220.443, 25567.80
1220.925, 25583.47
1221.407, 25538.47
1221.890, 25527.17
1222.372, 25551.34
1222.854, 25568.08
1223.336, 25523.28
1223.818, 25485.55
1224.300, 25536.05
1224.782, 25616.50
1225.264, 25613.07
1225.746, 25505.36
1226.229, 25486.02
1226.711, 25564.68
1227.193, 25641.63
1227.675, 25638.78
1228.157, 25613.01
1228.639, 25593.39
1229.121, 25584.12
1229.603, 25592.94
1230.085, 25621.40
1230.568, 25646.64
1231.050, 25667.13
1231.532, 25671.55
1232.014, 25637.01
1232.496, 25597.94
1232.978, 25564.07
1233.460, 25546.64
1233.943, 25579.77
1234.425, 25663.34
1234.907, 25702.72
1235.389, 25686.36
1235.871, 25664.26
1236.353, 25670.26
1236.835, 25684.73
1237.317, 25699.45
1237.799, 25712.72
1238.281, 25721.50
1238.764, 25725.92
1239.246, 25728.50
1239.728, 25729.48
1240.210, 25731.06
1240.692, 25747.38
1241.174, 25749.55
1241.656, 25705.82
1242.138, 25647.09
1242.621, 25661.22
1243.103, 25734.21
1243.585, 25772.04
1244.067, 25755.19
1244.549, 25740.02
1245.031, 25759.91
1245.513, 25789.07
1245.995, 25817.58
1246.478, 25844.58
1246.960, 25873.36
1247.442, 25899.38
1247.924, 25894.49
1248.406, 25847.28
1248.888, 25821.19
1249.370, 25868.63
1249.852, 25919.00
1250.334, 25945.83
1250.817, 25955.18
1251.299, 25958.28
1251.781, 25955.90
1252.263, 25948.61
1252.745, 25934.98
1253.227, 25926.76
1253.709, 25931.25
1254.191, 25938.32
1254.673, 25949.03
1255.156, 25954.41
1255.638, 25922.36
1256.120, 25872.01
1256.602, 25847.42
1257.084, 25864.11
1257.566, 25876.38
1258.048, 25867.44
1258.530, 25875.62
1259.013, 25925.78
1259.495, 25988.73
1259.977, 26012.71
1260.459, 26008.98
1260.941, 25994.84
1261.423, 25969.97
1261.905, 25950.21
1262.387, 25933.63
1262.870, 25930.41
1263.352, 25946.27
1263.834, 25975.94
1264.316, 26023.63
1264.798, 26074.64
1265.280, 26106.87
1265.762, 26112.71
1266.244, 26116.50
1266.726, 26116.82
1267.208, 26125.77
1267.691, 26161.11
1268.173, 26186.04
1268.655, 26138.45
1269.137, 26067.90
1269.619, 26039.11
1270.101, 26054.69
1270.583, 26109.56
1271.065, 26206.30
1271.548, 26255.86
1272.030, 26187.21
1272.512, 26110.36
1272.994, 26116.81
1273.476, 26160.01
1273.958, 26192.92
1274.440, 26214.51
1274.922, 26231.69
1275.405, 26243.30
1275.887, 26233.80
1276.369, 26173.35
1276.851, 26132.75
1277.333, 26181.39
1277.815, 26240.70
1278.297, 26245.41
1278.779, 26204.67
1279.261, 26183.47
1279.744, 26180.98
1280.226, 26195.36
1280.708, 26243.32
1281.190, 26273.68
1281.672, 26261.50
1282.154, 26238.58
1282.636, 26221.17
1283.118, 26209.91
1283.600, 26205.88
1284.083, 26209.28
1284.565, 26220.98
1285.047, 26245.87
1285.529, 26270.08
1286.011, 26293.10
1286.493, 26313.38
1286.975, 26327.81
1287.457, 26340.99
1287.940, 26369.67
1288.422, 26402.21
1288.904, 26413.23
1289.386, 26374.83
1289.868, 26375.66
1290.350, 26429.16
1290.832, 26461.07
1291.314, 26409.17
1291.797, 26332.62
1292.279, 26282.34
1292.761, 26264.62
1293.243, 26309.31
1293.725, 26439.87
1294.207, 26449.65
1294.689, 26333.92
1295.171, 26242.72
1295.653, 26281.04
1296.135, 26340.67
1296.618, 26342.71
1297.100, 26319.28
1297.582, 26307.55
1298.064, 26307.51
1298.546, 26300.73
1299.028, 26291.03
1299.510, 26311.07
1299.992, 26412.32
1300.475, 26488.05
1300.957, 26464.87
1301.439, 26421.19
1301.921, 26403.54
1302.403, 26408.75
1302.885, 26439.56
1303.367, 26481.74
1303.849, 26486.07
1304.332, 26397.16
1304.814, 26345.26
1305.296, 26352.47
1305.778, 26384.07
1306.260, 26434.59
1306.742, 26481.46
1307.224, 26469.76
1307.706, 26421.54
##END=



