##NAMES=Heulandite-Na
##RRUFFID=R070281
##IDEAL CHEMISTRY=(Na,Ca,K)_6_(Si,Al)_36_O_72_&#183;22H_2_O
##LOCALITY=Warm Spring Creek, Challis, Custer County, Idaho, USA
##OWNER=RRUFF
##SOURCE=Michael Scott
##DESCRIPTION=Orange tabular crystals lining a vug
##STATUS=The identification of this mineral is not yet confirmed.
##URL=rruff.info/R070281
175.6961, 4517.101
176.1783, 4512.440
176.6604, 4500.593
177.1425, 4487.524
177.6246, 4483.153
178.1067, 4485.885
178.5888, 4485.025
179.0710, 4466.313
179.5531, 4438.362
180.0352, 4421.771
180.5173, 4426.882
180.9994, 4440.220
181.4815, 4438.653
181.9637, 4422.561
182.4458, 4404.294
182.9279, 4392.746
183.4100, 4387.326
183.8921, 4385.575
184.3742, 4386.990
184.8564, 4391.526
185.3385, 4401.845
185.8206, 4418.775
186.3027, 4432.479
186.7848, 4430.453
187.2669, 4414.582
187.7491, 4399.286
188.2312, 4389.748
188.7133, 4384.725
189.1954, 4379.097
189.6775, 4372.489
190.1596, 4367.135
190.6418, 4365.782
191.1239, 4368.405
191.6060, 4373.202
192.0881, 4382.449
192.5702, 4394.855
193.0524, 4397.854
193.5345, 4389.724
194.0166, 4376.694
194.4987, 4368.628
194.9808, 4365.894
195.4629, 4362.521
195.9451, 4352.214
196.4272, 4335.177
196.9093, 4332.596
197.3914, 4349.067
197.8735, 4373.816
198.3556, 4387.500
198.8378, 4389.487
199.3199, 4384.425
199.8020, 4371.615
200.2841, 4350.249
200.7662, 4335.028
201.2483, 4327.404
201.7305, 4325.826
202.2126, 4327.482
202.6947, 4333.208
203.1768, 4339.045
203.6589, 4343.613
204.1410, 4347.409
204.6232, 4345.115
205.1053, 4333.083
205.5874, 4316.038
206.0695, 4311.513
206.5516, 4323.761
207.0337, 4337.365
207.5159, 4338.727
207.9980, 4322.635
208.4801, 4320.670
208.9622, 4343.776
209.4443, 4383.823
209.9264, 4399.278
210.4086, 4383.621
210.8907, 4356.359
211.3728, 4329.430
211.8549, 4298.830
212.3370, 4282.397
212.8191, 4287.134
213.3013, 4309.812
213.7834, 4322.380
214.2655, 4319.699
214.7476, 4315.185
215.2297, 4321.753
215.7118, 4345.040
216.1940, 4363.815
216.6761, 4373.227
217.1582, 4373.796
217.6403, 4376.993
218.1224, 4386.736
218.6045, 4393.844
219.0867, 4386.573
219.5688, 4354.521
220.0509, 4333.180
220.5330, 4332.954
221.0151, 4354.372
221.4972, 4370.756
221.9794, 4380.341
222.4615, 4387.031
222.9436, 4394.566
223.4257, 4401.706
223.9078, 4412.856
224.3899, 4432.049
224.8721, 4461.230
225.3542, 4475.113
225.8363, 4466.260
226.3184, 4449.292
226.8005, 4442.719
227.2827, 4455.489
227.7648, 4461.252
228.2469, 4449.625
228.7290, 4416.454
229.2111, 4398.910
229.6932, 4402.495
230.1754, 4417.432
230.6575, 4432.364
231.1396, 4450.646
231.6217, 4462.599
232.1038, 4463.827
232.5859, 4451.512
233.0681, 4443.159
233.5502, 4437.170
234.0323, 4436.256
234.5144, 4446.284
234.9965, 4477.330
235.4786, 4501.880
235.9608, 4507.831
236.4429, 4487.258
236.9250, 4485.639
237.4071, 4512.522
237.8892, 4552.490
238.3713, 4581.930
238.8535, 4600.063
239.3356, 4608.620
239.8177, 4603.565
240.2998, 4575.599
240.7819, 4571.513
241.2640, 4603.326
241.7462, 4651.951
242.2283, 4683.986
242.7104, 4689.802
243.1925, 4694.895
243.6746, 4708.506
244.1567, 4734.856
244.6389, 4755.218
245.1210, 4767.000
245.6031, 4774.316
246.0852, 4784.823
246.5673, 4802.082
247.0494, 4816.497
247.5316, 4825.054
248.0137, 4827.793
248.4958, 4823.515
248.9779, 4807.138
249.4600, 4786.627
249.9421, 4778.299
250.4243, 4789.581
250.9064, 4799.621
251.3885, 4800.148
251.8706, 4787.635
252.3527, 4776.689
252.8348, 4765.256
253.3170, 4756.642
253.7991, 4758.852
254.2812, 4778.401
254.7633, 4796.314
255.2454, 4806.731
255.7275, 4810.605
256.2097, 4801.302
256.6918, 4770.938
257.1739, 4732.921
257.6560, 4712.828
258.1381, 4717.346
258.6202, 4726.028
259.1024, 4731.289
259.5845, 4731.787
260.0666, 4735.633
260.5487, 4748.492
261.0308, 4760.350
261.5129, 4749.429
261.9951, 4704.517
262.4772, 4663.873
262.9593, 4644.707
263.4414, 4652.404
263.9235, 4654.623
264.4056, 4648.511
264.8878, 4639.601
265.3699, 4638.792
265.8520, 4649.737
266.3341, 4658.297
266.8162, 4657.272
267.2983, 4644.159
267.7805, 4638.229
268.2626, 4641.885
268.7447, 4650.131
269.2268, 4654.823
269.7089, 4655.712
270.1910, 4653.938
270.6732, 4649.826
271.1553, 4643.362
271.6374, 4632.935
272.1195, 4614.875
272.6016, 4598.226
273.0837, 4602.223
273.5659, 4632.006
274.0480, 4656.130
274.5301, 4659.831
275.0122, 4642.163
275.4943, 4631.106
275.9764, 4628.669
276.4586, 4629.064
276.9407, 4622.767
277.4228, 4608.967
277.9049, 4596.202
278.3870, 4587.660
278.8691, 4583.253
279.3513, 4580.323
279.8334, 4578.006
280.3155, 4579.384
280.7976, 4591.678
281.2798, 4615.412
281.7619, 4635.373
282.2440, 4644.563
282.7261, 4644.386
283.2082, 4646.103
283.6903, 4650.550
284.1725, 4653.810
284.6546, 4647.776
285.1367, 4633.065
285.6188, 4624.745
286.1009, 4631.270
286.5830, 4648.813
287.0652, 4662.113
287.5473, 4671.246
288.0294, 4675.010
288.5115, 4666.520
288.9936, 4648.067
289.4757, 4639.169
289.9579, 4652.138
290.4400, 4677.854
290.9221, 4691.138
291.4042, 4691.431
291.8863, 4686.277
292.3684, 4682.122
292.8506, 4678.666
293.3327, 4674.526
293.8148, 4668.813
294.2969, 4662.381
294.7790, 4655.485
295.2611, 4648.106
295.7433, 4644.081
296.2254, 4650.609
296.7075, 4663.577
297.1896, 4670.676
297.6717, 4664.227
298.1538, 4653.867
298.6360, 4656.411
299.1181, 4670.778
299.6002, 4683.939
300.0823, 4684.586
300.5644, 4677.175
301.0465, 4669.565
301.5287, 4661.431
302.0108, 4656.916
302.4929, 4663.712
302.9750, 4680.043
303.4571, 4695.338
303.9392, 4702.979
304.4214, 4705.242
304.9035, 4705.070
305.3856, 4702.430
305.8677, 4698.695
306.3498, 4692.103
306.8319, 4684.564
307.3141, 4682.786
307.7962, 4696.285
308.2783, 4714.906
308.7604, 4729.568
309.2425, 4739.153
309.7246, 4742.286
310.2068, 4729.914
310.6889, 4709.364
311.1710, 4699.450
311.6531, 4721.956
312.1352, 4750.813
312.6173, 4765.464
313.0995, 4758.046
313.5816, 4749.356
314.0637, 4747.874
314.5458, 4751.940
315.0279, 4758.368
315.5100, 4771.979
315.9922, 4783.077
316.4743, 4783.029
316.9564, 4765.747
317.4385, 4758.533
317.9206, 4780.802
318.4027, 4816.169
318.8849, 4841.736
319.3670, 4841.542
319.8491, 4839.142
320.3312, 4844.030
320.8133, 4858.542
321.2954, 4870.473
321.7776, 4871.362
322.2597, 4870.913
322.7418, 4879.469
323.2239, 4919.371
323.7060, 4947.599
324.1881, 4944.765
324.6703, 4906.217
325.1524, 4890.662
325.6345, 4925.274
326.1166, 4972.320
326.5987, 5001.696
327.0808, 4996.244
327.5630, 4993.091
328.0451, 4997.629
328.5272, 5009.407
329.0093, 5018.581
329.4914, 5022.606
329.9735, 5026.128
330.4557, 5032.627
330.9378, 5047.256
331.4199, 5055.136
331.9020, 5048.824
332.3841, 5033.843
332.8662, 5038.826
333.3484, 5073.817
333.8305, 5113.463
334.3126, 5146.439
334.7947, 5175.289
335.2768, 5187.198
335.7589, 5175.250
336.2411, 5149.451
336.7232, 5133.139
337.2053, 5125.911
337.6874, 5129.784
338.1695, 5151.239
338.6516, 5193.804
339.1338, 5219.816
339.6159, 5224.206
340.0980, 5218.594
340.5801, 5223.490
341.0622, 5240.374
341.5443, 5254.520
342.0265, 5255.976
342.5086, 5247.174
342.9907, 5253.864
343.4728, 5278.846
343.9549, 5308.126
344.4370, 5322.619
344.9192, 5323.867
345.4013, 5327.246
345.8834, 5338.673
346.3655, 5355.861
346.8476, 5374.875
347.3297, 5395.890
347.8119, 5412.181
348.2940, 5410.772
348.7761, 5398.506
349.2582, 5396.271
349.7403, 5413.530
350.2225, 5439.823
350.7046, 5458.472
351.1867, 5471.124
351.6688, 5489.221
352.1509, 5528.212
352.6331, 5576.116
353.1152, 5613.416
353.5973, 5630.214
354.0794, 5645.917
354.5615, 5683.976
355.0436, 5736.511
355.5258, 5779.543
356.0079, 5792.994
356.4900, 5795.005
356.9721, 5800.399
357.4542, 5811.256
357.9363, 5826.166
358.4185, 5844.444
358.9006, 5866.232
359.3827, 5891.771
359.8648, 5926.269
360.3469, 5960.491
360.8290, 5987.163
361.3112, 6003.857
361.7933, 6027.404
362.2754, 6072.175
362.7575, 6123.356
363.2396, 6165.018
363.7217, 6184.191
364.2039, 6202.311
364.6860, 6221.959
365.1681, 6243.394
365.6502, 6274.256
366.1323, 6325.627
366.6144, 6380.701
367.0966, 6428.052
367.5787, 6460.107
368.0608, 6492.715
368.5429, 6528.841
369.0250, 6567.045
369.5071, 6598.671
369.9893, 6617.555
370.4714, 6636.885
370.9535, 6661.813
371.4356, 6687.817
371.9177, 6730.996
372.3998, 6802.120
372.8820, 6885.398
373.3641, 6944.473
373.8462, 6974.053
374.3283, 6992.539
374.8104, 6999.130
375.2925, 6990.236
375.7747, 7018.065
376.2568, 7093.494
376.7389, 7184.532
377.2210, 7241.828
377.7031, 7262.096
378.1852, 7296.984
378.6674, 7371.312
379.1495, 7472.483
379.6316, 7548.406
380.1137, 7596.825
380.5958, 7634.642
381.0779, 7669.431
381.5601, 7704.440
382.0422, 7753.833
382.5243, 7826.016
383.0064, 7908.744
383.4885, 7980.611
383.9706, 8043.860
384.4528, 8109.952
384.9349, 8194.488
385.4170, 8285.578
385.8991, 8362.895
386.3812, 8420.102
386.8633, 8476.619
387.3455, 8546.927
387.8276, 8630.052
388.3097, 8725.271
388.7918, 8841.708
389.2739, 8963.091
389.7560, 9077.691
390.2382, 9184.619
390.7203, 9284.561
391.2024, 9370.495
391.6845, 9451.761
392.1666, 9540.280
392.6487, 9640.156
393.1309, 9747.337
393.6130, 9868.839
394.0951, 10002.12
394.5772, 10114.06
395.0593, 10171.72
395.5414, 10221.05
396.0236, 10290.26
396.5057, 10409.11
396.9878, 10517.69
397.4699, 10608.80
397.9520, 10685.04
398.4341, 10753.76
398.9163, 10811.15
399.3984, 10864.90
399.8805, 10917.81
400.3626, 10970.76
400.8447, 11021.30
401.3268, 11076.08
401.8090, 11123.43
402.2911, 11146.01
402.7732, 11136.81
403.2553, 11120.45
403.7374, 11102.71
404.2195, 11083.47
404.7017, 11063.95
405.1838, 11049.46
405.6659, 11019.72
406.1480, 10950.46
406.6301, 10840.85
407.1122, 10731.45
407.5944, 10628.86
408.0765, 10530.91
408.5586, 10437.03
409.0407, 10346.69
409.5228, 10250.95
410.0049, 10137.11
410.4871, 10014.16
410.9692, 9909.457
411.4513, 9829.529
411.9334, 9751.448
412.4155, 9644.015
412.8976, 9514.472
413.3798, 9388.340
413.8619, 9277.771
414.3440, 9173.806
414.8261, 9064.661
415.3082, 8949.674
415.7903, 8837.934
416.2725, 8737.316
416.7546, 8641.585
417.2367, 8541.252
417.7188, 8428.145
418.2009, 8318.371
418.6830, 8223.361
419.1652, 8139.013
419.6473, 8053.988
420.1294, 7960.570
420.6115, 7867.568
421.0937, 7777.206
421.5758, 7687.744
422.0579, 7609.366
422.5400, 7556.691
423.0221, 7513.009
423.5042, 7449.452
423.9864, 7344.613
424.4685, 7243.634
424.9506, 7154.949
425.4327, 7080.290
425.9148, 7010.905
426.3969, 6947.727
426.8791, 6888.776
427.3612, 6835.267
427.8433, 6792.489
428.3254, 6737.231
428.8075, 6659.320
429.2896, 6569.580
429.7718, 6510.502
430.2539, 6487.426
430.7360, 6465.820
431.2181, 6422.258
431.7002, 6358.804
432.1823, 6306.752
432.6645, 6269.304
433.1466, 6237.584
433.6287, 6197.964
434.1108, 6152.856
434.5929, 6114.507
435.0750, 6097.046
435.5572, 6085.935
436.0393, 6050.783
436.5214, 5992.790
437.0035, 5937.217
437.4856, 5907.392
437.9677, 5891.675
438.4499, 5873.545
438.9320, 5845.066
439.4141, 5819.591
439.8962, 5812.863
440.3783, 5817.211
440.8604, 5812.656
441.3426, 5781.600
441.8247, 5745.875
442.3068, 5714.806
442.7889, 5687.282
443.2710, 5674.913
443.7531, 5690.653
444.2353, 5719.310
444.7174, 5744.359
445.1995, 5770.567
445.6816, 5784.865
446.1637, 5774.392
446.6458, 5743.342
447.1280, 5738.129
447.6101, 5783.018
448.0922, 5827.059
448.5743, 5838.427
449.0564, 5796.457
449.5385, 5778.426
450.0207, 5793.318
450.5028, 5826.558
450.9849, 5850.546
451.4670, 5862.857
451.9491, 5877.018
452.4312, 5897.607
452.9134, 5924.372
453.3955, 5958.006
453.8776, 5999.473
454.3597, 6040.089
454.8418, 6067.279
455.3239, 6085.096
455.8061, 6109.411
456.2882, 6145.224
456.7703, 6187.440
457.2524, 6228.614
457.7345, 6269.622
458.2166, 6315.190
458.6988, 6371.395
459.1809, 6431.609
459.6630, 6487.175
460.1451, 6537.072
460.6272, 6587.581
461.1093, 6645.997
461.5915, 6706.138
462.0736, 6759.123
462.5557, 6799.162
463.0378, 6834.460
463.5199, 6863.600
464.0020, 6888.112
464.4842, 6919.883
464.9663, 6966.633
465.4484, 7017.107
465.9305, 7066.302
466.4126, 7120.523
466.8947, 7162.970
467.3769, 7191.408
467.8590, 7208.987
468.3411, 7217.627
468.8232, 7202.729
469.3053, 7209.413
469.7874, 7258.673
470.2696, 7346.912
470.7517, 7402.259
471.2338, 7414.625
471.7159, 7424.740
472.1980, 7469.981
472.6801, 7549.789
473.1623, 7630.607
473.6444, 7712.243
474.1265, 7785.146
474.6086, 7819.546
475.0907, 7823.006
475.5728, 7844.429
476.0550, 7926.065
476.5371, 8036.778
477.0192, 8125.184
477.5013, 8189.811
477.9834, 8247.463
478.4655, 8311.698
478.9477, 8376.795
479.4298, 8434.173
479.9119, 8477.359
480.3940, 8518.219
480.8761, 8567.896
481.3582, 8620.647
481.8404, 8659.202
482.3225, 8667.094
482.8046, 8668.405
483.2867, 8679.971
483.7688, 8716.466
484.2509, 8716.943
484.7331, 8648.507
485.2152, 8556.017
485.6973, 8480.292
486.1794, 8438.432
486.6615, 8383.940
487.1436, 8309.291
487.6258, 8216.771
488.1079, 8114.342
488.5900, 7998.427
489.0721, 7884.094
489.5542, 7784.519
490.0363, 7699.552
490.5185, 7595.066
491.0006, 7467.080
491.4827, 7332.866
491.9648, 7214.929
492.4470, 7111.588
492.9291, 7016.475
493.4112, 6933.208
493.8933, 6854.164
494.3754, 6769.136
494.8575, 6678.502
495.3397, 6589.800
495.8218, 6505.285
496.3039, 6425.087
496.7860, 6349.285
497.2681, 6275.448
497.7502, 6210.813
498.2324, 6166.671
498.7145, 6131.491
499.1966, 6088.730
499.6787, 6015.950
500.1608, 5953.088
500.6429, 5922.840
501.1251, 5922.049
501.6072, 5897.697
502.0893, 5811.364
502.5714, 5731.159
503.0535, 5692.486
503.5356, 5724.221
504.0178, 5726.463
504.4999, 5684.473
504.9820, 5626.345
505.4641, 5599.337
505.9462, 5612.470
506.4283, 5608.446
506.9105, 5560.960
507.3926, 5486.098
507.8747, 5450.710
508.3568, 5456.262
508.8389, 5473.503
509.3210, 5484.785
509.8032, 5490.971
510.2853, 5495.363
510.7674, 5499.125
511.2495, 5497.866
511.7316, 5483.175
512.2137, 5460.259
512.6959, 5439.984
513.1780, 5429.338
513.6601, 5420.584
514.1422, 5404.894
514.6243, 5384.488
515.1064, 5374.622
515.5886, 5391.064
516.0707, 5413.063
516.5528, 5429.335
517.0349, 5443.408
517.5170, 5441.671
517.9991, 5406.722
518.4813, 5361.510
518.9634, 5334.976
519.4455, 5333.406
519.9276, 5340.603
520.4097, 5358.958
520.8918, 5384.589
521.3740, 5392.006
521.8561, 5377.445
522.3382, 5357.133
522.8203, 5340.012
523.3024, 5326.158
523.7845, 5313.187
524.2667, 5299.725
524.7488, 5291.848
525.2309, 5300.537
525.7130, 5321.653
526.1951, 5340.913
526.6772, 5356.004
527.1594, 5364.537
527.6415, 5359.214
528.1236, 5343.173
528.6057, 5330.043
529.0878, 5331.914
529.5699, 5336.950
530.0521, 5334.679
530.5342, 5320.922
531.0163, 5312.741
531.4984, 5321.044
531.9805, 5335.280
532.4626, 5344.250
532.9448, 5344.597
533.4269, 5341.670
533.9090, 5334.155
534.3911, 5323.589
534.8732, 5316.156
535.3553, 5312.140
535.8375, 5310.583
536.3196, 5310.681
536.8017, 5312.291
537.2838, 5319.827
537.7659, 5335.202
538.2480, 5350.417
538.7302, 5356.757
539.2123, 5355.079
539.6944, 5349.606
540.1765, 5338.169
540.6586, 5329.009
541.1407, 5340.219
541.6229, 5365.257
542.1050, 5380.827
542.5871, 5366.060
543.0692, 5341.716
543.5513, 5324.898
544.0334, 5316.701
544.5156, 5313.270
544.9977, 5313.646
545.4798, 5317.576
545.9619, 5325.178
546.4440, 5341.006
546.9261, 5353.752
547.4083, 5360.670
547.8904, 5363.778
548.3725, 5366.440
548.8546, 5367.605
549.3367, 5370.398
549.8188, 5377.929
550.3010, 5389.000
550.7831, 5387.482
551.2652, 5369.802
551.7473, 5351.409
552.2294, 5342.734
552.7115, 5343.244
553.1937, 5350.208
553.6758, 5365.028
554.1579, 5379.563
554.6400, 5380.092
555.1221, 5371.769
555.6042, 5369.624
556.0864, 5384.195
556.5685, 5401.991
557.0506, 5410.353
557.5327, 5410.924
558.0148, 5409.604
558.4969, 5405.238
558.9791, 5402.907
559.4612, 5406.875
559.9433, 5419.140
560.4254, 5429.370
560.9075, 5441.395
561.3896, 5447.148
561.8718, 5438.415
562.3539, 5392.444
562.8360, 5372.456
563.3181, 5395.583
563.8002, 5441.644
564.2823, 5459.811
564.7645, 5443.605
565.2466, 5427.860
565.7287, 5426.282
566.2108, 5436.431
566.6929, 5446.063
567.1750, 5454.903
567.6572, 5467.712
568.1393, 5499.716
568.6214, 5536.517
569.1035, 5543.500
569.5856, 5508.879
570.0677, 5470.905
570.5499, 5461.349
571.0320, 5469.143
571.5141, 5476.622
571.9962, 5481.077
572.4783, 5480.260
572.9604, 5464.908
573.4426, 5440.352
573.9247, 5433.471
574.4068, 5472.473
574.8889, 5508.113
575.3710, 5518.984
575.8531, 5498.184
576.3353, 5488.682
576.8174, 5493.830
577.2995, 5505.444
577.7816, 5515.636
578.2637, 5523.860
578.7458, 5537.512
579.2280, 5560.276
579.7101, 5584.125
580.1922, 5593.146
580.6743, 5589.442
581.1564, 5584.885
581.6385, 5584.574
582.1207, 5586.728
582.6028, 5588.708
583.0849, 5590.770
583.5670, 5594.992
584.0491, 5600.008
584.5313, 5609.336
585.0134, 5627.228
585.4955, 5657.684
585.9776, 5685.390
586.4597, 5710.096
586.9418, 5728.327
587.4240, 5735.049
587.9061, 5714.917
588.3882, 5708.299
588.8703, 5727.586
589.3524, 5760.951
589.8345, 5768.553
590.3167, 5740.639
590.7988, 5725.048
591.2809, 5750.267
591.7630, 5806.114
592.2451, 5836.203
592.7272, 5839.577
593.2094, 5840.599
593.6915, 5862.519
594.1736, 5895.902
594.6557, 5921.954
595.1378, 5935.475
595.6199, 5948.779
596.1021, 5973.498
596.5842, 6003.062
597.0663, 6028.198
597.5485, 6037.821
598.0306, 6050.615
598.5127, 6074.402
598.9948, 6106.772
599.4769, 6137.333
599.9590, 6165.752
600.4412, 6192.380
600.9233, 6217.276
601.4054, 6240.636
601.8875, 6260.108
602.3696, 6273.538
602.8517, 6288.067
603.3339, 6311.992
603.8160, 6344.322
604.2981, 6368.129
604.7802, 6379.754
605.2623, 6388.120
605.7444, 6407.667
606.2266, 6433.358
606.7087, 6450.529
607.1908, 6446.837
607.6729, 6440.269
608.1550, 6444.898
608.6371, 6458.464
609.1193, 6473.787
609.6014, 6489.887
610.0835, 6505.384
610.5656, 6520.551
611.0477, 6536.178
611.5298, 6544.930
612.0120, 6543.407
612.4941, 6538.193
612.9762, 6533.175
613.4583, 6528.078
613.9404, 6524.888
614.4225, 6525.245
614.9047, 6524.779
615.3868, 6516.208
615.8689, 6500.016
616.3510, 6484.183
616.8331, 6473.461
617.3152, 6461.184
617.7974, 6433.806
618.2795, 6394.953
618.7616, 6357.365
619.2437, 6320.194
619.7258, 6292.978
620.2079, 6290.620
620.6901, 6313.323
621.1722, 6322.769
621.6543, 6293.868
622.1364, 6255.565
622.6185, 6226.631
623.1006, 6210.983
623.5828, 6198.526
624.0649, 6193.014
624.5470, 6187.248
625.0291, 6171.601
625.5112, 6144.104
625.9933, 6117.014
626.4755, 6092.506
626.9576, 6070.041
627.4397, 6045.804
627.9218, 6021.117
628.4039, 6006.069
628.8860, 6012.724
629.3682, 6028.179
629.8503, 6038.240
630.3324, 6042.422
630.8145, 6037.364
631.2966, 6006.610
631.7787, 5976.069
632.2609, 5968.639
632.7430, 5996.732
633.2251, 6010.094
633.7072, 5980.844
634.1893, 5944.072
634.6714, 5929.733
635.1536, 5951.673
635.6357, 5966.043
636.1178, 5970.242
636.5999, 5964.808
637.0820, 5946.178
637.5641, 5913.620
638.0463, 5888.446
638.5284, 5879.609
639.0105, 5880.378
639.4926, 5876.133
639.9747, 5868.342
640.4568, 5865.522
640.9390, 5877.229
641.4211, 5893.396
641.9032, 5906.800
642.3853, 5916.856
642.8674, 5919.526
643.3495, 5902.982
643.8317, 5885.298
644.3138, 5879.667
644.7959, 5898.313
645.2780, 5908.150
645.7601, 5904.855
646.2422, 5896.556
646.7244, 5892.455
647.2065, 5893.079
647.6886, 5896.034
648.1707, 5902.566
648.6528, 5908.858
649.1349, 5905.243
649.6171, 5893.167
650.0992, 5882.799
650.5813, 5879.838
651.0634, 5880.578
651.5455, 5880.625
652.0276, 5880.281
652.5098, 5881.169
652.9919, 5883.731
653.4740, 5888.118
653.9561, 5895.634
654.4382, 5907.554
654.9203, 5915.423
655.4025, 5919.058
655.8846, 5917.680
656.3667, 5909.642
656.8488, 5891.394
657.3309, 5876.649
657.8130, 5865.173
658.2952, 5858.377
658.7773, 5858.164
659.2594, 5864.472
659.7415, 5878.177
660.2236, 5904.347
660.7057, 5929.963
661.1879, 5934.538
661.6700, 5922.956
662.1521, 5908.670
662.6342, 5889.708
663.1163, 5877.474
663.5984, 5885.667
664.0806, 5910.875
664.5627, 5925.032
665.0448, 5908.015
665.5269, 5890.431
666.0090, 5886.591
666.4911, 5899.213
666.9733, 5904.832
667.4554, 5900.408
667.9375, 5895.008
668.4196, 5898.231
668.9017, 5909.582
669.3839, 5912.448
669.8660, 5904.297
670.3481, 5892.616
670.8302, 5882.003
671.3123, 5874.771
671.7944, 5876.921
672.2766, 5896.416
672.7587, 5915.799
673.2408, 5925.351
673.7229, 5926.472
674.2050, 5922.152
674.6871, 5908.609
675.1693, 5894.539
675.6514, 5877.350
676.1335, 5860.034
676.6156, 5861.887
677.0977, 5894.326
677.5798, 5919.387
678.0620, 5912.306
678.5441, 5879.003
679.0262, 5885.623
679.5083, 5934.842
679.9904, 5980.960
680.4725, 5980.708
680.9547, 5954.521
681.4368, 5936.839
681.9189, 5931.877
682.4010, 5934.169
682.8831, 5948.083
683.3652, 5963.554
683.8474, 5970.344
684.3295, 5964.817
684.8116, 5952.583
685.2937, 5921.527
685.7758, 5889.973
686.2579, 5884.550
686.7401, 5916.428
687.2222, 5944.255
687.7043, 5961.754
688.1864, 5969.779
688.6685, 5966.741
689.1506, 5953.460
689.6328, 5943.358
690.1149, 5946.789
690.5970, 5953.979
691.0791, 5947.237
691.5612, 5929.604
692.0433, 5916.760
692.5255, 5918.997
693.0076, 5926.939
693.4897, 5935.313
693.9718, 5943.644
694.4539, 5952.786
694.9360, 5965.721
695.4182, 5976.813
695.9003, 5983.337
696.3824, 5985.069
696.8645, 5980.662
697.3466, 5966.604
697.8287, 5955.617
698.3109, 5967.915
698.7930, 5997.618
699.2751, 6010.507
699.7572, 5996.298
700.2393, 5979.932
700.7214, 5991.363
701.2036, 6017.668
701.6857, 6037.377
702.1678, 6043.055
702.6499, 6040.596
703.1320, 6024.170
703.6141, 6001.353
704.0963, 5991.864
704.5784, 6008.953
705.0605, 6019.985
705.5426, 6015.656
706.0247, 6000.118
706.5068, 5992.277
706.9890, 5992.813
707.4711, 5994.904
707.9532, 5994.035
708.4353, 5992.364
708.9174, 5998.406
709.3995, 6011.008
709.8817, 6018.485
710.3638, 6002.826
710.8459, 5984.910
711.3280, 5985.981
711.8101, 6010.712
712.2922, 6031.564
712.7744, 6042.891
713.2565, 6046.070
713.7386, 6041.652
714.2207, 6024.481
714.7028, 6013.206
715.1849, 6008.991
715.6671, 6008.477
716.1492, 6008.573
716.6313, 6009.178
717.1134, 6008.845
717.5955, 6006.989
718.0776, 6005.244
718.5598, 6000.970
719.0419, 5998.897
719.5240, 6008.832
720.0061, 6052.560
720.4882, 6086.827
720.9703, 6085.728
721.4525, 6061.277
721.9346, 6040.705
722.4167, 6023.210
722.8988, 6015.763
723.3809, 6022.855
723.8630, 6040.671
724.3452, 6055.190
724.8273, 6066.730
725.3094, 6072.297
725.7915, 6066.290
726.2736, 6054.699
726.7557, 6054.651
727.2379, 6064.773
727.7200, 6074.253
728.2021, 6078.125
728.6842, 6076.948
729.1663, 6068.951
729.6484, 6053.786
730.1306, 6041.964
730.6127, 6032.999
731.0948, 6031.450
731.5769, 6040.834
732.0590, 6065.136
732.5411, 6083.882
733.0233, 6095.915
733.5054, 6104.996
733.9875, 6117.946
734.4696, 6132.675
734.9517, 6129.735
735.4338, 6104.150
735.9160, 6078.041
736.3981, 6076.740
736.8802, 6088.528
737.3623, 6095.707
737.8444, 6089.815
738.3266, 6086.045
738.8087, 6091.832
739.2908, 6102.660
739.7729, 6112.213
740.2551, 6122.913
740.7372, 6127.170
741.2193, 6121.805
741.7014, 6111.482
742.1835, 6105.567
742.6656, 6104.124
743.1478, 6105.030
743.6299, 6107.650
744.1120, 6112.176
744.5941, 6124.321
745.0762, 6139.402
745.5583, 6143.233
746.0405, 6112.355
746.5226, 6083.529
747.0047, 6079.507
747.4868, 6096.742
747.9689, 6112.724
748.4510, 6122.786
748.9332, 6133.661
749.4153, 6148.540
749.8974, 6166.660
750.3795, 6179.346
750.8616, 6186.114
751.3438, 6190.947
751.8259, 6196.779
752.3080, 6202.387
752.7901, 6204.544
753.2722, 6203.295
753.7543, 6201.246
754.2365, 6201.424
754.7186, 6200.627
755.2007, 6193.581
755.6828, 6176.786
756.1649, 6171.560
756.6470, 6192.315
757.1292, 6216.009
757.6113, 6226.932
758.0934, 6218.977
758.5755, 6229.295
759.0576, 6263.595
759.5397, 6297.428
760.0219, 6302.810
760.5040, 6286.781
760.9861, 6267.884
761.4682, 6246.675
761.9503, 6236.688
762.4324, 6261.927
762.9146, 6298.789
763.3967, 6318.690
763.8788, 6298.835
764.3609, 6287.705
764.8430, 6301.951
765.3251, 6323.844
765.8073, 6331.318
766.2894, 6317.338
766.7715, 6318.778
767.2536, 6346.086
767.7357, 6380.687
768.2178, 6387.567
768.7000, 6373.403
769.1821, 6366.184
769.6642, 6377.555
770.1463, 6394.816
770.6284, 6415.503
771.1105, 6433.084
771.5927, 6434.935
772.0748, 6384.236
772.5569, 6356.176
773.0390, 6382.972
773.5211, 6441.445
774.0032, 6472.051
774.4854, 6467.292
774.9675, 6462.711
775.4496, 6469.123
775.9317, 6482.332
776.4138, 6495.331
776.8959, 6506.800
777.3781, 6510.184
777.8602, 6492.064
778.3423, 6472.404
778.8244, 6471.651
779.3065, 6484.974
779.7886, 6491.249
780.2708, 6473.192
780.7529, 6458.641
781.2350, 6458.413
781.7171, 6470.608
782.1992, 6476.122
782.6813, 6472.336
783.1635, 6472.185
783.6456, 6485.987
784.1277, 6507.912
784.6098, 6518.481
785.0919, 6518.483
785.5740, 6516.354
786.0562, 6519.841
786.5383, 6521.858
787.0204, 6511.624
787.5025, 6488.800
787.9846, 6479.476
788.4667, 6513.094
788.9489, 6538.911
789.4310, 6533.394
789.9131, 6494.684
790.3952, 6458.004
790.8773, 6421.709
791.3594, 6396.489
791.8416, 6397.726
792.3237, 6415.549
792.8058, 6423.228
793.2879, 6419.637
793.7700, 6414.963
794.2521, 6419.384
794.7343, 6423.651
795.2164, 6418.747
795.6985, 6400.639
796.1806, 6386.695
796.6627, 6376.127
797.1448, 6372.679
797.6270, 6379.455
798.1091, 6397.208
798.5912, 6423.246
799.0733, 6460.960
799.5554, 6489.605
800.0375, 6482.033
800.5197, 6452.897
801.0018, 6428.995
801.4839, 6414.177
801.9660, 6403.772
802.4481, 6391.024
802.9302, 6383.879
803.4124, 6390.614
803.8945, 6423.771
804.3766, 6444.558
804.8587, 6446.401
805.3408, 6444.525
805.8229, 6453.902
806.3051, 6474.438
806.7872, 6492.048
807.2693, 6505.847
807.7514, 6515.016
808.2335, 6518.281
808.7156, 6516.700
809.1978, 6509.849
809.6799, 6493.716
810.1620, 6485.652
810.6441, 6499.394
811.1262, 6521.048
811.6083, 6536.396
812.0905, 6539.285
812.5726, 6550.910
813.0547, 6576.372
813.5368, 6601.317
814.0189, 6606.267
814.5010, 6594.507
814.9832, 6584.526
815.4653, 6578.893
815.9474, 6577.482
816.4295, 6581.113
816.9116, 6588.466
817.3937, 6598.496
817.8759, 6614.246
818.3580, 6625.997
818.8401, 6634.295
819.3222, 6635.848
819.8043, 6622.500
820.2864, 6585.792
820.7686, 6579.172
821.2507, 6616.467
821.7328, 6657.219
822.2149, 6637.512
822.6970, 6580.404
823.1791, 6545.360
823.6613, 6550.968
824.1434, 6563.825
824.6255, 6571.244
825.1076, 6569.610
825.5897, 6554.792
826.0718, 6513.399
826.5540, 6474.958
827.0361, 6432.135
827.5182, 6400.173
828.0003, 6404.023
828.4824, 6443.108
828.9645, 6472.112
829.4467, 6485.718
829.9288, 6481.750
830.4109, 6439.890
830.8930, 6384.612
831.3751, 6356.147
831.8572, 6379.938
832.3394, 6397.251
832.8215, 6376.605
833.3036, 6345.313
833.7857, 6335.261
834.2678, 6358.287
834.7499, 6367.052
835.2321, 6355.193
835.7142, 6336.727
836.1963, 6327.915
836.6784, 6327.226
837.1605, 6330.748
837.6426, 6339.137
838.1248, 6345.076
838.6069, 6339.773
839.0890, 6330.383
839.5711, 6324.834
840.0532, 6326.125
840.5353, 6329.285
841.0175, 6337.368
841.4996, 6343.615
841.9817, 6337.955
842.4638, 6319.452
842.9459, 6313.238
843.4280, 6322.986
843.9102, 6338.333
844.3923, 6351.514
844.8744, 6361.515
845.3565, 6366.682
845.8386, 6366.810
846.3207, 6361.898
846.8029, 6347.702
847.2850, 6331.129
847.7671, 6317.645
848.2492, 6305.578
848.7313, 6302.202
849.2134, 6309.617
849.6956, 6320.449
850.1777, 6326.818
850.6598, 6330.464
851.1419, 6339.931
851.6240, 6357.402
852.1061, 6368.611
852.5883, 6354.230
853.0704, 6333.863
853.5525, 6325.538
854.0346, 6335.237
854.5167, 6348.621
854.9988, 6372.617
855.4810, 6389.877
855.9631, 6382.866
856.4452, 6350.948
856.9273, 6338.599
857.4094, 6348.025
857.8915, 6361.277
858.3737, 6364.377
858.8558, 6361.043
859.3379, 6353.248
859.8200, 6340.583
860.3021, 6334.955
860.7842, 6353.090
861.2664, 6368.759
861.7485, 6364.182
862.2306, 6335.724
862.7127, 6325.758
863.1948, 6337.690
863.6769, 6352.765
864.1591, 6354.634
864.6412, 6350.475
865.1233, 6362.217
865.6054, 6388.778
866.0875, 6406.315
866.5696, 6395.814
867.0518, 6375.909
867.5339, 6352.562
868.0160, 6325.941
868.4981, 6322.510
868.9802, 6354.410
869.4623, 6383.716
869.9445, 6390.111
870.4266, 6379.361
870.9087, 6378.447
871.3908, 6386.531
871.8729, 6394.744
872.3550, 6401.721
872.8372, 6403.350
873.3193, 6391.098
873.8014, 6368.359
874.2835, 6354.597
874.7656, 6358.404
875.2477, 6367.214
875.7299, 6379.378
876.2120, 6393.937
876.6941, 6410.239
877.1762, 6428.231
877.6583, 6436.116
878.1404, 6421.874
878.6226, 6401.854
879.1047, 6403.198
879.5869, 6416.334
880.0690, 6416.675
880.5511, 6371.619
881.0332, 6339.527
881.5153, 6345.951
881.9974, 6373.516
882.4796, 6388.033
882.9617, 6387.462
883.4438, 6384.564
883.9259, 6380.684
884.4080, 6379.206
884.8901, 6387.768
885.3723, 6402.824
885.8544, 6416.496
886.3365, 6428.383
886.8186, 6434.348
887.3007, 6427.204
887.7828, 6415.124
888.2650, 6409.375
888.7471, 6411.166
889.2292, 6417.381
889.7113, 6429.585
890.1934, 6442.086
890.6755, 6448.306
891.1577, 6448.820
891.6398, 6445.590
892.1219, 6439.049
892.6040, 6428.504
893.0861, 6403.107
893.5682, 6379.670
894.0504, 6376.929
894.5325, 6413.829
895.0146, 6426.636
895.4967, 6402.778
895.9788, 6378.037
896.4609, 6389.857
896.9431, 6430.130
897.4252, 6443.714
897.9073, 6427.402
898.3894, 6413.203
898.8715, 6431.108
899.3536, 6457.448
899.8358, 6474.628
900.3179, 6480.801
900.8000, 6474.026
901.2821, 6441.101
901.7642, 6415.314
902.2463, 6412.869
902.7285, 6431.089
903.2106, 6455.755
903.6927, 6485.971
904.1748, 6502.020
904.6569, 6476.443
905.1390, 6442.451
905.6212, 6434.971
906.1033, 6449.385
906.5854, 6462.202
907.0675, 6464.987
907.5496, 6468.008
908.0317, 6475.211
908.5139, 6483.719
908.9960, 6481.605
909.4781, 6468.814
909.9602, 6465.458
910.4423, 6485.151
910.9244, 6506.969
911.4066, 6501.463
911.8887, 6480.456
912.3708, 6465.620
912.8529, 6466.484
913.3350, 6471.857
913.8171, 6483.774
914.2993, 6496.083
914.7814, 6499.994
915.2635, 6494.937
915.7456, 6489.046
916.2277, 6483.590
916.7098, 6476.950
917.1920, 6463.368
917.6741, 6448.968
918.1562, 6443.723
918.6383, 6452.096
919.1204, 6460.956
919.6025, 6463.479
920.0847, 6467.661
920.5668, 6479.540
921.0489, 6500.548
921.5310, 6520.370
922.0131, 6539.271
922.4952, 6554.289
922.9774, 6564.460
923.4595, 6568.439
923.9416, 6560.314
924.4237, 6541.002
924.9058, 6527.108
925.3879, 6530.186
925.8701, 6534.998
926.3522, 6534.084
926.8343, 6528.693
927.3164, 6530.192
927.7985, 6539.525
928.2806, 6546.714
928.7628, 6543.194
929.2449, 6538.600
929.7270, 6553.162
930.2091, 6579.311
930.6912, 6596.953
931.1733, 6595.437
931.6555, 6586.640
932.1376, 6567.120
932.6197, 6545.469
933.1018, 6537.630
933.5839, 6545.786
934.0660, 6549.539
934.5482, 6542.915
935.0303, 6538.010
935.5124, 6560.781
935.9945, 6593.427
936.4766, 6601.184
936.9587, 6562.778
937.4409, 6536.578
937.9230, 6557.846
938.4051, 6585.852
938.8872, 6584.818
939.3693, 6544.366
939.8514, 6541.900
940.3336, 6582.349
940.8157, 6625.344
941.2978, 6637.835
941.7799, 6631.676
942.2620, 6620.152
942.7441, 6605.007
943.2263, 6594.983
943.7084, 6596.629
944.1905, 6601.409
944.6726, 6607.346
945.1547, 6613.592
945.6368, 6613.467
946.1190, 6606.483
946.6011, 6601.103
947.0832, 6599.011
947.5653, 6602.858
948.0474, 6623.932
948.5295, 6653.254
949.0117, 6669.945
949.4938, 6655.544
949.9759, 6641.685
950.4580, 6632.246
950.9401, 6628.033
951.4222, 6631.373
951.9044, 6642.368
952.3865, 6654.696
952.8686, 6667.580
953.3507, 6680.501
953.8328, 6700.334
954.3149, 6716.348
954.7971, 6709.270
955.2792, 6662.974
955.7613, 6643.681
956.2434, 6682.289
956.7255, 6724.607
957.2076, 6736.712
957.6898, 6719.582
958.1719, 6706.318
958.6540, 6696.877
959.1361, 6695.267
959.6182, 6713.558
960.1003, 6733.562
960.5825, 6734.747
961.0646, 6720.702
961.5467, 6716.053
962.0288, 6731.367
962.5109, 6747.301
962.9930, 6759.696
963.4752, 6769.398
963.9573, 6778.264
964.4394, 6786.091
964.9215, 6792.794
965.4036, 6801.078
965.8857, 6802.570
966.3679, 6776.987
966.8500, 6746.287
967.3321, 6740.325
967.8142, 6786.830
968.2963, 6815.346
968.7784, 6824.021
969.2606, 6817.391
969.7427, 6790.744
970.2248, 6752.226
970.7069, 6732.643
971.1890, 6734.222
971.6711, 6742.021
972.1533, 6743.346
972.6354, 6750.077
973.1175, 6776.112
973.5996, 6820.686
974.0817, 6844.070
974.5638, 6837.541
975.0460, 6842.462
975.5281, 6888.274
976.0102, 6945.174
976.4923, 6935.426
976.9744, 6882.225
977.4565, 6853.710
977.9387, 6918.290
978.4208, 6967.317
978.9029, 6951.399
979.3850, 6903.343
979.8671, 6861.305
980.3492, 6822.115
980.8314, 6811.965
981.3135, 6836.872
981.7956, 6877.028
982.2777, 6927.437
982.7598, 6971.911
983.2419, 6981.328
983.7241, 6946.674
984.2062, 6918.218
984.6883, 6912.753
985.1704, 6915.442
985.6525, 6921.320
986.1346, 6930.081
986.6168, 6940.460
987.0989, 6952.215
987.5810, 6957.773
988.0631, 6944.414
988.5452, 6929.868
989.0273, 6931.010
989.5095, 6944.289
989.9916, 6960.978
990.4737, 6988.536
990.9558, 7004.320
991.4379, 7002.703
991.9200, 6992.303
992.4022, 6984.214
992.8843, 6978.705
993.3664, 6975.561
993.8485, 6973.932
994.3306, 6980.119
994.8127, 7007.514
995.2949, 7038.576
995.7770, 7056.397
996.2591, 7057.888
996.7412, 7064.476
997.2233, 7077.737
997.7054, 7090.163
998.1876, 7098.839
998.6697, 7102.776
999.1518, 7095.054
999.6339, 7079.609
1000.116, 7072.034
1000.598, 7081.753
1001.080, 7097.965
1001.562, 7126.841
1002.044, 7155.354
1002.527, 7154.949
1003.009, 7122.717
1003.491, 7105.569
1003.973, 7114.972
1004.455, 7129.684
1004.937, 7119.449
1005.419, 7103.911
1005.901, 7110.029
1006.384, 7148.470
1006.866, 7183.687
1007.348, 7216.858
1007.830, 7237.570
1008.312, 7234.203
1008.794, 7212.530
1009.276, 7209.057
1009.758, 7221.651
1010.240, 7232.319
1010.723, 7227.496
1011.205, 7220.459
1011.687, 7217.372
1012.169, 7218.837
1012.651, 7226.752
1013.133, 7246.747
1013.615, 7255.191
1014.097, 7245.672
1014.580, 7231.270
1015.062, 7227.652
1015.544, 7233.021
1016.026, 7246.425
1016.508, 7269.761
1016.990, 7288.178
1017.472, 7296.698
1017.954, 7296.975
1018.436, 7287.331
1018.919, 7268.676
1019.401, 7257.909
1019.883, 7255.024
1020.365, 7263.368
1020.847, 7293.460
1021.329, 7328.565
1021.811, 7358.456
1022.293, 7379.738
1022.776, 7384.122
1023.258, 7355.485
1023.740, 7333.715
1024.222, 7322.762
1024.704, 7319.775
1025.186, 7325.481
1025.668, 7336.034
1026.150, 7334.520
1026.632, 7317.153
1027.115, 7307.968
1027.597, 7333.627
1028.079, 7362.166
1028.561, 7370.431
1029.043, 7359.301
1029.525, 7350.347
1030.007, 7342.912
1030.489, 7345.189
1030.972, 7370.436
1031.454, 7396.799
1031.936, 7385.271
1032.418, 7352.604
1032.900, 7334.856
1033.382, 7353.602
1033.864, 7374.928
1034.346, 7400.538
1034.828, 7420.192
1035.311, 7414.958
1035.793, 7390.567
1036.275, 7388.602
1036.757, 7412.495
1037.239, 7436.927
1037.721, 7445.747
1038.203, 7447.174
1038.685, 7442.354
1039.167, 7433.358
1039.650, 7438.147
1040.132, 7461.501
1040.614, 7477.031
1041.096, 7473.136
1041.578, 7461.083
1042.060, 7452.924
1042.542, 7451.116
1043.024, 7461.864
1043.507, 7500.102
1043.989, 7524.512
1044.471, 7526.497
1044.953, 7514.654
1045.435, 7485.988
1045.917, 7443.990
1046.399, 7442.894
1046.881, 7481.650
1047.364, 7517.274
1047.846, 7519.869
1048.328, 7510.166
1048.810, 7498.078
1049.292, 7485.302
1049.774, 7476.788
1050.256, 7474.692
1050.738, 7468.167
1051.220, 7452.864
1051.703, 7438.269
1052.185, 7436.838
1052.667, 7446.307
1053.149, 7467.899
1053.631, 7508.667
1054.113, 7528.045
1054.595, 7493.841
1055.077, 7460.270
1055.559, 7456.729
1056.042, 7478.163
1056.524, 7492.923
1057.006, 7500.661
1057.488, 7498.541
1057.970, 7473.739
1058.452, 7450.236
1058.934, 7446.984
1059.416, 7454.066
1059.899, 7449.314
1060.381, 7420.612
1060.863, 7426.497
1061.345, 7478.900
1061.827, 7535.731
1062.309, 7554.949
1062.791, 7550.483
1063.273, 7540.272
1063.755, 7526.132
1064.238, 7510.203
1064.720, 7482.938
1065.202, 7467.445
1065.684, 7472.483
1066.166, 7492.662
1066.648, 7519.811
1067.130, 7549.909
1067.612, 7565.260
1068.094, 7555.332
1068.577, 7541.049
1069.059, 7526.078
1069.541, 7519.123
1070.023, 7529.424
1070.505, 7560.594
1070.987, 7592.188
1071.469, 7626.500
1071.951, 7643.177
1072.434, 7611.545
1072.916, 7566.918
1073.398, 7549.515
1073.880, 7554.906
1074.362, 7565.081
1074.844, 7576.139
1075.326, 7593.095
1075.808, 7620.217
1076.291, 7647.325
1076.773, 7661.772
1077.255, 7664.598
1077.737, 7653.328
1078.219, 7626.586
1078.701, 7610.252
1079.183, 7630.786
1079.665, 7652.028
1080.147, 7655.674
1080.630, 7644.365
1081.112, 7629.823
1081.594, 7612.542
1082.076, 7608.769
1082.558, 7629.954
1083.040, 7656.664
1083.522, 7678.769
1084.004, 7692.606
1084.486, 7689.484
1084.969, 7650.032
1085.451, 7653.129
1085.933, 7711.075
1086.415, 7765.115
1086.897, 7758.677
1087.379, 7724.109
1087.861, 7716.946
1088.343, 7733.317
1088.826, 7751.305
1089.308, 7767.841
1089.790, 7778.518
1090.272, 7782.458
1090.754, 7780.634
1091.236, 7771.583
1091.718, 7757.566
1092.200, 7745.867
1092.682, 7736.685
1093.165, 7743.694
1093.647, 7803.907
1094.129, 7856.552
1094.611, 7852.986
1095.093, 7804.660
1095.575, 7796.984
1096.057, 7831.712
1096.539, 7864.074
1097.022, 7877.737
1097.504, 7880.789
1097.986, 7873.792
1098.468, 7864.444
1098.950, 7864.093
1099.432, 7879.315
1099.914, 7890.803
1100.396, 7898.552
1100.879, 7902.006
1101.361, 7896.996
1101.843, 7889.056
1102.325, 7885.441
1102.807, 7887.931
1103.289, 7902.499
1103.771, 7957.838
1104.253, 7987.574
1104.735, 7970.844
1105.218, 7938.165
1105.700, 7934.958
1106.182, 7954.049
1106.664, 7960.259
1107.146, 7949.600
1107.628, 7937.755
1108.110, 7934.349
1108.592, 7932.252
1109.074, 7923.503
1109.557, 7912.798
1110.039, 7922.383
1110.521, 7952.592
1111.003, 7985.419
1111.485, 8019.038
1111.967, 8042.222
1112.449, 8039.503
1112.931, 8022.729
1113.414, 8000.631
1113.896, 7969.271
1114.378, 7964.448
1114.860, 7991.757
1115.342, 8021.127
1115.824, 8033.626
1116.306, 8039.638
1116.788, 8062.871
1117.271, 8091.715
1117.753, 8100.458
1118.235, 8053.947
1118.717, 8028.003
1119.199, 8033.342
1119.681, 8048.247
1120.163, 8047.434
1120.645, 8039.465
1121.127, 8059.314
1121.609, 8103.486
1122.092, 8125.518
1122.574, 8073.396
1123.056, 8029.895
1123.538, 8023.215
1124.020, 8040.060
1124.502, 8060.613
1124.984, 8082.946
1125.466, 8086.914
1125.949, 8066.448
1126.431, 8048.523
1126.913, 8060.492
1127.395, 8074.625
1127.877, 8063.150
1128.359, 8031.896
1128.841, 8037.568
1129.323, 8082.776
1129.806, 8118.225
1130.288, 8122.188
1130.770, 8117.416
1131.252, 8129.246
1131.734, 8145.100
1132.216, 8148.420
1132.698, 8136.491
1133.180, 8110.684
1133.662, 8064.221
1134.145, 8033.344
1134.627, 8051.045
1135.109, 8091.782
1135.591, 8121.246
1136.073, 8140.586
1136.555, 8151.932
1137.037, 8152.896
1137.519, 8148.535
1138.001, 8135.310
1138.484, 8125.041
1138.966, 8134.947
1139.448, 8156.125
1139.930, 8168.495
1140.412, 8170.970
1140.894, 8164.915
1141.376, 8143.847
1141.858, 8122.904
1142.341, 8105.062
1142.823, 8090.452
1143.305, 8070.342
1143.787, 8052.036
1144.269, 8078.603
1144.751, 8162.771
1145.233, 8228.461
1145.715, 8225.865
1146.198, 8197.396
1146.680, 8158.248
1147.162, 8115.590
1147.644, 8109.853
1148.126, 8138.178
1148.608, 8161.440
1149.090, 8165.836
1149.572, 8166.261
1150.054, 8172.375
1150.536, 8181.057
1151.019, 8191.928
1151.501, 8206.218
1151.983, 8199.383
1152.465, 8170.328
1152.947, 8146.879
1153.429, 8148.935
1153.911, 8157.804
1154.393, 8155.972
1154.876, 8148.577
1155.358, 8144.868
1155.840, 8147.808
1156.322, 8145.178
1156.804, 8134.373
1157.286, 8131.071
1157.768, 8163.839
1158.250, 8200.205
1158.733, 8187.020
1159.215, 8139.770
1159.697, 8122.451
1160.179, 8165.604
1160.661, 8192.138
1161.143, 8192.090
1161.625, 8176.658
1162.107, 8149.680
1162.589, 8120.333
1163.072, 8106.386
1163.554, 8108.130
1164.036, 8108.156
1164.518, 8093.850
1165.000, 8092.692
1165.482, 8115.514
1165.964, 8147.931
1166.446, 8166.250
1166.928, 8173.130
1167.411, 8175.923
1167.893, 8177.167
1168.375, 8164.669
1168.857, 8110.543
1169.339, 8072.653
1169.821, 8078.035
1170.303, 8111.869
1170.785, 8140.402
1171.268, 8160.563
1171.750, 8161.273
1172.232, 8131.914
1172.714, 8101.235
1173.196, 8073.030
1173.678, 8055.438
1174.160, 8059.099
1174.642, 8078.947
1175.125, 8078.512
1175.607, 8061.482
1176.089, 8048.002
1176.571, 8043.207
1177.053, 8049.764
1177.535, 8083.993
1178.017, 8118.701
1178.499, 8127.041
1178.981, 8109.381
1179.464, 8092.563
1179.946, 8076.921
1180.428, 8062.364
1180.910, 8041.627
1181.392, 8029.796
1181.874, 8045.857
1182.356, 8070.389
1182.838, 8069.288
1183.320, 8041.019
1183.803, 8039.388
1184.285, 8069.538
1184.767, 8093.019
1185.249, 8068.697
1185.731, 8039.579
1186.213, 8039.353
1186.695, 8057.505
1187.177, 8062.181
1187.660, 8052.399
1188.142, 8043.268
1188.624, 8036.848
1189.106, 8034.979
1189.588, 8056.175
1190.070, 8068.752
1190.552, 8031.071
1191.034, 7954.525
1191.516, 7927.053
1191.999, 7953.691
1192.481, 7981.873
1192.963, 7998.511
1193.445, 8012.285
1193.927, 8038.641
1194.409, 8061.922
1194.891, 8066.211
1195.373, 8050.322
1195.855, 8013.160
1196.338, 7948.654
1196.820, 7917.146
1197.302, 7957.159
1197.784, 8008.826
1198.266, 8000.648
1198.748, 7968.377
1199.230, 7959.555
1199.712, 7985.025
1200.195, 7992.354
1200.677, 7978.994
1201.159, 7965.148
1201.641, 7960.594
1202.123, 7962.311
1202.605, 7965.507
1203.087, 7973.152
1203.569, 7994.048
1204.052, 8048.192
1204.534, 8050.385
1205.016, 7992.039
1205.498, 7933.274
1205.980, 7913.884
1206.462, 7917.342
1206.944, 7934.840
1207.426, 7958.466
1207.908, 7968.444
1208.391, 7955.161
1208.873, 7953.495
1209.355, 7966.734
1209.837, 7981.600
1210.319, 7986.331
1210.801, 7986.835
1211.283, 7988.146
1211.765, 7990.894
1212.247, 7997.943
1212.730, 8015.945
1213.212, 8015.878
1213.694, 7991.953
1214.176, 7963.010
1214.658, 7936.711
1215.140, 7922.564
1215.622, 7945.328
1216.104, 7994.784
1216.587, 8004.919
1217.069, 7956.799
1217.551, 7924.606
1218.033, 7921.526
1218.515, 7931.870
1218.997, 7942.251
1219.479, 7953.644
1219.961, 7971.276
1220.443, 7993.480
1220.926, 7996.889
1221.408, 7973.665
1221.890, 7960.244
1222.372, 7965.346
1222.854, 7982.073
1223.336, 8020.373
1223.818, 8054.100
1224.300, 8042.863
1224.782, 7980.410
1225.265, 7955.572
1225.747, 7974.177
1226.229, 8006.094
1226.711, 8047.598
1227.193, 8083.526
1227.675, 8096.385
1228.157, 8092.648
1228.639, 8074.077
1229.122, 8038.456
1229.604, 8028.261
1230.086, 8047.985
1230.568, 8062.118
1231.050, 8053.746
1231.532, 8040.804
1232.014, 8041.934
1232.496, 8051.704
1232.979, 8066.813
1233.461, 8089.101
1233.943, 8088.928
1234.425, 8063.146
1234.907, 8047.244
1235.389, 8064.485
1235.871, 8088.138
1236.353, 8091.145
1236.835, 8085.071
1237.318, 8086.382
1237.800, 8098.159
1238.282, 8094.902
1238.764, 8075.361
1239.246, 8067.583
1239.728, 8099.220
1240.210, 8133.719
1240.692, 8137.420
1241.175, 8126.407
1241.657, 8122.129
1242.139, 8125.532
1242.621, 8136.849
1243.103, 8156.320
1243.585, 8165.483
1244.067, 8141.269
1244.549, 8115.840
1245.031, 8112.234
1245.514, 8120.193
1245.996, 8122.895
1246.478, 8118.912
1246.960, 8130.746
1247.442, 8158.011
1247.924, 8186.033
1248.406, 8219.391
1248.888, 8234.902
1249.370, 8204.368
1249.853, 8157.025
1250.335, 8126.989
1250.817, 8114.511
1251.299, 8125.434
1251.781, 8158.596
1252.263, 8193.392
1252.745, 8233.339
1253.227, 8252.209
1253.710, 8220.622
1254.192, 8175.989
1254.674, 8164.371
1255.156, 8182.310
1255.638, 8213.492
1256.120, 8254.176
1256.602, 8276.114
1257.084, 8239.869
1257.567, 8213.286
1258.049, 8223.633
1258.531, 8246.628
1259.013, 8242.104
1259.495, 8221.775
1259.977, 8236.979
1260.459, 8287.128
1260.941, 8321.430
1261.423, 8299.266
1261.906, 8282.344
1262.388, 8288.677
1262.870, 8299.348
1263.352, 8279.048
1263.834, 8244.470
1264.316, 8236.212
1264.798, 8256.248
1265.280, 8279.201
1265.762, 8306.759
1266.245, 8319.176
1266.727, 8307.390
1267.209, 8292.251
1267.691, 8307.098
1268.173, 8335.824
1268.655, 8352.427
1269.137, 8355.076
1269.619, 8353.539
1270.102, 8344.087
1270.584, 8347.766
1271.066, 8373.984
1271.548, 8397.392
1272.030, 8371.035
1272.512, 8333.315
1272.994, 8338.982
1273.476, 8387.383
1273.958, 8398.057
1274.441, 8358.704
1274.923, 8331.761
1275.405, 8330.976
1275.887, 8346.296
1276.369, 8385.399
1276.851, 8421.425
1277.333, 8422.714
1277.815, 8394.423
1278.297, 8376.003
1278.780, 8368.085
1279.262, 8357.676
1279.744, 8340.297
1280.226, 8330.698
1280.708, 8344.639
1281.190, 8367.731
1281.672, 8393.237
1282.154, 8418.416
1282.637, 8435.178
1283.119, 8443.172
1283.601, 8435.047
1284.083, 8406.052
1284.565, 8384.868
1285.047, 8391.316
1285.529, 8408.538
1286.011, 8430.384
1286.494, 8453.968
1286.976, 8471.961
1287.458, 8484.009
1287.940, 8486.915
1288.422, 8478.797
1288.904, 8472.050
1289.386, 8469.067
1289.868, 8472.135
1290.350, 8484.495
1290.833, 8499.951
1291.315, 8505.398
1291.797, 8504.793
1292.279, 8506.210
1292.761, 8511.604
1293.243, 8513.392
1293.725, 8506.032
1294.207, 8509.534
1294.689, 8536.331
1295.172, 8563.164
1295.654, 8540.145
1296.136, 8505.119
1296.618, 8518.459
1297.100, 8594.710
1297.582, 8612.976
1298.064, 8559.751
1298.546, 8541.507
1299.029, 8605.279
1299.511, 8670.408
1299.993, 8629.794
1300.475, 8565.348
1300.957, 8566.266
##END=



