##NAMES=Heulandite-K
##RRUFFID=R061137
##IDEAL CHEMISTRY=(K,Ca,Na)_5_(Si_27_Al_9_)O_72_&#183;26H_2_O
##LOCALITY=Albero Bassi, Vicenza, Veneto, Italy
##OWNER=RRUFF
##SOURCE=Michael Scott
##DESCRIPTION=Coating of orange grains
##STATUS=The identification of this mineral is not yet confirmed.
##URL=rruff.info/R061137
112.1498, 42.78709
112.6319, 42.81374
113.1140, 45.18905
113.5961, 49.40245
114.0782, 54.00401
114.5603, 57.92571
115.0425, 61.18663
115.5246, 65.14091
116.0067, 70.66929
116.4888, 76.01431
116.9709, 79.78448
117.4530, 82.18748
117.9352, 84.92893
118.4173, 89.44328
118.8994, 95.88457
119.3815, 102.4024
119.8636, 108.9147
120.3457, 115.5302
120.8279, 121.9823
121.3100, 128.2384
121.7921, 135.3701
122.2742, 144.3138
122.7563, 155.0238
123.2384, 167.5732
123.7206, 183.7986
124.2027, 201.2132
124.6848, 215.9438
125.1669, 227.0594
125.6490, 238.1602
126.1311, 253.4601
126.6133, 271.7485
127.0954, 289.0276
127.5775, 302.8551
128.0596, 314.8717
128.5417, 329.4084
129.0238, 348.5060
129.5060, 367.0500
129.9881, 380.6826
130.4702, 390.4807
130.9523, 399.7939
131.4344, 412.0406
131.9165, 425.8460
132.3987, 434.3311
132.8808, 434.6837
133.3629, 432.0403
133.8450, 428.9889
134.3271, 425.8418
134.8092, 423.5583
135.2914, 423.0520
135.7735, 424.2693
136.2556, 425.5624
136.7377, 423.6881
137.2198, 425.2591
137.7019, 434.0017
138.1841, 449.3027
138.6662, 467.9319
139.1483, 486.7151
139.6304, 505.2059
140.1125, 527.1269
140.5946, 557.9814
141.0768, 588.3342
141.5589, 613.3251
142.0410, 633.4434
142.5231, 653.1311
143.0052, 678.0123
143.4873, 710.3665
143.9695, 739.0853
144.4516, 763.2420
144.9337, 785.0238
145.4158, 805.2542
145.8979, 824.1616
146.3800, 841.5718
146.8622, 857.3121
147.3443, 871.1962
147.8264, 883.9171
148.3085, 896.2153
148.7906, 907.0640
149.2727, 915.9811
149.7549, 922.8546
150.2370, 927.8033
150.7191, 930.9367
151.2012, 931.9356
151.6833, 931.5004
152.1654, 928.1103
152.6476, 924.5735
153.1297, 922.7230
153.6118, 922.9361
154.0939, 924.5349
154.5760, 926.6153
155.0581, 929.3970
155.5403, 932.2484
156.0224, 935.0024
156.5045, 937.9197
156.9866, 940.8411
157.4687, 943.8443
157.9508, 947.7076
158.4330, 953.5363
158.9151, 961.9513
159.3972, 971.5918
159.8793, 984.6143
160.3614, 997.6787
160.8435, 1006.876
161.3257, 1011.425
161.8078, 1014.956
162.2899, 1023.026
162.7720, 1038.813
163.2541, 1052.008
163.7362, 1060.750
164.2184, 1067.500
164.7005, 1074.332
165.1826, 1081.803
165.6647, 1090.114
166.1468, 1100.057
166.6289, 1112.972
167.1111, 1123.236
167.5932, 1127.925
168.0753, 1130.719
168.5574, 1136.953
169.0395, 1148.273
169.5216, 1159.152
170.0038, 1160.828
170.4859, 1151.334
170.9680, 1143.162
171.4501, 1137.656
171.9322, 1134.560
172.4143, 1133.575
172.8965, 1134.651
173.3786, 1137.824
173.8607, 1144.922
174.3428, 1156.907
174.8249, 1163.725
175.3070, 1158.912
175.7892, 1149.226
176.2713, 1144.169
176.7534, 1145.911
177.2355, 1150.919
177.7176, 1155.779
178.1997, 1160.583
178.6819, 1164.285
179.1640, 1165.371
179.6461, 1165.565
180.1282, 1167.794
180.6103, 1172.957
181.0924, 1178.655
181.5745, 1182.284
182.0567, 1184.134
182.5388, 1185.004
183.0209, 1183.998
183.5030, 1182.440
183.9851, 1182.775
184.4672, 1185.752
184.9494, 1189.115
185.4315, 1190.230
185.9136, 1189.630
186.3957, 1189.528
186.8778, 1190.393
187.3599, 1192.221
187.8421, 1196.045
188.3242, 1203.092
188.8063, 1208.279
189.2884, 1204.227
189.7705, 1193.906
190.2526, 1186.291
190.7348, 1185.198
191.2169, 1188.199
191.6990, 1192.225
192.1811, 1197.893
192.6632, 1201.801
193.1453, 1198.228
193.6275, 1190.507
194.1096, 1186.501
194.5917, 1192.331
195.0738, 1202.121
195.5559, 1205.548
196.0380, 1200.535
196.5202, 1196.057
197.0023, 1201.220
197.4844, 1211.349
197.9665, 1217.946
198.4486, 1214.682
198.9307, 1208.257
199.4129, 1209.903
199.8950, 1221.517
200.3771, 1233.200
200.8592, 1239.037
201.3413, 1240.960
201.8234, 1240.926
202.3056, 1238.244
202.7877, 1234.846
203.2698, 1234.012
203.7519, 1236.488
204.2340, 1237.482
204.7161, 1231.457
205.1983, 1223.211
205.6804, 1218.875
206.1625, 1220.110
206.6446, 1225.444
207.1267, 1234.881
207.6088, 1249.253
208.0910, 1261.044
208.5731, 1265.318
209.0552, 1265.635
209.5373, 1265.516
210.0194, 1265.010
210.5015, 1265.445
210.9837, 1269.663
211.4658, 1278.058
211.9479, 1283.195
212.4300, 1278.646
212.9121, 1271.495
213.3942, 1268.951
213.8764, 1272.082
214.3585, 1279.195
214.8406, 1291.732
215.3227, 1309.701
215.8048, 1320.962
216.2869, 1315.406
216.7691, 1306.559
217.2512, 1308.819
217.7333, 1324.187
218.2154, 1341.253
218.6975, 1350.558
219.1796, 1352.826
219.6618, 1356.157
220.1439, 1362.819
220.6260, 1370.755
221.1081, 1377.655
221.5902, 1383.490
222.0723, 1390.019
222.5545, 1399.526
223.0366, 1411.112
223.5187, 1420.503
224.0008, 1427.712
224.4829, 1431.079
224.9650, 1427.717
225.4472, 1418.690
225.9293, 1411.432
226.4114, 1412.709
226.8935, 1419.146
227.3756, 1419.213
227.8577, 1408.705
228.3399, 1397.754
228.8220, 1396.761
229.3041, 1402.361
229.7862, 1403.303
230.2683, 1389.453
230.7504, 1368.667
231.2325, 1358.171
231.7147, 1361.384
232.1968, 1366.672
232.6789, 1366.888
233.1610, 1363.245
233.6431, 1357.349
234.1252, 1346.910
234.6074, 1335.796
235.0895, 1329.908
235.5716, 1329.769
236.0537, 1331.681
236.5358, 1334.215
237.0179, 1337.301
237.5001, 1341.206
237.9822, 1348.451
238.4643, 1353.844
238.9464, 1348.925
239.4285, 1333.475
239.9106, 1323.320
240.3928, 1330.388
240.8749, 1345.260
241.3570, 1351.566
241.8391, 1344.787
242.3212, 1336.292
242.8033, 1334.320
243.2855, 1338.224
243.7676, 1343.255
244.2497, 1346.834
244.7318, 1351.865
245.2139, 1364.805
245.6960, 1389.630
246.1782, 1406.639
246.6603, 1402.497
247.1424, 1382.125
247.6245, 1358.454
248.1066, 1332.112
248.5887, 1308.712
249.0709, 1296.923
249.5530, 1296.685
250.0351, 1297.217
250.5172, 1293.705
250.9993, 1288.827
251.4814, 1287.758
251.9636, 1291.949
252.4457, 1297.453
252.9278, 1301.668
253.4099, 1304.543
253.8920, 1301.677
254.3741, 1286.251
254.8563, 1267.921
255.3384, 1256.808
255.8205, 1253.835
256.3026, 1255.605
256.7847, 1261.749
257.2668, 1271.266
257.7490, 1274.221
258.2311, 1262.478
258.7132, 1250.425
259.1953, 1249.683
259.6774, 1258.800
260.1595, 1267.742
260.6417, 1270.410
261.1238, 1268.080
261.6059, 1267.491
262.0880, 1270.581
262.5701, 1273.148
263.0522, 1272.802
263.5344, 1270.691
264.0165, 1269.659
264.4986, 1271.282
264.9807, 1274.080
265.4628, 1273.851
265.9449, 1267.594
266.4271, 1263.854
266.9092, 1267.035
267.3913, 1272.651
267.8734, 1273.501
268.3555, 1267.329
268.8376, 1260.298
269.3198, 1262.390
269.8019, 1281.080
270.2840, 1292.744
270.7661, 1292.801
271.2482, 1288.763
271.7303, 1284.632
272.2125, 1281.845
272.6946, 1283.225
273.1767, 1292.864
273.6588, 1313.484
274.1409, 1325.586
274.6230, 1321.874
275.1052, 1317.663
275.5873, 1320.825
276.0694, 1330.254
276.5515, 1340.500
277.0336, 1347.532
277.5157, 1351.661
277.9979, 1358.221
278.4800, 1371.526
278.9621, 1382.416
279.4442, 1386.263
279.9263, 1387.071
280.4084, 1391.159
280.8906, 1401.796
281.3727, 1416.729
281.8548, 1429.248
282.3369, 1436.926
282.8190, 1445.667
283.3011, 1457.189
283.7833, 1469.185
284.2654, 1479.720
284.7475, 1488.178
285.2296, 1495.364
285.7117, 1501.808
286.1938, 1506.161
286.6760, 1513.738
287.1581, 1523.557
287.6402, 1537.284
288.1223, 1559.393
288.6044, 1587.770
289.0865, 1613.381
289.5687, 1625.132
290.0508, 1622.475
290.5329, 1631.214
291.0150, 1667.637
291.4971, 1697.469
291.9792, 1704.442
292.4614, 1695.828
292.9435, 1686.422
293.4256, 1684.933
293.9077, 1688.548
294.3898, 1688.822
294.8719, 1685.214
295.3541, 1679.319
295.8362, 1670.872
296.3183, 1660.970
296.8004, 1651.472
297.2825, 1643.650
297.7646, 1633.628
298.2468, 1613.040
298.7289, 1580.276
299.2110, 1556.431
299.6931, 1555.250
300.1752, 1559.477
300.6573, 1552.791
301.1395, 1533.795
301.6216, 1512.960
302.1037, 1496.909
302.5858, 1484.738
303.0679, 1473.218
303.5500, 1462.204
304.0321, 1451.091
304.5143, 1438.517
304.9964, 1425.015
305.4785, 1413.532
305.9606, 1406.326
306.4427, 1401.061
306.9248, 1394.592
307.4070, 1386.701
307.8891, 1379.531
308.3712, 1375.725
308.8533, 1373.802
309.3354, 1367.708
309.8175, 1352.030
310.2997, 1337.196
310.7818, 1329.866
311.2639, 1328.401
311.7460, 1327.609
312.2281, 1325.281
312.7102, 1322.173
313.1924, 1320.349
313.6745, 1320.850
314.1566, 1320.274
314.6387, 1316.898
315.1208, 1312.523
315.6029, 1309.215
316.0851, 1307.484
316.5672, 1306.797
317.0493, 1306.405
317.5314, 1306.001
318.0135, 1307.443
318.4956, 1313.564
318.9778, 1318.946
319.4599, 1322.713
319.9420, 1323.316
320.4241, 1316.003
320.9062, 1295.472
321.3883, 1263.514
321.8705, 1246.611
322.3526, 1255.593
322.8347, 1268.051
323.3168, 1286.807
323.7989, 1304.633
324.2810, 1310.872
324.7632, 1300.834
325.2453, 1283.050
325.7274, 1276.991
326.2095, 1292.906
326.6916, 1298.015
327.1737, 1277.502
327.6559, 1255.485
328.1380, 1248.708
328.6201, 1258.615
329.1022, 1274.549
329.5843, 1288.769
330.0664, 1301.511
330.5486, 1304.980
331.0307, 1290.595
331.5128, 1276.944
331.9949, 1275.209
332.4770, 1280.459
332.9591, 1281.372
333.4413, 1268.513
333.9234, 1250.779
334.4055, 1248.717
334.8876, 1266.487
335.3697, 1282.202
335.8518, 1283.335
336.3340, 1278.692
336.8161, 1278.571
337.2982, 1285.731
337.7803, 1293.013
338.2624, 1295.998
338.7445, 1294.728
339.2267, 1288.168
339.7088, 1273.292
340.1909, 1258.100
340.6730, 1252.460
341.1551, 1255.568
341.6372, 1263.134
342.1194, 1281.573
342.6015, 1299.850
343.0836, 1302.474
343.5657, 1288.814
344.0478, 1273.919
344.5299, 1268.929
345.0121, 1273.243
345.4942, 1276.739
345.9763, 1280.607
346.4584, 1282.489
346.9405, 1279.187
347.4226, 1273.475
347.9048, 1271.090
348.3869, 1274.651
348.8690, 1281.376
349.3511, 1285.456
349.8332, 1286.135
350.3153, 1284.914
350.7975, 1281.127
351.2796, 1275.989
351.7617, 1268.888
352.2438, 1260.709
352.7259, 1254.739
353.2080, 1254.255
353.6902, 1259.413
354.1723, 1267.355
354.6544, 1287.214
355.1365, 1300.397
355.6186, 1296.624
356.1007, 1284.100
356.5829, 1276.503
357.0650, 1281.474
357.5471, 1292.561
358.0292, 1294.674
358.5113, 1283.720
358.9934, 1276.193
359.4756, 1278.311
359.9577, 1283.786
360.4398, 1288.786
360.9219, 1292.739
361.4040, 1296.630
361.8861, 1303.492
362.3683, 1311.727
362.8504, 1311.464
363.3325, 1297.722
363.8146, 1283.582
364.2967, 1279.715
364.7788, 1283.153
365.2610, 1287.306
365.7431, 1290.176
366.2252, 1293.090
366.7073, 1298.158
367.1894, 1304.959
367.6715, 1309.951
368.1537, 1310.773
368.6358, 1309.332
369.1179, 1310.278
369.6000, 1314.231
370.0821, 1318.606
370.5642, 1321.142
371.0464, 1324.361
371.5285, 1332.701
372.0106, 1346.741
372.4927, 1361.393
372.9748, 1371.138
373.4569, 1375.180
373.9391, 1378.828
374.4212, 1386.909
374.9033, 1389.868
375.3854, 1376.393
375.8675, 1355.346
376.3496, 1345.698
376.8318, 1358.702
377.3139, 1385.681
377.7960, 1400.927
378.2781, 1397.746
378.7602, 1394.170
379.2423, 1388.177
379.7245, 1385.142
380.2066, 1391.880
380.6887, 1407.905
381.1708, 1423.285
381.6529, 1424.382
382.1350, 1411.809
382.6172, 1414.151
383.0993, 1442.288
383.5814, 1469.255
384.0635, 1480.272
384.5456, 1481.138
385.0277, 1481.909
385.5099, 1485.098
385.9920, 1491.205
386.4741, 1501.955
386.9562, 1517.178
387.4383, 1531.962
387.9204, 1545.004
388.4026, 1556.342
388.8847, 1565.582
389.3668, 1572.407
389.8489, 1579.792
390.3310, 1589.689
390.8131, 1600.251
391.2953, 1607.191
391.7774, 1610.400
392.2595, 1617.095
392.7416, 1633.556
393.2237, 1659.556
393.7058, 1685.627
394.1880, 1715.850
394.6701, 1741.447
395.1522, 1755.807
395.6343, 1764.821
396.1164, 1777.124
396.5985, 1796.060
397.0807, 1819.880
397.5628, 1846.175
398.0449, 1877.747
398.5270, 1905.149
399.0091, 1927.525
399.4912, 1947.288
399.9734, 1964.797
400.4555, 1980.661
400.9376, 1995.912
401.4197, 2010.399
401.9018, 2025.300
402.3839, 2046.298
402.8660, 2077.057
403.3481, 2104.850
403.8303, 2120.239
404.3124, 2133.022
404.7945, 2152.820
405.2766, 2181.987
405.7587, 2213.226
406.2408, 2243.463
406.7230, 2271.466
407.2051, 2292.836
407.6872, 2306.224
408.1693, 2314.526
408.6514, 2320.182
409.1335, 2322.969
409.6157, 2320.872
410.0978, 2310.100
410.5799, 2297.408
411.0620, 2288.922
411.5441, 2282.575
412.0262, 2272.335
412.5084, 2255.626
412.9905, 2232.853
413.4726, 2204.477
413.9547, 2163.950
414.4368, 2129.039
414.9189, 2105.986
415.4011, 2083.867
415.8832, 2053.383
416.3653, 2015.297
416.8474, 1977.253
417.3295, 1945.611
417.8116, 1919.450
418.2938, 1890.156
418.7759, 1852.484
419.2580, 1819.845
419.7401, 1799.710
420.2222, 1783.290
420.7043, 1759.654
421.1865, 1725.800
421.6686, 1693.618
422.1507, 1678.376
422.6328, 1678.421
423.1149, 1673.858
423.5970, 1661.609
424.0792, 1645.634
424.5613, 1626.384
425.0434, 1605.623
425.5255, 1588.888
426.0076, 1579.355
426.4897, 1572.992
426.9719, 1567.885
427.4540, 1563.370
427.9361, 1557.149
428.4182, 1548.907
428.9003, 1536.766
429.3824, 1515.092
429.8646, 1473.824
430.3467, 1449.467
430.8288, 1458.570
431.3109, 1474.597
431.7930, 1478.177
432.2751, 1469.474
432.7573, 1458.411
433.2394, 1452.010
433.7215, 1449.447
434.2036, 1445.724
434.6857, 1440.261
435.1678, 1434.432
435.6500, 1427.021
436.1321, 1420.198
436.6142, 1416.498
437.0963, 1416.125
437.5784, 1415.988
438.0605, 1412.519
438.5427, 1406.211
439.0248, 1401.818
439.5069, 1400.107
439.9890, 1399.065
440.4711, 1397.578
440.9532, 1395.895
441.4354, 1394.416
441.9175, 1392.986
442.3996, 1392.146
442.8817, 1393.273
443.3638, 1395.357
443.8459, 1394.758
444.3281, 1389.925
444.8102, 1385.105
445.2923, 1386.633
445.7744, 1397.107
446.2565, 1399.721
446.7386, 1384.122
447.2208, 1370.566
447.7029, 1373.778
448.1850, 1387.229
448.6671, 1394.747
449.1492, 1387.807
449.6313, 1373.621
450.1135, 1370.068
450.5956, 1383.962
451.0777, 1392.699
451.5598, 1392.184
452.0419, 1388.689
452.5240, 1382.831
453.0062, 1376.613
453.4883, 1375.349
453.9704, 1384.896
454.4525, 1400.460
454.9346, 1410.822
455.4167, 1415.740
455.8989, 1416.680
456.3810, 1412.001
456.8631, 1405.047
457.3452, 1401.382
457.8273, 1402.039
458.3094, 1400.997
458.7916, 1393.935
459.2737, 1384.732
459.7558, 1378.829
460.2379, 1376.606
460.7200, 1374.104
461.2021, 1367.555
461.6843, 1358.235
462.1664, 1356.564
462.6485, 1372.761
463.1306, 1383.340
463.6127, 1383.100
464.0948, 1376.682
464.5770, 1367.451
465.0591, 1356.779
465.5412, 1346.253
466.0233, 1337.519
466.5054, 1330.580
466.9875, 1324.237
467.4697, 1317.987
467.9518, 1313.255
468.4339, 1312.978
468.9160, 1313.475
469.3981, 1308.604
469.8802, 1295.196
470.3624, 1283.363
470.8445, 1285.575
471.3266, 1297.071
471.8087, 1299.372
472.2908, 1287.083
472.7729, 1274.847
473.2551, 1278.678
473.7372, 1297.606
474.2193, 1303.343
474.7014, 1279.606
475.1835, 1260.083
475.6656, 1262.876
476.1478, 1278.774
476.6299, 1292.598
477.1120, 1299.182
477.5941, 1302.507
478.0762, 1309.214
478.5583, 1322.390
479.0405, 1325.124
479.5226, 1297.260
480.0047, 1279.450
480.4868, 1294.809
480.9689, 1327.156
481.4510, 1347.455
481.9332, 1342.140
482.4153, 1328.644
482.8974, 1330.262
483.3795, 1346.390
483.8616, 1363.050
484.3438, 1379.706
484.8259, 1392.527
485.3080, 1395.630
485.7901, 1390.903
486.2722, 1386.613
486.7543, 1382.713
487.2365, 1381.111
487.7186, 1381.554
488.2007, 1385.339
488.6828, 1397.570
489.1649, 1420.625
489.6470, 1446.263
490.1292, 1460.792
490.6113, 1459.405
491.0934, 1461.618
491.5755, 1470.814
492.0576, 1479.701
492.5397, 1483.518
493.0219, 1485.001
493.5040, 1490.526
493.9861, 1503.808
494.4682, 1518.521
494.9503, 1523.432
495.4324, 1517.952
495.9146, 1512.494
496.3967, 1510.163
496.8788, 1506.501
497.3609, 1497.696
497.8430, 1484.525
498.3251, 1469.682
498.8073, 1453.771
499.2894, 1436.598
499.7715, 1416.205
500.2536, 1394.395
500.7357, 1376.406
501.2178, 1364.435
501.6999, 1355.954
502.1820, 1347.405
502.6642, 1338.830
503.1463, 1330.051
503.6284, 1320.993
504.1105, 1311.918
504.5926, 1305.037
505.0747, 1297.797
505.5569, 1284.333
506.0390, 1261.643
506.5211, 1237.217
507.0032, 1223.844
507.4853, 1222.230
507.9674, 1221.192
508.4496, 1221.691
508.9317, 1219.074
509.4138, 1206.875
509.8959, 1188.747
510.3780, 1175.535
510.8601, 1172.253
511.3423, 1172.165
511.8244, 1170.915
512.3065, 1168.979
512.7886, 1167.631
513.2708, 1167.276
513.7529, 1167.212
514.2350, 1166.704
514.7171, 1165.867
515.1992, 1163.770
515.6813, 1159.465
516.1635, 1155.105
516.6456, 1151.445
517.1277, 1148.147
517.6098, 1144.320
518.0919, 1139.691
518.5740, 1135.911
519.0562, 1135.886
519.5383, 1139.429
520.0204, 1140.283
520.5025, 1136.344
520.9846, 1133.152
521.4667, 1136.581
521.9489, 1142.869
522.4310, 1145.013
522.9131, 1142.425
523.3952, 1134.958
523.8773, 1115.738
524.3594, 1093.845
524.8416, 1085.693
525.3237, 1093.755
525.8058, 1106.507
526.2879, 1114.188
526.7700, 1116.926
527.2521, 1117.000
527.7343, 1108.260
528.2164, 1104.648
528.6985, 1113.345
529.1806, 1124.590
529.6627, 1129.431
530.1448, 1126.461
530.6270, 1120.194
531.1091, 1111.617
531.5912, 1102.727
532.0733, 1102.326
532.5554, 1112.285
533.0375, 1120.328
533.5197, 1120.345
534.0018, 1115.357
534.4839, 1110.812
534.9660, 1106.489
535.4481, 1103.411
535.9302, 1101.208
536.4124, 1100.830
536.8945, 1105.120
537.3766, 1112.486
537.8587, 1116.397
538.3408, 1112.426
538.8229, 1104.565
539.3051, 1104.534
539.7872, 1117.136
540.2693, 1126.472
540.7514, 1132.623
541.2335, 1134.011
541.7156, 1127.146
542.1978, 1114.489
542.6799, 1102.925
543.1620, 1095.170
543.6441, 1090.658
544.1262, 1089.928
544.6083, 1092.315
545.0905, 1093.536
545.5726, 1092.218
546.0547, 1090.004
546.5368, 1088.233
547.0189, 1086.761
547.5010, 1088.471
547.9832, 1097.124
548.4653, 1104.667
548.9474, 1108.546
549.4295, 1109.159
549.9116, 1105.939
550.3937, 1099.219
550.8758, 1092.795
551.3579, 1091.151
551.8400, 1094.218
552.3221, 1099.311
552.8043, 1107.072
553.2864, 1115.519
553.7685, 1127.948
554.2506, 1138.772
554.7327, 1139.437
555.2148, 1126.612
555.6970, 1114.454
556.1791, 1110.921
556.6612, 1111.416
557.1433, 1108.540
557.6254, 1102.719
558.1075, 1102.218
558.5897, 1113.244
559.0718, 1131.056
559.5539, 1140.734
560.0360, 1139.102
560.5181, 1134.505
561.0002, 1122.859
561.4824, 1112.581
561.9645, 1110.017
562.4466, 1113.161
562.9287, 1115.517
563.4108, 1113.259
563.8929, 1109.517
564.3751, 1109.252
564.8572, 1111.996
565.3393, 1113.076
565.8214, 1110.548
566.3035, 1108.568
566.7856, 1111.923
567.2678, 1120.703
567.7499, 1127.064
568.2320, 1130.009
568.7141, 1131.680
569.1962, 1133.903
569.6783, 1134.773
570.1605, 1130.241
570.6426, 1120.346
571.1247, 1111.356
571.6068, 1110.105
572.0889, 1115.609
572.5710, 1120.133
573.0532, 1124.174
573.5353, 1126.008
574.0174, 1124.692
574.4995, 1120.970
574.9816, 1113.747
575.4637, 1102.482
575.9459, 1096.776
576.4280, 1106.053
576.9101, 1118.218
577.3922, 1120.288
577.8743, 1114.364
578.3564, 1110.209
578.8386, 1112.336
579.3207, 1117.499
579.8028, 1119.893
580.2849, 1118.633
580.7670, 1117.617
581.2491, 1116.713
581.7313, 1116.217
582.2134, 1115.518
582.6955, 1115.526
583.1776, 1117.751
583.6597, 1122.780
584.1418, 1129.148
584.6240, 1137.227
585.1061, 1145.438
585.5882, 1148.655
586.0703, 1146.197
586.5524, 1144.593
587.0345, 1148.291
587.5167, 1156.020
587.9988, 1163.200
588.4809, 1174.040
588.9630, 1178.143
589.4451, 1168.532
589.9272, 1157.850
590.4094, 1154.750
590.8915, 1158.182
591.3736, 1162.705
591.8557, 1165.538
592.3378, 1167.433
592.8199, 1168.743
593.3021, 1169.599
593.7842, 1174.157
594.2663, 1184.609
594.7484, 1195.480
595.2305, 1202.848
595.7126, 1206.580
596.1948, 1207.355
596.6769, 1198.337
597.1590, 1194.769
597.6411, 1206.426
598.1232, 1222.877
598.6053, 1232.127
599.0875, 1233.262
599.5696, 1233.400
600.0517, 1238.221
600.5338, 1246.355
601.0159, 1252.850
601.4980, 1257.255
601.9802, 1261.680
602.4623, 1265.949
602.9444, 1271.133
603.4265, 1278.005
603.9086, 1286.543
604.3907, 1296.721
604.8729, 1313.496
605.3550, 1326.907
605.8371, 1326.149
606.3192, 1319.035
606.8013, 1321.369
607.2834, 1336.317
607.7656, 1351.905
608.2477, 1354.968
608.7298, 1346.525
609.2119, 1342.448
609.6940, 1345.408
610.1761, 1347.548
610.6583, 1345.271
611.1404, 1342.324
611.6225, 1341.391
612.1046, 1342.684
612.5867, 1345.824
613.0688, 1356.378
613.5510, 1364.148
614.0331, 1357.173
614.5152, 1338.998
614.9973, 1319.624
615.4794, 1302.381
615.9615, 1287.575
616.4437, 1275.835
616.9258, 1267.189
617.4079, 1260.855
617.8900, 1259.516
618.3721, 1256.765
618.8542, 1249.919
619.3364, 1241.661
619.8185, 1234.969
620.3006, 1230.183
620.7827, 1224.716
621.2648, 1215.804
621.7469, 1206.156
622.2291, 1200.162
622.7112, 1197.078
623.1933, 1192.881
623.6754, 1186.022
624.1575, 1177.070
624.6396, 1166.190
625.1218, 1152.109
625.6039, 1143.283
626.0860, 1144.078
626.5681, 1145.144
627.0502, 1142.161
627.5323, 1139.335
628.0145, 1142.878
628.4966, 1153.647
628.9787, 1163.452
629.4608, 1167.281
629.9429, 1166.143
630.4250, 1159.861
630.9072, 1149.285
631.3893, 1141.034
631.8714, 1138.147
632.3535, 1137.815
632.8356, 1136.034
633.3177, 1133.062
633.7999, 1127.372
634.2820, 1114.945
634.7641, 1104.617
635.2462, 1100.351
635.7283, 1098.900
636.2104, 1094.811
636.6926, 1087.296
637.1747, 1084.238
637.6568, 1096.905
638.1389, 1115.961
638.6210, 1122.757
639.1031, 1117.778
639.5853, 1111.176
640.0674, 1106.685
640.5495, 1103.836
641.0316, 1102.115
641.5137, 1102.033
641.9958, 1100.712
642.4780, 1096.214
642.9601, 1092.842
643.4422, 1093.240
643.9243, 1094.721
644.4064, 1093.549
644.8885, 1089.159
645.3707, 1085.264
645.8528, 1085.256
646.3349, 1087.336
646.8170, 1087.286
647.2991, 1085.563
647.7813, 1088.579
648.2634, 1100.267
648.7455, 1111.556
649.2276, 1108.570
649.7097, 1088.195
650.1918, 1073.207
650.6740, 1064.596
651.1561, 1060.118
651.6382, 1063.870
652.1203, 1068.914
652.6024, 1065.470
653.0845, 1053.227
653.5667, 1045.038
654.0488, 1053.844
654.5309, 1069.825
655.0130, 1078.771
655.4951, 1080.972
655.9772, 1077.682
656.4594, 1068.608
656.9415, 1058.883
657.4236, 1054.793
657.9057, 1056.576
658.3878, 1060.070
658.8699, 1066.967
659.3521, 1073.518
659.8342, 1081.585
660.3163, 1087.357
660.7984, 1085.289
661.2805, 1076.247
661.7626, 1069.349
662.2448, 1072.963
662.7269, 1078.650
663.2090, 1074.771
663.6911, 1064.454
664.1732, 1057.657
664.6553, 1057.156
665.1375, 1060.071
665.6196, 1064.540
666.1017, 1070.013
666.5838, 1067.376
667.0659, 1047.063
667.5480, 1034.779
668.0302, 1040.936
668.5123, 1050.701
668.9944, 1053.840
669.4765, 1050.923
669.9586, 1047.937
670.4407, 1046.262
670.9229, 1046.570
671.4050, 1053.161
671.8871, 1061.108
672.3692, 1058.302
672.8513, 1043.790
673.3334, 1030.571
673.8156, 1029.580
674.2977, 1037.245
674.7798, 1038.541
675.2619, 1029.869
675.7440, 1024.937
676.2261, 1026.931
676.7083, 1031.561
677.1904, 1039.454
677.6725, 1047.651
678.1546, 1047.992
678.6367, 1034.489
679.1188, 1021.638
679.6010, 1017.096
680.0831, 1017.022
680.5652, 1017.148
681.0473, 1017.169
681.5294, 1019.287
682.0115, 1025.145
682.4937, 1030.953
682.9758, 1027.012
683.4579, 1011.667
683.9400, 1004.801
684.4221, 1010.558
684.9042, 1019.242
685.3864, 1029.065
685.8685, 1036.743
686.3506, 1034.853
686.8327, 1018.816
687.3148, 1007.311
687.7969, 1009.526
688.2791, 1013.127
688.7612, 1006.503
689.2433, 995.2349
689.7254, 992.6456
690.2075, 1003.339
690.6896, 1016.899
691.1718, 1020.841
691.6539, 1017.069
692.1360, 1015.062
692.6181, 1014.951
693.1002, 1016.835
693.5823, 1021.707
694.0645, 1027.078
694.5466, 1029.761
695.0287, 1029.985
695.5108, 1025.393
695.9929, 1005.421
696.4750, 993.5535
696.9572, 1003.413
697.4393, 1021.335
697.9214, 1034.257
698.4035, 1039.480
698.8856, 1038.640
699.3677, 1030.792
699.8499, 1019.250
700.3320, 1006.961
700.8141, 994.9171
701.2962, 987.7904
701.7783, 986.7422
702.2604, 989.5868
702.7426, 995.3185
703.2247, 1002.926
703.7068, 1004.342
704.1889, 993.7916
704.6710, 987.6530
705.1531, 990.7210
705.6353, 995.9211
706.1174, 1000.495
706.5995, 1003.833
707.0816, 1004.731
707.5637, 1001.820
708.0458, 998.6934
708.5280, 997.7607
709.0101, 997.7900
709.4922, 997.1603
709.9743, 995.8498
710.4564, 994.6714
710.9385, 994.0799
711.4207, 993.7584
711.9028, 992.7298
712.3849, 990.7797
712.8670, 991.2401
713.3491, 995.0390
713.8312, 999.4019
714.3134, 1004.962
714.7955, 1009.088
715.2776, 1006.148
715.7597, 994.2651
716.2418, 985.7241
716.7239, 981.7441
717.2061, 981.9926
717.6882, 992.1228
718.1703, 1003.757
718.6524, 1002.939
719.1345, 987.9185
719.6166, 972.6031
720.0988, 968.8370
720.5809, 972.7114
721.0630, 977.7698
721.5451, 983.5519
722.0272, 984.4609
722.5093, 978.2170
722.9915, 971.5748
723.4736, 971.5436
723.9557, 977.3375
724.4378, 979.5418
724.9199, 975.6172
725.4020, 972.1090
725.8842, 969.2689
726.3663, 967.3436
726.8484, 965.8879
727.3305, 965.5272
727.8126, 968.3846
728.2947, 976.9391
728.7769, 984.0493
729.2590, 985.3391
729.7411, 982.4225
730.2232, 974.0303
730.7053, 962.9443
731.1874, 960.1130
731.6696, 971.3798
732.1517, 986.1587
732.6338, 984.4087
733.1159, 965.6021
733.5980, 959.8029
734.0801, 971.9985
734.5623, 981.8214
735.0444, 980.2576
735.5265, 972.2003
736.0086, 963.6840
736.4907, 954.2011
736.9728, 948.3965
737.4550, 947.6682
737.9371, 949.3330
738.4192, 954.6589
738.9013, 960.4900
739.3834, 963.2582
739.8655, 962.8434
740.3477, 961.6823
740.8298, 959.8336
741.3119, 960.0208
741.7940, 971.2174
742.2761, 987.3456
742.7582, 985.8311
743.2404, 963.4845
743.7225, 942.0482
744.2046, 937.2591
744.6867, 944.5262
745.1688, 949.7640
745.6509, 951.9631
746.1331, 955.6362
746.6152, 963.9826
747.0973, 969.7841
747.5793, 967.7153
748.0615, 961.4977
748.5436, 956.6567
749.0257, 953.9041
749.5078, 951.0193
749.9899, 943.4156
750.4720, 939.4067
750.9542, 949.5952
751.4363, 965.3445
751.9184, 971.9069
752.4005, 966.0814
752.8826, 956.1502
753.3647, 947.1331
753.8469, 940.7496
754.3290, 943.2798
754.8111, 953.4942
755.2932, 958.7358
755.7753, 955.4046
756.2574, 951.1029
756.7396, 953.1476
757.2217, 959.6724
757.7038, 959.7108
758.1859, 946.0489
758.6680, 940.1064
759.1501, 952.1242
759.6323, 963.5603
760.1144, 965.1620
760.5965, 960.0430
761.0786, 953.4406
761.5607, 944.9080
762.0428, 940.7149
762.5250, 948.4714
763.0071, 957.3795
763.4892, 959.2120
763.9713, 954.5871
764.4534, 942.4671
764.9355, 924.0059
765.4177, 912.7592
765.8998, 927.5701
766.3819, 957.8424
766.8640, 969.2459
767.3461, 962.2537
767.8282, 954.1056
768.3104, 948.6018
768.7925, 946.5180
769.2746, 949.5562
769.7567, 956.6379
770.2388, 960.0239
770.7209, 957.8528
771.2031, 955.2790
771.6852, 950.8609
772.1673, 947.9312
772.6494, 949.7579
773.1315, 953.8975
773.6136, 955.1775
774.0958, 951.6463
774.5779, 949.5136
775.0600, 955.8437
775.5421, 960.9509
776.0242, 951.5569
776.5063, 935.4915
776.9885, 931.0046
777.4706, 942.6454
777.9527, 957.5598
778.4348, 964.4976
778.9169, 964.6956
779.3990, 959.4471
779.8812, 949.2332
780.3633, 942.7015
780.8454, 942.5057
781.3275, 941.5800
781.8096, 932.0585
782.2917, 917.7156
782.7739, 918.3167
783.2560, 947.9356
783.7381, 962.8063
784.2202, 946.7361
784.7023, 930.4533
785.1844, 929.1169
785.6666, 936.4792
786.1487, 942.5798
786.6308, 946.3221
787.1129, 947.9031
787.5950, 944.8444
788.0771, 942.1980
788.5593, 944.6798
789.0414, 949.3640
789.5235, 950.9879
790.0056, 948.8232
790.4877, 947.0392
790.9698, 950.4297
791.4520, 954.1347
791.9341, 947.9073
792.4162, 934.0853
792.8983, 922.2107
793.3804, 914.0114
793.8625, 909.8835
794.3447, 910.5537
794.8268, 914.3225
795.3089, 916.4286
795.7910, 915.7460
796.2731, 918.2714
796.7552, 927.4224
797.2374, 933.9601
797.7195, 932.6437
798.2016, 927.1314
798.6837, 921.6956
799.1658, 916.0455
799.6479, 914.3309
800.1301, 922.4456
800.6122, 928.0743
801.0943, 922.5138
801.5764, 914.9363
802.0585, 916.3957
802.5406, 925.5463
803.0228, 932.0646
803.5049, 930.1042
803.9870, 925.4511
804.4691, 923.9023
804.9512, 923.4167
805.4333, 919.4930
805.9155, 912.6645
806.3976, 907.3649
806.8797, 905.6906
807.3618, 906.4474
807.8439, 908.5297
808.3260, 911.7384
808.8082, 912.4008
809.2903, 909.4860
809.7724, 912.1093
810.2545, 926.8484
810.7366, 939.1439
811.2188, 931.0323
811.7009, 905.0168
812.1830, 892.6148
812.6651, 906.7065
813.1472, 914.8773
813.6293, 911.7344
814.1115, 905.8994
814.5936, 900.5825
815.0757, 896.4882
815.5578, 894.9330
816.0399, 896.8309
816.5220, 897.5098
817.0042, 892.6845
817.4863, 888.2048
817.9684, 889.8336
818.4505, 894.4066
818.9326, 896.5365
819.4147, 895.1135
819.8969, 892.0363
820.3790, 887.0801
820.8611, 883.7346
821.3432, 892.0367
821.8253, 907.0307
822.3074, 907.8237
822.7896, 892.3931
823.2717, 879.4805
823.7538, 880.9441
824.2359, 890.4391
824.7180, 895.8318
825.2001, 896.9415
825.6823, 895.5362
826.1644, 891.1532
826.6465, 885.2299
827.1286, 876.1811
827.6107, 868.3901
828.0928, 868.0428
828.5750, 875.2470
829.0571, 880.2365
829.5392, 882.4146
830.0213, 883.3192
830.5034, 883.1310
830.9855, 881.7629
831.4677, 877.4685
831.9498, 872.2788
832.4319, 870.9265
832.9140, 875.3882
833.3961, 879.8273
833.8782, 880.8550
834.3604, 880.9955
834.8425, 883.4946
835.3246, 886.4097
835.8067, 884.8116
836.2888, 878.3547
836.7709, 873.2560
837.2531, 874.9207
837.7352, 880.0042
838.2173, 882.5773
838.6994, 883.5847
839.1815, 887.7551
839.6636, 895.3530
840.1458, 899.4256
840.6279, 895.3469
841.1100, 887.7590
841.5921, 886.4476
842.0742, 892.2357
842.5563, 890.8903
843.0385, 879.5187
843.5206, 871.4386
844.0027, 872.2532
844.4848, 876.4921
844.9669, 879.3286
845.4490, 880.6288
845.9312, 877.6906
846.4133, 861.0538
846.8954, 854.1109
847.3775, 868.8131
847.8596, 882.7040
848.3417, 882.1617
848.8239, 872.3442
849.3060, 862.0246
849.7881, 851.7499
850.2702, 847.2153
850.7523, 853.6856
851.2344, 863.0427
851.7166, 873.8436
852.1987, 882.3926
852.6808, 882.0652
853.1629, 873.8970
853.6450, 866.9352
854.1271, 866.5762
854.6093, 869.0882
855.0914, 871.5320
855.5735, 873.4633
856.0556, 874.4938
856.5377, 874.2570
857.0198, 870.3491
857.5020, 861.7894
857.9841, 854.5070
858.4662, 857.3143
858.9483, 867.5216
859.4304, 872.0031
859.9125, 870.7274
860.3947, 869.0858
860.8768, 868.1677
861.3589, 867.9772
861.8410, 868.2017
862.3231, 869.5422
862.8052, 875.5024
863.2874, 890.5022
863.7695, 895.0121
864.2516, 882.4185
864.7337, 870.4895
865.2158, 867.0529
865.6979, 867.5757
866.1801, 865.9598
866.6622, 862.1349
867.1443, 860.5332
867.6264, 865.0396
868.1085, 866.6421
868.5906, 859.4985
869.0728, 852.6358
869.5549, 853.0802
870.0370, 858.7771
870.5191, 865.5814
871.0012, 873.8509
871.4833, 875.4656
871.9655, 857.4614
872.4476, 840.6495
872.9297, 843.3406
873.4118, 856.3895
873.8939, 868.1667
874.3760, 874.7947
874.8582, 872.2377
875.3403, 853.9614
875.8224, 835.0092
876.3045, 834.6196
876.7866, 845.0019
877.2687, 851.9941
877.7509, 854.4514
878.2330, 854.1572
878.7151, 851.9497
879.1972, 850.3655
879.6793, 853.1302
880.1614, 858.7296
880.6436, 861.2126
881.1257, 860.7480
881.6078, 860.1210
882.0899, 859.8965
882.5720, 859.9609
883.0541, 860.6385
883.5363, 860.6117
884.0184, 855.3294
884.5005, 842.5156
884.9826, 838.3856
885.4647, 847.0283
885.9468, 852.6763
886.4290, 847.8137
886.9111, 840.6871
887.3932, 841.5193
887.8753, 849.3848
888.3574, 850.7993
888.8395, 836.3099
889.3217, 830.4046
889.8038, 841.2875
890.2859, 853.2263
890.7680, 860.7872
891.2501, 863.6022
891.7322, 859.1965
892.2144, 846.3069
892.6965, 839.1939
893.1786, 847.0443
893.6607, 853.3995
894.1428, 847.8641
894.6249, 841.0062
895.1071, 844.2007
895.5892, 855.0656
896.0713, 864.0132
896.5534, 867.9458
897.0355, 868.9456
897.5176, 867.5480
897.9998, 864.3802
898.4819, 859.0702
898.9640, 852.8035
899.4461, 846.3336
899.9282, 840.6348
900.4103, 839.3262
900.8925, 846.3838
901.3746, 855.4944
901.8567, 859.7418
902.3388, 860.1362
902.8209, 856.8000
903.3030, 851.2996
903.7852, 849.8485
904.2673, 854.7870
904.7494, 860.6652
905.2315, 861.6350
905.7136, 858.8634
906.1957, 854.8332
906.6779, 849.9243
907.1600, 847.3218
907.6421, 847.5701
908.1242, 848.8279
908.6063, 850.1224
909.0884, 850.9883
909.5706, 851.1852
910.0527, 850.7765
910.5348, 843.3495
911.0169, 826.3938
911.4990, 818.0068
911.9811, 824.8865
912.4633, 837.2593
912.9454, 848.0502
913.4275, 856.5118
913.9096, 859.7325
914.3917, 857.8628
914.8738, 849.2604
915.3560, 825.3679
915.8381, 810.6140
916.3202, 821.0446
916.8023, 839.2579
917.2844, 844.0205
917.7665, 835.4458
918.2487, 828.9797
918.7308, 824.5556
919.2129, 822.3196
919.6950, 821.2236
920.1771, 823.4423
920.6592, 834.5007
921.1414, 847.7266
921.6235, 851.2194
922.1056, 842.9432
922.5877, 837.8631
923.0698, 842.4879
923.5519, 846.0067
924.0341, 843.7906
924.5162, 839.7344
924.9983, 835.9008
925.4804, 833.2520
925.9625, 833.6950
926.4446, 838.4229
926.9268, 842.0648
927.4089, 843.7130
927.8910, 841.9103
928.3731, 830.6591
928.8552, 818.4052
929.3373, 817.5387
929.8195, 827.0441
930.3016, 835.8507
930.7837, 838.8392
931.2658, 840.1544
931.7479, 844.2392
932.2300, 847.3873
932.7122, 844.6328
933.1943, 837.7347
933.6764, 829.2243
934.1585, 820.6658
934.6406, 816.8376
935.1227, 822.9818
935.6049, 831.0428
936.0870, 829.8762
936.5691, 823.9291
937.0512, 821.0089
937.5333, 821.6489
938.0154, 825.6041
938.4976, 832.4147
938.9797, 837.6080
939.4618, 835.6891
939.9439, 830.6545
940.4260, 832.6761
940.9081, 838.9836
941.3903, 837.4754
941.8724, 827.7650
942.3545, 821.0715
942.8366, 823.0148
943.3187, 827.4877
943.8008, 824.6138
944.2830, 817.7483
944.7651, 825.5672
945.2471, 846.4936
945.7292, 854.3172
946.2114, 843.8176
946.6935, 834.1819
947.1756, 838.2645
947.6577, 846.9378
948.1398, 841.0483
948.6219, 821.2790
949.1041, 815.1479
949.5862, 824.0664
950.0683, 834.0025
950.5504, 842.4672
951.0325, 845.7761
951.5146, 839.8990
951.9968, 828.7395
952.4789, 823.3556
952.9610, 825.0108
953.4431, 824.5461
953.9252, 821.7642
954.4073, 816.8748
954.8895, 807.9025
955.3716, 801.7367
955.8537, 805.5900
956.3358, 817.2532
956.8179, 827.7845
957.3000, 840.2582
957.7822, 840.5688
958.2643, 818.6177
958.7464, 806.1931
959.2285, 822.2914
959.7106, 843.6787
960.1927, 843.4594
960.6749, 824.5936
961.1570, 813.9554
961.6391, 815.3612
962.1212, 817.5134
962.6033, 821.2990
963.0854, 823.8495
963.5676, 822.8184
964.0497, 820.8032
964.5318, 822.8318
965.0139, 828.8005
965.4960, 826.1344
965.9781, 802.9189
966.4603, 789.1740
966.9424, 788.8954
967.4245, 795.9544
967.9066, 816.7053
968.3887, 838.2975
968.8708, 839.7416
969.3530, 819.5615
969.8351, 806.0499
970.3172, 803.8862
970.7993, 804.3790
971.2814, 808.3661
971.7635, 812.3123
972.2457, 814.8940
972.7278, 815.7485
973.2099, 813.4976
973.6920, 807.6412
974.1741, 804.6763
974.6563, 807.5117
975.1384, 810.6835
975.6205, 813.4737
976.1026, 815.4487
976.5847, 815.8815
977.0668, 815.4653
977.5490, 815.3493
978.0311, 815.6403
978.5132, 816.7946
978.9953, 819.8153
979.4774, 822.5327
979.9595, 824.0746
980.4417, 825.1296
980.9238, 827.4759
981.4059, 829.4664
981.8880, 826.4469
982.3701, 816.6232
982.8522, 810.3596
983.3344, 812.9097
983.8165, 816.9974
984.2986, 821.1367
984.7807, 823.9917
985.2628, 823.2728
985.7449, 820.5471
986.2271, 820.5687
986.7092, 825.3065
987.1913, 825.7640
987.6734, 811.5756
988.1555, 800.9027
988.6376, 807.0820
989.1198, 817.7785
989.6019, 819.9399
990.0840, 816.0461
990.5661, 816.6848
991.0482, 825.5793
991.5303, 832.2684
992.0125, 831.7727
992.4946, 828.8771
992.9767, 822.9781
993.4588, 818.5590
993.9409, 822.6419
994.4230, 832.0004
994.9052, 836.0059
995.3873, 830.7646
995.8694, 826.3275
996.3515, 829.3318
996.8336, 831.8184
997.3157, 826.9543
997.7979, 820.6278
998.2800, 821.2447
998.7621, 826.1788
999.2442, 824.3565
999.7263, 810.4750
1000.208, 802.6445
1000.691, 816.1661
1001.173, 830.1072
1001.655, 831.8684
1002.137, 827.0518
1002.619, 818.2927
1003.101, 809.4631
1003.583, 810.0349
1004.065, 824.9513
1004.547, 836.2534
1005.030, 834.9430
1005.512, 828.5458
1005.994, 816.2449
1006.476, 805.2618
1006.958, 804.8852
1007.440, 812.4947
1007.922, 818.1473
1008.404, 818.5104
1008.887, 820.3406
1009.369, 832.1263
1009.851, 839.7563
1010.333, 828.4287
1010.815, 813.9494
1011.297, 816.7933
1011.779, 830.9299
1012.261, 833.5201
1012.743, 816.2046
1013.226, 804.4094
1013.708, 815.9621
1014.190, 827.1023
1014.672, 823.7685
1015.154, 814.8024
1015.636, 807.0485
1016.118, 801.8536
1016.600, 800.0762
1017.083, 802.0972
1017.565, 805.9562
1018.047, 813.8156
1018.529, 819.7791
1019.011, 819.8785
1019.493, 817.8192
1019.975, 817.0415
1020.457, 816.9187
1020.939, 814.2722
1021.422, 807.7214
1021.904, 806.0168
1022.386, 818.3724
1022.868, 827.5702
1023.350, 824.6204
1023.832, 817.5278
1024.314, 809.2531
1024.796, 803.1343
1025.279, 807.4832
1025.761, 825.2631
1026.243, 832.3675
1026.725, 811.4287
1027.207, 794.7869
1027.689, 791.8479
1028.171, 797.3207
1028.653, 815.1369
1029.135, 835.4453
1029.618, 838.7711
1030.100, 821.8732
1030.582, 812.0340
1031.064, 820.0298
1031.546, 826.3458
1032.028, 827.5193
1032.510, 824.9973
1032.992, 815.8163
1033.474, 805.4164
1033.957, 803.2821
1034.439, 810.1144
1034.921, 814.1023
1035.403, 810.8682
1035.885, 809.9239
1036.367, 814.3937
1036.849, 819.1029
1037.331, 821.4258
1037.814, 822.6270
1038.296, 824.5973
1038.778, 827.2773
1039.260, 828.8055
1039.742, 830.1452
1040.224, 828.4193
1040.706, 817.5184
1041.188, 812.4788
1041.671, 826.3152
1042.153, 841.9061
1042.635, 837.3540
1043.117, 816.4339
1043.599, 807.5286
1044.081, 818.9015
1044.563, 821.3690
1045.045, 806.5737
1045.527, 799.5047
1046.010, 812.6299
1046.492, 830.4645
1046.974, 839.4423
1047.456, 840.0705
1047.938, 832.8509
1048.420, 813.6439
1048.902, 803.7527
1049.384, 805.5701
1049.866, 809.0541
1050.349, 811.9570
1050.831, 814.1998
1051.313, 815.9777
1051.795, 816.6210
1052.277, 813.5121
1052.759, 806.0589
1053.241, 805.7031
1053.723, 813.8941
1054.205, 815.9595
1054.688, 807.6196
1055.170, 800.2061
1055.652, 801.3781
1056.134, 806.8024
1056.616, 808.8514
1057.098, 808.0632
1057.580, 809.7605
1058.062, 813.6826
1058.545, 812.6088
1059.027, 805.4768
1059.509, 800.0914
1059.991, 800.4195
1060.473, 805.3397
1060.955, 815.9841
1061.437, 827.8826
1061.919, 824.1676
1062.401, 809.3110
1062.884, 804.1157
1063.366, 809.2496
1063.848, 812.1359
1064.330, 807.9690
1064.812, 801.7246
1065.294, 796.5195
1065.776, 794.8639
1066.258, 804.7939
1066.740, 819.8725
1067.223, 827.6128
1067.705, 827.2437
1068.187, 816.8308
1068.669, 798.1949
1069.151, 785.1400
1069.633, 787.4434
1070.115, 796.7172
1070.597, 808.4702
1071.080, 818.4333
1071.562, 820.7379
1072.044, 817.3182
1072.526, 808.9911
1073.008, 798.7909
1073.490, 797.0109
1073.972, 809.9811
1074.454, 822.0134
1074.937, 820.0883
1075.419, 815.9945
1075.901, 819.3852
1076.383, 825.5070
1076.865, 829.0639
1077.347, 829.8592
1077.829, 829.1450
1078.311, 827.0590
1078.793, 825.5863
1079.276, 827.9486
1079.758, 827.7773
1080.240, 817.9766
1080.722, 808.9358
1081.204, 808.6376
1081.686, 814.8223
1082.168, 825.4951
1082.650, 840.4897
1083.132, 846.1256
1083.615, 830.1934
1084.097, 820.8014
1084.579, 825.7078
1085.061, 832.8848
1085.543, 837.8880
1086.025, 841.6813
1086.507, 846.3290
1086.989, 851.0234
1087.472, 849.7832
1087.954, 838.0438
1088.436, 831.9730
1088.918, 833.2920
1089.400, 836.6828
1089.882, 841.9597
1090.364, 845.8499
1090.846, 845.6440
1091.328, 842.1575
1091.811, 836.4246
1092.293, 827.9606
1092.775, 828.3311
1093.257, 838.9094
1093.739, 843.1498
1094.221, 837.1584
1094.703, 831.8385
1095.185, 833.5176
1095.667, 838.2072
1096.150, 841.1310
1096.632, 841.8495
1097.114, 837.6190
1097.596, 829.5216
1098.078, 821.9195
1098.560, 816.0280
1099.042, 817.0754
1099.524, 826.5250
1100.007, 836.6529
1100.489, 841.1263
1100.971, 842.1710
1101.453, 841.7756
1101.935, 840.9931
1102.417, 843.3170
1102.899, 846.4301
1103.381, 842.8138
1103.864, 832.9720
1104.346, 826.6795
1104.828, 829.0590
1105.310, 834.1663
1105.792, 840.1417
1106.274, 844.0475
1106.756, 841.1578
1107.238, 836.3912
1107.720, 836.3716
1108.203, 839.6357
1108.685, 840.7130
1109.167, 838.2490
1109.649, 835.5917
1110.131, 832.5195
1110.613, 831.3708
1111.095, 833.7872
1111.577, 837.4613
1112.059, 843.9659
1112.542, 849.0499
1113.024, 844.4308
1113.506, 830.8373
1113.988, 824.5303
1114.470, 832.7559
1114.952, 834.9797
1115.434, 826.7958
1115.916, 820.3303
1116.399, 818.9968
1116.881, 821.3121
1117.363, 827.1848
1117.845, 834.6501
1118.327, 838.7481
1118.809, 839.3755
1119.291, 837.8948
1119.773, 833.8548
1120.255, 832.4847
1120.738, 835.1201
1121.220, 834.6472
1121.702, 826.7759
1122.184, 820.0132
1122.666, 827.2109
1123.148, 840.8104
1123.630, 836.3535
1124.112, 819.3557
1124.594, 810.8188
1125.077, 811.3273
1125.559, 814.8521
1126.041, 819.3995
1126.523, 825.7783
1127.005, 835.7582
1127.487, 842.2691
1127.969, 832.7125
1128.451, 819.6205
1128.934, 818.7042
1129.416, 825.0865
1129.898, 832.1372
1130.380, 837.7808
1130.862, 840.1713
1131.344, 838.6305
1131.826, 835.3749
1132.308, 829.4631
1132.791, 824.7389
1133.273, 823.4689
1133.755, 823.4258
1134.237, 822.4690
1134.719, 821.9191
1135.201, 825.6721
1135.683, 833.0854
1136.165, 833.8572
1136.647, 819.3821
1137.130, 812.7711
1137.612, 818.2736
1138.094, 824.6436
1138.576, 831.6248
1139.058, 833.0238
1139.540, 821.8646
1140.022, 804.8166
1140.504, 796.3573
1140.986, 796.4591
1141.469, 800.5889
1141.951, 809.1202
1142.433, 814.5370
1142.915, 815.7268
1143.397, 817.2008
1143.879, 821.0322
1144.361, 822.0896
1144.843, 813.9866
1145.326, 802.7814
1145.808, 800.7650
1146.290, 804.7903
1146.772, 809.2057
1147.254, 812.2842
1147.736, 809.0126
1148.218, 800.2335
1148.700, 793.9660
1149.182, 794.0276
1149.665, 797.5056
1150.147, 804.0453
1150.629, 811.0058
1151.111, 819.4218
1151.593, 824.4821
1152.075, 816.8001
1152.557, 803.8002
1153.039, 802.3077
1153.521, 813.5192
1154.004, 816.1720
1154.486, 792.9080
1154.968, 781.7496
1155.450, 799.3805
1155.932, 814.5604
1156.414, 815.4316
1156.896, 810.9604
1157.378, 807.0458
1157.861, 804.2763
1158.343, 804.8070
1158.825, 809.1700
1159.307, 806.8792
1159.789, 796.1539
1160.271, 793.1832
1160.753, 801.0479
1161.235, 807.1092
1161.718, 805.4684
1162.200, 803.2354
1162.682, 808.5918
1163.164, 816.0941
1163.646, 813.5129
1164.128, 804.2322
1164.610, 795.4038
1165.092, 788.3210
1165.574, 784.9536
1166.057, 785.5707
1166.539, 790.9192
1167.021, 801.8177
1167.503, 807.8250
1167.985, 793.8278
1168.467, 781.3134
1168.949, 789.4196
1169.431, 802.8277
1169.913, 810.4984
1170.396, 811.6417
1170.878, 804.2350
1171.360, 789.8445
1171.842, 781.7056
1172.324, 784.6214
1172.806, 788.0446
1173.288, 795.1345
1173.770, 795.9648
1174.253, 782.3859
1174.735, 771.9647
1175.217, 778.8423
1175.699, 792.8222
1176.181, 796.1437
1176.663, 789.9595
1177.145, 783.2895
1177.627, 776.2022
1178.109, 780.7095
1178.592, 796.7819
1179.074, 803.1536
1179.556, 793.6153
1180.038, 783.5625
1180.520, 784.4034
1181.002, 788.6660
1181.484, 785.7708
1181.966, 780.8837
1182.448, 782.7855
1182.931, 787.5599
1183.413, 787.6065
1183.895, 784.5078
1184.377, 786.1044
1184.859, 793.7322
1185.341, 795.8790
1185.823, 781.3819
1186.305, 771.3036
1186.788, 775.0146
1187.270, 781.9174
1187.752, 791.9303
1188.234, 797.9205
1188.716, 788.8458
1189.198, 772.6006
1189.680, 769.3309
1190.162, 780.5012
1190.645, 786.4626
1191.127, 786.1774
1191.609, 786.2962
1192.091, 788.0644
1192.573, 785.4688
1193.055, 775.5680
1193.537, 767.9532
1194.019, 771.6833
1194.501, 782.1709
1194.984, 794.4085
1195.466, 805.2238
1195.948, 806.0347
1196.430, 799.6766
1196.912, 791.8460
1197.394, 784.2649
1197.876, 777.1182
1198.358, 770.8211
1198.840, 771.5648
1199.323, 791.3688
1199.805, 805.5463
1200.287, 794.6902
1200.769, 782.6987
1201.251, 789.2834
1201.733, 799.3008
1202.215, 792.5409
1202.697, 774.9000
1203.180, 768.2662
1203.662, 773.9264
1204.144, 781.2448
1204.626, 791.5635
1205.108, 799.3033
1205.590, 804.3081
1206.072, 802.9583
1206.554, 792.9795
1207.036, 782.6455
1207.519, 779.5060
1208.001, 781.5724
1208.483, 787.2266
1208.965, 794.0238
1209.447, 795.8635
1209.929, 793.4122
1210.411, 785.0859
1210.893, 774.8447
1211.375, 777.1297
1211.858, 795.0722
1212.340, 806.3424
1212.822, 793.7371
1213.304, 781.1816
1213.786, 781.6961
1214.268, 784.0641
1214.750, 779.5276
1215.232, 775.4536
1215.715, 783.2604
1216.197, 796.1009
1216.679, 795.6964
1217.161, 781.0565
1217.643, 776.3486
1218.125, 784.0276
1218.607, 791.3979
1219.089, 797.9993
1219.572, 797.9388
1220.054, 788.8544
1220.536, 779.3774
1221.018, 775.7752
1221.500, 777.0394
1221.982, 785.0775
1222.464, 794.5099
1222.946, 792.4763
1223.428, 785.3751
1223.911, 786.5693
1224.393, 793.0670
1224.875, 794.3498
1225.357, 788.5364
1225.839, 780.4824
1226.321, 768.1922
1226.803, 764.2507
1227.285, 780.2448
1227.767, 795.2510
1228.250, 802.6527
1228.732, 804.7515
1229.214, 802.1810
1229.696, 796.3127
1230.178, 788.2116
1230.660, 778.8218
1231.142, 774.0606
1231.624, 774.0485
1232.107, 775.6475
1232.589, 778.6496
1233.071, 781.8943
1233.553, 784.9586
1234.035, 787.1273
1234.517, 788.0350
1234.999, 784.7605
1235.481, 768.9855
1235.964, 755.9904
1236.446, 767.1530
1236.928, 784.7867
1237.410, 793.2610
1237.892, 793.3799
1238.374, 783.5760
1238.856, 768.7677
1239.338, 765.0040
1239.820, 777.5921
1240.302, 785.3311
1240.785, 787.9631
1241.267, 783.1829
1241.749, 765.9840
1242.231, 754.0674
1242.713, 754.6088
1243.195, 761.4116
1243.677, 770.3475
1244.159, 777.8269
1244.641, 775.0085
1245.124, 765.7462
1245.606, 761.3304
1246.088, 761.7621
##END=



