##NAMES=Heulandite-Ca
##RRUFFID=R061012
##IDEAL CHEMISTRY=(Ca,Na,K)_5_(Si_27_Al_9_)O_72_&#183;26H_2_O
##LOCALITY=Patterson, New Jersey, USA
##OWNER=RRUFF
##SOURCE=Michael Scott
##DESCRIPTION=Aggregate of white or colorless tabular coffin-shaped crystals
##STATUS=The identification of this mineral has been confirmed only by single crystal X-ray diffraction.
##URL=rruff.info/R061012
##MEASURED CHEMISTRY=(Ca_2.94_Na_1.55_K_0.51_)_Σ=5_(Si_28.06_Al_7.94_)_36_O_72_·19.5H_2_O
144.6697, 5358.511
145.1518, 5540.243
145.6340, 5696.964
146.1161, 5830.438
146.5982, 5943.655
147.0803, 6040.354
147.5624, 6123.260
148.0445, 6192.340
148.5267, 6247.937
149.0088, 6277.520
149.4909, 6308.901
149.9730, 6368.112
150.4551, 6441.277
150.9372, 6486.720
151.4194, 6469.749
151.9015, 6388.755
152.3836, 6324.732
152.8657, 6291.230
153.3478, 6259.024
153.8299, 6215.817
154.3121, 6161.393
154.7942, 6098.163
155.2763, 6025.273
155.7584, 5941.758
156.2405, 5878.230
156.7226, 5841.532
157.2048, 5816.854
157.6869, 5798.075
158.1690, 5783.924
158.6511, 5771.456
159.1332, 5757.381
159.6153, 5741.571
160.0975, 5734.176
160.5796, 5740.913
161.0617, 5751.567
161.5438, 5760.389
162.0259, 5766.466
162.5080, 5768.337
162.9902, 5763.650
163.4723, 5751.761
163.9544, 5741.077
164.4365, 5730.888
164.9186, 5722.625
165.4007, 5720.348
165.8829, 5724.362
166.3650, 5725.566
166.8471, 5715.853
167.3292, 5694.977
167.8113, 5667.415
168.2934, 5635.474
168.7756, 5596.186
169.2577, 5544.807
169.7398, 5480.466
170.2219, 5411.117
170.7040, 5343.182
171.1861, 5276.676
171.6683, 5209.878
172.1504, 5141.031
172.6325, 5072.726
173.1146, 5008.339
173.5967, 4948.391
174.0788, 4890.658
174.5610, 4833.339
175.0431, 4776.178
175.5252, 4717.708
176.0073, 4651.596
176.4894, 4586.171
176.9715, 4533.222
177.4537, 4495.345
177.9358, 4462.814
178.4179, 4427.104
178.9000, 4389.093
179.3821, 4353.200
179.8642, 4319.846
180.3464, 4289.400
180.8285, 4264.040
181.3106, 4245.465
181.7927, 4225.740
182.2748, 4191.914
182.7569, 4148.610
183.2391, 4114.596
183.7212, 4102.991
184.2033, 4101.632
184.6854, 4090.883
185.1675, 4067.074
185.6496, 4041.215
186.1318, 4023.210
186.6139, 4011.172
187.0960, 4000.217
187.5781, 3988.024
188.0602, 3976.320
188.5423, 3970.172
189.0245, 3972.992
189.5066, 3971.372
189.9887, 3947.134
190.4708, 3908.275
190.9529, 3876.132
191.4350, 3859.654
191.9172, 3853.709
192.3993, 3852.404
192.8814, 3857.886
193.3635, 3859.852
193.8456, 3843.354
194.3277, 3815.968
194.8099, 3797.165
195.2920, 3801.877
195.7741, 3816.192
196.2562, 3816.580
196.7383, 3799.233
197.2204, 3778.118
197.7026, 3765.399
198.1847, 3757.019
198.6668, 3743.427
199.1489, 3718.495
199.6310, 3687.699
200.1131, 3657.570
200.5953, 3627.247
201.0774, 3601.886
201.5595, 3589.426
202.0416, 3584.703
202.5237, 3578.930
203.0058, 3572.254
203.4880, 3561.943
203.9701, 3541.270
204.4522, 3507.467
204.9343, 3475.880
205.4164, 3460.830
205.8985, 3455.136
206.3806, 3446.201
206.8628, 3428.275
207.3449, 3406.901
207.8270, 3390.989
208.3091, 3382.074
208.7912, 3368.509
209.2733, 3334.476
209.7555, 3292.053
210.2376, 3264.429
210.7197, 3268.854
211.2018, 3280.135
211.6839, 3264.906
212.1660, 3220.447
212.6482, 3181.655
213.1303, 3174.845
213.6124, 3185.421
214.0945, 3187.646
214.5766, 3173.289
215.0587, 3154.048
215.5409, 3140.648
216.0230, 3133.178
216.5051, 3128.996
216.9872, 3130.119
217.4693, 3132.507
217.9514, 3128.255
218.4336, 3110.785
218.9157, 3094.867
219.3978, 3095.337
219.8799, 3111.226
220.3620, 3126.824
220.8441, 3138.514
221.3263, 3143.240
221.8084, 3135.997
222.2905, 3108.920
222.7726, 3084.222
223.2547, 3080.537
223.7368, 3094.882
224.2190, 3106.769
224.7011, 3108.749
225.1832, 3103.299
225.6653, 3094.641
226.1474, 3079.719
226.6295, 3069.493
227.1117, 3071.424
227.5938, 3083.516
228.0759, 3099.601
228.5580, 3119.889
229.0401, 3140.210
229.5222, 3152.686
230.0044, 3155.120
230.4865, 3159.972
230.9686, 3180.967
231.4507, 3208.520
231.9328, 3215.314
232.4149, 3186.476
232.8971, 3149.365
233.3792, 3148.160
233.8613, 3185.134
234.3434, 3219.103
234.8255, 3232.701
235.3076, 3235.730
235.7898, 3245.271
236.2719, 3265.906
236.7540, 3290.145
237.2361, 3308.921
237.7182, 3322.020
238.2003, 3335.030
238.6825, 3348.939
239.1646, 3363.357
239.6467, 3376.141
240.1288, 3386.746
240.6109, 3401.172
241.0930, 3429.405
241.5752, 3473.119
242.0573, 3503.418
242.5394, 3508.419
243.0215, 3505.422
243.5036, 3510.184
243.9857, 3523.880
244.4679, 3537.286
244.9500, 3540.806
245.4321, 3533.939
245.9142, 3538.834
246.3963, 3568.113
246.8784, 3598.406
247.3606, 3616.382
247.8427, 3621.890
248.3248, 3617.731
248.8069, 3601.459
249.2890, 3575.796
249.7711, 3576.777
250.2533, 3626.875
250.7354, 3676.688
251.2175, 3707.944
251.6996, 3722.245
252.1817, 3724.409
252.6638, 3715.277
253.1460, 3698.082
253.6281, 3662.905
254.1102, 3694.119
254.5923, 3710.976
255.0744, 3714.249
255.5565, 3663.250
256.0387, 3682.332
256.5208, 3673.328
257.0029, 3663.173
257.4850, 3692.119
257.9671, 3649.013
258.4492, 3677.339
258.9314, 3677.151
259.4135, 3690.013
259.8956, 3674.615
260.3777, 3667.947
260.8598, 3689.546
261.3419, 3695.493
261.8241, 3637.767
262.3062, 3614.773
262.7883, 3598.862
263.2704, 3584.901
263.7525, 3567.959
264.2346, 3547.810
264.7168, 3528.786
265.1989, 3516.477
265.6810, 3512.747
266.1631, 3509.588
266.6452, 3514.837
267.1273, 3513.965
267.6095, 3493.255
268.0916, 3457.484
268.5737, 3425.192
269.0558, 3414.517
269.5379, 3426.934
270.0201, 3433.341
270.5022, 3430.364
270.9843, 3423.977
271.4664, 3415.737
271.9485, 3405.211
272.4306, 3390.621
272.9128, 3369.704
273.3949, 3344.304
273.8770, 3324.814
274.3591, 3312.516
274.8412, 3304.840
275.3233, 3302.768
275.8055, 3303.700
276.2876, 3304.497
276.7697, 3303.816
277.2518, 3302.122
277.7339, 3300.775
278.2160, 3300.831
278.6982, 3298.215
279.1803, 3287.193
279.6624, 3275.564
280.1445, 3270.786
280.6266, 3275.252
281.1087, 3282.351
281.5909, 3284.264
282.0730, 3280.581
282.5551, 3277.199
283.0372, 3277.827
283.5193, 3277.023
284.0014, 3269.467
284.4836, 3254.931
284.9657, 3240.152
285.4478, 3229.922
285.9299, 3223.557
286.4120, 3217.718
286.8941, 3210.776
287.3763, 3206.449
287.8584, 3209.457
288.3405, 3218.401
288.8226, 3226.367
289.3047, 3227.583
289.7868, 3227.015
290.2690, 3236.366
290.7511, 3259.021
291.2332, 3276.233
291.7153, 3266.995
292.1974, 3239.295
292.6795, 3223.002
293.1617, 3226.692
293.6438, 3239.837
294.1259, 3260.448
294.6080, 3286.246
295.0901, 3298.747
295.5722, 3280.938
296.0544, 3244.766
296.5365, 3234.113
297.0186, 3271.082
297.5007, 3303.907
297.9828, 3307.244
298.4649, 3291.978
298.9471, 3280.839
299.4292, 3282.905
299.9113, 3292.410
300.3934, 3297.231
300.8755, 3295.295
301.3576, 3292.778
301.8398, 3290.536
302.3219, 3287.887
302.8040, 3281.656
303.2861, 3271.906
303.7682, 3266.126
304.2503, 3275.094
304.7325, 3306.773
305.2146, 3326.104
305.6967, 3325.794
306.1788, 3321.248
306.6609, 3320.630
307.1430, 3323.857
307.6252, 3326.974
308.1073, 3326.999
308.5894, 3323.927
309.0715, 3317.409
309.5536, 3296.749
310.0357, 3283.964
310.5179, 3288.364
311.0000, 3302.951
311.4821, 3317.927
311.9642, 3328.775
312.4463, 3334.770
312.9284, 3331.043
313.4106, 3303.201
313.8927, 3294.655
314.3748, 3328.739
314.8569, 3373.560
315.3390, 3401.988
315.8211, 3406.761
316.3033, 3400.200
316.7854, 3394.605
317.2675, 3389.351
317.7496, 3391.246
318.2317, 3410.093
318.7138, 3428.604
319.1960, 3433.624
319.6781, 3426.555
320.1602, 3420.543
320.6423, 3420.932
321.1244, 3428.877
321.6065, 3451.767
322.0887, 3497.092
322.5708, 3540.669
323.0529, 3563.224
323.5350, 3571.330
324.0171, 3577.977
324.4992, 3584.397
324.9814, 3592.716
325.4635, 3608.782
325.9456, 3632.340
326.4277, 3647.403
326.9098, 3639.236
327.3919, 3620.302
327.8741, 3623.682
328.3562, 3663.686
328.8383, 3701.409
329.3204, 3718.527
329.8025, 3721.071
330.2846, 3719.876
330.7667, 3717.726
331.2488, 3716.916
331.7310, 3721.852
332.2131, 3735.765
332.6952, 3746.484
333.1773, 3750.150
333.6594, 3752.341
334.1415, 3756.313
334.6237, 3763.115
335.1058, 3774.813
335.5879, 3794.698
336.0700, 3824.372
336.5521, 3843.422
337.0342, 3845.446
337.5164, 3845.086
337.9985, 3845.959
338.4806, 3848.300
338.9627, 3850.693
339.4448, 3851.858
339.9269, 3854.292
340.4091, 3867.579
340.8912, 3902.405
341.3733, 3930.538
341.8554, 3942.783
342.3375, 3950.622
342.8196, 3962.566
343.3018, 3981.094
343.7839, 4006.202
344.2660, 4042.644
344.7481, 4093.502
345.2302, 4128.824
345.7123, 4134.391
346.1945, 4133.904
346.6766, 4136.041
347.1587, 4142.807
347.6408, 4158.945
348.1229, 4194.915
348.6050, 4241.856
349.0872, 4274.382
349.5693, 4288.436
350.0514, 4301.782
350.5335, 4323.430
351.0156, 4351.958
351.4977, 4386.029
351.9799, 4430.033
352.4620, 4473.787
352.9441, 4508.349
353.4262, 4535.335
353.9083, 4560.863
354.3904, 4585.146
354.8726, 4612.427
355.3547, 4654.285
355.8368, 4717.479
356.3189, 4769.315
356.8010, 4789.564
357.2831, 4801.444
357.7653, 4835.053
358.2474, 4894.163
358.7295, 4955.637
359.2116, 4996.451
359.6937, 5013.645
360.1758, 5031.971
360.6580, 5046.781
361.1401, 5067.062
361.6222, 5092.982
362.1043, 5127.468
362.5864, 5179.929
363.0685, 5258.255
363.5507, 5349.380
364.0328, 5405.130
364.5149, 5388.057
364.9970, 5396.465
365.4791, 5462.425
365.9612, 5542.396
366.4434, 5597.328
366.9255, 5619.968
367.4076, 5633.850
367.8897, 5664.823
368.3718, 5713.737
368.8539, 5766.419
369.3361, 5822.945
369.8182, 5882.283
370.3003, 5949.277
370.7824, 6018.803
371.2645, 6076.376
371.7466, 6105.361
372.2288, 6122.894
372.7109, 6160.558
373.1930, 6220.219
373.6751, 6283.349
374.1572, 6343.163
374.6393, 6399.468
375.1215, 6452.458
375.6036, 6501.611
376.0857, 6548.434
376.5678, 6586.545
377.0499, 6623.486
377.5320, 6679.526
378.0142, 6762.463
378.4963, 6850.194
378.9784, 6914.661
379.4605, 6949.500
379.9426, 6983.613
380.4247, 7008.483
380.9069, 7040.144
381.3890, 7095.068
381.8711, 7168.021
382.3532, 7237.966
382.8353, 7289.539
383.3174, 7327.771
383.7996, 7384.432
384.2817, 7477.717
384.7638, 7568.957
385.2459, 7651.679
385.7280, 7731.562
386.2101, 7815.128
386.6923, 7904.394
387.1744, 7994.573
387.6565, 8075.328
388.1386, 8142.021
388.6207, 8229.147
389.1028, 8354.463
389.5850, 8484.993
390.0671, 8603.085
390.5492, 8711.285
391.0313, 8821.271
391.5134, 8937.944
391.9955, 9060.335
392.4777, 9186.813
392.9598, 9317.920
393.4419, 9451.416
393.9240, 9590.728
394.4061, 9729.665
394.8882, 9853.877
395.3704, 9955.737
395.8525, 10060.02
396.3346, 10189.42
396.8167, 10328.32
397.2988, 10444.70
397.7809, 10530.49
398.2631, 10597.87
398.7452, 10658.69
399.2273, 10711.25
399.7094, 10764.63
400.1915, 10837.27
400.6736, 10893.51
401.1558, 10899.32
401.6379, 10872.51
402.1200, 10863.99
402.6021, 10906.65
403.0842, 10975.58
403.5663, 10981.79
404.0485, 10883.35
404.5306, 10787.08
405.0127, 10709.14
405.4948, 10632.77
405.9769, 10541.73
406.4590, 10435.22
406.9412, 10329.26
407.4233, 10246.52
407.9054, 10184.77
408.3875, 10099.46
408.8696, 9981.272
409.3517, 9852.505
409.8339, 9728.231
410.3160, 9601.644
410.7981, 9459.745
411.2802, 9287.140
411.7623, 9111.859
412.2444, 8967.104
412.7266, 8849.138
413.2087, 8724.352
413.6908, 8578.380
414.1729, 8425.126
414.6550, 8289.539
415.1371, 8177.139
415.6193, 8052.034
416.1014, 7899.302
416.5835, 7737.031
417.0656, 7581.407
417.5477, 7433.891
418.0298, 7290.499
418.5120, 7147.171
418.9941, 7004.366
419.4762, 6860.667
419.9583, 6715.656
420.4404, 6570.482
420.9225, 6415.842
421.4047, 6265.068
421.8868, 6137.186
422.3689, 6036.292
422.8510, 5941.186
423.3331, 5821.921
423.8152, 5673.429
424.2974, 5535.369
424.7795, 5414.783
425.2616, 5300.229
425.7437, 5187.576
426.2258, 5076.167
426.7079, 4964.199
427.1901, 4847.916
427.6722, 4734.248
428.1543, 4631.504
428.6364, 4540.008
429.1185, 4458.027
429.6006, 4387.807
430.0828, 4324.063
430.5649, 4257.436
431.0470, 4187.742
431.5291, 4117.225
432.0112, 4041.957
432.4933, 3969.036
432.9755, 3908.101
433.4576, 3858.967
433.9397, 3811.021
434.4218, 3753.597
434.9039, 3688.345
435.3860, 3643.950
435.8682, 3639.943
436.3503, 3633.302
436.8324, 3617.969
437.3145, 3595.760
437.7966, 3567.805
438.2787, 3534.758
438.7609, 3500.427
439.2430, 3467.723
439.7251, 3436.135
440.2072, 3412.788
440.6893, 3402.534
441.1714, 3395.282
441.6536, 3373.787
442.1357, 3336.242
442.6178, 3353.518
443.0999, 3359.776
443.5820, 3355.612
444.0641, 3309.804
444.5463, 3317.768
445.0284, 3304.184
445.5105, 3289.716
445.9926, 3305.250
446.4747, 3265.499
446.9568, 3280.559
447.4390, 3273.737
447.9211, 3272.423
448.4032, 3291.261
448.8853, 3310.583
449.3674, 3327.950
449.8495, 3339.958
450.3317, 3342.778
450.8138, 3339.898
451.2959, 3349.791
451.7780, 3380.401
452.2601, 3413.424
452.7422, 3446.793
453.2244, 3481.513
453.7065, 3519.469
454.1886, 3560.423
454.6707, 3601.224
455.1528, 3633.553
455.6349, 3659.930
456.1171, 3706.413
456.5992, 3780.164
457.0813, 3859.199
457.5634, 3933.742
458.0455, 4005.286
458.5276, 4075.759
459.0098, 4146.185
459.4919, 4214.712
459.9740, 4274.131
460.4561, 4331.039
460.9382, 4404.723
461.4203, 4501.987
461.9025, 4602.964
462.3846, 4684.263
462.8667, 4741.088
463.3488, 4808.430
463.8309, 4891.726
464.3130, 4979.052
464.7952, 5068.790
465.2773, 5158.029
465.7594, 5239.694
466.2415, 5310.398
466.7236, 5378.754
467.2057, 5464.135
467.6879, 5574.909
468.1700, 5672.657
468.6521, 5736.001
469.1342, 5800.803
469.6163, 5889.527
470.0984, 5996.381
470.5806, 6100.160
471.0627, 6183.245
471.5448, 6261.092
472.0269, 6356.075
472.5090, 6468.241
472.9911, 6587.983
473.4733, 6714.597
473.9554, 6845.089
474.4375, 6974.954
474.9196, 7104.240
475.4017, 7234.406
475.8839, 7368.985
476.3660, 7502.924
476.8481, 7637.825
477.3302, 7770.047
477.8123, 7886.044
478.2944, 7976.404
478.7766, 8044.104
479.2587, 8100.715
479.7408, 8153.805
480.2229, 8181.835
480.7050, 8180.679
481.1871, 8158.371
481.6693, 8122.341
482.1514, 8072.618
482.6335, 8002.035
483.1156, 7905.067
483.5977, 7782.932
484.0798, 7634.818
484.5620, 7454.771
485.0441, 7274.776
485.5262, 7115.025
486.0083, 6963.585
486.4904, 6798.932
486.9725, 6618.471
487.4547, 6430.073
487.9368, 6225.157
488.4189, 6018.946
488.9010, 5839.639
489.3831, 5688.361
489.8652, 5536.121
490.3474, 5355.585
490.8295, 5150.373
491.3116, 4962.535
491.7937, 4794.737
492.2758, 4644.090
492.7579, 4521.439
493.2401, 4409.958
493.7222, 4291.672
494.2043, 4163.583
494.6864, 4033.806
495.1685, 3907.487
495.6506, 3785.723
496.1327, 3675.530
496.6148, 3578.418
497.0970, 3486.774
497.5791, 3394.788
498.0612, 3305.449
498.5433, 3226.818
499.0254, 3165.143
499.5075, 3103.086
499.9897, 3025.818
500.4718, 2945.005
500.9539, 2880.905
501.4360, 2836.805
501.9181, 2798.093
502.4002, 2750.738
502.8824, 2694.622
503.3645, 2644.489
503.8466, 2604.662
504.3287, 2566.292
504.8108, 2519.869
505.2929, 2478.340
505.7751, 2453.105
506.2572, 2446.806
506.7393, 2443.238
507.2214, 2431.780
507.7035, 2412.857
508.1856, 2364.108
508.6678, 2353.869
509.1499, 2328.199
509.6320, 2301.898
510.1141, 2297.083
510.5962, 2252.674
511.0783, 2247.519
511.5605, 2207.577
512.0426, 2209.563
512.5247, 2221.378
513.0068, 2217.456
513.4890, 2193.668
513.9711, 2164.759
514.4532, 2144.774
514.9353, 2133.452
515.4174, 2117.843
515.8995, 2084.630
516.3817, 2063.780
516.8638, 2072.198
517.3459, 2088.884
517.8280, 2090.417
518.3101, 2072.289
518.7922, 2051.999
519.2744, 2049.369
519.7565, 2058.748
520.2386, 2054.007
520.7207, 2030.862
521.2028, 2007.105
521.6849, 1993.350
522.1671, 1986.545
522.6492, 1976.872
523.1313, 1959.909
523.6134, 1948.565
524.0955, 1953.256
524.5776, 1962.253
525.0598, 1961.861
525.5419, 1950.941
526.0240, 1937.444
526.5061, 1927.936
526.9882, 1921.504
527.4703, 1911.170
527.9525, 1892.750
528.4346, 1877.431
528.9167, 1868.601
529.3988, 1862.427
529.8809, 1856.910
530.3630, 1851.432
530.8452, 1843.913
531.3273, 1828.777
531.8094, 1812.028
532.2915, 1807.737
532.7736, 1816.420
533.2557, 1823.810
533.7379, 1823.467
534.2200, 1816.830
534.7021, 1805.499
535.1842, 1781.917
535.6663, 1771.615
536.1484, 1789.760
536.6306, 1812.005
537.1127, 1821.843
537.5948, 1819.441
538.0769, 1809.933
538.5590, 1795.208
539.0411, 1779.839
539.5233, 1777.470
540.0054, 1792.800
540.4875, 1802.404
540.9696, 1800.762
541.4517, 1793.226
541.9338, 1779.058
542.4160, 1761.181
542.8981, 1752.878
543.3802, 1767.470
543.8623, 1786.958
544.3444, 1796.423
544.8265, 1797.108
545.3087, 1791.749
545.7908, 1780.720
546.2729, 1769.115
546.7550, 1764.590
547.2371, 1769.494
547.7192, 1771.213
548.2014, 1770.468
548.6835, 1766.073
549.1656, 1752.831
549.6477, 1737.236
550.1298, 1728.983
550.6119, 1731.646
551.0941, 1739.395
551.5762, 1746.399
552.0583, 1752.731
552.5404, 1760.406
553.0225, 1772.183
553.5046, 1776.060
553.9868, 1756.558
554.4689, 1722.251
554.9510, 1707.880
555.4331, 1729.624
555.9152, 1748.599
556.3973, 1752.056
556.8795, 1746.898
557.3616, 1738.110
557.8437, 1728.006
558.3258, 1721.026
558.8079, 1721.459
559.2900, 1727.845
559.7722, 1731.046
560.2543, 1727.870
560.7364, 1728.622
561.2185, 1742.211
561.7006, 1756.368
562.1827, 1761.911
562.6649, 1758.428
563.1470, 1750.604
563.6291, 1735.547
564.1112, 1720.554
564.5933, 1715.373
565.0754, 1718.550
565.5576, 1722.792
566.0397, 1725.405
566.5218, 1725.484
567.0039, 1720.438
567.4860, 1705.021
567.9681, 1700.193
568.4503, 1714.722
568.9324, 1729.341
569.4145, 1732.868
569.8966, 1731.701
570.3787, 1737.842
570.8608, 1756.357
571.3430, 1779.153
571.8251, 1800.218
572.3072, 1818.187
572.7893, 1822.854
573.2714, 1810.501
573.7535, 1794.969
574.2357, 1785.135
574.7178, 1780.592
575.1999, 1778.449
575.6820, 1774.581
576.1641, 1778.296
576.6462, 1798.095
577.1283, 1822.356
577.6104, 1841.754
578.0925, 1854.177
578.5746, 1859.487
579.0568, 1856.691
579.5389, 1847.749
580.0210, 1838.362
580.5031, 1826.970
580.9852, 1821.409
581.4673, 1824.288
581.9495, 1833.533
582.4316, 1850.034
582.9137, 1872.687
583.3958, 1888.161
583.8779, 1885.656
584.3600, 1881.078
584.8422, 1885.567
585.3243, 1897.340
585.8064, 1913.034
586.2885, 1931.372
586.7706, 1948.448
587.2527, 1958.239
587.7349, 1959.632
588.2170, 1964.523
588.6991, 1976.391
589.1812, 1987.043
589.6633, 1989.784
590.1454, 1991.944
590.6276, 2004.259
591.1097, 2029.542
591.5918, 2053.138
592.0739, 2063.442
592.5560, 2066.795
593.0381, 2072.030
593.5203, 2080.043
594.0024, 2092.356
594.4845, 2110.630
594.9666, 2132.064
595.4487, 2149.915
595.9308, 2161.265
596.4130, 2174.503
596.8951, 2186.256
597.3772, 2202.937
597.8593, 2231.573
598.3414, 2267.010
598.8235, 2298.885
599.3057, 2322.648
599.7878, 2342.329
600.2699, 2361.028
600.7520, 2379.432
601.2341, 2400.408
601.7162, 2424.379
602.1984, 2451.520
602.6805, 2484.199
603.1626, 2520.368
603.6447, 2545.124
604.1268, 2555.183
604.6089, 2559.499
605.0911, 2549.033
605.5732, 2540.658
606.0553, 2551.860
606.5374, 2579.861
607.0195, 2607.624
607.5016, 2624.308
607.9838, 2633.135
608.4659, 2641.513
608.9480, 2649.458
609.4301, 2649.629
609.9122, 2637.218
610.3943, 2622.727
610.8765, 2619.640
611.3586, 2627.500
611.8407, 2622.953
612.3228, 2597.720
612.8049, 2569.068
613.2870, 2541.458
613.7692, 2514.860
614.2513, 2487.662
614.7334, 2460.215
615.2155, 2437.320
615.6976, 2425.717
616.1797, 2421.370
616.6619, 2406.015
617.1440, 2377.708
617.6261, 2348.717
618.1082, 2324.277
618.5903, 2299.907
619.0724, 2267.370
619.5546, 2226.200
620.0367, 2194.281
620.5188, 2184.210
621.0009, 2174.552
621.4830, 2152.745
621.9651, 2122.756
622.4473, 2091.194
622.9294, 2060.526
623.4115, 2032.120
623.8936, 2007.640
624.3757, 1987.025
624.8578, 1968.609
625.3400, 1952.406
625.8221, 1939.086
626.3042, 1933.718
626.7863, 1928.211
627.2684, 1908.088
627.7505, 1869.786
628.2327, 1844.299
628.7148, 1855.029
629.1969, 1868.212
629.6790, 1855.301
630.1611, 1825.056
630.6432, 1800.375
631.1254, 1790.165
631.6075, 1785.564
632.0896, 1773.601
632.5717, 1753.696
633.0538, 1738.784
633.5359, 1731.776
634.0181, 1723.499
634.5002, 1705.773
634.9823, 1686.299
635.4644, 1676.604
635.9465, 1678.987
636.4286, 1682.404
636.9108, 1688.582
637.3929, 1690.021
637.8750, 1676.216
638.3571, 1652.153
638.8392, 1631.395
639.3214, 1619.865
639.8035, 1614.149
640.2856, 1609.914
640.7677, 1607.487
641.2498, 1602.501
641.7319, 1592.880
642.2141, 1584.691
642.6962, 1584.276
643.1783, 1585.812
643.6604, 1579.986
644.1425, 1564.414
644.6246, 1548.888
645.1068, 1533.613
645.5889, 1522.096
646.0710, 1518.389
646.5531, 1521.153
647.0352, 1527.221
647.5173, 1535.189
647.9995, 1542.716
648.4816, 1547.206
648.9637, 1549.053
649.4458, 1539.877
649.9279, 1510.814
650.4100, 1488.490
650.8922, 1493.580
651.3743, 1511.755
651.8564, 1518.312
652.3385, 1509.005
652.8206, 1499.113
653.3027, 1490.949
653.7849, 1485.680
654.2670, 1486.106
654.7491, 1490.117
655.2312, 1492.944
655.7133, 1492.408
656.1954, 1489.111
656.6776, 1483.908
657.1597, 1476.798
657.6418, 1466.460
658.1239, 1449.911
658.6060, 1437.863
659.0881, 1437.033
659.5703, 1443.931
660.0524, 1452.896
660.5345, 1467.799
661.0166, 1471.881
661.4987, 1454.655
661.9808, 1431.990
662.4630, 1409.989
662.9451, 1392.123
663.4272, 1383.489
663.9093, 1386.179
664.3914, 1395.251
664.8735, 1405.882
665.3557, 1417.797
665.8378, 1428.552
666.3199, 1439.037
666.8020, 1443.317
667.2841, 1435.712
667.7662, 1422.341
668.2484, 1415.482
668.7305, 1401.936
669.2126, 1418.947
669.6947, 1428.069
670.1768, 1429.725
670.6589, 1401.555
671.1411, 1411.899
671.6232, 1406.808
672.1053, 1401.085
672.5874, 1416.850
673.0695, 1393.018
673.5516, 1408.442
674.0338, 1408.195
674.5159, 1415.121
674.9980, 1406.517
675.4801, 1402.709
675.9622, 1414.436
676.4443, 1417.562
676.9265, 1407.170
677.4086, 1414.551
677.8907, 1390.177
678.3728, 1393.669
678.8549, 1409.184
679.3370, 1399.573
679.8192, 1407.238
680.3013, 1408.323
680.7834, 1379.506
681.2655, 1402.693
681.7476, 1403.389
682.2297, 1380.994
682.7119, 1402.398
683.1940, 1383.187
683.6761, 1378.472
684.1582, 1384.668
684.6403, 1379.491
685.1224, 1392.245
685.6046, 1387.724
686.0867, 1381.660
686.5688, 1390.154
687.0509, 1387.893
687.5330, 1379.883
688.0151, 1368.077
688.4973, 1354.416
688.9794, 1349.103
689.4615, 1363.855
689.9436, 1382.345
690.4257, 1390.094
690.9078, 1390.880
691.3900, 1393.001
691.8721, 1398.296
692.3542, 1403.086
692.8363, 1403.997
693.3184, 1401.539
693.8005, 1398.268
694.2827, 1393.424
694.7648, 1390.262
695.2469, 1391.194
695.7290, 1392.021
696.2111, 1389.174
696.6932, 1383.290
697.1754, 1376.886
697.6575, 1367.269
698.1396, 1361.192
698.6217, 1365.399
699.1038, 1371.847
699.5859, 1370.188
700.0681, 1361.561
700.5502, 1355.742
701.0323, 1359.627
701.5144, 1366.846
701.9965, 1365.502
702.4786, 1355.916
702.9608, 1343.016
703.4429, 1324.773
703.9250, 1314.131
704.4071, 1322.735
704.8892, 1344.347
705.3713, 1358.398
705.8535, 1363.151
706.3356, 1363.436
706.8177, 1354.498
707.2998, 1345.999
707.7819, 1343.478
708.2640, 1345.374
708.7462, 1348.520
709.2283, 1351.965
709.7104, 1354.862
710.1925, 1356.070
710.6746, 1356.352
711.1567, 1357.466
711.6389, 1359.324
712.1210, 1360.095
712.6031, 1358.738
713.0852, 1357.362
713.5673, 1360.715
714.0494, 1371.262
714.5316, 1368.792
715.0137, 1337.458
715.4958, 1317.174
715.9779, 1331.526
716.4600, 1355.820
716.9421, 1364.062
717.4243, 1354.538
717.9064, 1346.685
718.3885, 1351.961
718.8706, 1356.504
719.3527, 1337.831
719.8348, 1352.864
720.3170, 1360.718
720.7991, 1361.781
721.2812, 1335.707
721.7633, 1344.673
722.2454, 1339.597
722.7275, 1333.946
723.2097, 1347.844
723.6918, 1325.717
724.1739, 1339.306
724.6560, 1338.637
725.1381, 1344.494
725.6202, 1336.221
726.1024, 1332.312
726.5845, 1342.538
727.0666, 1344.937
727.5487, 1335.038
728.0308, 1341.309
728.5129, 1318.688
728.9951, 1321.421
729.4772, 1335.092
729.9593, 1325.903
730.4414, 1332.433
730.9235, 1332.976
731.4056, 1306.313
731.8878, 1326.964
732.3699, 1327.154
732.8520, 1306.333
733.3341, 1325.363
733.8162, 1307.439
734.2983, 1302.705
734.7805, 1307.898
735.2626, 1302.743
735.7447, 1313.903
736.2268, 1315.526
736.7089, 1309.989
737.1910, 1299.412
737.6732, 1298.997
738.1553, 1310.154
738.6374, 1315.928
739.1195, 1306.889
739.6016, 1297.502
740.0837, 1296.367
740.5659, 1299.565
741.0480, 1300.674
741.5301, 1299.059
742.0122, 1300.503
742.4943, 1313.342
742.9764, 1327.453
743.4586, 1318.405
743.9407, 1289.286
744.4228, 1265.425
744.9049, 1251.506
745.3870, 1249.781
745.8691, 1264.305
746.3513, 1291.525
746.8334, 1314.441
747.3155, 1337.960
747.7976, 1347.940
748.2797, 1331.610
748.7618, 1314.109
749.2440, 1305.719
749.7261, 1305.206
750.2082, 1310.322
750.6903, 1322.291
751.1724, 1332.775
751.6545, 1294.688
752.1367, 1313.728
752.6188, 1324.879
753.1009, 1328.564
753.5830, 1302.424
754.0651, 1314.797
754.5472, 1311.736
755.0294, 1308.042
755.5115, 1325.836
755.9936, 1304.033
756.4757, 1321.486
756.9578, 1323.269
757.4399, 1339.302
757.9221, 1339.655
758.4042, 1341.508
758.8863, 1344.858
759.3684, 1348.636
759.8505, 1350.752
760.3326, 1356.180
760.8148, 1371.996
761.2969, 1385.699
761.7790, 1384.537
762.2611, 1373.392
762.7432, 1368.383
763.2253, 1375.998
763.7075, 1388.608
764.1896, 1409.390
764.6717, 1427.251
765.1538, 1421.582
765.6359, 1398.074
766.1180, 1382.810
766.6002, 1388.559
767.0823, 1402.871
767.5644, 1404.917
768.0465, 1396.592
768.5286, 1403.972
769.0107, 1430.433
769.4929, 1453.224
769.9750, 1462.757
770.4571, 1465.409
770.9392, 1468.958
771.4213, 1473.275
771.9034, 1479.806
772.3856, 1490.723
772.8677, 1501.022
773.3498, 1511.306
773.8319, 1519.411
774.3140, 1522.579
774.7961, 1521.711
775.2783, 1521.180
775.7604, 1524.610
776.2425, 1525.421
776.7246, 1514.105
777.2067, 1500.344
777.6888, 1500.472
778.1710, 1511.855
778.6531, 1515.776
779.1352, 1501.809
779.6173, 1484.604
780.0994, 1492.974
780.5815, 1522.163
781.0637, 1524.541
781.5458, 1494.383
782.0279, 1473.670
782.5100, 1484.001
782.9921, 1504.489
783.4742, 1503.543
783.9564, 1477.624
784.4385, 1461.987
784.9206, 1459.986
785.4027, 1464.039
785.8848, 1453.072
786.3669, 1461.424
786.8491, 1461.883
787.3312, 1454.880
787.8133, 1418.050
788.2954, 1419.734
788.7775, 1405.984
789.2596, 1391.601
789.7418, 1398.703
790.2239, 1366.213
790.7060, 1372.977
791.1881, 1364.071
791.6702, 1321.567
792.1523, 1286.227
792.6345, 1284.449
793.1166, 1306.884
793.5987, 1320.322
794.0808, 1323.506
794.5629, 1321.476
795.0450, 1316.196
795.5272, 1305.991
796.0093, 1287.141
796.4914, 1259.559
796.9735, 1241.812
797.4556, 1240.325
797.9377, 1235.447
798.4199, 1221.540
798.9020, 1204.378
799.3841, 1184.728
799.8662, 1165.135
800.3483, 1155.998
800.8304, 1164.244
801.3126, 1173.569
801.7947, 1184.142
802.2768, 1190.067
802.7589, 1181.349
803.2410, 1165.695
803.7231, 1159.740
804.2053, 1169.144
804.6874, 1182.054
805.1695, 1189.793
805.6516, 1193.820
806.1337, 1194.861
806.6158, 1194.147
807.0980, 1197.060
807.5801, 1204.881
808.0622, 1210.258
808.5443, 1205.703
809.0264, 1193.227
809.5085, 1179.188
809.9907, 1162.119
810.4728, 1156.940
810.9549, 1171.274
811.4370, 1184.535
811.9191, 1182.365
812.4012, 1168.486
812.8834, 1154.186
813.3655, 1137.374
813.8476, 1124.516
814.3297, 1116.205
814.8118, 1111.043
815.2939, 1110.559
815.7761, 1111.832
816.2582, 1110.787
816.7403, 1107.026
817.2224, 1104.884
817.7045, 1106.518
818.1866, 1109.931
818.6688, 1117.488
819.1509, 1123.992
819.6330, 1121.700
820.1151, 1110.717
820.5972, 1096.347
821.0793, 1080.641
821.5615, 1067.181
822.0436, 1063.608
822.5257, 1066.205
823.0078, 1059.476
823.4899, 1043.434
823.9720, 1038.711
824.4542, 1056.347
824.9363, 1079.719
825.4184, 1082.643
825.9005, 1064.835
826.3826, 1051.279
826.8647, 1043.390
827.3469, 1034.844
827.8290, 1020.747
828.3111, 1010.164
828.7932, 1016.096
829.2753, 1035.240
829.7574, 1039.273
830.2396, 1014.373
830.7217, 995.1883
831.2038, 986.9839
831.6859, 982.8040
832.1680, 977.8616
832.6501, 974.2618
833.1323, 977.7690
833.6144, 990.4812
834.0965, 999.8274
834.5786, 995.9522
835.0607, 989.4910
835.5428, 990.9887
836.0250, 995.4165
836.5071, 991.5555
836.9892, 979.1539
837.4713, 971.3236
837.9534, 979.9881
838.4355, 993.0123
838.9177, 988.5842
839.3998, 971.8197
839.8819, 959.5616
840.3640, 954.1358
840.8461, 957.1227
841.3282, 970.3008
841.8104, 986.3397
842.2925, 991.5644
842.7746, 985.3664
843.2567, 983.3785
843.7388, 988.3972
844.2209, 986.6415
844.7031, 969.9212
845.1852, 950.9491
845.6673, 943.0526
846.1494, 945.4441
846.6315, 947.2570
847.1136, 944.9127
847.5958, 947.2231
848.0779, 961.9205
848.5600, 973.9258
849.0421, 974.6223
849.5242, 966.9238
850.0063, 954.7737
850.4885, 937.1431
850.9706, 926.6191
851.4527, 932.3214
851.9348, 941.5858
852.4169, 948.3415
852.8990, 952.5456
853.3812, 954.5757
853.8633, 954.6465
854.3454, 953.2328
854.8275, 950.7843
855.3096, 946.6492
855.7917, 936.2036
856.2739, 924.9895
856.7560, 926.3486
857.2381, 938.9252
857.7202, 951.2172
858.2023, 957.9015
858.6844, 957.3447
859.1666, 942.7200
859.6487, 918.2776
860.1308, 911.5431
860.6129, 922.8734
861.0950, 929.9420
861.5771, 926.2786
862.0593, 920.0886
862.5414, 918.9675
863.0235, 921.1832
863.5056, 918.2517
863.9877, 905.9860
864.4698, 902.0549
864.9520, 912.4184
865.4341, 922.7869
865.9162, 926.2682
866.3983, 925.7049
866.8804, 926.6326
867.3625, 930.2145
867.8447, 926.5673
868.3268, 902.7311
868.8089, 888.1548
869.2910, 898.4893
869.7731, 914.3741
870.2552, 919.8268
870.7374, 916.4713
871.2195, 914.1716
871.7016, 917.2913
872.1837, 917.2485
872.6658, 904.5951
873.1479, 892.0973
873.6301, 892.0382
874.1122, 899.4761
874.5943, 905.2402
875.0764, 906.6958
875.5585, 904.9321
876.0406, 897.9298
876.5228, 891.2184
877.0049, 891.6164
877.4870, 897.6094
877.9691, 908.5395
878.4512, 922.5694
878.9333, 932.6319
879.4155, 934.9146
879.8976, 930.3228
880.3797, 915.9030
880.8618, 895.1642
881.3439, 889.7689
881.8260, 899.5004
882.3082, 901.0101
882.7903, 885.9323
883.2724, 871.9478
883.7545, 877.7968
884.2366, 897.8240
884.7188, 904.9811
885.2009, 895.8284
885.6830, 891.2742
886.1651, 895.0640
886.6472, 898.7247
887.1293, 895.7590
887.6115, 892.4128
888.0936, 901.6139
888.5757, 927.5515
889.0578, 937.8210
889.5399, 919.3566
890.0220, 904.0518
890.5042, 899.5889
890.9863, 898.2983
891.4684, 893.8681
891.9505, 888.0742
892.4326, 887.7789
892.9147, 899.3878
893.3969, 902.8097
893.8790, 881.3892
894.3611, 864.1522
894.8432, 871.1938
895.3253, 889.6405
895.8074, 904.9196
896.2896, 913.7325
896.7717, 913.1834
897.2538, 892.1708
897.7359, 874.5961
898.2180, 881.5387
898.7001, 895.7424
899.1823, 898.2627
899.6644, 890.4507
900.1465, 879.6125
900.6286, 868.5800
901.1107, 863.8345
901.5928, 878.8867
902.0750, 898.0009
902.5571, 895.9744
903.0392, 880.1170
903.5213, 868.2657
904.0034, 864.0615
904.4855, 863.7641
904.9677, 865.0902
905.4498, 867.9410
905.9318, 870.2142
906.4139, 873.8049
906.8961, 893.3948
907.3782, 926.8843
907.8603, 936.2308
908.3424, 906.5556
908.8245, 874.7258
909.3066, 883.0536
909.7888, 918.2086
910.2709, 918.6174
910.7530, 880.5547
911.2351, 858.3915
911.7172, 860.5973
912.1993, 872.0470
912.6815, 887.5607
913.1636, 901.1959
913.6457, 901.5532
914.1278, 887.2801
914.6099, 877.5793
915.0920, 871.6623
915.5742, 873.1176
916.0563, 888.9883
916.5384, 903.1257
917.0205, 901.4531
917.5026, 888.4776
917.9847, 879.7075
918.4669, 878.2448
918.9490, 873.8177
919.4311, 856.3557
919.9132, 848.4016
920.3953, 871.2131
920.8774, 896.4583
921.3596, 890.1360
921.8417, 856.2716
922.3238, 835.3587
922.8059, 841.0886
923.2880, 848.0352
923.7701, 853.7848
924.2523, 856.7734
924.7344, 852.3503
925.2165, 846.1613
925.6986, 848.6404
926.1807, 861.1653
926.6628, 869.3333
927.1450, 862.7911
927.6271, 856.4715
928.1092, 859.7980
928.5913, 865.7568
929.0734, 867.8229
929.5555, 866.2097
930.0377, 861.6573
930.5198, 853.6157
931.0019, 853.6347
931.4840, 881.4227
931.9661, 909.3965
932.4482, 907.6965
932.9304, 890.1454
933.4125, 878.1700
933.8946, 875.1793
934.3767, 876.5571
934.8588, 881.1251
935.3409, 882.9298
935.8231, 871.1768
936.3052, 855.3677
936.7873, 850.4774
937.2694, 855.2081
937.7515, 864.7649
938.2336, 877.1248
938.7158, 889.8032
939.1979, 902.4955
939.6800, 910.8104
940.1621, 902.5983
940.6442, 884.6997
941.1263, 878.3604
941.6085, 883.9689
942.0906, 891.4858
942.5727, 896.8727
943.0548, 900.8131
943.5369, 904.9647
944.0190, 907.3789
944.5012, 898.5970
944.9833, 880.7205
945.4654, 874.7271
945.9475, 883.3984
946.4296, 888.9564
946.9117, 881.2065
947.3939, 869.9802
947.8760, 871.1033
948.3581, 883.1412
948.8402, 892.6250
949.3223, 899.5823
949.8044, 902.8444
950.2866, 901.5372
950.7687, 900.7784
951.2508, 904.5574
951.7329, 910.2098
952.2150, 910.8883
952.6971, 905.6178
953.1793, 906.4806
953.6614, 915.1808
954.1435, 923.4177
954.6256, 930.1240
955.1077, 932.0193
955.5898, 924.5034
956.0720, 911.2062
956.5541, 905.9658
957.0362, 911.3495
957.5183, 916.4704
958.0004, 923.4674
958.4825, 924.4215
958.9647, 913.1007
959.4468, 899.4855
959.9289, 893.5828
960.4110, 894.9025
960.8931, 899.7467
961.3752, 908.4957
961.8574, 920.5743
962.3395, 943.8406
962.8216, 957.8046
963.3037, 946.2342
963.7858, 926.7234
964.2679, 922.2621
964.7501, 932.7463
965.2322, 941.7669
965.7143, 945.9708
966.1964, 953.8950
966.6785, 970.8796
967.1606, 986.4009
967.6428, 997.8174
968.1249, 1003.631
968.6070, 999.3525
969.0891, 983.7249
969.5712, 943.9833
970.0533, 981.1171
970.5355, 1002.472
971.0176, 1008.896
971.4997, 955.6689
971.9818, 979.4688
972.4639, 972.3997
972.9460, 964.0646
973.4282, 998.7060
973.9103, 954.1547
974.3924, 988.1143
974.8745, 990.7338
975.3566, 1007.697
975.8387, 993.6002
976.3209, 989.0972
976.8030, 1015.664
977.2851, 1025.026
977.7672, 1007.354
978.2493, 1025.229
978.7314, 979.5928
979.2136, 989.6888
979.6957, 1023.830
980.1778, 1007.720
980.6599, 1026.162
981.1420, 1031.445
981.6241, 976.9227
982.1063, 1026.408
982.5884, 1030.913
983.0705, 989.2341
983.5526, 1035.156
984.0347, 999.8434
984.5168, 993.5265
984.9990, 1009.031
985.4811, 1001.787
985.9632, 1016.040
986.4453, 1026.503
986.9274, 1034.751
987.4095, 1038.182
987.8917, 1038.721
988.3738, 1036.069
988.8559, 1032.104
989.3380, 1027.444
989.8201, 1023.283
990.3022, 1024.169
990.7844, 1035.715
991.2665, 1040.281
991.7486, 1021.830
992.2307, 1003.846
992.7128, 1001.773
993.1949, 1008.952
993.6771, 1017.367
994.1592, 1025.765
994.6413, 1034.858
995.1234, 1044.084
995.6055, 1056.062
996.0876, 1079.122
996.5698, 1097.907
997.0519, 1098.364
997.5340, 1089.610
998.0161, 1082.777
998.4982, 1079.772
998.9803, 1079.461
999.4625, 1082.305
999.9446, 1085.874
1000.427, 1090.421
1000.909, 1093.835
1001.391, 1092.037
1001.873, 1089.557
1002.355, 1095.007
1002.837, 1107.398
1003.319, 1114.329
1003.802, 1108.692
1004.284, 1101.978
1004.766, 1098.543
1005.248, 1097.252
1005.730, 1096.589
1006.212, 1097.911
1006.694, 1105.551
1007.176, 1118.253
1007.658, 1125.609
1008.141, 1121.990
1008.623, 1115.906
1009.105, 1107.147
1009.587, 1101.609
1010.069, 1106.031
1010.551, 1115.208
1011.033, 1121.398
1011.515, 1123.978
1011.997, 1127.647
1012.480, 1135.022
1012.962, 1141.968
1013.444, 1150.505
1013.926, 1153.987
1014.408, 1142.823
1014.890, 1126.343
1015.372, 1117.252
1015.854, 1116.753
1016.337, 1118.915
1016.819, 1122.504
1017.301, 1127.035
1017.783, 1137.805
1018.265, 1143.657
1018.747, 1131.684
1019.229, 1113.505
1019.711, 1106.151
1020.193, 1109.640
1020.676, 1109.342
1021.158, 1094.740
1021.640, 1087.982
1022.122, 1106.167
1022.604, 1123.540
1023.086, 1120.058
1023.568, 1109.490
1024.050, 1112.924
1024.533, 1128.729
1025.015, 1133.280
1025.497, 1109.680
1025.979, 1096.716
1026.461, 1115.521
1026.943, 1134.679
1027.425, 1134.990
1027.907, 1128.568
1028.390, 1128.492
1028.872, 1135.762
1029.354, 1149.388
1029.836, 1179.387
1030.318, 1194.535
1030.800, 1177.728
1031.282, 1158.562
1031.764, 1148.397
1032.246, 1143.638
1032.729, 1141.058
1033.211, 1140.206
1033.693, 1139.824
1034.175, 1136.098
1034.657, 1141.009
1035.139, 1170.685
1035.621, 1190.286
1036.103, 1173.655
1036.585, 1153.256
1037.068, 1165.955
1037.550, 1201.618
1038.032, 1214.814
1038.514, 1191.035
1038.996, 1176.979
1039.478, 1178.151
1039.960, 1181.807
1040.442, 1188.637
1040.925, 1192.730
1041.407, 1187.429
1041.889, 1176.002
1042.371, 1168.201
1042.853, 1163.448
1043.335, 1164.806
1043.817, 1176.782
1044.299, 1186.735
1044.781, 1194.403
1045.264, 1194.516
1045.746, 1177.783
1046.228, 1154.915
1046.710, 1153.424
1047.192, 1178.112
1047.674, 1188.860
1048.156, 1179.288
1048.638, 1174.901
1049.120, 1183.360
1049.603, 1191.482
1050.085, 1191.358
1050.567, 1184.481
1051.049, 1171.361
1051.531, 1151.800
1052.013, 1150.218
1052.495, 1171.282
1052.977, 1182.180
1053.460, 1176.166
1053.942, 1166.552
1054.424, 1159.757
1054.906, 1155.624
1055.388, 1153.799
1055.870, 1154.469
1056.352, 1161.586
1056.834, 1175.325
1057.317, 1175.582
1057.799, 1159.319
1058.281, 1148.322
1058.763, 1152.289
1059.245, 1166.496
1059.727, 1187.968
1060.209, 1211.894
1060.691, 1223.679
1061.173, 1224.309
1061.656, 1217.879
1062.138, 1205.872
1062.620, 1197.421
1063.102, 1195.550
1063.584, 1195.158
1064.066, 1191.025
1064.548, 1187.432
1065.030, 1194.949
1065.512, 1208.460
1065.995, 1213.255
1066.477, 1210.899
1066.959, 1210.491
1067.441, 1214.259
1067.923, 1218.626
1068.405, 1220.665
1068.887, 1224.820
1069.369, 1240.499
1069.852, 1258.748
1070.334, 1262.630
1070.816, 1259.326
1071.298, 1269.425
1071.780, 1290.595
1072.262, 1296.105
1072.744, 1270.992
1073.226, 1246.270
1073.708, 1245.473
1074.191, 1256.751
1074.673, 1276.269
1075.155, 1296.354
1075.637, 1307.404
1076.119, 1310.221
1076.601, 1307.912
1077.083, 1300.779
1077.565, 1302.303
1078.047, 1328.687
1078.530, 1353.233
1079.012, 1359.850
1079.494, 1360.554
1079.976, 1365.618
1080.458, 1372.763
1080.940, 1376.918
1081.422, 1377.286
1081.904, 1372.975
1082.386, 1351.182
1082.869, 1343.237
1083.351, 1368.734
1083.833, 1395.672
1084.315, 1407.667
1084.797, 1410.681
1085.279, 1410.359
1085.761, 1407.610
1086.243, 1410.506
1086.726, 1423.936
1087.208, 1434.122
1087.690, 1440.328
1088.172, 1444.512
1088.654, 1448.453
1089.136, 1448.602
1089.618, 1439.106
1090.100, 1424.813
1090.583, 1421.331
1091.065, 1429.619
1091.547, 1446.242
1092.029, 1476.722
1092.511, 1489.259
1092.993, 1472.490
1093.475, 1454.385
1093.957, 1453.187
1094.439, 1462.015
1094.922, 1469.581
1095.404, 1476.096
1095.886, 1485.384
1096.368, 1496.857
1096.850, 1497.499
1097.332, 1486.055
1097.814, 1477.017
1098.296, 1476.901
1098.778, 1480.991
1099.261, 1485.208
1099.743, 1488.480
1100.225, 1487.007
1100.707, 1483.203
1101.189, 1484.417
1101.671, 1489.635
1102.153, 1491.349
1102.635, 1488.757
1103.118, 1493.403
1103.600, 1516.691
1104.082, 1537.061
1104.564, 1525.707
1105.046, 1504.782
1105.528, 1497.787
1106.010, 1502.326
1106.492, 1517.961
1106.974, 1538.603
1107.457, 1545.410
1107.939, 1529.210
1108.421, 1514.922
1108.903, 1516.176
1109.385, 1522.096
1109.867, 1532.765
1110.349, 1539.737
1110.831, 1528.576
1111.313, 1510.397
1111.796, 1511.245
1112.278, 1535.413
1112.760, 1550.124
1113.242, 1546.766
1113.724, 1538.465
1114.206, 1517.942
1114.688, 1504.121
1115.170, 1507.198
1115.653, 1519.938
1116.135, 1539.144
1116.617, 1561.181
1117.099, 1563.441
1117.581, 1535.516
1118.063, 1521.857
1118.545, 1526.553
1119.027, 1533.940
1119.510, 1541.583
1119.992, 1543.702
1120.474, 1534.564
1120.956, 1521.049
1121.438, 1518.006
1121.920, 1523.841
1122.402, 1521.140
1122.884, 1510.891
1123.366, 1506.501
1123.849, 1509.891
1124.331, 1520.002
1124.813, 1536.261
1125.295, 1544.622
1125.777, 1528.104
1126.259, 1498.798
1126.741, 1469.157
1127.223, 1447.385
1127.705, 1457.760
1128.188, 1489.315
1128.670, 1513.224
1129.152, 1521.631
1129.634, 1515.339
1130.116, 1489.666
1130.598, 1469.796
1131.080, 1482.914
1131.562, 1500.288
1132.045, 1499.284
1132.527, 1488.637
1133.009, 1475.099
1133.491, 1462.933
1133.973, 1461.225
1134.455, 1473.289
1134.937, 1479.559
1135.419, 1470.254
1135.901, 1462.089
1136.384, 1464.379
1136.866, 1463.012
1137.348, 1442.723
1137.830, 1419.821
1138.312, 1417.756
1138.794, 1432.586
1139.276, 1431.184
1139.758, 1403.726
1140.240, 1394.377
1140.723, 1410.880
1141.205, 1420.861
1141.687, 1414.446
1142.169, 1402.025
1142.651, 1390.316
1143.133, 1380.748
1143.615, 1378.055
1144.097, 1379.953
1144.580, 1369.154
1145.062, 1348.752
1145.544, 1341.753
1146.026, 1348.889
1146.508, 1350.696
1146.990, 1339.933
1147.472, 1330.805
1147.954, 1338.762
1148.437, 1348.193
1148.919, 1332.273
1149.401, 1310.895
1149.883, 1319.294
1150.365, 1340.422
1150.847, 1336.125
1151.329, 1307.217
1151.811, 1285.451
1152.293, 1283.206
1152.776, 1285.359
1153.258, 1290.863
1153.740, 1291.629
1154.222, 1279.799
1154.704, 1265.581
1155.186, 1256.979
1155.668, 1251.979
1156.150, 1245.446
1156.632, 1237.033
1157.115, 1233.993
1157.597, 1241.321
1158.079, 1242.625
1158.561, 1234.253
1159.043, 1227.223
1159.525, 1227.002
1160.007, 1224.083
1160.489, 1208.804
1160.972, 1188.457
1161.454, 1181.002
1161.936, 1185.123
1162.418, 1182.093
1162.900, 1172.503
1163.382, 1161.265
1163.864, 1149.637
1164.346, 1140.819
1164.828, 1136.193
1165.311, 1133.915
1165.793, 1133.185
1166.275, 1132.135
1166.757, 1126.765
1167.239, 1120.644
1167.721, 1120.981
1168.203, 1123.474
1168.685, 1117.902
1169.167, 1105.243
1169.650, 1096.709
1170.132, 1096.934
1170.614, 1096.999
1171.096, 1096.002
1171.578, 1090.463
1172.060, 1072.059
1172.542, 1055.647
1173.024, 1056.554
1173.507, 1064.257
1173.989, 1057.904
1174.471, 1039.420
1174.953, 1039.818
1175.435, 1072.238
1175.917, 1081.193
1176.399, 1058.823
1176.881, 1033.878
1177.364, 1012.380
1177.846, 1001.955
1178.328, 1009.369
1178.810, 1025.570
1179.292, 1038.447
1179.774, 1045.818
1180.256, 1034.739
1180.738, 1010.986
1181.220, 995.8515
1181.703, 989.5166
1182.185, 981.3689
1182.667, 968.2702
1183.149, 955.2346
1183.631, 945.7134
1184.113, 936.5092
1184.595, 918.5652
1185.077, 906.6631
1185.559, 923.3976
1186.042, 945.8661
1186.524, 945.2930
1187.006, 927.0021
1187.488, 910.4449
1187.970, 898.0820
1188.452, 892.9146
1188.934, 903.9523
1189.416, 908.1760
1189.899, 901.2425
1190.381, 890.7894
1190.863, 877.1313
1191.345, 866.1259
1191.827, 863.8725
1192.309, 867.9729
1192.791, 873.0043
1193.273, 878.8057
1193.755, 878.4695
1194.238, 872.9401
1194.720, 877.6273
1195.202, 892.7532
1195.684, 896.1265
1196.166, 879.1039
1196.648, 861.9829
1197.130, 864.4194
1197.612, 870.6085
1198.094, 857.5818
1198.577, 841.6611
1199.059, 845.8834
1199.541, 858.7519
1200.023, 862.4643
1200.505, 856.1813
1200.987, 845.5911
1201.469, 831.2225
1201.951, 819.5510
1202.434, 811.8917
1202.916, 807.5511
1203.398, 808.3389
1203.880, 810.3735
1204.362, 814.8365
1204.844, 815.9041
1205.326, 806.0532
1205.808, 789.2711
1206.291, 777.0287
1206.773, 769.0678
1207.255, 776.4995
1207.737, 798.8117
1208.219, 813.5372
1208.701, 817.2780
1209.183, 818.0552
1209.665, 819.3544
1210.147, 816.8765
1210.630, 805.4288
1211.112, 791.1307
1211.594, 777.7069
1212.076, 769.2410
1212.558, 774.9797
1213.040, 786.6011
1213.522, 791.9073
1214.004, 790.4672
1214.486, 785.9888
1214.969, 778.6006
1215.451, 775.3732
1215.933, 786.4450
1216.415, 788.4949
1216.897, 765.0773
1217.379, 749.9285
1217.861, 759.2079
1218.343, 777.8085
1218.826, 793.9024
1219.308, 805.0293
1219.790, 801.9473
1220.272, 785.6643
1220.754, 781.5982
1221.236, 788.0718
1221.718, 786.3594
1222.200, 775.4833
1222.682, 768.3389
1223.165, 769.7115
1223.647, 777.0353
1224.129, 791.4687
1224.611, 801.7073
1225.093, 790.6025
1225.575, 776.3785
1226.057, 778.5335
1226.539, 786.2138
1227.021, 786.0200
1227.504, 779.3710
1227.986, 772.1713
1228.468, 765.0892
1228.950, 761.2551
1229.432, 760.8528
1229.914, 764.5154
1230.396, 777.2020
1230.878, 781.0864
1231.361, 766.9128
1231.843, 756.3424
1232.325, 767.3084
1232.807, 783.1400
1233.289, 773.5592
1233.771, 746.7728
1234.253, 728.3163
1234.735, 718.8523
1235.218, 727.2554
1235.700, 745.8485
1236.182, 746.5025
1236.664, 726.7924
1237.146, 712.7143
1237.628, 716.6937
1238.110, 727.1526
1238.592, 745.1451
1239.074, 757.5507
1239.557, 750.9615
1240.039, 743.2800
1240.521, 751.8204
1241.003, 764.6138
1241.485, 762.2181
1241.967, 748.9085
1242.449, 746.9003
1242.931, 759.4099
1243.413, 763.6623
1243.896, 759.0520
1244.378, 752.5992
1244.860, 745.6282
1245.342, 744.0370
1245.824, 750.4532
1246.306, 760.2585
1246.788, 770.4643
1247.270, 778.3989
1247.753, 779.8576
1248.235, 777.5450
1248.717, 773.8282
1249.199, 769.3342
1249.681, 763.3489
1250.163, 757.4302
1250.645, 756.3524
1251.127, 761.1413
1251.609, 761.4687
1252.092, 745.4561
1252.574, 743.6135
1253.056, 769.6993
1253.538, 782.9827
1254.020, 767.4210
1254.502, 748.9138
1254.984, 744.9683
1255.466, 749.3093
1255.948, 752.9312
1256.431, 756.2377
1256.913, 761.4612
1257.395, 767.0603
1257.877, 767.1390
1258.359, 763.8228
1258.841, 766.3477
1259.323, 773.5106
1259.805, 770.5765
1260.288, 750.2479
1260.770, 737.7260
1261.252, 747.1136
1261.734, 763.5287
1262.216, 795.2264
1262.698, 815.8477
1263.180, 804.0191
1263.662, 782.0403
1264.145, 766.9711
1264.627, 759.6326
1265.109, 763.9715
1265.591, 779.0677
1266.073, 785.0216
1266.555, 782.5778
1267.037, 781.3575
##END=



