##NAMES=Heulandite-Na
##RRUFFID=R070281
##IDEAL CHEMISTRY=(Na,Ca,K)_6_(Si,Al)_36_O_72_&#183;22H_2_O
##LOCALITY=Warm Spring Creek, Challis, Custer County, Idaho, USA
##OWNER=RRUFF
##SOURCE=Michael Scott
##DESCRIPTION=Orange tabular crystals lining a vug
##STATUS=The identification of this mineral is not yet confirmed.
##URL=rruff.info/R070281
159.1066, 2017.511
159.5887, 2031.234
160.0709, 2029.494
160.5530, 2020.652
161.0351, 2016.708
161.5172, 2018.861
161.9993, 2022.480
162.4814, 2023.443
162.9636, 2023.473
163.4457, 2026.124
163.9278, 2034.831
164.4099, 2046.295
164.8920, 2055.349
165.3741, 2062.828
165.8563, 2065.293
166.3384, 2055.240
166.8205, 2039.320
167.3026, 2029.205
167.7847, 2034.009
168.2668, 2046.185
168.7490, 2048.404
169.2311, 2036.693
169.7132, 2023.839
170.1953, 2017.892
170.6774, 2015.205
171.1595, 2009.743
171.6417, 1996.515
172.1238, 1979.674
172.6059, 1970.005
173.0880, 1969.977
173.5701, 1972.568
174.0522, 1975.910
174.5344, 1979.293
175.0165, 1982.055
175.4986, 1985.425
175.9807, 1987.063
176.4628, 1978.643
176.9449, 1951.844
177.4271, 1930.496
177.9092, 1927.175
178.3913, 1933.155
178.8734, 1936.492
179.3555, 1930.463
179.8376, 1918.878
180.3197, 1914.077
180.8019, 1923.060
181.2840, 1926.133
181.7661, 1915.003
182.2482, 1896.105
182.7303, 1876.304
183.2124, 1857.729
183.6946, 1842.239
184.1767, 1836.016
184.6588, 1844.431
185.1409, 1853.273
185.6230, 1857.510
186.1051, 1860.336
186.5873, 1866.229
187.0694, 1877.935
187.5515, 1891.973
188.0336, 1898.947
188.5157, 1895.018
188.9978, 1890.037
189.4800, 1885.255
189.9621, 1881.116
190.4442, 1878.948
190.9263, 1879.706
191.4084, 1880.610
191.8905, 1873.954
192.3727, 1852.540
192.8548, 1836.407
193.3369, 1830.714
193.8190, 1830.063
194.3011, 1828.704
194.7832, 1824.303
195.2654, 1820.016
195.7475, 1823.333
196.2296, 1839.807
196.7117, 1853.726
197.1938, 1868.022
197.6759, 1876.871
198.1581, 1871.752
198.6402, 1850.306
199.1223, 1823.247
199.6044, 1811.435
200.0865, 1824.520
200.5686, 1834.136
201.0508, 1838.978
201.5329, 1839.422
202.0150, 1832.957
202.4971, 1819.705
202.9792, 1806.264
203.4613, 1805.535
203.9435, 1829.831
204.4256, 1838.495
204.9077, 1818.753
205.3898, 1792.970
205.8719, 1774.675
206.3540, 1767.172
206.8362, 1766.860
207.3183, 1770.719
207.8004, 1784.051
208.2825, 1787.391
208.7646, 1773.894
209.2467, 1756.953
209.7289, 1741.886
210.2110, 1730.614
210.6931, 1724.417
211.1752, 1726.579
211.6573, 1741.507
212.1395, 1748.328
212.6216, 1739.738
213.1037, 1729.866
213.5858, 1727.085
214.0679, 1730.367
214.5500, 1731.849
215.0322, 1721.370
215.5143, 1694.797
215.9964, 1684.480
216.4785, 1710.942
216.9606, 1734.372
217.4427, 1736.603
217.9249, 1721.874
218.4070, 1706.160
218.8891, 1703.296
219.3712, 1713.756
219.8533, 1719.800
220.3354, 1716.868
220.8176, 1713.700
221.2997, 1713.786
221.7818, 1715.425
222.2639, 1714.129
222.7460, 1705.661
223.2281, 1691.410
223.7103, 1687.208
224.1924, 1707.333
224.6745, 1722.343
225.1566, 1723.486
225.6387, 1716.241
226.1208, 1708.859
226.6030, 1705.993
227.0851, 1706.790
227.5672, 1708.066
228.0493, 1714.388
228.5314, 1714.455
229.0135, 1701.466
229.4957, 1683.461
229.9778, 1668.835
230.4599, 1661.289
230.9420, 1660.056
231.4241, 1663.894
231.9062, 1676.821
232.3884, 1688.050
232.8705, 1699.076
233.3526, 1706.584
233.8347, 1705.399
234.3168, 1694.223
234.7989, 1680.463
235.2811, 1677.343
235.7632, 1689.303
236.2453, 1701.748
236.7274, 1716.790
237.2095, 1729.666
237.6916, 1735.017
238.1738, 1732.774
238.6559, 1730.057
239.1380, 1737.849
239.6201, 1761.547
240.1022, 1775.562
240.5843, 1770.297
241.0665, 1762.303
241.5486, 1759.205
242.0307, 1761.236
242.5128, 1764.199
242.9949, 1762.965
243.4770, 1756.712
243.9592, 1756.362
244.4413, 1769.775
244.9234, 1781.906
245.4055, 1785.822
245.8876, 1783.654
246.3697, 1781.931
246.8519, 1786.613
247.3340, 1796.391
247.8161, 1798.442
248.2982, 1783.349
248.7803, 1773.214
249.2624, 1779.023
249.7446, 1793.804
250.2267, 1806.578
250.7088, 1812.082
251.1909, 1811.191
251.6730, 1805.306
252.1551, 1790.271
252.6373, 1778.775
253.1194, 1775.569
253.6015, 1777.247
254.0836, 1780.201
254.5657, 1782.965
255.0478, 1787.182
255.5300, 1797.421
256.0121, 1816.750
256.4942, 1830.243
256.9763, 1829.072
257.4584, 1822.909
257.9406, 1818.169
258.4227, 1816.196
258.9048, 1814.897
259.3869, 1811.416
259.8690, 1805.554
260.3511, 1802.333
260.8333, 1806.547
261.3154, 1810.176
261.7975, 1805.508
262.2796, 1793.006
262.7617, 1782.543
263.2438, 1783.124
263.7260, 1792.655
264.2081, 1799.102
264.6902, 1801.442
265.1723, 1799.944
265.6544, 1793.091
266.1365, 1782.524
266.6187, 1773.834
267.1008, 1771.070
267.5829, 1771.705
268.0650, 1770.586
268.5471, 1767.509
269.0292, 1762.967
269.5114, 1755.272
269.9935, 1746.499
270.4756, 1740.492
270.9577, 1740.227
271.4398, 1741.507
271.9219, 1738.383
272.4041, 1730.646
272.8862, 1726.089
273.3683, 1731.228
273.8504, 1740.815
274.3325, 1744.370
274.8146, 1738.573
275.2968, 1731.900
275.7789, 1729.532
276.2610, 1730.929
276.7431, 1734.158
277.2252, 1739.171
277.7073, 1744.911
278.1895, 1750.576
278.6716, 1757.320
279.1537, 1759.531
279.6358, 1750.861
280.1179, 1737.282
280.6000, 1729.785
281.0822, 1731.301
281.5643, 1735.625
282.0464, 1734.646
282.5285, 1727.602
283.0106, 1725.102
283.4927, 1729.679
283.9749, 1738.461
284.4570, 1752.572
284.9391, 1770.893
285.4212, 1782.890
285.9033, 1777.505
286.3854, 1755.239
286.8676, 1745.025
287.3497, 1756.720
287.8318, 1769.700
288.3139, 1773.327
288.7960, 1770.047
289.2781, 1767.893
289.7603, 1771.778
290.2424, 1779.391
290.7245, 1780.786
291.2066, 1765.796
291.6887, 1757.530
292.1708, 1765.634
292.6530, 1780.153
293.1351, 1788.795
293.6172, 1787.249
294.0993, 1779.342
294.5814, 1771.609
295.0635, 1763.248
295.5457, 1756.753
296.0278, 1751.106
296.5099, 1747.904
296.9920, 1751.154
297.4741, 1759.561
297.9562, 1765.329
298.4384, 1759.145
298.9205, 1738.100
299.4026, 1725.394
299.8847, 1728.710
300.3668, 1732.421
300.8489, 1730.272
301.3311, 1724.314
301.8131, 1719.901
302.2953, 1720.769
302.7774, 1725.790
303.2595, 1729.393
303.7416, 1732.476
304.2237, 1732.445
304.7058, 1726.034
305.1880, 1717.795
305.6701, 1712.476
306.1522, 1711.845
306.6343, 1714.419
307.1164, 1718.618
307.5985, 1725.509
308.0807, 1729.966
308.5628, 1728.328
309.0449, 1725.847
309.5270, 1726.035
310.0091, 1729.020
310.4912, 1731.773
310.9734, 1731.272
311.4555, 1727.851
311.9376, 1724.645
312.4197, 1719.410
312.9018, 1718.335
313.3839, 1727.871
313.8661, 1744.307
314.3482, 1757.795
314.8303, 1761.288
315.3124, 1760.283
315.7945, 1765.124
316.2766, 1776.849
316.7588, 1788.479
317.2409, 1798.799
317.7230, 1805.488
318.2051, 1803.838
318.6872, 1788.923
319.1693, 1773.284
319.6515, 1765.121
320.1336, 1763.930
320.6157, 1767.709
321.0978, 1776.629
321.5799, 1788.966
322.0620, 1803.650
322.5442, 1821.840
323.0263, 1835.427
323.5084, 1837.158
323.9905, 1835.158
324.4726, 1842.533
324.9547, 1861.432
325.4369, 1878.433
325.9190, 1879.307
326.4011, 1861.998
326.8832, 1851.771
327.3653, 1851.950
327.8474, 1855.772
328.3296, 1860.632
328.8117, 1866.088
329.2938, 1872.144
329.7759, 1879.155
330.2580, 1886.227
330.7401, 1889.052
331.2223, 1882.653
331.7044, 1878.167
332.1865, 1876.913
332.6686, 1878.039
333.1507, 1880.409
333.6328, 1883.737
334.1150, 1888.948
334.5971, 1898.753
335.0792, 1918.778
335.5613, 1927.514
336.0434, 1912.930
336.5255, 1899.050
337.0077, 1901.649
337.4898, 1916.950
337.9719, 1929.277
338.4540, 1924.772
338.9361, 1905.937
339.4182, 1895.559
339.9004, 1898.522
340.3825, 1903.317
340.8646, 1906.094
341.3467, 1908.640
341.8288, 1913.664
342.3109, 1922.546
342.7931, 1932.553
343.2752, 1941.095
343.7573, 1948.953
344.2394, 1949.043
344.7215, 1927.590
345.2036, 1907.636
345.6858, 1910.560
346.1679, 1936.769
346.6500, 1963.360
347.1321, 1976.090
347.6142, 1978.192
348.0963, 1977.487
348.5785, 1973.446
349.0606, 1970.530
349.5427, 1971.126
350.0248, 1975.543
350.5069, 1985.678
350.9890, 2009.961
351.4712, 2033.736
351.9533, 2042.198
352.4354, 2038.262
352.9175, 2038.157
353.3996, 2051.117
353.8817, 2070.761
354.3639, 2079.087
354.8460, 2069.200
355.3281, 2064.909
355.8102, 2075.243
356.2923, 2092.240
356.7744, 2107.547
357.2566, 2119.179
357.7387, 2127.105
358.2208, 2130.118
358.7029, 2125.696
359.1850, 2131.366
359.6671, 2155.788
360.1493, 2180.084
360.6314, 2193.588
361.1135, 2200.405
361.5956, 2211.525
362.0777, 2234.169
362.5598, 2263.574
363.0420, 2281.525
363.5241, 2275.115
364.0062, 2278.124
364.4883, 2302.085
364.9704, 2331.270
365.4525, 2353.071
365.9347, 2364.588
366.4168, 2370.702
366.8989, 2374.447
367.3810, 2375.328
367.8631, 2383.129
368.3452, 2403.492
368.8274, 2424.816
369.3095, 2438.628
369.7916, 2448.764
370.2737, 2464.580
370.7558, 2492.152
371.2379, 2526.523
371.7201, 2563.003
372.2022, 2603.025
372.6843, 2630.021
373.1664, 2627.349
373.6485, 2613.017
374.1306, 2615.310
374.6128, 2638.985
375.0949, 2665.062
375.5770, 2682.094
376.0591, 2694.738
376.5412, 2714.111
377.0233, 2743.455
377.5055, 2771.441
377.9876, 2783.212
378.4697, 2776.368
378.9518, 2786.496
379.4339, 2827.164
379.9160, 2873.044
380.3982, 2907.230
380.8803, 2933.771
381.3624, 2968.636
381.8445, 3022.388
382.3266, 3083.637
382.8087, 3118.055
383.2909, 3087.380
383.7730, 3079.233
384.2551, 3107.548
384.7372, 3150.846
385.2193, 3194.059
385.7014, 3233.531
386.1836, 3271.939
386.6657, 3312.809
387.1478, 3356.370
387.6299, 3394.566
388.1120, 3419.664
388.5941, 3448.695
389.0763, 3486.804
389.5584, 3532.331
390.0405, 3583.575
390.5226, 3642.277
391.0047, 3700.588
391.4868, 3742.450
391.9690, 3764.800
392.4511, 3798.882
392.9332, 3858.611
393.4153, 3928.482
393.8974, 3994.273
394.3795, 4055.934
394.8617, 4114.749
395.3438, 4175.930
395.8259, 4233.093
396.3080, 4271.873
396.7901, 4289.900
397.2722, 4307.762
397.7544, 4338.530
398.2365, 4381.494
398.7186, 4429.148
399.2007, 4493.944
399.6828, 4549.009
400.1649, 4576.652
400.6471, 4589.311
401.1292, 4610.661
401.6113, 4648.685
402.0934, 4687.575
402.5755, 4704.028
403.0576, 4691.347
403.5398, 4674.569
404.0219, 4651.892
404.5040, 4627.247
404.9861, 4604.294
405.4682, 4581.051
405.9503, 4552.739
406.4325, 4516.240
406.9146, 4472.682
407.3967, 4426.198
407.8788, 4375.439
408.3609, 4324.564
408.8430, 4276.072
409.3252, 4226.424
409.8073, 4171.320
410.2894, 4110.556
410.7715, 4050.148
411.2536, 3996.479
411.7357, 3947.951
412.2179, 3898.688
412.7000, 3849.827
413.1821, 3797.026
413.6642, 3734.735
414.1463, 3666.470
414.6284, 3600.259
415.1106, 3537.834
415.5927, 3477.025
416.0748, 3414.986
416.5569, 3353.021
417.0390, 3295.208
417.5211, 3242.906
418.0033, 3196.243
418.4854, 3157.250
418.9675, 3131.073
419.4496, 3094.448
419.9317, 3041.288
420.4138, 2982.034
420.8960, 2916.461
421.3781, 2849.929
421.8602, 2797.055
422.3423, 2768.642
422.8244, 2757.529
423.3065, 2732.741
423.7887, 2686.072
424.2708, 2637.594
424.7529, 2585.099
425.2350, 2534.631
425.7171, 2491.565
426.1992, 2456.299
426.6814, 2425.513
427.1635, 2400.788
427.6456, 2380.352
428.1277, 2342.952
428.6098, 2278.376
429.0919, 2216.538
429.5741, 2171.826
430.0562, 2139.495
430.5383, 2115.303
431.0204, 2102.435
431.5025, 2088.402
431.9846, 2057.588
432.4668, 2016.108
432.9489, 1987.588
433.4310, 1980.263
433.9131, 1979.940
434.3952, 1970.465
434.8773, 1950.956
435.3595, 1930.682
435.8416, 1909.838
436.3237, 1888.653
436.8058, 1865.441
437.2879, 1841.936
437.7701, 1822.383
438.2522, 1809.153
438.7343, 1800.014
439.2164, 1789.187
439.6985, 1773.350
440.1806, 1761.989
440.6628, 1757.520
441.1449, 1755.040
441.6270, 1752.789
442.1091, 1749.795
442.5912, 1744.272
443.0733, 1733.807
443.5555, 1720.205
444.0376, 1710.385
444.5197, 1704.750
445.0018, 1701.734
445.4839, 1697.844
445.9660, 1698.023
446.4482, 1711.439
446.9303, 1741.670
447.4124, 1765.095
447.8945, 1761.846
448.3766, 1742.578
448.8587, 1727.966
449.3409, 1720.534
449.8230, 1719.888
450.3051, 1727.486
450.7872, 1742.402
451.2693, 1754.005
451.7514, 1758.399
452.2336, 1764.263
452.7157, 1774.290
453.1978, 1787.530
453.6799, 1802.538
454.1620, 1818.900
454.6441, 1837.172
455.1263, 1858.420
455.6084, 1883.310
456.0905, 1907.225
456.5726, 1933.268
457.0547, 1954.718
457.5368, 1964.613
458.0190, 1969.661
458.5011, 1980.413
458.9832, 2001.537
459.4653, 2028.930
459.9474, 2058.908
460.4295, 2091.454
460.9117, 2119.698
461.3938, 2140.054
461.8759, 2158.789
462.3580, 2182.387
462.8401, 2209.761
463.3222, 2235.365
463.8044, 2254.339
464.2865, 2273.686
464.7686, 2304.381
465.2507, 2342.044
465.7328, 2367.896
466.2149, 2372.390
466.6971, 2365.746
467.1792, 2367.694
467.6613, 2383.644
468.1434, 2397.272
468.6255, 2405.480
469.1076, 2414.108
469.5898, 2426.802
470.0719, 2443.107
470.5540, 2461.340
471.0361, 2481.251
471.5182, 2500.436
472.0003, 2509.402
472.4825, 2499.342
472.9646, 2503.029
473.4467, 2539.248
473.9288, 2583.289
474.4109, 2622.633
474.8930, 2655.631
475.3752, 2681.792
475.8573, 2693.988
476.3394, 2701.829
476.8215, 2721.701
477.3036, 2754.011
477.7857, 2794.522
478.2679, 2845.689
478.7500, 2899.925
479.2321, 2937.986
479.7142, 2954.380
480.1963, 2970.845
480.6784, 2990.646
481.1606, 3012.829
481.6427, 3041.229
482.1248, 3072.853
482.6069, 3094.780
483.0890, 3096.542
483.5711, 3081.627
484.0533, 3070.210
484.5354, 3072.610
485.0175, 3060.729
485.4996, 3023.799
485.9817, 2977.767
486.4638, 2935.620
486.9460, 2898.368
487.4281, 2858.657
487.9102, 2807.367
488.3923, 2749.304
488.8744, 2701.961
489.3565, 2668.540
489.8387, 2628.262
490.3208, 2569.095
490.8029, 2496.953
491.2850, 2424.484
491.7671, 2348.889
492.2492, 2280.566
492.7314, 2227.046
493.2135, 2180.994
493.6956, 2135.428
494.1777, 2089.287
494.6598, 2042.119
495.1419, 1992.932
495.6241, 1942.994
496.1062, 1899.422
496.5883, 1869.019
497.0704, 1835.875
497.5525, 1794.914
498.0346, 1752.969
498.5168, 1717.232
498.9989, 1687.561
499.4810, 1656.563
499.9631, 1613.794
500.4452, 1564.914
500.9273, 1533.270
501.4095, 1521.618
501.8916, 1515.901
502.3737, 1513.973
502.8558, 1512.154
503.3379, 1504.881
503.8200, 1491.332
504.3022, 1475.473
504.7843, 1455.964
505.2664, 1436.561
505.7485, 1423.694
506.2306, 1416.601
506.7127, 1406.408
507.1949, 1385.707
507.6770, 1359.121
508.1591, 1347.399
508.6412, 1367.024
509.1233, 1377.574
509.6054, 1372.315
510.0876, 1361.242
510.5697, 1350.397
511.0518, 1340.750
511.5339, 1331.416
512.0161, 1322.211
512.4982, 1312.596
512.9803, 1299.080
513.4624, 1279.992
513.9445, 1267.996
514.4266, 1270.154
514.9088, 1279.554
515.3909, 1289.573
515.8730, 1301.110
516.3551, 1302.851
516.8372, 1280.331
517.3193, 1254.699
517.8015, 1248.170
518.2836, 1257.453
518.7657, 1265.063
519.2478, 1261.988
519.7299, 1250.495
520.2120, 1234.620
520.6942, 1202.765
521.1763, 1189.291
521.6584, 1209.884
522.1405, 1231.912
522.6226, 1237.909
523.1047, 1230.757
523.5869, 1220.837
524.0690, 1212.439
524.5511, 1206.549
525.0332, 1207.175
525.5153, 1214.241
525.9974, 1214.271
526.4796, 1200.041
526.9617, 1184.371
527.4438, 1182.068
527.9259, 1191.519
528.4080, 1201.038
528.8901, 1213.044
529.3723, 1220.714
529.8544, 1217.324
530.3365, 1207.208
530.8186, 1199.040
531.3007, 1195.709
531.7828, 1193.242
532.2650, 1184.828
532.7471, 1167.720
533.2292, 1161.841
533.7113, 1179.575
534.1934, 1194.581
534.6755, 1197.701
535.1577, 1193.851
535.6398, 1190.632
536.1219, 1190.571
536.6040, 1187.730
537.0861, 1171.917
537.5682, 1148.725
538.0504, 1137.887
538.5325, 1142.932
539.0146, 1151.404
539.4967, 1156.007
539.9788, 1156.688
540.4609, 1153.373
540.9431, 1136.892
541.4252, 1129.292
541.9073, 1144.063
542.3894, 1163.841
542.8715, 1171.203
543.3536, 1165.453
543.8358, 1157.696
544.3179, 1157.221
544.8000, 1161.454
545.2821, 1157.891
545.7642, 1142.064
546.2463, 1130.711
546.7285, 1130.821
547.2106, 1135.109
547.6927, 1139.605
548.1748, 1143.740
548.6569, 1144.983
549.1390, 1141.291
549.6211, 1134.789
550.1032, 1124.517
550.5853, 1112.656
551.0674, 1110.271
551.5496, 1123.180
552.0317, 1139.966
552.5138, 1140.875
552.9959, 1117.116
553.4780, 1107.462
553.9601, 1124.214
554.4423, 1139.756
554.9244, 1140.466
555.4065, 1133.440
555.8886, 1131.868
556.3707, 1140.788
556.8528, 1150.225
557.3350, 1145.425
557.8171, 1128.736
558.2992, 1120.001
558.7813, 1122.632
559.2634, 1128.316
559.7455, 1133.717
560.2277, 1137.665
560.7098, 1136.534
561.1919, 1123.928
561.6740, 1117.399
562.1561, 1131.026
562.6382, 1148.205
563.1204, 1148.214
563.6025, 1131.857
564.0846, 1117.111
564.5667, 1117.663
565.0488, 1128.838
565.5309, 1131.534
566.0131, 1121.410
566.4952, 1113.788
566.9773, 1113.121
567.4594, 1114.317
567.9415, 1114.409
568.4236, 1113.546
568.9058, 1113.186
569.3879, 1112.763
569.8700, 1114.171
570.3521, 1121.550
570.8342, 1132.650
571.3163, 1139.808
571.7985, 1140.615
572.2806, 1137.470
572.7627, 1132.854
573.2448, 1126.504
573.7269, 1121.023
574.2090, 1115.639
574.6912, 1111.925
575.1733, 1112.697
575.6554, 1114.083
576.1375, 1109.680
576.6196, 1098.946
577.1017, 1091.315
577.5839, 1098.098
578.0660, 1114.789
578.5481, 1126.018
579.0302, 1131.065
579.5123, 1134.949
579.9944, 1139.710
580.4766, 1144.807
580.9587, 1149.948
581.4408, 1156.652
581.9229, 1157.783
582.4050, 1143.789
582.8871, 1131.661
583.3693, 1137.260
583.8514, 1153.176
584.3335, 1161.002
584.8156, 1152.200
585.2977, 1137.339
585.7798, 1134.189
586.2620, 1144.111
586.7441, 1149.139
587.2262, 1143.641
587.7083, 1141.176
588.1904, 1155.115
588.6725, 1175.668
589.1547, 1185.775
589.6368, 1179.016
590.1189, 1172.942
590.6010, 1175.988
591.0831, 1184.480
591.5652, 1195.679
592.0474, 1208.196
592.5295, 1218.507
593.0116, 1224.341
593.4937, 1225.979
593.9758, 1223.279
594.4579, 1211.349
594.9401, 1206.758
595.4222, 1219.323
595.9043, 1231.903
596.3864, 1232.208
596.8685, 1225.788
597.3506, 1227.867
597.8328, 1247.037
598.3149, 1270.556
598.7970, 1289.240
599.2791, 1303.152
599.7612, 1312.491
600.2433, 1317.326
600.7255, 1317.091
601.2076, 1309.573
601.6897, 1296.669
602.1718, 1293.982
602.6539, 1311.439
603.1360, 1325.865
603.6182, 1333.668
604.1003, 1339.343
604.5824, 1345.152
605.0645, 1351.897
605.5466, 1361.075
606.0287, 1376.095
606.5109, 1390.615
606.9930, 1390.367
607.4751, 1378.309
607.9572, 1380.771
608.4393, 1407.816
608.9214, 1437.056
609.4036, 1445.424
609.8857, 1432.781
610.3678, 1423.268
610.8499, 1418.803
611.3320, 1414.749
611.8141, 1407.997
612.2963, 1402.415
612.7784, 1405.105
613.2605, 1414.541
613.7426, 1418.662
614.2247, 1404.502
614.7068, 1381.772
615.1890, 1378.581
615.6711, 1396.260
616.1532, 1402.131
616.6353, 1382.779
617.1174, 1355.549
617.5995, 1339.822
618.0817, 1335.851
618.5638, 1329.854
619.0459, 1320.194
619.5280, 1309.737
620.0101, 1298.813
620.4922, 1288.089
620.9744, 1278.717
621.4565, 1270.653
621.9386, 1262.061
622.4207, 1250.273
622.9028, 1237.056
623.3849, 1230.338
623.8671, 1231.283
624.3492, 1231.923
624.8313, 1229.595
625.3134, 1226.260
625.7955, 1225.515
626.2776, 1227.156
626.7598, 1223.877
627.2419, 1209.334
627.7240, 1195.432
628.2061, 1190.152
628.6882, 1188.577
629.1703, 1184.344
629.6525, 1175.541
630.1346, 1161.899
630.6167, 1140.951
631.0988, 1115.285
631.5809, 1100.427
632.0630, 1099.247
632.5452, 1097.078
633.0273, 1085.630
633.5094, 1075.154
633.9915, 1080.542
634.4736, 1100.658
634.9557, 1112.084
635.4379, 1104.405
635.9200, 1092.917
636.4021, 1085.151
636.8842, 1079.580
637.3663, 1072.733
637.8484, 1064.127
638.3306, 1057.202
638.8127, 1056.090
639.2948, 1059.533
639.7769, 1059.138
640.2590, 1052.978
640.7411, 1049.934
641.2233, 1054.149
641.7054, 1061.016
642.1875, 1067.203
642.6696, 1072.485
643.1517, 1073.167
643.6339, 1064.283
644.1160, 1055.106
644.5981, 1052.283
645.0802, 1051.840
645.5623, 1046.539
646.0444, 1035.515
646.5266, 1025.378
647.0087, 1023.215
647.4908, 1026.564
647.9729, 1021.597
648.4550, 1003.955
648.9371, 996.2881
649.4193, 1010.655
649.9014, 1030.199
650.3835, 1039.639
650.8656, 1039.927
651.3477, 1037.189
651.8298, 1029.605
652.3120, 1022.436
652.7941, 1019.018
653.2762, 1017.030
653.7583, 1013.255
654.2404, 1007.308
654.7225, 1000.571
655.2047, 993.2773
655.6868, 987.2324
656.1689, 990.3892
656.6510, 1005.020
657.1331, 1015.243
657.6152, 1019.263
658.0974, 1015.772
658.5795, 996.0666
659.0616, 965.6888
659.5437, 950.8264
660.0258, 965.4377
660.5079, 981.3497
660.9901, 991.5015
661.4722, 996.6550
661.9543, 997.2002
662.4364, 993.5541
662.9185, 985.5957
663.4006, 971.8845
663.8828, 957.7335
664.3649, 956.6722
664.8470, 969.2286
665.3291, 977.1967
665.8112, 976.6307
666.2933, 973.7775
666.7755, 971.7514
667.2576, 971.2590
667.7397, 975.3079
668.2218, 993.9047
668.7039, 1000.825
669.1860, 978.7997
669.6682, 953.2974
670.1503, 944.5066
670.6324, 950.0230
671.1145, 957.6320
671.5966, 961.4216
672.0787, 963.9611
672.5609, 971.0385
673.0430, 981.0989
673.5251, 981.2316
674.0072, 968.4684
674.4893, 955.8457
674.9714, 950.2448
675.4536, 950.6622
675.9357, 955.0716
676.4178, 966.9630
676.8999, 975.2225
677.3820, 977.6212
677.8641, 978.3201
678.3463, 979.4389
678.8284, 980.3541
679.3105, 980.7242
679.7926, 980.4306
680.2747, 975.8643
680.7568, 957.2839
681.2390, 933.4981
681.7211, 928.5107
682.2032, 942.2692
682.6853, 954.9969
683.1674, 957.8842
683.6495, 956.9282
684.1317, 962.6161
684.6138, 978.3890
685.0959, 982.3940
685.5780, 958.1681
686.0601, 941.9427
686.5422, 951.3032
687.0244, 967.4893
687.5065, 969.3749
687.9886, 955.2704
688.4707, 941.5873
688.9528, 938.3169
689.4349, 939.6758
689.9171, 939.4622
690.3992, 938.3811
690.8813, 939.3497
691.3634, 943.0734
691.8455, 945.9286
692.3276, 943.8909
692.8098, 937.7144
693.2919, 933.9880
693.7740, 932.7865
694.2561, 933.9371
694.7382, 940.2319
695.2203, 946.3506
695.7025, 947.3090
696.1846, 944.8010
696.6667, 945.7047
697.1488, 957.2102
697.6309, 964.2175
698.1130, 952.4611
698.5952, 935.1855
699.0773, 929.6688
699.5594, 936.1089
700.0415, 945.2386
700.5236, 951.9576
701.0057, 954.8333
701.4879, 948.6622
701.9700, 932.7017
702.4521, 923.4464
702.9342, 923.7992
703.4163, 927.2375
703.8984, 930.6186
704.3806, 934.2277
704.8627, 939.1086
705.3448, 946.5241
705.8269, 951.5397
706.3090, 952.7544
706.7911, 952.1447
707.2733, 948.4941
707.7554, 944.6511
708.2375, 946.5984
708.7196, 955.7176
709.2017, 963.5416
709.6838, 959.8010
710.1660, 949.2226
710.6481, 944.4257
711.1302, 945.1945
711.6123, 944.1873
712.0944, 938.1453
712.5765, 932.2632
713.0587, 933.4856
713.5408, 942.2627
714.0229, 948.5749
714.5050, 952.1067
714.9871, 953.4241
715.4692, 950.0551
715.9514, 946.5567
716.4335, 948.4741
716.9156, 954.2025
717.3977, 955.3592
717.8798, 945.7663
718.3619, 934.5152
718.8441, 926.4793
719.3262, 922.6078
719.8083, 926.5745
720.2904, 937.4764
720.7725, 947.9788
721.2546, 953.1713
721.7368, 954.5722
722.2189, 956.9257
722.7010, 961.5748
723.1831, 956.5920
723.6652, 935.0992
724.1473, 915.7474
724.6295, 911.4831
725.1116, 915.4889
725.5937, 912.5510
726.0758, 898.8174
726.5579, 891.6379
727.0400, 900.0709
727.5222, 909.8704
728.0043, 913.3846
728.4864, 912.1896
728.9685, 908.9777
729.4506, 904.7803
729.9327, 900.7716
730.4149, 897.1036
730.8970, 894.7726
731.3791, 897.2205
731.8612, 903.8458
732.3433, 909.1422
732.8254, 911.6371
733.3076, 911.5367
733.7897, 908.6287
734.2718, 903.1976
734.7539, 898.9412
735.2360, 897.2488
735.7181, 894.3574
736.2003, 883.4800
736.6824, 877.1516
737.1645, 889.3017
737.6466, 912.0331
738.1287, 922.8331
738.6108, 911.4636
739.0930, 897.9110
739.5751, 893.8312
740.0572, 893.2932
740.5393, 886.8975
741.0214, 877.4065
741.5035, 877.4956
741.9857, 893.1964
742.4678, 912.3881
742.9499, 916.8084
743.4320, 907.5934
743.9141, 899.8755
744.3962, 893.0125
744.8784, 893.1390
745.3605, 906.7009
745.8426, 922.1892
746.3247, 922.3852
746.8068, 904.7720
747.2889, 895.5303
747.7711, 901.2200
748.2532, 906.1838
748.7353, 906.0123
749.2174, 904.1212
749.6995, 903.4730
750.1816, 904.1642
750.6638, 904.9494
751.1459, 905.3730
751.6280, 905.4350
752.1101, 902.2770
752.5922, 899.7615
753.0743, 910.3238
753.5565, 931.8670
754.0386, 941.7749
754.5207, 925.7628
755.0028, 897.9555
755.4849, 885.9014
755.9670, 891.1874
756.4492, 898.5584
756.9313, 909.7648
757.4134, 917.8767
757.8955, 919.1526
758.3776, 916.2938
758.8597, 911.9371
759.3419, 905.3890
759.8240, 904.2627
760.3061, 914.1171
760.7882, 923.5801
761.2703, 931.1027
761.7524, 934.3212
762.2346, 927.2913
762.7167, 912.5319
763.1988, 903.4202
763.6809, 910.6629
764.1630, 921.2331
764.6451, 918.8846
765.1273, 908.3439
765.6094, 900.0380
766.0915, 895.8336
766.5736, 896.6301
767.0557, 903.2514
767.5378, 914.0240
768.0200, 927.9134
768.5021, 947.9916
768.9842, 949.8977
769.4663, 921.6926
769.9484, 900.2673
770.4305, 906.0552
770.9127, 924.3566
771.3948, 933.9623
771.8769, 934.1816
772.3590, 935.5189
772.8411, 942.9308
773.3232, 947.0709
773.8054, 942.3655
774.2875, 933.8845
774.7696, 924.7766
775.2517, 917.0153
775.7338, 915.7502
776.2159, 928.0521
776.6981, 938.9279
777.1802, 924.0000
777.6623, 896.6376
778.1444, 890.7100
778.6265, 907.7173
779.1086, 924.0266
779.5908, 926.2527
780.0729, 921.2242
780.5550, 922.1443
781.0371, 930.1321
781.5192, 932.3641
782.0013, 926.9423
782.4835, 920.6085
782.9656, 914.2448
783.4477, 909.7850
783.9298, 911.0441
784.4119, 918.2092
784.8940, 922.1147
785.3762, 919.9441
785.8583, 917.6129
786.3404, 917.4092
786.8225, 917.1388
787.3046, 913.9830
787.7867, 908.9376
788.2689, 905.7330
788.7510, 906.1941
789.2331, 907.9857
789.7152, 909.5341
790.1973, 910.9293
790.6794, 914.6013
791.1616, 918.7059
791.6437, 913.5352
792.1258, 894.8446
792.6079, 875.6409
793.0900, 875.8751
793.5721, 892.7725
794.0543, 898.0859
794.5364, 890.4148
795.0185, 878.7499
795.5006, 862.0648
795.9827, 850.0862
796.4648, 854.8618
796.9470, 874.2739
797.4291, 885.3268
797.9112, 881.0828
798.3933, 878.2413
798.8754, 880.7543
799.3575, 881.6397
799.8397, 873.6322
800.3218, 862.0456
800.8039, 858.1855
801.2860, 866.0004
801.7681, 871.7618
802.2502, 865.2156
802.7324, 856.5842
803.2145, 855.2150
803.6966, 858.7461
804.1787, 862.3594
804.6608, 864.5968
805.1429, 865.9617
805.6251, 867.3613
806.1072, 867.5081
806.5893, 861.0567
807.0714, 849.6185
807.5535, 847.4187
808.0356, 857.4888
808.5178, 866.1663
808.9999, 863.6981
809.4820, 855.2266
809.9641, 854.7319
810.4462, 866.8437
810.9283, 869.3696
811.4105, 855.0254
811.8926, 842.9407
812.3747, 840.5638
812.8568, 844.1606
813.3389, 851.7338
813.8210, 863.1207
814.3032, 868.8195
814.7853, 861.4173
815.2674, 855.7671
815.7495, 859.2930
816.2316, 864.9139
816.7137, 866.2105
817.1959, 863.5943
817.6780, 860.6854
818.1601, 859.0389
818.6422, 857.2214
819.1243, 851.3105
819.6064, 845.9436
820.0886, 852.1870
820.5707, 865.9706
821.0528, 870.2540
821.5349, 859.3444
822.0170, 845.0976
822.4991, 840.8842
822.9813, 844.0190
823.4634, 843.0104
823.9455, 837.6883
824.4276, 830.7885
824.9097, 821.8479
825.3918, 815.8453
825.8740, 817.8782
826.3561, 824.7069
826.8382, 825.0031
827.3203, 813.7937
827.8024, 807.5172
828.2845, 807.2849
828.7667, 810.7557
829.2488, 825.6860
829.7309, 838.7550
830.2130, 829.1429
830.6951, 796.0529
831.1772, 774.1620
831.6594, 781.6284
832.1415, 789.8030
832.6236, 783.4468
833.1057, 773.8380
833.5878, 773.6382
834.0699, 781.2375
834.5521, 787.3482
835.0342, 788.0193
835.5163, 785.2065
835.9984, 777.0543
836.4805, 768.5643
836.9626, 769.8850
837.4448, 778.6948
837.9269, 785.1858
838.4090, 786.0042
838.8911, 783.6811
839.3732, 780.1797
839.8553, 776.2430
840.3375, 774.9275
840.8196, 776.2921
841.3017, 777.4307
841.7838, 778.0207
842.2659, 777.2582
842.7480, 774.1495
843.2302, 769.8586
843.7123, 766.9652
844.1944, 764.4055
844.6765, 767.3430
845.1586, 783.7636
845.6407, 793.7707
846.1229, 785.9988
846.6050, 771.9597
847.0871, 760.3905
847.5692, 751.8881
848.0513, 750.5065
848.5334, 765.9249
849.0156, 776.1437
849.4977, 770.4603
849.9798, 761.6175
850.4619, 760.7125
850.9440, 764.2990
851.4261, 761.9088
851.9083, 749.7364
852.3904, 740.7781
852.8725, 749.1844
853.3546, 760.2670
853.8367, 753.8038
854.3188, 739.3394
854.8010, 739.9342
855.2831, 757.7684
855.7652, 773.8181
856.2473, 774.2762
856.7294, 764.6279
857.2115, 749.5105
857.6937, 732.2122
858.1758, 730.3288
858.6579, 744.9106
859.1400, 757.3010
859.6221, 758.6794
860.1042, 755.3138
860.5864, 756.6272
861.0685, 762.2418
861.5506, 760.9180
862.0327, 750.2074
862.5148, 742.1011
862.9969, 739.3560
863.4791, 739.5146
863.9612, 741.5139
864.4433, 744.6612
864.9254, 746.4720
865.4075, 747.1448
865.8896, 746.0423
866.3718, 741.1912
866.8539, 736.9861
867.3360, 733.4109
867.8181, 732.2456
868.3002, 737.4914
868.7823, 748.5359
869.2645, 755.2267
869.7466, 753.2408
870.2287, 748.6875
870.7108, 740.7613
871.1929, 733.8459
871.6750, 733.1976
872.1572, 736.5544
872.6393, 737.4787
873.1214, 733.6553
873.6035, 731.7311
874.0856, 740.3610
874.5677, 750.2101
875.0499, 749.2700
875.5320, 741.8292
876.0141, 735.7255
876.4962, 733.3494
876.9783, 737.2008
877.4604, 750.4161
877.9426, 764.7411
878.4247, 765.1746
878.9068, 755.2979
879.3889, 748.1810
879.8710, 744.6325
880.3531, 741.6561
880.8353, 738.0460
881.3174, 735.0558
881.7995, 734.1329
882.2816, 735.1787
882.7637, 738.8518
883.2458, 746.3277
883.7280, 746.4457
884.2101, 734.9642
884.6922, 724.2573
885.1743, 723.5268
885.6564, 727.3466
886.1385, 722.7770
886.6207, 705.7427
887.1028, 699.3042
887.5849, 712.6052
888.0670, 721.7039
888.5491, 716.0259
889.0313, 707.4996
889.5134, 706.3691
889.9955, 711.2898
890.4776, 716.0316
890.9597, 719.4249
891.4418, 723.9716
891.9240, 734.4833
892.4061, 741.3855
892.8882, 735.9368
893.3703, 725.8204
893.8524, 722.3964
894.3345, 726.6240
894.8167, 729.0201
895.2988, 721.5538
895.7809, 716.4783
896.2630, 725.4607
896.7451, 736.1940
897.2272, 733.5381
897.7094, 721.5847
898.1915, 714.1104
898.6736, 716.0639
899.1557, 719.5718
899.6378, 717.1723
900.1199, 713.8071
900.6021, 718.4659
901.0842, 726.0496
901.5663, 723.3985
902.0484, 710.3734
902.5305, 699.5433
903.0126, 698.6940
903.4948, 704.2293
903.9769, 713.8987
904.4590, 725.2530
904.9411, 730.3039
905.4232, 729.0811
905.9053, 724.0250
906.3875, 715.9869
906.8696, 706.9788
907.3517, 698.5668
907.8338, 691.3071
908.3159, 686.3555
908.7980, 683.6891
909.2802, 687.5580
909.7623, 699.4860
910.2444, 709.5770
910.7265, 712.6268
911.2086, 712.8010
911.6907, 716.8728
912.1729, 724.6794
912.6550, 723.0930
913.1371, 706.8519
913.6192, 698.5862
914.1013, 706.4091
914.5834, 714.6716
915.0656, 711.4271
915.5477, 702.6220
916.0298, 702.9518
916.5119, 717.2549
916.9940, 722.4210
917.4761, 711.7475
917.9583, 701.4180
918.4404, 692.6226
918.9225, 687.7007
919.4046, 691.1002
919.8867, 700.1250
920.3688, 704.5716
920.8510, 700.3950
921.3331, 698.9945
921.8152, 705.6232
922.2973, 711.1702
922.7794, 709.8994
923.2615, 706.2789
923.7437, 707.4543
924.2258, 712.5015
924.7079, 710.8773
925.1900, 692.3018
925.6721, 678.3265
926.1542, 679.5827
926.6364, 687.1555
927.1185, 697.4761
927.6006, 707.5231
928.0827, 713.7949
928.5648, 715.4628
929.0469, 713.4973
929.5291, 705.3732
930.0112, 697.3683
930.4933, 696.6746
930.9754, 697.0807
931.4575, 686.7229
931.9396, 670.6997
932.4218, 667.2248
932.9039, 682.5732
933.3860, 697.5313
933.8681, 689.9993
934.3502, 677.2540
934.8323, 684.2175
935.3145, 702.1942
935.7966, 715.5238
936.2787, 720.7669
936.7608, 715.6710
937.2429, 698.3740
937.7250, 680.9584
938.2072, 680.5770
938.6893, 690.0324
939.1714, 692.1529
939.6535, 688.8306
940.1356, 690.3019
940.6177, 698.1074
941.0999, 702.5224
941.5820, 696.1542
942.0641, 685.3801
942.5462, 681.1910
943.0283, 682.8069
943.5104, 687.6626
943.9926, 695.1700
944.4747, 699.2925
944.9568, 698.1332
945.4389, 694.5530
945.9210, 691.0686
946.4031, 687.2105
946.8853, 680.2098
947.3674, 670.1103
947.8495, 666.8136
948.3316, 671.2201
948.8137, 680.4950
949.2958, 694.7992
949.7780, 707.2590
950.2601, 709.8777
950.7422, 704.1224
951.2243, 696.3636
951.7064, 685.1291
952.1885, 682.6369
952.6707, 692.5751
953.1528, 701.6733
953.6349, 703.4180
954.1170, 702.2321
954.5991, 705.0473
955.0812, 711.2861
955.5634, 706.6631
956.0455, 683.4118
956.5276, 674.6088
957.0097, 691.9607
957.4918, 707.7350
957.9739, 704.5557
958.4561, 693.7880
958.9382, 695.1596
959.4203, 710.1802
959.9024, 715.4568
960.3845, 705.5224
960.8666, 696.6757
961.3488, 690.5889
961.8309, 687.1604
962.3130, 688.6617
962.7951, 691.5826
963.2772, 687.0782
963.7593, 671.2279
964.2415, 669.1088
964.7236, 696.8520
965.2057, 714.8660
965.6878, 709.7906
966.1699, 699.6108
966.6520, 694.6782
967.1342, 693.3232
967.6163, 691.9319
968.0984, 690.6539
968.5805, 688.3831
969.0626, 679.7332
969.5447, 677.2198
970.0269, 690.7305
970.5090, 705.3720
970.9911, 707.3271
971.4732, 701.7305
971.9553, 703.5308
972.4374, 716.9666
972.9196, 727.4971
973.4017, 732.4662
973.8838, 735.1826
974.3659, 735.0122
974.8480, 734.5629
975.3301, 738.6732
975.8123, 744.2916
976.2944, 740.7432
976.7765, 722.0911
977.2586, 708.6017
977.7407, 705.8810
978.2228, 707.9399
978.7050, 715.9464
979.1871, 724.5820
979.6692, 729.0960
980.1513, 729.6583
980.6334, 728.1705
981.1155, 724.1341
981.5977, 720.9008
982.0798, 720.6703
982.5619, 720.0764
983.0440, 715.2889
983.5261, 710.7449
984.0082, 711.3945
984.4904, 716.8923
984.9725, 724.6060
985.4546, 735.8629
985.9367, 743.2529
986.4188, 744.2396
986.9009, 740.5072
987.3831, 726.6987
987.8652, 713.0748
988.3473, 713.6550
988.8294, 726.2382
989.3115, 736.1908
989.7936, 738.5055
990.2758, 739.6667
990.7579, 743.0176
991.2400, 745.2820
991.7221, 744.8085
992.2042, 741.7328
992.6863, 732.7423
993.1685, 720.9225
993.6506, 719.4642
994.1327, 737.2516
994.6148, 752.4603
995.0969, 755.4101
995.5790, 752.4808
996.0612, 741.2484
996.5433, 731.0577
997.0254, 738.2497
997.5075, 758.5199
997.9896, 765.9832
998.4717, 746.3691
998.9539, 729.6442
999.4360, 731.6423
999.9181, 739.1444
1000.400, 746.8334
1000.882, 752.0280
1001.364, 749.4052
1001.847, 741.3090
1002.329, 739.4531
1002.811, 751.3741
1003.293, 758.8375
1003.775, 743.9370
1004.257, 731.7725
1004.739, 745.9981
1005.221, 769.0465
1005.703, 779.3766
1006.186, 775.9386
1006.668, 766.9247
1007.150, 752.5873
1007.632, 741.3298
1008.114, 736.5497
1008.596, 736.5838
1009.078, 743.2931
1009.560, 752.2278
1010.043, 757.9636
1010.525, 760.8860
1011.007, 765.6754
1011.489, 775.6216
1011.971, 780.6415
1012.453, 771.6865
1012.935, 761.9194
1013.417, 758.3630
1013.899, 759.0945
1014.382, 763.7777
1014.864, 770.3309
1015.346, 773.1830
1015.828, 769.9527
1016.310, 766.6738
1016.792, 765.1776
1017.274, 764.8006
1017.756, 766.5106
1018.239, 768.1117
1018.721, 766.5715
1019.203, 763.0316
1019.685, 761.4410
1020.167, 763.0494
1020.649, 764.8666
1021.131, 765.5177
1021.613, 766.6706
1022.095, 770.8682
1022.578, 774.4216
1023.060, 772.7386
1023.542, 767.8169
1024.024, 764.9525
1024.506, 765.1144
1024.988, 767.3477
1025.470, 775.7177
1025.952, 780.4673
1026.435, 774.0446
1026.917, 766.1499
1027.399, 763.7495
1027.881, 766.1767
1028.363, 771.9048
1028.845, 781.4507
1029.327, 787.9388
1029.809, 788.9413
1030.292, 788.3817
1030.774, 786.2220
1031.256, 783.9283
1031.738, 784.2052
1032.220, 784.3150
1032.702, 778.1310
1033.184, 764.5145
1033.666, 755.0832
1034.148, 750.7089
1034.630, 751.0704
1035.113, 759.4299
1035.595, 768.9319
1036.077, 778.8490
1036.559, 785.9856
1037.041, 782.5834
1037.523, 768.0253
1038.005, 764.4259
1038.487, 783.6393
1038.970, 794.8494
1039.452, 792.6713
1039.934, 786.9005
1040.416, 779.8810
1040.898, 773.0548
1041.380, 768.2752
1041.862, 765.3962
1042.344, 762.6339
1042.826, 759.0074
1043.309, 757.8942
1043.791, 761.3632
1044.273, 763.4294
1044.755, 759.6401
1045.237, 756.9820
1045.719, 764.2960
1046.201, 778.3714
1046.683, 784.1070
1047.166, 779.2521
1047.648, 773.4334
1048.130, 765.7757
1048.612, 759.7026
1049.094, 755.5571
1049.576, 755.5169
1050.058, 763.0607
1050.540, 773.9178
1051.022, 775.2164
1051.505, 765.2169
1051.987, 764.8737
1052.469, 776.9920
1052.951, 779.6015
1053.433, 765.6005
1053.915, 752.2655
1054.397, 751.3700
1054.879, 757.3519
1055.361, 760.5012
1055.844, 760.9323
1056.326, 759.5446
1056.808, 756.3419
1057.290, 754.3348
1057.772, 754.0267
1058.254, 756.4746
1058.736, 762.5983
1059.218, 767.3024
1059.701, 762.5680
1060.183, 752.0481
1060.665, 748.8238
1061.147, 751.3779
1061.629, 750.8596
1062.111, 746.8640
1062.593, 744.8010
1063.075, 746.7853
1063.557, 751.9713
1064.040, 761.3679
1064.522, 769.6464
1065.004, 762.9954
1065.486, 748.9418
1065.968, 747.6628
1066.450, 756.5566
1066.932, 761.2830
1067.414, 758.3141
1067.896, 753.6268
1068.379, 750.9142
1068.861, 749.5923
1069.343, 749.6740
1069.825, 750.2288
1070.307, 750.1431
1070.789, 749.4290
1071.271, 747.7822
1071.753, 745.6245
1072.236, 744.2196
1072.718, 743.9062
1073.200, 746.1298
1073.682, 758.2741
1074.164, 766.6066
1074.646, 752.9221
1075.128, 733.6418
1075.610, 729.2149
1076.093, 737.3488
1076.575, 746.6010
1077.057, 754.0740
1077.539, 758.9437
1078.021, 756.8962
1078.503, 757.3646
1078.985, 771.6863
1079.467, 783.1875
1079.949, 772.1380
1080.432, 752.6655
1080.914, 750.7323
1081.396, 768.2260
1081.878, 780.9614
1082.360, 782.6569
1082.842, 782.3926
1083.324, 781.2535
1083.806, 778.7330
1084.288, 770.0929
1084.771, 763.3446
1085.253, 769.8958
1085.735, 786.4335
1086.217, 796.9644
1086.699, 801.0170
1087.181, 799.4862
1087.663, 785.5858
1088.145, 780.7014
1088.628, 795.7639
1089.110, 810.9641
1089.592, 810.6098
1090.074, 802.1039
1090.556, 802.3868
1091.038, 812.0569
1091.520, 812.3687
1092.002, 801.5229
1092.484, 792.5706
1092.967, 787.4855
1093.449, 785.3305
1093.931, 785.8278
1094.413, 787.8115
1094.895, 789.7408
1095.377, 791.9902
1095.859, 796.4312
1096.341, 802.6516
1096.823, 806.2997
1097.306, 807.6818
1097.788, 815.1069
1098.270, 830.5121
1098.752, 840.1989
1099.234, 831.5266
1099.716, 818.6118
1100.198, 825.4308
1100.680, 842.5177
1101.163, 852.5159
1101.645, 855.6400
1102.127, 851.8598
1102.609, 843.7955
1103.091, 841.1508
1103.573, 848.7818
1104.055, 857.1023
1104.537, 861.4220
1105.020, 859.3936
1105.502, 840.6790
1105.984, 820.5599
1106.466, 818.5737
1106.948, 830.3862
1107.430, 845.4591
1107.912, 860.5801
1108.394, 867.6467
1108.876, 855.2661
1109.359, 846.5408
1109.841, 853.5797
1110.323, 862.9167
1110.805, 865.5361
1111.287, 866.3508
1111.769, 873.5239
1112.251, 885.3130
1112.733, 890.4079
1113.215, 883.5724
1113.698, 880.5974
1114.180, 885.4877
1114.662, 888.6922
1115.144, 888.5734
1115.626, 885.2333
1116.108, 876.4490
1116.590, 866.7906
1117.072, 864.9980
1117.555, 871.1120
1118.037, 878.9365
1118.519, 889.4167
1119.001, 897.4199
1119.483, 903.4736
1119.965, 896.8556
1120.447, 870.6871
1120.929, 846.9145
1121.411, 849.5996
1121.894, 867.9481
1122.376, 874.5272
1122.858, 871.4139
1123.340, 868.3663
1123.822, 866.1620
1124.304, 866.7624
1124.786, 870.1226
1125.268, 872.2317
1125.750, 870.6772
1126.233, 869.2158
1126.715, 873.5189
1127.197, 879.1775
1127.679, 879.2051
1128.161, 876.8843
1128.643, 878.4094
1129.125, 882.2408
1129.607, 881.4703
1130.090, 875.1082
1130.572, 872.6349
1131.054, 880.7255
1131.536, 890.4157
1132.018, 899.3494
1132.500, 905.7818
1132.982, 911.0992
1133.464, 911.4162
1133.947, 895.8445
1134.429, 870.8400
1134.911, 863.8593
1135.393, 886.6100
1135.875, 898.3506
1136.357, 888.0497
1136.839, 877.9072
1137.321, 869.7049
1137.803, 865.5411
1138.286, 868.7635
1138.768, 873.9910
1139.250, 872.3455
1139.732, 865.1483
1140.214, 866.0669
1140.696, 876.8417
1141.178, 881.4962
1141.660, 878.3274
1142.142, 877.0773
1142.625, 880.9742
1143.107, 885.6472
1143.589, 888.0007
1144.071, 887.5820
1144.553, 882.5173
1145.035, 874.4222
1145.517, 867.5095
1145.999, 861.9910
1146.482, 858.3359
1146.964, 856.5272
1147.446, 855.9808
1147.928, 856.5639
1148.410, 859.5640
1148.892, 866.8836
1149.374, 875.3768
1149.856, 888.4042
1150.339, 895.3615
1150.821, 877.5949
1151.303, 851.4283
1151.785, 843.0723
1152.267, 851.1655
1152.749, 853.7216
1153.231, 842.4346
1153.713, 837.6111
1154.195, 854.2366
1154.677, 863.5005
1155.160, 846.7186
1155.642, 831.1840
1156.124, 835.9678
1156.606, 850.1308
1157.088, 858.4443
1157.570, 861.2986
1158.052, 863.6017
1158.534, 866.2735
1159.017, 863.7036
1159.499, 854.8770
1159.981, 844.0750
1160.463, 831.6875
1160.945, 825.7111
1161.427, 832.8256
1161.909, 844.8795
1162.391, 848.4755
1162.874, 845.6081
1163.356, 842.5206
1163.838, 838.9203
1164.320, 833.3126
1164.802, 826.2690
1165.284, 820.1649
1165.766, 815.8721
1166.248, 813.9260
1166.730, 816.0933
1167.213, 817.0488
1167.695, 809.0353
1168.177, 801.3535
1168.659, 801.6574
1169.141, 807.7941
1169.623, 822.2965
1170.105, 838.7713
1170.587, 838.0518
1171.069, 813.4131
1171.552, 800.3883
1172.034, 816.9780
1172.516, 826.9079
1172.998, 820.0634
1173.480, 812.3331
1173.962, 810.6213
1174.444, 810.5952
1174.926, 807.5607
1175.409, 802.6959
1175.891, 799.9598
1176.373, 799.3720
1176.855, 802.6147
1177.337, 809.9824
1177.819, 805.1270
1178.301, 785.4673
1178.783, 772.2360
1179.266, 775.7719
1179.748, 784.7048
1180.230, 788.5967
1180.712, 787.7158
1181.194, 778.0219
1181.676, 766.7509
1182.158, 769.8484
1182.640, 780.1069
1183.122, 779.7152
1183.604, 768.8505
1184.087, 761.3883
1184.569, 762.4876
1185.051, 766.4833
1185.533, 775.5175
1186.015, 780.4402
1186.497, 772.1972
1186.979, 764.0700
1187.461, 767.4266
1187.944, 775.1426
1188.426, 776.3636
1188.908, 772.2639
1189.390, 770.8480
1189.872, 774.5747
1190.354, 771.0315
1190.836, 757.1665
1191.318, 750.2349
1191.801, 754.8876
1192.283, 760.8835
1192.765, 762.4852
1193.247, 762.2806
1193.729, 764.0562
1194.211, 765.5834
1194.693, 760.5404
1195.175, 751.1370
1195.657, 740.7053
1196.140, 731.8150
1196.622, 732.3245
1197.104, 741.3003
1197.586, 748.0906
1198.068, 748.1920
1198.550, 743.6385
1199.032, 726.3058
1199.514, 716.8959
1199.996, 737.7845
1200.479, 760.2927
1200.961, 759.9386
1201.443, 747.8402
1201.925, 740.4685
1202.407, 738.4856
1202.889, 738.8636
1203.371, 745.1930
1203.853, 740.8292
1204.336, 719.3615
1204.818, 709.5038
1205.300, 719.9274
1205.782, 729.0582
1206.264, 725.4805
1206.746, 714.1940
1207.228, 698.8672
1207.710, 684.6136
1208.193, 686.4973
1208.675, 699.1896
1209.157, 708.0683
1209.639, 713.6847
1210.121, 721.8930
1210.603, 731.6114
1211.085, 732.6675
1211.567, 720.8202
1212.049, 711.3220
1212.531, 719.0687
1213.014, 724.1266
1213.496, 710.4399
1213.978, 696.4783
1214.460, 697.4869
1214.942, 703.9156
1215.424, 702.8606
1215.906, 696.3982
1216.388, 694.2390
1216.871, 697.6068
1217.353, 697.0798
1217.835, 690.6080
1218.317, 689.2440
1218.799, 694.9984
1219.281, 704.5962
1219.763, 717.6314
1220.245, 719.9370
1220.728, 695.3464
1221.210, 665.7202
1221.692, 677.8470
1222.174, 708.0421
1222.656, 703.4573
1223.138, 680.2761
1223.620, 672.5800
1224.102, 680.3289
1224.584, 691.1549
1225.067, 700.7461
1225.549, 702.7175
1226.031, 688.1656
1226.513, 677.7457
1226.995, 684.4844
1227.477, 688.8509
1227.959, 673.3661
1228.441, 662.0986
1228.923, 678.5203
1229.406, 705.4030
1229.888, 712.4303
1230.370, 701.6786
1230.852, 695.7102
1231.334, 694.8128
1231.816, 691.2152
1232.298, 684.5633
1232.780, 676.0578
1233.263, 666.7879
1233.745, 666.2150
##END=



