##NAMES=Heulandite-Ca
##RRUFFID=R050097
##IDEAL CHEMISTRY=(Ca,Na,K)_5_(Si_27_Al_9_)O_72_&#183;26H_2_O
##LOCALITY=Rat's Nest Claim, Custer County, Idaho, USA
##OWNER=RRUFF
##SOURCE=John Cornish
##DESCRIPTION=Pale pink coffin-shaped tabular single crystals
##STATUS=The identification of this mineral has been confirmed by X-ray diffraction and chemical analysis
##URL=rruff.info/R050097
##MEASURED CHEMISTRY=(Ca_0.66_Na_0.30_K_0.04_)_5_(Si_0.77_Al_0.23_)_36_O_72_Â·24H_2_O
192.3230, 4331.274
192.8052, 4288.148
193.2873, 4266.595
193.7694, 4259.352
194.2515, 4253.047
194.7336, 4239.110
195.2157, 4219.239
195.6979, 4210.655
196.1800, 4225.307
196.6621, 4236.314
197.1442, 4234.668
197.6263, 4221.348
198.1084, 4199.644
198.5906, 4169.301
199.0727, 4131.812
199.5548, 4104.096
200.0369, 4085.906
200.5190, 4076.518
201.0011, 4083.141
201.4833, 4103.193
201.9654, 4115.075
202.4475, 4098.745
202.9296, 4057.102
203.4117, 4027.105
203.8938, 4018.159
204.3760, 4016.048
204.8581, 4009.374
205.3402, 3997.421
205.8223, 3982.042
206.3044, 3959.429
206.7865, 3933.562
207.2687, 3919.838
207.7508, 3936.679
208.2329, 3961.348
208.7150, 3960.193
209.1971, 3926.260
209.6792, 3886.388
210.1614, 3858.370
210.6435, 3840.149
211.1256, 3830.115
211.6077, 3832.672
212.0898, 3842.462
212.5719, 3848.417
213.0541, 3850.464
213.5362, 3847.374
214.0183, 3836.710
214.5004, 3820.658
214.9825, 3804.253
215.4646, 3786.216
215.9468, 3769.025
216.4289, 3765.169
216.9110, 3784.917
217.3931, 3804.371
217.8752, 3808.865
218.3573, 3802.006
218.8395, 3794.276
219.3216, 3796.028
219.8037, 3805.806
220.2858, 3803.956
220.7679, 3780.451
221.2500, 3755.072
221.7322, 3733.463
222.2143, 3717.093
222.6964, 3708.527
223.1785, 3715.213
223.6606, 3738.468
224.1427, 3746.966
224.6249, 3722.453
225.1070, 3698.261
225.5891, 3688.563
226.0712, 3691.434
226.5533, 3696.273
227.0354, 3692.064
227.5176, 3676.604
227.9997, 3667.502
228.4818, 3664.757
228.9639, 3668.635
229.4460, 3683.624
229.9281, 3707.106
230.4103, 3730.695
230.8924, 3745.269
231.3745, 3748.664
231.8566, 3752.816
232.3387, 3758.175
232.8208, 3763.871
233.3030, 3770.344
233.7851, 3777.133
234.2672, 3782.927
234.7493, 3787.166
235.2314, 3792.142
235.7135, 3786.367
236.1957, 3752.722
236.6778, 3723.914
237.1599, 3717.763
237.6420, 3735.235
238.1241, 3767.248
238.6062, 3806.041
239.0884, 3860.603
239.5705, 3890.371
240.0526, 3872.414
240.5347, 3852.116
241.0168, 3859.845
241.4989, 3896.610
241.9811, 3940.345
242.4632, 3965.786
242.9453, 3966.901
243.4274, 3965.935
243.9095, 3955.790
244.3916, 3948.980
244.8738, 3957.712
245.3559, 3981.463
245.8380, 4005.921
246.3201, 4013.684
246.8022, 3996.886
247.2843, 3987.731
247.7665, 3989.213
248.2486, 3995.344
248.7307, 4004.572
249.2128, 4015.608
249.6949, 4023.718
250.1770, 4022.575
250.6592, 4007.444
251.1413, 3999.831
251.6234, 4009.786
252.1055, 4020.056
252.5876, 4013.802
253.0697, 3990.367
253.5519, 3966.574
254.0340, 3962.096
254.5161, 3983.982
254.9982, 3998.727
255.4803, 4000.719
255.9624, 3999.402
256.4445, 4004.302
256.9267, 4015.995
257.4088, 4024.762
257.8909, 4020.156
258.3730, 3998.798
258.8551, 3976.580
259.3372, 3948.595
259.8194, 3922.980
260.3015, 3907.279
260.7836, 3902.088
261.2657, 3901.697
261.7478, 3902.007
262.2299, 3903.380
262.7121, 3898.867
263.1942, 3884.376
263.6763, 3866.625
264.1584, 3849.056
264.6405, 3832.413
265.1227, 3820.563
265.6048, 3820.571
266.0869, 3833.231
266.5690, 3829.953
267.0511, 3793.381
267.5332, 3751.843
268.0154, 3729.302
268.4975, 3727.151
268.9796, 3731.656
269.4617, 3733.483
269.9438, 3732.117
270.4259, 3726.463
270.9081, 3712.438
271.3902, 3696.922
271.8723, 3684.661
272.3544, 3675.897
272.8365, 3670.092
273.3186, 3667.834
273.8008, 3668.725
274.2829, 3667.446
274.7650, 3660.751
275.2471, 3654.244
275.7292, 3652.632
276.2113, 3655.748
276.6935, 3660.012
277.1756, 3664.299
277.6577, 3667.575
278.1398, 3665.994
278.6219, 3653.977
279.1040, 3641.594
279.5862, 3635.544
280.0683, 3635.505
280.5504, 3638.637
281.0325, 3644.879
281.5146, 3652.626
281.9967, 3655.965
282.4789, 3654.118
282.9610, 3648.704
283.4431, 3640.081
283.9252, 3628.433
284.4073, 3614.534
284.8894, 3597.143
285.3716, 3578.644
285.8537, 3565.771
286.3358, 3562.343
286.8179, 3559.497
287.3000, 3551.859
287.7821, 3540.477
288.2643, 3530.777
288.7464, 3527.885
289.2285, 3525.474
289.7106, 3507.674
290.1927, 3464.824
290.6748, 3425.448
291.1570, 3404.458
291.6391, 3397.913
292.1212, 3394.687
292.6033, 3391.835
293.0854, 3388.205
293.5675, 3381.152
294.0497, 3369.412
294.5318, 3358.171
295.0139, 3348.166
295.4960, 3340.176
295.9781, 3337.307
296.4602, 3342.340
296.9424, 3349.169
297.4245, 3344.510
297.9066, 3324.712
298.3887, 3312.488
298.8708, 3320.743
299.3529, 3340.119
299.8351, 3357.079
300.3172, 3369.998
300.7993, 3372.784
301.2814, 3346.683
301.7635, 3286.545
302.2456, 3249.979
302.7278, 3269.694
303.2099, 3313.607
303.6920, 3337.983
304.1741, 3333.469
304.6562, 3317.871
305.1383, 3309.979
305.6205, 3310.239
306.1026, 3309.862
306.5847, 3309.378
307.0668, 3306.844
307.5489, 3300.030
308.0310, 3288.634
308.5132, 3273.963
308.9953, 3254.490
309.4774, 3230.343
309.9595, 3217.717
310.4416, 3225.874
310.9237, 3239.698
311.4059, 3248.791
311.8880, 3252.378
312.3701, 3252.047
312.8522, 3247.181
313.3343, 3238.623
313.8164, 3236.970
314.2986, 3252.575
314.7807, 3265.598
315.2628, 3258.927
315.7449, 3237.485
316.2270, 3223.440
316.7091, 3232.378
317.1913, 3259.631
317.6734, 3276.797
318.1555, 3279.827
318.6376, 3279.027
319.1197, 3276.981
319.6018, 3274.000
320.0840, 3271.252
320.5661, 3269.930
321.0482, 3268.158
321.5303, 3259.022
322.0124, 3233.229
322.4945, 3213.775
322.9767, 3203.406
323.4588, 3202.768
323.9409, 3216.419
324.4230, 3247.178
324.9051, 3284.372
325.3872, 3306.822
325.8694, 3309.453
326.3515, 3305.623
326.8336, 3286.847
327.3157, 3266.437
327.7978, 3258.957
328.2799, 3267.949
328.7621, 3285.484
329.2442, 3301.728
329.7263, 3318.632
330.2084, 3327.533
330.6905, 3320.064
331.1726, 3310.941
331.6548, 3314.250
332.1369, 3329.569
332.6190, 3342.189
333.1011, 3335.477
333.5832, 3303.723
334.0653, 3285.088
334.5475, 3287.676
335.0296, 3293.257
335.5117, 3293.275
335.9938, 3288.395
336.4759, 3283.493
336.9580, 3282.373
337.4402, 3284.970
337.9223, 3287.102
338.4044, 3287.232
338.8865, 3288.557
339.3686, 3295.048
339.8507, 3302.930
340.3329, 3304.772
340.8150, 3295.719
341.2971, 3279.448
341.7792, 3272.145
342.2613, 3291.315
342.7434, 3297.107
343.2256, 3271.670
343.7077, 3236.680
344.1898, 3215.193
344.6719, 3216.255
345.1540, 3232.846
345.6361, 3252.880
346.1183, 3284.481
346.6004, 3302.758
347.0825, 3294.558
347.5646, 3282.546
348.0467, 3285.616
348.5288, 3306.344
349.0110, 3330.228
349.4931, 3337.252
349.9752, 3321.745
350.4573, 3312.053
350.9394, 3313.155
351.4215, 3316.555
351.9037, 3320.125
352.3858, 3322.875
352.8679, 3322.938
353.3500, 3314.479
353.8321, 3298.224
354.3142, 3301.206
354.7964, 3345.039
355.2785, 3382.146
355.7606, 3384.662
356.2427, 3367.649
356.7248, 3362.719
357.2069, 3394.130
357.6891, 3445.776
358.1712, 3469.143
358.6533, 3451.808
359.1354, 3434.001
359.6175, 3429.491
360.0996, 3434.126
360.5818, 3446.028
361.0639, 3467.747
361.5460, 3488.624
362.0281, 3487.863
362.5102, 3461.273
362.9923, 3451.665
363.4745, 3488.320
363.9566, 3538.530
364.4387, 3567.812
364.9208, 3570.148
365.4029, 3572.024
365.8850, 3598.526
366.3672, 3643.959
366.8493, 3676.708
367.3314, 3685.632
367.8135, 3686.082
368.2956, 3694.875
368.7777, 3711.251
369.2599, 3724.600
369.7420, 3726.079
370.2241, 3722.969
370.7062, 3727.532
371.1883, 3741.509
371.6704, 3761.076
372.1526, 3786.322
372.6347, 3815.730
373.1168, 3840.250
373.5989, 3854.821
374.0810, 3867.078
374.5631, 3884.235
375.0453, 3905.743
375.5274, 3924.883
376.0095, 3936.157
376.4916, 3942.619
376.9737, 3957.338
377.4558, 3977.439
377.9380, 4007.762
378.4201, 4060.658
378.9022, 4124.067
379.3843, 4173.344
379.8664, 4198.082
380.3485, 4207.573
380.8307, 4219.969
381.3128, 4235.279
381.7949, 4253.750
382.2770, 4275.363
382.7591, 4300.248
383.2412, 4328.479
383.7234, 4360.063
384.2055, 4394.254
384.6876, 4429.162
385.1697, 4462.307
385.6518, 4508.496
386.1339, 4585.891
386.6161, 4657.385
387.0982, 4700.174
387.5803, 4720.636
388.0624, 4739.189
388.5445, 4770.657
389.0266, 4814.006
389.5088, 4856.992
389.9909, 4889.294
390.4730, 4933.884
390.9551, 5006.743
391.4372, 5089.765
391.9193, 5158.042
392.4015, 5200.327
392.8836, 5231.069
393.3657, 5281.147
393.8478, 5358.395
394.3299, 5435.110
394.8120, 5510.787
395.2942, 5582.428
395.7763, 5646.661
396.2584, 5703.565
396.7405, 5757.507
397.2226, 5811.691
397.7047, 5865.873
398.1869, 5925.199
398.6690, 5995.118
399.1511, 6064.276
399.6332, 6129.302
400.1153, 6188.690
400.5974, 6238.938
401.0796, 6276.725
401.5617, 6304.541
402.0438, 6326.642
402.5259, 6341.685
403.0080, 6356.583
403.4901, 6378.858
403.9723, 6402.260
404.4544, 6417.318
404.9365, 6423.342
405.4186, 6419.226
405.9007, 6400.301
406.3828, 6368.859
406.8650, 6337.375
407.3471, 6310.724
407.8292, 6285.446
408.3113, 6256.412
408.7934, 6224.741
409.2755, 6186.861
409.7577, 6142.496
410.2398, 6091.091
410.7219, 6031.403
411.2040, 5963.322
411.6861, 5889.238
412.1682, 5809.752
412.6504, 5723.867
413.1325, 5645.557
413.6146, 5580.927
414.0967, 5517.779
414.5788, 5450.100
415.0609, 5377.967
415.5431, 5302.561
416.0252, 5224.196
416.5073, 5143.774
416.9894, 5064.041
417.4715, 4978.321
417.9536, 4901.144
418.4358, 4840.667
418.9179, 4786.430
419.4000, 4725.594
419.8821, 4654.730
420.3642, 4581.941
420.8463, 4521.146
421.3285, 4480.814
421.8106, 4429.651
422.2927, 4355.521
422.7748, 4282.014
423.2569, 4220.230
423.7390, 4169.707
424.2212, 4124.130
424.7033, 4079.696
425.1854, 4036.297
425.6675, 3991.602
426.1496, 3943.765
426.6317, 3898.335
427.1139, 3861.662
427.5960, 3826.926
428.0781, 3783.754
428.5602, 3726.782
429.0423, 3666.612
429.5244, 3615.541
430.0066, 3573.637
430.4887, 3538.596
430.9708, 3514.837
431.4529, 3493.030
431.9350, 3462.187
432.4171, 3421.753
432.8993, 3381.799
433.3814, 3344.376
433.8635, 3311.361
434.3456, 3287.689
434.8277, 3275.002
435.3098, 3264.174
435.7920, 3247.899
436.2741, 3226.238
436.7562, 3204.007
437.2383, 3178.598
437.7204, 3155.224
438.2025, 3138.717
438.6847, 3126.925
439.1668, 3112.857
439.6489, 3092.571
440.1310, 3069.307
440.6131, 3051.959
441.0952, 3045.189
441.5774, 3037.765
442.0595, 3027.661
442.5416, 3017.520
443.0237, 3011.302
443.5058, 3008.867
443.9879, 3004.620
444.4701, 2990.258
444.9522, 2962.185
445.4343, 2950.163
445.9164, 2975.986
446.3985, 2996.019
446.8806, 2991.814
447.3628, 2972.245
447.8449, 2954.299
448.3270, 2946.668
448.8091, 2947.342
449.2912, 2952.276
449.7733, 2963.345
450.2555, 2973.404
450.7375, 2981.046
451.2197, 2986.685
451.7018, 2989.184
452.1839, 2988.425
452.6660, 2989.416
453.1481, 2997.128
453.6302, 3010.308
454.1124, 3022.155
454.5945, 3029.997
455.0766, 3040.888
455.5587, 3063.166
456.0408, 3093.652
456.5229, 3123.419
457.0051, 3155.120
457.4872, 3182.126
457.9693, 3193.992
458.4514, 3193.872
458.9335, 3198.691
459.4156, 3215.999
459.8978, 3243.965
460.3799, 3279.785
460.8620, 3332.066
461.3441, 3374.643
461.8262, 3394.211
462.3083, 3406.517
462.7905, 3426.858
463.2726, 3458.439
463.7547, 3497.595
464.2368, 3542.177
464.7189, 3593.811
465.2010, 3635.681
465.6832, 3663.575
466.1653, 3686.517
466.6474, 3699.125
467.1295, 3710.226
467.6116, 3734.683
468.0938, 3780.384
468.5759, 3839.152
469.0580, 3893.533
469.5401, 3944.527
470.0222, 3988.641
470.5043, 4018.050
470.9865, 4045.405
471.4686, 4080.254
471.9507, 4122.444
472.4328, 4163.051
472.9149, 4188.771
473.3970, 4206.678
473.8792, 4244.448
474.3613, 4307.899
474.8434, 4377.326
475.3255, 4445.986
475.8076, 4510.983
476.2897, 4565.706
476.7719, 4601.252
477.2540, 4636.428
477.7361, 4686.124
478.2182, 4746.162
478.7003, 4803.166
479.1824, 4851.502
479.6646, 4898.376
480.1467, 4957.230
480.6288, 5038.741
481.1109, 5097.373
481.5930, 5118.792
482.0751, 5125.795
482.5573, 5134.043
483.0394, 5143.539
483.5215, 5147.538
484.0036, 5141.921
484.4857, 5125.999
484.9678, 5094.745
485.4500, 5034.058
485.9321, 4975.969
486.4142, 4934.112
486.8963, 4891.688
487.3784, 4832.062
487.8605, 4751.468
488.3427, 4658.445
488.8248, 4556.750
489.3069, 4445.456
489.7890, 4351.079
490.2711, 4288.758
490.7532, 4224.830
491.2354, 4136.874
491.7175, 4033.198
492.1996, 3931.407
492.6817, 3837.048
493.1638, 3749.433
493.6459, 3667.062
494.1281, 3589.922
494.6102, 3520.451
495.0923, 3461.185
495.5744, 3408.116
496.0565, 3356.026
496.5386, 3306.782
497.0208, 3250.344
497.5029, 3171.716
497.9850, 3092.411
498.4671, 3037.134
498.9492, 3006.072
499.4313, 2979.967
499.9135, 2943.564
500.3956, 2898.090
500.8777, 2858.213
501.3598, 2832.656
501.8419, 2802.429
502.3240, 2758.554
502.8062, 2711.358
503.2883, 2671.890
503.7704, 2643.585
504.2525, 2622.257
504.7346, 2601.304
505.2167, 2579.602
505.6989, 2568.098
506.1810, 2578.032
506.6631, 2585.668
507.1452, 2578.758
507.6273, 2561.277
508.1094, 2542.061
508.5916, 2522.787
509.0737, 2506.087
509.5558, 2499.293
510.0379, 2501.849
510.5200, 2495.828
511.0021, 2471.516
511.4843, 2439.865
511.9664, 2417.709
512.4485, 2405.878
512.9306, 2394.335
513.4127, 2376.198
513.8948, 2360.025
514.3770, 2359.142
514.8591, 2371.365
515.3412, 2376.930
515.8233, 2359.989
516.3054, 2325.777
516.7875, 2308.390
517.2697, 2324.890
517.7518, 2337.570
518.2339, 2342.842
518.7160, 2342.742
519.1981, 2337.488
519.6802, 2328.077
520.1624, 2319.058
520.6445, 2316.186
521.1266, 2319.668
521.6087, 2321.345
522.0908, 2324.297
522.5729, 2320.417
523.0551, 2297.850
523.5372, 2269.073
524.0193, 2255.192
524.5014, 2266.701
524.9835, 2284.862
525.4656, 2292.250
525.9478, 2290.246
526.4299, 2286.040
526.9120, 2281.329
527.3941, 2275.159
527.8762, 2264.531
528.3583, 2249.009
528.8405, 2240.200
529.3226, 2245.432
529.8047, 2252.133
530.2868, 2250.531
530.7689, 2243.412
531.2510, 2240.647
531.7332, 2247.786
532.2153, 2258.793
532.6974, 2257.833
533.1795, 2231.841
533.6616, 2217.883
534.1437, 2224.495
534.6259, 2235.140
535.1080, 2242.963
535.5901, 2245.851
536.0722, 2240.740
536.5543, 2220.901
537.0364, 2194.080
537.5186, 2188.135
538.0007, 2210.060
538.4828, 2225.896
538.9649, 2214.253
539.4470, 2195.346
539.9291, 2195.252
540.4113, 2218.930
540.8934, 2237.604
541.3755, 2230.221
541.8576, 2211.537
542.3397, 2205.312
542.8218, 2214.026
543.3040, 2225.918
543.7861, 2233.968
544.2682, 2237.646
544.7503, 2231.836
545.2324, 2203.269
545.7145, 2183.044
546.1967, 2187.507
546.6788, 2198.057
547.1609, 2188.931
547.6430, 2157.539
548.1251, 2129.899
548.6072, 2140.422
549.0894, 2191.238
549.5715, 2214.193
550.0536, 2189.841
550.5357, 2164.855
551.0178, 2155.341
551.4999, 2156.022
551.9821, 2161.111
552.4642, 2170.510
552.9463, 2177.843
553.4284, 2174.264
553.9105, 2163.053
554.3926, 2157.908
554.8748, 2162.247
555.3569, 2169.841
555.8390, 2176.010
556.3211, 2180.561
556.8032, 2182.086
557.2853, 2182.323
557.7675, 2177.665
558.2496, 2157.573
558.7317, 2133.502
559.2138, 2129.133
559.6959, 2152.321
560.1780, 2182.773
560.6602, 2188.291
561.1423, 2161.033
561.6244, 2140.407
562.1065, 2123.628
562.5886, 2117.137
563.0707, 2134.237
563.5529, 2161.463
564.0350, 2173.470
564.5171, 2156.110
564.9992, 2129.188
565.4813, 2119.492
565.9634, 2125.990
566.4456, 2132.126
566.9277, 2134.407
567.4098, 2135.027
567.8919, 2136.349
568.3740, 2138.234
568.8561, 2138.991
569.3383, 2137.120
569.8204, 2135.187
570.3025, 2136.159
570.7846, 2138.335
571.2667, 2136.534
571.7488, 2128.476
572.2310, 2119.020
572.7131, 2117.981
573.1952, 2132.029
573.6773, 2136.306
574.1594, 2122.753
574.6415, 2108.020
575.1237, 2096.749
575.6058, 2090.063
576.0879, 2089.388
576.5700, 2096.553
577.0521, 2106.972
577.5342, 2114.859
578.0164, 2120.208
578.4985, 2119.332
578.9806, 2106.550
579.4627, 2094.501
579.9448, 2099.346
580.4269, 2118.922
580.9091, 2135.295
581.3912, 2146.606
581.8733, 2152.314
582.3554, 2147.062
582.8375, 2136.052
583.3196, 2132.406
583.8018, 2141.722
584.2839, 2158.415
584.7660, 2174.339
585.2481, 2194.540
585.7302, 2198.910
586.2123, 2170.151
586.6945, 2143.817
587.1766, 2132.812
587.6587, 2135.541
588.1408, 2148.635
588.6229, 2173.409
589.1050, 2198.642
589.5872, 2204.236
590.0693, 2191.216
590.5514, 2187.785
591.0335, 2202.770
591.5156, 2223.339
591.9977, 2238.106
592.4799, 2247.595
592.9620, 2254.010
593.4441, 2252.698
593.9262, 2253.214
594.4083, 2261.491
594.8904, 2275.604
595.3726, 2293.993
595.8547, 2315.818
596.3368, 2333.627
596.8189, 2334.615
597.3010, 2313.378
597.7831, 2301.227
598.2653, 2301.870
598.7474, 2308.441
599.2295, 2322.307
599.7116, 2339.767
600.1937, 2354.906
600.6758, 2364.799
601.1580, 2375.800
601.6401, 2399.818
602.1222, 2432.328
602.6043, 2448.361
603.0864, 2440.365
603.5685, 2429.049
604.0507, 2428.642
604.5328, 2440.072
605.0149, 2463.135
605.4970, 2520.144
605.9791, 2562.624
606.4612, 2561.635
606.9434, 2541.948
607.4255, 2535.889
607.9076, 2550.245
608.3897, 2569.622
608.8718, 2578.258
609.3539, 2576.302
609.8361, 2569.947
610.3182, 2553.426
610.8003, 2542.168
611.2824, 2542.430
611.7645, 2549.385
612.2466, 2562.429
612.7288, 2582.654
613.2109, 2590.669
613.6930, 2559.490
614.1751, 2512.128
614.6572, 2495.476
615.1393, 2512.720
615.6215, 2527.841
616.1036, 2517.497
616.5857, 2488.855
617.0678, 2467.710
617.5499, 2464.136
618.0320, 2454.131
618.5142, 2426.548
618.9963, 2399.975
619.4784, 2394.336
619.9605, 2404.455
620.4426, 2406.424
620.9247, 2381.111
621.4069, 2340.252
621.8890, 2315.847
622.3711, 2310.627
622.8532, 2306.182
623.3353, 2300.500
623.8174, 2290.825
624.2996, 2272.018
624.7817, 2244.884
625.2638, 2222.364
625.7459, 2212.108
626.2280, 2204.077
626.7101, 2189.096
627.1923, 2169.985
627.6744, 2155.467
628.1565, 2149.180
628.6386, 2145.161
629.1207, 2133.398
629.6028, 2110.860
630.0850, 2092.955
630.5671, 2084.001
631.0492, 2075.463
631.5313, 2062.037
632.0134, 2048.172
632.4955, 2041.454
632.9777, 2045.029
633.4598, 2051.800
633.9419, 2058.886
634.4240, 2063.817
634.9061, 2054.666
635.3882, 2027.754
635.8704, 2003.854
636.3525, 1999.951
636.8346, 2012.472
637.3167, 2018.346
637.7988, 2010.749
638.2809, 2006.472
638.7631, 2015.979
639.2452, 2024.918
639.7273, 2016.925
640.2094, 1993.133
640.6915, 1968.703
641.1736, 1954.833
641.6558, 1949.795
642.1379, 1949.767
642.6200, 1956.972
643.1021, 1959.287
643.5842, 1950.883
644.0663, 1938.262
644.5485, 1927.608
645.0306, 1918.925
645.5127, 1912.815
645.9948, 1909.184
646.4769, 1908.399
646.9590, 1913.601
647.4412, 1921.793
647.9233, 1924.085
648.4054, 1916.969
648.8875, 1908.869
649.3696, 1915.337
649.8517, 1943.340
650.3339, 1949.384
650.8160, 1908.767
651.2981, 1875.186
651.7802, 1870.254
652.2623, 1881.203
652.7444, 1891.352
653.2266, 1897.217
653.7087, 1896.669
654.1908, 1883.052
654.6729, 1862.959
655.1550, 1851.971
655.6371, 1851.629
656.1193, 1851.039
656.6014, 1842.109
657.0835, 1828.311
657.5656, 1822.926
658.0477, 1833.011
658.5298, 1842.209
659.0120, 1850.019
659.4941, 1857.283
659.9762, 1868.267
660.4583, 1879.542
660.9404, 1880.435
661.4225, 1862.094
661.9047, 1836.149
662.3868, 1824.144
662.8689, 1825.481
663.3510, 1821.082
663.8331, 1802.800
664.3152, 1787.188
664.7974, 1793.561
665.2795, 1820.686
665.7616, 1838.202
666.2437, 1842.061
666.7258, 1840.171
667.2079, 1832.903
667.6901, 1822.693
668.1722, 1810.805
668.6543, 1798.421
669.1364, 1788.933
669.6185, 1785.573
670.1006, 1787.882
670.5828, 1793.928
671.0649, 1805.596
671.5470, 1814.814
672.0291, 1818.216
672.5112, 1818.441
672.9933, 1818.250
673.4755, 1817.633
673.9576, 1817.573
674.4397, 1820.741
674.9218, 1822.482
675.4039, 1817.223
675.8860, 1807.752
676.3682, 1801.430
676.8503, 1801.093
677.3324, 1802.151
677.8145, 1796.516
678.2966, 1782.204
678.7787, 1777.848
679.2609, 1791.056
679.7430, 1803.084
680.2251, 1805.849
680.7072, 1803.839
681.1893, 1802.465
681.6714, 1802.680
682.1536, 1803.071
682.6357, 1803.242
683.1178, 1802.929
683.5999, 1802.900
684.0820, 1802.491
684.5641, 1796.166
685.0463, 1779.419
685.5284, 1761.064
686.0105, 1764.480
686.4926, 1808.482
686.9747, 1829.413
687.4568, 1806.224
687.9390, 1780.829
688.4211, 1769.695
688.9032, 1768.647
689.3853, 1768.051
689.8674, 1764.096
690.3495, 1762.747
690.8317, 1773.540
691.3138, 1789.703
691.7959, 1794.809
692.2780, 1787.027
692.7601, 1776.818
693.2422, 1770.705
693.7244, 1768.709
694.2065, 1771.557
694.6886, 1789.790
695.1707, 1795.388
695.6528, 1773.626
696.1349, 1752.516
696.6171, 1751.871
697.0992, 1766.080
697.5813, 1777.607
698.0634, 1778.642
698.5455, 1773.425
699.0276, 1761.227
699.5098, 1746.277
699.9919, 1747.018
700.4740, 1768.131
700.9561, 1790.406
701.4382, 1797.641
701.9203, 1791.941
702.4025, 1790.001
702.8846, 1797.473
703.3667, 1801.186
703.8488, 1798.534
704.3309, 1793.156
704.8130, 1784.210
705.2952, 1774.579
705.7773, 1773.376
706.2594, 1791.035
706.7415, 1811.274
707.2236, 1803.909
707.7057, 1775.220
708.1879, 1767.488
708.6700, 1793.671
709.1521, 1822.269
709.6342, 1821.942
710.1163, 1794.359
710.5984, 1779.020
711.0806, 1781.938
711.5627, 1788.456
712.0448, 1798.465
712.5269, 1809.789
713.0090, 1824.037
713.4911, 1838.743
713.9733, 1844.800
714.4554, 1833.154
714.9375, 1813.561
715.4196, 1801.643
715.9017, 1796.542
716.3839, 1790.753
716.8660, 1781.739
717.3481, 1774.823
717.8302, 1776.700
718.3123, 1787.309
718.7944, 1790.458
719.2766, 1777.718
719.7587, 1769.078
720.2408, 1770.702
720.7229, 1776.004
721.2050, 1781.749
721.6871, 1785.822
722.1693, 1782.786
722.6514, 1763.885
723.1335, 1741.330
723.6156, 1739.110
724.0977, 1753.913
724.5798, 1759.714
725.0620, 1748.160
725.5441, 1733.593
726.0262, 1730.724
726.5083, 1739.549
726.9904, 1747.323
727.4725, 1756.660
727.9547, 1761.616
728.4368, 1757.854
728.9189, 1751.682
729.4010, 1749.058
729.8831, 1749.849
730.3652, 1749.256
730.8474, 1742.274
731.3295, 1734.558
731.8116, 1736.093
732.2937, 1744.838
732.7758, 1750.779
733.2579, 1751.452
733.7401, 1747.974
734.2222, 1740.030
734.7043, 1728.106
735.1864, 1723.922
735.6685, 1740.835
736.1506, 1747.769
736.6328, 1730.031
737.1149, 1709.683
737.5970, 1703.339
738.0791, 1711.293
738.5612, 1726.157
739.0433, 1751.652
739.5255, 1773.129
740.0076, 1770.907
740.4897, 1750.715
740.9718, 1728.339
741.4539, 1707.344
741.9360, 1692.248
742.4182, 1687.740
742.9003, 1692.735
743.3824, 1697.893
743.8645, 1701.555
744.3466, 1708.313
744.8287, 1722.274
745.3109, 1736.275
745.7930, 1745.627
746.2751, 1750.790
746.7572, 1754.839
747.2393, 1761.031
747.7214, 1763.456
748.2036, 1751.830
748.6857, 1734.447
749.1678, 1728.345
749.6499, 1735.784
750.1320, 1748.079
750.6141, 1759.674
751.0963, 1769.026
751.5784, 1768.397
752.0605, 1751.730
752.5426, 1742.636
753.0247, 1756.276
753.5068, 1764.859
753.9890, 1741.904
754.4711, 1701.028
754.9532, 1680.653
755.4353, 1699.003
755.9174, 1719.746
756.3995, 1722.606
756.8817, 1718.727
757.3638, 1721.813
757.8459, 1732.179
758.3280, 1742.489
758.8101, 1748.043
759.2922, 1751.605
759.7744, 1762.200
760.2565, 1782.080
760.7386, 1783.585
761.2207, 1752.980
761.7028, 1725.861
762.1849, 1728.332
762.6671, 1749.860
763.1492, 1763.255
763.6313, 1766.268
764.1134, 1765.157
764.5955, 1753.590
765.0776, 1745.114
765.5598, 1753.847
766.0419, 1773.631
766.5240, 1789.048
767.0061, 1793.406
767.4882, 1792.672
767.9703, 1792.888
768.4525, 1794.353
768.9346, 1800.414
769.4167, 1812.262
769.8988, 1819.009
770.3809, 1812.610
770.8630, 1801.258
771.3452, 1801.431
771.8273, 1818.623
772.3094, 1831.671
772.7915, 1839.656
773.2736, 1844.784
773.7557, 1847.395
774.2379, 1847.898
774.7200, 1844.684
775.2021, 1837.843
775.6842, 1835.700
776.1663, 1850.089
776.6484, 1870.041
777.1306, 1876.817
777.6127, 1872.296
778.0948, 1867.729
778.5769, 1866.996
779.0590, 1868.771
779.5411, 1871.037
780.0233, 1873.639
780.5054, 1883.042
780.9875, 1910.540
781.4696, 1925.964
781.9517, 1909.580
782.4338, 1888.011
782.9160, 1880.945
783.3981, 1888.938
783.8802, 1905.146
784.3623, 1942.275
784.8444, 1971.097
785.3265, 1964.041
785.8087, 1940.038
786.2908, 1926.139
786.7729, 1927.942
787.2550, 1941.287
787.7371, 1965.791
788.2192, 1993.667
788.7014, 1999.880
789.1835, 1982.115
789.6656, 1965.604
790.1477, 1954.973
790.6298, 1945.374
791.1119, 1931.419
791.5941, 1915.408
792.0762, 1907.529
792.5583, 1913.433
793.0404, 1918.245
793.5225, 1920.615
794.0046, 1920.466
794.4868, 1917.048
794.9689, 1911.181
795.4510, 1904.158
795.9331, 1896.324
796.4152, 1889.152
796.8973, 1882.743
797.3795, 1878.459
797.8616, 1883.301
798.3437, 1896.723
798.8258, 1901.713
799.3079, 1888.637
799.7900, 1866.928
800.2722, 1853.345
800.7543, 1848.571
801.2364, 1848.747
801.7185, 1861.941
802.2006, 1868.940
802.6827, 1858.922
803.1649, 1842.894
803.6470, 1831.844
804.1291, 1826.887
804.6112, 1826.291
805.0933, 1838.468
805.5754, 1845.978
806.0576, 1830.448
806.5397, 1802.775
807.0218, 1779.747
807.5039, 1766.336
807.9860, 1764.217
808.4681, 1778.979
808.9503, 1802.040
809.4324, 1802.681
809.9145, 1779.280
810.3966, 1762.923
810.8787, 1762.716
811.3608, 1764.992
811.8430, 1756.385
812.3251, 1739.408
812.8072, 1732.690
813.2893, 1749.802
813.7714, 1757.270
814.2535, 1743.551
814.7357, 1727.587
815.2178, 1719.704
815.6999, 1719.860
816.1820, 1726.702
816.6641, 1741.516
817.1462, 1754.580
817.6284, 1759.227
818.1105, 1756.493
818.5926, 1744.760
819.0747, 1726.346
819.5568, 1711.514
820.0389, 1705.100
820.5211, 1703.819
821.0032, 1702.995
821.4852, 1702.665
821.9673, 1701.941
822.4495, 1700.010
822.9316, 1700.037
823.4137, 1706.814
823.8958, 1713.136
824.3779, 1707.053
824.8600, 1688.152
825.3422, 1677.111
825.8243, 1684.844
826.3064, 1690.468
826.7885, 1686.893
827.2706, 1676.474
827.7527, 1658.294
828.2349, 1635.144
828.7170, 1617.018
829.1991, 1610.743
829.6812, 1611.143
830.1633, 1613.125
830.6454, 1615.982
831.1276, 1616.355
831.6097, 1613.926
832.0918, 1614.635
832.5739, 1623.602
833.0560, 1635.852
833.5381, 1636.512
834.0203, 1620.766
834.5024, 1610.107
834.9845, 1608.478
835.4666, 1607.244
835.9487, 1597.584
836.4308, 1587.557
836.9130, 1592.269
837.3951, 1617.213
837.8772, 1630.873
838.3593, 1617.381
838.8414, 1598.778
839.3235, 1582.092
839.8057, 1571.765
840.2878, 1577.592
840.7699, 1599.053
841.2520, 1616.526
841.7341, 1610.628
842.2162, 1593.617
842.6984, 1589.835
843.1805, 1596.053
843.6626, 1594.035
844.1447, 1579.266
844.6268, 1565.306
845.1089, 1564.309
845.5911, 1572.907
846.0732, 1574.609
846.5553, 1563.746
847.0374, 1561.742
847.5195, 1578.629
848.0016, 1594.866
848.4838, 1599.874
848.9659, 1596.335
849.4480, 1587.738
849.9301, 1570.727
850.4122, 1560.197
850.8943, 1564.992
851.3765, 1572.916
851.8586, 1578.178
852.3407, 1579.724
852.8228, 1575.067
853.3049, 1564.237
853.7870, 1554.794
854.2692, 1553.568
854.7513, 1558.042
855.2334, 1564.631
855.7155, 1572.930
856.1976, 1583.268
856.6797, 1595.855
857.1619, 1599.883
857.6440, 1582.843
858.1261, 1550.679
858.6082, 1536.105
859.0903, 1544.793
859.5724, 1552.859
860.0546, 1557.930
860.5367, 1560.991
861.0188, 1561.872
861.5009, 1561.346
861.9830, 1561.240
862.4651, 1561.730
862.9473, 1562.370
863.4294, 1566.195
863.9115, 1566.996
864.3936, 1557.876
864.8757, 1544.435
865.3578, 1536.145
865.8400, 1535.195
866.3221, 1535.427
866.8042, 1529.967
867.2863, 1524.644
867.7684, 1529.663
868.2505, 1541.577
868.7327, 1549.717
869.2148, 1551.599
869.6969, 1551.721
870.1790, 1554.123
870.6611, 1557.646
871.1432, 1558.087
871.6254, 1555.126
872.1075, 1551.337
872.5896, 1546.381
873.0717, 1542.209
873.5538, 1539.744
874.0359, 1539.118
874.5181, 1540.868
875.0002, 1546.620
875.4823, 1551.202
875.9644, 1555.161
876.4465, 1557.286
876.9286, 1556.365
877.4108, 1553.713
877.8929, 1551.063
878.3750, 1548.640
878.8571, 1545.261
879.3392, 1539.230
879.8214, 1533.102
880.3035, 1527.327
880.7856, 1523.522
881.2677, 1526.660
881.7498, 1535.571
882.2319, 1539.813
882.7141, 1530.450
883.1962, 1518.529
883.6783, 1529.884
884.1604, 1558.993
884.6425, 1567.504
885.1246, 1550.276
885.6068, 1529.625
886.0889, 1516.802
886.5710, 1509.268
887.0531, 1501.869
887.5352, 1493.375
888.0173, 1492.411
888.4995, 1503.059
888.9816, 1514.350
889.4637, 1526.670
889.9458, 1535.322
890.4279, 1532.219
890.9100, 1518.812
891.3922, 1513.529
891.8743, 1530.057
892.3564, 1540.578
892.8385, 1528.561
893.3206, 1513.295
893.8027, 1514.300
894.2849, 1526.862
894.7670, 1533.003
895.2491, 1524.327
895.7312, 1514.248
896.2133, 1516.505
896.6954, 1523.156
897.1776, 1519.813
897.6597, 1509.372
898.1418, 1506.434
898.6239, 1515.794
899.1060, 1525.104
899.5881, 1518.853
900.0703, 1501.666
900.5524, 1494.893
901.0345, 1498.863
901.5166, 1506.770
901.9987, 1518.600
902.4808, 1528.383
902.9630, 1531.022
903.4451, 1527.855
903.9272, 1524.537
904.4093, 1523.211
904.8914, 1517.007
905.3735, 1493.227
905.8557, 1479.625
906.3378, 1500.418
906.8199, 1532.220
907.3020, 1538.885
907.7841, 1514.648
908.2662, 1496.843
908.7484, 1500.114
909.2305, 1505.073
909.7126, 1501.598
910.1947, 1494.959
910.6768, 1490.012
911.1589, 1488.309
911.6411, 1491.874
912.1232, 1503.441
912.6053, 1516.894
913.0874, 1527.436
913.5695, 1535.048
914.0516, 1539.494
914.5338, 1540.943
915.0159, 1541.113
915.4980, 1540.854
915.9801, 1535.904
916.4622, 1516.007
916.9443, 1485.068
917.4265, 1469.541
917.9086, 1469.845
918.3907, 1478.600
918.8728, 1496.530
919.3549, 1509.889
919.8370, 1502.578
920.3192, 1479.526
920.8013, 1475.528
921.2834, 1503.938
921.7655, 1518.732
922.2476, 1504.885
922.7297, 1491.099
923.2119, 1497.823
923.6940, 1513.435
924.1761, 1517.176
924.6582, 1505.397
925.1403, 1495.153
925.6224, 1488.592
926.1046, 1484.243
926.5867, 1482.425
927.0688, 1481.912
927.5509, 1481.046
928.0330, 1480.008
928.5151, 1480.851
928.9973, 1485.412
929.4794, 1490.594
929.9615, 1495.868
930.4436, 1499.365
930.9257, 1498.613
931.4078, 1493.824
931.8900, 1484.508
932.3721, 1470.492
932.8542, 1460.445
933.3363, 1467.137
933.8184, 1484.378
934.3005, 1497.961
934.7827, 1507.318
935.2648, 1510.788
935.7469, 1507.917
936.2290, 1496.453
936.7111, 1471.528
937.1932, 1441.157
937.6754, 1437.392
938.1575, 1464.497
938.6396, 1481.565
939.1217, 1481.994
939.6038, 1480.039
940.0859, 1483.869
940.5681, 1489.220
941.0502, 1488.168
941.5323, 1479.694
942.0144, 1469.815
942.4965, 1448.631
942.9786, 1440.353
943.4608, 1465.465
943.9429, 1492.418
944.4250, 1491.084
944.9071, 1468.060
945.3892, 1455.880
945.8713, 1465.542
946.3535, 1475.489
946.8356, 1484.285
947.3177, 1487.508
947.7998, 1475.756
948.2819, 1458.735
948.7640, 1454.285
949.2462, 1466.237
949.7283, 1477.504
950.2104, 1474.897
950.6925, 1470.356
951.1746, 1477.029
951.6567, 1487.906
952.1389, 1489.606
952.6210, 1482.520
953.1031, 1479.508
953.5852, 1489.374
954.0673, 1499.496
954.5494, 1488.392
955.0316, 1465.486
955.5137, 1457.118
955.9958, 1462.684
956.4779, 1465.624
956.9600, 1459.796
957.4421, 1455.957
957.9243, 1468.086
958.4064, 1490.978
958.8885, 1499.283
959.3706, 1492.130
959.8527, 1486.920
960.3348, 1487.714
960.8170, 1483.725
961.2991, 1464.490
961.7812, 1441.099
962.2633, 1441.678
962.7454, 1474.570
963.2275, 1493.416
963.7097, 1493.217
964.1918, 1488.204
964.6739, 1479.432
965.1560, 1471.025
965.6381, 1469.340
966.1202, 1473.339
966.6024, 1470.033
967.0845, 1445.578
967.5666, 1434.280
968.0487, 1453.000
968.5308, 1471.576
969.0129, 1469.592
969.4951, 1457.832
969.9772, 1456.228
970.4593, 1468.756
970.9414, 1477.098
971.4235, 1470.265
971.9056, 1463.616
972.3878, 1466.545
972.8699, 1472.917
973.3520, 1475.379
973.8341, 1474.399
974.3162, 1475.780
974.7983, 1483.264
975.2805, 1488.751
975.7626, 1482.547
976.2447, 1473.633
976.7268, 1474.830
977.2089, 1481.713
977.6910, 1480.342
978.1732, 1468.373
978.6553, 1461.055
979.1374, 1474.927
979.6195, 1494.534
980.1016, 1490.471
980.5837, 1472.194
981.0659, 1468.694
981.5480, 1481.517
982.0301, 1492.760
982.5122, 1493.215
982.9943, 1490.038
983.4764, 1495.315
983.9586, 1506.482
984.4407, 1507.993
984.9228, 1499.955
985.4049, 1485.679
985.8870, 1464.374
986.3691, 1454.741
986.8513, 1475.832
987.3334, 1513.237
987.8155, 1519.735
988.2976, 1488.595
988.7797, 1472.979
989.2618, 1478.870
989.7440, 1487.614
990.2261, 1491.854
990.7082, 1495.371
991.1903, 1504.532
991.6724, 1518.950
992.1545, 1520.756
992.6367, 1498.262
993.1188, 1487.575
993.6009, 1503.793
994.0830, 1518.669
994.5651, 1512.329
995.0472, 1494.464
995.5294, 1484.579
996.0115, 1483.702
996.4936, 1486.150
996.9757, 1495.592
997.4578, 1503.342
997.9399, 1504.830
998.4221, 1505.567
998.9042, 1512.624
999.3863, 1523.189
999.8684, 1525.820
1000.351, 1512.734
1000.833, 1505.379
1001.315, 1513.891
1001.797, 1525.259
1002.279, 1535.827
1002.761, 1542.182
1003.243, 1537.271
1003.725, 1522.338
1004.207, 1512.843
1004.690, 1517.302
1005.172, 1526.289
1005.654, 1539.785
1006.136, 1550.769
1006.618, 1548.754
1007.100, 1538.922
1007.582, 1534.164
1008.064, 1538.357
1008.547, 1543.866
1009.029, 1545.460
1009.511, 1545.362
1009.993, 1546.313
1010.475, 1546.957
1010.957, 1543.336
1011.439, 1536.719
1011.921, 1534.530
1012.403, 1540.956
1012.886, 1547.844
1013.368, 1544.165
1013.850, 1535.939
1014.332, 1535.211
1014.814, 1539.616
1015.296, 1539.100
1015.778, 1532.256
1016.260, 1529.088
1016.742, 1538.438
1017.225, 1550.913
1017.707, 1547.094
1018.189, 1532.494
1018.671, 1527.393
1019.153, 1532.432
1019.635, 1540.997
1020.117, 1550.651
1020.599, 1556.906
1021.082, 1552.770
1021.564, 1544.567
1022.046, 1559.781
1022.528, 1595.453
1023.010, 1603.588
1023.492, 1576.961
1023.974, 1556.044
1024.456, 1562.205
1024.938, 1579.680
1025.421, 1585.344
1025.903, 1580.182
1026.385, 1575.526
1026.867, 1570.780
1027.349, 1574.185
1027.831, 1590.011
1028.313, 1601.201
1028.795, 1594.551
1029.278, 1578.948
1029.760, 1575.224
1030.242, 1585.657
1030.724, 1587.546
1031.206, 1577.216
1031.688, 1571.518
1032.170, 1577.085
1032.652, 1584.156
1033.135, 1584.199
1033.617, 1578.916
1034.099, 1574.372
1034.581, 1569.322
1035.063, 1568.956
1035.545, 1575.400
1036.027, 1582.398
1036.509, 1588.233
1036.991, 1593.032
1037.474, 1597.009
1037.956, 1600.114
1038.438, 1601.977
1038.920, 1603.162
1039.402, 1601.755
1039.884, 1591.968
1040.366, 1587.465
1040.848, 1600.848
1041.330, 1618.601
1041.813, 1621.160
1042.295, 1607.672
1042.777, 1597.550
1043.259, 1589.051
1043.741, 1586.520
1044.223, 1595.532
1044.705, 1605.145
1045.187, 1612.338
1045.670, 1615.014
1046.152, 1607.854
1046.634, 1588.772
1047.116, 1574.724
1047.598, 1566.176
1048.080, 1564.019
1048.562, 1574.153
1049.044, 1585.340
1049.526, 1590.469
1050.009, 1590.419
1050.491, 1587.587
1050.973, 1581.375
1051.455, 1576.191
1051.937, 1570.205
1052.419, 1568.545
1052.901, 1577.011
1053.383, 1587.209
1053.865, 1593.005
1054.348, 1594.124
1054.830, 1590.011
1055.312, 1576.086
1055.794, 1571.302
1056.276, 1592.529
1056.758, 1609.370
1057.240, 1603.373
1057.722, 1588.713
1058.205, 1578.650
1058.687, 1574.358
1059.169, 1574.306
1059.651, 1580.702
1060.133, 1585.039
1060.615, 1580.268
1061.097, 1577.504
1061.579, 1586.733
1062.062, 1599.549
1062.544, 1605.582
1063.026, 1604.256
1063.508, 1600.567
1063.990, 1592.376
1064.472, 1588.995
1064.954, 1599.227
1065.436, 1609.997
1065.918, 1611.472
1066.401, 1608.147
1066.883, 1608.800
1067.365, 1613.500
1067.847, 1611.446
1068.329, 1589.807
1068.811, 1574.382
1069.293, 1580.596
1069.775, 1593.293
1070.257, 1604.982
1070.740, 1612.947
1071.222, 1610.688
1071.704, 1598.775
1072.186, 1596.608
1072.668, 1623.545
1073.150, 1627.207
1073.632, 1653.057
1074.114, 1668.104
1074.596, 1672.928
1075.079, 1636.913
1075.561, 1653.634
1076.043, 1649.219
1076.525, 1643.939
1077.007, 1668.082
1077.489, 1638.005
1077.971, 1661.682
1078.453, 1663.901
1078.936, 1675.944
1079.418, 1666.718
1079.900, 1664.060
1080.382, 1682.675
1080.864, 1689.512
1081.346, 1677.838
1081.828, 1690.502
1082.310, 1659.682
1082.792, 1667.020
1083.275, 1690.824
1083.757, 1680.219
1084.239, 1693.272
1084.721, 1697.315
1085.203, 1660.411
1085.685, 1694.718
1086.167, 1698.228
1086.649, 1670.117
1087.131, 1701.984
1087.614, 1678.235
1088.096, 1674.336
1088.578, 1685.377
1089.060, 1680.844
1089.542, 1700.865
1090.024, 1697.231
1090.506, 1691.483
1090.988, 1694.959
1091.471, 1672.300
1091.953, 1698.129
1092.435, 1690.835
1092.917, 1700.005
1093.399, 1712.907
1093.881, 1697.234
1094.363, 1711.814
1094.845, 1679.479
1095.328, 1686.402
1095.810, 1689.094
1096.292, 1716.877
1096.774, 1684.772
1097.256, 1690.601
1097.738, 1712.582
1098.220, 1711.963
1098.702, 1720.793
1099.184, 1701.649
1099.667, 1708.787
1100.149, 1708.679
1100.631, 1733.602
1101.113, 1738.764
1101.595, 1720.094
1102.077, 1701.526
1102.559, 1728.250
1103.041, 1712.046
1103.523, 1719.001
1104.006, 1702.039
1104.488, 1705.728
1104.970, 1709.089
1105.452, 1723.036
1105.934, 1704.882
1106.416, 1728.369
1106.898, 1727.788
1107.380, 1734.297
1107.863, 1740.020
1108.345, 1713.443
1108.827, 1713.342
1109.309, 1751.125
1109.791, 1731.133
1110.273, 1733.581
1110.755, 1732.433
1111.237, 1731.276
1111.719, 1727.783
1112.202, 1727.240
1112.684, 1736.735
1113.166, 1743.843
1113.648, 1733.075
1114.130, 1715.381
1114.612, 1717.495
1115.094, 1745.645
1115.576, 1766.346
1116.058, 1781.999
1116.541, 1786.335
1117.023, 1767.402
1117.505, 1749.954
1117.987, 1752.191
1118.469, 1764.935
1118.951, 1770.225
1119.433, 1767.190
1119.915, 1763.096
1120.398, 1758.406
1120.880, 1751.416
1121.362, 1739.697
1121.844, 1729.227
1122.326, 1722.888
1122.808, 1720.893
1123.290, 1724.859
1123.772, 1735.347
1124.255, 1738.770
1124.737, 1731.422
1125.219, 1729.266
1125.701, 1736.745
1126.183, 1743.816
1126.665, 1744.506
1127.147, 1742.687
1127.629, 1744.685
1128.111, 1750.122
1128.594, 1751.012
1129.076, 1745.936
1129.558, 1747.045
1130.040, 1757.798
1130.522, 1763.675
1131.004, 1756.594
1131.486, 1744.873
1131.968, 1739.273
1132.450, 1725.808
1132.933, 1738.444
1133.415, 1745.677
1133.897, 1747.798
1134.379, 1729.499
1134.861, 1737.569
1135.343, 1735.072
1135.825, 1732.141
1136.307, 1743.922
1136.790, 1728.594
1137.272, 1744.853
1137.754, 1747.259
1138.236, 1747.835
1138.718, 1746.480
1139.200, 1742.158
1139.682, 1734.763
1140.164, 1729.772
1140.646, 1732.768
1141.129, 1739.516
1141.611, 1745.029
1142.093, 1747.392
1142.575, 1736.661
1143.057, 1718.008
1143.539, 1714.199
1144.021, 1728.899
1144.503, 1739.143
1144.985, 1726.383
1145.468, 1710.199
1145.950, 1717.112
1146.432, 1733.289
1146.914, 1739.925
1147.396, 1738.081
1147.878, 1730.431
1148.360, 1719.438
1148.842, 1711.734
1149.325, 1711.026
1149.807, 1713.104
1150.289, 1714.478
1150.771, 1717.308
1151.253, 1726.243
1151.735, 1736.355
1152.217, 1741.456
1152.699, 1740.822
1153.182, 1733.570
1153.664, 1716.391
1154.146, 1709.283
1154.628, 1733.867
1155.110, 1756.680
1155.592, 1757.926
1156.074, 1748.913
1156.556, 1734.557
1157.038, 1721.160
1157.521, 1724.572
1158.003, 1752.014
1158.485, 1764.147
1158.967, 1738.705
1159.449, 1716.118
1159.931, 1707.959
1160.413, 1706.390
1160.895, 1711.980
1161.377, 1718.080
1161.860, 1709.558
1162.342, 1683.799
1162.824, 1672.235
1163.306, 1686.408
1163.788, 1693.714
1164.270, 1686.875
1164.752, 1679.523
1165.234, 1677.942
1165.717, 1679.386
1166.199, 1680.906
1166.681, 1682.260
1167.163, 1681.359
1167.645, 1678.617
1168.127, 1670.265
1168.609, 1653.368
1169.091, 1643.069
1169.573, 1645.230
1170.056, 1656.072
1170.538, 1674.738
1171.020, 1693.913
1171.502, 1687.651
1171.984, 1658.049
1172.466, 1640.739
1172.948, 1636.782
1173.430, 1639.923
1173.912, 1648.109
1174.395, 1651.077
1174.877, 1640.651
1175.359, 1627.036
1175.841, 1627.063
1176.323, 1636.258
1176.805, 1644.613
1177.287, 1651.621
1177.769, 1656.569
1178.252, 1659.248
1178.734, 1659.872
1179.216, 1658.597
1179.698, 1652.724
1180.180, 1634.494
1180.662, 1615.395
1181.144, 1609.666
1181.626, 1610.530
1182.109, 1610.704
1182.591, 1608.172
1183.073, 1598.078
1183.555, 1580.222
1184.037, 1571.835
1184.519, 1590.454
1185.001, 1609.421
1185.483, 1612.927
1185.965, 1613.716
1186.448, 1625.170
1186.930, 1638.370
1187.412, 1637.437
1187.894, 1622.733
1188.376, 1611.954
1188.858, 1609.840
1189.340, 1608.993
1189.822, 1607.906
1190.304, 1608.604
1190.787, 1616.298
1191.269, 1622.016
1191.751, 1615.968
1192.233, 1602.150
1192.715, 1593.618
1193.197, 1591.445
1193.679, 1589.430
1194.161, 1585.931
1194.644, 1588.826
1195.126, 1603.178
1195.608, 1613.144
1196.090, 1607.944
1196.572, 1594.681
1197.054, 1584.239
1197.536, 1576.722
1198.018, 1574.753
1198.500, 1577.857
1198.983, 1571.277
1199.465, 1554.185
1199.947, 1550.449
1200.429, 1569.817
1200.911, 1588.083
1201.393, 1580.219
1201.875, 1558.707
1202.357, 1541.287
1202.839, 1529.839
1203.322, 1533.307
1203.804, 1545.832
1204.286, 1549.105
1204.768, 1540.890
1205.250, 1536.119
1205.732, 1544.904
1206.214, 1551.298
1206.696, 1533.882
1207.179, 1517.627
1207.661, 1531.809
1208.143, 1555.392
1208.625, 1560.024
1209.107, 1549.032
1209.589, 1541.244
1210.071, 1541.470
1210.553, 1541.280
1211.036, 1542.797
1211.518, 1537.200
1212.000, 1509.757
1212.482, 1487.143
1212.964, 1490.971
1213.446, 1507.838
1213.928, 1518.090
1214.410, 1521.835
1214.892, 1520.474
1215.375, 1511.360
1215.857, 1503.884
1216.339, 1497.379
1216.821, 1496.886
1217.303, 1506.558
1217.785, 1515.094
1218.267, 1511.684
1218.749, 1501.351
1219.231, 1496.195
1219.714, 1495.994
1220.196, 1498.175
1220.678, 1502.454
1221.160, 1505.035
1221.642, 1505.691
1222.124, 1511.406
1222.606, 1526.039
1223.088, 1539.557
1223.571, 1540.275
1224.053, 1533.266
1224.535, 1523.705
1225.017, 1513.872
1225.499, 1506.332
1225.981, 1502.357
1226.463, 1507.015
1226.945, 1519.521
1227.427, 1524.532
1227.910, 1508.445
1228.392, 1495.841
1228.874, 1506.347
1229.356, 1517.509
1229.838, 1513.419
1230.320, 1502.529
1230.802, 1491.846
1231.284, 1483.829
1231.766, 1485.466
1232.249, 1503.286
1232.731, 1509.228
1233.213, 1488.798
1233.695, 1481.724
1234.177, 1504.778
1234.659, 1523.642
1235.141, 1517.813
1235.623, 1499.582
1236.106, 1484.262
1236.588, 1473.234
1237.070, 1478.978
1237.552, 1502.145
1238.034, 1513.857
1238.516, 1512.152
1238.998, 1504.858
1239.480, 1494.652
1239.963, 1487.992
1240.445, 1490.401
1240.927, 1495.449
1241.409, 1491.696
1241.891, 1485.216
1242.373, 1487.802
1242.855, 1496.362
1243.337, 1507.623
1243.819, 1517.740
1244.302, 1515.778
1244.784, 1498.195
1245.266, 1485.141
1245.748, 1493.919
1246.230, 1502.630
1246.712, 1498.593
1247.194, 1491.726
1247.676, 1490.125
1248.158, 1489.991
1248.641, 1482.004
1249.123, 1468.267
1249.605, 1469.124
1250.087, 1493.639
1250.569, 1513.172
1251.051, 1530.007
1251.533, 1535.779
1252.015, 1524.341
1252.498, 1511.365
1252.980, 1507.162
1253.462, 1507.331
1253.944, 1504.442
1254.426, 1499.255
1254.908, 1496.610
1255.390, 1496.298
1255.872, 1495.029
1256.354, 1493.391
1256.837, 1500.204
1257.319, 1517.359
1257.801, 1532.236
1258.283, 1535.858
1258.765, 1531.547
1259.247, 1518.203
1259.729, 1503.500
1260.211, 1490.328
1260.693, 1486.177
1261.176, 1514.610
1261.658, 1560.381
1262.140, 1572.130
1262.622, 1533.948
1263.104, 1502.395
1263.586, 1496.071
1264.068, 1497.398
1264.550, 1509.479
1265.033, 1518.875
1265.515, 1519.110
1265.997, 1512.292
1266.479, 1497.286
1266.961, 1477.965
1267.443, 1472.398
1267.925, 1482.816
1268.407, 1495.416
1268.890, 1511.010
1269.372, 1519.465
1269.854, 1518.490
1270.336, 1510.584
1270.818, 1496.593
1271.300, 1484.672
1271.782, 1485.309
1272.264, 1494.261
1272.746, 1506.665
1273.229, 1519.332
1273.711, 1524.389
1274.193, 1524.685
1274.675, 1530.378
1275.157, 1541.418
1275.639, 1545.058
1276.121, 1534.756
1276.603, 1520.024
1277.085, 1494.989
1277.568, 1479.931
1278.050, 1494.010
1278.532, 1513.641
##END=



