##NAMES=Hibonite
##RRUFFID=R061069
##IDEAL CHEMISTRY=CaAl_12_O_19_
##LOCALITY=Madagascar
##OWNER=RRUFF
##SOURCE=Michael Scott
##DESCRIPTION=Black platy hexagonal prism
##STATUS=The identification of this mineral has been confirmed by X-ray diffraction and chemical analysis
##URL=rruff.info/R061069
##MEASURED CHEMISTRY=(Ca_0.82_Ce_0.10_La_0.07_Nd_0.01_)_Σ=1_(Al_10.40_Ti_0.64_Fe_0.59_Mg_0.30_Si_0.07_)_Σ=12_O_19_
157.7238, 6340.763
158.2060, 6358.652
158.6881, 6354.769
159.1702, 6343.326
159.6523, 6332.755
160.1344, 6320.185
160.6165, 6313.847
161.0986, 6319.970
161.5808, 6336.812
162.0629, 6351.685
162.5450, 6357.906
163.0271, 6360.382
163.5092, 6363.787
163.9913, 6371.925
164.4735, 6379.460
164.9556, 6350.029
165.4377, 6381.760
165.9198, 6401.107
166.4019, 6408.735
166.8840, 6369.547
167.3662, 6390.813
167.8483, 6387.852
168.3304, 6383.897
168.8125, 6413.672
169.2946, 6381.293
169.7767, 6410.532
170.2589, 6415.176
170.7410, 6431.076
171.2231, 6422.599
171.7052, 6421.651
172.1873, 6445.089
172.6694, 6398.073
173.1516, 6365.330
173.6337, 6341.635
174.1158, 6349.253
174.5979, 6381.846
175.0800, 6414.828
175.5621, 6429.560
176.0443, 6435.871
176.5264, 6450.998
177.0085, 6484.642
177.4906, 6519.771
177.9727, 6534.254
178.4548, 6529.553
178.9370, 6516.484
179.4191, 6496.226
179.9012, 6473.541
180.3833, 6460.129
180.8654, 6461.496
181.3475, 6472.422
181.8297, 6485.329
182.3118, 6500.298
182.7939, 6515.393
183.2760, 6528.899
183.7581, 6540.897
184.2402, 6553.344
184.7224, 6573.305
185.2045, 6593.108
185.6866, 6584.689
186.1687, 6543.884
186.6508, 6502.610
187.1329, 6504.571
187.6151, 6544.522
188.0972, 6579.229
188.5793, 6584.776
189.0614, 6568.136
189.5435, 6561.324
190.0257, 6565.786
190.5078, 6577.175
190.9899, 6591.425
191.4720, 6608.417
191.9541, 6624.161
192.4362, 6637.611
192.9183, 6648.604
193.4005, 6655.641
193.8826, 6658.537
194.3647, 6657.648
194.8468, 6652.424
195.3289, 6642.293
195.8110, 6632.233
196.2932, 6622.092
196.7753, 6611.718
197.2574, 6615.541
197.7395, 6641.476
198.2216, 6675.959
198.7037, 6680.912
199.1859, 6650.927
199.6680, 6614.706
200.1501, 6590.426
200.6322, 6578.752
201.1143, 6571.838
201.5964, 6570.101
202.0786, 6572.137
202.5607, 6572.874
203.0428, 6573.074
203.5249, 6570.487
204.0070, 6562.129
204.4891, 6546.882
204.9713, 6533.623
205.4534, 6523.142
205.9355, 6515.912
206.4176, 6516.701
206.8997, 6528.887
207.3818, 6542.155
207.8640, 6544.596
208.3461, 6532.238
208.8282, 6525.309
209.3103, 6531.208
209.7924, 6549.378
210.2745, 6555.200
210.7567, 6544.055
211.2388, 6527.293
211.7209, 6517.021
212.2030, 6512.813
212.6851, 6516.078
213.1672, 6531.148
213.6494, 6559.817
214.1315, 6571.766
214.6136, 6560.587
215.0957, 6539.526
215.5778, 6526.269
216.0599, 6523.392
216.5421, 6522.243
217.0242, 6518.612
217.5063, 6510.208
217.9884, 6515.079
218.4705, 6542.264
218.9526, 6575.624
219.4348, 6585.721
219.9169, 6561.646
220.3990, 6537.353
220.8811, 6525.334
221.3632, 6529.197
221.8453, 6531.988
222.3274, 6533.791
222.8096, 6534.639
223.2917, 6534.471
223.7738, 6532.928
224.2559, 6531.020
224.7380, 6528.751
225.2201, 6524.926
225.7023, 6524.096
226.1844, 6527.952
226.6665, 6534.033
227.1486, 6535.555
227.6307, 6527.309
228.1128, 6522.183
228.5950, 6527.704
229.0771, 6553.430
229.5592, 6566.257
230.0413, 6559.622
230.5234, 6540.658
231.0055, 6531.225
231.4877, 6537.684
231.9698, 6544.931
232.4519, 6544.889
232.9340, 6532.522
233.4161, 6524.512
233.8982, 6524.166
234.3804, 6528.916
234.8625, 6527.479
235.3446, 6515.085
235.8267, 6503.282
236.3088, 6499.423
236.7909, 6510.095
237.2731, 6514.813
237.7552, 6508.091
238.2373, 6493.748
238.7194, 6491.214
239.2015, 6506.669
239.6836, 6525.876
240.1658, 6540.272
240.6479, 6549.690
241.1300, 6553.398
241.6121, 6546.218
242.0942, 6531.191
242.5763, 6531.181
243.0585, 6555.663
243.5406, 6583.289
244.0227, 6599.591
244.5048, 6599.445
244.9869, 6598.176
245.4690, 6597.974
245.9512, 6598.476
246.4333, 6594.949
246.9154, 6583.982
247.3975, 6573.833
247.8796, 6570.526
248.3617, 6576.338
248.8439, 6585.320
249.3260, 6598.547
249.8081, 6615.401
250.2902, 6627.965
250.7723, 6632.318
251.2544, 6637.109
251.7366, 6650.621
252.2187, 6681.812
252.7008, 6700.947
253.1829, 6697.412
253.6650, 6673.978
254.1471, 6671.049
254.6292, 6699.192
255.1114, 6733.660
255.5935, 6753.860
256.0756, 6754.628
256.5577, 6753.158
257.0398, 6750.899
257.5219, 6748.173
258.0041, 6748.647
258.4862, 6753.612
258.9683, 6760.379
259.4504, 6768.053
259.9325, 6779.967
260.4146, 6783.809
260.8968, 6773.184
261.3789, 6750.409
261.8610, 6744.157
262.3431, 6759.880
262.8252, 6784.056
263.3073, 6806.467
263.7895, 6829.530
264.2716, 6843.587
264.7537, 6842.593
265.2358, 6828.996
265.7179, 6831.155
266.2000, 6857.024
266.6822, 6884.331
267.1643, 6890.128
267.6464, 6864.978
268.1285, 6852.088
268.6106, 6862.875
269.0927, 6893.973
269.5749, 6917.976
270.0570, 6931.230
270.5391, 6944.314
271.0212, 6970.033
271.5033, 7013.325
271.9854, 7044.845
272.4676, 7055.632
272.9497, 7049.256
273.4318, 7051.668
273.9139, 7064.849
274.3960, 7081.313
274.8781, 7094.981
275.3603, 7105.802
275.8424, 7113.759
276.3245, 7118.251
276.8066, 7119.880
277.2887, 7121.893
277.7708, 7124.674
278.2530, 7126.822
278.7351, 7125.947
279.2172, 7121.723
279.6993, 7121.384
280.1814, 7127.319
280.6635, 7138.076
281.1457, 7150.009
281.6278, 7164.530
282.1099, 7174.380
282.5920, 7168.981
283.0741, 7148.412
283.5562, 7136.604
284.0384, 7139.708
284.5205, 7153.912
285.0026, 7165.417
285.4847, 7173.043
285.9668, 7187.202
286.4489, 7223.700
286.9311, 7279.333
287.4132, 7319.688
287.8953, 7333.666
288.3774, 7332.200
288.8595, 7343.956
289.3416, 7369.493
289.8238, 7392.485
290.3059, 7397.496
290.7880, 7388.037
291.2701, 7381.797
291.7522, 7381.666
292.2343, 7387.039
292.7165, 7398.882
293.1986, 7416.854
293.6807, 7434.862
294.1628, 7448.666
294.6449, 7458.984
295.1270, 7468.092
295.6092, 7477.477
296.0913, 7484.172
296.5734, 7476.242
297.0555, 7456.755
297.5376, 7449.638
298.0197, 7486.886
298.5019, 7546.527
298.9839, 7581.186
299.4661, 7578.606
299.9482, 7559.002
300.4303, 7538.738
300.9124, 7520.382
301.3945, 7513.560
301.8766, 7532.491
302.3588, 7564.691
302.8409, 7590.546
303.3230, 7606.151
303.8051, 7618.711
304.2872, 7638.564
304.7693, 7661.853
305.2515, 7678.350
305.7336, 7672.488
306.2157, 7660.834
306.6978, 7663.651
307.1799, 7686.309
307.6620, 7712.696
308.1442, 7729.749
308.6263, 7740.705
309.1084, 7753.147
309.5905, 7778.833
310.0726, 7802.642
310.5547, 7808.685
311.0369, 7791.293
311.5190, 7777.110
312.0011, 7782.894
312.4832, 7802.822
312.9653, 7826.593
313.4474, 7863.291
313.9296, 7892.847
314.4117, 7897.084
314.8938, 7870.693
315.3759, 7849.605
315.8580, 7853.207
316.3401, 7870.657
316.8223, 7888.006
317.3044, 7896.474
317.7865, 7907.381
318.2686, 7928.801
318.7507, 7962.108
319.2328, 7988.777
319.7150, 8000.045
320.1971, 8003.151
320.6792, 8005.328
321.1613, 8013.196
321.6434, 8015.625
322.1255, 8006.447
322.6077, 7985.643
323.0898, 7969.457
323.5719, 7952.595
324.0540, 7945.844
324.5361, 7957.368
325.0182, 8023.334
325.5004, 8069.115
325.9825, 8075.141
326.4646, 8044.043
326.9467, 8020.745
327.4288, 8006.448
327.9109, 8000.724
328.3931, 8003.729
328.8752, 8026.883
329.3573, 8043.328
329.8394, 8050.044
330.3215, 8048.552
330.8036, 8045.911
331.2858, 8039.792
331.7679, 8035.291
332.2500, 8036.043
332.7321, 8049.918
333.2142, 8053.651
333.6964, 8044.700
334.1785, 8025.764
334.6606, 8001.741
335.1427, 7961.993
335.6248, 7936.052
336.1069, 7944.217
336.5891, 8003.715
337.0712, 8031.824
337.5533, 8017.072
338.0354, 7981.625
338.5175, 7968.420
338.9996, 7982.753
339.4818, 7998.938
339.9639, 8007.023
340.4460, 8006.901
340.9281, 8005.003
341.4102, 8001.720
341.8923, 7996.253
342.3745, 7986.004
342.8566, 7970.817
343.3387, 7957.221
343.8208, 7946.667
344.3029, 7939.489
344.7850, 7939.486
345.2672, 7947.397
345.7493, 7957.190
346.2314, 7962.049
346.7135, 7962.559
347.1956, 7962.464
347.6777, 7958.973
348.1599, 7957.500
348.6420, 7977.348
349.1241, 8017.647
349.6062, 8051.523
350.0883, 8042.668
350.5704, 8009.677
351.0526, 8000.036
351.5347, 8037.628
352.0168, 8087.821
352.4989, 8104.922
352.9810, 8093.701
353.4631, 8079.126
353.9453, 8075.291
354.4274, 8078.900
354.9095, 8085.246
355.3916, 8092.333
355.8737, 8104.777
356.3558, 8133.171
356.8380, 8170.769
357.3201, 8200.520
357.8022, 8205.558
358.2843, 8204.101
358.7664, 8211.770
359.2485, 8233.649
359.7307, 8252.099
360.2128, 8253.960
360.6949, 8247.119
361.1770, 8244.188
361.6591, 8262.296
362.1412, 8274.385
362.6233, 8266.560
363.1054, 8235.951
363.5876, 8200.197
364.0697, 8166.036
364.5518, 8127.989
365.0339, 8081.065
365.5160, 8000.960
365.9981, 7935.304
366.4803, 7899.262
366.9624, 7892.693
367.4445, 7888.537
367.9266, 7889.278
368.4087, 7889.206
368.8908, 7884.642
369.3730, 7876.483
369.8551, 7862.854
370.3372, 7841.225
370.8193, 7813.460
371.3014, 7788.256
371.7835, 7762.050
372.2657, 7742.890
372.7478, 7736.548
373.2299, 7750.187
373.7120, 7757.601
374.1941, 7756.248
374.6762, 7749.868
375.1584, 7747.799
375.6405, 7753.486
376.1226, 7753.288
376.6047, 7735.085
377.0868, 7696.976
377.5689, 7688.267
378.0511, 7718.106
378.5332, 7757.174
379.0153, 7765.329
379.4974, 7741.880
379.9795, 7712.635
380.4616, 7680.671
380.9438, 7649.811
381.4259, 7639.685
381.9080, 7651.172
382.3901, 7670.026
382.8722, 7685.901
383.3543, 7698.427
383.8365, 7706.699
384.3186, 7709.950
384.8007, 7709.264
385.2828, 7703.475
385.7649, 7693.689
386.2470, 7687.798
386.7292, 7693.587
387.2113, 7705.914
387.6934, 7719.249
388.1755, 7736.206
388.6576, 7744.861
389.1397, 7725.571
389.6219, 7689.760
390.1040, 7663.153
390.5861, 7671.624
391.0682, 7685.892
391.5503, 7681.408
392.0324, 7652.394
392.5146, 7627.376
392.9967, 7625.301
393.4788, 7633.629
393.9609, 7636.998
394.4430, 7627.953
394.9251, 7615.836
395.4073, 7604.507
395.8894, 7594.052
396.3715, 7579.680
396.8536, 7549.907
397.3357, 7522.343
397.8178, 7509.242
398.3000, 7537.458
398.7821, 7549.807
399.2642, 7537.212
399.7463, 7504.634
400.2284, 7470.425
400.7105, 7419.634
401.1927, 7384.117
401.6748, 7381.997
402.1569, 7437.534
402.6390, 7463.689
403.1211, 7445.729
403.6032, 7409.000
404.0854, 7402.038
404.5675, 7437.249
405.0496, 7466.031
405.5317, 7470.083
406.0138, 7450.056
406.4959, 7430.417
406.9781, 7410.631
407.4602, 7392.621
407.9423, 7377.997
408.4244, 7366.631
408.9065, 7360.022
409.3886, 7358.918
409.8708, 7362.417
410.3529, 7370.665
410.8350, 7383.437
411.3171, 7393.722
411.7992, 7395.848
412.2813, 7391.406
412.7635, 7382.898
413.2456, 7368.831
413.7277, 7356.396
414.2098, 7358.010
414.6919, 7368.802
415.1740, 7374.476
415.6562, 7365.524
416.1383, 7349.198
416.6204, 7329.416
417.1025, 7305.754
417.5846, 7289.581
418.0667, 7288.801
418.5489, 7299.520
419.0310, 7316.820
419.5131, 7353.642
419.9952, 7382.969
420.4773, 7386.428
420.9594, 7367.141
421.4416, 7358.818
421.9237, 7384.208
422.4058, 7414.116
422.8879, 7430.793
423.3700, 7418.821
423.8521, 7410.140
424.3342, 7407.811
424.8163, 7410.218
425.2985, 7413.592
425.7806, 7416.302
426.2627, 7421.843
426.7448, 7432.354
427.2269, 7449.620
427.7090, 7464.909
428.1912, 7481.586
428.6733, 7493.033
429.1554, 7487.799
429.6375, 7460.319
430.1196, 7439.445
430.6017, 7433.235
431.0839, 7439.125
431.5660, 7442.322
432.0481, 7442.259
432.5302, 7443.280
433.0123, 7448.953
433.4944, 7458.964
433.9766, 7470.523
434.4587, 7483.677
434.9408, 7497.285
435.4229, 7512.601
435.9050, 7528.062
436.3871, 7535.629
436.8693, 7518.525
437.3514, 7495.065
437.8335, 7498.186
438.3156, 7531.252
438.7977, 7563.044
439.2798, 7563.970
439.7620, 7548.333
440.2441, 7537.164
440.7262, 7542.309
441.2083, 7550.423
441.6904, 7553.793
442.1725, 7553.223
442.6547, 7553.244
443.1368, 7557.542
443.6189, 7561.753
444.1010, 7562.752
444.5831, 7557.197
445.0652, 7553.833
445.5474, 7556.462
446.0295, 7562.143
446.5116, 7565.377
446.9937, 7565.585
447.4758, 7563.795
447.9579, 7558.642
448.4401, 7549.178
448.9222, 7547.845
449.4043, 7562.083
449.8864, 7576.505
450.3685, 7575.440
450.8506, 7551.183
451.3328, 7537.307
451.8149, 7541.765
452.2970, 7558.096
452.7791, 7564.191
453.2612, 7558.896
453.7433, 7550.750
454.2255, 7542.780
454.7076, 7535.351
455.1897, 7532.514
455.6718, 7534.204
456.1539, 7540.825
456.6360, 7560.606
457.1182, 7587.596
457.6003, 7600.637
458.0824, 7578.958
458.5645, 7546.186
459.0466, 7536.606
459.5287, 7548.128
460.0109, 7560.692
460.4930, 7559.378
460.9751, 7552.507
461.4572, 7549.437
461.9393, 7554.678
462.4214, 7559.226
462.9036, 7556.485
463.3857, 7549.858
463.8678, 7546.298
464.3499, 7547.733
464.8320, 7552.829
465.3141, 7561.747
465.7963, 7574.934
466.2784, 7588.055
466.7605, 7601.695
467.2426, 7614.153
467.7247, 7623.743
468.2068, 7625.798
468.6890, 7632.981
469.1711, 7653.508
469.6532, 7680.038
470.1353, 7679.981
470.6174, 7638.923
471.0995, 7603.474
471.5817, 7599.854
472.0638, 7632.152
472.5459, 7658.229
473.0280, 7677.619
473.5101, 7692.660
473.9922, 7708.003
474.4744, 7723.035
474.9565, 7729.391
475.4386, 7720.570
475.9207, 7703.977
476.4028, 7691.681
476.8849, 7684.088
477.3671, 7685.199
477.8492, 7705.747
478.3313, 7734.198
478.8134, 7754.295
479.2955, 7762.967
479.7776, 7763.799
480.2598, 7747.254
480.7419, 7726.126
481.2240, 7723.009
481.7061, 7767.939
482.1882, 7814.649
482.6703, 7840.638
483.1525, 7845.110
483.6346, 7847.284
484.1167, 7848.667
484.5988, 7851.538
485.0809, 7857.440
485.5630, 7873.416
486.0451, 7883.541
486.5273, 7882.034
487.0094, 7875.905
487.4915, 7881.967
487.9736, 7908.322
488.4557, 7932.014
488.9378, 7943.854
489.4200, 7943.335
489.9021, 7953.605
490.3842, 7979.042
490.8663, 8002.997
491.3484, 8003.243
491.8305, 7980.953
492.3127, 7971.444
492.7948, 7983.776
493.2769, 8007.523
493.7590, 8027.095
494.2411, 8042.532
494.7232, 8053.910
495.2054, 8059.979
495.6875, 8062.779
496.1696, 8065.598
496.6517, 8068.860
497.1338, 8070.303
497.6159, 8062.881
498.0981, 8054.788
498.5802, 8056.129
499.0623, 8084.331
499.5444, 8107.804
500.0265, 8110.904
500.5086, 8098.140
500.9908, 8084.307
501.4729, 8060.530
501.9550, 8046.732
502.4371, 8055.773
502.9192, 8102.652
503.4013, 8126.488
503.8835, 8104.732
504.3656, 8076.000
504.8477, 8084.642
505.3298, 8151.024
505.8119, 8201.621
506.2940, 8220.875
506.7762, 8215.920
507.2583, 8211.272
507.7404, 8206.215
508.2225, 8206.846
508.7046, 8223.931
509.1867, 8252.746
509.6689, 8260.898
510.1510, 8244.718
510.6331, 8221.930
511.1152, 8212.324
511.5973, 8211.778
512.0795, 8209.157
512.5616, 8197.015
513.0437, 8184.840
513.5258, 8183.823
514.0079, 8191.281
514.4901, 8196.708
514.9722, 8188.292
515.4542, 8180.037
515.9363, 8185.373
516.4185, 8212.586
516.9006, 8227.008
517.3827, 8206.006
517.8648, 8172.952
518.3469, 8153.536
518.8290, 8164.938
519.3112, 8173.504
519.7933, 8170.482
520.2754, 8160.438
520.7575, 8168.098
521.2396, 8205.077
521.7217, 8238.024
522.2039, 8248.981
522.6860, 8234.979
523.1681, 8220.729
523.6502, 8204.931
524.1323, 8191.146
524.6144, 8183.436
525.0966, 8181.362
525.5787, 8184.960
526.0608, 8200.574
526.5429, 8214.149
527.0250, 8194.324
527.5071, 8147.961
527.9893, 8110.041
528.4714, 8111.589
528.9535, 8126.946
529.4356, 8128.330
529.9177, 8111.634
530.3998, 8096.885
530.8820, 8102.300
531.3641, 8112.482
531.8462, 8111.272
532.3283, 8076.916
532.8104, 8050.751
533.2925, 8044.547
533.7747, 8054.241
534.2568, 8064.172
534.7389, 8070.277
535.2210, 8080.521
535.7031, 8100.006
536.1852, 8131.258
536.6674, 8149.013
537.1495, 8146.749
537.6316, 8142.031
538.1137, 8156.349
538.5958, 8191.199
539.0779, 8211.680
539.5601, 8207.241
540.0422, 8193.105
540.5243, 8201.059
541.0064, 8227.781
541.4885, 8250.227
541.9706, 8251.983
542.4528, 8244.137
542.9349, 8243.627
543.4170, 8250.723
543.8991, 8254.180
544.3812, 8234.581
544.8633, 8212.956
545.3455, 8212.579
545.8276, 8253.618
546.3097, 8289.949
546.7918, 8301.094
547.2739, 8297.246
547.7560, 8298.244
548.2382, 8319.710
548.7203, 8332.286
549.2024, 8325.225
549.6845, 8298.989
550.1666, 8281.442
550.6487, 8272.162
551.1309, 8272.551
551.6130, 8288.138
552.0951, 8322.538
552.5772, 8341.997
553.0593, 8342.245
553.5414, 8333.815
554.0236, 8331.684
554.5057, 8335.066
554.9878, 8336.925
555.4699, 8331.705
555.9520, 8326.427
556.4341, 8332.882
556.9163, 8349.492
557.3984, 8367.901
557.8805, 8384.284
558.3626, 8399.379
558.8447, 8415.782
559.3268, 8435.917
559.8090, 8445.417
560.2911, 8424.591
560.7732, 8396.148
561.2553, 8383.572
561.7374, 8403.821
562.2195, 8424.454
562.7017, 8444.662
563.1838, 8462.231
563.6659, 8471.313
564.1480, 8469.119
564.6301, 8463.182
565.1122, 8453.546
565.5944, 8440.230
566.0765, 8439.705
566.5586, 8454.257
567.0407, 8472.051
567.5228, 8481.646
568.0049, 8485.121
568.4871, 8494.855
568.9692, 8516.386
569.4513, 8534.854
569.9334, 8522.969
570.4155, 8493.687
570.8976, 8478.861
571.3798, 8512.453
571.8619, 8549.785
572.3440, 8556.811
572.8261, 8537.091
573.3082, 8518.446
573.7903, 8508.166
574.2725, 8504.126
574.7546, 8505.263
575.2367, 8511.786
575.7188, 8523.273
576.2009, 8549.822
576.6830, 8573.906
577.1652, 8573.598
577.6473, 8537.261
578.1294, 8508.882
578.6115, 8494.585
579.0936, 8493.422
579.5757, 8510.408
580.0579, 8546.916
580.5400, 8572.031
581.0221, 8555.137
581.5042, 8516.478
581.9863, 8514.664
582.4684, 8549.996
582.9506, 8589.285
583.4327, 8606.482
583.9148, 8612.018
584.3969, 8620.103
584.8790, 8637.610
585.3611, 8648.395
585.8433, 8634.592
586.3254, 8611.223
586.8075, 8600.824
587.2896, 8620.418
587.7717, 8641.119
588.2538, 8659.755
588.7360, 8675.242
589.2181, 8678.957
589.7002, 8662.960
590.1823, 8647.673
590.6644, 8641.614
591.1465, 8644.675
591.6287, 8655.625
592.1108, 8674.451
592.5929, 8700.186
593.0750, 8741.148
593.5571, 8791.413
594.0392, 8817.513
594.5214, 8808.264
595.0035, 8783.084
595.4856, 8756.308
595.9677, 8731.653
596.4498, 8718.376
596.9319, 8735.870
597.4141, 8754.124
597.8962, 8749.432
598.3783, 8724.677
598.8604, 8708.613
599.3425, 8721.600
599.8246, 8737.124
600.3068, 8740.290
600.7889, 8724.651
601.2710, 8713.576
601.7531, 8706.157
602.2352, 8704.356
602.7173, 8711.984
603.1995, 8731.828
603.6816, 8745.993
604.1637, 8748.148
604.6458, 8747.800
605.1279, 8772.043
605.6100, 8818.061
606.0922, 8851.947
606.5743, 8849.891
607.0564, 8829.747
607.5385, 8813.742
608.0206, 8802.517
608.5027, 8801.550
608.9849, 8819.028
609.4670, 8845.418
609.9491, 8874.908
610.4312, 8911.288
610.9133, 8935.466
611.3954, 8934.882
611.8776, 8922.878
612.3597, 8913.757
612.8418, 8910.167
613.3239, 8906.165
613.8060, 8900.143
614.2881, 8894.241
614.7703, 8894.846
615.2524, 8903.468
615.7345, 8912.174
616.2166, 8916.966
616.6987, 8919.759
617.1808, 8928.275
617.6630, 8942.562
618.1451, 8957.927
618.6272, 8977.021
619.1093, 8992.728
619.5914, 8988.239
620.0735, 8956.864
620.5557, 8936.442
621.0378, 8962.050
621.5199, 9007.031
622.0020, 9042.083
622.4841, 9057.600
622.9662, 9064.279
623.4484, 9053.064
623.9305, 9034.757
624.4126, 9035.557
624.8947, 9068.767
625.3768, 9097.188
625.8589, 9109.273
626.3411, 9107.572
626.8232, 9114.335
627.3053, 9132.457
627.7874, 9141.384
628.2695, 9116.901
628.7516, 9071.694
629.2338, 9053.304
629.7159, 9067.051
630.1980, 9083.230
630.6801, 9070.038
631.1622, 9045.533
631.6443, 9037.153
632.1265, 9068.310
632.6086, 9087.291
633.0907, 9060.750
633.5728, 9007.744
634.0549, 8960.835
634.5370, 8931.526
635.0192, 8901.770
635.5013, 8861.771
635.9834, 8816.380
636.4655, 8799.012
636.9476, 8821.849
637.4297, 8841.658
637.9119, 8833.658
638.3939, 8800.078
638.8760, 8778.328
639.3582, 8768.697
639.8403, 8762.775
640.3224, 8754.776
640.8045, 8744.328
641.2866, 8728.300
641.7687, 8703.004
642.2509, 8684.440
642.7330, 8694.411
643.2151, 8715.962
643.6972, 8725.787
644.1793, 8702.130
644.6614, 8682.220
645.1436, 8677.715
645.6257, 8684.501
646.1078, 8688.788
646.5899, 8693.035
647.0720, 8690.783
647.5541, 8678.731
648.0363, 8657.762
648.5184, 8636.738
649.0005, 8614.864
649.4826, 8598.595
649.9647, 8598.193
650.4468, 8607.376
650.9290, 8603.410
651.4111, 8584.110
651.8932, 8563.382
652.3753, 8555.516
652.8574, 8553.498
653.3395, 8548.134
653.8217, 8534.925
654.3038, 8522.552
654.7859, 8513.816
655.2680, 8508.382
655.7501, 8505.926
656.2322, 8515.162
656.7144, 8516.094
657.1965, 8502.692
657.6786, 8479.211
658.1607, 8460.886
658.6428, 8448.497
659.1249, 8438.468
659.6071, 8427.124
660.0892, 8416.640
660.5713, 8418.288
661.0534, 8431.895
661.5355, 8450.811
662.0176, 8478.950
662.4998, 8505.373
662.9819, 8508.985
663.4640, 8482.291
663.9461, 8467.200
664.4282, 8497.457
664.9103, 8544.260
665.3925, 8580.459
665.8746, 8600.099
666.3567, 8609.076
666.8388, 8607.464
667.3209, 8595.969
667.8030, 8573.625
668.2852, 8536.029
668.7673, 8502.764
669.2494, 8478.755
669.7315, 8462.461
670.2136, 8449.710
670.6957, 8440.833
671.1779, 8437.777
671.6600, 8445.962
672.1421, 8458.833
672.6242, 8467.444
673.1063, 8472.114
673.5884, 8475.877
674.0706, 8485.114
674.5527, 8490.907
675.0348, 8485.879
675.5169, 8466.421
675.9990, 8446.211
676.4811, 8419.438
676.9633, 8397.947
677.4454, 8391.180
677.9275, 8403.438
678.4096, 8418.133
678.8917, 8437.548
679.3738, 8453.503
679.8560, 8450.951
680.3381, 8431.866
680.8202, 8412.605
681.3023, 8398.092
681.7844, 8385.550
682.2665, 8365.673
682.7487, 8344.245
683.2308, 8337.983
683.7129, 8368.818
684.1950, 8403.565
684.6771, 8428.357
685.1592, 8442.209
685.6414, 8444.201
686.1235, 8411.345
686.6056, 8389.354
687.0877, 8401.380
687.5698, 8452.225
688.0519, 8469.803
688.5341, 8444.400
689.0162, 8414.365
689.4983, 8418.748
689.9804, 8448.754
690.4625, 8448.531
690.9446, 8409.210
691.4268, 8368.589
691.9089, 8366.619
692.3910, 8386.736
692.8731, 8404.432
693.3552, 8412.723
693.8373, 8418.334
694.3195, 8425.401
694.8016, 8431.409
695.2837, 8431.958
695.7658, 8419.779
696.2479, 8410.958
696.7300, 8409.887
697.2122, 8412.791
697.6943, 8407.487
698.1764, 8392.231
698.6585, 8377.908
699.1406, 8368.788
699.6227, 8363.765
700.1049, 8358.480
700.5870, 8353.686
701.0691, 8355.408
701.5512, 8379.472
702.0333, 8404.701
702.5154, 8404.293
702.9976, 8375.994
703.4797, 8358.724
703.9618, 8389.742
704.4439, 8420.896
704.9260, 8415.748
705.4081, 8349.958
705.8903, 8315.276
706.3724, 8325.822
706.8545, 8347.757
707.3366, 8346.906
707.8187, 8322.392
708.3008, 8299.835
708.7830, 8282.607
709.2651, 8267.858
709.7472, 8245.924
710.2293, 8223.481
710.7114, 8218.784
711.1935, 8252.324
711.6757, 8284.066
712.1578, 8277.356
712.6399, 8249.801
713.1220, 8238.196
713.6041, 8268.112
714.0862, 8297.788
714.5684, 8317.296
715.0505, 8328.491
715.5326, 8340.991
716.0147, 8358.287
716.4968, 8366.343
716.9789, 8359.224
717.4611, 8338.050
717.9432, 8302.868
718.4253, 8254.458
718.9074, 8209.907
719.3895, 8171.652
719.8716, 8148.685
720.3538, 8161.494
720.8359, 8212.594
721.3180, 8250.553
721.8001, 8232.574
722.2822, 8204.636
722.7643, 8200.991
723.2465, 8238.322
723.7286, 8266.547
724.2107, 8287.309
724.6928, 8296.518
725.1749, 8283.779
725.6570, 8246.237
726.1392, 8229.991
726.6213, 8244.733
727.1034, 8266.753
727.5855, 8265.058
728.0676, 8245.766
728.5497, 8221.649
729.0319, 8186.672
729.5140, 8164.882
729.9961, 8187.563
730.4782, 8232.019
730.9603, 8256.566
731.4424, 8226.047
731.9246, 8204.021
732.4067, 8207.337
732.8888, 8227.635
733.3709, 8237.838
733.8530, 8236.042
734.3351, 8229.956
734.8173, 8218.157
735.2994, 8205.892
735.7815, 8214.937
736.2636, 8242.596
736.7457, 8265.132
737.2278, 8260.115
737.7100, 8247.912
738.1921, 8257.141
738.6742, 8285.937
739.1563, 8290.398
739.6384, 8207.092
740.1205, 8133.486
740.6027, 8134.786
741.0848, 8229.431
741.5669, 8286.722
742.0490, 8298.234
742.5311, 8289.322
743.0132, 8273.963
743.4954, 8252.897
743.9775, 8237.408
744.4596, 8227.848
744.9417, 8225.817
745.4238, 8242.912
745.9059, 8265.140
746.3881, 8267.811
746.8702, 8237.910
747.3523, 8212.185
747.8344, 8208.241
748.3165, 8217.828
748.7986, 8232.295
749.2808, 8275.019
749.7629, 8280.052
750.2450, 8220.638
750.7271, 8143.686
751.2092, 8137.224
751.6913, 8205.074
752.1735, 8242.167
752.6556, 8209.966
753.1377, 8159.306
753.6198, 8177.718
754.1019, 8241.964
754.5840, 8290.701
755.0662, 8280.341
755.5483, 8264.310
756.0304, 8275.174
756.5125, 8303.854
756.9946, 8322.658
757.4767, 8315.010
757.9589, 8312.264
758.4410, 8323.330
758.9231, 8344.734
759.4052, 8365.238
759.8873, 8387.477
760.3694, 8387.602
760.8516, 8333.694
761.3337, 8257.023
761.8158, 8237.956
762.2979, 8268.578
762.7800, 8297.548
763.2621, 8286.743
763.7442, 8267.559
764.2263, 8262.041
764.7084, 8271.961
765.1906, 8284.943
765.6727, 8303.221
766.1548, 8319.947
766.6369, 8334.672
767.1190, 8348.789
767.6011, 8338.760
768.0833, 8298.795
768.5654, 8259.823
769.0475, 8247.557
769.5296, 8255.027
770.0117, 8267.652
770.4938, 8284.758
770.9760, 8294.281
771.4581, 8279.335
771.9402, 8257.071
772.4223, 8241.847
772.9044, 8233.589
773.3865, 8240.151
773.8687, 8276.503
774.3508, 8316.578
774.8329, 8342.179
775.3150, 8354.763
775.7971, 8340.957
776.2792, 8292.343
776.7614, 8241.738
777.2435, 8236.856
777.7256, 8263.116
778.2077, 8278.803
778.6898, 8272.533
779.1719, 8261.803
779.6541, 8261.065
780.1362, 8263.676
780.6183, 8261.229
781.1004, 8241.846
781.5825, 8230.884
782.0646, 8238.260
782.5468, 8250.300
783.0289, 8243.638
783.5110, 8212.727
783.9931, 8196.661
784.4752, 8205.233
784.9573, 8226.037
785.4395, 8246.119
785.9216, 8261.598
786.4037, 8259.665
786.8858, 8224.011
787.3679, 8184.095
787.8500, 8151.680
788.3322, 8129.695
788.8143, 8123.582
789.2964, 8157.498
789.7785, 8179.458
790.2606, 8180.341
790.7427, 8164.417
791.2249, 8137.692
791.7070, 8097.015
792.1891, 8076.112
792.6712, 8096.807
793.1533, 8132.767
793.6354, 8133.941
794.1176, 8107.449
794.5997, 8078.437
795.0818, 8044.814
795.5639, 8026.025
796.0460, 8048.379
796.5281, 8099.048
797.0103, 8118.132
797.4924, 8074.627
797.9745, 8035.150
798.4566, 8019.558
798.9387, 8022.044
799.4208, 8014.816
799.9030, 7997.636
800.3851, 7978.063
800.8672, 7957.397
801.3493, 7938.217
801.8314, 7928.491
802.3135, 7925.556
802.7957, 7915.832
803.2778, 7884.641
803.7599, 7852.475
804.2420, 7829.612
804.7241, 7816.621
805.2062, 7806.596
805.6884, 7803.100
806.1705, 7795.377
806.6526, 7775.948
807.1347, 7747.930
807.6168, 7730.982
808.0989, 7724.820
808.5811, 7724.755
809.0632, 7737.135
809.5453, 7748.141
810.0274, 7737.010
810.5095, 7705.506
810.9916, 7677.222
811.4738, 7654.537
811.9559, 7643.931
812.4380, 7656.480
812.9201, 7692.942
813.4022, 7698.889
813.8843, 7665.513
814.3665, 7628.973
814.8486, 7610.878
815.3307, 7607.513
815.8128, 7601.541
816.2949, 7593.426
816.7770, 7591.013
817.2592, 7605.781
817.7413, 7624.396
818.2234, 7633.170
818.7055, 7630.603
819.1876, 7636.722
819.6697, 7662.478
820.1519, 7691.484
820.6340, 7720.206
821.1161, 7749.121
821.5982, 7756.086
822.0803, 7737.220
822.5624, 7724.389
823.0446, 7756.561
823.5267, 7806.179
824.0088, 7818.131
824.4909, 7790.701
824.9730, 7747.238
825.4551, 7671.586
825.9373, 7608.678
826.4194, 7594.325
826.9015, 7642.187
827.3836, 7674.271
827.8657, 7686.013
828.3478, 7688.304
828.8300, 7685.622
829.3121, 7678.108
829.7942, 7667.413
830.2763, 7653.111
830.7584, 7644.645
831.2405, 7634.908
831.7227, 7661.395
832.2048, 7675.500
832.6869, 7677.885
833.1690, 7633.454
833.6511, 7649.477
834.1332, 7641.272
834.6154, 7632.074
835.0975, 7656.606
835.5796, 7618.984
836.0617, 7642.980
836.5438, 7642.380
837.0259, 7653.037
837.5081, 7639.317
837.9902, 7633.126
838.4723, 7651.320
838.9544, 7656.012
839.4365, 7639.486
839.9186, 7650.858
840.4008, 7615.932
840.8829, 7575.157
841.3650, 7546.243
841.8471, 7534.013
842.3292, 7530.421
842.8113, 7532.420
843.2935, 7539.947
843.7756, 7554.945
844.2577, 7577.855
844.7398, 7593.409
845.2219, 7582.427
845.7040, 7562.456
846.1862, 7557.674
846.6683, 7567.949
847.1504, 7574.067
847.6325, 7561.339
848.1146, 7548.745
848.5967, 7546.654
849.0789, 7554.771
849.5610, 7555.004
850.0431, 7544.807
850.5252, 7536.179
851.0073, 7543.575
851.4894, 7556.545
851.9716, 7532.874
852.4537, 7479.752
852.9358, 7447.385
853.4179, 7493.888
853.9000, 7548.043
854.3821, 7561.641
854.8643, 7534.338
855.3464, 7512.958
855.8285, 7507.192
856.3106, 7497.412
856.7927, 7473.562
857.2748, 7439.986
857.7570, 7416.863
858.2391, 7404.088
858.7212, 7400.051
859.2033, 7413.265
859.6854, 7427.646
860.1675, 7422.839
860.6497, 7403.063
861.1318, 7387.716
861.6139, 7390.173
862.0960, 7389.841
862.5781, 7379.182
863.0602, 7360.458
863.5424, 7343.343
864.0245, 7327.822
864.5066, 7314.437
864.9887, 7305.783
865.4708, 7297.414
865.9529, 7281.241
866.4351, 7258.471
866.9172, 7232.555
867.3993, 7199.529
867.8814, 7170.120
868.3635, 7143.435
868.8456, 7088.916
869.3278, 7106.587
869.8099, 7111.879
870.2920, 7105.451
870.7741, 7052.206
871.2562, 7059.415
871.7383, 7042.397
872.2205, 7024.383
872.7026, 7040.102
873.1847, 6993.667
873.6668, 7008.849
874.1489, 6999.435
874.6310, 7001.279
875.1132, 6978.743
875.5953, 6963.739
876.0774, 6973.120
876.5595, 6968.998
877.0416, 6943.657
877.5237, 6946.217
878.0059, 6898.927
878.4880, 6895.381
878.9701, 6910.707
879.4522, 6886.592
879.9343, 6889.596
880.4164, 6865.321
880.8986, 6854.001
881.3807, 6854.014
881.8628, 6849.752
882.3449, 6833.602
882.8270, 6815.524
883.3091, 6806.899
883.7913, 6810.650
884.2734, 6800.231
884.7555, 6770.720
885.2375, 6740.619
885.7197, 6733.796
886.2018, 6738.737
886.6839, 6736.819
887.1660, 6724.599
887.6481, 6707.494
888.1302, 6681.469
888.6124, 6656.377
889.0945, 6640.013
889.5766, 6634.569
890.0587, 6625.741
890.5408, 6612.263
891.0229, 6598.869
891.5051, 6586.955
891.9872, 6578.312
892.4693, 6582.221
892.9514, 6598.145
893.4335, 6605.304
893.9156, 6588.026
894.3978, 6560.729
894.8799, 6527.096
895.3620, 6486.941
895.8441, 6470.386
896.3262, 6489.823
896.8083, 6504.001
897.2905, 6486.992
897.7726, 6451.653
898.2547, 6453.277
898.7368, 6484.395
899.2189, 6496.145
899.7010, 6438.419
900.1832, 6370.566
900.6653, 6334.951
901.1474, 6325.951
901.6295, 6313.414
902.1116, 6287.797
902.5938, 6270.197
903.0759, 6271.779
903.5580, 6279.274
904.0401, 6246.640
904.5222, 6180.858
905.0043, 6138.470
905.4865, 6155.243
905.9686, 6179.875
906.4507, 6159.132
906.9328, 6115.925
907.4149, 6090.307
907.8970, 6113.987
908.3792, 6125.595
908.8613, 6114.875
909.3434, 6095.185
909.8255, 6088.494
910.3076, 6093.589
910.7897, 6084.225
911.2719, 6053.992
911.7540, 6018.322
912.2361, 5986.526
912.7182, 5962.097
913.2003, 5950.653
913.6824, 5957.836
914.1646, 5966.280
914.6467, 5981.639
915.1288, 5988.713
915.6109, 5970.237
916.0930, 5923.770
916.5751, 5905.797
917.0573, 5918.854
917.5394, 5931.986
918.0215, 5912.262
918.5036, 5882.131
918.9857, 5867.711
919.4678, 5870.981
919.9500, 5879.518
920.4321, 5902.440
920.9142, 5915.793
921.3963, 5906.769
921.8784, 5878.588
922.3605, 5858.340
922.8427, 5846.039
923.3248, 5841.875
923.8069, 5853.098
924.2890, 5867.216
924.7711, 5869.371
925.2532, 5860.928
925.7354, 5846.166
926.2175, 5823.697
926.6996, 5797.651
927.1817, 5759.396
927.6638, 5722.917
928.1459, 5723.818
928.6281, 5765.552
929.1102, 5792.280
929.5923, 5787.398
930.0744, 5771.303
930.5565, 5773.668
931.0386, 5781.987
931.5208, 5772.940
932.0029, 5718.353
932.4850, 5687.091
932.9671, 5720.708
933.4492, 5764.234
933.9313, 5767.202
934.4135, 5724.256
934.8956, 5690.192
935.3777, 5667.978
935.8598, 5657.668
936.3419, 5667.219
936.8240, 5685.290
937.3062, 5696.224
937.7883, 5697.910
938.2704, 5699.616
938.7525, 5705.300
939.2346, 5710.864
939.7167, 5717.570
940.1989, 5724.196
940.6810, 5705.830
941.1631, 5660.478
941.6452, 5627.959
942.1273, 5646.487
942.6094, 5680.477
943.0916, 5683.962
943.5737, 5664.768
944.0558, 5649.710
944.5379, 5656.516
945.0200, 5657.380
945.5021, 5639.502
945.9843, 5615.426
946.4664, 5618.167
946.9485, 5647.905
947.4306, 5664.537
947.9127, 5655.355
948.3948, 5638.515
948.8770, 5631.254
949.3591, 5630.950
949.8412, 5634.696
950.3233, 5646.811
950.8054, 5652.556
951.2875, 5647.190
951.7697, 5638.476
952.2518, 5632.780
952.7339, 5630.134
953.2160, 5628.335
953.6981, 5627.595
954.1802, 5621.602
954.6624, 5594.774
955.1445, 5567.054
955.6266, 5559.935
956.1087, 5574.924
956.5908, 5591.796
957.0729, 5612.677
957.5551, 5626.548
958.0372, 5627.758
958.5193, 5619.481
959.0014, 5615.397
959.4835, 5615.155
959.9656, 5615.389
960.4478, 5616.977
960.9299, 5615.889
961.4120, 5603.606
961.8941, 5587.078
962.3762, 5580.994
962.8583, 5595.202
963.3405, 5608.145
963.8226, 5619.557
964.3047, 5626.380
964.7868, 5622.702
965.2689, 5610.035
965.7510, 5592.821
966.2332, 5569.590
966.7153, 5554.971
967.1974, 5567.154
967.6795, 5587.985
968.1616, 5603.054
968.6437, 5612.066
969.1259, 5607.023
969.6080, 5582.296
970.0901, 5558.907
970.5722, 5550.354
971.0543, 5553.707
971.5364, 5562.900
972.0186, 5576.522
972.5007, 5584.484
972.9828, 5582.112
973.4649, 5572.581
973.9470, 5550.197
974.4291, 5521.925
974.9113, 5510.026
975.3934, 5516.842
975.8755, 5530.158
976.3576, 5548.649
976.8397, 5567.740
977.3218, 5584.042
977.8040, 5595.078
978.2861, 5593.837
978.7682, 5568.693
979.2503, 5554.859
979.7324, 5578.600
980.2145, 5608.013
980.6967, 5618.367
981.1788, 5607.711
981.6609, 5590.111
982.1430, 5564.483
982.6251, 5547.488
983.1072, 5567.129
983.5894, 5594.773
984.0715, 5589.923
984.5536, 5554.651
985.0357, 5528.830
985.5178, 5523.003
985.9999, 5530.568
986.4821, 5555.380
986.9642, 5589.538
987.4463, 5607.681
987.9284, 5610.725
988.4105, 5607.312
988.8926, 5596.338
989.3748, 5587.630
989.8569, 5594.878
990.3390, 5608.092
990.8211, 5613.196
991.3032, 5605.172
991.7853, 5592.688
992.2675, 5573.068
992.7496, 5554.987
993.2317, 5547.668
993.7138, 5549.234
994.1959, 5556.633
994.6780, 5569.219
995.1602, 5573.844
995.6423, 5550.990
996.1244, 5527.604
996.6065, 5524.818
997.0886, 5539.363
997.5707, 5539.069
998.0529, 5519.665
998.5350, 5504.236
999.0171, 5501.589
999.4992, 5507.093
999.9813, 5516.226
1000.463, 5527.032
1000.946, 5535.273
1001.428, 5541.704
1001.910, 5541.778
1002.392, 5530.049
1002.874, 5514.710
1003.356, 5500.412
1003.838, 5486.242
1004.320, 5497.203
1004.802, 5537.359
1005.285, 5569.465
1005.767, 5550.675
1006.249, 5514.381
1006.731, 5491.320
1007.213, 5484.020
1007.695, 5487.748
1008.177, 5510.035
1008.659, 5528.129
1009.141, 5534.844
1009.624, 5531.926
1010.106, 5520.020
1010.588, 5502.046
1011.070, 5489.797
1011.552, 5490.879
1012.034, 5494.654
1012.516, 5492.805
1012.998, 5491.201
1013.481, 5499.126
1013.963, 5523.316
1014.445, 5533.666
1014.927, 5527.750
1015.409, 5513.278
1015.891, 5492.633
1016.373, 5470.584
1016.855, 5453.553
1017.337, 5442.441
1017.820, 5440.488
1018.302, 5456.551
1018.784, 5473.884
1019.266, 5486.738
1019.748, 5496.379
1020.230, 5510.175
1020.712, 5527.675
1021.194, 5534.750
1021.677, 5521.804
1022.159, 5506.187
1022.641, 5501.371
1023.123, 5505.192
1023.605, 5515.508
1024.087, 5545.542
1024.569, 5552.856
1025.051, 5529.008
1025.533, 5501.014
1026.016, 5491.611
1026.498, 5496.890
1026.980, 5507.623
1027.462, 5522.725
1027.944, 5538.370
1028.426, 5560.103
1028.908, 5573.572
1029.390, 5568.942
1029.873, 5551.184
1030.355, 5532.106
1030.837, 5511.216
1031.319, 5497.552
1031.801, 5495.390
1032.283, 5497.691
1032.765, 5499.330
1033.247, 5498.831
1033.729, 5492.455
1034.212, 5471.508
1034.694, 5467.321
1035.176, 5492.979
1035.658, 5517.164
1036.140, 5513.688
1036.622, 5488.887
1037.104, 5474.795
1037.586, 5470.932
1038.068, 5473.440
1038.551, 5490.434
1039.033, 5502.414
1039.515, 5492.333
1039.997, 5469.807
1040.479, 5459.784
1040.961, 5464.387
1041.443, 5470.035
1041.925, 5474.059
1042.408, 5479.897
1042.890, 5497.239
1043.372, 5516.807
1043.854, 5524.510
1044.336, 5516.195
1044.818, 5505.962
1045.300, 5493.759
1045.782, 5484.303
1046.265, 5481.128
1046.747, 5482.535
1047.229, 5483.496
1047.711, 5482.225
1048.193, 5468.069
1048.675, 5407.019
1049.157, 5361.737
1049.639, 5383.676
1050.121, 5439.000
1050.604, 5467.777
1051.086, 5464.366
1051.568, 5450.054
1052.050, 5422.459
1052.532, 5403.510
1053.014, 5430.123
1053.496, 5472.063
1053.978, 5483.814
1054.460, 5461.723
1054.943, 5444.040
1055.425, 5446.438
1055.907, 5446.512
1056.389, 5436.632
1056.871, 5420.585
1057.353, 5405.321
1057.835, 5392.627
1058.317, 5393.425
1058.800, 5419.465
1059.282, 5441.289
1059.764, 5434.466
1060.246, 5417.805
1060.728, 5410.971
1061.210, 5415.365
1061.692, 5428.374
1062.174, 5452.405
1062.656, 5466.411
1063.139, 5443.300
1063.621, 5408.857
1064.103, 5393.617
1064.585, 5396.275
1065.067, 5407.749
1065.549, 5440.010
1066.031, 5459.096
1066.513, 5456.024
1066.995, 5443.240
1067.478, 5438.634
1067.960, 5441.662
1068.442, 5454.354
1068.924, 5479.309
1069.406, 5493.722
1069.888, 5467.047
1070.370, 5440.691
1070.852, 5445.680
1071.334, 5478.760
1071.817, 5490.135
1072.299, 5478.574
1072.781, 5468.700
1073.263, 5473.757
1073.745, 5483.086
1074.227, 5487.095
1074.709, 5486.792
1075.191, 5483.680
1075.674, 5475.563
1076.156, 5468.773
1076.638, 5463.074
1077.120, 5459.747
1077.602, 5462.643
1078.084, 5468.235
1078.566, 5465.797
1079.048, 5456.387
1079.531, 5451.952
1080.013, 5463.718
1080.495, 5474.974
1080.977, 5481.179
1081.459, 5482.932
1081.941, 5481.511
1082.423, 5476.891
1082.905, 5467.364
1083.387, 5451.392
1083.870, 5436.285
1084.352, 5427.312
1084.834, 5421.901
1085.316, 5417.041
1085.798, 5412.066
1086.280, 5414.884
1086.762, 5427.024
1087.244, 5439.420
1087.726, 5452.602
1088.209, 5458.285
1088.691, 5432.388
1089.173, 5391.181
1089.655, 5368.562
1090.137, 5390.430
1090.619, 5409.961
1091.101, 5425.252
1091.583, 5435.010
1092.066, 5437.987
1092.548, 5434.519
1093.030, 5422.943
1093.512, 5404.373
1093.994, 5389.926
1094.476, 5387.775
1094.958, 5389.070
1095.440, 5390.453
1095.922, 5392.251
1096.405, 5395.694
1096.887, 5400.812
1097.369, 5405.867
1097.851, 5410.951
1098.333, 5413.607
1098.815, 5403.504
1099.297, 5395.284
1099.779, 5409.358
1100.261, 5451.203
1100.744, 5459.013
1101.226, 5422.464
1101.708, 5394.566
1102.190, 5403.051
1102.672, 5428.973
1103.154, 5447.831
1103.636, 5459.991
1104.118, 5466.543
1104.601, 5465.662
1105.083, 5461.776
1105.565, 5453.405
1106.047, 5445.627
1106.529, 5445.157
1107.011, 5448.994
1107.493, 5444.095
1107.975, 5431.436
1108.458, 5419.185
1108.940, 5406.168
1109.422, 5401.449
1109.904, 5415.965
1110.386, 5436.398
1110.868, 5437.952
1111.350, 5421.302
1111.832, 5410.827
1112.314, 5409.674
1112.797, 5417.375
1113.279, 5446.411
1113.761, 5473.665
1114.243, 5478.041
1114.725, 5460.110
1115.207, 5438.011
1115.689, 5407.927
1116.171, 5398.637
1116.653, 5428.959
1117.136, 5464.735
1117.618, 5451.104
1118.100, 5417.451
1118.582, 5408.378
1119.064, 5447.128
1119.546, 5471.636
1120.028, 5478.186
1120.510, 5474.253
1120.993, 5458.656
1121.475, 5438.770
1121.957, 5436.318
1122.439, 5445.941
1122.921, 5450.617
1123.403, 5426.358
1123.885, 5421.938
1124.367, 5462.582
1124.849, 5505.540
1125.332, 5498.898
1125.814, 5451.593
1126.296, 5412.468
1126.778, 5385.111
1127.260, 5375.116
1127.742, 5407.266
1128.224, 5435.538
1128.706, 5429.662
1129.188, 5404.912
1129.671, 5393.531
1130.153, 5395.563
1130.635, 5404.618
1131.117, 5420.914
1131.599, 5435.891
1132.081, 5443.129
1132.563, 5444.693
1133.045, 5442.389
1133.528, 5436.214
1134.010, 5420.140
1134.492, 5390.117
1134.974, 5374.490
1135.456, 5388.952
1135.938, 5414.167
1136.420, 5432.386
1136.902, 5442.015
1137.385, 5439.259
1137.867, 5412.525
1138.349, 5401.561
1138.831, 5410.024
1139.313, 5425.646
1139.795, 5448.971
1140.277, 5469.711
1140.759, 5458.340
1141.241, 5426.201
1141.724, 5405.549
1142.206, 5419.187
1142.688, 5430.601
1143.170, 5437.274
1143.652, 5437.102
1144.134, 5423.480
1144.616, 5401.181
1145.098, 5383.623
1145.580, 5372.813
1146.063, 5378.291
1146.545, 5428.479
1147.027, 5466.993
1147.509, 5471.838
1147.991, 5457.798
1148.473, 5451.464
1148.955, 5451.764
1149.437, 5451.099
1149.920, 5448.340
1150.402, 5444.351
1150.884, 5440.120
1151.366, 5434.300
1151.848, 5423.461
1152.330, 5410.188
1152.812, 5408.133
1153.294, 5417.171
1153.776, 5426.654
1154.259, 5434.571
1154.741, 5437.588
1155.223, 5421.832
1155.705, 5406.571
1156.187, 5418.513
1156.669, 5461.296
1157.151, 5473.115
1157.633, 5450.817
1158.115, 5429.161
1158.598, 5424.308
1159.080, 5430.005
1159.562, 5447.789
1160.044, 5468.634
1160.526, 5477.311
1161.008, 5468.382
1161.490, 5455.216
1161.972, 5435.970
1162.455, 5420.517
1162.937, 5422.280
1163.419, 5428.557
1163.901, 5414.050
1164.383, 5387.907
1164.865, 5380.345
1165.347, 5409.503
1165.829, 5437.654
1166.312, 5465.430
1166.794, 5480.910
1167.276, 5458.107
1167.758, 5419.072
1168.240, 5408.941
1168.722, 5427.042
1169.204, 5439.715
1169.686, 5428.851
1170.168, 5424.252
1170.651, 5435.092
1171.133, 5448.706
1171.615, 5438.709
1172.097, 5416.865
1172.579, 5414.469
1173.061, 5437.344
1173.543, 5456.933
1174.025, 5465.021
1174.507, 5463.768
1174.990, 5448.732
1175.472, 5429.135
1175.954, 5433.739
1176.436, 5454.351
1176.918, 5463.359
1177.400, 5449.747
1177.882, 5438.521
1178.364, 5447.051
1178.847, 5453.570
1179.329, 5441.525
1179.811, 5418.530
1180.293, 5430.764
1180.775, 5469.254
1181.257, 5487.333
1181.739, 5452.098
1182.221, 5421.581
1182.703, 5431.397
1183.186, 5450.878
1183.668, 5454.262
1184.150, 5442.707
1184.632, 5448.451
1185.114, 5468.616
1185.596, 5478.826
1186.078, 5447.086
1186.560, 5422.473
1187.042, 5436.496
1187.525, 5467.780
1188.007, 5495.598
1188.489, 5520.464
1188.971, 5524.378
1189.453, 5507.345
1189.935, 5489.914
1190.417, 5493.879
1190.899, 5493.954
1191.382, 5464.191
1191.864, 5424.472
1192.346, 5414.434
1192.828, 5436.367
1193.310, 5445.868
1193.792, 5438.345
1194.274, 5427.759
1194.756, 5419.159
1195.238, 5417.071
1195.721, 5430.360
1196.203, 5452.698
1196.685, 5464.381
1197.167, 5465.273
1197.649, 5452.364
1198.131, 5421.585
1198.613, 5401.846
1199.095, 5436.576
1199.578, 5479.280
1200.060, 5484.535
1200.542, 5458.190
1201.024, 5453.471
1201.506, 5472.252
1201.988, 5489.155
1202.470, 5499.209
1202.952, 5498.924
1203.434, 5470.273
1203.917, 5439.988
1204.399, 5440.753
1204.881, 5472.743
1205.363, 5488.599
1205.845, 5487.642
1206.327, 5478.462
1206.809, 5459.095
1207.291, 5444.932
1207.773, 5460.033
1208.256, 5484.326
1208.738, 5493.290
1209.220, 5484.924
1209.702, 5471.533
1210.184, 5451.901
1210.666, 5442.235
1211.148, 5455.716
1211.630, 5474.867
1212.113, 5486.118
1212.595, 5490.147
1213.077, 5487.064
1213.559, 5475.512
1214.041, 5464.722
1214.523, 5454.194
1215.005, 5448.012
1215.487, 5448.330
1215.969, 5454.506
1216.452, 5477.926
1216.934, 5502.377
1217.416, 5495.914
1217.898, 5443.956
1218.380, 5419.774
1218.862, 5426.845
1219.344, 5439.462
1219.826, 5437.274
1220.308, 5433.564
1220.791, 5439.345
1221.273, 5453.068
1221.755, 5471.084
1222.237, 5495.334
1222.719, 5513.598
1223.201, 5525.154
1223.683, 5529.383
1224.165, 5516.171
1224.648, 5503.862
1225.130, 5521.457
1225.612, 5551.372
1226.094, 5532.953
1226.576, 5450.427
1227.058, 5417.702
1227.540, 5450.767
1228.022, 5492.495
1228.505, 5496.570
1228.987, 5485.416
1229.469, 5472.008
1229.951, 5459.435
1230.433, 5453.617
1230.915, 5454.510
1231.397, 5467.733
1231.879, 5495.964
1232.361, 5521.258
1232.844, 5534.572
1233.326, 5532.920
1233.808, 5502.151
1234.290, 5453.833
1234.772, 5434.495
1235.254, 5445.487
1235.736, 5441.493
1236.218, 5408.899
1236.700, 5387.170
1237.183, 5432.111
1237.665, 5481.465
1238.147, 5478.705
1238.629, 5438.139
1239.111, 5420.967
1239.593, 5426.465
1240.075, 5429.014
1240.557, 5420.886
1241.040, 5415.006
1241.522, 5425.960
1242.004, 5438.479
1242.486, 5439.694
1242.968, 5433.100
1243.450, 5439.385
1243.932, 5456.952
1244.414, 5470.039
1244.896, 5473.894
1245.379, 5471.896
1245.861, 5458.968
1246.343, 5447.685
1246.825, 5446.309
1247.307, 5453.432
1247.789, 5462.478
1248.271, 5473.353
1248.753, 5486.836
1249.235, 5507.314
1249.718, 5519.143
1250.200, 5500.556
1250.682, 5485.449
1251.164, 5499.588
1251.646, 5533.114
1252.128, 5538.103
1252.610, 5518.680
1253.092, 5488.373
1253.575, 5439.780
1254.057, 5410.032
1254.539, 5421.104
1255.021, 5444.488
1255.503, 5471.593
1255.985, 5495.924
1256.467, 5482.767
1256.949, 5446.527
1257.432, 5433.448
1257.914, 5479.997
1258.396, 5509.813
1258.878, 5504.766
1259.360, 5489.986
1259.842, 5480.375
1260.324, 5474.246
1260.806, 5462.917
1261.288, 5451.551
1261.771, 5454.604
1262.253, 5498.182
1262.735, 5514.563
1263.217, 5491.458
1263.699, 5462.830
1264.181, 5451.521
1264.663, 5451.516
1265.145, 5455.581
1265.627, 5461.230
1266.110, 5462.622
1266.592, 5449.039
1267.074, 5451.905
1267.556, 5477.066
1268.038, 5496.454
1268.520, 5482.762
1269.002, 5456.952
1269.484, 5441.338
1269.967, 5436.107
1270.449, 5443.339
1270.931, 5466.385
1271.413, 5490.332
1271.895, 5516.347
1272.377, 5530.921
1272.859, 5512.878
1273.341, 5489.667
1273.823, 5486.156
1274.306, 5495.493
1274.788, 5503.277
1275.270, 5508.655
1275.752, 5517.392
1276.234, 5529.780
1276.716, 5534.061
1277.198, 5511.822
1277.680, 5489.981
1278.162, 5488.080
1278.645, 5495.836
1279.127, 5499.824
1279.609, 5500.097
1280.091, 5491.128
1280.573, 5473.785
1281.055, 5463.503
1281.537, 5478.665
1282.019, 5491.387
1282.502, 5486.700
1282.984, 5477.250
1283.466, 5478.651
1283.948, 5487.933
1284.430, 5486.737
1284.912, 5476.154
1285.394, 5468.078
1285.876, 5468.223
1286.359, 5471.817
1286.841, 5479.873
1287.323, 5486.767
1287.805, 5486.819
1288.287, 5480.817
1288.769, 5465.210
1289.251, 5443.925
1289.733, 5434.900
1290.215, 5459.756
1290.698, 5471.180
1291.180, 5462.599
1291.662, 5447.691
1292.144, 5433.071
1292.626, 5425.655
1293.108, 5441.064
1293.590, 5473.165
1294.072, 5498.414
1294.554, 5517.458
1295.037, 5518.345
1295.519, 5496.667
1296.001, 5475.015
1296.483, 5472.739
1296.965, 5480.315
1297.447, 5496.945
1297.929, 5514.234
1298.411, 5510.905
1298.894, 5482.194
1299.376, 5463.568
1299.858, 5456.913
1300.340, 5464.298
##END=



