##NAMES=Hilairite
##RRUFFID=R080098
##IDEAL CHEMISTRY=Na_2_Zr^4+^Si_3_O_9_&#183;3H_2_O
##LOCALITY=St. Hilaire, Quebec, Canada
##OWNER=RRUFF
##SOURCE=William W. Pinch
##DESCRIPTION=Pale orange rhombohedral crystals associated with calcite
##STATUS=The identification of this mineral has been confirmed only by single crystal X-ray diffraction.
##URL=rruff.info/R080098
92.52344, 251.4703
93.00555, 249.7929
93.48767, 250.0879
93.96979, 257.3330
94.45190, 265.3776
94.93402, 273.8801
95.41614, 278.3731
95.89825, 279.4051
96.38037, 278.9492
96.86249, 277.2811
97.34460, 275.3116
97.82672, 273.2684
98.30884, 271.2811
98.79095, 269.3568
99.27307, 267.1724
99.75519, 264.6966
100.2373, 262.8426
100.7194, 261.6290
101.2015, 260.1114
101.6837, 257.7596
102.1658, 255.4056
102.6479, 253.6057
103.1300, 252.3447
103.6121, 251.5086
104.0942, 251.2499
104.5764, 251.3057
105.0585, 251.3355
105.5406, 251.3572
106.0227, 251.2617
106.5048, 250.6484
106.9869, 249.0324
107.4691, 247.4078
107.9512, 246.2199
108.4333, 245.3922
108.9154, 244.7265
109.3975, 244.0375
109.8796, 243.2810
110.3618, 242.7329
110.8439, 242.5941
111.3260, 242.4772
111.8081, 242.1931
112.2902, 241.7310
112.7723, 241.2146
113.2544, 240.8114
113.7366, 240.5255
114.2187, 240.3822
114.7008, 240.5590
115.1829, 240.7752
115.6650, 240.7944
116.1471, 240.5326
116.6293, 240.0342
117.1114, 239.3388
117.5935, 238.2017
118.0756, 237.3322
118.5577, 237.0466
119.0398, 237.1630
119.5220, 237.2346
120.0041, 237.0220
120.4862, 236.6768
120.9683, 236.5427
121.4504, 236.6973
121.9325, 236.9198
122.4147, 237.0798
122.8968, 237.1812
123.3789, 237.1539
123.8610, 236.9739
124.3431, 236.6296
124.8252, 236.0325
125.3074, 235.0538
125.7895, 233.9295
126.2716, 233.1652
126.7537, 232.9243
127.2358, 232.7923
127.7179, 232.6429
128.2001, 232.4957
128.6822, 232.3750
129.1643, 232.2965
129.6464, 232.2590
130.1285, 232.2506
130.6107, 232.3972
131.0928, 232.4534
131.5749, 232.2633
132.0570, 231.9220
132.5391, 231.6667
133.0212, 231.7477
133.5034, 232.2795
133.9855, 232.3071
134.4676, 231.4694
134.9497, 230.5331
135.4318, 229.9130
135.9139, 229.6527
136.3960, 229.5431
136.8782, 229.3323
137.3603, 228.9675
137.8424, 228.8687
138.3245, 229.4366
138.8066, 230.1382
139.2887, 230.3171
139.7709, 229.7869
140.2530, 228.8978
140.7351, 227.9009
141.2172, 226.8022
141.6993, 226.0266
142.1814, 225.9135
142.6636, 226.3133
143.1457, 226.6996
143.6278, 227.0457
144.1099, 227.2330
144.5920, 227.1509
145.0741, 226.8044
145.5563, 226.3980
146.0384, 226.1256
146.5205, 226.0116
147.0026, 225.8322
147.4847, 225.4401
147.9668, 225.0415
148.4490, 224.7457
148.9311, 224.5772
149.4132, 224.4899
149.8953, 224.4281
150.3774, 224.4317
150.8595, 224.3713
151.3417, 224.1395
151.8238, 223.9031
152.3059, 223.8686
152.7880, 224.0992
153.2701, 224.4065
153.7522, 224.3094
154.2344, 223.1999
154.7165, 222.3501
155.1986, 221.9010
155.6807, 221.7061
156.1628, 221.5911
156.6449, 221.4734
157.1271, 221.3639
157.6092, 221.3135
158.0913, 221.4043
158.5734, 221.4528
159.0555, 221.4112
159.5376, 221.2891
160.0198, 221.0989
160.5019, 220.8210
160.9840, 220.4952
161.4661, 220.2666
161.9482, 220.2262
162.4303, 220.1839
162.9125, 219.9043
163.3946, 219.4046
163.8767, 219.1498
164.3588, 219.7756
164.8409, 220.7143
165.3230, 220.9540
165.8052, 219.8659
166.2873, 218.4305
166.7694, 218.1200
167.2515, 219.3326
167.7336, 220.2985
168.2157, 219.7778
168.6979, 218.6276
169.1800, 217.8378
169.6621, 217.9064
170.1442, 218.5480
170.6263, 218.9727
171.1084, 219.1164
171.5906, 219.1155
172.0727, 218.9442
172.5548, 218.6956
173.0369, 218.5067
173.5190, 218.4794
174.0011, 218.5821
174.4833, 218.5475
174.9654, 218.0173
175.4475, 217.7101
175.9296, 217.9741
176.4117, 218.5706
176.8938, 219.0737
177.3760, 219.1672
177.8581, 218.8437
178.3402, 218.3818
178.8223, 217.6138
179.3044, 216.8893
179.7865, 216.2865
180.2687, 215.8283
180.7508, 215.5683
181.2329, 215.6051
181.7150, 215.9864
182.1971, 215.9401
182.6792, 215.2255
183.1614, 214.3569
183.6435, 213.5659
184.1256, 212.8859
184.6077, 212.2977
185.0898, 211.7651
185.5719, 211.3059
186.0541, 211.0581
186.5362, 211.1473
187.0183, 211.3789
187.5004, 211.6704
187.9825, 212.0287
188.4646, 212.1926
188.9468, 211.7720
189.4289, 210.9050
189.9110, 210.1254
190.3931, 209.4292
190.8752, 208.9273
191.3573, 208.8917
191.8395, 209.5098
192.3216, 210.1224
192.8037, 210.1853
193.2858, 209.8607
193.7679, 209.4736
194.2500, 209.0617
194.7322, 208.6883
195.2143, 208.5961
195.6964, 209.0050
196.1785, 209.3643
196.6606, 209.2453
197.1427, 208.8483
197.6249, 208.6238
198.1070, 208.9875
198.5891, 209.8552
199.0712, 210.3729
199.5533, 210.3535
200.0354, 210.1422
200.5176, 209.7126
200.9997, 209.1911
201.4818, 208.8354
201.9639, 208.9171
202.4460, 209.4541
202.9281, 209.6983
203.4103, 209.1909
203.8924, 208.7931
204.3745, 208.8717
204.8566, 209.3009
205.3387, 209.7080
205.8208, 209.7454
206.3030, 209.3521
206.7851, 209.1701
207.2672, 209.2482
207.7493, 209.4635
208.2314, 209.8671
208.7135, 210.3920
209.1957, 210.8783
209.6778, 211.1829
210.1599, 211.2878
210.6420, 211.3063
211.1241, 211.0915
211.6062, 210.9317
212.0884, 210.9652
212.5705, 211.1952
213.0526, 211.5709
213.5347, 212.0850
214.0168, 212.7625
214.4989, 213.2383
214.9811, 213.4350
215.4632, 213.5125
215.9453, 213.5071
216.4274, 213.4437
216.9095, 213.4642
217.3916, 213.7477
217.8737, 214.2921
218.3559, 214.5915
218.8380, 214.4767
219.3201, 214.2227
219.8022, 214.0569
220.2843, 213.9970
220.7664, 213.9463
221.2486, 213.7461
221.7307, 213.4798
222.2128, 213.4998
222.6949, 214.2610
223.1770, 215.1235
223.6591, 215.2274
224.1413, 214.4399
224.6234, 213.6686
225.1055, 213.7278
225.5876, 214.2592
226.0697, 214.6363
226.5518, 214.7079
227.0340, 214.5295
227.5161, 214.0563
227.9982, 213.1358
228.4803, 212.4548
228.9624, 212.6941
229.4445, 213.3518
229.9267, 213.7853
230.4088, 213.7044
230.8909, 213.3179
231.3730, 212.9887
231.8551, 212.6914
232.3372, 212.5280
232.8194, 212.6499
233.3015, 212.8816
233.7836, 213.0132
234.2657, 212.9391
234.7478, 212.7479
235.2299, 212.6236
235.7121, 212.5443
236.1942, 212.5917
236.6763, 212.9112
237.1584, 213.3010
237.6405, 213.4880
238.1227, 213.3157
238.6048, 212.6521
239.0869, 213.3782
239.5690, 213.8601
240.0511, 214.1111
240.5332, 213.4390
241.0154, 213.9588
241.4975, 214.0010
241.9796, 214.0235
242.4617, 214.7111
242.9438, 214.1733
243.4259, 214.8502
243.9081, 215.0423
244.3902, 215.4563
244.8723, 215.3897
245.3544, 215.4716
245.8365, 216.0342
246.3186, 216.3306
246.8008, 216.2087
247.2829, 216.6368
247.7650, 216.0822
248.2471, 216.3900
248.7292, 216.5503
249.2113, 216.8212
249.6935, 217.1821
250.1756, 217.5762
250.6577, 217.8864
251.1398, 217.9137
251.6219, 218.1545
252.1040, 218.8423
252.5862, 219.6058
253.0683, 220.1088
253.5504, 220.2544
254.0325, 220.1846
254.5146, 220.1106
254.9967, 219.8902
255.4789, 219.9774
255.9610, 220.7490
256.4431, 221.6102
256.9252, 221.9750
257.4073, 221.7258
257.8894, 221.2647
258.3716, 221.1101
258.8537, 221.3371
259.3358, 221.7872
259.8179, 222.7504
260.3000, 223.7666
260.7821, 224.3573
261.2643, 224.4605
261.7464, 224.4913
262.2285, 224.9156
262.7106, 225.8454
263.1927, 226.7074
263.6748, 227.5527
264.1570, 228.2856
264.6391, 228.7951
265.1212, 229.0762
265.6033, 229.2265
266.0854, 229.2480
266.5675, 229.1487
267.0497, 229.4232
267.5318, 230.6018
268.0139, 231.7957
268.4960, 232.0244
268.9781, 231.3041
269.4602, 230.9157
269.9424, 232.0953
270.4245, 234.5590
270.9066, 236.0491
271.3887, 235.7408
271.8708, 235.0339
272.3529, 234.9307
272.8351, 235.4165
273.3172, 236.1080
273.7993, 236.8758
274.2814, 237.6594
274.7635, 238.2998
275.2456, 238.7855
275.7278, 239.1355
276.2099, 239.2786
276.6920, 239.2464
277.1741, 239.3255
277.6562, 239.7810
278.1383, 240.3356
278.6205, 240.4528
279.1026, 240.0172
279.5847, 239.3966
280.0668, 238.7735
280.5489, 238.1510
281.0310, 237.5485
281.5132, 236.9005
281.9953, 236.3639
282.4774, 236.2696
282.9595, 236.7525
283.4416, 236.8931
283.9237, 235.8034
284.4059, 233.8136
284.8880, 232.3707
285.3701, 232.1092
285.8522, 232.1180
286.3343, 231.4277
286.8164, 230.0735
287.2986, 228.5838
287.7807, 227.0380
288.2628, 225.5494
288.7449, 224.5616
289.2270, 224.3216
289.7091, 224.2574
290.1913, 223.9159
290.6734, 223.3502
291.1555, 222.7190
291.6376, 222.0159
292.1197, 221.3102
292.6018, 220.8013
293.0840, 220.6024
293.5661, 220.3582
294.0482, 219.7821
294.5303, 219.0055
295.0124, 218.2379
295.4945, 217.4912
295.9767, 216.8440
296.4588, 216.4538
296.9409, 216.3575
297.4230, 216.3962
297.9051, 216.5912
298.3872, 216.8432
298.8694, 217.0585
299.3515, 217.2570
299.8336, 217.3289
300.3157, 217.0031
300.7978, 216.1674
301.2799, 215.6072
301.7621, 215.9520
302.2442, 216.5460
302.7263, 216.7765
303.2084, 216.4875
303.6905, 216.1113
304.1726, 216.1537
304.6548, 216.6387
305.1369, 216.9456
305.6190, 216.6961
306.1011, 216.4049
306.5832, 216.5105
307.0653, 217.0309
307.5475, 217.5977
308.0296, 217.8935
308.5117, 217.9439
308.9938, 218.0809
309.4759, 218.4914
309.9580, 218.8132
310.4402, 218.8034
310.9223, 217.9864
311.4044, 218.5199
311.8865, 218.8093
312.3686, 218.8677
312.8507, 218.0031
313.3329, 218.3303
313.8150, 218.1799
314.2971, 218.0099
314.7792, 218.5049
315.2613, 217.7745
315.7434, 218.2590
316.2256, 217.6088
316.7077, 218.1925
317.1898, 218.5320
317.6719, 218.6405
318.1540, 217.8260
318.6361, 218.2034
319.1183, 218.1031
319.6004, 217.9833
320.0825, 218.5284
320.5646, 217.8482
321.0467, 218.6011
321.5288, 218.6969
322.0110, 218.6952
322.4931, 218.6184
322.9752, 218.4445
323.4573, 218.1674
323.9394, 217.9129
324.4215, 217.8355
324.9037, 217.9306
325.3858, 217.9526
325.8679, 217.8630
326.3500, 217.6733
326.8321, 217.3898
327.3142, 217.0197
327.7964, 216.6003
328.2785, 216.1881
328.7606, 215.7579
329.2427, 215.1506
329.7248, 214.2360
330.2069, 213.3587
330.6891, 212.7999
331.1712, 212.4271
331.6533, 211.9616
332.1354, 211.3059
332.6175, 210.4656
333.0996, 209.3903
333.5818, 207.9779
334.0639, 206.6445
334.5460, 205.7148
335.0281, 204.9443
335.5102, 204.0712
335.9923, 203.0094
336.4745, 201.8568
336.9566, 200.7838
337.4387, 199.8159
337.9208, 198.5408
338.4029, 196.4349
338.8850, 194.2424
339.3671, 192.7635
339.8492, 192.0944
340.3314, 191.5554
340.8135, 190.6797
341.2956, 189.4964
341.7777, 188.2067
342.2598, 186.7547
342.7419, 185.3367
343.2241, 184.0736
343.7062, 182.9603
344.1883, 182.0296
344.6704, 181.4221
345.1525, 180.9874
345.6346, 180.4093
346.1168, 179.6689
346.5989, 178.7985
347.0810, 177.6489
347.5631, 176.4007
348.0452, 175.3730
348.5273, 174.5849
349.0095, 174.1072
349.4916, 174.2797
349.9737, 175.1261
350.4558, 175.5048
350.9379, 174.6010
351.4200, 173.0618
351.9022, 171.9674
352.3843, 171.4646
352.8664, 171.1411
353.3485, 170.7248
353.8306, 170.2624
354.3127, 169.9914
354.7949, 170.1024
355.2770, 170.2123
355.7591, 169.7349
356.2412, 168.6858
356.7233, 167.7726
357.2054, 167.3054
357.6876, 167.1121
358.1697, 166.9351
358.6518, 166.7416
359.1339, 166.5710
359.6160, 166.5371
360.0981, 166.5786
360.5803, 166.3686
361.0624, 165.5001
361.5445, 164.6432
362.0266, 164.4133
362.5087, 164.7554
362.9908, 165.2011
363.4730, 165.5756
363.9551, 165.8156
364.4372, 165.7533
364.9193, 165.1952
365.4014, 164.6850
365.8835, 164.5193
366.3657, 164.5529
366.8478, 164.4601
367.3299, 164.1084
367.8120, 163.7034
368.2941, 163.6019
368.7762, 163.8860
369.2584, 164.0825
369.7405, 163.9798
370.2226, 163.8463
370.7047, 164.0497
371.1868, 164.6036
371.6689, 165.0479
372.1511, 164.9320
372.6332, 164.2223
373.1153, 163.7178
373.5974, 163.4998
374.0795, 163.3802
374.5616, 163.3387
375.0438, 163.3259
375.5259, 163.1939
376.0080, 162.8303
376.4901, 162.3665
376.9722, 162.2818
377.4543, 163.3338
377.9365, 163.7855
378.4186, 162.9052
378.9007, 161.5864
379.3828, 160.8185
379.8649, 160.8701
380.3470, 161.3445
380.8292, 161.7149
381.3113, 161.9942
381.7934, 162.1031
382.2755, 161.8649
382.7576, 161.6327
383.2397, 161.5637
383.7219, 161.6790
384.2040, 162.0162
384.6861, 162.6714
385.1682, 163.5893
385.6503, 163.8377
386.1324, 162.6347
386.6146, 161.6006
387.0967, 160.9630
387.5788, 160.6723
388.0609, 160.6830
388.5430, 160.9746
389.0251, 161.4404
389.5073, 161.8919
389.9894, 162.4152
390.4715, 162.7270
390.9536, 162.6794
391.4357, 162.5500
391.9178, 162.5462
392.4000, 162.6622
392.8821, 162.7150
393.3642, 162.4617
393.8463, 161.8836
394.3284, 161.6122
394.8105, 161.8940
395.2927, 162.2138
395.7748, 162.4284
396.2569, 162.5544
396.7390, 162.6229
397.2211, 162.6338
397.7032, 162.6309
398.1854, 162.7354
398.6675, 163.0096
399.1496, 163.2045
399.6317, 163.2096
400.1138, 163.1352
400.5959, 162.9729
401.0781, 162.7316
401.5602, 162.6765
402.0423, 163.2486
402.5244, 164.3602
403.0065, 165.0046
403.4886, 164.8598
403.9708, 164.5120
404.4529, 164.2969
404.9350, 164.2139
405.4171, 164.2744
405.8992, 164.5646
406.3813, 164.9599
406.8635, 165.2960
407.3456, 165.5796
407.8277, 165.7351
408.3098, 165.6219
408.7919, 165.4056
409.2740, 165.3816
409.7562, 165.6381
410.2383, 165.8973
410.7204, 165.9560
411.2025, 165.8829
411.6846, 165.9018
412.1667, 166.1017
412.6489, 166.3120
413.1310, 166.2176
413.6131, 165.8227
414.0952, 165.7649
414.5773, 166.4682
415.0594, 167.3438
415.5416, 167.8264
416.0237, 167.9184
416.5058, 167.9658
416.9879, 168.1960
417.4700, 168.5674
417.9521, 168.8512
418.4343, 168.8670
418.9164, 169.0228
419.3985, 169.6523
419.8806, 170.4235
420.3627, 170.7407
420.8448, 170.4206
421.3270, 169.9626
421.8091, 170.1538
422.2912, 171.3983
422.7733, 172.1206
423.2554, 171.9176
423.7375, 171.5859
424.2197, 171.4872
424.7018, 171.6716
425.1839, 172.1445
425.6660, 172.9563
426.1481, 174.0144
426.6302, 174.6986
427.1124, 174.7291
427.5945, 174.6904
428.0766, 174.5195
428.5587, 174.3818
429.0408, 174.4464
429.5229, 174.7607
430.0051, 175.2303
430.4872, 175.7566
430.9693, 176.3758
431.4514, 176.8936
431.9335, 177.2902
432.4156, 177.5935
432.8978, 177.7331
433.3799, 177.7827
433.8620, 177.9150
434.3441, 178.2530
434.8262, 178.7332
435.3083, 179.1778
435.7905, 179.5810
436.2726, 179.9589
436.7547, 180.2837
437.2368, 180.6052
437.7189, 180.9812
438.2010, 181.4265
438.6832, 181.8599
439.1653, 182.2477
439.6474, 182.5751
440.1295, 182.7047
440.6116, 182.4561
441.0938, 182.3163
441.5759, 182.8724
442.0580, 183.9023
442.5401, 184.7348
443.0222, 185.1543
443.5043, 185.3111
443.9865, 185.2806
444.4686, 185.0856
444.9507, 184.9182
445.4328, 184.8796
445.9149, 184.9117
446.3970, 184.8969
446.8792, 184.8698
447.3613, 184.7228
447.8434, 184.3389
448.3255, 183.8600
448.8076, 183.3863
449.2897, 182.6971
449.7719, 182.8595
450.2540, 182.7778
450.7361, 182.4651
451.2182, 181.2294
451.7003, 181.1856
452.1824, 180.6641
452.6646, 180.1230
453.1467, 180.2469
453.6288, 179.1454
454.1109, 179.2588
454.5930, 178.8873
455.0751, 178.7376
455.5573, 178.4304
456.0394, 178.3326
456.5215, 177.7288
457.0036, 176.9989
457.4857, 176.3028
457.9678, 175.6800
458.4500, 175.1367
458.9321, 174.6885
459.4142, 174.3210
459.8963, 173.9191
460.3784, 173.3183
460.8605, 172.9937
461.3427, 173.3731
461.8248, 173.8883
462.3069, 173.9728
462.7890, 173.4859
463.2711, 172.7339
463.7532, 171.8743
464.2354, 170.9365
464.7175, 170.5030
465.1996, 171.0245
465.6817, 171.4408
466.1638, 170.7354
466.6459, 169.3409
467.1281, 168.3515
467.6102, 168.2668
468.0923, 168.6179
468.5744, 169.0468
469.0565, 169.5285
469.5386, 169.7565
470.0208, 169.5360
470.5029, 169.0925
470.9850, 168.8021
471.4671, 168.6559
471.9492, 168.6247
472.4313, 168.7803
472.9135, 169.0010
473.3956, 169.1463
473.8777, 169.2103
474.3598, 169.3040
474.8419, 169.5422
475.3240, 169.8892
475.8062, 169.9715
476.2883, 169.5865
476.7704, 169.2283
477.2525, 168.9070
477.7346, 168.7059
478.2167, 168.7666
478.6989, 169.1084
479.1810, 169.5541
479.6631, 169.8742
480.1452, 170.0249
480.6273, 170.2639
481.1094, 170.7742
481.5916, 171.1815
482.0737, 171.1900
482.5558, 171.0408
483.0379, 171.1923
483.5200, 171.8988
484.0021, 172.8378
484.4843, 173.3635
484.9664, 173.3734
485.4485, 173.4509
485.9306, 173.8109
486.4127, 174.1817
486.8948, 174.3222
487.3770, 174.2792
487.8591, 174.3437
488.3412, 174.5640
488.8233, 175.0373
489.3054, 176.1600
489.7875, 178.0257
490.2697, 179.5468
490.7518, 179.9659
491.2339, 179.7819
491.7160, 180.0676
492.1981, 180.9728
492.6802, 181.9019
493.1624, 182.4219
493.6445, 182.8740
494.1266, 183.8631
494.6087, 185.4824
495.0908, 187.1897
495.5729, 188.5268
496.0551, 189.4908
496.5372, 190.4200
497.0193, 190.8569
497.5014, 191.7840
497.9835, 193.8020
498.4656, 196.3916
498.9478, 198.8316
499.4299, 200.8851
499.9120, 202.8167
500.3941, 205.0301
500.8762, 207.6987
501.3583, 210.0140
501.8405, 211.3359
502.3226, 212.9493
502.8047, 215.3588
503.2868, 218.3909
503.7689, 221.6628
504.2510, 225.0250
504.7331, 228.4662
505.2152, 232.0575
505.6974, 235.8867
506.1795, 239.3610
506.6616, 242.0310
507.1437, 244.6017
507.6258, 247.3696
508.1079, 250.4370
508.5901, 254.1353
509.0722, 259.1653
509.5543, 264.6537
510.0364, 269.3513
510.5185, 273.2497
511.0006, 276.8367
511.4828, 280.0789
511.9649, 283.3654
512.4470, 287.6493
512.9291, 293.3324
513.4113, 298.4890
513.8934, 302.2414
514.3755, 305.4295
514.8576, 308.8070
515.3397, 312.4843
515.8218, 316.3753
516.3040, 320.5511
516.7861, 324.8503
517.2682, 328.0446
517.7503, 329.4562
518.2324, 330.5537
518.7145, 331.6841
519.1967, 332.4364
519.6788, 332.4664
520.1609, 331.6962
520.6430, 330.1997
521.1251, 328.0124
521.6072, 325.1274
522.0894, 321.8234
522.5715, 318.0991
523.0536, 313.9054
523.5357, 309.3064
524.0178, 304.2623
524.4999, 298.6175
524.9821, 292.2823
525.4642, 285.7836
525.9463, 279.4077
526.4284, 273.2391
526.9105, 267.5249
527.3926, 262.4407
527.8748, 257.5050
528.3569, 252.2476
528.8390, 246.8233
529.3211, 241.6941
529.8032, 236.8990
530.2853, 232.4406
530.7675, 228.4573
531.2496, 224.8081
531.7317, 221.1592
532.2138, 217.3934
532.6959, 213.8492
533.1780, 211.0108
533.6602, 209.0311
534.1423, 206.7801
534.6244, 203.9442
535.1065, 201.2060
535.5886, 198.7849
536.0707, 196.6459
536.5529, 194.8074
537.0350, 193.2750
537.5171, 191.7560
537.9992, 189.6945
538.4813, 186.8912
538.9634, 184.5960
539.4456, 183.1438
539.9277, 181.9323
540.4098, 180.7245
540.8919, 179.5535
541.3740, 178.5232
541.8561, 177.7225
542.3383, 176.9767
542.8204, 176.1320
543.3025, 175.1793
543.7846, 173.9598
544.2667, 172.2726
544.7488, 170.6291
545.2310, 169.7652
545.7131, 169.5752
546.1952, 169.0478
546.6773, 167.7010
547.1594, 166.2854
547.6415, 165.2602
548.1237, 164.5584
548.6058, 163.9970
549.0879, 163.5141
549.5700, 163.0151
550.0521, 162.3079
550.5342, 161.1936
551.0164, 160.5078
551.4985, 160.4868
551.9806, 160.5872
552.4627, 160.8030
552.9448, 160.9218
553.4269, 160.5255
553.9091, 159.3832
554.3912, 157.9756
554.8733, 157.1772
555.3554, 157.0779
555.8375, 156.9393
556.3196, 156.5659
556.8018, 156.2575
557.2839, 156.2827
557.7660, 156.5205
558.2481, 156.6410
558.7302, 156.5995
559.2123, 156.3060
559.6945, 155.5632
560.1766, 154.4583
560.6587, 153.3489
561.1408, 152.3074
561.6229, 151.4177
562.1050, 150.7910
562.5872, 150.4675
563.0693, 150.2305
563.5514, 149.9686
564.0335, 149.9053
564.5156, 150.3765
564.9977, 151.0814
565.4799, 151.5247
565.9620, 151.5038
566.4441, 151.0841
566.9262, 150.2493
567.4083, 148.7400
567.8904, 147.8707
568.3726, 148.1131
568.8547, 148.5446
569.3368, 149.0907
569.8189, 149.5576
570.3010, 149.6195
570.7831, 149.1111
571.2653, 148.4127
571.7474, 147.9238
572.2295, 147.6346
572.7116, 147.5094
573.1937, 147.6653
573.6758, 147.6745
574.1580, 146.9492
574.6401, 145.7400
575.1222, 145.0375
575.6043, 145.3143
576.0864, 145.6841
576.5685, 145.6880
577.0507, 145.5054
577.5328, 145.4660
578.0149, 145.6431
578.4970, 145.8127
578.9791, 145.7215
579.4612, 145.3566
579.9434, 145.0643
580.4255, 144.9156
580.9076, 144.7585
581.3897, 144.5986
581.8718, 144.3974
582.3539, 144.0686
582.8361, 143.6123
583.3182, 143.2027
583.8003, 143.0500
584.2824, 143.1147
584.7645, 143.0759
585.2466, 142.8477
585.7288, 142.7608
586.2108, 143.1313
586.6929, 143.6692
587.1750, 143.9330
587.6572, 143.8315
588.1393, 143.7214
588.6214, 143.7829
589.1035, 143.9193
589.5856, 144.0642
590.0677, 144.1852
590.5499, 144.1069
591.0320, 143.6756
591.5141, 143.0179
591.9962, 142.6115
592.4783, 142.7871
592.9604, 142.7557
593.4426, 142.3132
593.9247, 141.8272
594.4068, 141.5368
594.8889, 141.4402
595.3710, 141.4361
595.8531, 141.4845
596.3353, 141.5343
596.8174, 141.4118
597.2995, 141.0569
597.7816, 140.8977
598.2637, 141.1817
598.7458, 141.5287
599.2280, 141.5731
599.7101, 141.3740
600.1922, 141.2579
600.6743, 141.4980
601.1564, 141.7128
601.6385, 141.5378
602.1207, 141.0707
602.6028, 140.5403
603.0849, 140.0056
603.5670, 139.6588
604.0491, 139.8178
604.5313, 140.6356
605.0134, 140.9910
605.4955, 140.3671
605.9776, 139.9388
606.4597, 140.3001
606.9418, 140.9750
607.4240, 141.3051
607.9061, 141.1157
608.3882, 140.7856
608.8703, 140.8034
609.3524, 141.1260
609.8345, 141.1165
610.3167, 140.6234
610.7988, 140.1582
611.2809, 139.9323
611.7630, 139.9070
612.2451, 140.1230
612.7272, 140.6933
613.2094, 140.9891
613.6915, 140.3851
614.1736, 139.5378
614.6557, 139.3390
615.1378, 139.7797
615.6199, 140.2941
616.1021, 140.5588
616.5842, 140.6104
617.0663, 140.5437
617.5484, 140.2617
618.0305, 140.0193
618.5126, 139.7598
618.9948, 139.5864
619.4769, 139.6311
619.9590, 139.8050
620.4411, 139.9023
620.9232, 139.8108
621.4053, 139.6298
621.8875, 139.4615
622.3696, 139.3088
622.8517, 139.3911
623.3338, 139.8690
623.8159, 140.3506
624.2980, 140.5017
624.7802, 140.3906
625.2623, 140.2165
625.7444, 139.8354
626.2265, 139.6082
626.7086, 139.8435
627.1907, 140.2732
627.6729, 140.5416
628.1550, 140.5747
628.6371, 140.4383
629.1192, 140.1674
629.6013, 139.7873
630.0834, 139.4957
630.5656, 139.1050
631.0477, 139.1357
631.5298, 140.2017
632.0119, 141.2430
632.4940, 141.3596
632.9761, 140.6325
633.4583, 139.8810
633.9404, 139.6237
634.4225, 139.5945
634.9046, 139.2334
635.3867, 138.5965
635.8688, 138.5137
636.3510, 139.3980
636.8331, 140.5593
637.3152, 141.2024
637.7973, 141.2778
638.2794, 141.2285
638.7615, 140.8883
639.2437, 140.6163
639.7258, 140.5624
640.2079, 140.6663
640.6900, 140.8975
641.1721, 141.2188
641.6542, 141.4678
642.1364, 141.4271
642.6185, 141.1304
643.1006, 141.0471
643.5827, 141.2764
644.0648, 141.4985
644.5469, 141.6170
645.0291, 141.6670
645.5112, 141.6242
645.9933, 141.4916
646.4754, 141.4862
646.9575, 141.9407
647.4396, 142.4028
647.9218, 142.2056
648.4039, 141.5285
648.8860, 141.2168
649.3681, 141.6383
649.8502, 142.3476
650.3323, 142.6613
650.8145, 142.4671
651.2966, 142.3914
651.7787, 142.4433
652.2608, 142.5965
652.7429, 143.0479
653.2250, 143.5027
653.7072, 143.5294
654.1893, 143.0387
654.6714, 142.4663
655.1535, 142.1926
655.6356, 142.1651
656.1177, 142.2309
656.5999, 142.3965
657.0820, 142.5771
657.5641, 142.7864
658.0462, 142.9403
658.5283, 142.8301
659.0104, 142.3954
659.4926, 142.0667
659.9747, 142.0911
660.4568, 142.0623
660.9389, 141.5584
661.4210, 140.8320
661.9031, 140.4864
662.3853, 140.7425
662.8674, 141.1350
663.3495, 140.9474
663.8316, 140.1253
664.3137, 139.5824
664.7958, 139.4653
665.2780, 139.3610
665.7601, 139.1123
666.2422, 138.7624
666.7243, 138.2999
667.2064, 137.6948
667.6885, 137.2538
668.1707, 137.2820
668.6528, 137.4427
669.1349, 137.3886
669.6170, 137.1120
670.0991, 136.6669
670.5812, 136.0703
671.0634, 135.4116
671.5455, 134.8410
672.0276, 134.3773
672.5097, 133.9471
672.9918, 133.6414
673.4739, 133.2696
673.9561, 132.6584
674.4382, 132.0029
674.9203, 131.5765
675.4024, 131.4483
675.8845, 131.3806
676.3666, 131.2121
676.8488, 130.9602
677.3309, 130.6311
677.8130, 130.2284
678.2951, 129.8731
678.7772, 129.6296
679.2593, 129.4464
679.7415, 129.2228
680.2236, 128.9268
680.7057, 128.6922
681.1878, 128.5806
681.6699, 128.4610
682.1520, 128.2646
682.6342, 128.0236
683.1163, 127.7486
683.5984, 127.4537
684.0805, 127.2750
684.5626, 127.5271
685.0447, 128.0636
685.5269, 127.9932
686.0090, 127.1789
686.4911, 126.4641
686.9732, 126.2546
687.4553, 126.3064
687.9374, 126.2070
688.4196, 125.9248
688.9017, 125.7938
689.3838, 126.1758
689.8659, 126.4140
690.3480, 125.9132
690.8301, 125.0533
691.3123, 124.5150
691.7944, 124.5095
692.2765, 124.7282
692.7586, 124.8584
693.2407, 124.8974
693.7228, 124.7638
694.2050, 124.3219
694.6871, 124.0723
695.1692, 124.2779
695.6513, 124.6986
696.1334, 125.1629
696.6155, 125.6619
697.0977, 125.9007
697.5798, 125.6595
698.0619, 125.2545
698.5440, 124.7954
699.0261, 124.3734
699.5082, 124.2343
699.9904, 124.4215
700.4725, 124.5720
700.9546, 124.2217
701.4367, 123.4353
701.9188, 123.2583
702.4009, 124.0950
702.8831, 124.7380
703.3652, 124.7170
703.8473, 124.5203
704.3294, 124.5009
704.8115, 124.6466
705.2936, 124.7468
705.7758, 124.6892
706.2579, 124.5826
706.7400, 124.4702
707.2221, 124.3843
707.7042, 124.4258
708.1863, 124.6102
708.6685, 124.7895
709.1506, 124.8162
709.6327, 124.7223
710.1148, 124.7597
710.5969, 125.0339
711.0790, 125.2458
711.5612, 125.3601
712.0433, 125.4022
712.5254, 125.2896
713.0075, 125.1115
713.4896, 125.1346
713.9717, 125.5385
714.4539, 126.0314
714.9360, 126.3969
715.4181, 126.6484
715.9002, 126.7591
716.3823, 126.7394
716.8644, 126.8036
717.3466, 127.1303
717.8287, 127.6295
718.3108, 127.9764
718.7929, 128.1470
719.2750, 128.2017
719.7571, 128.0421
720.2393, 127.8743
720.7214, 127.6729
721.2035, 127.5668
721.6856, 127.8739
722.1677, 128.7962
722.6498, 129.6039
723.1320, 129.4823
723.6141, 128.8731
724.0962, 128.7234
724.5783, 129.0780
725.0604, 129.4085
725.5425, 129.4290
726.0247, 129.2581
726.5068, 129.1237
726.9889, 128.9946
727.4710, 129.0020
727.9531, 129.5112
728.4352, 129.7389
728.9174, 129.0536
729.3995, 128.1131
729.8816, 127.8722
730.3637, 128.5116
730.8458, 129.1233
731.3279, 128.9814
731.8101, 128.4565
732.2922, 128.1376
732.7743, 128.0072
733.2564, 127.8449
733.7385, 127.5665
734.2206, 127.2541
734.7028, 127.0041
735.1849, 126.8155
735.6670, 126.7012
736.1491, 126.6831
736.6312, 126.7154
737.1133, 127.0059
737.5955, 127.1874
738.0776, 126.7889
738.5597, 125.9120
739.0418, 125.2411
739.5239, 125.2499
740.0060, 125.4727
740.4882, 125.3231
740.9703, 124.9404
741.4524, 124.7844
741.9345, 124.9497
742.4166, 125.1737
742.8987, 125.2555
743.3809, 125.2017
743.8630, 125.0412
744.3451, 124.7023
744.8272, 124.3850
745.3093, 124.0989
745.7914, 123.8369
746.2736, 123.5937
746.7557, 123.3730
747.2378, 123.1375
747.7199, 122.8236
748.2020, 122.7289
748.6841, 123.3916
749.1663, 124.2912
749.6484, 124.4283
750.1305, 123.8299
750.6126, 123.2494
751.0947, 123.0759
751.5768, 123.0984
752.0590, 122.9235
752.5411, 122.4787
753.0232, 122.1846
753.5053, 122.1649
753.9874, 122.1338
754.4695, 121.9872
754.9517, 121.7972
755.4338, 121.6142
755.9159, 121.4500
756.3980, 121.3806
756.8801, 121.4692
757.3622, 121.6444
757.8444, 121.9701
758.3265, 122.3085
758.8086, 122.2847
759.2907, 121.8215
759.7728, 121.2147
760.2549, 120.6980
760.7371, 120.3259
761.2192, 120.5577
761.7013, 121.8311
762.1834, 122.5136
762.6655, 121.8050
763.1476, 120.9657
763.6298, 121.0005
764.1119, 121.5722
764.5940, 121.6904
765.0761, 120.9006
765.5582, 120.1574
766.0403, 119.8874
766.5225, 119.9289
767.0046, 120.2255
767.4867, 120.6734
767.9688, 121.0264
768.4509, 121.1613
768.9330, 121.1167
769.4152, 120.8984
769.8973, 120.4921
770.3794, 120.2770
770.8615, 120.3603
771.3436, 120.3510
771.8257, 119.9522
772.3079, 119.4615
772.7900, 119.3651
773.2721, 119.7008
773.7542, 119.9108
774.2363, 119.7698
774.7184, 119.6372
775.2006, 119.8437
775.6827, 120.0921
776.1648, 119.8458
776.6469, 119.1221
777.1290, 118.5817
777.6111, 118.8407
778.0933, 119.4785
778.5754, 119.4463
779.0575, 118.7758
779.5396, 118.3911
780.0217, 118.5141
780.5038, 118.7884
780.9860, 118.9941
781.4681, 119.1139
781.9502, 119.0623
782.4323, 118.5244
782.9144, 118.3415
783.3965, 119.0465
783.8787, 119.6221
784.3608, 119.2999
784.8429, 118.4940
785.3250, 118.0062
785.8071, 118.0901
786.2892, 118.2831
786.7714, 118.2245
787.2535, 117.9948
787.7356, 117.6924
788.2177, 117.3428
788.6998, 117.0524
789.1819, 116.8530
789.6641, 116.8007
790.1462, 116.9873
790.6283, 117.4118
791.1104, 117.7793
791.5925, 118.1534
792.0746, 118.3572
792.5568, 118.2911
793.0389, 118.1118
793.5210, 117.8710
794.0031, 117.6050
794.4852, 117.3974
794.9673, 117.2174
795.4495, 117.2080
795.9316, 117.6387
796.4137, 118.1860
796.8958, 118.4362
797.3779, 118.3807
797.8600, 118.1656
798.3422, 117.8594
798.8243, 117.5747
799.3064, 117.5185
799.7885, 117.6984
800.2706, 117.8897
800.7527, 118.1619
801.2349, 118.2002
801.7170, 117.6553
802.1991, 117.0151
802.6812, 117.0814
803.1633, 117.8585
803.6454, 118.2825
804.1276, 118.0239
804.6097, 117.6824
805.0918, 117.3068
805.5739, 117.0723
806.0560, 117.2761
806.5381, 117.8177
807.0203, 118.2347
807.5024, 118.2394
807.9845, 118.0546
808.4666, 117.9642
808.9487, 117.9481
809.4308, 117.9273
809.9130, 117.8922
810.3951, 117.8424
810.8772, 117.7430
811.3593, 117.7150
811.8414, 118.0486
812.3235, 118.9380
812.8057, 119.4611
813.2878, 119.4393
813.7699, 119.2624
814.2520, 118.9301
814.7341, 118.5636
815.2162, 118.2194
815.6984, 117.9303
816.1805, 117.8687
816.6626, 118.3201
817.1447, 118.8010
817.6268, 118.9642
818.1089, 118.9178
818.5911, 118.7693
819.0732, 118.5763
819.5553, 118.4625
820.0374, 118.5078
820.5195, 118.6830
821.0016, 119.0461
821.4838, 119.6162
821.9659, 119.5474
822.4480, 118.4957
822.9301, 117.7763
823.4122, 118.2541
823.8943, 119.2799
824.3765, 119.7049
824.8586, 119.4021
825.3407, 119.1655
825.8228, 119.0726
826.3049, 118.9863
826.7870, 118.7791
827.2692, 118.6079
827.7513, 118.7169
828.2334, 119.0544
828.7155, 119.2653
829.1976, 119.1004
829.6797, 118.8393
830.1619, 118.7649
830.6440, 118.8427
831.1261, 119.0229
831.6082, 119.2851
832.0903, 119.5518
832.5724, 119.7866
833.0546, 119.9591
833.5367, 120.0154
834.0188, 119.9579
834.5009, 119.7460
834.9830, 119.2614
835.4651, 118.8635
835.9473, 118.7808
836.4294, 118.7725
836.9115, 118.5464
837.3936, 118.1162
837.8757, 117.7529
838.3578, 117.2857
838.8400, 117.1583
839.3221, 117.9023
839.8042, 118.7993
840.2863, 119.1277
840.7684, 118.9286
841.2505, 118.6017
841.7327, 118.3248
842.2148, 118.0987
842.6969, 117.8926
843.1790, 117.7425
843.6611, 117.8023
844.1432, 118.0607
844.6254, 118.2604
845.1075, 118.2965
845.5896, 118.2075
846.0717, 118.0344
846.5538, 117.7775
847.0359, 117.4871
847.5181, 116.9763
848.0002, 116.8088
848.4823, 117.4646
848.9644, 118.1529
849.4465, 118.2142
849.9286, 117.8708
850.4108, 117.8413
850.8929, 118.4652
851.3750, 118.8972
851.8571, 118.6407
852.3392, 118.2513
852.8214, 118.2435
853.3035, 118.4498
853.7856, 118.4140
854.2677, 118.0145
854.7498, 117.6370
855.2319, 117.6869
855.7141, 118.0006
856.1962, 118.2738
856.6783, 118.4867
857.1604, 118.4285
857.6425, 118.0238
858.1246, 117.7209
858.6068, 117.9396
859.0889, 118.4977
859.5710, 118.6761
860.0531, 118.2295
860.5352, 118.0651
861.0173, 118.5104
861.4995, 118.8500
861.9816, 118.6259
862.4637, 118.1880
862.9458, 118.0027
863.4279, 118.1171
863.9100, 118.2314
864.3922, 118.1793
864.8743, 118.2127
865.3564, 118.5988
865.8385, 119.0609
866.3206, 119.1745
866.8027, 119.0002
867.2849, 119.0530
867.7670, 119.7087
868.2491, 120.3832
868.7312, 120.1790
869.2133, 119.4035
869.6954, 118.9369
870.1776, 118.8336
870.6597, 118.7739
871.1418, 118.6088
871.6239, 118.4667
872.1060, 118.5380
872.5881, 118.8215
873.0703, 119.0888
873.5524, 119.3904
874.0345, 119.5276
874.5166, 119.1965
874.9987, 118.9855
875.4808, 119.6641
875.9630, 120.8443
876.4451, 121.3161
876.9272, 120.5937
877.4093, 120.0586
877.8914, 119.9631
878.3735, 120.1515
878.8557, 120.7901
879.3378, 121.5343
879.8199, 121.8174
880.3020, 121.5596
880.7841, 121.2983
881.2662, 121.4477
881.7484, 121.7409
882.2305, 121.7153
882.7126, 121.6011
883.1947, 122.0931
883.6768, 123.2051
884.1589, 124.1558
884.6411, 124.4230
885.1232, 124.3470
885.6053, 124.5578
886.0874, 125.0561
886.5695, 125.8301
887.0516, 126.9886
887.5338, 127.9397
888.0159, 128.4028
888.4980, 128.6393
888.9801, 128.9175
889.4622, 129.2384
889.9443, 129.6786
890.4265, 130.2917
890.9086, 130.9453
891.3907, 131.6694
891.8728, 132.3919
892.3549, 132.9763
892.8370, 133.5537
893.3192, 134.4021
893.8013, 135.6133
894.2834, 136.8533
894.7655, 137.8968
895.2476, 138.9626
895.7297, 140.3025
896.2119, 141.7669
896.6940, 143.0700
897.1761, 144.1862
897.6582, 145.3111
898.1403, 146.5764
898.6224, 147.9554
899.1046, 149.4525
899.5867, 151.0425
900.0688, 152.6130
900.5509, 154.1624
901.0330, 155.8242
901.5151, 157.6779
901.9973, 159.6236
902.4794, 161.5162
902.9615, 163.3555
903.4436, 165.1114
903.9257, 166.6903
904.4078, 168.4545
904.8900, 170.5325
905.3721, 172.7527
905.8542, 174.9808
906.3363, 177.2480
906.8184, 179.6339
907.3005, 182.2933
907.7827, 184.6704
908.2648, 186.5868
908.7469, 188.3312
909.2290, 190.0055
909.7111, 191.6081
910.1932, 193.1180
910.6754, 194.5396
911.1575, 195.9684
911.6396, 197.6419
912.1217, 199.0500
912.6038, 199.6718
913.0859, 199.8345
913.5681, 200.0290
914.0502, 200.2231
914.5323, 200.0522
915.0144, 199.3626
915.4965, 198.5221
915.9786, 198.0708
916.4607, 197.8083
916.9428, 197.0033
917.4249, 195.6802
917.9070, 194.1243
918.3892, 192.3891
918.8713, 190.6549
919.3534, 189.1309
919.8355, 187.6194
920.3176, 185.4468
920.7997, 182.2716
921.2819, 179.6802
921.7640, 177.9611
922.2461, 176.3185
922.7282, 174.6353
923.2103, 172.7232
923.6924, 170.1556
924.1746, 166.9853
924.6567, 164.3472
925.1388, 162.5950
925.6209, 160.9427
926.1030, 159.3929
926.5851, 157.7672
927.0673, 155.7959
927.5494, 153.7231
928.0315, 152.0522
928.5136, 150.9282
928.9957, 149.7044
929.4778, 147.9575
929.9600, 146.0664
930.4421, 144.2240
930.9242, 142.4822
931.4063, 140.8752
931.8884, 139.4187
932.3705, 138.1719
932.8527, 137.1695
933.3348, 136.3237
933.8169, 135.6313
934.2990, 134.9764
934.7811, 133.9994
935.2632, 132.7297
935.7454, 131.4263
936.2275, 130.1730
936.7096, 129.1435
937.1917, 128.5602
937.6738, 128.2625
938.1559, 127.5116
938.6381, 126.1880
939.1202, 125.4961
939.6023, 125.7364
940.0844, 126.0219
940.5665, 125.9073
941.0486, 125.5825
941.5308, 125.3565
942.0129, 125.2507
942.4950, 124.9934
942.9771, 124.5210
943.4592, 123.9882
943.9413, 123.2774
944.4235, 122.6507
944.9056, 122.2817
945.3877, 122.1121
945.8698, 122.0148
946.3519, 121.9776
946.8340, 122.0007
947.3162, 122.2001
947.7983, 122.3277
948.2804, 122.1046
948.7625, 121.8393
949.2446, 121.9648
949.7267, 122.4144
950.2089, 122.7314
950.6910, 122.6905
951.1731, 122.5520
951.6552, 122.4895
952.1373, 122.4673
952.6194, 122.3565
953.1016, 122.2632
953.5837, 122.5504
954.0658, 123.2524
954.5479, 123.8394
955.0300, 123.8561
955.5121, 123.5426
955.9943, 123.2509
956.4764, 123.0124
956.9585, 123.0586
957.4406, 123.3737
957.9227, 123.3661
958.4048, 122.7324
958.8870, 122.0536
959.3691, 122.1768
959.8512, 122.9588
960.3333, 123.2300
960.8154, 122.9411
961.2975, 122.4525
961.7797, 121.7390
962.2618, 121.1582
962.7439, 121.0493
963.2260, 121.0982
963.7081, 120.5660
964.1902, 119.2327
964.6724, 118.4977
965.1545, 118.6896
965.6366, 118.9430
966.1187, 119.2474
966.6008, 119.3670
967.0829, 119.0466
967.5651, 118.4046
968.0472, 117.7840
968.5293, 117.1308
969.0114, 116.6920
969.4935, 116.8559
969.9756, 116.8203
970.4578, 116.0546
970.9399, 115.0277
971.4220, 114.0993
971.9041, 113.3895
972.3862, 113.1913
972.8683, 113.9795
973.3505, 114.4465
973.8326, 113.5564
974.3147, 112.3855
974.7968, 111.8404
975.2789, 111.7536
975.7610, 111.7654
976.2432, 111.7599
976.7253, 111.6764
977.2074, 111.4244
977.6895, 111.1695
978.1716, 111.2296
978.6537, 111.3426
979.1359, 110.9268
979.6180, 110.1152
980.1001, 109.5657
980.5822, 109.5119
981.0643, 109.6188
981.5464, 109.6014
982.0286, 109.4497
982.5107, 109.0953
982.9928, 108.5781
983.4749, 108.0343
983.9570, 107.4991
984.4391, 107.1424
984.9213, 107.0563
985.4034, 107.1843
985.8855, 107.4968
986.3676, 107.9536
986.8497, 108.1954
987.3318, 108.2135
987.8140, 108.0697
988.2961, 107.7205
988.7782, 107.4924
989.2603, 107.6595
989.7424, 107.9716
990.2245, 107.8629
990.7067, 107.2358
991.1888, 107.0417
991.6709, 107.6011
992.1530, 107.7807
992.6351, 107.0755
993.1172, 106.2714
993.5994, 105.9169
994.0815, 105.9420
994.5636, 106.1537
995.0457, 106.6319
995.5278, 107.0685
996.0099, 107.6477
996.4921, 107.9470
996.9742, 107.5396
997.4563, 107.0775
997.9384, 107.1621
998.4205, 107.6614
998.9026, 108.0694
999.3848, 108.3427
999.8669, 108.4757
1000.349, 108.3255
1000.831, 108.2009
1001.313, 108.3009
1001.795, 108.4688
1002.277, 108.4809
1002.760, 108.3791
1003.242, 108.4572
1003.724, 108.9451
1004.206, 109.2720
1004.688, 109.0308
1005.170, 108.6741
1005.652, 108.3828
1006.134, 108.2962
1006.617, 108.7580
1007.099, 109.6609
1007.581, 110.2340
1008.063, 109.9519
1008.545, 109.5925
1009.027, 109.8543
1009.509, 110.3227
1009.991, 110.4551
1010.473, 110.4072
1010.956, 110.6607
1011.438, 111.2692
1011.920, 111.7338
1012.402, 111.6467
1012.884, 111.4328
1013.366, 111.6445
1013.848, 112.0897
1014.330, 112.3516
1014.813, 112.4996
1015.295, 112.9432
1015.777, 113.7763
1016.259, 114.5556
1016.741, 114.8687
1017.223, 114.9684
1017.705, 115.3494
1018.187, 115.9157
1018.669, 116.3537
1019.152, 116.6330
1019.634, 116.7185
1020.116, 116.6040
1020.598, 116.5075
1021.080, 116.6477
1021.562, 116.9801
1022.044, 117.3970
1022.526, 117.8936
1023.008, 118.4698
1023.491, 119.1267
1023.973, 119.5116
1024.455, 119.4442
1024.937, 119.3705
1025.419, 119.8622
1025.901, 120.7246
1026.383, 120.9994
1026.865, 120.6376
1027.348, 120.4405
1027.830, 120.5072
1028.312, 120.6146
1028.794, 120.6781
1029.276, 120.6771
1029.758, 120.5519
1030.240, 120.3446
1030.722, 119.9683
1031.204, 120.4007
1031.687, 120.5887
1032.169, 120.5460
1032.651, 119.5803
1033.133, 119.8064
1033.615, 119.5549
1034.097, 119.2838
1034.579, 119.6776
1035.061, 118.8462
1035.544, 119.2292
1036.026, 119.1276
1036.508, 119.2479
1036.990, 118.7322
1037.472, 117.9958
1037.954, 117.1507
1038.436, 116.8470
1038.918, 117.0591
1039.401, 116.9930
1039.883, 116.3430
1040.365, 115.9978
1040.847, 116.3612
1041.329, 116.5663
1041.811, 116.0374
1042.293, 115.2756
1042.775, 114.9994
1043.257, 115.1900
1043.740, 115.0615
1044.222, 114.1796
1044.704, 113.6515
1045.186, 113.8549
1045.668, 114.0461
1046.150, 113.9923
1046.632, 113.6922
1047.114, 112.9463
1047.596, 111.8285
1048.079, 111.3021
1048.561, 112.0366
1049.043, 112.4702
1049.525, 112.2626
1050.007, 111.9000
1050.489, 111.4090
1050.971, 111.0247
1051.453, 111.1506
1051.936, 111.7110
1052.418, 111.9465
1052.900, 111.4097
1053.382, 111.1034
1053.864, 111.5208
1054.346, 111.8690
1054.828, 111.5956
1055.310, 111.1185
1055.792, 110.9153
1056.275, 111.0071
1056.757, 111.2414
1057.239, 111.7535
1057.721, 112.0528
1058.203, 111.8496
1058.685, 111.5780
1059.167, 111.4151
1059.649, 111.3582
1060.131, 111.4567
1060.614, 111.6525
1061.096, 111.6965
1061.578, 111.4505
1062.060, 111.2447
1062.542, 111.3814
1063.024, 111.3724
1063.506, 110.7728
1063.988, 109.9941
1064.471, 109.4396
1064.953, 109.1594
1065.435, 109.1565
1065.917, 109.5527
1066.399, 109.7803
1066.881, 109.4112
1067.363, 109.0458
1067.845, 109.2430
1068.328, 109.4737
1068.810, 108.9841
1069.292, 107.9959
1069.774, 107.3970
1070.256, 107.5003
1070.738, 107.5950
1071.220, 107.3021
1071.702, 107.0023
1072.184, 107.0423
1072.667, 107.0897
1073.149, 106.7221
1073.631, 106.0660
1074.113, 105.5305
1074.595, 105.2299
1075.077, 104.9771
1075.559, 104.6361
1076.041, 104.3878
1076.523, 104.4299
1077.006, 104.5316
1077.488, 104.4906
1077.970, 104.3171
1078.452, 104.0333
1078.934, 103.6454
1079.416, 103.4259
1079.898, 103.7619
1080.380, 103.9573
1080.862, 103.5439
1081.345, 102.9252
1081.827, 102.3009
1082.309, 101.8161
1082.791, 101.7521
1083.273, 102.1241
1083.755, 102.4209
1084.237, 102.4336
1084.719, 102.3180
1085.202, 102.0364
1085.684, 101.7653
1086.166, 101.7921
1086.648, 101.8523
1087.130, 101.3829
1087.612, 100.4213
1088.094, 99.84743
1088.576, 100.2751
1089.058, 100.5704
1089.541, 100.0371
1090.023, 99.41775
1090.505, 99.14349
1090.987, 99.16041
1091.469, 99.53132
1091.951, 100.1045
1092.433, 100.2411
1092.915, 99.48035
1093.397, 99.05091
1093.880, 99.97121
1094.362, 100.7415
1094.844, 100.2512
1095.326, 99.31273
1095.808, 98.75431
1096.290, 98.59622
1096.772, 98.60882
1097.254, 98.79912
1097.737, 98.85218
1098.219, 98.68578
1098.701, 98.32996
1099.183, 97.55293
1099.665, 96.80669
1100.147, 96.46804
1100.629, 96.48487
1101.111, 96.72688
1101.594, 97.19740
1102.076, 97.55854
1102.558, 97.77721
1103.040, 97.80070
1103.522, 97.41148
1104.004, 97.02551
1104.486, 97.10159
1104.968, 97.29691
1105.450, 96.90725
1105.932, 95.90016
1106.415, 95.32230
1106.897, 95.65038
1107.379, 96.00516
1107.861, 96.29388
1108.343, 96.48253
1108.825, 96.49114
1109.307, 96.43240
1109.789, 96.52812
1110.272, 96.71973
1110.754, 96.53443
1111.236, 95.48985
1111.718, 94.93366
1112.200, 95.40756
1112.682, 95.84569
1113.164, 95.83641
1113.646, 95.67455
1114.129, 95.64791
1114.611, 95.69270
1115.093, 95.55307
1115.575, 95.09026
1116.057, 94.87316
1116.539, 95.22518
1117.021, 95.32747
1117.503, 94.78299
1117.985, 94.22559
1118.468, 94.03527
1118.950, 94.12598
1119.432, 94.36478
1119.914, 94.76649
1120.396, 95.14608
1120.878, 95.63997
1121.360, 95.78798
1121.842, 95.29256
1122.324, 94.91936
1122.807, 95.22578
1123.289, 95.58477
1123.771, 95.10323
1124.253, 93.92103
1124.735, 93.20906
1125.217, 93.02258
1125.699, 93.13638
1126.181, 93.65219
1126.664, 94.14731
1127.146, 94.54026
1127.628, 94.65868
1128.110, 94.22309
1128.592, 93.55228
1129.074, 93.72343
1129.556, 94.89111
1130.038, 95.10789
1130.521, 94.18999
1131.003, 93.67144
1131.485, 93.95704
1131.967, 94.29195
1132.449, 94.18941
1132.931, 93.87172
1133.413, 93.69639
1133.895, 93.64080
1134.377, 93.52322
1134.859, 93.34835
1135.342, 93.32780
1135.824, 93.48557
1136.306, 93.51803
1136.788, 93.28609
1137.270, 93.12849
1137.752, 93.46553
1138.234, 94.00451
1138.716, 93.98616
1139.199, 93.53111
1139.681, 93.06007
1140.163, 92.65049
1140.645, 92.58599
1141.127, 92.91060
1141.609, 93.28209
1142.091, 93.47375
1142.573, 93.53950
1143.056, 93.56886
1143.538, 93.51826
1144.020, 93.16298
1144.502, 92.68880
1144.984, 92.63845
1145.466, 92.98549
1145.948, 93.16079
1146.430, 92.93497
1146.912, 92.99538
1147.395, 94.49311
1147.877, 95.95972
1148.359, 95.39090
1148.841, 93.97901
1149.323, 93.30200
1149.805, 93.25725
1150.287, 93.24133
1150.769, 93.11350
1151.251, 93.09896
1151.734, 93.43162
1152.216, 93.60782
1152.698, 93.08877
1153.180, 92.48952
1153.662, 92.29237
1154.144, 92.34840
1154.626, 92.51491
1155.108, 92.70985
1155.591, 92.77442
1156.073, 92.64323
1156.555, 92.53458
1157.037, 92.50333
1157.519, 92.53912
1158.001, 92.72262
1158.483, 92.88860
1158.965, 92.88696
1159.448, 92.79363
1159.930, 92.62492
1160.412, 92.39681
1160.894, 92.72787
1161.376, 94.62934
1161.858, 95.59934
1162.340, 94.69398
1162.822, 93.76014
1163.304, 93.54511
1163.786, 93.51302
1164.269, 93.08772
1164.751, 92.45647
1165.233, 92.28468
1165.715, 92.69588
1166.197, 93.03686
1166.679, 93.33184
1167.161, 93.47972
1167.643, 93.42434
1168.126, 93.31904
1168.608, 93.25765
1169.090, 93.18587
1169.572, 93.00733
1170.054, 92.74587
1170.536, 92.58102
1171.018, 92.51180
1171.500, 92.56226
1171.983, 92.73758
1172.465, 92.96080
1172.947, 93.21169
1173.429, 93.35747
1173.911, 93.27898
1174.393, 93.06372
1174.875, 92.76517
1175.357, 92.48602
1175.839, 92.76240
1176.322, 93.42441
1176.804, 93.74557
1177.286, 93.62646
1177.768, 93.27318
1178.250, 92.79049
1178.732, 92.39573
1179.214, 92.29231
1179.696, 92.39355
1180.178, 92.64927
1180.661, 92.98596
1181.143, 93.46494
1181.625, 93.86874
1182.107, 93.56412
1182.589, 92.61614
1183.071, 92.03110
1183.553, 92.38341
1184.035, 92.77885
1184.518, 92.58111
1185.000, 92.31316
1185.482, 92.24200
1185.964, 92.37782
1186.446, 92.95012
1186.928, 93.65401
1187.410, 93.78772
1187.892, 93.22149
1188.375, 92.66072
1188.857, 91.98299
1189.339, 91.75915
1189.821, 92.64308
1190.303, 93.36533
1190.785, 93.08437
1191.267, 92.51707
1191.749, 92.44929
1192.231, 92.75996
1192.714, 93.00549
1193.196, 93.25790
1193.678, 93.11794
1194.160, 92.32279
1194.642, 91.86677
1195.124, 92.00193
1195.606, 92.36684
1196.088, 92.83115
1196.570, 93.20757
1197.053, 93.20853
1197.535, 92.91357
1198.017, 92.67528
1198.499, 92.49729
1198.981, 92.57564
1199.463, 92.90633
1199.945, 93.09081
1200.427, 93.02070
1200.910, 92.91958
1201.392, 92.94216
1201.874, 93.00890
1202.356, 92.96735
1202.838, 92.91031
1203.320, 93.04587
1203.802, 93.32136
1204.284, 93.79517
1204.766, 94.27799
1205.249, 94.09010
1205.731, 93.11330
1206.213, 92.23750
1206.695, 91.98756
1207.177, 92.06682
1207.659, 92.43825
1208.141, 92.84758
1208.623, 93.14290
1209.105, 93.28825
1209.588, 93.14265
1210.070, 92.83826
1210.552, 92.75713
1211.034, 92.99716
1211.516, 93.27135
1211.998, 93.58559
1212.480, 93.82166
1212.962, 94.00123
1213.445, 94.03750
1213.927, 93.74422
1214.409, 93.40027
1214.891, 93.36613
1215.373, 93.53504
1215.855, 93.38744
1216.337, 92.75454
1216.819, 92.56412
1217.302, 92.90228
1217.784, 93.43337
1218.266, 94.21358
1218.748, 94.52051
1219.230, 93.86999
1219.712, 92.97923
1220.194, 92.78807
1220.676, 93.07392
1221.158, 93.08265
1221.641, 92.90272
1222.123, 93.14167
1222.605, 93.68435
1223.087, 93.60953
1223.569, 92.83231
1224.051, 92.42033
1224.533, 92.98733
1225.015, 93.73983
1225.497, 94.01521
1225.980, 93.90695
1226.462, 93.21591
1226.944, 92.44498
1227.426, 92.23067
1227.908, 92.47545
1228.390, 93.04129
1228.872, 93.77072
1229.354, 94.02718
1229.837, 93.38765
1230.319, 92.86582
1230.801, 92.88951
1231.283, 92.99255
1231.765, 93.04266
1232.247, 93.03017
1232.729, 92.68203
1233.211, 92.41441
1233.693, 93.20577
1234.176, 94.98402
1234.658, 95.52689
1235.140, 94.32912
1235.622, 93.39391
1236.104, 92.75294
1236.586, 92.63802
1237.068, 93.24974
1237.550, 93.75769
1238.032, 93.52800
1238.515, 92.98281
1238.997, 92.79271
1239.479, 92.90629
1239.961, 93.22225
1240.443, 93.65253
1240.925, 93.79403
1241.407, 93.64007
1241.889, 93.25964
1242.372, 92.74200
1242.854, 92.50651
1243.336, 92.84334
1243.818, 93.34358
1244.300, 93.76657
1244.782, 94.02166
1245.264, 93.88362
1245.746, 93.63836
1246.229, 93.63441
1246.711, 93.79545
1247.193, 93.98721
1247.675, 94.14880
1248.157, 93.96936
1248.639, 92.97890
1249.121, 92.44238
1249.603, 92.94408
1250.085, 93.42769
1250.568, 93.48090
1251.050, 93.51981
1251.532, 93.89961
1252.014, 94.35026
1252.496, 94.38897
1252.978, 94.06449
1253.460, 93.92760
1253.942, 93.99151
1254.424, 94.10394
1254.907, 94.25745
1255.389, 94.39274
1255.871, 94.49211
1256.353, 94.52834
1256.835, 94.48644
1257.317, 94.32471
1257.799, 93.85814
1258.281, 93.36671
1258.764, 93.47318
1259.246, 93.85287
1259.728, 93.94153
1260.210, 93.79105
1260.692, 93.60446
1261.174, 93.45212
1261.656, 93.37533
1262.138, 93.37269
1262.620, 93.54586
1263.103, 94.23075
1263.585, 94.71141
1264.067, 94.51556
1264.549, 94.16629
1265.031, 93.94962
1265.513, 93.85950
1265.995, 93.86731
1266.477, 93.96941
1266.959, 94.16830
1267.442, 94.50180
1267.924, 94.81979
1268.406, 95.20662
1268.888, 95.13013
1269.370, 94.43375
1269.852, 93.67088
1270.334, 93.09383
1270.816, 92.87646
1271.299, 93.28733
1271.781, 93.94905
1272.263, 94.05216
1272.745, 93.82540
1273.227, 93.77901
1273.709, 93.89787
1274.191, 94.17348
1274.673, 94.50680
1275.156, 94.58117
1275.638, 94.31190
1276.120, 94.11441
1276.602, 94.32103
1277.084, 94.46384
1277.566, 94.16416
1278.048, 93.90543
1278.530, 93.98893
1279.012, 94.24307
1279.495, 94.54318
1279.977, 94.85754
1280.459, 95.19057
1280.941, 95.54448
1281.423, 95.41149
1281.905, 94.55343
1282.387, 94.20106
1282.869, 94.52969
1283.351, 94.84811
1283.834, 94.97193
1284.316, 94.79214
1284.798, 94.17979
1285.280, 93.67693
1285.762, 93.93981
1286.244, 95.01888
##END=



