##NAMES=Hilgardite
##RRUFFID=R070426
##IDEAL CHEMISTRY=Ca_2_B_5_O_9_Cl&#183;H_2_O
##LOCALITY=Boulby mine, Loftus, Cleveland, England, UK
##OWNER=RRUFF
##SOURCE=Michael Scott
##DESCRIPTION=Pink to orange poorly formed crystals scattered over a pale green boracite matrix, polytype 1A
##STATUS=The identification of this mineral is confirmed by single-crystal X-ray diffraction and chemical analysis.
##URL=rruff.info/R070426
##MEASURED CHEMISTRY=Ca_2.00_B_5_O_9_(Cl_0.95_(OH)_0.05_)_Σ=1_·H_2_O ; = darker. Trace amounts of Na ; OH by difference 1-Cl; gray: Ca_2.00_(B_4.98_Al_0.01_Fe^3+^_0.01_)_Σ=5_O_9_Cl_1.00_·H_2_O; traces of Na; B estimated by 5-Al-Fe; light: boracite
81.49561, 533.0732
81.97772, 533.4377
82.45984, 547.5635
82.94196, 560.3461
83.42407, 562.9005
83.90619, 559.8542
84.38831, 556.9471
84.87042, 555.3931
85.35254, 554.4933
85.83466, 553.5551
86.31677, 553.0658
86.79889, 551.0847
87.28101, 546.6249
87.76312, 540.3730
88.24524, 532.5045
88.72736, 521.3672
89.20947, 509.1545
89.69159, 505.0621
90.17371, 516.1920
90.65582, 526.6622
91.13794, 532.3274
91.62006, 533.5151
92.10217, 530.6192
92.58429, 522.3019
93.06641, 508.4286
93.54852, 502.1835
94.03064, 511.8129
94.51276, 522.1035
94.99487, 530.2338
95.47699, 535.3009
95.95911, 536.5272
96.44122, 531.9278
96.92334, 518.1760
97.40546, 514.3480
97.88757, 532.3156
98.36969, 548.6844
98.85181, 547.5101
99.33392, 529.0314
99.81604, 507.5435
100.2982, 501.3812
100.7803, 520.1367
101.2624, 530.8010
101.7445, 526.6091
102.2266, 518.7615
102.7087, 517.0560
103.1909, 523.8046
103.6730, 533.8240
104.1551, 538.9452
104.6372, 537.9266
105.1193, 534.9974
105.6014, 526.4653
106.0836, 517.3456
106.5657, 515.7264
107.0478, 525.2545
107.5299, 539.6580
108.0120, 545.7969
108.4941, 540.9989
108.9763, 539.8599
109.4584, 550.0056
109.9405, 567.9277
110.4226, 584.4370
110.9047, 596.5397
111.3868, 605.3306
111.8690, 612.6423
112.3511, 617.6779
112.8332, 623.5903
113.3153, 632.0947
113.7974, 643.1298
114.2795, 655.9681
114.7617, 669.9636
115.2438, 686.2542
115.7259, 707.1389
116.2080, 734.6714
116.6901, 761.4848
117.1722, 778.2477
117.6544, 783.4785
118.1365, 791.1169
118.6186, 804.8203
119.1007, 824.4113
119.5828, 852.7300
120.0649, 892.7703
120.5471, 935.2219
121.0292, 961.8091
121.5113, 961.7140
121.9934, 977.1335
122.4755, 1027.496
122.9576, 1095.391
123.4398, 1166.081
123.9219, 1234.280
124.4040, 1301.365
124.8861, 1369.678
125.3682, 1439.215
125.8503, 1511.444
126.3325, 1591.482
126.8146, 1672.480
127.2967, 1746.902
127.7788, 1809.872
128.2609, 1864.499
128.7430, 1920.451
129.2252, 1969.586
129.7073, 2031.531
130.1894, 2111.001
130.6715, 2204.411
131.1536, 2307.490
131.6357, 2418.540
132.1179, 2536.267
132.6000, 2650.461
133.0821, 2759.179
133.5642, 2866.168
134.0463, 2977.668
134.5284, 3087.289
135.0106, 3184.894
135.4927, 3263.187
135.9748, 3322.577
136.4569, 3368.365
136.9390, 3379.948
137.4211, 3400.120
137.9033, 3448.220
138.3854, 3516.087
138.8675, 3582.599
139.3496, 3631.001
139.8317, 3661.036
140.3138, 3708.330
140.7960, 3773.391
141.2781, 3850.443
141.7602, 3929.231
142.2423, 4015.132
142.7244, 4125.157
143.2065, 4272.219
143.6887, 4458.516
144.1708, 4678.946
144.6529, 4940.014
145.1350, 5223.954
145.6171, 5531.053
146.0992, 5856.763
146.5814, 6181.863
147.0635, 6494.818
147.5456, 6792.682
148.0277, 7066.620
148.5098, 7317.859
148.9919, 7544.910
149.4741, 7741.614
149.9562, 7909.984
150.4383, 8065.776
150.9204, 8216.575
151.4025, 8364.502
151.8846, 8529.564
152.3668, 8732.245
152.8489, 8940.715
153.3310, 9118.961
153.8131, 9262.843
154.2952, 9415.239
154.7773, 9615.521
155.2595, 9856.003
155.7416, 10100.19
156.2237, 10351.70
156.7058, 10599.84
157.1879, 10838.11
157.6700, 11068.31
158.1522, 11272.87
158.6343, 11447.28
159.1164, 11585.27
159.5985, 11656.92
160.0806, 11683.39
160.5627, 11628.25
161.0449, 11428.83
161.5270, 11071.20
162.0091, 10618.74
162.4912, 10060.77
162.9733, 9443.339
163.4554, 8835.093
163.9376, 8245.520
164.4197, 7686.865
164.9018, 7183.655
165.3839, 6734.308
165.8660, 6350.481
166.3481, 6053.481
166.8303, 5821.656
167.3124, 5626.698
167.7945, 5458.435
168.2766, 5318.669
168.7587, 5212.920
169.2408, 5146.764
169.7230, 5103.063
170.2051, 5081.271
170.6872, 5072.382
171.1693, 5063.453
171.6514, 5051.411
172.1335, 5034.379
172.6157, 5009.754
173.0978, 4983.323
173.5799, 4935.480
174.0620, 4849.232
174.5441, 4740.217
175.0262, 4631.758
175.5084, 4536.857
175.9905, 4448.254
176.4726, 4342.384
176.9547, 4207.280
177.4368, 4076.646
177.9189, 3959.116
178.4011, 3854.224
178.8832, 3761.775
179.3653, 3680.308
179.8474, 3611.223
180.3295, 3558.168
180.8116, 3524.908
181.2938, 3502.873
181.7759, 3487.367
182.2580, 3479.598
182.7401, 3481.736
183.2222, 3495.469
183.7043, 3518.708
184.1865, 3544.526
184.6686, 3566.556
185.1507, 3603.626
185.6328, 3664.113
186.1149, 3737.972
186.5970, 3815.290
187.0792, 3892.268
187.5613, 3967.755
188.0434, 4040.109
188.5255, 4106.688
189.0076, 4173.624
189.4897, 4234.967
189.9719, 4299.561
190.4540, 4377.854
190.9361, 4474.271
191.4182, 4584.513
191.9003, 4697.077
192.3824, 4805.394
192.8646, 4930.321
193.3467, 5071.584
193.8288, 5229.831
194.3109, 5406.983
194.7930, 5603.898
195.2751, 5817.726
195.7573, 6037.184
196.2394, 6245.960
196.7215, 6498.753
197.2036, 6807.713
197.6857, 7152.271
198.1678, 7505.302
198.6500, 7859.753
199.1321, 8241.624
199.6142, 8700.789
200.0963, 9258.045
200.5784, 9861.911
201.0605, 10528.83
201.5427, 11219.07
202.0248, 11910.07
202.5069, 12594.75
202.9890, 13248.67
203.4711, 13858.01
203.9532, 14510.00
204.4354, 14895.73
204.9175, 15028.29
205.3996, 14925.40
205.8817, 14571.52
206.3638, 13974.85
206.8459, 13192.22
207.3280, 12263.31
207.8102, 11106.10
208.2923, 10029.41
208.7744, 9017.863
209.2565, 8086.009
209.7386, 7247.033
210.2207, 6505.472
210.7029, 5852.760
211.1850, 5282.217
211.6671, 4800.584
212.1492, 4393.619
212.6313, 4088.655
213.1134, 3830.353
213.5956, 3602.990
214.0777, 3401.626
214.5598, 3223.233
215.0419, 3066.725
215.5240, 2934.494
216.0061, 2811.895
216.4883, 2688.030
216.9704, 2583.028
217.4525, 2515.339
217.9346, 2475.362
218.4167, 2434.946
218.8988, 2366.838
219.3810, 2269.416
219.8631, 2203.724
220.3452, 2201.916
220.8273, 2202.372
221.3094, 2188.465
221.7915, 2164.118
222.2737, 2140.015
222.7558, 2123.553
223.2379, 2114.115
223.7200, 2106.611
224.2021, 2107.608
224.6842, 2103.046
225.1664, 2087.546
225.6485, 2065.167
226.1306, 2040.826
226.6127, 2016.710
227.0948, 1994.432
227.5770, 1981.085
228.0591, 1982.664
228.5412, 1985.883
229.0233, 1989.605
229.5054, 1993.194
229.9875, 1994.999
230.4697, 1994.090
230.9518, 1993.455
231.4339, 2001.692
231.9160, 2028.450
232.3981, 2047.214
232.8802, 2049.487
233.3624, 2046.341
233.8445, 2046.604
234.3266, 2053.310
234.8087, 2065.058
235.2908, 2080.823
235.7729, 2105.477
236.2551, 2122.305
236.7372, 2118.543
237.2193, 2115.415
237.7014, 2129.201
238.1835, 2162.034
238.6656, 2201.815
239.1478, 2235.059
239.6299, 2261.821
240.1120, 2281.622
240.5941, 2286.255
241.0762, 2290.606
241.5583, 2300.942
242.0405, 2317.935
242.5226, 2339.338
243.0047, 2361.012
243.4868, 2381.875
243.9689, 2416.991
244.4510, 2476.641
244.9332, 2542.550
245.4153, 2608.995
245.8974, 2676.333
246.3795, 2746.433
246.8616, 2821.219
247.3437, 2900.703
247.8259, 2982.552
248.3080, 3083.975
248.7901, 3163.052
249.2722, 3206.504
249.7543, 3220.798
250.2364, 3216.872
250.7186, 3201.294
251.2007, 3170.566
251.6828, 3112.882
252.1649, 3019.586
252.6470, 2914.956
253.1291, 2796.653
253.6113, 2676.831
254.0934, 2567.916
254.5755, 2474.114
255.0576, 2393.949
255.5397, 2325.747
256.0219, 2271.127
256.5040, 2223.223
256.9861, 2181.655
257.4682, 2145.508
257.9503, 2116.969
258.4324, 2096.915
258.9146, 2075.354
259.3967, 2038.186
259.8788, 1984.330
260.3609, 1938.928
260.8430, 1912.583
261.3251, 1890.917
261.8073, 1864.390
262.2894, 1832.582
262.7715, 1797.647
263.2536, 1755.469
263.7357, 1709.107
264.2178, 1677.769
264.7000, 1668.073
265.1821, 1667.273
265.6642, 1668.300
266.1463, 1670.272
266.6284, 1670.067
267.1105, 1663.897
267.5927, 1654.971
268.0748, 1649.634
268.5569, 1647.893
269.0390, 1650.198
269.5211, 1660.333
270.0032, 1674.502
270.4854, 1686.350
270.9675, 1692.548
271.4496, 1697.143
271.9317, 1702.845
272.4138, 1709.541
272.8959, 1723.133
273.3781, 1752.430
273.8602, 1787.795
274.3423, 1810.949
274.8244, 1818.084
275.3065, 1818.379
275.7886, 1818.663
276.2708, 1817.537
276.7529, 1808.831
277.2350, 1789.420
277.7171, 1762.380
278.1992, 1731.489
278.6813, 1695.482
279.1635, 1662.305
279.6456, 1632.269
280.1277, 1607.569
280.6098, 1594.539
281.0919, 1595.833
281.5740, 1600.867
282.0562, 1598.451
282.5383, 1588.616
283.0204, 1571.128
283.5025, 1533.450
283.9846, 1495.995
284.4667, 1480.418
284.9489, 1487.112
285.4310, 1496.847
285.9131, 1493.743
286.3952, 1477.996
286.8773, 1468.197
287.3594, 1469.272
287.8416, 1470.922
288.3237, 1467.746
288.8058, 1461.031
289.2879, 1454.459
289.7700, 1449.843
290.2521, 1447.269
290.7343, 1447.360
291.2164, 1450.495
291.6985, 1455.579
292.1806, 1464.095
292.6627, 1473.904
293.1448, 1483.038
293.6270, 1490.740
294.1091, 1496.164
294.5912, 1498.084
295.0733, 1498.720
295.5554, 1490.420
296.0375, 1461.764
296.5197, 1433.113
297.0018, 1419.975
297.4839, 1423.176
297.9660, 1433.218
298.4481, 1441.359
298.9302, 1448.274
299.4124, 1448.241
299.8945, 1437.456
300.3766, 1423.787
300.8587, 1405.558
301.3408, 1386.531
301.8229, 1373.581
302.3051, 1371.502
302.7872, 1378.803
303.2693, 1388.655
303.7514, 1407.718
304.2335, 1418.935
304.7156, 1412.034
305.1978, 1399.344
305.6799, 1393.728
306.1620, 1399.960
306.6441, 1414.206
307.1262, 1432.498
307.6083, 1457.765
308.0905, 1475.832
308.5726, 1473.476
309.0547, 1441.270
309.5368, 1498.713
310.0189, 1542.135
310.5010, 1572.406
310.9832, 1543.881
311.4653, 1596.062
311.9474, 1618.820
312.4295, 1642.375
312.9116, 1711.880
313.3937, 1702.642
313.8759, 1775.633
314.3580, 1818.718
314.8401, 1878.526
315.3222, 1908.723
315.8043, 1950.795
316.2864, 2026.669
316.7686, 2087.078
317.2507, 2188.040
317.7328, 2323.738
318.2149, 2414.096
318.6970, 2432.628
319.1791, 2441.589
319.6613, 2489.452
320.1434, 2567.947
320.6255, 2645.610
321.1076, 2720.728
321.5897, 2775.452
322.0718, 2777.116
322.5540, 2724.296
323.0361, 2652.619
323.5182, 2551.740
324.0003, 2445.916
324.4824, 2366.394
324.9645, 2318.100
325.4467, 2288.610
325.9288, 2265.617
326.4109, 2249.578
326.8930, 2253.644
327.3751, 2292.340
327.8572, 2336.943
328.3394, 2372.418
328.8214, 2400.351
329.3036, 2426.866
329.7857, 2454.612
330.2678, 2485.648
330.7499, 2528.511
331.2320, 2596.249
331.7141, 2659.992
332.1963, 2711.597
332.6784, 2760.316
333.1605, 2814.770
333.6426, 2877.875
334.1247, 2949.617
334.6068, 3030.944
335.0890, 3123.494
335.5711, 3220.930
336.0532, 3329.597
336.5353, 3436.776
337.0174, 3538.328
337.4995, 3632.346
337.9817, 3717.847
338.4638, 3795.156
338.9459, 3863.045
339.4280, 3910.310
339.9101, 3933.291
340.3922, 3938.276
340.8744, 3929.789
341.3565, 3906.162
341.8386, 3864.698
342.3207, 3803.730
342.8028, 3727.401
343.2849, 3635.602
343.7671, 3524.064
344.2492, 3426.416
344.7313, 3351.277
345.2134, 3293.487
345.6955, 3249.541
346.1776, 3219.002
346.6598, 3197.692
347.1419, 3180.561
347.6240, 3170.620
348.1061, 3176.715
348.5882, 3200.863
349.0703, 3237.739
349.5525, 3285.680
350.0346, 3343.488
350.5167, 3409.063
350.9988, 3474.457
351.4809, 3553.888
351.9630, 3667.513
352.4452, 3809.403
352.9273, 3949.659
353.4094, 4075.833
353.8915, 4189.813
354.3736, 4295.780
354.8557, 4394.483
355.3379, 4485.458
355.8200, 4580.215
356.3021, 4661.797
356.7842, 4712.434
357.2663, 4727.753
357.7484, 4705.535
358.2306, 4643.313
358.7127, 4539.281
359.1948, 4396.786
359.6769, 4192.369
360.1590, 3979.711
360.6411, 3779.581
361.1233, 3590.207
361.6054, 3401.295
362.0875, 3204.745
362.5696, 3007.522
363.0517, 2833.705
363.5338, 2689.359
364.0160, 2561.328
364.4981, 2443.418
364.9802, 2341.638
365.4623, 2265.378
365.9444, 2215.133
366.4265, 2175.353
366.9087, 2127.874
367.3908, 2071.209
367.8729, 2025.971
368.3550, 1996.998
368.8371, 1975.412
369.3192, 1957.779
369.8014, 1943.216
370.2835, 1930.271
370.7656, 1919.988
371.2477, 1909.498
371.7298, 1890.538
372.2119, 1861.266
372.6941, 1842.073
373.1762, 1848.306
373.6583, 1865.878
374.1404, 1873.688
374.6225, 1870.256
375.1046, 1860.192
375.5868, 1848.078
376.0689, 1830.672
376.5510, 1798.516
377.0331, 1748.250
377.5152, 1694.223
377.9973, 1650.464
378.4795, 1618.376
378.9616, 1588.155
379.4437, 1562.109
379.9258, 1535.857
380.4079, 1506.055
380.8900, 1473.937
381.3722, 1443.053
381.8543, 1415.079
382.3364, 1390.464
382.8185, 1370.130
383.3006, 1352.078
383.7827, 1342.101
384.2649, 1349.503
384.7470, 1358.936
385.2291, 1355.716
385.7112, 1338.931
386.1933, 1320.632
386.6754, 1315.070
387.1576, 1323.453
387.6397, 1321.107
388.1218, 1291.055
388.6039, 1270.092
389.0860, 1277.951
389.5681, 1300.565
390.0503, 1315.075
390.5324, 1310.634
391.0145, 1297.585
391.4966, 1292.964
391.9787, 1297.981
392.4608, 1299.509
392.9430, 1288.446
393.4251, 1277.936
393.9072, 1282.877
394.3893, 1303.172
394.8714, 1320.122
395.3535, 1319.938
395.8357, 1312.161
396.3178, 1314.701
396.7999, 1329.736
397.2820, 1342.770
397.7641, 1342.037
398.2462, 1330.628
398.7284, 1326.226
399.2105, 1333.874
399.6926, 1342.713
400.1747, 1350.218
400.6568, 1355.773
401.1389, 1356.886
401.6211, 1352.706
402.1032, 1348.555
402.5853, 1352.666
403.0674, 1368.565
403.5495, 1382.263
404.0316, 1393.068
404.5138, 1402.781
404.9959, 1410.302
405.4780, 1417.505
405.9601, 1428.455
406.4422, 1446.019
406.9243, 1468.530
407.4065, 1490.607
407.8886, 1515.070
408.3707, 1532.941
408.8528, 1535.886
409.3349, 1536.563
409.8170, 1545.505
410.2992, 1564.079
410.7813, 1585.057
411.2634, 1604.551
411.7455, 1621.820
412.2276, 1632.044
412.7097, 1633.938
413.1919, 1631.005
413.6740, 1619.730
414.1561, 1605.689
414.6382, 1601.311
415.1203, 1614.513
415.6024, 1631.068
416.0846, 1639.300
416.5667, 1642.226
417.0488, 1649.675
417.5309, 1665.477
418.0130, 1684.957
418.4951, 1700.053
418.9773, 1706.460
419.4594, 1724.318
419.9415, 1764.985
420.4236, 1808.452
420.9057, 1839.316
421.3878, 1860.548
421.8700, 1885.211
422.3521, 1922.199
422.8342, 1968.659
423.3163, 2011.672
423.7984, 2044.307
424.2805, 2084.893
424.7627, 2134.396
425.2448, 2192.370
425.7269, 2258.994
426.2090, 2334.119
426.6911, 2415.418
427.1732, 2499.895
427.6554, 2588.540
428.1375, 2684.246
428.6196, 2783.768
429.1017, 2896.786
429.5838, 3031.136
430.0659, 3181.515
430.5481, 3343.563
431.0302, 3523.786
431.5123, 3699.302
431.9944, 3855.620
432.4765, 3992.256
432.9586, 4109.711
433.4408, 4210.477
433.9229, 4284.325
434.4050, 4321.366
434.8871, 4320.671
435.3692, 4271.749
435.8513, 4139.451
436.3335, 3989.555
436.8156, 3859.580
437.2977, 3745.176
437.7798, 3623.090
438.2619, 3480.021
438.7440, 3332.171
439.2262, 3222.531
439.7083, 3172.789
440.1904, 3124.822
440.6725, 3073.351
441.1546, 3025.628
441.6367, 2984.494
442.1189, 2951.155
442.6010, 2926.714
443.0831, 2911.620
443.5652, 2906.438
444.0473, 2917.195
444.5294, 2952.832
445.0116, 2979.319
445.4937, 2975.163
445.9758, 2959.711
446.4579, 2949.244
446.9400, 2945.265
447.4221, 2950.367
447.9043, 2971.754
448.3864, 3002.312
448.8685, 3022.637
449.3506, 3028.813
449.8327, 3045.135
450.3148, 3091.815
450.7970, 3167.373
451.2791, 3246.558
451.7612, 3319.604
452.2433, 3407.036
452.7254, 3522.531
453.2076, 3653.788
453.6897, 3779.743
454.1718, 3895.397
454.6539, 4017.430
455.1360, 4169.172
455.6181, 4356.001
456.1003, 4540.866
456.5824, 4708.962
457.0645, 4889.134
457.5466, 5089.236
458.0287, 5307.586
458.5108, 5540.678
458.9930, 5787.593
459.4751, 6047.929
459.9572, 6323.492
460.4393, 6613.263
460.9214, 6920.603
461.4035, 7264.102
461.8857, 7600.534
462.3678, 7907.529
462.8499, 8182.247
463.3320, 8400.845
463.8141, 8560.124
464.2962, 8659.329
464.7784, 8704.720
465.2605, 8690.765
465.7426, 8592.762
466.2247, 8397.170
466.7068, 8122.260
467.1889, 7805.893
467.6711, 7439.722
468.1532, 7041.134
468.6353, 6575.511
469.1174, 6107.524
469.5995, 5669.506
470.0816, 5266.342
470.5638, 4900.804
471.0459, 4571.926
471.5280, 4282.691
472.0101, 4039.794
472.4922, 3858.997
472.9743, 3685.967
473.4565, 3497.490
473.9386, 3323.509
474.4207, 3188.785
474.9028, 3092.162
475.3849, 3007.013
475.8670, 2913.200
476.3492, 2823.235
476.8313, 2758.919
477.3134, 2721.011
477.7955, 2698.328
478.2776, 2688.048
478.7597, 2687.360
479.2419, 2688.935
479.7240, 2688.358
480.2061, 2699.684
480.6882, 2730.574
481.1703, 2771.160
481.6524, 2814.651
482.1346, 2859.390
482.6167, 2905.738
483.0988, 2956.206
483.5809, 3006.476
484.0630, 3034.428
484.5451, 3044.741
485.0273, 3022.062
485.5094, 2957.888
485.9915, 2869.223
486.4736, 2763.892
486.9557, 2645.342
487.4378, 2524.722
487.9200, 2407.005
488.4021, 2293.935
488.8842, 2191.982
489.3663, 2102.552
489.8484, 2016.349
490.3305, 1922.699
490.8127, 1833.714
491.2948, 1774.091
491.7769, 1753.120
492.2590, 1733.607
492.7411, 1702.937
493.2232, 1667.569
493.7054, 1632.923
494.1875, 1600.580
494.6696, 1572.560
495.1517, 1550.460
495.6338, 1534.065
496.1159, 1521.451
496.5981, 1513.107
497.0802, 1508.366
497.5623, 1512.546
498.0444, 1516.402
498.5265, 1512.146
499.0086, 1499.139
499.4908, 1481.952
499.9729, 1461.342
500.4550, 1439.643
500.9371, 1427.741
501.4192, 1428.339
501.9013, 1426.973
502.3835, 1413.774
502.8656, 1397.144
503.3477, 1391.684
503.8298, 1401.178
504.3119, 1406.907
504.7940, 1395.546
505.2762, 1380.365
505.7583, 1378.569
506.2404, 1389.957
506.7225, 1401.820
507.2046, 1405.647
507.6867, 1403.273
508.1689, 1402.798
508.6510, 1408.807
509.1331, 1409.795
509.6152, 1396.832
510.0973, 1385.252
510.5794, 1389.466
511.0616, 1407.315
511.5437, 1423.438
512.0258, 1424.817
512.5079, 1417.811
512.9901, 1420.178
513.4722, 1433.077
513.9543, 1448.765
514.4364, 1467.951
514.9185, 1485.642
515.4006, 1494.467
515.8828, 1493.668
516.3649, 1494.426
516.8470, 1498.091
517.3291, 1506.262
517.8112, 1524.161
518.2933, 1548.828
518.7755, 1568.074
519.2576, 1574.514
519.7397, 1575.506
520.2218, 1589.534
520.7039, 1629.714
521.1860, 1657.852
521.6682, 1664.418
522.1503, 1669.299
522.6324, 1681.709
523.1145, 1701.403
523.5966, 1724.978
524.0787, 1751.107
524.5609, 1779.429
525.0430, 1807.325
525.5251, 1834.859
526.0072, 1874.653
526.4893, 1938.184
526.9714, 2001.144
527.4536, 2032.883
527.9357, 2037.474
528.4178, 2046.144
528.8999, 2072.102
529.3820, 2094.507
529.8641, 2108.389
530.3463, 2108.475
530.8284, 2084.830
531.3105, 2034.093
531.7926, 1962.002
532.2747, 1873.858
532.7568, 1765.650
533.2390, 1664.077
533.7211, 1562.026
534.2032, 1475.343
534.6853, 1410.042
535.1674, 1362.243
535.6495, 1327.834
536.1317, 1306.206
536.6138, 1291.196
537.0959, 1280.350
537.5780, 1271.650
538.0601, 1256.947
538.5422, 1234.323
539.0244, 1213.730
539.5065, 1202.379
539.9886, 1199.066
540.4707, 1197.544
540.9528, 1198.713
541.4349, 1200.199
541.9171, 1201.899
542.3992, 1203.459
542.8813, 1204.118
543.3634, 1204.118
543.8455, 1204.736
544.3276, 1206.907
544.8098, 1210.596
545.2919, 1216.520
545.7740, 1227.181
546.2561, 1233.067
546.7382, 1222.898
547.2203, 1213.779
547.7025, 1222.197
548.1846, 1246.867
548.6667, 1267.685
549.1488, 1270.335
549.6309, 1268.585
550.1130, 1277.353
550.5952, 1295.279
551.0773, 1315.352
551.5594, 1335.248
552.0415, 1354.625
552.5236, 1373.109
553.0057, 1391.035
553.4879, 1407.027
553.9700, 1416.521
554.4521, 1429.295
554.9342, 1446.908
555.4163, 1471.125
555.8984, 1504.779
556.3806, 1549.168
556.8627, 1600.025
557.3448, 1651.885
557.8269, 1705.349
558.3090, 1764.211
558.7911, 1827.048
559.2733, 1901.110
559.7554, 1994.085
560.2375, 2102.472
560.7196, 2211.692
561.2017, 2322.282
561.6838, 2433.089
562.1660, 2542.182
562.6481, 2652.191
563.1302, 2761.449
563.6123, 2873.318
564.0944, 3001.065
564.5765, 3156.501
565.0587, 3334.814
565.5408, 3518.246
566.0229, 3702.316
566.5050, 3902.291
566.9871, 4099.715
567.4692, 4334.058
567.9514, 4639.130
568.4335, 5007.283
568.9156, 5398.358
569.3977, 5806.286
569.8798, 6222.354
570.3619, 6654.906
570.8441, 7092.513
571.3262, 7513.253
571.8083, 7916.218
572.2904, 8246.262
572.7725, 8445.893
573.2546, 8521.706
573.7368, 8402.001
574.2189, 8009.213
574.7010, 7522.169
575.1831, 6930.895
575.6652, 6297.020
576.1473, 5661.675
576.6294, 5040.957
577.1115, 4476.669
577.5936, 4005.551
578.0757, 3620.278
578.5579, 3301.731
579.0400, 3052.524
579.5221, 2849.114
580.0042, 2687.615
580.4863, 2561.129
580.9684, 2462.551
581.4506, 2394.832
581.9327, 2333.832
582.4148, 2269.320
582.8969, 2217.579
583.3790, 2193.800
583.8611, 2191.060
584.3433, 2193.174
584.8254, 2192.839
585.3075, 2194.596
585.7896, 2206.402
586.2717, 2228.964
586.7538, 2251.638
587.2360, 2266.239
587.7181, 2294.167
588.2002, 2359.619
588.6823, 2443.238
589.1644, 2512.391
589.6465, 2556.575
590.1287, 2603.440
590.6108, 2661.903
591.0929, 2733.083
591.5750, 2823.169
592.0571, 2929.123
592.5392, 3034.931
593.0214, 3129.571
593.5035, 3216.602
593.9856, 3307.209
594.4677, 3396.738
594.9498, 3499.883
595.4319, 3625.881
595.9141, 3758.167
596.3962, 3885.294
596.8783, 4011.969
597.3604, 4150.802
597.8425, 4307.846
598.3246, 4474.532
598.8068, 4639.920
599.2889, 4809.765
599.7710, 5003.988
600.2531, 5227.286
600.7352, 5455.643
601.2173, 5671.183
601.6995, 5873.797
602.1816, 6063.022
602.6637, 6263.503
603.1458, 6413.786
603.6279, 6517.559
604.1100, 6564.061
604.5922, 6551.520
605.0743, 6475.119
605.5564, 6320.875
606.0385, 6068.531
606.5206, 5749.857
607.0027, 5393.190
607.4849, 5003.724
607.9670, 4625.026
608.4491, 4261.881
608.9312, 3927.891
609.4133, 3636.356
609.8954, 3387.346
610.3776, 3171.276
610.8597, 2999.934
611.3418, 2843.984
611.8239, 2693.934
612.3060, 2557.420
612.7881, 2447.848
613.2703, 2363.398
613.7524, 2287.731
614.2345, 2207.866
614.7166, 2128.590
615.1987, 2061.447
615.6808, 2006.574
616.1630, 1960.910
616.6451, 1924.273
617.1272, 1895.737
617.6093, 1875.105
618.0914, 1862.536
618.5735, 1855.043
619.0557, 1854.466
619.5378, 1856.693
620.0199, 1858.310
620.5020, 1862.773
620.9841, 1872.934
621.4662, 1890.174
621.9484, 1917.078
622.4305, 1956.887
622.9126, 2007.860
623.3947, 2065.782
623.8768, 2133.591
624.3589, 2189.383
624.8411, 2216.242
625.3232, 2240.091
625.8053, 2291.658
626.2874, 2369.252
626.7695, 2456.376
627.2516, 2556.858
627.7338, 2659.504
628.2159, 2757.443
628.6980, 2853.749
629.1801, 2950.801
629.6622, 3049.871
630.1443, 3155.416
630.6265, 3275.745
631.1086, 3405.523
631.5907, 3515.563
632.0728, 3603.975
632.5549, 3682.284
633.0370, 3761.101
633.5192, 3824.213
634.0013, 3852.486
634.4834, 3847.439
634.9655, 3830.105
635.4476, 3807.624
635.9297, 3770.671
636.4119, 3713.319
636.8940, 3638.318
637.3761, 3540.439
637.8582, 3423.319
638.3403, 3317.024
638.8224, 3255.907
639.3046, 3231.164
639.7867, 3186.427
640.2688, 3110.395
640.7509, 3054.412
641.2330, 3039.308
641.7151, 3045.061
642.1973, 3052.094
642.6794, 3060.569
643.1615, 3073.103
643.6436, 3083.827
644.1257, 3105.585
644.6078, 3146.960
645.0900, 3203.356
645.5721, 3273.295
646.0542, 3353.252
646.5363, 3427.067
647.0184, 3477.122
647.5005, 3509.523
647.9827, 3552.152
648.4648, 3604.473
648.9469, 3669.244
649.4290, 3756.245
649.9111, 3846.030
650.3932, 3917.442
650.8754, 3973.574
651.3575, 4038.613
651.8396, 4127.045
652.3217, 4213.651
652.8038, 4296.372
653.2859, 4365.944
653.7681, 4417.055
654.2502, 4444.459
654.7323, 4431.646
655.2144, 4362.667
655.6965, 4246.949
656.1786, 4112.139
656.6608, 3955.333
657.1429, 3794.925
657.6250, 3625.590
658.1071, 3468.023
658.5892, 3346.994
659.0714, 3255.789
659.5535, 3168.489
660.0356, 3078.399
660.5177, 2996.851
660.9998, 2928.236
661.4819, 2869.772
661.9641, 2820.501
662.4462, 2778.601
662.9283, 2738.271
663.4104, 2695.017
663.8925, 2652.887
664.3746, 2622.742
664.8568, 2605.098
665.3389, 2582.532
665.8210, 2551.934
666.3031, 2516.689
666.7852, 2477.783
667.2673, 2436.215
667.7495, 2395.799
668.2316, 2353.908
668.7137, 2317.577
669.1958, 2289.187
669.6779, 2266.067
670.1600, 2248.477
670.6422, 2233.971
671.1243, 2218.136
671.6064, 2199.030
672.0885, 2175.191
672.5706, 2141.324
673.0527, 2099.370
673.5349, 2062.213
674.0170, 2029.846
674.4991, 2009.750
674.9812, 2010.294
675.4633, 2023.053
675.9454, 2026.064
676.4276, 2014.176
676.9097, 2003.682
677.3918, 1995.726
677.8739, 1988.478
678.3560, 1981.645
678.8381, 1974.710
679.3203, 1966.038
679.8024, 1955.134
680.2845, 1946.622
680.7666, 1944.714
681.2487, 1948.521
681.7308, 1957.787
682.2130, 1972.044
682.6951, 1983.434
683.1772, 1987.369
683.6593, 1990.782
684.1414, 2004.698
684.6235, 2030.648
685.1057, 2058.859
685.5878, 2089.309
686.0699, 2122.511
686.5520, 2155.453
687.0341, 2193.178
687.5162, 2245.222
687.9984, 2310.897
688.4805, 2370.501
688.9626, 2401.612
689.4447, 2429.627
689.9268, 2486.878
690.4089, 2565.167
690.8911, 2639.087
691.3732, 2701.836
691.8553, 2765.471
692.3374, 2842.080
692.8195, 2930.323
693.3016, 3018.763
693.7838, 3114.310
694.2659, 3194.594
694.7480, 3240.184
695.2301, 3283.187
695.7122, 3349.334
696.1943, 3432.468
696.6765, 3508.155
697.1586, 3576.894
697.6407, 3627.184
698.1228, 3651.811
698.6049, 3654.786
699.0870, 3638.676
699.5692, 3605.500
700.0513, 3559.942
700.5334, 3504.634
701.0155, 3438.549
701.4976, 3357.898
701.9797, 3261.916
702.4619, 3164.265
702.9440, 3065.585
703.4261, 2966.556
703.9082, 2866.285
704.3903, 2766.613
704.8724, 2669.382
705.3546, 2570.234
705.8367, 2485.330
706.3188, 2427.570
706.8009, 2373.467
707.2830, 2306.912
707.7651, 2234.801
708.2473, 2170.537
708.7294, 2117.878
709.2115, 2071.187
709.6936, 2022.371
710.1757, 1976.021
710.6578, 1947.579
711.1400, 1936.038
711.6221, 1920.798
712.1042, 1894.176
712.5863, 1862.520
713.0684, 1832.372
713.5505, 1803.383
714.0327, 1783.532
714.5148, 1781.231
714.9969, 1776.845
715.4790, 1770.055
715.9611, 1757.951
716.4432, 1732.507
716.9254, 1698.261
717.4075, 1674.832
717.8896, 1674.414
718.3717, 1681.258
718.8538, 1685.646
719.3359, 1687.666
719.8181, 1684.919
720.3002, 1678.735
720.7823, 1677.366
721.2644, 1686.365
721.7465, 1703.754
722.2286, 1724.966
722.7108, 1749.917
723.1929, 1779.509
723.6750, 1814.794
724.1571, 1852.805
724.6392, 1890.369
725.1213, 1930.078
725.6035, 1978.412
726.0856, 2039.445
726.5677, 2093.964
727.0498, 2144.996
727.5319, 2182.223
728.0140, 2196.441
728.4962, 2194.068
728.9783, 2187.678
729.4604, 2179.739
729.9425, 2157.473
730.4246, 2101.262
730.9067, 2025.875
731.3889, 1964.538
731.8710, 1916.061
732.3531, 1869.907
732.8352, 1823.217
733.3173, 1774.771
733.7994, 1721.209
734.2816, 1664.094
734.7637, 1622.033
735.2458, 1602.616
735.7279, 1585.486
736.2100, 1560.761
736.6921, 1544.353
737.1743, 1552.148
737.6564, 1575.964
738.1385, 1591.464
738.6206, 1585.169
739.1027, 1587.091
739.5848, 1619.651
740.0670, 1665.752
740.5491, 1707.104
741.0312, 1743.069
741.5133, 1777.478
741.9954, 1811.775
742.4775, 1851.932
742.9597, 1906.640
743.4418, 1975.461
743.9239, 2051.512
744.4060, 2132.921
744.8881, 2232.734
745.3702, 2359.291
745.8524, 2503.322
746.3345, 2649.185
746.8166, 2794.701
747.2987, 2970.645
747.7808, 3178.098
748.2629, 3414.254
748.7451, 3699.265
749.2272, 3998.520
749.7093, 4276.331
750.1914, 4537.934
750.6735, 4813.823
751.1556, 5105.755
751.6378, 5439.165
752.1199, 5846.552
752.6020, 6309.322
753.0841, 6783.651
753.5662, 7269.240
754.0483, 7802.059
754.5305, 8400.961
755.0126, 9054.090
755.4947, 9742.426
755.9768, 10465.92
756.4589, 11232.98
756.9410, 12073.20
757.4232, 12893.54
757.9053, 13711.39
758.3874, 14452.02
758.8695, 15029.88
759.3516, 15458.84
759.8337, 15639.88
760.3159, 15533.66
760.7980, 15214.58
761.2801, 14662.57
761.7622, 13944.39
762.2443, 13080.33
762.7264, 12106.68
763.2086, 11118.53
763.6907, 10154.89
764.1728, 9228.282
764.6549, 8333.260
765.1370, 7486.190
765.6191, 6719.222
766.1013, 6040.346
766.5834, 5448.309
767.0655, 4945.412
767.5476, 4519.279
768.0297, 4146.490
768.5118, 3831.623
768.9940, 3551.656
769.4761, 3311.854
769.9582, 3097.891
770.4403, 2906.238
770.9224, 2735.991
771.4045, 2585.821
771.8867, 2456.508
772.3688, 2339.309
772.8509, 2242.027
773.3330, 2147.446
773.8151, 2043.941
774.2972, 1943.113
774.7794, 1857.985
775.2615, 1788.552
775.7436, 1725.751
776.2257, 1663.707
776.7078, 1608.218
777.1899, 1567.482
777.6721, 1537.853
778.1542, 1513.977
778.6363, 1493.864
779.1184, 1468.051
779.6005, 1430.686
780.0826, 1389.703
780.5648, 1360.274
781.0469, 1343.564
781.5290, 1328.789
782.0111, 1319.632
782.4932, 1301.502
782.9753, 1259.904
783.4575, 1215.218
783.9396, 1196.723
784.4217, 1205.084
784.9038, 1206.188
785.3859, 1197.833
785.8680, 1183.109
786.3502, 1152.426
786.8323, 1123.957
787.3144, 1116.630
787.7965, 1125.829
788.2786, 1132.151
788.7607, 1127.146
789.2429, 1118.201
789.7250, 1110.840
790.2071, 1103.916
790.6892, 1092.802
791.1713, 1079.734
791.6534, 1075.482
792.1356, 1084.673
792.6177, 1098.691
793.0998, 1106.102
793.5819, 1107.568
794.0640, 1109.956
794.5461, 1113.745
795.0283, 1115.205
795.5104, 1112.396
795.9925, 1108.503
796.4746, 1104.721
796.9567, 1101.921
797.4388, 1109.558
797.9210, 1141.826
798.4031, 1164.096
798.8852, 1166.128
799.3673, 1166.452
799.8494, 1171.847
800.3315, 1184.290
800.8137, 1208.364
801.2958, 1247.040
801.7779, 1282.866
802.2600, 1302.940
802.7421, 1320.013
803.2242, 1342.133
803.7064, 1371.068
804.1885, 1409.642
804.6706, 1458.020
805.1527, 1513.518
805.6348, 1577.050
806.1169, 1641.881
806.5991, 1685.468
807.0812, 1713.356
807.5633, 1769.154
808.0454, 1861.515
808.5275, 1964.842
809.0096, 2064.508
809.4918, 2159.757
809.9739, 2245.906
810.4560, 2319.638
810.9381, 2397.947
811.4202, 2486.156
811.9023, 2570.848
812.3845, 2649.350
812.8666, 2719.704
813.3487, 2780.882
813.8308, 2832.698
814.3129, 2868.710
814.7950, 2885.510
815.2772, 2889.226
815.7593, 2890.804
816.2414, 2873.345
816.7235, 2814.198
817.2056, 2721.949
817.6877, 2625.246
818.1699, 2536.404
818.6520, 2443.639
819.1341, 2329.813
819.6162, 2208.314
820.0983, 2097.866
820.5804, 1998.954
821.0626, 1910.771
821.5447, 1831.924
822.0268, 1758.044
822.5089, 1682.556
822.9910, 1608.020
823.4731, 1543.428
823.9553, 1488.070
824.4374, 1450.760
824.9195, 1436.930
825.4016, 1426.969
825.8837, 1406.143
826.3658, 1377.836
826.8480, 1352.949
827.3301, 1326.732
827.8122, 1315.165
828.2943, 1332.609
828.7764, 1347.149
829.2585, 1340.454
829.7407, 1328.801
830.2228, 1333.656
830.7049, 1356.131
831.1870, 1374.358
831.6691, 1373.225
832.1512, 1378.949
832.6334, 1407.524
833.1155, 1445.093
833.5976, 1479.819
834.0797, 1510.243
834.5618, 1537.205
835.0439, 1560.102
835.5261, 1585.291
836.0082, 1617.889
836.4903, 1657.198
836.9724, 1702.895
837.4545, 1754.352
837.9366, 1811.171
838.4188, 1872.727
838.9009, 1933.863
839.3830, 1988.498
839.8651, 2038.363
840.3472, 2092.955
840.8293, 2152.576
841.3115, 2201.761
841.7936, 2238.379
842.2757, 2261.587
842.7578, 2270.769
843.2399, 2266.398
843.7220, 2248.459
844.2042, 2211.606
844.6863, 2179.177
845.1684, 2157.294
845.6505, 2130.750
846.1326, 2084.090
846.6147, 2037.501
847.0969, 2009.015
847.5790, 1998.720
848.0611, 2002.456
848.5432, 2030.505
849.0253, 2057.832
849.5074, 2071.946
849.9896, 2087.947
850.4717, 2115.176
850.9538, 2154.429
851.4359, 2206.773
851.9180, 2273.617
852.4001, 2340.037
852.8823, 2388.419
853.3644, 2438.805
853.8465, 2522.986
854.3286, 2622.993
854.8107, 2702.076
855.2928, 2753.570
855.7750, 2789.166
856.2571, 2811.010
856.7392, 2840.002
857.2213, 2951.085
857.7034, 3106.365
858.1855, 3115.961
858.6677, 2966.371
859.1498, 2805.918
859.6319, 2702.083
860.1140, 2625.983
860.5961, 2535.911
861.0782, 2433.241
861.5604, 2344.201
862.0425, 2272.379
862.5246, 2200.024
863.0067, 2122.740
863.4888, 2043.375
863.9709, 1961.981
864.4531, 1880.500
864.9352, 1807.348
865.4173, 1745.168
865.8994, 1685.396
866.3815, 1635.725
866.8636, 1578.772
867.3458, 1491.649
867.8279, 1404.673
868.3100, 1360.208
868.7921, 1356.868
869.2742, 1339.109
869.7563, 1276.463
870.2385, 1218.399
870.7206, 1184.257
871.2027, 1162.514
871.6848, 1146.819
872.1669, 1134.136
872.6490, 1121.526
873.1312, 1108.090
873.6133, 1092.183
874.0954, 1067.892
874.5775, 1044.325
875.0596, 1034.489
875.5417, 1032.400
876.0239, 1024.904
876.5060, 1010.126
876.9881, 995.1425
877.4702, 984.7812
877.9523, 976.5728
878.4344, 964.7889
878.9166, 951.8452
879.3987, 949.1907
879.8808, 956.4635
880.3629, 960.6152
880.8450, 956.4387
881.3271, 946.0283
881.8093, 930.1666
882.2914, 910.9099
882.7735, 903.0063
883.2556, 908.5569
883.7377, 909.5351
884.2198, 901.8434
884.7020, 893.0981
885.1841, 887.7703
885.6662, 885.1656
886.1483, 884.0190
886.6304, 884.9431
887.1125, 884.5099
887.5947, 881.4929
888.0768, 879.1740
888.5589, 882.1324
889.0410, 882.8199
889.5231, 869.2039
890.0052, 846.6196
890.4874, 839.9877
890.9695, 862.9883
891.4516, 880.1826
891.9337, 885.8094
892.4158, 885.6151
892.8979, 879.7645
893.3801, 871.5432
893.8622, 861.1500
894.3443, 850.1115
894.8264, 853.0414
895.3085, 897.2572
895.7906, 930.7596
896.2728, 911.9846
896.7549, 879.2267
897.2370, 871.1870
897.7191, 884.8130
898.2012, 904.0742
898.6833, 923.3737
899.1655, 933.0464
899.6476, 913.4358
900.1297, 889.3198
900.6118, 893.7780
901.0939, 916.8701
901.5760, 939.3459
902.0582, 956.3268
902.5403, 966.9244
903.0224, 970.0696
903.5045, 969.4738
903.9866, 967.7270
904.4688, 967.0554
904.9509, 978.1779
905.4330, 999.0484
905.9151, 1009.422
906.3972, 1002.841
906.8793, 997.1996
907.3615, 1010.715
907.8436, 1036.723
908.3257, 1054.859
908.8078, 1065.101
909.2899, 1066.073
909.7720, 1055.399
910.2542, 1053.934
910.7363, 1074.719
911.2184, 1100.521
911.7005, 1105.591
912.1826, 1090.211
912.6647, 1078.785
913.1469, 1069.830
913.6290, 1070.063
914.1111, 1084.258
914.5932, 1101.333
915.0753, 1116.113
915.5574, 1127.359
916.0396, 1130.058
916.5217, 1116.389
917.0038, 1124.134
917.4859, 1177.538
917.9680, 1217.968
918.4501, 1219.878
918.9323, 1214.354
919.4144, 1221.900
919.8965, 1242.291
920.3786, 1274.430
920.8607, 1328.309
921.3428, 1371.685
921.8250, 1388.146
922.3071, 1406.829
922.7892, 1442.134
923.2713, 1486.529
923.7534, 1528.731
924.2355, 1569.505
924.7177, 1620.741
925.1998, 1695.313
925.6819, 1765.911
926.1640, 1816.972
926.6461, 1863.641
927.1282, 1914.395
927.6104, 1970.580
928.0925, 2035.451
928.5746, 2108.440
929.0567, 2178.015
929.5388, 2245.800
930.0209, 2298.441
930.5031, 2322.103
930.9852, 2327.725
931.4673, 2327.459
931.9494, 2322.036
932.4315, 2310.034
932.9136, 2290.697
933.3958, 2257.612
933.8779, 2199.972
934.3600, 2129.862
934.8421, 2061.186
935.3242, 1992.838
935.8063, 1919.200
936.2885, 1843.381
936.7706, 1781.537
937.2527, 1742.912
937.7348, 1714.283
938.2169, 1681.074
938.6990, 1645.025
939.1812, 1611.450
939.6633, 1578.707
940.1454, 1537.012
940.6275, 1485.591
941.1096, 1441.885
941.5917, 1419.690
942.0739, 1403.908
942.5560, 1363.515
943.0381, 1304.623
943.5202, 1257.253
944.0023, 1222.806
944.4844, 1203.969
944.9666, 1202.069
945.4487, 1196.712
945.9308, 1167.891
946.4129, 1126.188
946.8950, 1102.180
947.3771, 1095.745
947.8593, 1087.080
948.3414, 1074.913
948.8235, 1060.530
949.3056, 1044.293
949.7877, 1026.432
950.2698, 1006.305
950.7520, 985.5378
951.2341, 974.4918
951.7162, 975.6642
952.1983, 970.0504
952.6804, 954.7847
953.1625, 936.2870
953.6447, 915.5400
954.1268, 897.3010
954.6089, 888.4383
955.0910, 888.5527
955.5731, 888.2813
956.0552, 889.2328
956.5374, 884.4185
957.0195, 870.5840
957.5016, 855.2852
957.9837, 839.6588
958.4658, 828.2699
958.9479, 830.6251
959.4301, 848.3804
959.9122, 855.5859
960.3943, 842.7234
960.8764, 839.0383
961.3585, 859.1910
961.8406, 874.9421
962.3228, 863.4136
962.8049, 838.8030
963.2870, 829.6475
963.7691, 839.4562
964.2512, 845.9302
964.7333, 844.8065
965.2155, 846.5522
965.6976, 857.3932
966.1797, 867.2872
966.6618, 869.7201
967.1439, 866.5469
967.6260, 861.1616
968.1082, 852.0688
968.5903, 847.1692
969.0724, 846.3199
969.5545, 850.3777
970.0366, 864.9781
970.5187, 879.6493
971.0009, 885.4669
971.4830, 885.1826
971.9651, 885.3187
972.4472, 883.6883
972.9293, 892.5399
973.4114, 927.4034
973.8936, 955.4189
974.3757, 959.2081
974.8578, 956.1199
975.3399, 960.3093
975.8220, 970.9146
976.3041, 982.4513
976.7863, 994.9228
977.2684, 1005.361
977.7505, 1005.777
978.2326, 1012.893
978.7147, 1040.116
979.1968, 1072.783
979.6790, 1093.078
980.1611, 1105.458
980.6432, 1132.162
981.1253, 1187.885
981.6074, 1226.421
982.0895, 1220.211
982.5717, 1209.685
983.0538, 1207.726
983.5359, 1218.035
984.0180, 1252.797
984.5001, 1303.052
984.9822, 1335.264
985.4644, 1335.966
985.9465, 1332.177
986.4286, 1334.472
986.9107, 1334.105
987.3928, 1320.813
987.8749, 1305.535
988.3571, 1304.933
988.8392, 1315.497
989.3213, 1317.157
989.8034, 1303.603
990.2855, 1281.588
990.7676, 1247.276
991.2498, 1212.649
991.7319, 1183.746
992.2140, 1160.142
992.6961, 1143.177
993.1782, 1130.550
993.6603, 1113.506
994.1425, 1088.121
994.6246, 1061.349
995.1067, 1030.542
995.5888, 1005.542
996.0709, 999.3676
996.5530, 999.0339
997.0352, 985.8724
997.5173, 961.5223
997.9994, 943.5255
998.4815, 939.4651
998.9636, 937.4910
999.4457, 932.5080
999.9279, 927.2662
1000.410, 926.5016
1000.892, 924.8455
1001.374, 913.4395
1001.856, 894.0181
1002.338, 876.9143
1002.821, 864.0349
1003.303, 858.9673
1003.785, 872.1630
1004.267, 884.2105
1004.749, 877.9670
1005.231, 865.1032
1005.713, 861.4968
1006.195, 866.5466
1006.677, 870.4782
1007.160, 872.6645
1007.642, 864.3922
1008.124, 828.3914
1008.606, 795.3619
1009.088, 788.3281
1009.570, 793.6937
1010.052, 793.9473
1010.534, 789.5789
1011.017, 792.4980
1011.499, 809.7903
1011.981, 821.7568
1012.463, 815.0424
1012.945, 806.1046
1013.427, 805.0911
1013.909, 807.2221
1014.391, 805.4023
1014.873, 801.2948
1015.356, 804.9904
1015.838, 824.3039
1016.320, 829.3351
1016.802, 789.4438
1017.284, 754.9172
1017.766, 758.6060
1018.248, 777.0289
1018.730, 789.4944
1019.213, 793.9848
1019.695, 791.9804
1020.177, 781.9387
1020.659, 775.1322
1021.141, 777.5034
1021.623, 781.0659
1022.105, 783.2057
1022.587, 783.9372
1023.069, 783.2477
1023.552, 781.3079
1024.034, 777.9692
1024.516, 772.6733
1024.998, 769.5582
1025.480, 766.2535
1025.962, 769.8346
1026.444, 793.6351
1026.926, 815.5359
1027.409, 812.4080
1027.891, 795.2570
1028.373, 790.5856
1028.855, 803.8483
1029.337, 811.4725
1029.819, 806.3093
1030.301, 799.0187
1030.783, 790.3485
1031.266, 782.5443
1031.748, 774.6433
1032.230, 769.6129
1032.712, 773.3256
1033.194, 786.7243
1033.676, 801.1095
1034.158, 825.9071
1034.640, 836.4825
1035.122, 810.8091
1035.604, 789.5428
1036.087, 803.2653
1036.569, 830.9495
1037.051, 838.9889
1037.533, 826.1532
1038.015, 823.1263
1038.497, 840.3076
1038.979, 850.9106
1039.461, 852.9291
1039.944, 848.5049
1040.426, 830.5685
1040.908, 813.4901
1041.390, 817.3842
1041.872, 839.8373
1042.354, 854.0961
1042.836, 857.8505
1043.318, 857.7587
1043.801, 849.6239
1044.283, 845.9653
1044.765, 852.5851
1045.247, 863.9886
1045.729, 875.7126
1046.211, 887.2333
1046.693, 896.1722
1047.175, 902.2736
1047.657, 906.3013
1048.140, 906.3167
1048.622, 910.7327
1049.104, 924.2880
1049.586, 937.2303
1050.068, 940.9442
1050.550, 938.3279
1051.032, 934.8970
1051.514, 928.7023
1051.996, 945.0757
1052.479, 989.4834
1052.961, 1019.801
1053.443, 1023.809
1053.925, 1025.819
1054.407, 1042.875
1054.889, 1065.684
1055.371, 1075.836
1055.853, 1075.064
1056.336, 1085.122
1056.818, 1106.035
1057.300, 1124.828
1057.782, 1139.192
1058.264, 1163.240
1058.746, 1205.316
1059.228, 1248.752
1059.710, 1269.672
1060.193, 1275.477
1060.675, 1289.206
1061.157, 1310.631
1061.639, 1338.042
1062.121, 1371.459
1062.603, 1414.682
1063.085, 1468.649
1063.567, 1519.808
1064.049, 1551.664
1064.531, 1578.528
1065.014, 1631.744
1065.496, 1698.336
1065.978, 1742.782
1066.460, 1770.155
1066.942, 1807.712
1067.424, 1862.007
1067.906, 1918.713
1068.388, 1965.782
1068.871, 2019.403
1069.353, 2103.879
1069.835, 2201.536
1070.317, 2289.754
1070.799, 2371.363
1071.281, 2454.708
1071.763, 2540.570
1072.245, 2625.030
1072.727, 2706.055
1073.210, 2790.575
1073.692, 2893.797
1074.174, 2992.468
1074.656, 3070.895
1075.138, 3131.281
1075.620, 3178.349
1076.102, 3210.258
1076.584, 3218.843
1077.067, 3201.486
1077.549, 3178.493
1078.031, 3168.375
1078.513, 3141.713
1078.995, 3081.799
1079.477, 3003.699
1079.959, 2911.312
1080.441, 2812.417
1080.923, 2717.362
1081.406, 2627.463
1081.888, 2536.730
1082.370, 2444.925
1082.852, 2350.153
1083.334, 2243.317
1083.816, 2144.384
1084.298, 2066.021
1084.780, 1997.700
1085.262, 1929.814
1085.745, 1862.863
1086.227, 1798.370
1086.709, 1730.624
1087.191, 1681.913
1087.673, 1661.069
1088.155, 1642.010
1088.637, 1619.545
1089.119, 1594.321
1089.602, 1566.032
1090.084, 1535.813
1090.566, 1504.319
1091.048, 1470.978
1091.530, 1455.506
1092.012, 1460.991
1092.494, 1466.236
1092.976, 1468.674
1093.458, 1463.750
1093.941, 1447.631
1094.423, 1431.462
1094.905, 1430.602
1095.387, 1439.824
1095.869, 1439.710
1096.351, 1431.433
1096.833, 1424.861
1097.315, 1420.166
1097.797, 1408.846
1098.280, 1388.816
1098.762, 1371.379
1099.244, 1365.746
1099.726, 1366.845
1100.208, 1371.094
1100.690, 1374.165
1101.172, 1366.851
1101.654, 1350.862
1102.137, 1324.571
1102.619, 1294.095
1103.101, 1285.829
1103.583, 1313.763
1104.065, 1337.522
1104.547, 1317.491
1105.029, 1284.903
1105.511, 1263.868
1105.994, 1250.478
1106.476, 1241.163
1106.958, 1234.300
1107.440, 1227.990
1107.922, 1221.851
1108.404, 1217.492
1108.886, 1219.782
1109.368, 1217.560
1109.850, 1205.018
1110.333, 1188.619
1110.815, 1164.111
1111.297, 1143.717
1111.779, 1149.687
1112.261, 1174.955
1112.743, 1178.671
1113.225, 1145.997
1113.707, 1119.837
1114.189, 1107.557
1114.672, 1092.134
1115.154, 1065.076
1115.636, 1040.184
1116.118, 1025.966
1116.600, 1020.761
1117.082, 1022.801
1117.564, 1032.143
1118.046, 1036.632
1118.529, 1036.247
1119.011, 1029.438
1119.493, 1014.226
1119.975, 1006.785
1120.457, 1015.958
1120.939, 1019.618
1121.421, 991.2997
1121.903, 949.6751
1122.385, 949.6384
1122.868, 981.1551
1123.350, 991.2921
1123.832, 981.2876
1124.314, 970.0173
1124.796, 962.4633
1125.278, 958.3123
1125.760, 957.5108
1126.242, 958.0261
1126.724, 958.1649
1127.207, 957.7848
1127.689, 951.6453
1128.171, 947.9388
1128.653, 969.0437
1129.135, 1002.413
1129.617, 1008.828
1130.099, 981.0598
1130.581, 958.2347
1131.064, 961.9231
1131.546, 971.6849
1132.028, 977.1565
1132.510, 984.7426
1132.992, 1003.027
1133.474, 1022.934
1133.956, 1032.018
1134.438, 1032.524
1134.921, 1036.212
1135.403, 1043.281
1135.885, 1057.576
1136.367, 1093.819
1136.849, 1115.136
1137.331, 1104.337
1137.813, 1093.037
1138.295, 1097.552
1138.777, 1114.144
1139.260, 1140.021
1139.742, 1173.084
1140.224, 1190.895
1140.706, 1189.176
1141.188, 1210.906
1141.670, 1262.242
1142.152, 1297.064
1142.634, 1299.684
1143.116, 1297.052
1143.599, 1309.714
1144.081, 1331.269
1144.563, 1350.837
1145.045, 1370.143
1145.527, 1395.410
1146.009, 1424.741
1146.491, 1451.160
1146.973, 1475.262
1147.456, 1505.362
1147.938, 1543.880
1148.420, 1579.404
1148.902, 1597.387
1149.384, 1619.470
1149.866, 1676.690
1150.348, 1735.730
1150.830, 1758.846
1151.313, 1763.733
1151.795, 1777.949
1152.277, 1803.469
1152.759, 1830.164
1153.241, 1855.719
1153.723, 1881.547
1154.205, 1911.419
1154.687, 1937.162
1155.169, 1957.594
1155.651, 1971.558
1156.134, 1974.502
1156.616, 1974.076
1157.098, 1982.544
1157.580, 1998.634
1158.062, 2008.212
1158.544, 2012.854
1159.026, 2001.524
1159.508, 1970.519
1159.991, 1942.972
1160.473, 1926.135
1160.955, 1911.071
1161.437, 1891.281
1161.919, 1868.413
1162.401, 1846.720
1162.883, 1823.426
1163.365, 1786.416
1163.848, 1739.990
1164.330, 1696.321
1164.812, 1658.162
1165.294, 1630.356
1165.776, 1613.011
1166.258, 1594.346
1166.740, 1565.586
1167.222, 1535.277
1167.704, 1510.962
1168.187, 1487.720
1168.669, 1463.640
1169.151, 1436.367
1169.633, 1401.070
1170.115, 1360.508
1170.597, 1321.995
1171.079, 1286.254
1171.561, 1257.029
1172.043, 1234.464
1172.526, 1219.316
1173.008, 1221.455
1173.490, 1216.507
1173.972, 1189.959
1174.454, 1157.805
1174.936, 1137.349
1175.418, 1124.263
1175.900, 1102.259
1176.383, 1069.940
1176.865, 1049.508
1177.347, 1041.119
1177.829, 1035.486
1178.311, 1030.754
1178.793, 1025.158
1179.275, 1017.831
1179.757, 1009.188
1180.240, 997.9891
1180.722, 989.0798
1181.204, 993.4333
1181.686, 1003.597
1182.168, 1008.861
1182.650, 1008.652
1183.132, 1003.089
1183.614, 993.0118
1184.096, 978.6503
1184.578, 958.1277
1185.061, 949.0108
1185.543, 969.8956
1186.025, 989.4260
1186.507, 999.2125
1186.989, 997.9841
1187.471, 978.5780
1187.953, 951.8029
1188.435, 929.1702
1188.918, 912.1494
1189.400, 911.0882
1189.882, 933.0263
1190.364, 946.1042
1190.846, 949.5438
1191.328, 946.7162
1191.810, 937.3963
1192.292, 928.2267
1192.775, 922.8550
1193.257, 920.7755
1193.739, 922.4419
1194.221, 925.2097
1194.703, 922.9424
1195.185, 916.3989
1195.667, 903.6585
1196.149, 889.3363
1196.631, 889.6230
1197.114, 903.0148
1197.596, 906.5156
1198.078, 888.8241
1198.560, 872.7354
1199.042, 874.4317
1199.524, 879.3441
1200.006, 881.1030
1200.488, 880.7804
1200.970, 882.3065
1201.453, 880.5631
1201.935, 862.2463
1202.417, 831.4534
1202.899, 821.5748
1203.381, 842.7811
1203.863, 852.5715
1204.345, 848.5404
1204.827, 839.3752
1205.310, 824.3237
1205.792, 816.1672
1206.274, 822.4436
1206.756, 834.5704
1207.238, 843.4620
1207.720, 848.5530
1208.202, 846.8892
1208.684, 840.8096
1209.167, 836.7242
1209.649, 834.4107
1210.131, 832.4413
1210.613, 830.3606
1211.095, 827.5943
1211.577, 823.8689
1212.059, 821.2003
1212.541, 821.2881
1213.023, 822.1177
1213.505, 820.1390
1213.988, 821.2711
1214.470, 836.1196
1214.952, 851.7166
1215.434, 846.0463
1215.916, 827.5804
1216.398, 831.3798
1216.880, 864.5540
1217.362, 874.2625
1217.845, 853.9480
1218.327, 837.8033
1218.809, 830.6613
1219.291, 826.3378
1219.773, 822.0597
1220.255, 823.2924
1220.737, 836.5596
1221.219, 851.9919
1221.702, 850.3083
1222.184, 839.2169
1222.666, 833.2046
1223.148, 831.0445
1223.630, 829.9432
1224.112, 829.3162
1224.594, 829.7536
1225.076, 831.0823
1225.558, 829.5048
1226.041, 818.1795
1226.523, 814.0678
1227.005, 832.6441
1227.487, 846.9124
1227.969, 841.8900
1228.451, 831.0425
1228.933, 820.0774
1229.415, 814.4427
1229.897, 827.2701
1230.380, 855.0399
##END=



