##NAMES=Hilgardite
##RRUFFID=R070427
##IDEAL CHEMISTRY=Ca_2_B_5_O_9_Cl&#183;H_2_O
##LOCALITY=Boulby mine, Loftus, Cleveland, England, UK
##OWNER=RRUFF
##SOURCE=Michael Scott
##DESCRIPTION=Massive etched pink crystallline associated with pale green boracite, polytype 3TC
##STATUS=The identification of this mineral has been confirmed by single-crystal X-ray diffraction.
##URL=rruff.info/R070427
134.0130, 1329.175
134.4951, 1375.484
134.9772, 1415.057
135.4593, 1447.250
135.9414, 1477.767
136.4235, 1511.027
136.9057, 1546.962
137.3878, 1582.520
137.8699, 1615.232
138.3520, 1646.229
138.8341, 1689.240
139.3162, 1749.591
139.7984, 1811.170
140.2805, 1855.919
140.7626, 1880.343
141.2447, 1897.841
141.7268, 1909.964
142.2089, 1914.954
142.6911, 1927.655
143.1732, 1950.891
143.6553, 1979.639
144.1374, 2004.639
144.6195, 2025.151
145.1016, 2042.821
145.5838, 2058.095
146.0659, 2070.523
146.5480, 2081.331
147.0301, 2087.039
147.5122, 2090.703
147.9943, 2104.915
148.4765, 2132.434
148.9586, 2167.757
149.4407, 2208.180
149.9228, 2243.644
150.4049, 2296.998
150.8870, 2375.259
151.3692, 2477.800
151.8513, 2578.996
152.3334, 2670.178
152.8155, 2763.336
153.2976, 2869.545
153.7797, 3020.573
154.2619, 3151.985
154.7440, 3257.330
155.2261, 3336.804
155.7082, 3381.564
156.1903, 3377.572
156.6724, 3342.119
157.1546, 3295.829
157.6367, 3235.297
158.1188, 3170.192
158.6009, 3103.037
159.0830, 3031.792
159.5651, 2963.131
160.0473, 2891.061
160.5294, 2822.554
161.0115, 2772.156
161.4936, 2752.620
161.9757, 2746.071
162.4578, 2743.401
162.9400, 2744.389
163.4221, 2746.632
163.9042, 2748.742
164.3863, 2751.238
164.8684, 2755.867
165.3506, 2760.637
165.8327, 2769.151
166.3148, 2784.446
166.7969, 2809.925
167.2790, 2839.818
167.7611, 2872.128
168.2433, 2906.808
168.7254, 2942.072
169.2075, 2969.332
169.6896, 2998.729
170.1717, 3042.091
170.6538, 3129.173
171.1360, 3215.341
171.6181, 3263.153
172.1002, 3271.296
172.5823, 3267.114
173.0644, 3266.854
173.5465, 3268.510
174.0287, 3268.473
174.5108, 3269.313
174.9929, 3265.708
175.4750, 3250.063
175.9571, 3220.541
176.4392, 3186.682
176.9214, 3162.357
177.4035, 3142.248
177.8856, 3111.073
178.3677, 3050.513
178.8498, 2976.210
179.3319, 2913.273
179.8141, 2867.761
180.2962, 2825.872
180.7783, 2769.969
181.2604, 2702.519
181.7425, 2631.083
182.2246, 2557.960
182.7068, 2485.005
183.1889, 2413.424
183.6710, 2341.702
184.1531, 2275.019
184.6352, 2223.953
185.1173, 2187.723
185.5995, 2160.232
186.0816, 2138.001
186.5637, 2120.817
187.0458, 2107.229
187.5279, 2095.915
188.0100, 2088.771
188.4922, 2091.003
188.9743, 2102.869
189.4564, 2120.698
189.9385, 2140.930
190.4206, 2163.872
190.9027, 2191.811
191.3849, 2226.415
191.8670, 2266.681
192.3491, 2308.944
192.8312, 2353.356
193.3133, 2401.020
193.7954, 2454.175
194.2776, 2512.747
194.7597, 2573.018
195.2418, 2633.171
195.7239, 2693.315
196.2060, 2756.349
196.6881, 2821.318
197.1703, 2890.741
197.6524, 2968.552
198.1345, 3053.796
198.6166, 3145.971
199.0987, 3246.853
199.5808, 3356.452
200.0630, 3462.140
200.5451, 3564.006
201.0272, 3661.095
201.5093, 3750.907
201.9914, 3831.481
202.4735, 3914.068
202.9557, 4010.799
203.4378, 4124.530
203.9199, 4217.238
204.4020, 4283.914
204.8841, 4331.225
205.3663, 4383.296
205.8484, 4451.006
206.3305, 4486.320
206.8126, 4461.680
207.2947, 4374.170
207.7768, 4241.679
208.2590, 4056.679
208.7411, 3830.926
209.2232, 3601.462
209.7053, 3361.721
210.1874, 3131.432
210.6695, 2916.756
211.1517, 2715.669
211.6338, 2539.376
212.1159, 2391.524
212.5980, 2269.919
213.0801, 2161.775
213.5622, 2068.440
214.0444, 1987.822
214.5265, 1920.459
215.0086, 1867.495
215.4907, 1822.378
215.9728, 1784.392
216.4549, 1753.362
216.9371, 1727.127
217.4192, 1706.617
217.9013, 1689.880
218.3834, 1674.858
218.8655, 1660.100
219.3476, 1651.278
219.8298, 1651.119
220.3119, 1659.712
220.7940, 1666.060
221.2761, 1669.623
221.7582, 1671.558
222.2403, 1673.230
222.7225, 1674.997
223.2046, 1675.353
223.6867, 1671.884
224.1688, 1663.358
224.6509, 1666.089
225.1330, 1685.883
225.6152, 1711.546
226.0973, 1729.385
226.5794, 1739.828
227.0615, 1741.062
227.5436, 1730.359
228.0257, 1704.906
228.5079, 1683.845
228.9900, 1668.011
229.4721, 1655.734
229.9542, 1644.204
230.4363, 1631.825
230.9184, 1623.210
231.4006, 1620.894
231.8827, 1627.353
232.3648, 1629.504
232.8469, 1625.122
233.3290, 1617.748
233.8111, 1613.996
234.2933, 1617.539
234.7754, 1618.497
235.2575, 1611.835
235.7396, 1592.229
236.2217, 1582.881
236.7038, 1588.958
237.1860, 1602.875
237.6681, 1608.361
238.1502, 1597.028
238.6323, 1590.534
239.1144, 1598.344
239.5965, 1627.963
240.0787, 1651.042
240.5608, 1663.023
241.0429, 1670.138
241.5250, 1686.944
242.0071, 1718.775
242.4892, 1752.342
242.9714, 1782.049
243.4535, 1807.929
243.9356, 1830.251
244.4177, 1844.292
244.8998, 1855.961
245.3819, 1882.909
245.8641, 1938.311
246.3462, 1989.755
246.8283, 2020.956
247.3104, 2021.933
247.7925, 2026.520
248.2747, 2037.613
248.7568, 2052.046
249.2389, 2060.817
249.7210, 2062.656
250.2031, 2060.753
250.6852, 2056.601
251.1674, 2050.673
251.6495, 2041.411
252.1316, 2028.619
252.6137, 2012.557
253.0958, 1992.540
253.5779, 1961.737
254.0601, 1937.535
254.5422, 1931.638
255.0243, 1954.722
255.5064, 1967.789
255.9885, 1964.897
256.4706, 1951.580
256.9528, 1946.635
257.4349, 1953.443
257.9170, 1963.063
258.3991, 1972.075
258.8812, 1983.021
259.3633, 1985.904
259.8455, 1979.220
260.3276, 1964.259
260.8097, 1944.857
261.2918, 1918.093
261.7739, 1891.931
262.2560, 1872.057
262.7382, 1862.830
263.2203, 1845.415
263.7024, 1814.094
264.1845, 1774.783
264.6666, 1747.492
265.1487, 1735.611
265.6309, 1729.237
266.1130, 1723.336
266.5951, 1718.041
267.0772, 1712.102
267.5593, 1704.132
268.0414, 1695.833
268.5236, 1693.646
269.0057, 1699.017
269.4878, 1706.964
269.9699, 1712.730
270.4520, 1713.426
270.9341, 1726.551
271.4163, 1757.975
271.8984, 1800.580
272.3805, 1832.137
272.8626, 1850.814
273.3447, 1864.723
273.8268, 1876.980
274.3090, 1886.452
274.7911, 1903.372
275.2732, 1932.878
275.7553, 1967.136
276.2374, 1982.955
276.7195, 1977.518
277.2017, 1965.075
277.6838, 1950.849
278.1659, 1933.858
278.6480, 1928.307
279.1301, 1937.982
279.6122, 1957.355
280.0944, 1973.419
280.5765, 1985.342
281.0586, 1998.231
281.5407, 2013.770
282.0228, 2031.927
282.5049, 2059.772
282.9871, 2103.412
283.4692, 2150.053
283.9513, 2168.516
284.4334, 2156.445
284.9155, 2143.757
285.3976, 2150.369
285.8798, 2174.708
286.3619, 2196.770
286.8440, 2216.474
287.3261, 2230.408
287.8082, 2228.828
288.2903, 2211.583
288.7725, 2195.057
289.2546, 2192.729
289.7367, 2201.162
290.2188, 2202.092
290.7009, 2195.845
291.1830, 2177.170
291.6652, 2140.966
292.1473, 2086.477
292.6294, 2008.184
293.1115, 1885.234
293.5936, 1732.914
294.0757, 1602.803
294.5579, 1498.492
295.0400, 1417.483
295.5221, 1360.183
296.0042, 1324.309
296.4863, 1299.539
296.9684, 1282.678
297.4506, 1272.397
297.9327, 1266.353
298.4148, 1264.687
298.8969, 1265.608
299.3790, 1267.495
299.8611, 1270.292
300.3433, 1273.796
300.8254, 1280.101
301.3075, 1286.435
301.7896, 1286.911
302.2717, 1280.407
302.7538, 1273.418
303.2360, 1273.604
303.7181, 1278.433
304.2002, 1281.783
304.6823, 1278.328
305.1644, 1272.899
305.6465, 1271.206
306.1287, 1275.919
306.6108, 1279.498
307.0929, 1282.004
307.5750, 1280.225
308.0572, 1283.980
308.5393, 1285.517
309.0214, 1286.963
309.5035, 1291.496
309.9856, 1290.341
310.4677, 1294.825
310.9499, 1297.058
311.4320, 1300.322
311.9141, 1301.354
312.3962, 1303.075
312.8783, 1307.029
313.3604, 1309.746
313.8426, 1310.522
314.3247, 1313.851
314.8068, 1312.617
315.2889, 1315.816
315.7710, 1325.268
316.2531, 1351.205
316.7353, 1376.885
317.2174, 1393.370
317.6995, 1401.528
318.1816, 1410.971
318.6637, 1424.728
319.1458, 1441.701
319.6280, 1461.006
320.1101, 1485.891
320.5922, 1509.549
321.0743, 1529.085
321.5564, 1545.275
322.0385, 1562.481
322.5207, 1586.694
323.0028, 1609.285
323.4849, 1624.451
323.9670, 1614.732
324.4491, 1617.525
324.9312, 1645.719
325.4134, 1692.627
325.8955, 1733.088
326.3776, 1751.520
326.8597, 1772.271
327.3418, 1807.319
327.8239, 1875.032
328.3061, 1931.544
328.7882, 1967.869
329.2703, 1992.299
329.7524, 2026.003
330.2345, 2069.973
330.7166, 2122.272
331.1988, 2183.449
331.6809, 2255.434
332.1630, 2328.971
332.6451, 2404.368
333.1272, 2481.536
333.6093, 2559.199
334.0915, 2638.436
334.5736, 2717.542
335.0557, 2799.230
335.5378, 2887.730
336.0199, 2955.486
336.5020, 2998.073
336.9842, 3024.809
337.4663, 3052.004
337.9484, 3087.796
338.4305, 3101.502
338.9126, 3081.334
339.3947, 3027.114
339.8769, 2967.836
340.3590, 2903.852
340.8411, 2833.105
341.3232, 2749.578
341.8053, 2652.182
342.2874, 2555.043
342.7696, 2459.408
343.2517, 2366.675
343.7338, 2293.607
344.2159, 2241.175
344.6980, 2197.692
345.1801, 2150.202
345.6623, 2099.977
346.1444, 2059.840
346.6265, 2033.515
347.1086, 2018.530
347.5907, 2009.748
348.0728, 2007.305
348.5550, 2010.115
349.0371, 2017.871
349.5192, 2030.286
350.0013, 2047.163
350.4834, 2069.196
350.9655, 2094.151
351.4477, 2117.088
351.9298, 2139.312
352.4119, 2165.865
352.8940, 2199.888
353.3761, 2240.358
353.8582, 2286.183
354.3404, 2338.353
354.8225, 2391.527
355.3046, 2443.173
355.7867, 2492.070
356.2688, 2535.286
356.7509, 2570.332
357.2331, 2599.617
357.7152, 2627.594
358.1973, 2655.534
358.6794, 2672.300
359.1615, 2667.283
359.6436, 2647.433
360.1258, 2622.472
360.6079, 2596.480
361.0900, 2566.098
361.5721, 2522.037
362.0542, 2464.715
362.5363, 2424.221
363.0185, 2424.721
363.5006, 2442.126
363.9827, 2454.762
364.4648, 2434.723
364.9469, 2432.453
365.4290, 2467.921
365.9112, 2536.592
366.3933, 2607.242
366.8754, 2681.584
367.3575, 2751.391
367.8396, 2811.145
368.3217, 2845.804
368.8039, 2889.076
369.2860, 2945.364
369.7681, 3011.661
370.2502, 3080.597
370.7323, 3156.990
371.2144, 3231.448
371.6966, 3298.748
372.1787, 3352.014
372.6608, 3415.908
373.1429, 3502.431
373.6250, 3592.899
374.1071, 3656.184
374.5893, 3681.498
375.0714, 3702.033
375.5535, 3734.690
376.0356, 3782.975
376.5177, 3785.924
376.9998, 3733.060
377.4820, 3652.636
377.9641, 3575.591
378.4462, 3501.995
378.9283, 3428.262
379.4104, 3352.870
379.8925, 3277.097
380.3747, 3206.961
380.8568, 3141.976
381.3389, 3081.981
381.8210, 3028.549
382.3031, 2981.002
382.7852, 2928.100
383.2674, 2864.777
383.7495, 2799.923
384.2316, 2758.069
384.7137, 2736.098
385.1958, 2709.214
385.6779, 2657.663
386.1601, 2589.909
386.6422, 2523.500
387.1243, 2458.496
387.6064, 2399.466
388.0885, 2355.221
388.5706, 2320.208
389.0528, 2281.208
389.5349, 2227.250
390.0170, 2168.800
390.4991, 2116.239
390.9813, 2070.884
391.4634, 2024.158
391.9455, 1968.042
392.4276, 1907.979
392.9097, 1850.887
393.3918, 1797.040
393.8740, 1748.905
394.3561, 1707.771
394.8382, 1673.558
395.3203, 1643.311
395.8024, 1611.999
396.2845, 1586.986
396.7667, 1573.716
397.2488, 1584.005
397.7309, 1592.484
398.2130, 1590.865
398.6951, 1583.535
399.1772, 1584.345
399.6594, 1603.232
400.1415, 1623.173
400.6236, 1638.043
401.1057, 1646.162
401.5878, 1653.192
402.0699, 1659.808
402.5521, 1665.004
403.0342, 1666.716
403.5163, 1661.443
403.9984, 1659.014
404.4805, 1662.773
404.9626, 1672.807
405.4448, 1680.864
405.9269, 1685.421
406.4090, 1690.804
406.8911, 1703.939
407.3732, 1727.421
407.8553, 1740.070
408.3375, 1734.029
408.8196, 1717.001
409.3017, 1713.349
409.7838, 1723.857
410.2659, 1738.994
410.7480, 1754.594
411.2302, 1769.854
411.7123, 1780.942
412.1944, 1787.969
412.6765, 1788.893
413.1586, 1776.148
413.6407, 1753.010
414.1229, 1734.218
414.6050, 1728.981
415.0871, 1731.729
415.5692, 1734.663
416.0513, 1737.472
416.5334, 1741.046
417.0156, 1748.068
417.4977, 1755.951
417.9798, 1760.686
418.4619, 1752.985
418.9440, 1748.512
419.4261, 1759.279
419.9083, 1783.063
420.3904, 1807.812
420.8725, 1831.715
421.3546, 1852.247
421.8367, 1866.739
422.3188, 1870.794
422.8010, 1875.927
423.2831, 1885.525
423.7652, 1898.143
424.2473, 1910.865
424.7294, 1910.740
425.2115, 1922.227
425.6937, 1958.218
426.1758, 2028.687
426.6579, 2083.997
427.1400, 2117.594
427.6221, 2140.804
428.1042, 2164.748
428.5864, 2186.792
429.0685, 2215.146
429.5506, 2253.813
430.0327, 2300.571
430.5148, 2340.964
430.9969, 2374.998
431.4791, 2402.045
431.9612, 2422.304
432.4433, 2436.153
432.9254, 2438.689
433.4075, 2428.810
433.8896, 2408.314
434.3718, 2378.918
434.8539, 2340.748
435.3360, 2298.130
435.8181, 2245.564
436.3002, 2190.838
436.7823, 2160.418
437.2645, 2156.873
437.7466, 2155.979
438.2287, 2129.767
438.7108, 2088.448
439.1929, 2054.479
439.6750, 2038.141
440.1572, 2030.205
440.6393, 2021.399
441.1214, 2012.922
441.6035, 2010.686
442.0856, 2021.292
442.5677, 2037.812
443.0499, 2055.658
443.5320, 2076.132
444.0141, 2092.022
444.4962, 2096.457
444.9783, 2095.033
445.4604, 2097.124
445.9426, 2104.203
446.4247, 2116.040
446.9068, 2133.830
447.3889, 2158.253
447.8710, 2182.363
448.3531, 2202.527
448.8353, 2224.327
449.3174, 2252.547
449.7995, 2292.573
450.2816, 2329.870
450.7637, 2360.396
451.2458, 2387.228
451.7280, 2420.125
452.2101, 2457.255
452.6922, 2504.277
453.1743, 2567.273
453.6564, 2647.646
454.1385, 2724.157
454.6207, 2796.738
455.1028, 2865.572
455.5849, 2931.440
456.0670, 2994.053
456.5491, 3053.217
457.0313, 3107.821
457.5134, 3158.944
457.9955, 3208.061
458.4776, 3255.509
458.9597, 3299.177
459.4418, 3341.675
459.9240, 3378.368
460.4061, 3401.604
460.8882, 3408.662
461.3703, 3403.933
461.8524, 3397.564
462.3345, 3382.505
462.8167, 3342.228
463.2988, 3255.606
463.7809, 3151.902
464.2630, 3048.994
464.7451, 2949.220
465.2272, 2844.072
465.7094, 2722.347
466.1915, 2599.318
466.6736, 2487.294
467.1557, 2386.619
467.6378, 2300.513
468.1199, 2235.177
468.6021, 2185.744
469.0842, 2132.747
469.5663, 2060.791
470.0484, 2003.478
470.5305, 1977.791
471.0126, 1995.959
471.4948, 2005.099
471.9769, 2002.457
472.4590, 1994.344
472.9411, 1988.640
473.4232, 1985.271
473.9054, 1984.555
474.3875, 1985.499
474.8696, 1989.462
475.3517, 2003.735
475.8338, 2028.845
476.3159, 2055.215
476.7981, 2073.014
477.2802, 2085.929
477.7623, 2105.627
478.2444, 2134.570
478.7265, 2168.333
479.2086, 2200.619
479.6908, 2233.345
480.1729, 2271.035
480.6550, 2323.018
481.1371, 2376.188
481.6192, 2417.763
482.1013, 2447.920
482.5835, 2477.431
483.0656, 2517.428
483.5477, 2555.772
484.0298, 2582.424
484.5119, 2597.529
484.9940, 2597.497
485.4762, 2585.699
485.9583, 2558.539
486.4404, 2506.763
486.9225, 2404.579
487.4046, 2301.721
487.8867, 2209.925
488.3689, 2129.697
488.8510, 2055.675
489.3331, 1985.796
489.8152, 1923.847
490.2973, 1874.315
490.7794, 1839.346
491.2616, 1808.740
491.7437, 1780.521
492.2258, 1755.990
492.7079, 1740.954
493.1900, 1735.980
493.6721, 1731.670
494.1543, 1721.905
494.6364, 1708.416
495.1185, 1696.887
495.6006, 1687.781
496.0827, 1680.486
496.5648, 1672.634
497.0470, 1660.878
497.5291, 1668.398
498.0112, 1672.101
498.4933, 1672.193
498.9754, 1657.859
499.4576, 1662.153
499.9397, 1658.982
500.4218, 1655.505
500.9039, 1662.422
501.3860, 1650.186
501.8681, 1656.937
502.3503, 1656.109
502.8324, 1658.751
503.3145, 1653.880
503.7966, 1651.329
504.2787, 1656.293
504.7608, 1657.096
505.2430, 1651.361
505.7251, 1654.223
506.2072, 1641.724
506.6893, 1642.704
507.1714, 1649.500
507.6535, 1644.143
508.1357, 1647.141
508.6178, 1646.958
509.0999, 1632.310
509.5820, 1642.817
510.0641, 1639.626
510.5462, 1652.425
511.0284, 1663.827
511.5105, 1671.262
511.9926, 1675.202
512.4747, 1675.226
512.9568, 1671.815
513.4390, 1668.998
513.9211, 1668.658
514.4032, 1670.907
514.8853, 1676.603
515.3674, 1686.771
515.8495, 1696.578
516.3317, 1703.404
516.8138, 1707.982
517.2959, 1711.327
517.7780, 1714.749
518.2601, 1716.001
518.7422, 1711.785
519.2244, 1699.752
519.7065, 1719.781
520.1886, 1735.995
520.6707, 1748.598
521.1528, 1746.772
521.6349, 1763.578
522.1171, 1772.920
522.5992, 1781.951
523.0813, 1801.378
523.5634, 1801.652
524.0455, 1820.913
524.5276, 1832.595
525.0098, 1839.752
525.4919, 1843.732
525.9740, 1851.765
526.4561, 1863.994
526.9382, 1878.772
527.4203, 1897.571
527.9025, 1918.107
528.3846, 1935.130
528.8667, 1948.380
529.3488, 1957.315
529.8309, 1960.504
530.3130, 1959.105
530.7952, 1954.990
531.2773, 1949.855
531.7594, 1941.307
532.2415, 1927.137
532.7236, 1908.103
533.2057, 1888.080
533.6879, 1869.006
534.1700, 1848.419
534.6521, 1823.930
535.1342, 1791.714
535.6163, 1766.167
536.0984, 1748.012
536.5806, 1736.409
537.0627, 1731.830
537.5448, 1738.485
538.0269, 1741.790
538.5090, 1738.959
538.9911, 1731.503
539.4733, 1722.929
539.9554, 1712.429
540.4375, 1706.210
540.9196, 1710.046
541.4017, 1721.585
541.8839, 1730.303
542.3660, 1736.042
542.8481, 1738.639
543.3302, 1736.344
543.8123, 1731.069
544.2944, 1725.867
544.7766, 1718.426
545.2587, 1716.457
545.7408, 1731.308
546.2229, 1756.670
546.7050, 1777.282
547.1871, 1787.035
547.6693, 1790.483
548.1514, 1786.761
548.6335, 1774.704
549.1156, 1768.831
549.5977, 1772.102
550.0798, 1781.906
550.5620, 1797.286
551.0441, 1826.019
551.5262, 1844.192
552.0083, 1844.863
552.4904, 1838.828
552.9725, 1849.146
553.4547, 1879.298
553.9368, 1907.271
554.4189, 1922.329
554.9010, 1929.578
555.3831, 1950.402
555.8652, 1985.019
556.3474, 2022.156
556.8295, 2050.449
557.3116, 2075.437
557.7937, 2106.841
558.2758, 2145.415
558.7579, 2194.177
559.2401, 2257.456
559.7222, 2331.794
560.2043, 2411.526
560.6864, 2496.933
561.1685, 2585.329
561.6506, 2674.903
562.1328, 2765.531
562.6149, 2859.009
563.0970, 2947.016
563.5791, 3045.761
564.0612, 3163.556
564.5433, 3304.765
565.0255, 3448.688
565.5076, 3593.418
565.9897, 3741.246
566.4718, 3896.272
566.9539, 4057.363
567.4360, 4223.591
567.9182, 4390.430
568.4003, 4565.135
568.8824, 4764.650
569.3645, 4986.257
569.8466, 5219.453
570.3287, 5473.065
570.8109, 5725.792
571.2930, 5950.858
571.7751, 6147.574
572.2572, 6272.454
572.7393, 6313.721
573.2214, 6260.446
573.7036, 6092.912
574.1857, 5775.325
574.6678, 5419.237
575.1499, 5023.949
575.6320, 4629.137
576.1141, 4287.654
576.5963, 4028.380
577.0784, 3805.438
577.5605, 3614.778
578.0426, 3457.276
578.5247, 3324.602
579.0068, 3220.851
579.4890, 3135.813
579.9711, 3063.095
580.4532, 3002.738
580.9353, 2965.110
581.4174, 2953.794
581.8995, 2950.348
582.3817, 2937.479
582.8638, 2915.799
583.3459, 2887.629
583.8280, 2853.880
584.3101, 2813.335
584.7922, 2753.489
585.2744, 2685.480
585.7565, 2636.413
586.2386, 2676.194
586.7207, 2691.262
587.2028, 2584.292
587.6849, 2358.418
588.1671, 2182.095
588.6492, 2138.217
589.1313, 2131.009
589.6134, 2102.107
590.0955, 2027.032
590.5776, 1980.474
591.0598, 1970.791
591.5419, 1982.127
592.0240, 1995.859
592.5061, 2012.833
592.9882, 2027.795
593.4703, 2038.526
593.9525, 2047.228
594.4346, 2059.029
594.9167, 2073.792
595.3988, 2089.609
595.8809, 2106.966
596.3630, 2124.084
596.8452, 2139.421
597.3273, 2152.575
597.8094, 2160.058
598.2915, 2155.091
598.7736, 2145.478
599.2557, 2139.428
599.7379, 2142.958
600.2200, 2141.493
600.7021, 2129.260
601.1842, 2109.842
601.6663, 2088.718
602.1484, 2062.575
602.6306, 2040.042
603.1127, 2026.711
603.5948, 2018.707
604.0769, 1993.908
604.5590, 1947.126
605.0411, 1901.222
605.5233, 1868.739
606.0054, 1848.415
606.4875, 1834.784
606.9696, 1828.832
607.4517, 1820.813
607.9338, 1797.511
608.4160, 1765.829
608.8981, 1741.551
609.3802, 1729.777
609.8623, 1719.903
610.3444, 1701.794
610.8265, 1680.421
611.3087, 1663.738
611.7908, 1658.959
612.2729, 1654.987
612.7550, 1648.807
613.2371, 1640.426
613.7192, 1630.311
614.2014, 1616.234
614.6835, 1603.393
615.1656, 1594.526
615.6477, 1590.298
616.1298, 1582.967
616.6119, 1570.592
617.0941, 1560.291
617.5762, 1560.370
618.0583, 1569.528
618.5404, 1575.574
619.0225, 1574.819
619.5046, 1576.140
619.9868, 1596.297
620.4689, 1627.403
620.9510, 1650.944
621.4331, 1653.179
621.9152, 1650.300
622.3973, 1648.754
622.8795, 1649.944
623.3616, 1659.433
623.8437, 1686.942
624.3258, 1716.403
624.8079, 1741.261
625.2900, 1761.620
625.7722, 1774.887
626.2543, 1772.447
626.7364, 1773.626
627.2185, 1795.338
627.7006, 1841.465
628.1827, 1884.687
628.6649, 1924.331
629.1470, 1956.643
629.6291, 1970.714
630.1112, 1970.368
630.5933, 1975.560
631.0754, 1995.485
631.5576, 2020.873
632.0397, 2042.041
632.5218, 2059.300
633.0039, 2073.341
633.4860, 2086.524
633.9681, 2094.729
634.4503, 2094.046
634.9324, 2084.132
635.4145, 2073.726
635.8966, 2064.982
636.3787, 2055.911
636.8608, 2044.655
637.3430, 2027.892
637.8251, 2018.676
638.3072, 2019.228
638.7893, 2024.074
639.2714, 2027.823
639.7535, 2030.464
640.2357, 2027.329
640.7178, 2012.253
641.1999, 2000.728
641.6820, 2023.837
642.1641, 2073.362
642.6462, 2119.371
643.1284, 2141.835
643.6105, 2159.431
644.0926, 2189.996
644.5747, 2231.080
645.0568, 2267.058
645.5389, 2283.490
646.0211, 2299.993
646.5032, 2329.958
646.9853, 2381.805
647.4674, 2418.068
647.9495, 2435.367
648.4316, 2440.893
648.9138, 2438.387
649.3959, 2426.163
649.8780, 2415.805
650.3601, 2408.106
650.8422, 2403.174
651.3243, 2404.792
651.8065, 2410.625
652.2886, 2407.865
652.7707, 2386.352
653.2528, 2361.819
653.7349, 2356.937
654.2170, 2364.520
654.6992, 2363.618
655.1813, 2340.821
655.6634, 2309.957
656.1455, 2278.827
656.6276, 2247.790
657.1097, 2208.399
657.5919, 2144.360
658.0740, 2086.446
658.5561, 2051.898
659.0382, 2047.487
659.5203, 2035.268
660.0024, 2012.298
660.4846, 1988.294
660.9667, 1973.692
661.4488, 1967.665
661.9309, 1965.234
662.4130, 1967.366
662.8951, 1967.399
663.3773, 1955.738
663.8594, 1935.752
664.3415, 1914.628
664.8236, 1893.484
665.3057, 1873.783
665.7878, 1855.276
666.2700, 1838.672
666.7521, 1826.333
667.2342, 1825.454
667.7163, 1822.308
668.1984, 1810.788
668.6805, 1791.041
669.1627, 1777.522
669.6448, 1771.668
670.1269, 1768.779
670.6090, 1768.500
671.0911, 1770.265
671.5732, 1760.968
672.0554, 1739.059
672.5375, 1715.781
673.0196, 1704.458
673.5017, 1699.457
673.9838, 1688.971
674.4659, 1667.310
674.9481, 1648.039
675.4302, 1640.305
675.9123, 1640.283
676.3944, 1642.226
676.8765, 1649.736
677.3586, 1653.165
677.8408, 1646.775
678.3229, 1635.115
678.8051, 1631.512
679.2872, 1638.936
679.7693, 1646.885
680.2514, 1650.823
680.7335, 1652.395
681.2156, 1659.742
681.6978, 1672.961
682.1799, 1689.811
682.6620, 1710.864
683.1441, 1733.706
683.6262, 1755.540
684.1083, 1776.016
684.5905, 1793.119
685.0726, 1798.437
685.5547, 1803.737
686.0368, 1818.977
686.5189, 1847.050
687.0010, 1882.740
687.4832, 1936.402
687.9653, 1990.930
688.4474, 2025.876
688.9295, 2029.565
689.4116, 2048.685
689.8937, 2093.484
690.3759, 2150.100
690.8580, 2191.994
691.3401, 2220.232
691.8222, 2246.653
692.3043, 2272.819
692.7864, 2302.737
693.2686, 2349.626
693.7507, 2407.270
694.2328, 2451.995
694.7149, 2462.469
695.1970, 2465.907
695.6791, 2479.184
696.1613, 2502.925
696.6434, 2520.089
697.1255, 2530.302
697.6076, 2531.471
698.0897, 2521.142
698.5718, 2497.825
699.0540, 2474.459
699.5361, 2451.987
700.0182, 2426.603
700.5003, 2393.624
700.9824, 2354.332
701.4645, 2313.172
701.9467, 2269.911
702.4288, 2231.193
702.9109, 2211.316
703.3930, 2198.180
703.8751, 2173.055
704.3572, 2120.292
704.8394, 2069.574
705.3215, 2031.113
705.8036, 2002.357
706.2857, 1978.924
706.7678, 1967.295
707.2499, 1949.208
707.7321, 1918.971
708.2142, 1880.790
708.6963, 1849.250
709.1784, 1824.498
709.6605, 1803.270
710.1426, 1784.475
710.6248, 1768.183
711.1069, 1756.058
711.5890, 1747.541
712.0711, 1739.150
712.5532, 1729.539
713.0353, 1718.550
713.5175, 1705.141
713.9996, 1688.935
714.4817, 1675.405
714.9638, 1667.117
715.4459, 1661.119
715.9280, 1656.458
716.4102, 1655.783
716.8923, 1646.408
717.3744, 1624.662
717.8565, 1600.945
718.3386, 1584.920
718.8207, 1576.268
719.3029, 1570.622
719.7850, 1567.919
720.2671, 1566.170
720.7492, 1562.745
721.2313, 1558.753
721.7134, 1556.084
722.1956, 1548.227
722.6777, 1548.455
723.1598, 1547.301
723.6419, 1544.858
724.1240, 1536.210
724.6061, 1536.384
725.0883, 1533.516
725.5704, 1530.862
726.0525, 1533.285
726.5346, 1527.355
727.0167, 1530.409
727.4988, 1530.371
727.9810, 1532.262
728.4631, 1531.091
728.9452, 1531.328
729.4273, 1535.334
729.9094, 1529.492
730.3915, 1534.870
730.8737, 1539.115
731.3558, 1542.287
731.8379, 1541.174
732.3200, 1545.595
732.8021, 1547.797
733.2842, 1549.909
733.7664, 1555.109
734.2485, 1554.619
734.7306, 1559.769
735.2127, 1562.668
735.6948, 1566.597
736.1769, 1568.295
736.6591, 1570.683
737.1412, 1575.302
737.6233, 1578.685
738.1054, 1588.129
738.5875, 1600.975
739.0696, 1618.670
739.5518, 1637.445
740.0339, 1654.890
740.5160, 1676.580
740.9981, 1708.576
741.4802, 1744.899
741.9623, 1776.654
742.4445, 1799.552
742.9266, 1824.620
743.4087, 1849.592
743.8908, 1880.324
744.3729, 1927.984
744.8550, 1992.473
745.3372, 2071.784
745.8193, 2169.091
746.3014, 2276.426
746.7835, 2380.862
747.2656, 2484.528
747.7477, 2597.121
748.2299, 2714.976
748.7120, 2849.615
749.1941, 3010.067
749.6762, 3193.434
750.1583, 3381.606
750.6404, 3564.287
751.1226, 3759.602
751.6047, 3977.857
752.0868, 4215.542
752.5689, 4440.450
753.0510, 4648.782
753.5331, 4866.959
754.0153, 5102.808
754.4974, 5361.100
754.9795, 5670.979
755.4616, 6029.022
755.9437, 6389.275
756.4258, 6726.184
756.9080, 7049.817
757.3901, 7364.900
757.8722, 7676.878
758.3543, 7968.216
758.8364, 8299.438
759.3185, 8556.296
759.8007, 8674.634
760.2828, 8649.814
760.7649, 8498.039
761.2470, 8205.337
761.7291, 7827.013
762.2112, 7408.573
762.6934, 6949.175
763.1755, 6440.142
763.6576, 5869.635
764.1397, 5330.902
764.6218, 4895.997
765.1039, 4532.430
765.5861, 4199.628
766.0682, 3884.494
766.5503, 3606.355
767.0324, 3376.607
767.5145, 3183.717
767.9966, 3014.663
768.4788, 2872.016
768.9609, 2746.120
769.4430, 2639.297
769.9251, 2543.802
770.4072, 2445.584
770.8893, 2346.615
771.3715, 2257.770
771.8536, 2184.109
772.3357, 2118.065
772.8178, 2054.271
773.2999, 1993.209
773.7820, 1935.834
774.2642, 1877.707
774.7463, 1828.916
775.2284, 1795.769
775.7105, 1773.014
776.1926, 1748.358
776.6747, 1722.020
777.1569, 1692.302
777.6390, 1655.773
778.1211, 1617.827
778.6032, 1592.298
779.0853, 1578.467
779.5674, 1570.935
780.0496, 1575.553
780.5317, 1578.388
781.0138, 1564.933
781.4959, 1538.193
781.9780, 1513.580
782.4601, 1490.994
782.9423, 1476.796
783.4244, 1475.403
783.9065, 1485.332
784.3886, 1489.153
784.8707, 1485.904
785.3528, 1480.109
785.8350, 1473.050
786.3171, 1465.441
786.7992, 1458.326
787.2813, 1434.742
787.7634, 1446.124
788.2455, 1451.782
788.7277, 1452.022
789.2098, 1430.623
789.6919, 1437.168
790.1740, 1432.513
790.6561, 1427.400
791.1382, 1437.878
791.6204, 1419.625
792.1025, 1429.856
792.5846, 1428.716
793.0667, 1432.781
793.5488, 1425.577
794.0309, 1421.854
794.5131, 1429.401
794.9952, 1430.709
795.4773, 1422.208
795.9594, 1426.603
796.4415, 1440.010
796.9236, 1451.069
797.4058, 1433.278
797.8879, 1452.742
798.3700, 1457.276
798.8521, 1461.197
799.3342, 1485.906
799.8163, 1472.309
800.2985, 1496.690
800.7806, 1505.909
801.2627, 1522.068
801.7448, 1523.202
802.2269, 1528.977
802.7090, 1549.779
803.1912, 1562.263
803.6733, 1561.667
804.1554, 1578.267
804.6375, 1564.145
805.1196, 1610.989
805.6017, 1642.395
806.0839, 1654.847
806.5660, 1673.278
807.0481, 1699.704
807.5302, 1729.583
808.0123, 1757.453
808.4944, 1783.310
808.9766, 1816.015
809.4587, 1857.779
809.9408, 1900.809
810.4229, 1938.587
810.9050, 1971.808
811.3871, 2001.746
811.8693, 2029.253
812.3514, 2051.964
812.8335, 2064.851
813.3156, 2074.492
813.7977, 2088.462
814.2798, 2111.423
814.7620, 2129.001
815.2441, 2140.290
815.7262, 2146.362
816.2083, 2152.426
816.6904, 2156.035
817.1725, 2138.629
817.6547, 2092.519
818.1368, 2040.599
818.6189, 2007.571
819.1010, 1980.886
819.5831, 1942.852
820.0652, 1877.494
820.5474, 1818.904
821.0295, 1777.501
821.5116, 1744.645
821.9937, 1710.487
822.4758, 1672.859
822.9579, 1644.424
823.4401, 1628.680
823.9222, 1617.870
824.4043, 1602.609
824.8864, 1583.628
825.3685, 1561.277
825.8506, 1532.486
826.3328, 1508.994
826.8149, 1502.333
827.2970, 1504.455
827.7791, 1505.253
828.2612, 1497.059
828.7433, 1496.309
829.2255, 1507.589
829.7076, 1522.271
830.1897, 1527.153
830.6718, 1522.225
831.1539, 1520.997
831.6360, 1525.569
832.1182, 1535.712
832.6003, 1555.031
833.0824, 1578.661
833.5645, 1598.073
834.0466, 1604.721
834.5287, 1617.119
835.0109, 1646.347
835.4930, 1683.121
835.9751, 1715.947
836.4572, 1746.375
836.9393, 1765.870
837.4214, 1769.809
837.9036, 1769.964
838.3857, 1784.532
838.8678, 1810.218
839.3499, 1834.163
839.8320, 1853.984
840.3141, 1868.811
840.7963, 1875.870
841.2784, 1878.300
841.7605, 1879.954
842.2426, 1888.502
842.7248, 1885.845
843.2069, 1866.736
843.6890, 1840.308
844.1711, 1816.509
844.6533, 1795.159
845.1354, 1777.682
845.6175, 1764.274
846.0996, 1754.755
846.5817, 1749.653
847.0638, 1748.092
847.5460, 1748.541
848.0281, 1750.406
848.5102, 1754.762
848.9923, 1761.043
849.4744, 1770.712
849.9565, 1785.865
850.4387, 1810.899
850.9208, 1828.495
851.4029, 1834.017
851.8850, 1840.799
852.3671, 1867.570
852.8492, 1909.409
853.3314, 1949.568
853.8135, 1986.615
854.2956, 2014.973
854.7777, 2018.795
855.2598, 2018.213
855.7419, 2036.886
856.2241, 2098.546
856.7062, 2133.575
857.1883, 2128.421
857.6704, 2107.862
858.1525, 2092.517
858.6346, 2082.589
859.1168, 2067.358
859.5989, 2046.032
860.0810, 2021.263
860.5631, 1995.418
861.0452, 1968.175
861.5273, 1938.976
862.0095, 1907.856
862.4916, 1875.458
862.9737, 1841.979
863.4558, 1807.949
863.9379, 1773.155
864.4200, 1735.364
864.9022, 1708.751
865.3843, 1696.167
865.8664, 1683.242
866.3485, 1652.549
866.8306, 1613.030
867.3127, 1588.500
867.7949, 1580.073
868.2770, 1571.482
868.7591, 1547.781
869.2412, 1523.556
869.7233, 1511.325
870.2054, 1515.166
870.6876, 1508.089
871.1697, 1483.611
871.6518, 1460.626
872.1339, 1452.646
872.6160, 1456.603
873.0981, 1449.935
873.5803, 1432.967
874.0624, 1414.949
874.5445, 1398.216
875.0266, 1386.060
875.5087, 1383.903
875.9908, 1390.969
876.4730, 1395.391
876.9551, 1394.353
877.4372, 1389.999
877.9193, 1381.108
878.4014, 1369.160
878.8835, 1365.214
879.3657, 1369.538
879.8478, 1370.758
880.3299, 1358.417
880.8120, 1342.414
881.2941, 1337.891
881.7762, 1341.983
882.2584, 1344.551
882.7405, 1336.717
883.2226, 1331.996
883.7047, 1329.087
884.1868, 1342.298
884.6689, 1349.784
885.1511, 1351.853
885.6332, 1332.281
886.1153, 1340.654
886.5974, 1337.828
887.0795, 1334.543
887.5616, 1346.849
888.0438, 1330.426
888.5259, 1342.484
889.0080, 1343.173
889.4901, 1349.066
889.9722, 1343.690
890.4543, 1341.795
890.9365, 1351.172
891.4186, 1354.307
891.9007, 1347.635
892.3828, 1353.858
892.8649, 1337.041
893.3470, 1340.442
893.8292, 1352.567
894.3113, 1346.461
894.7934, 1352.890
895.2755, 1354.546
895.7576, 1334.504
896.2397, 1352.196
896.7219, 1353.569
897.2040, 1338.187
897.6861, 1354.585
898.1682, 1341.513
898.6503, 1338.960
899.1324, 1344.323
899.6146, 1341.434
900.0967, 1351.556
900.5788, 1349.144
901.0609, 1345.611
901.5430, 1346.966
902.0251, 1334.472
902.5073, 1347.671
902.9894, 1343.319
903.4715, 1347.691
903.9536, 1354.040
904.4357, 1345.249
904.9178, 1352.487
905.4000, 1354.826
905.8821, 1365.176
906.3642, 1373.715
906.8463, 1378.896
907.3284, 1380.998
907.8105, 1378.321
908.2927, 1371.726
908.7748, 1368.679
909.2569, 1373.504
909.7390, 1380.170
910.2211, 1388.454
910.7032, 1397.011
911.1854, 1397.575
911.6675, 1377.696
912.1496, 1393.939
912.6317, 1405.703
913.1138, 1413.244
913.5959, 1403.042
914.0781, 1416.420
914.5602, 1420.755
915.0423, 1424.999
915.5244, 1442.526
916.0065, 1436.402
916.4886, 1454.305
916.9708, 1463.027
917.4529, 1476.374
917.9350, 1480.622
918.4171, 1488.062
918.8992, 1505.185
919.3813, 1517.399
919.8635, 1521.734
920.3456, 1537.103
920.8277, 1533.563
921.3098, 1547.163
921.7919, 1568.322
922.2740, 1574.582
922.7562, 1591.582
923.2383, 1604.890
923.7204, 1600.411
924.2025, 1627.666
924.6846, 1641.612
925.1667, 1674.078
925.6489, 1720.391
926.1310, 1756.885
926.6131, 1781.091
927.0952, 1805.433
927.5773, 1833.881
928.0594, 1865.519
928.5416, 1903.655
929.0237, 1948.258
929.5058, 1971.578
929.9879, 1971.113
930.4700, 1968.157
930.9521, 1982.206
931.4343, 1998.003
931.9164, 1983.119
932.3985, 1945.198
932.8806, 1913.155
933.3627, 1911.738
933.8448, 1905.819
934.3270, 1878.538
934.8091, 1838.303
935.2912, 1804.263
935.7733, 1776.345
936.2554, 1754.102
936.7375, 1738.868
937.2197, 1725.636
937.7018, 1709.141
938.1839, 1688.328
938.6660, 1659.831
939.1481, 1608.882
939.6302, 1574.031
940.1124, 1584.540
940.5945, 1606.127
941.0766, 1602.943
941.5587, 1568.683
942.0408, 1542.860
942.5229, 1528.084
943.0051, 1520.303
943.4872, 1522.369
943.9693, 1525.975
944.4514, 1514.659
944.9335, 1485.683
945.4156, 1462.719
945.8978, 1461.897
946.3799, 1463.794
946.8620, 1457.798
947.3441, 1444.356
947.8262, 1436.982
948.3083, 1435.966
948.7905, 1437.258
949.2726, 1440.627
949.7547, 1443.597
950.2368, 1443.399
950.7189, 1439.865
951.2010, 1432.444
951.6832, 1413.861
952.1653, 1399.847
952.6474, 1393.623
953.1295, 1394.670
953.6116, 1406.175
954.0938, 1429.014
954.5759, 1438.157
955.0580, 1425.549
955.5401, 1404.433
956.0222, 1385.406
956.5043, 1369.935
956.9865, 1360.544
957.4686, 1360.623
957.9507, 1361.105
958.4328, 1359.114
958.9149, 1358.519
959.3970, 1363.938
959.8792, 1375.606
960.3613, 1380.683
960.8434, 1378.707
961.3255, 1374.542
961.8076, 1374.100
962.2897, 1372.012
962.7719, 1357.445
963.2540, 1331.191
963.7361, 1321.790
964.2182, 1350.726
964.7003, 1374.039
965.1824, 1375.859
965.6646, 1362.181
966.1467, 1351.794
966.6288, 1344.935
967.1109, 1343.280
967.5930, 1352.538
968.0751, 1360.690
968.5573, 1355.362
969.0394, 1342.717
969.5215, 1333.435
970.0036, 1327.995
970.4857, 1328.911
970.9678, 1338.744
971.4500, 1350.866
971.9321, 1356.556
972.4142, 1357.174
972.8963, 1358.310
973.3784, 1360.807
973.8605, 1362.476
974.3427, 1360.957
974.8248, 1358.590
975.3069, 1357.385
975.7890, 1357.676
976.2711, 1356.752
976.7532, 1353.983
977.2354, 1351.979
977.7175, 1352.511
978.1996, 1354.653
978.6817, 1357.437
979.1638, 1360.030
979.6459, 1359.110
980.1281, 1347.322
980.6102, 1337.927
981.0923, 1338.464
981.5744, 1344.726
982.0565, 1347.670
982.5386, 1345.478
983.0208, 1351.372
983.5029, 1370.515
983.9850, 1389.311
984.4671, 1389.814
984.9492, 1378.627
985.4313, 1364.896
985.9135, 1348.484
986.3956, 1337.510
986.8777, 1340.108
987.3598, 1343.658
987.8419, 1338.527
988.3240, 1324.624
988.8062, 1328.868
989.2883, 1351.452
989.7704, 1373.561
990.2525, 1385.699
990.7346, 1388.656
991.2167, 1375.597
991.6989, 1352.236
992.1810, 1342.936
992.6631, 1367.319
993.1452, 1384.130
993.6273, 1383.809
994.1094, 1373.761
994.5916, 1366.643
995.0737, 1362.648
995.5558, 1364.079
996.0379, 1374.676
996.5200, 1380.354
997.0021, 1363.952
997.4843, 1341.288
997.9664, 1329.460
998.4485, 1332.142
998.9306, 1336.608
999.4127, 1342.985
999.8948, 1350.611
1000.377, 1359.837
1000.859, 1369.664
1001.341, 1377.487
1001.823, 1383.581
1002.305, 1390.328
1002.788, 1397.116
1003.270, 1406.875
1003.752, 1423.856
1004.234, 1444.073
1004.716, 1456.584
1005.198, 1460.484
1005.680, 1466.157
1006.162, 1477.094
1006.644, 1488.183
1007.127, 1491.778
1007.609, 1491.787
1008.091, 1493.604
1008.573, 1498.025
1009.055, 1505.803
1009.537, 1519.622
1010.019, 1532.939
1010.501, 1540.670
1010.984, 1543.327
1011.466, 1544.312
1011.948, 1544.115
1012.430, 1550.266
1012.912, 1576.429
1013.394, 1602.839
1013.876, 1614.853
1014.358, 1614.537
1014.841, 1614.968
1015.323, 1617.632
1015.805, 1617.690
1016.287, 1612.956
1016.769, 1607.409
1017.251, 1611.191
1017.733, 1618.664
1018.215, 1616.385
1018.697, 1597.460
1019.180, 1579.794
1019.662, 1571.102
1020.144, 1566.085
1020.626, 1561.029
1021.108, 1555.886
1021.590, 1554.669
1022.072, 1557.851
1022.554, 1553.547
1023.036, 1523.120
1023.519, 1489.022
1024.001, 1476.066
1024.483, 1480.546
1024.965, 1485.982
1025.447, 1490.122
1025.929, 1493.531
1026.411, 1497.156
1026.893, 1498.894
1027.375, 1491.391
1027.858, 1478.345
1028.340, 1476.138
1028.822, 1490.440
1029.304, 1502.662
1029.786, 1499.947
1030.268, 1491.101
1030.750, 1480.776
1031.232, 1468.165
1031.715, 1470.834
1032.197, 1491.663
1032.679, 1508.762
1033.161, 1504.674
1033.643, 1492.156
1034.125, 1487.505
1034.607, 1490.515
1035.089, 1500.543
1035.572, 1527.202
1036.054, 1547.830
1036.536, 1558.672
1037.018, 1562.503
1037.500, 1558.880
1037.982, 1549.933
1038.464, 1554.560
1038.946, 1576.362
1039.428, 1597.837
1039.911, 1603.586
1040.393, 1605.177
1040.875, 1611.438
1041.357, 1622.986
1041.839, 1636.253
1042.321, 1653.717
1042.803, 1661.385
1043.285, 1644.628
1043.767, 1624.158
1044.250, 1643.264
1044.732, 1687.480
1045.214, 1725.204
1045.696, 1741.595
1046.178, 1754.573
1046.660, 1766.841
1047.142, 1777.981
1047.624, 1788.597
1048.107, 1798.403
1048.589, 1801.003
1049.071, 1796.010
1049.553, 1793.693
1050.035, 1806.074
1050.517, 1820.420
1050.999, 1827.396
1051.481, 1826.898
1051.964, 1825.259
1052.446, 1822.942
1052.928, 1817.303
1053.410, 1805.435
1053.892, 1794.371
1054.374, 1800.704
1054.856, 1815.369
1055.338, 1822.105
1055.820, 1818.476
1056.302, 1801.429
1056.785, 1753.498
1057.267, 1709.291
1057.749, 1691.893
1058.231, 1699.657
1058.713, 1711.189
1059.195, 1725.303
1059.677, 1726.572
1060.159, 1688.465
1060.642, 1650.711
1061.124, 1643.856
1061.606, 1657.989
1062.088, 1665.213
1062.570, 1663.879
1063.052, 1658.122
1063.534, 1647.505
1064.016, 1635.812
1064.499, 1626.620
1064.981, 1619.609
1065.463, 1614.617
1065.945, 1611.640
1066.427, 1609.502
1066.909, 1610.127
1067.391, 1608.456
1067.873, 1601.177
1068.355, 1590.811
1068.838, 1586.370
1069.320, 1587.542
1069.802, 1593.079
1070.284, 1608.602
1070.766, 1617.791
1071.248, 1603.023
1071.730, 1580.732
1072.212, 1571.822
1072.694, 1582.697
1073.177, 1581.005
1073.659, 1564.555
1074.141, 1550.247
1074.623, 1555.645
1075.105, 1567.945
1075.587, 1570.827
1076.069, 1565.576
1076.551, 1562.106
1077.034, 1561.555
1077.516, 1565.301
1077.998, 1576.199
1078.480, 1587.645
1078.962, 1585.368
1079.444, 1574.493
1079.926, 1571.750
1080.408, 1581.260
1080.891, 1591.362
1081.373, 1597.511
1081.855, 1600.608
1082.337, 1599.285
1082.819, 1594.711
1083.301, 1602.211
1083.783, 1621.632
1084.265, 1639.178
1084.747, 1647.287
1085.229, 1652.792
1085.712, 1663.233
1086.194, 1674.849
1086.676, 1681.050
1087.158, 1675.960
1087.640, 1677.593
1088.122, 1686.721
1088.604, 1700.624
1089.086, 1719.323
1089.569, 1740.090
1090.051, 1757.282
1090.533, 1771.411
1091.015, 1787.110
1091.497, 1812.897
1091.979, 1830.312
1092.461, 1830.249
1092.943, 1824.902
1093.426, 1840.835
1093.908, 1873.151
1094.390, 1896.195
1094.872, 1903.823
1095.354, 1910.052
1095.836, 1922.931
1096.318, 1938.528
1096.800, 1955.059
1097.282, 1965.088
1097.765, 1979.539
1098.247, 1990.161
1098.729, 1997.174
1099.211, 1989.759
1099.693, 2000.973
1100.175, 2004.721
1100.657, 2008.163
1101.139, 2022.000
1101.622, 2016.693
1102.104, 2030.365
1102.586, 2036.457
1103.068, 2046.017
1103.550, 2048.066
1104.032, 2051.632
1104.514, 2049.602
1104.996, 2040.845
1105.479, 2032.735
1105.961, 2031.322
1106.443, 2026.535
1106.925, 2016.749
1107.407, 2002.122
1107.889, 1981.790
1108.371, 1956.591
1108.853, 1930.312
1109.335, 1902.730
1109.818, 1880.719
1110.300, 1872.123
1110.782, 1866.904
1111.264, 1860.178
1111.746, 1851.543
1112.228, 1837.304
1112.710, 1817.040
1113.192, 1804.634
1113.674, 1808.445
1114.157, 1813.325
1114.639, 1804.397
1115.121, 1787.920
1115.603, 1769.412
1116.085, 1745.323
1116.567, 1739.023
1117.049, 1755.596
1117.531, 1769.640
1118.014, 1761.384
1118.496, 1742.460
1118.978, 1730.218
1119.460, 1723.384
1119.942, 1718.524
1120.424, 1716.553
1120.906, 1713.554
1121.388, 1708.134
1121.870, 1703.407
1122.353, 1702.451
1122.835, 1705.014
1123.317, 1713.527
1123.799, 1727.095
1124.281, 1732.782
1124.763, 1709.944
1125.245, 1694.947
1125.727, 1704.606
1126.209, 1727.671
1126.692, 1738.853
1127.174, 1739.372
1127.656, 1740.816
1128.138, 1745.906
1128.620, 1749.641
1129.102, 1746.760
1129.584, 1742.428
1130.066, 1739.249
1130.549, 1737.594
1131.031, 1745.137
1131.513, 1762.804
1131.995, 1775.080
1132.477, 1770.861
1132.959, 1767.500
1133.441, 1786.703
1133.923, 1816.553
1134.406, 1839.716
1134.888, 1850.224
1135.370, 1868.601
1135.852, 1898.300
1136.334, 1921.635
1136.816, 1916.980
1137.298, 1904.348
1137.780, 1920.179
1138.262, 1955.342
1138.745, 1983.037
1139.227, 1983.797
1139.709, 1996.106
1140.191, 2028.731
1140.673, 2061.533
1141.155, 2065.557
1141.637, 2053.578
1142.119, 2057.153
1142.601, 2077.636
1143.084, 2103.003
1143.566, 2141.215
1144.048, 2167.016
1144.530, 2171.970
1145.012, 2163.161
1145.494, 2148.612
1145.976, 2131.712
1146.458, 2131.684
1146.941, 2154.646
1147.423, 2171.172
1147.905, 2157.578
1148.387, 2139.080
1148.869, 2131.318
1149.351, 2131.425
1149.833, 2123.120
1150.315, 2106.965
1150.797, 2091.992
1151.280, 2081.791
1151.762, 2071.485
1152.244, 2060.931
1152.726, 2045.901
1153.208, 2020.106
1153.690, 1982.034
1154.172, 1951.325
1154.654, 1927.803
1155.136, 1912.230
1155.619, 1913.547
1156.101, 1914.031
1156.583, 1890.706
1157.065, 1856.352
1157.547, 1835.957
1158.029, 1840.652
1158.511, 1827.917
1158.993, 1793.257
1159.476, 1760.064
1159.958, 1752.302
1160.440, 1754.031
1160.922, 1741.268
1161.404, 1719.378
1161.886, 1712.922
1162.368, 1738.732
1162.850, 1749.586
1163.333, 1736.598
1163.815, 1716.457
1164.297, 1707.764
1164.779, 1705.644
1165.261, 1701.685
1165.743, 1695.395
1166.225, 1692.454
1166.707, 1699.417
1167.189, 1700.909
1167.672, 1692.065
1168.154, 1677.866
1168.636, 1664.394
1169.118, 1653.377
1169.600, 1649.508
1170.082, 1654.488
1170.564, 1660.005
1171.046, 1669.625
1171.528, 1670.657
1172.011, 1654.715
1172.493, 1629.204
1172.975, 1611.537
1173.457, 1602.632
1173.939, 1607.798
1174.421, 1638.337
1174.903, 1656.804
1175.385, 1635.245
1175.868, 1609.258
1176.350, 1600.394
1176.832, 1605.374
1177.314, 1605.417
1177.796, 1600.978
1178.278, 1594.262
1178.760, 1579.940
1179.242, 1572.390
1179.724, 1584.766
1180.207, 1601.704
1180.689, 1607.538
1181.171, 1602.609
1181.653, 1612.335
1182.135, 1635.443
1182.617, 1651.229
1183.099, 1642.592
1183.581, 1628.092
1184.063, 1614.720
1184.546, 1602.893
1185.028, 1592.312
1185.510, 1582.783
1185.992, 1579.735
1186.474, 1583.628
1186.956, 1587.873
1187.438, 1586.733
1187.920, 1585.225
1188.403, 1587.651
1188.885, 1592.096
1189.367, 1592.043
1189.849, 1586.754
1190.331, 1592.134
1190.813, 1612.129
1191.295, 1627.206
1191.777, 1612.002
1192.260, 1592.277
1192.742, 1593.205
1193.224, 1609.817
1193.706, 1604.784
1194.188, 1574.531
1194.670, 1560.224
1195.152, 1574.282
1195.634, 1594.331
1196.116, 1604.291
1196.599, 1605.401
1197.081, 1593.773
1197.563, 1570.134
1198.045, 1563.712
1198.527, 1576.218
1199.009, 1590.350
1199.491, 1602.117
1199.973, 1607.599
1200.455, 1594.564
1200.938, 1577.376
1201.420, 1576.419
1201.902, 1596.563
1202.384, 1598.950
1202.866, 1580.678
1203.348, 1567.171
1203.830, 1573.322
1204.312, 1586.494
1204.795, 1595.924
1205.277, 1601.668
1205.759, 1603.568
1206.241, 1600.694
1206.723, 1597.787
1207.205, 1594.533
1207.687, 1593.188
1208.169, 1594.560
1208.651, 1599.119
1209.134, 1612.839
1209.616, 1628.786
1210.098, 1631.788
1210.580, 1615.909
1211.062, 1601.123
1211.544, 1586.699
1212.026, 1579.405
1212.508, 1589.293
1212.990, 1605.206
1213.473, 1616.521
1213.955, 1623.687
1214.437, 1628.731
1214.919, 1634.061
1215.401, 1629.304
1215.883, 1611.727
1216.365, 1595.024
1216.847, 1593.450
1217.330, 1597.291
1217.812, 1593.975
1218.294, 1586.271
1218.776, 1588.769
1219.258, 1606.954
1219.740, 1616.381
1220.222, 1612.337
1220.704, 1607.597
1221.187, 1615.799
1221.669, 1629.664
1222.151, 1644.759
1222.633, 1658.945
1223.115, 1661.668
1223.597, 1648.314
1224.079, 1643.227
1224.561, 1652.500
1225.043, 1663.563
1225.526, 1663.535
1226.008, 1657.439
1226.490, 1648.894
1226.972, 1638.635
1227.454, 1631.440
1227.936, 1627.067
1228.418, 1627.739
1228.900, 1635.276
1229.382, 1643.226
1229.865, 1642.707
1230.347, 1639.950
1230.829, 1643.419
1231.311, 1653.504
1231.793, 1652.462
1232.275, 1637.848
1232.757, 1631.764
1233.239, 1643.372
1233.722, 1659.027
1234.204, 1666.394
1234.686, 1668.533
1235.168, 1667.932
1235.650, 1664.877
1236.132, 1662.263
1236.614, 1659.937
1237.096, 1661.165
1237.578, 1670.328
1238.061, 1676.273
1238.543, 1659.622
1239.025, 1639.957
1239.507, 1641.668
1239.989, 1665.511
1240.471, 1684.193
1240.953, 1697.595
1241.435, 1705.087
1241.917, 1706.831
1242.400, 1701.354
1242.882, 1674.567
1243.364, 1648.943
1243.846, 1650.399
##END=



