##NAMES=Hilgardite
##RRUFFID=R070427
##IDEAL CHEMISTRY=Ca_2_B_5_O_9_Cl&#183;H_2_O
##LOCALITY=Boulby mine, Loftus, Cleveland, England, UK
##OWNER=RRUFF
##SOURCE=Michael Scott
##DESCRIPTION=Massive etched pink crystallline associated with pale green boracite, polytype 3TC
##STATUS=The identification of this mineral has been confirmed by single-crystal X-ray diffraction.
##URL=rruff.info/R070427
132.1179, 808.6729
132.6000, 839.1705
133.0821, 873.2319
133.5642, 908.3729
134.0463, 946.5987
134.5284, 985.3869
135.0106, 1019.878
135.4927, 1045.866
135.9748, 1064.064
136.4569, 1090.601
136.9390, 1132.169
137.4211, 1174.250
137.9033, 1212.993
138.3854, 1248.797
138.8675, 1283.408
139.3496, 1317.453
139.8317, 1350.958
140.3138, 1391.459
140.7960, 1443.760
141.2781, 1496.736
141.7602, 1543.234
142.2423, 1585.114
142.7244, 1629.860
143.2065, 1683.759
143.6887, 1747.000
144.1708, 1810.419
144.6529, 1869.796
145.1350, 1932.522
145.6171, 2003.719
146.0992, 2082.901
146.5814, 2164.566
147.0635, 2242.079
147.5456, 2316.678
148.0277, 2409.510
148.5098, 2529.076
148.9919, 2659.932
149.4741, 2784.742
149.9562, 2904.854
150.4383, 3045.402
150.9204, 3233.545
151.4025, 3466.865
151.8846, 3699.392
152.3668, 3932.400
152.8489, 4161.146
153.3310, 4396.476
153.8131, 4640.031
154.2952, 4846.496
154.7773, 4981.363
155.2595, 5046.916
155.7416, 5052.443
156.2237, 4984.367
156.7058, 4863.672
157.1879, 4706.429
157.6700, 4510.669
158.1522, 4298.239
158.6343, 4071.713
159.1164, 3840.596
159.5985, 3631.341
160.0806, 3450.402
160.5627, 3295.677
161.0449, 3167.509
161.5270, 3067.873
162.0091, 2989.834
162.4912, 2933.899
162.9733, 2895.879
163.4554, 2871.514
163.9376, 2866.527
164.4197, 2872.664
164.9018, 2876.635
165.3839, 2879.589
165.8660, 2876.905
166.3481, 2857.375
166.8303, 2831.030
167.3124, 2815.767
167.7945, 2824.071
168.2766, 2846.334
168.7587, 2861.847
169.2408, 2868.906
169.7230, 2872.905
170.2051, 2876.789
170.6872, 2879.841
171.1693, 2880.481
171.6514, 2876.277
172.1335, 2869.908
172.6157, 2869.529
173.0978, 2880.446
173.5799, 2886.389
174.0620, 2876.781
174.5441, 2858.898
175.0262, 2843.207
175.5084, 2835.377
175.9905, 2832.588
176.4726, 2829.614
176.9547, 2835.626
177.4368, 2822.617
177.9189, 2770.041
178.4010, 2697.559
178.8832, 2632.307
179.3653, 2588.983
179.8474, 2559.224
180.3295, 2517.677
180.8116, 2459.968
181.2937, 2397.199
181.7759, 2329.686
182.2580, 2260.965
182.7401, 2196.719
183.2222, 2140.894
183.7043, 2089.227
184.1864, 2026.860
184.6686, 1939.057
185.1507, 1868.143
185.6328, 1827.975
186.1149, 1806.954
186.5970, 1792.445
187.0791, 1779.077
187.5613, 1767.619
188.0434, 1760.026
188.5255, 1757.704
189.0076, 1757.365
189.4897, 1753.564
189.9718, 1752.780
190.4540, 1763.776
190.9361, 1791.220
191.4182, 1827.323
191.9003, 1852.360
192.3824, 1857.611
192.8645, 1867.263
193.3467, 1878.840
193.8288, 1898.874
194.3109, 1936.154
194.7930, 1994.388
195.2751, 2064.734
195.7572, 2127.734
196.2394, 2180.238
196.7215, 2231.695
197.2036, 2280.805
197.6857, 2331.023
198.1678, 2385.316
198.6499, 2444.806
199.1321, 2507.688
199.6142, 2571.567
200.0963, 2640.538
200.5784, 2701.873
201.0605, 2765.922
201.5426, 2817.124
202.0248, 2840.399
202.5069, 2832.537
202.9890, 2804.729
203.4711, 2772.126
203.9532, 2726.968
204.4353, 2695.471
204.9175, 2694.878
205.3996, 2695.055
205.8817, 2677.972
206.3638, 2639.079
206.8459, 2582.685
207.3280, 2512.765
207.8102, 2426.415
208.2923, 2334.300
208.7744, 2234.144
209.2565, 2130.803
209.7386, 2025.052
210.2207, 1918.571
210.7029, 1814.263
211.1850, 1714.461
211.6671, 1617.718
212.1492, 1533.557
212.6313, 1462.273
213.1134, 1402.500
213.5956, 1358.085
214.0777, 1326.595
214.5598, 1299.754
215.0419, 1268.775
215.5240, 1231.894
216.0061, 1203.468
216.4883, 1187.958
216.9704, 1176.479
217.4525, 1166.668
217.9346, 1158.150
218.4167, 1150.936
218.8988, 1144.596
219.3810, 1139.008
219.8631, 1138.773
220.3452, 1152.156
220.8273, 1163.057
221.3094, 1166.154
221.7915, 1163.370
222.2737, 1158.335
222.7558, 1152.501
223.2379, 1146.732
223.7200, 1150.960
224.2021, 1180.652
224.6842, 1203.795
225.1664, 1211.553
225.6485, 1209.111
226.1306, 1203.596
226.6127, 1198.491
227.0948, 1194.809
227.5770, 1196.843
228.0591, 1206.575
228.5412, 1220.208
229.0233, 1241.773
229.5054, 1264.849
229.9875, 1280.920
230.4697, 1285.887
230.9518, 1285.404
231.4339, 1294.509
231.9160, 1323.244
232.3981, 1344.080
232.8802, 1352.518
233.3624, 1353.418
233.8445, 1348.662
234.3266, 1339.279
234.8087, 1330.096
235.2908, 1330.757
235.7729, 1347.907
236.2551, 1359.076
236.7372, 1354.908
237.2193, 1350.106
237.7014, 1356.488
238.1835, 1375.386
238.6656, 1396.993
239.1478, 1409.062
239.6299, 1409.297
240.1120, 1408.353
240.5941, 1406.942
241.0762, 1404.145
241.5583, 1397.622
242.0405, 1388.415
242.5226, 1380.897
243.0047, 1377.411
243.4868, 1377.328
243.9689, 1389.376
244.4510, 1425.669
244.9332, 1463.631
245.4153, 1492.098
245.8974, 1515.005
246.3795, 1543.870
246.8616, 1590.173
247.3437, 1651.216
247.8259, 1700.609
248.3080, 1739.236
248.7901, 1763.176
249.2722, 1771.759
249.7543, 1766.606
250.2364, 1749.603
250.7186, 1720.291
251.2007, 1681.280
251.6828, 1640.217
252.1649, 1598.512
252.6470, 1551.110
253.1291, 1492.359
253.6113, 1429.564
254.0934, 1369.039
254.5755, 1312.065
255.0576, 1262.067
255.5397, 1225.853
256.0219, 1206.553
256.5040, 1189.640
256.9861, 1173.106
257.4682, 1156.272
257.9503, 1138.147
258.4324, 1118.501
258.9146, 1098.723
259.3967, 1079.624
259.8788, 1061.110
260.3609, 1044.927
260.8430, 1032.490
261.3251, 1021.558
261.8073, 1011.006
262.2894, 1000.658
262.7715, 989.3685
263.2536, 974.6826
263.7357, 957.6407
264.2178, 944.4453
264.7000, 935.9516
265.1821, 931.3851
265.6642, 931.7857
266.1463, 935.6339
266.6284, 937.8421
267.1105, 935.9955
267.5927, 930.8940
268.0748, 923.0534
268.5569, 911.0332
269.0390, 901.0651
269.5211, 899.0903
270.0032, 902.0419
270.4854, 905.3067
270.9675, 908.7593
271.4496, 911.1776
271.9317, 910.3524
272.4138, 906.1655
272.8959, 902.9492
273.3781, 904.5309
273.8602, 907.5609
274.3423, 905.4955
274.8244, 895.5239
275.3065, 884.9962
275.7886, 878.9058
276.2708, 876.4409
276.7529, 874.5264
277.2350, 872.7465
277.7171, 870.0918
278.1992, 864.5388
278.6813, 855.5970
279.1635, 846.8685
279.6456, 837.9087
280.1277, 830.4074
280.6098, 828.1507
281.0919, 832.4489
281.5740, 839.0265
282.0562, 843.2776
282.5383, 845.1054
283.0204, 845.5716
283.5025, 844.6388
283.9846, 842.4751
284.4667, 838.0649
284.9489, 831.7142
285.4310, 826.9277
285.9131, 826.9458
286.3952, 831.7512
286.8773, 835.2520
287.3594, 838.3789
287.8416, 839.4659
288.3237, 835.7083
288.8058, 829.0485
289.2879, 824.6228
289.7700, 825.4238
290.2521, 830.3457
290.7343, 834.8211
291.2164, 840.0501
291.6985, 843.4238
292.1806, 844.3924
292.6627, 843.3399
293.1448, 839.8928
293.6270, 834.0082
294.1091, 827.8088
294.5912, 825.0813
295.0733, 827.2582
295.5554, 830.6174
296.0375, 838.7505
296.5197, 845.4047
297.0018, 844.9418
297.4839, 837.5303
297.9660, 828.3668
298.4481, 822.9664
298.9302, 822.1630
299.4124, 819.2396
299.8945, 809.8503
300.3766, 802.7298
300.8587, 802.4595
301.3408, 806.8238
301.8229, 810.7103
302.3050, 810.5547
302.7871, 807.4269
303.2693, 806.7745
303.7514, 809.2595
304.2335, 813.5532
304.7156, 820.6360
305.1977, 828.6119
305.6798, 835.2112
306.1620, 839.5457
306.6441, 843.2347
307.1262, 849.3960
307.6083, 859.1071
308.0904, 867.1707
308.5725, 872.2485
309.0547, 875.6049
309.5368, 876.0762
310.0189, 874.2386
310.5010, 874.8737
310.9831, 883.5185
311.4652, 899.3698
311.9474, 913.3054
312.4295, 923.4467
312.9116, 933.3560
313.3937, 945.4516
313.8758, 959.1158
314.3579, 972.5966
314.8401, 984.1791
315.3222, 995.5123
315.8043, 1011.032
316.2864, 1032.032
316.7685, 1049.384
317.2506, 1054.788
317.7328, 1054.292
318.2149, 1057.771
318.6970, 1066.829
319.1791, 1079.153
319.6612, 1094.855
320.1433, 1112.898
320.6255, 1128.504
321.1076, 1139.026
321.5897, 1147.878
322.0718, 1162.288
322.5539, 1184.007
323.0360, 1199.922
323.5182, 1199.224
324.0003, 1193.724
324.4824, 1199.385
324.9645, 1218.889
325.4466, 1243.954
325.9287, 1267.688
326.4109, 1289.964
326.8930, 1309.685
327.3751, 1325.681
327.8572, 1340.406
328.3393, 1354.131
328.8214, 1367.639
329.3036, 1382.968
329.7857, 1401.623
330.2678, 1422.642
330.7499, 1441.064
331.2320, 1453.165
331.7141, 1467.387
332.1963, 1484.543
332.6784, 1504.318
333.1605, 1527.363
333.6426, 1553.525
334.1247, 1580.256
334.6068, 1603.542
335.0890, 1620.917
335.5711, 1641.346
336.0532, 1672.176
336.5353, 1699.239
337.0174, 1713.923
337.4995, 1717.765
337.9817, 1718.465
338.4638, 1723.410
338.9459, 1730.830
339.4280, 1723.608
339.9101, 1690.376
340.3922, 1658.936
340.8744, 1638.199
341.3565, 1623.362
341.8386, 1608.191
342.3207, 1590.056
342.8028, 1571.883
343.2849, 1557.263
343.7671, 1545.950
344.2492, 1540.072
344.7313, 1543.254
345.2134, 1549.892
345.6955, 1553.524
346.1776, 1554.190
346.6598, 1561.220
347.1419, 1582.781
347.6240, 1615.112
348.1061, 1647.331
348.5882, 1677.122
349.0703, 1711.057
349.5525, 1758.651
350.0346, 1815.192
350.5167, 1866.435
350.9988, 1904.058
351.4809, 1940.356
351.9630, 1982.365
352.4452, 2030.961
352.9273, 2091.194
353.4094, 2167.168
353.8915, 2254.237
354.3736, 2342.299
354.8557, 2436.268
355.3379, 2520.706
355.8200, 2586.013
356.3021, 2642.626
356.7842, 2707.906
357.2663, 2784.213
357.7484, 2848.211
358.2306, 2872.496
358.7127, 2850.004
359.1948, 2824.141
359.6769, 2808.602
360.1590, 2777.173
360.6411, 2712.402
361.1233, 2622.719
361.6054, 2525.381
362.0875, 2429.141
362.5696, 2335.814
363.0517, 2250.830
363.5338, 2170.925
364.0160, 2106.334
364.4981, 2059.725
364.9802, 2025.873
365.4623, 2001.394
365.9444, 1985.293
366.4265, 1976.662
366.9087, 1973.445
367.3908, 1975.226
367.8729, 1989.412
368.3550, 2018.959
368.8371, 2059.121
369.3192, 2110.380
369.8014, 2169.541
370.2835, 2228.594
370.7656, 2280.871
371.2477, 2333.373
371.7298, 2400.026
372.2119, 2482.389
372.6941, 2562.975
373.1762, 2635.507
373.6583, 2700.646
374.1404, 2762.959
374.6225, 2826.277
375.1046, 2873.213
375.5868, 2901.292
376.0689, 2905.169
376.5510, 2870.893
377.0331, 2794.113
377.5152, 2690.136
377.9973, 2569.674
378.4795, 2430.969
378.9616, 2295.177
379.4437, 2163.571
379.9258, 2034.426
380.4079, 1903.874
380.8900, 1775.323
381.3722, 1659.153
381.8543, 1560.956
382.3364, 1478.764
382.8185, 1405.161
383.3006, 1341.610
383.7827, 1286.804
384.2649, 1244.328
384.7470, 1208.154
385.2291, 1173.008
385.7112, 1138.305
386.1933, 1107.117
386.6754, 1083.884
387.1576, 1069.353
387.6397, 1049.756
388.1218, 1013.961
388.6039, 986.2287
389.0860, 979.2983
389.5681, 984.1434
390.0503, 986.7152
390.5324, 980.8638
391.0145, 970.6389
391.4966, 962.8165
391.9787, 957.9765
392.4608, 949.7926
392.9430, 931.6246
393.4251, 914.1812
393.9072, 909.4569
394.3893, 917.3532
394.8714, 923.3463
395.3535, 916.1038
395.8357, 903.8677
396.3178, 902.5313
396.7999, 914.1259
397.2820, 924.3376
397.7641, 922.4298
398.2462, 910.5366
398.7284, 901.8953
399.2105, 896.4472
399.6926, 894.2618
400.1747, 896.8307
400.6568, 902.3563
401.1389, 908.5547
401.6211, 914.7190
402.1032, 919.4804
402.5853, 920.4814
403.0674, 915.4313
403.5495, 913.6609
404.0316, 919.7405
404.5138, 924.3907
404.9959, 919.8585
405.4780, 909.7885
405.9601, 903.7384
406.4422, 908.0069
406.9243, 920.1477
407.4065, 931.8353
407.8886, 943.7136
408.3707, 953.6933
408.8528, 959.2917
409.3349, 964.4161
409.8170, 973.6644
410.2992, 987.2420
410.7813, 998.5061
411.2634, 999.2754
411.7455, 992.0487
412.2276, 990.1744
412.7097, 996.2267
413.1919, 1003.498
413.6740, 1005.921
414.1561, 1006.361
414.6382, 1010.730
415.1203, 1021.465
415.6024, 1034.813
416.0846, 1050.327
416.5667, 1066.512
417.0488, 1077.567
417.5309, 1080.535
418.0130, 1081.110
418.4951, 1087.344
418.9773, 1099.782
419.4594, 1117.152
419.9415, 1140.744
420.4236, 1168.128
420.9057, 1201.666
421.3878, 1238.183
421.8700, 1268.324
422.3521, 1285.347
422.8342, 1293.233
423.3163, 1309.147
423.7984, 1337.329
424.2805, 1367.553
424.7627, 1397.726
425.2448, 1429.966
425.7269, 1466.165
426.2090, 1506.557
426.6911, 1549.240
427.1732, 1591.782
427.6554, 1634.813
428.1375, 1681.874
428.6196, 1733.288
429.1017, 1788.123
429.5838, 1851.477
430.0659, 1916.714
430.5481, 1973.164
431.0302, 2016.992
431.5123, 2054.503
431.9944, 2097.471
432.4765, 2139.587
432.9586, 2156.725
433.4408, 2140.722
433.9229, 2104.787
434.4050, 2061.139
434.8871, 2009.137
435.3692, 1957.576
435.8513, 1907.699
436.3335, 1857.860
436.8156, 1804.571
437.2977, 1750.350
437.7798, 1699.270
438.2619, 1652.959
438.7440, 1614.457
439.2262, 1592.637
439.7083, 1599.122
440.1904, 1602.184
440.6725, 1592.080
441.1546, 1586.082
441.6367, 1598.504
442.1189, 1626.512
442.6010, 1655.542
443.0831, 1674.287
443.5652, 1685.554
444.0473, 1700.605
444.5294, 1721.230
445.0116, 1740.648
445.4937, 1755.761
445.9758, 1768.755
446.4579, 1780.945
446.9400, 1792.087
447.4221, 1805.216
447.9043, 1823.355
448.3864, 1844.594
448.8685, 1861.915
449.3506, 1873.602
449.8327, 1893.647
450.3148, 1934.226
450.7970, 1994.279
451.2791, 2056.205
451.7612, 2120.520
452.2433, 2185.864
452.7254, 2249.186
453.2076, 2314.053
453.6897, 2384.221
454.1718, 2461.015
454.6539, 2544.952
455.1360, 2637.530
455.6181, 2740.150
456.1003, 2842.779
456.5824, 2944.522
457.0645, 3046.329
457.5466, 3150.354
458.0287, 3254.133
458.5108, 3355.823
458.9930, 3456.240
459.4751, 3547.153
459.9572, 3616.641
460.4393, 3664.285
460.9214, 3704.214
461.4035, 3750.996
461.8857, 3773.232
462.3678, 3743.372
462.8499, 3666.519
463.3320, 3561.118
463.8141, 3429.171
464.2962, 3272.552
464.7784, 3081.539
465.2605, 2864.864
465.7426, 2653.275
466.2247, 2459.015
466.7068, 2281.169
467.1889, 2121.301
467.6711, 1983.997
468.1532, 1856.664
468.6353, 1736.681
469.1174, 1628.432
469.5995, 1537.253
470.0816, 1460.990
470.5638, 1394.513
471.0459, 1334.136
471.5280, 1281.308
472.0101, 1240.758
472.4922, 1217.979
472.9743, 1193.211
473.4565, 1155.426
473.9386, 1119.543
474.4207, 1097.302
474.9028, 1088.130
475.3849, 1079.879
475.8670, 1062.985
476.3492, 1043.642
476.8313, 1033.581
477.3134, 1033.157
477.7955, 1032.795
478.2776, 1026.792
478.7597, 1018.613
479.2419, 1017.250
479.7240, 1025.387
480.2061, 1032.393
480.6882, 1035.118
481.1703, 1036.615
481.6524, 1039.771
482.1346, 1044.629
482.6167, 1049.495
483.0988, 1053.177
483.5809, 1055.762
484.0630, 1058.183
484.5451, 1064.139
485.0273, 1063.414
485.5094, 1052.577
485.9915, 1036.844
486.4736, 1019.592
486.9557, 1001.500
487.4378, 982.8091
487.9200, 962.5419
488.4021, 941.8492
488.8842, 924.7400
489.3663, 911.8348
489.8484, 899.1130
490.3305, 883.7449
490.8127, 867.8537
491.2948, 855.7075
491.7769, 848.0190
492.2590, 841.8267
492.7411, 835.2001
493.2232, 834.4714
493.7054, 832.4208
494.1875, 829.1395
494.6696, 819.9171
495.1517, 819.1461
495.6338, 815.4651
496.1159, 811.9911
496.5981, 813.3827
497.0802, 806.7760
497.5623, 808.7772
498.0444, 807.8185
498.5265, 808.7108
499.0086, 806.6728
499.4908, 805.9854
499.9729, 808.9102
500.4550, 810.3638
500.9371, 798.3438
501.4192, 796.1022
501.9013, 795.2996
502.3835, 793.4112
502.8656, 792.1710
503.3477, 794.5110
503.8298, 801.3998
504.3119, 807.9415
504.7940, 813.7928
505.2762, 817.4711
505.7583, 814.6591
506.2404, 806.5334
506.7225, 802.2704
507.2046, 808.7988
507.6867, 822.9296
508.1689, 830.6083
508.6510, 826.7252
509.1331, 823.6074
509.6152, 820.7686
510.0973, 819.7593
510.5794, 822.3014
511.0616, 827.9852
511.5437, 834.5710
512.0258, 840.3341
512.5079, 845.9065
512.9901, 853.2764
513.4722, 862.6565
513.9543, 872.3761
514.4364, 882.5325
514.9185, 892.1276
515.4006, 899.5492
515.8828, 904.5810
516.3649, 910.4333
516.8470, 919.3834
517.3291, 928.6285
517.8112, 935.8126
518.2933, 940.9421
518.7755, 944.6170
519.2576, 946.9194
519.7397, 948.9255
520.2218, 953.0843
520.7039, 959.0371
521.1860, 968.0752
521.6682, 987.3151
522.1503, 1002.659
522.6324, 1002.959
523.1145, 993.0970
523.5966, 986.3100
524.0787, 990.0922
524.5609, 999.1317
525.0430, 1005.467
525.5251, 1009.104
526.0072, 1011.033
526.4893, 1010.665
526.9714, 1009.999
527.4536, 1012.667
527.9357, 1017.987
528.4178, 1018.440
528.8999, 1009.641
529.3820, 998.9738
529.8641, 992.8915
530.3463, 987.6898
530.8284, 976.3627
531.3105, 956.4395
531.7926, 929.6747
532.2747, 896.9735
532.7568, 855.9254
533.2390, 823.3639
533.7211, 807.5728
534.2032, 790.8481
534.6853, 762.0920
535.1674, 731.4478
535.6495, 714.0101
536.1317, 714.9260
536.6138, 720.7374
537.0959, 719.8252
537.5780, 713.7683
538.0601, 707.0455
538.5422, 699.9520
539.0244, 694.0201
539.5065, 690.0613
539.9886, 688.2700
540.4707, 689.4962
540.9528, 698.5510
541.4349, 703.7340
541.9171, 697.5995
542.3992, 689.8263
542.8813, 689.9406
543.3634, 698.4647
543.8455, 710.6204
544.3276, 723.9811
544.8098, 736.5665
545.2919, 737.6553
545.7740, 720.6448
546.2561, 710.2844
546.7382, 718.2142
547.2203, 731.2850
547.7024, 740.4778
548.1845, 745.4401
548.6666, 748.4559
549.1487, 746.8582
549.6309, 746.3311
550.1130, 755.8553
550.5951, 772.8165
551.0772, 784.6351
551.5593, 785.7534
552.0414, 782.7287
552.5236, 785.8908
553.0057, 795.9705
553.4878, 810.2071
553.9699, 833.2759
554.4520, 854.9577
554.9341, 869.8677
555.4163, 881.0944
555.8984, 892.7663
556.3805, 906.3498
556.8626, 923.7183
557.3447, 947.6697
557.8268, 977.7586
558.3090, 1010.216
558.7911, 1044.401
559.2732, 1082.044
559.7553, 1125.871
560.2374, 1174.065
560.7195, 1219.619
561.2017, 1258.949
561.6838, 1302.046
562.1659, 1355.368
562.6480, 1411.933
563.1301, 1462.395
563.6122, 1507.647
564.0944, 1557.236
564.5765, 1618.422
565.0586, 1690.184
565.5407, 1769.860
566.0228, 1859.509
566.5049, 1951.657
566.9871, 2037.380
567.4692, 2132.431
567.9513, 2249.457
568.4334, 2385.887
568.9155, 2527.982
569.3976, 2679.361
569.8798, 2826.263
570.3619, 2961.163
570.8440, 3081.439
571.3261, 3183.763
571.8082, 3269.052
572.2903, 3316.805
572.7725, 3302.155
573.2546, 3222.810
573.7367, 3099.655
574.2188, 2906.967
574.7009, 2701.805
575.1830, 2475.918
575.6652, 2256.773
576.1473, 2073.131
576.6294, 1930.757
577.1115, 1814.032
577.5936, 1709.745
578.0757, 1619.519
578.5579, 1550.731
579.0400, 1504.772
579.5221, 1469.934
580.0042, 1443.013
580.4863, 1422.554
580.9684, 1405.430
581.4506, 1389.379
581.9327, 1383.807
582.4148, 1398.137
582.8969, 1416.079
583.3790, 1422.707
583.8611, 1424.778
584.3433, 1439.756
584.8254, 1475.646
585.3075, 1521.545
585.7896, 1561.985
586.2717, 1596.879
586.7538, 1625.300
587.2360, 1643.186
587.7181, 1661.650
588.2002, 1686.458
588.6823, 1716.203
589.1644, 1749.007
589.6465, 1784.741
590.1287, 1823.595
590.6108, 1868.747
591.0929, 1915.511
591.5750, 1956.399
592.0571, 1991.866
592.5392, 2029.869
593.0214, 2076.548
593.5035, 2126.433
593.9856, 2162.518
594.4677, 2178.961
594.9498, 2195.088
595.4319, 2214.728
595.9141, 2232.061
596.3962, 2242.827
596.8783, 2248.890
597.3604, 2255.130
597.8425, 2263.561
598.3246, 2272.226
598.8068, 2284.632
599.2889, 2295.473
599.7710, 2291.266
600.2531, 2269.373
600.7352, 2232.929
601.2173, 2182.069
601.6995, 2119.161
602.1816, 2063.722
602.6637, 2030.992
603.1458, 1984.577
603.6279, 1911.065
604.1100, 1831.623
604.5922, 1764.030
605.0743, 1706.078
605.5564, 1642.060
606.0385, 1558.090
606.5206, 1469.223
607.0027, 1397.383
607.4849, 1341.175
607.9670, 1290.186
608.4491, 1241.106
608.9312, 1198.812
609.4133, 1169.784
609.8954, 1154.067
610.3776, 1134.978
610.8597, 1106.293
611.3418, 1082.509
611.8239, 1070.083
612.3060, 1062.161
612.7881, 1051.471
613.2703, 1037.646
613.7524, 1026.260
614.2345, 1023.759
614.7166, 1024.831
615.1987, 1013.903
615.6808, 990.2033
616.1630, 972.0397
616.6451, 965.2415
617.1272, 964.9360
617.6093, 966.6566
618.0914, 970.4614
618.5735, 974.9675
619.0557, 979.9470
619.5378, 985.8116
620.0199, 994.1559
620.5020, 1002.765
620.9841, 1008.086
621.4662, 1009.988
621.9484, 1012.170
622.4305, 1016.885
622.9126, 1024.995
623.3947, 1041.577
623.8768, 1068.595
624.3589, 1092.207
624.8411, 1105.654
625.3232, 1116.924
625.8053, 1134.902
626.2874, 1159.195
626.7695, 1187.047
627.2516, 1222.694
627.7338, 1256.733
628.2159, 1285.149
628.6980, 1308.414
629.1801, 1323.645
629.6622, 1332.118
630.1443, 1345.531
630.6265, 1377.928
631.1086, 1424.700
631.5907, 1459.499
632.0728, 1479.742
632.5549, 1499.053
633.0370, 1526.209
633.5192, 1549.569
634.0013, 1551.778
634.4834, 1534.278
634.9655, 1526.516
635.4476, 1551.090
635.9297, 1569.199
636.4119, 1548.226
636.8940, 1510.507
637.3761, 1490.938
637.8582, 1497.756
638.3403, 1517.365
638.8224, 1537.919
639.3046, 1559.191
639.7867, 1578.763
640.2688, 1595.552
640.7509, 1614.476
641.2330, 1634.985
641.7151, 1660.108
642.1973, 1693.461
642.6794, 1734.627
643.1615, 1778.631
643.6436, 1828.642
644.1257, 1876.778
644.6078, 1917.854
645.0900, 1954.643
645.5721, 1993.305
646.0542, 2033.943
646.5363, 2067.711
647.0184, 2085.533
647.5005, 2089.954
647.9827, 2093.182
648.4648, 2096.482
648.9469, 2093.740
649.4290, 2085.940
649.9111, 2068.584
650.3932, 2029.676
650.8754, 1973.755
651.3575, 1933.065
651.8396, 1929.183
652.3217, 1923.073
652.8038, 1894.106
653.2859, 1852.994
653.7681, 1810.657
654.2502, 1771.097
654.7323, 1739.171
655.2144, 1719.786
655.6965, 1709.701
656.1786, 1699.484
656.6608, 1689.615
657.1429, 1675.525
657.6250, 1650.689
658.1071, 1629.478
658.5892, 1627.661
659.0714, 1641.422
659.5535, 1654.615
660.0356, 1668.878
660.5177, 1678.571
660.9998, 1682.273
661.4819, 1680.135
661.9641, 1670.981
662.4462, 1655.870
662.9283, 1638.289
663.4104, 1620.346
663.8925, 1601.892
664.3746, 1581.760
664.8568, 1559.809
665.3389, 1541.290
665.8210, 1528.434
666.3031, 1515.580
666.7852, 1498.986
667.2673, 1478.886
667.7495, 1456.275
668.2316, 1424.229
668.7137, 1400.988
669.1958, 1397.719
669.6779, 1398.277
670.1600, 1390.556
670.6422, 1375.217
671.1243, 1357.340
671.6064, 1338.914
672.0885, 1322.296
672.5706, 1311.684
673.0527, 1306.210
673.5349, 1299.968
674.0170, 1292.407
674.4991, 1283.688
674.9812, 1273.338
675.4633, 1262.294
675.9454, 1252.877
676.4276, 1243.540
676.9097, 1239.309
677.3918, 1243.063
677.8739, 1249.162
678.3560, 1255.304
678.8381, 1261.517
679.3203, 1268.113
679.8024, 1275.181
680.2845, 1283.178
680.7666, 1292.405
681.2487, 1302.838
681.7308, 1314.362
682.2130, 1326.944
682.6951, 1341.084
683.1772, 1357.298
683.6593, 1374.148
684.1414, 1389.076
684.6235, 1400.818
685.1057, 1417.146
685.5878, 1435.741
686.0699, 1462.135
686.5520, 1502.513
687.0341, 1548.467
687.5162, 1591.589
687.9984, 1630.956
688.4805, 1669.956
688.9626, 1708.579
689.4447, 1749.340
689.9268, 1796.723
690.4089, 1848.632
690.8911, 1900.635
691.3732, 1951.307
691.8553, 1995.176
692.3374, 2024.445
692.8195, 2042.039
693.3016, 2075.561
693.7838, 2138.535
694.2659, 2187.468
694.7480, 2206.938
695.2301, 2216.417
695.7122, 2229.140
696.1943, 2243.399
696.6765, 2251.640
697.1586, 2252.339
697.6407, 2246.155
698.1228, 2230.836
698.6049, 2210.284
699.0870, 2192.327
699.5692, 2175.008
700.0513, 2146.022
700.5334, 2096.715
701.0155, 2036.149
701.4976, 1982.440
701.9797, 1935.712
702.4619, 1891.350
702.9440, 1849.895
703.4261, 1808.483
703.9082, 1766.171
704.3903, 1722.497
704.8724, 1674.724
705.3546, 1618.438
705.8367, 1570.788
706.3188, 1540.027
706.8009, 1512.345
707.2830, 1480.279
707.7651, 1445.207
708.2473, 1409.628
708.7294, 1374.433
709.2115, 1342.629
709.6936, 1316.954
710.1757, 1296.794
710.6578, 1283.735
711.1400, 1276.994
711.6221, 1261.954
712.1042, 1231.872
712.5863, 1198.310
713.0684, 1176.196
713.5505, 1166.282
714.0327, 1151.646
714.5148, 1127.730
714.9969, 1105.368
715.4790, 1085.752
715.9611, 1068.654
716.4432, 1053.601
716.9254, 1040.869
717.4075, 1031.833
717.8896, 1029.948
718.3717, 1027.758
718.8538, 1016.964
719.3359, 1002.736
719.8181, 993.5261
720.3002, 990.4643
720.7823, 991.5851
721.2644, 996.0916
721.7465, 1001.804
722.2286, 1002.289
722.7108, 996.0021
723.1929, 995.6057
723.6750, 1004.442
724.1571, 1014.639
724.6392, 1024.069
725.1213, 1030.928
725.6035, 1031.885
726.0856, 1026.110
726.5677, 1017.175
727.0498, 1004.874
727.5319, 990.4315
728.0140, 971.3288
728.4962, 951.7194
728.9783, 940.2402
729.4604, 938.1879
729.9425, 933.9592
730.4246, 912.7831
730.9067, 883.7724
731.3889, 868.5237
731.8710, 865.8272
732.3531, 865.6953
732.8352, 861.1428
733.3173, 875.5460
733.7994, 882.0572
734.2816, 881.0984
734.7637, 850.3038
735.2458, 858.0372
735.7279, 850.3300
736.2100, 841.9896
736.6921, 855.1460
737.1743, 843.4224
737.6564, 855.4371
738.1385, 865.9535
738.6206, 872.0460
739.1027, 878.9691
739.5848, 888.5850
740.0670, 901.3491
740.5491, 917.8436
741.0312, 937.9068
741.5133, 961.3433
741.9954, 987.9002
742.4775, 1016.802
742.9597, 1048.283
743.4418, 1081.883
743.9239, 1107.483
744.4060, 1119.962
744.8881, 1153.782
745.3702, 1228.746
745.8524, 1322.304
746.3345, 1402.457
746.8166, 1466.398
747.2987, 1546.782
747.7808, 1654.178
748.2629, 1764.100
748.7451, 1863.650
749.2272, 1969.222
749.7093, 2097.193
750.1914, 2245.991
750.6735, 2400.829
751.1556, 2549.343
751.6378, 2710.808
752.1199, 2910.427
752.6020, 3133.226
753.0841, 3344.599
753.5662, 3544.572
754.0483, 3761.272
754.5305, 4009.715
755.0126, 4285.918
755.4947, 4587.180
755.9768, 4916.015
756.4589, 5246.505
756.9410, 5580.729
757.4232, 5916.515
757.9053, 6295.004
758.3874, 6646.458
758.8695, 6863.985
759.3516, 6944.669
759.8337, 6958.967
760.3159, 6926.759
760.7980, 6811.391
761.2801, 6588.476
761.7622, 6283.012
762.2443, 5895.245
762.7264, 5444.886
763.2086, 4991.759
763.6907, 4559.854
764.1728, 4158.291
764.6549, 3799.682
765.1370, 3477.588
765.6191, 3170.058
766.1013, 2877.180
766.5834, 2620.034
767.0655, 2412.844
767.5476, 2245.557
768.0297, 2099.435
768.5118, 1977.699
768.9940, 1860.285
769.4761, 1744.414
769.9582, 1639.379
770.4403, 1550.387
770.9224, 1473.916
771.4045, 1405.050
771.8867, 1344.103
772.3688, 1288.044
772.8509, 1238.165
773.3330, 1191.759
773.8151, 1147.426
774.2972, 1106.280
774.7794, 1070.067
775.2615, 1038.424
775.7436, 1008.761
776.2257, 978.6440
776.7078, 952.1043
777.1899, 935.5663
777.6721, 925.5994
778.1542, 915.9468
778.6363, 905.2185
779.1184, 888.9494
779.6005, 864.0045
780.0826, 837.2908
780.5648, 823.2256
781.0469, 823.7161
781.5290, 817.7464
782.0111, 803.4619
782.4932, 787.2265
782.9753, 768.4795
783.4575, 751.7883
783.9396, 744.4823
784.4217, 746.7920
784.9038, 746.8172
785.3859, 745.8135
785.8680, 740.2111
786.3502, 720.8747
786.8323, 703.0133
787.3144, 702.6103
787.7965, 715.7630
788.2786, 726.3073
788.7607, 727.6898
789.2429, 724.0626
789.7250, 717.5813
790.2071, 709.0702
790.6892, 698.0389
791.1713, 685.8846
791.6534, 677.6708
792.1356, 675.5226
792.6177, 677.1450
793.0998, 679.9099
793.5819, 683.7018
794.0640, 687.0413
794.5461, 689.5812
795.0283, 694.8201
795.5104, 706.3143
795.9925, 715.0517
796.4746, 709.4575
796.9567, 691.7288
797.4388, 685.7178
797.9210, 703.8885
798.4031, 716.0179
798.8852, 714.7209
799.3673, 713.0881
799.8494, 717.6485
800.3315, 727.5669
800.8137, 741.2118
801.2958, 758.7590
801.7779, 775.7515
802.2600, 788.5383
802.7421, 801.0525
803.2242, 815.6406
803.7064, 833.0198
804.1885, 854.5820
804.6706, 880.3942
805.1527, 909.1371
805.6348, 941.3786
806.1169, 973.5291
806.5991, 993.9940
807.0812, 1005.484
807.5633, 1028.746
808.0454, 1067.731
808.5275, 1113.055
809.0096, 1159.565
809.4918, 1206.393
809.9739, 1249.726
810.4560, 1286.907
810.9381, 1331.364
811.4202, 1388.692
811.9023, 1444.488
812.3845, 1492.552
812.8666, 1536.551
813.3487, 1581.825
813.8308, 1628.267
814.3129, 1666.295
814.7950, 1694.217
815.2772, 1713.679
815.7593, 1728.490
816.2414, 1732.555
816.7235, 1717.655
817.2056, 1686.972
817.6877, 1652.056
818.1699, 1618.973
818.6520, 1576.520
819.1341, 1508.545
819.6162, 1428.199
820.0983, 1353.785
820.5804, 1285.888
821.0626, 1221.733
821.5447, 1159.854
822.0268, 1103.428
822.5089, 1056.056
822.9910, 1016.319
823.4731, 976.5881
823.9553, 936.1385
824.4374, 905.7111
824.9195, 888.5432
825.4016, 877.7240
825.8837, 868.6846
826.3658, 861.5226
826.8480, 856.2656
827.3301, 849.5550
827.8122, 852.6916
828.2943, 875.8503
828.7764, 896.4006
829.2585, 902.1927
829.7407, 903.4529
830.2228, 912.0491
830.7049, 928.7415
831.1870, 947.8172
831.6691, 966.0654
832.1512, 988.7126
832.6334, 1022.206
833.1155, 1058.220
833.5976, 1085.954
834.0797, 1108.404
834.5618, 1137.887
835.0439, 1180.545
835.5261, 1227.803
836.0082, 1273.429
836.4903, 1317.798
836.9724, 1361.449
837.4545, 1404.529
837.9366, 1447.364
838.4188, 1489.987
838.9009, 1533.348
839.3830, 1581.774
839.8651, 1628.468
840.3472, 1646.996
840.8293, 1636.966
841.3115, 1618.376
841.7936, 1594.156
842.2757, 1564.263
842.7578, 1528.529
843.2399, 1487.033
843.7220, 1439.513
844.2042, 1385.539
844.6863, 1325.934
845.1684, 1250.567
845.6505, 1184.770
846.1326, 1140.654
846.6147, 1107.354
847.0969, 1074.003
847.5790, 1041.056
848.0611, 1016.556
848.5432, 1003.345
849.0253, 996.1695
849.5074, 997.2451
849.9896, 1000.581
850.4717, 1001.638
850.9538, 1001.228
851.4359, 1000.994
851.9180, 1001.137
852.4001, 1006.122
852.8823, 1021.579
853.3644, 1041.114
853.8465, 1058.897
854.3286, 1075.312
854.8107, 1092.645
855.2928, 1110.737
855.7750, 1125.840
856.2571, 1135.168
856.7392, 1139.903
857.2213, 1141.625
857.7034, 1140.532
858.1855, 1136.965
858.6677, 1131.047
859.1498, 1125.316
859.6319, 1121.159
860.1140, 1116.393
860.5961, 1108.964
861.0782, 1098.597
861.5604, 1074.202
862.0425, 1029.915
862.5246, 995.3113
863.0067, 980.8220
863.4888, 969.2748
863.9709, 947.5212
864.4531, 917.8352
864.9352, 888.3893
865.4173, 855.2093
865.8994, 830.4811
866.3815, 823.9100
866.8636, 813.6824
867.3458, 785.4886
867.8279, 753.9318
868.3100, 738.6907
868.7921, 739.3676
869.2742, 732.6513
869.7563, 702.3873
870.2385, 677.0634
870.7206, 672.5403
871.2027, 673.5142
871.6848, 668.0190
872.1669, 656.2468
872.6490, 640.7025
873.1312, 621.9162
873.6133, 606.2867
874.0954, 598.0678
874.5775, 595.6197
875.0596, 601.6270
875.5417, 610.5558
876.0239, 609.3743
876.5060, 597.3561
876.9881, 586.7634
877.4702, 586.4351
877.9523, 589.5859
878.4344, 584.6411
878.9166, 573.8592
879.3987, 564.9634
879.8808, 558.6442
880.3629, 556.1711
880.8450, 558.3309
881.3271, 560.5691
881.8093, 556.8051
882.2914, 548.5694
882.7735, 546.4924
883.2556, 551.7938
883.7377, 553.9299
884.2198, 550.4694
884.7020, 546.0053
885.1841, 543.2847
885.6662, 541.7499
886.1483, 540.2006
886.6304, 538.6180
887.1125, 537.1201
887.5947, 535.5630
888.0768, 534.3444
888.5589, 534.2092
889.0410, 533.8895
889.5231, 531.9329
890.0052, 528.7803
890.4874, 526.5065
890.9695, 526.5414
891.4516, 525.1342
891.9337, 520.6816
892.4158, 515.8468
892.8979, 511.6429
893.3801, 508.1005
893.8622, 504.5294
894.3443, 501.0882
894.8264, 500.5544
895.3085, 506.1470
895.7906, 512.3633
896.2728, 516.5532
896.7549, 519.7036
897.2370, 522.2390
897.7191, 524.7333
898.2012, 529.5346
898.6833, 537.5385
899.1655, 541.2665
899.6476, 527.7729
900.1297, 512.2191
900.6118, 516.6457
901.0939, 532.6261
901.5760, 541.7606
902.0582, 541.4573
902.5403, 539.9603
903.0224, 542.5381
903.5045, 545.5002
903.9866, 541.2825
904.4688, 533.3472
904.9509, 534.3643
905.4330, 543.3981
905.9151, 548.9639
906.3972, 547.3445
906.8793, 544.1605
907.3615, 544.3633
907.8436, 547.9312
908.3257, 556.7791
908.8078, 570.9851
909.2899, 576.0611
909.7720, 568.7117
910.2542, 566.4512
910.7363, 578.8950
911.2184, 597.0941
911.7005, 608.2422
912.1826, 612.4223
912.6647, 617.0219
913.1469, 621.5011
913.6290, 628.3655
914.1111, 639.3131
914.5932, 650.2383
915.0753, 657.5596
915.5574, 663.5895
916.0396, 673.8062
916.5217, 689.0635
917.0038, 705.4664
917.4859, 725.0043
917.9680, 742.8311
918.4501, 754.5090
918.9323, 767.0238
919.4144, 784.3336
919.8965, 807.0060
920.3786, 837.5973
920.8607, 883.2693
921.3428, 921.5591
921.8250, 944.3259
922.3071, 964.7759
922.7892, 983.4697
923.2713, 1006.919
923.7534, 1044.433
924.2355, 1094.802
924.7177, 1143.846
925.1998, 1184.489
925.6819, 1228.169
926.1640, 1285.948
926.6461, 1342.380
927.1282, 1381.177
927.6104, 1410.929
928.0925, 1449.498
928.5746, 1499.725
929.0567, 1546.051
929.5388, 1584.334
930.0209, 1610.289
930.5031, 1618.373
930.9852, 1613.992
931.4673, 1601.909
931.9494, 1583.835
932.4315, 1562.225
932.9136, 1537.792
933.3958, 1507.629
933.8779, 1469.653
934.3600, 1424.311
934.8421, 1368.104
935.3242, 1306.546
935.8063, 1252.746
936.2885, 1207.092
936.7706, 1158.553
937.2527, 1100.881
937.7348, 1048.167
938.2169, 1022.795
938.6990, 1012.861
939.1812, 990.5367
939.6633, 958.3387
940.1454, 927.7203
940.6275, 901.4051
941.1096, 878.4357
941.5917, 858.2301
942.0739, 840.2635
942.5560, 824.1621
943.0381, 809.5378
943.5202, 793.4274
944.0023, 776.1396
944.4844, 763.4828
944.9666, 757.3761
945.4487, 751.1720
945.9308, 738.3829
946.4129, 722.4022
946.8950, 713.1367
947.3771, 710.5418
947.8593, 707.1472
948.3414, 702.2626
948.8235, 699.5942
949.3056, 701.0901
949.7877, 702.8157
950.2698, 700.5156
950.7520, 694.5455
951.2341, 685.8229
951.7162, 673.2176
952.1983, 665.9156
952.6804, 666.3135
953.1625, 666.3596
953.6447, 662.1092
954.1268, 656.1949
954.6089, 652.4944
955.0910, 650.7671
955.5731, 644.4301
956.0552, 630.0358
956.5374, 622.6215
957.0195, 628.9459
957.5016, 631.6193
957.9837, 618.2557
958.4658, 599.0150
958.9479, 590.9334
959.4301, 594.9337
959.9122, 596.6922
960.3943, 596.3026
960.8764, 593.4737
961.3585, 588.0608
961.8406, 580.2207
962.3228, 567.6016
962.8049, 553.8965
963.2870, 546.9507
963.7691, 548.5289
964.2512, 547.3902
964.7333, 539.3824
965.2155, 534.6987
965.6976, 538.9877
966.1797, 543.2588
966.6618, 541.4989
967.1439, 535.5619
967.6260, 529.4382
968.1082, 522.9589
968.5903, 517.3751
969.0724, 512.9402
969.5545, 509.1127
970.0366, 506.2932
970.5187, 503.5443
971.0009, 499.4646
971.4830, 494.9805
971.9651, 492.6898
972.4472, 493.3219
972.9293, 494.3758
973.4114, 496.9321
973.8936, 498.0457
974.3757, 494.3374
974.8578, 490.7101
975.3399, 493.0762
975.8220, 499.1408
976.3041, 501.2548
976.7863, 497.6288
977.2684, 492.0185
977.7505, 480.7764
978.2326, 473.1812
978.7147, 476.0401
979.1968, 482.3951
979.6790, 485.4666
980.1611, 485.7154
980.6432, 487.1590
981.1253, 491.5435
981.6074, 494.3196
982.0895, 495.6489
982.5717, 493.2765
983.0538, 479.1053
983.5359, 465.6483
984.0180, 470.1319
984.5001, 488.3730
984.9822, 499.7030
985.4644, 496.8442
985.9465, 492.3428
986.4286, 491.1936
986.9107, 489.1339
987.3928, 481.3474
987.8749, 472.8471
988.3571, 469.4848
988.8392, 471.2448
989.3213, 475.5621
989.8034, 483.8275
990.2855, 488.1500
990.7676, 479.9260
991.2498, 472.5614
991.7319, 476.0228
992.2140, 484.4341
992.6961, 492.6725
993.1782, 498.5797
993.6603, 497.2438
994.1425, 483.3288
994.6246, 472.9791
995.1067, 477.4771
995.5888, 483.5584
996.0709, 479.7289
996.5530, 473.7210
997.0352, 477.5981
997.5173, 489.9081
997.9994, 497.6606
998.4815, 494.1066
998.9636, 492.6031
999.4457, 502.5271
999.9279, 513.2339
1000.410, 517.3857
1000.892, 517.7844
1001.374, 518.4399
1001.856, 519.4014
1002.338, 517.5829
1002.821, 509.5478
1003.303, 506.1344
1003.785, 515.5362
1004.267, 527.9211
1004.749, 537.6511
1005.231, 545.5862
1005.713, 553.9701
1006.195, 562.1172
1006.677, 566.5212
1007.160, 565.1687
1007.642, 562.6934
1008.124, 558.8824
1008.606, 557.2121
1009.088, 559.9088
1009.570, 566.0894
1010.052, 574.9959
1010.534, 586.2380
1011.017, 599.6386
1011.499, 616.4664
1011.981, 630.7488
1012.463, 640.7635
1012.945, 646.6214
1013.427, 643.0941
1013.909, 639.2693
1014.391, 647.8174
1014.873, 665.3783
1015.356, 677.7281
1015.838, 680.5599
1016.320, 679.7043
1016.802, 674.9331
1017.284, 669.9418
1017.766, 668.8329
1018.248, 666.8774
1018.730, 656.2465
1019.213, 640.6871
1019.695, 632.9154
1020.177, 637.7811
1020.659, 640.5768
1021.141, 635.6744
1021.623, 628.6840
1022.105, 619.9043
1022.587, 612.1508
1023.069, 610.0201
1023.552, 610.5652
1024.034, 605.4986
1024.516, 592.2064
1024.998, 580.7441
1025.480, 573.3291
1025.962, 568.7362
1026.444, 567.8748
1026.926, 568.4989
1027.409, 567.7155
1027.891, 567.3861
1028.373, 572.8344
1028.855, 585.8636
1029.337, 594.6871
1029.819, 591.4962
1030.301, 591.7160
1030.783, 605.4693
1031.266, 617.9547
1031.748, 614.7308
1032.230, 605.0406
1032.712, 606.8652
1033.194, 622.4772
1033.676, 635.0808
1034.158, 638.9384
1034.640, 645.5634
1035.122, 661.8279
1035.604, 675.8718
1036.087, 678.2578
1036.569, 675.8722
1037.051, 678.4128
1037.533, 686.1118
1038.015, 696.6431
1038.497, 710.7189
1038.979, 726.4242
1039.461, 747.4954
1039.944, 765.1713
1040.426, 771.7997
1040.908, 776.1574
1041.390, 788.8921
1041.872, 809.3246
1042.354, 830.4593
1042.836, 853.1375
1043.318, 874.1343
1043.800, 891.1602
1044.283, 910.6786
1044.765, 936.3449
1045.247, 964.0941
1045.729, 990.8505
1046.211, 1016.110
1046.693, 1037.966
1047.175, 1057.415
1047.657, 1069.397
1048.140, 1069.602
1048.622, 1076.063
1049.104, 1097.507
1049.586, 1118.077
1050.068, 1123.605
1050.550, 1119.301
1051.032, 1119.676
1051.514, 1125.701
1051.996, 1126.923
1052.479, 1123.263
1052.961, 1113.701
1053.443, 1096.267
1053.925, 1083.526
1054.407, 1085.642
1054.889, 1091.435
1055.371, 1078.888
1055.853, 1049.884
1056.335, 1026.827
1056.818, 1009.539
1057.300, 992.7686
1057.782, 975.6523
1058.264, 954.0400
1058.746, 925.2619
1059.228, 897.1694
1059.710, 880.9521
1060.192, 873.3196
1060.675, 863.7409
1061.157, 852.5397
1061.639, 842.5065
1062.121, 833.3825
1062.603, 819.2923
1063.085, 798.3036
1063.567, 779.9611
1064.049, 774.1132
1064.531, 775.6508
1065.014, 779.3416
1065.496, 781.6849
1065.978, 772.0994
1066.460, 752.9703
1066.942, 734.4247
1067.424, 719.2209
1067.906, 704.0482
1068.388, 685.6439
1068.870, 670.4161
1069.353, 668.9550
1069.835, 672.6226
1070.317, 669.8826
1070.799, 662.5342
1071.281, 653.6017
1071.763, 645.0515
1072.245, 641.8130
1072.727, 647.2010
1073.210, 650.0703
1073.692, 639.3377
1074.174, 625.9201
1074.656, 618.5475
1075.138, 614.0912
1075.620, 608.4471
1076.102, 601.9612
1076.584, 595.6465
1077.067, 589.5529
1077.549, 590.3304
1078.031, 609.7850
1078.513, 624.9553
1078.995, 621.1227
1079.477, 613.2872
1079.959, 612.1666
1080.441, 615.6330
1080.923, 619.9247
1081.406, 624.3474
1081.888, 625.9174
1082.370, 618.9772
1082.852, 617.0317
1083.334, 624.5966
1083.816, 634.5831
1084.298, 647.2467
1084.780, 658.1414
1085.262, 658.3022
1085.745, 651.7490
1086.227, 659.2529
1086.709, 690.0778
1087.191, 709.5002
1087.673, 708.4770
1088.155, 715.0313
1088.637, 741.5461
1089.119, 767.9200
1089.602, 779.6333
1090.084, 780.9471
1090.566, 779.6384
1091.048, 775.2775
1091.530, 780.9225
1092.012, 797.5880
1092.494, 817.6772
1092.976, 840.0020
1093.458, 866.9922
1093.941, 901.3657
1094.423, 933.8623
1094.905, 951.2328
1095.387, 959.0707
1095.869, 980.1177
1096.351, 1011.714
1096.833, 1030.899
1097.315, 1037.323
1097.797, 1047.184
1098.280, 1065.583
1098.762, 1086.633
1099.244, 1106.007
1099.726, 1123.711
1100.208, 1142.431
1100.690, 1158.043
1101.172, 1159.782
1101.654, 1151.800
1102.137, 1142.727
1102.619, 1135.803
1103.101, 1137.531
1103.583, 1151.845
1104.065, 1158.902
1104.547, 1132.534
1105.029, 1101.941
1105.511, 1098.215
1105.994, 1102.673
1106.476, 1092.765
1106.958, 1071.283
1107.440, 1048.913
1107.922, 1028.179
1108.404, 1008.429
1108.886, 990.2097
1109.368, 971.6391
1109.850, 951.7238
1110.333, 931.6993
1110.815, 909.5186
1111.297, 889.7089
1111.779, 881.3398
1112.261, 881.2227
1112.743, 871.4443
1113.225, 846.8231
1113.707, 821.5583
1114.189, 792.6199
1114.672, 768.7662
1115.154, 752.1948
1115.636, 740.7518
1116.118, 734.1357
1116.600, 730.6017
1117.082, 727.5658
1117.564, 725.0385
1118.046, 717.5000
1118.529, 704.6804
1119.011, 685.8740
1119.493, 658.3681
1119.975, 644.4356
1120.457, 655.4394
1120.939, 669.3960
1121.421, 662.7827
1121.903, 644.5713
1122.385, 638.8701
1122.868, 642.8235
1123.350, 641.7068
1123.832, 635.5419
1124.314, 627.2026
1124.796, 617.9858
1125.278, 611.0571
1125.760, 608.2501
1126.242, 607.9546
1126.724, 611.6937
1127.207, 614.0619
1127.689, 602.2524
1128.171, 587.1454
1128.653, 589.3002
1129.135, 603.2889
1129.617, 610.6912
1130.099, 606.7705
1130.581, 598.3095
1131.064, 586.3068
1131.546, 574.8192
1132.028, 561.0608
1132.510, 553.8598
1132.992, 565.2131
1133.474, 582.1917
1133.956, 589.4344
1134.438, 587.9114
1134.921, 586.5120
1135.403, 585.4741
1135.885, 587.3782
1136.367, 599.4240
1136.849, 603.5302
1137.331, 588.7281
1137.813, 577.1032
1138.295, 583.2010
1138.777, 597.3435
1139.260, 606.0182
1139.742, 609.4236
1140.224, 608.6746
1140.706, 602.6622
1141.188, 601.8093
1141.670, 607.3507
1142.152, 611.5453
1142.634, 611.8618
1143.116, 611.3356
1143.599, 612.4282
1144.081, 613.4811
1144.563, 611.6724
1145.045, 607.4659
1145.527, 600.2759
1146.009, 592.2635
1146.491, 589.9268
1146.973, 593.6341
1147.456, 602.8126
1147.938, 616.4039
1148.420, 623.6201
1148.902, 611.5674
1149.384, 598.3544
1149.866, 601.1621
1150.348, 609.6012
1150.830, 617.2067
1151.313, 621.0406
1151.795, 616.5551
1152.277, 605.2007
1152.759, 593.9323
1153.241, 583.3473
1153.723, 577.3809
1154.205, 581.9085
1154.687, 584.1582
1155.169, 579.3441
1155.651, 572.0595
1156.134, 562.7676
1156.616, 554.6988
1157.098, 552.9384
1157.580, 557.0413
1158.062, 562.4449
1158.544, 570.6545
1159.026, 573.1054
1159.508, 568.9877
1159.991, 559.8762
1160.473, 545.1054
1160.955, 535.0207
1161.437, 537.4323
1161.919, 547.0104
1162.401, 556.2474
1162.883, 564.6924
1163.365, 572.6586
1163.848, 578.2953
1164.330, 573.1125
1164.812, 559.1680
1165.294, 547.1333
1165.776, 540.5646
1166.258, 537.3512
1166.740, 536.9760
1167.222, 537.1577
1167.704, 533.7794
1168.187, 532.4424
1168.669, 542.6326
1169.151, 554.5905
1169.633, 556.5585
1170.115, 549.2114
1170.597, 535.9886
1171.079, 515.4981
1171.561, 506.2178
1172.043, 521.7292
1172.526, 532.4769
1173.008, 533.1022
1173.490, 529.2410
1173.972, 519.9536
1174.454, 512.1188
1174.936, 515.0822
1175.418, 523.5977
1175.900, 517.4067
1176.383, 494.7109
1176.865, 483.6229
1177.347, 484.3258
1177.829, 488.0240
1178.311, 492.9291
1178.793, 495.2817
1179.275, 493.2487
1179.757, 490.3441
1180.240, 489.7502
1180.722, 491.5270
1181.204, 496.5085
1181.686, 503.4538
1182.168, 513.2134
1182.650, 521.8734
1183.132, 519.7365
1183.614, 508.3534
1184.096, 499.8012
1184.578, 498.6695
1185.061, 499.1794
1185.543, 498.9469
1186.025, 499.4500
1186.507, 506.5112
1186.989, 508.9796
1187.471, 490.2683
1187.953, 468.0605
1188.435, 470.2760
1188.918, 492.3200
1189.400, 505.2858
1189.882, 506.5993
1190.364, 508.1245
1190.846, 510.3321
1191.328, 510.9126
1191.810, 509.5646
1192.292, 504.5751
1192.775, 494.5497
1193.257, 483.7066
1193.739, 476.8053
1194.221, 473.7314
1194.703, 474.4995
1195.185, 478.6917
1195.667, 486.9881
1196.149, 497.2942
1196.631, 504.7060
1197.114, 508.0675
1197.596, 506.9948
1198.078, 500.6853
1198.560, 496.6701
1199.042, 504.4434
1199.524, 509.6528
1200.006, 499.2690
1200.488, 488.1031
1200.970, 489.3474
1201.453, 496.4207
1201.935, 499.4004
1202.417, 498.1046
1202.899, 495.9879
1203.381, 491.9433
1203.863, 491.0451
1204.345, 494.8960
1204.827, 496.2049
1205.310, 492.5822
1205.792, 491.3477
1206.274, 497.1487
1206.756, 502.0569
1207.238, 495.3116
1207.720, 483.3645
1208.202, 484.0441
1208.684, 492.2586
1209.167, 493.3146
1209.649, 488.6231
1210.131, 483.7610
1210.613, 480.1900
1211.095, 477.9324
1211.577, 476.9543
1212.059, 478.8648
1212.541, 486.2766
1213.023, 494.6436
1213.505, 503.9486
1213.988, 510.7339
1214.470, 511.8537
1214.952, 509.5809
1215.434, 505.0907
1215.916, 499.8586
1216.398, 498.9725
1216.880, 503.5273
1217.362, 505.5740
1217.845, 504.5086
1218.327, 503.4283
1218.809, 502.7051
1219.291, 502.8709
1219.773, 504.3793
1220.255, 503.2155
##END=



