##NAMES=Hilgardite
##RRUFFID=R070426
##IDEAL CHEMISTRY=Ca_2_B_5_O_9_Cl&#183;H_2_O
##LOCALITY=Boulby mine, Loftus, Cleveland, England, UK
##OWNER=RRUFF
##SOURCE=Michael Scott
##DESCRIPTION=Pink to orange poorly formed crystals scattered over a pale green boracite matrix, polytype 1A
##STATUS=The identification of this mineral is confirmed by single-crystal X-ray diffraction and chemical analysis.
##URL=rruff.info/R070426
##MEASURED CHEMISTRY=Ca_2.00_B_5_O_9_(Cl_0.95_(OH)_0.05_)_Σ=1_·H_2_O ; = darker. Trace amounts of Na ; OH by difference 1-Cl; gray: Ca_2.00_(B_4.98_Al_0.01_Fe^3+^_0.01_)_Σ=5_O_9_Cl_1.00_·H_2_O; traces of Na; B estimated by 5-Al-Fe; light: boracite
105.0859, 0.0000000E+00
105.5681, 1418.243
106.0502, 1427.994
106.5323, 1445.640
107.0144, 1449.448
107.4965, 1429.293
107.9786, 1366.719
108.4608, 1311.471
108.9429, 1265.381
109.4250, 1227.220
109.9071, 1192.431
110.3892, 1156.041
110.8713, 1126.255
111.3535, 1107.800
111.8356, 1113.908
112.3177, 1117.862
112.7998, 1114.092
113.2819, 1101.983
113.7640, 1094.995
114.2462, 1094.102
114.7283, 1099.553
115.2104, 1111.659
115.6925, 1144.579
116.1746, 1172.575
116.6567, 1183.529
117.1389, 1171.012
117.6210, 1160.304
118.1031, 1160.188
118.5852, 1168.037
119.0673, 1178.662
119.5494, 1188.883
120.0316, 1201.688
120.5137, 1219.824
120.9958, 1247.238
121.4779, 1275.076
121.9600, 1295.117
122.4421, 1309.550
122.9243, 1328.728
123.4064, 1364.002
123.8885, 1406.427
124.3706, 1444.793
124.8527, 1463.702
125.3348, 1483.922
125.8170, 1532.571
126.2991, 1610.101
126.7812, 1688.321
127.2633, 1739.178
127.7454, 1770.764
128.2276, 1803.913
128.7097, 1845.499
129.1918, 1895.706
129.6739, 1956.933
130.1560, 2031.101
130.6381, 2109.988
131.1203, 2181.463
131.6024, 2245.904
132.0845, 2313.615
132.5666, 2388.704
133.0487, 2471.412
133.5308, 2563.032
134.0130, 2667.475
134.4951, 2777.149
134.9772, 2875.869
135.4593, 2962.618
135.9414, 3046.520
136.4235, 3134.021
136.9057, 3224.821
137.3878, 3315.705
137.8699, 3403.000
138.3520, 3488.309
138.8341, 3592.422
139.3162, 3720.748
139.7984, 3857.296
140.2805, 3986.789
140.7626, 4105.541
141.2447, 4221.453
141.7268, 4333.539
142.2089, 4438.000
142.6911, 4560.687
143.1732, 4704.269
143.6553, 4862.793
144.1374, 5027.463
144.6195, 5206.381
145.1016, 5375.941
145.5838, 5527.248
146.0659, 5664.269
146.5480, 5777.210
147.0301, 5863.407
147.5122, 5925.248
147.9943, 5975.469
148.4765, 6015.750
148.9586, 6042.197
149.4407, 6050.572
149.9228, 5984.860
150.4049, 5974.212
150.8870, 6044.189
151.3692, 6193.479
151.8513, 6341.281
152.3334, 6459.556
152.8155, 6589.213
153.2976, 6763.720
153.7797, 7012.740
154.2619, 7276.015
154.7440, 7554.053
155.2261, 7850.804
155.7082, 8126.868
156.1903, 8381.859
156.6724, 8614.563
157.1546, 8816.406
157.6367, 8991.700
158.1188, 9133.613
158.6009, 9244.312
159.0830, 9335.354
159.5651, 9365.988
160.0473, 9361.909
160.5294, 9289.409
161.0115, 9084.875
161.4936, 8653.195
161.9757, 8135.034
162.4578, 7597.487
162.9400, 7020.167
163.4221, 6481.305
163.9042, 6013.073
164.3863, 5611.044
164.8684, 5258.915
165.3506, 4952.174
165.8327, 4694.568
166.3148, 4491.683
166.7969, 4367.878
167.2790, 4276.229
167.7611, 4194.851
168.2433, 4123.868
168.7254, 4067.123
169.2075, 4022.288
169.6896, 3993.925
170.1717, 3987.773
170.6538, 4037.217
171.1360, 4089.308
171.6181, 4099.791
172.1002, 4066.944
172.5823, 4023.016
173.0644, 3990.642
173.5465, 3963.562
174.0287, 3929.909
174.5108, 3890.771
174.9929, 3839.525
175.4750, 3763.626
175.9571, 3659.021
176.4392, 3548.330
176.9214, 3449.087
177.4035, 3361.230
177.8856, 3283.129
178.3677, 3213.280
178.8498, 3153.242
179.3319, 3104.030
179.8141, 3065.498
180.2962, 3038.444
180.7783, 3030.588
181.2604, 3038.333
181.7425, 3041.879
182.2246, 3018.530
182.7068, 2981.488
183.1889, 2962.284
183.6710, 2970.663
184.1531, 2993.861
184.6352, 3012.070
185.1173, 3025.787
185.5995, 3041.175
186.0816, 3060.875
186.5637, 3085.615
187.0458, 3119.409
187.5279, 3165.501
188.0100, 3219.573
188.4922, 3267.960
188.9743, 3310.319
189.4564, 3358.569
189.9385, 3426.506
190.4206, 3512.265
190.9027, 3601.120
191.3849, 3689.115
191.8670, 3777.292
192.3491, 3868.581
192.8312, 3962.720
193.3133, 4065.604
193.7954, 4181.546
194.2776, 4310.688
194.7597, 4459.716
195.2418, 4629.080
195.7239, 4818.660
196.2060, 5040.321
196.6881, 5298.040
197.1703, 5574.815
197.6524, 5840.334
198.1345, 6088.495
198.6166, 6363.867
199.0987, 6687.697
199.5808, 7060.021
200.0630, 7447.967
200.5451, 7855.482
201.0272, 8269.828
201.5093, 8679.227
201.9914, 9085.833
202.4735, 9471.805
202.9557, 9863.036
203.4378, 10272.66
203.9199, 10535.22
204.4020, 10650.18
204.8841, 10607.06
205.3663, 10360.69
205.8484, 9882.719
206.3305, 9292.604
206.8126, 8627.711
207.2947, 7869.825
207.7768, 7146.907
208.2590, 6461.896
208.7411, 5822.354
209.2232, 5256.283
209.7053, 4764.653
210.1874, 4339.362
210.6695, 3965.039
211.1517, 3640.122
211.6338, 3376.001
212.1159, 3186.507
212.5980, 3060.633
213.0801, 2933.493
213.5622, 2802.943
214.0444, 2677.235
214.5265, 2563.799
215.0086, 2460.801
215.4907, 2373.131
215.9728, 2302.349
216.4549, 2247.835
216.9371, 2201.823
217.4192, 2166.319
217.9013, 2136.967
218.3834, 2109.745
218.8655, 2083.136
219.3476, 2063.525
219.8298, 2055.931
220.3119, 2060.635
220.7940, 2050.281
221.2761, 2013.608
221.7582, 1974.814
222.2403, 1964.424
222.7225, 2001.334
223.2046, 2023.057
223.6867, 2008.546
224.1688, 1952.678
224.6509, 1918.745
225.1330, 1913.958
225.6152, 1923.971
226.0973, 1931.633
226.5794, 1938.398
227.0615, 1939.640
227.5436, 1933.158
228.0257, 1917.556
228.5079, 1902.223
228.9900, 1887.342
229.4721, 1872.425
229.9542, 1855.249
230.4363, 1829.612
230.9184, 1813.234
231.4006, 1814.134
231.8827, 1838.402
232.3648, 1853.826
232.8469, 1855.755
233.3290, 1851.698
233.8111, 1855.502
234.2933, 1873.682
234.7754, 1888.748
235.2575, 1892.409
235.7396, 1876.889
236.2217, 1876.019
236.7038, 1897.350
237.1860, 1929.901
237.6681, 1950.692
238.1502, 1949.985
238.6323, 1952.856
239.1144, 1969.317
239.5965, 2004.165
240.0787, 2039.356
240.5608, 2073.072
241.0429, 2107.801
241.5250, 2149.817
242.0071, 2203.615
242.4892, 2258.090
242.9714, 2306.661
243.4535, 2342.925
243.9356, 2390.133
244.4177, 2449.302
244.8998, 2519.164
245.3819, 2598.744
245.8641, 2699.623
246.3462, 2793.500
246.8283, 2865.737
247.3104, 2906.965
247.7925, 2949.046
248.2747, 2997.363
248.7568, 3045.682
249.2389, 3077.355
249.7210, 3094.805
250.2031, 3091.928
250.6852, 3063.987
251.1674, 3003.975
251.6495, 2936.263
252.1316, 2863.432
252.6137, 2783.438
253.0958, 2687.316
253.5779, 2560.113
254.0601, 2439.577
254.5422, 2347.722
255.0243, 2295.204
255.5064, 2244.069
255.9885, 2189.929
256.4706, 2136.772
256.9528, 2097.899
257.4349, 2080.637
257.9170, 2065.489
258.3991, 2041.415
258.8812, 2005.067
259.3633, 1968.799
259.8455, 1930.001
260.3276, 1892.019
260.8097, 1868.879
261.2918, 1867.063
261.7739, 1867.855
262.2560, 1859.368
262.7382, 1835.970
263.2203, 1820.431
263.7024, 1815.750
264.1845, 1819.308
264.6666, 1822.546
265.1487, 1826.290
265.6309, 1827.945
266.1130, 1824.455
266.5951, 1812.618
267.0772, 1806.942
267.5593, 1808.147
268.0414, 1816.223
268.5236, 1833.613
269.0057, 1865.816
269.4878, 1894.425
269.9699, 1905.002
270.4520, 1891.023
270.9341, 1889.238
271.4163, 1905.096
271.8984, 1933.854
272.3805, 1962.445
272.8626, 1992.476
273.3447, 2018.400
273.8268, 2034.890
274.3090, 2039.944
274.7911, 2051.037
275.2732, 2074.860
275.7553, 2101.849
276.2374, 2102.184
276.7195, 2070.421
277.2017, 2033.070
277.6838, 2005.911
278.1659, 1989.635
278.6480, 1974.532
279.1301, 1958.635
279.6122, 1944.537
280.0944, 1939.912
280.5765, 1946.461
281.0586, 1953.040
281.5407, 1949.175
282.0228, 1934.695
282.5049, 1934.351
282.9871, 1954.949
283.4692, 1984.845
283.9513, 1999.515
284.4334, 1998.191
284.9155, 1990.604
285.3976, 1978.569
285.8798, 1962.976
286.3619, 1957.298
286.8440, 1965.452
287.3261, 1979.345
287.8082, 1982.916
288.2903, 1976.068
288.7725, 1969.310
289.2546, 1969.802
289.7367, 1976.213
290.2188, 1984.274
290.7009, 1997.953
291.1830, 2003.093
291.6652, 1974.993
292.1473, 1914.595
292.6294, 1838.999
293.1115, 1747.279
293.5936, 1646.190
294.0757, 1558.287
294.5579, 1484.786
295.0400, 1425.759
295.5221, 1383.727
296.0042, 1357.009
296.4863, 1338.003
296.9684, 1323.190
297.4506, 1312.828
297.9327, 1309.096
298.4148, 1313.211
298.8969, 1318.988
299.3790, 1318.577
299.8611, 1313.384
300.3433, 1308.182
300.8254, 1305.711
301.3075, 1304.746
301.7896, 1302.943
302.2717, 1299.885
302.7538, 1297.783
303.2360, 1300.710
303.7181, 1306.461
304.2002, 1309.727
304.6823, 1304.591
305.1644, 1297.112
305.6465, 1293.716
306.1287, 1294.600
306.6108, 1300.410
307.0929, 1315.500
307.5750, 1335.555
308.0572, 1353.293
308.5393, 1365.939
309.0214, 1374.384
309.5035, 1378.452
309.9856, 1378.031
310.4677, 1376.769
310.9499, 1371.179
311.4320, 1367.602
311.9141, 1374.607
312.3962, 1408.860
312.8783, 1444.603
313.3604, 1463.786
313.8426, 1466.605
314.3247, 1467.727
314.8068, 1468.712
315.2889, 1474.288
315.7710, 1489.319
316.2531, 1523.510
316.7353, 1560.415
317.2174, 1593.815
317.6995, 1623.705
318.1816, 1651.047
318.6637, 1669.382
319.1458, 1688.793
319.6280, 1717.375
320.1101, 1778.100
320.5922, 1826.965
321.0743, 1847.876
321.5564, 1844.421
322.0385, 1836.850
322.5207, 1833.468
323.0028, 1825.593
323.4849, 1807.653
323.9670, 1758.302
324.4491, 1723.191
324.9312, 1718.707
325.4134, 1736.208
325.8955, 1743.175
326.3776, 1718.855
326.8597, 1695.789
327.3418, 1689.147
327.8239, 1710.956
328.3061, 1733.696
328.7882, 1759.074
329.2703, 1785.098
329.7524, 1806.264
330.2345, 1808.532
330.7166, 1819.734
331.1988, 1852.410
331.6809, 1919.804
332.1630, 1975.796
332.6451, 2009.198
333.1272, 2035.428
333.6093, 2084.271
334.0915, 2172.689
334.5736, 2257.563
335.0557, 2322.188
335.5378, 2358.873
336.0199, 2410.896
336.5020, 2485.466
336.9842, 2568.805
337.4663, 2645.177
337.9484, 2717.702
338.4305, 2774.982
338.9126, 2813.261
339.3947, 2832.248
339.8769, 2841.755
340.3590, 2841.568
340.8411, 2832.526
341.3232, 2816.095
341.8053, 2792.905
342.2874, 2757.553
342.7696, 2704.148
343.2517, 2637.027
343.7338, 2582.101
344.2159, 2538.639
344.6980, 2506.922
345.1801, 2488.678
345.6623, 2483.521
346.1444, 2483.582
346.6265, 2487.395
347.1086, 2495.324
347.5907, 2505.503
348.0728, 2517.804
348.5550, 2542.193
349.0371, 2593.371
349.5192, 2663.345
350.0013, 2725.901
350.4834, 2772.600
350.9655, 2817.502
351.4477, 2877.364
351.9298, 2952.281
352.4119, 3039.149
352.8940, 3141.823
353.3761, 3254.146
353.8582, 3366.913
354.3404, 3481.246
354.8225, 3587.318
355.3046, 3677.168
355.7867, 3751.566
356.2688, 3812.354
356.7509, 3878.120
357.2331, 3920.480
357.7152, 3906.865
358.1973, 3831.438
358.6794, 3735.608
359.1615, 3642.302
359.6436, 3545.857
360.1258, 3438.346
360.6079, 3300.048
361.0900, 3163.600
361.5721, 3041.891
362.0542, 2935.638
362.5363, 2851.486
363.0185, 2800.648
363.5006, 2769.055
363.9827, 2744.582
364.4648, 2718.893
364.9469, 2704.943
365.4290, 2712.307
365.9112, 2737.752
366.3933, 2758.636
366.8754, 2765.095
367.3575, 2769.578
367.8396, 2779.039
368.3217, 2796.470
368.8039, 2816.059
369.2860, 2838.874
369.7681, 2863.710
370.2502, 2887.688
370.7323, 2914.033
371.2144, 2936.343
371.6966, 2951.563
372.1787, 2956.683
372.6608, 2961.853
373.1429, 2965.384
373.6250, 2969.882
374.1071, 2982.300
374.5893, 3013.138
375.0714, 3030.351
375.5535, 3018.991
376.0356, 2976.466
376.5177, 2946.912
376.9998, 2933.186
377.4820, 2928.004
377.9641, 2924.077
378.4462, 2921.469
378.9283, 2919.876
379.4104, 2920.772
379.8925, 2922.505
380.3747, 2916.497
380.8568, 2901.849
381.3389, 2884.717
381.8210, 2872.734
382.3031, 2864.460
382.7852, 2845.864
383.2674, 2811.765
383.7495, 2769.880
384.2316, 2736.024
384.7137, 2709.103
385.1958, 2682.945
385.6779, 2658.885
386.1601, 2631.925
386.6422, 2588.651
387.1243, 2522.657
387.6064, 2455.626
388.0885, 2411.372
388.5706, 2383.482
389.0528, 2356.533
389.5349, 2326.380
390.0170, 2291.509
390.4991, 2247.621
390.9813, 2194.058
391.4634, 2141.651
391.9455, 2097.484
392.4276, 2058.602
392.9097, 2021.248
393.3918, 1989.614
393.8740, 1954.388
394.3561, 1904.218
394.8382, 1841.986
395.3203, 1792.490
395.8024, 1769.942
396.2845, 1760.709
396.7667, 1755.818
397.2488, 1757.253
397.7309, 1758.340
398.2130, 1755.834
398.6951, 1751.784
399.1772, 1752.649
399.6594, 1764.450
400.1415, 1776.667
400.6236, 1785.324
401.1057, 1788.543
401.5878, 1792.742
402.0699, 1799.560
402.5521, 1806.559
403.0342, 1810.352
403.5163, 1811.319
403.9984, 1808.185
404.4805, 1799.004
404.9626, 1783.689
405.4448, 1772.047
405.9269, 1762.973
406.4090, 1759.603
406.8911, 1767.273
407.3732, 1788.140
407.8553, 1805.278
408.3375, 1813.826
408.8196, 1817.631
409.3017, 1830.609
409.7838, 1853.789
410.2659, 1874.633
410.7480, 1882.303
411.2302, 1879.308
411.7123, 1877.993
412.1944, 1879.989
412.6765, 1883.177
413.1586, 1883.599
413.6407, 1882.282
414.1229, 1883.663
414.6050, 1893.942
415.0871, 1906.870
415.5692, 1909.683
416.0513, 1901.316
416.5334, 1897.608
417.0156, 1916.874
417.4977, 1947.690
417.9798, 1972.628
418.4619, 1976.460
418.9440, 1980.392
419.4261, 2000.955
419.9083, 2034.975
420.3904, 2065.918
420.8725, 2078.506
421.3546, 2089.867
421.8367, 2112.339
422.3188, 2153.960
422.8010, 2197.103
423.2831, 2238.832
423.7652, 2279.111
424.2473, 2318.999
424.7294, 2351.202
425.2115, 2390.154
425.6937, 2442.901
426.1758, 2513.647
426.6579, 2580.656
427.1400, 2640.636
427.6221, 2699.645
428.1042, 2764.636
428.5864, 2835.596
429.0685, 2912.495
429.5506, 2996.493
430.0327, 3086.166
430.5148, 3173.054
430.9969, 3253.676
431.4791, 3339.077
431.9612, 3444.056
432.4433, 3571.613
432.9254, 3670.680
433.4075, 3734.177
433.8896, 3769.593
434.3718, 3791.639
434.8539, 3800.043
435.3360, 3785.264
435.8181, 3733.014
436.3002, 3654.689
436.7823, 3577.602
437.2645, 3502.068
437.7466, 3433.823
438.2287, 3377.935
438.7108, 3333.571
439.1929, 3299.177
439.6750, 3279.092
440.1572, 3264.448
440.6393, 3247.207
441.1214, 3228.021
441.6035, 3210.115
442.0856, 3193.060
442.5677, 3179.421
443.0499, 3172.558
443.5320, 3177.352
444.0141, 3178.522
444.4962, 3168.111
444.9783, 3150.437
445.4604, 3132.738
445.9426, 3115.017
446.4247, 3099.287
446.9068, 3085.393
447.3889, 3073.100
447.8710, 3065.626
448.3531, 3057.838
448.8353, 3058.355
449.3174, 3074.338
449.7995, 3115.310
450.2816, 3155.494
450.7637, 3188.022
451.2458, 3218.093
451.7280, 3264.999
452.2101, 3330.952
452.6922, 3407.679
453.1743, 3491.993
453.6564, 3583.285
454.1385, 3679.481
454.6207, 3779.010
455.1028, 3888.060
455.5849, 4020.395
456.0670, 4174.142
456.5491, 4327.714
457.0313, 4467.540
457.5134, 4603.781
457.9955, 4755.959
458.4776, 4925.167
458.9597, 5105.974
459.4418, 5298.538
459.9240, 5498.435
460.4061, 5702.443
460.8882, 5910.327
461.3703, 6116.241
461.8524, 6315.568
462.3345, 6508.064
462.8167, 6689.144
463.2988, 6890.980
463.7809, 7053.063
464.2630, 7134.033
464.7451, 7128.315
465.2272, 7069.885
465.7094, 6966.987
466.1915, 6818.583
466.6736, 6622.064
467.1557, 6347.488
467.6378, 6059.053
468.1199, 5756.057
468.6021, 5441.157
469.0842, 5138.690
469.5663, 4839.347
470.0484, 4564.359
470.5305, 4320.771
471.0126, 4112.835
471.4948, 3926.108
471.9769, 3762.315
472.4590, 3615.672
472.9411, 3476.522
473.4232, 3343.424
473.9054, 3230.279
474.3875, 3145.287
474.8696, 3082.989
475.3517, 3022.608
475.8338, 2963.452
476.3159, 2913.452
476.7981, 2880.843
477.2802, 2862.490
477.7623, 2849.674
478.2444, 2842.009
478.7265, 2836.824
479.2086, 2832.401
479.6908, 2828.176
480.1729, 2822.768
480.6550, 2802.360
481.1371, 2789.486
481.6192, 2809.833
482.1013, 2862.871
482.5835, 2913.238
483.0656, 2946.455
483.5477, 2967.000
484.0298, 2978.873
484.5119, 2992.423
484.9940, 2984.586
485.4762, 2945.928
485.9583, 2882.203
486.4404, 2808.239
486.9225, 2714.550
487.4046, 2621.160
487.8867, 2531.072
488.3689, 2443.007
488.8510, 2364.196
489.3331, 2293.946
489.8152, 2232.974
490.2973, 2182.409
490.7794, 2143.502
491.2616, 2111.260
491.7437, 2085.856
492.2258, 2065.929
492.7079, 2048.512
493.1900, 2033.791
493.6721, 2020.754
494.1543, 2010.987
494.6364, 2002.718
495.1185, 1988.242
495.6006, 1966.631
496.0827, 1946.021
496.5648, 1934.078
497.0470, 1929.435
497.5291, 1929.905
498.0112, 1939.213
498.4933, 1948.667
498.9754, 1952.339
499.4576, 1950.357
499.9397, 1942.850
500.4218, 1924.688
500.9039, 1904.719
501.3860, 1888.314
501.8681, 1877.045
502.3503, 1866.957
502.8324, 1851.115
503.3145, 1838.217
503.7966, 1838.912
504.2787, 1872.985
504.7608, 1896.846
505.2430, 1899.899
505.7251, 1885.948
506.2072, 1882.854
506.6893, 1899.245
507.1714, 1911.082
507.6535, 1901.042
508.1357, 1864.753
508.6178, 1844.073
509.0999, 1842.647
509.5820, 1851.258
510.0641, 1859.394
510.5462, 1866.950
511.0284, 1872.217
511.5105, 1874.301
511.9926, 1874.154
512.4747, 1872.619
512.9568, 1869.988
513.4390, 1868.714
513.9211, 1869.517
514.4032, 1873.084
514.8853, 1881.163
515.3674, 1895.187
515.8495, 1908.762
516.3317, 1919.182
516.8138, 1926.452
517.2959, 1930.576
517.7780, 1924.824
518.2601, 1922.668
518.7422, 1932.283
519.2244, 1952.012
519.7065, 1964.626
520.1886, 1954.042
520.6707, 1948.201
521.1528, 1961.957
521.6349, 2010.104
522.1171, 2037.682
522.5992, 2032.689
523.0813, 2019.119
523.5634, 2032.181
524.0455, 2077.363
524.5276, 2119.425
525.0098, 2147.288
525.4919, 2166.475
525.9740, 2198.583
526.4561, 2244.272
526.9382, 2288.831
527.4203, 2323.361
527.9025, 2350.081
528.3846, 2374.170
528.8667, 2396.655
529.3488, 2414.160
529.8309, 2426.841
530.3130, 2431.633
530.7952, 2423.575
531.2773, 2399.610
531.7594, 2363.258
532.2415, 2309.796
532.7236, 2243.226
533.2057, 2183.065
533.6879, 2139.604
534.1700, 2100.000
534.6521, 2055.930
535.1342, 1999.842
535.6163, 1959.734
536.0984, 1941.801
536.5806, 1936.265
537.0627, 1934.099
537.5448, 1937.153
538.0269, 1939.339
538.5090, 1940.727
538.9911, 1940.182
539.4733, 1931.388
539.9554, 1912.565
540.4375, 1897.983
540.9196, 1899.117
541.4017, 1911.927
541.8839, 1917.220
542.3660, 1914.169
542.8481, 1908.171
543.3302, 1903.503
543.8123, 1899.687
544.2944, 1895.169
544.7766, 1886.826
545.2587, 1882.031
545.7408, 1889.782
546.2229, 1905.823
546.7050, 1919.804
547.1871, 1930.733
547.6693, 1935.845
548.1514, 1929.508
548.6335, 1909.481
549.1156, 1899.963
549.5977, 1912.164
550.0798, 1931.070
550.5620, 1946.408
551.0441, 1955.904
551.5262, 1966.454
552.0083, 1978.375
552.4904, 1991.453
552.9725, 2006.979
553.4547, 2026.680
553.9368, 2038.843
554.4189, 2032.559
554.9010, 2016.510
555.3831, 2028.501
555.8652, 2068.962
556.3474, 2115.367
556.8295, 2148.708
557.3116, 2175.630
557.7937, 2208.968
558.2758, 2250.917
558.7579, 2298.694
559.2401, 2345.350
559.7222, 2396.789
560.2043, 2461.940
560.6864, 2554.335
561.1685, 2651.665
561.6506, 2743.976
562.1328, 2831.946
562.6149, 2922.390
563.0970, 3011.754
563.5791, 3108.121
564.0612, 3214.404
564.5433, 3329.489
565.0255, 3459.799
565.5076, 3608.623
565.9897, 3767.047
566.4718, 3926.010
566.9539, 4081.644
567.4360, 4253.926
567.9182, 4444.568
568.4003, 4652.521
568.8824, 4874.057
569.3645, 5107.757
569.8466, 5361.637
570.3287, 5650.832
570.8109, 5954.813
571.2930, 6245.988
571.7751, 6524.383
572.2572, 6749.577
572.7393, 6947.912
573.2214, 7054.985
573.7036, 6995.922
574.1857, 6713.917
574.6678, 6362.981
575.1499, 5954.927
575.6320, 5526.719
576.1141, 5126.789
576.5963, 4744.228
577.0784, 4417.546
577.5605, 4162.010
578.0426, 3974.063
578.5247, 3811.849
579.0068, 3675.857
579.4890, 3567.377
579.9711, 3490.954
580.4532, 3448.554
580.9353, 3406.782
581.4174, 3362.488
581.8995, 3331.841
582.3817, 3346.998
582.8638, 3393.764
583.3459, 3421.766
583.8280, 3422.900
584.3101, 3393.086
584.7922, 3313.972
585.2744, 3199.353
585.7565, 3082.813
586.2386, 2978.544
586.7207, 2878.763
587.2028, 2773.601
587.6849, 2664.065
588.1671, 2574.009
588.6492, 2509.560
589.1313, 2467.642
589.6134, 2446.866
590.0955, 2443.508
590.5776, 2468.121
591.0598, 2530.641
591.5419, 2612.216
592.0240, 2687.671
592.5061, 2754.324
592.9882, 2829.295
593.4703, 2915.992
593.9525, 3011.409
594.4346, 3105.989
594.9167, 3200.136
595.3988, 3299.552
595.8809, 3412.860
596.3630, 3531.531
596.8452, 3638.397
597.3273, 3731.454
597.8094, 3832.500
598.2915, 3959.129
598.7736, 4098.827
599.2557, 4241.015
599.7379, 4384.842
600.2200, 4524.836
600.7021, 4653.382
601.1842, 4778.618
601.6663, 4914.398
602.1484, 5079.880
602.6306, 5234.591
603.1127, 5388.267
603.5948, 5527.637
604.0769, 5580.313
604.5590, 5540.019
605.0411, 5431.638
605.5233, 5264.874
606.0054, 5040.549
606.4875, 4758.358
606.9696, 4415.634
607.4517, 4064.754
607.9338, 3752.064
608.4160, 3469.754
608.8981, 3214.880
609.3802, 2983.718
609.8623, 2775.028
610.3444, 2584.092
610.8265, 2413.949
611.3087, 2265.590
611.7908, 2140.572
612.2729, 2037.804
612.7550, 1966.404
613.2371, 1922.530
613.7192, 1878.714
614.2014, 1836.170
614.6835, 1791.034
615.1656, 1738.595
615.6477, 1676.239
616.1298, 1634.088
616.6119, 1615.443
617.0941, 1609.162
617.5762, 1610.647
618.0583, 1617.808
618.5404, 1609.286
619.0225, 1576.578
619.5046, 1543.699
619.9868, 1542.648
620.4689, 1565.083
620.9510, 1590.460
621.4331, 1610.167
621.9152, 1629.710
622.3973, 1650.243
622.8795, 1673.049
623.3616, 1703.631
623.8437, 1756.792
624.3258, 1807.011
624.8079, 1838.024
625.2900, 1844.524
625.7722, 1865.671
626.2543, 1902.451
626.7364, 1952.655
627.2185, 2018.953
627.7006, 2105.618
628.1827, 2180.252
628.6649, 2237.976
629.1470, 2287.705
629.6291, 2337.821
630.1112, 2389.639
630.5933, 2450.996
631.0754, 2531.083
631.5576, 2614.191
632.0397, 2676.198
632.5218, 2723.670
633.0039, 2776.616
633.4860, 2871.366
633.9681, 2951.955
634.4503, 2980.138
634.9324, 2952.862
635.4145, 2920.929
635.8966, 2894.217
636.3787, 2865.610
636.8608, 2829.729
637.3430, 2779.669
637.8251, 2742.159
638.3072, 2721.034
638.7893, 2707.198
639.2714, 2686.553
639.7535, 2659.040
640.2357, 2645.919
640.7178, 2651.258
641.1999, 2673.059
641.6820, 2713.855
642.1641, 2769.961
642.6462, 2827.175
643.1284, 2879.620
643.6105, 2930.285
644.0926, 2981.250
644.5747, 3032.423
645.0568, 3084.450
645.5389, 3134.012
646.0211, 3187.263
646.5032, 3250.083
646.9853, 3327.398
647.4674, 3395.908
647.9495, 3451.795
648.4316, 3502.980
648.9138, 3557.021
649.3959, 3614.837
649.8780, 3664.998
650.3601, 3702.017
650.8422, 3740.302
651.3243, 3808.714
651.8065, 3900.696
652.2886, 3984.256
652.7707, 4050.266
653.2528, 4101.218
653.7349, 4148.641
654.2170, 4184.837
654.6992, 4185.739
655.1813, 4130.009
655.6634, 4044.824
656.1455, 3934.624
656.6276, 3800.209
657.1097, 3675.979
657.5919, 3580.971
658.0740, 3482.419
658.5561, 3359.784
659.0382, 3198.674
659.5203, 3078.097
660.0024, 3004.241
660.4846, 2954.339
660.9667, 2909.259
661.4488, 2868.060
661.9309, 2825.041
662.4130, 2778.017
662.8951, 2732.197
663.3773, 2699.716
663.8594, 2673.466
664.3415, 2638.630
664.8236, 2576.880
665.3057, 2516.416
665.7878, 2471.047
666.2700, 2439.257
666.7521, 2415.760
667.2342, 2411.684
667.7163, 2403.442
668.1984, 2381.699
668.6805, 2346.710
669.1627, 2316.791
669.6448, 2294.342
670.1269, 2271.510
670.6090, 2242.633
671.0911, 2207.916
671.5732, 2173.028
672.0554, 2137.781
672.5375, 2106.320
673.0196, 2084.263
673.5017, 2068.813
673.9838, 2055.111
674.4659, 2043.036
674.9481, 2030.203
675.4302, 2011.293
675.9123, 1991.642
676.3944, 1978.734
676.8765, 1984.840
677.3586, 1985.864
677.8408, 1969.967
678.3229, 1945.775
678.8051, 1938.799
679.2872, 1954.864
679.7693, 1973.792
680.2514, 1989.526
680.7335, 2002.510
681.2156, 2012.923
681.6978, 2020.771
682.1799, 2031.056
682.6620, 2044.050
683.1441, 2062.798
683.6262, 2096.249
684.1083, 2144.811
684.5905, 2191.790
685.0726, 2221.893
685.5547, 2247.803
686.0368, 2279.007
686.5189, 2313.888
687.0010, 2361.683
687.4832, 2434.304
687.9653, 2514.500
688.4474, 2582.596
688.9295, 2629.668
689.4116, 2690.803
689.8937, 2772.877
690.3759, 2866.893
690.8580, 2957.013
691.3401, 3043.474
691.8222, 3128.734
692.3043, 3214.845
692.7864, 3300.331
693.2686, 3383.537
693.7507, 3465.050
694.2328, 3544.813
694.7149, 3622.300
695.1970, 3700.531
695.6791, 3790.550
696.1613, 3891.933
696.6434, 3961.239
697.1255, 3967.552
697.6076, 3966.176
698.0897, 3987.518
698.5718, 4041.071
699.0540, 4046.945
699.5361, 3997.997
700.0182, 3923.025
700.5003, 3845.051
700.9824, 3763.447
701.4645, 3675.994
701.9467, 3584.043
702.4288, 3481.828
702.9109, 3352.970
703.3930, 3213.518
703.8751, 3087.708
704.3572, 2989.417
704.8394, 2896.107
705.3215, 2798.858
705.8036, 2700.939
706.2857, 2608.057
706.7678, 2515.510
707.2499, 2434.156
707.7321, 2366.725
708.2142, 2311.272
708.6963, 2262.676
709.1784, 2220.667
709.6605, 2185.836
710.1426, 2163.078
710.6248, 2145.938
711.1069, 2119.178
711.5890, 2083.796
712.0711, 2047.090
712.5532, 2015.272
713.0353, 1983.371
713.5175, 1943.697
713.9996, 1894.512
714.4817, 1859.006
714.9638, 1856.597
715.4459, 1859.316
715.9280, 1849.562
716.4102, 1821.355
716.8923, 1800.335
717.3744, 1786.954
717.8565, 1779.554
718.3386, 1776.605
718.8207, 1778.045
719.3029, 1783.373
719.7850, 1792.842
720.2671, 1804.731
720.7492, 1815.516
721.2313, 1827.484
721.7134, 1844.680
722.1956, 1869.038
722.6777, 1898.148
723.1598, 1937.778
723.6419, 1980.621
724.1240, 2012.219
724.6061, 2012.570
725.0883, 2026.937
725.5704, 2068.397
726.0525, 2127.464
726.5346, 2173.052
727.0167, 2204.072
727.4988, 2229.698
727.9810, 2258.408
728.4631, 2281.670
728.9452, 2279.782
729.4273, 2253.521
729.9094, 2207.897
730.3915, 2130.055
730.8737, 2046.113
731.3558, 1976.344
731.8379, 1922.453
732.3200, 1870.724
732.8021, 1816.104
733.2842, 1763.800
733.7664, 1715.195
734.2485, 1668.796
734.7306, 1632.533
735.2127, 1608.516
735.6948, 1589.666
736.1769, 1566.905
736.6591, 1542.400
737.1412, 1535.750
737.6233, 1551.005
738.1054, 1567.195
738.5875, 1554.407
739.0696, 1532.622
739.5518, 1532.587
740.0339, 1573.908
740.5160, 1612.297
740.9981, 1621.705
741.4802, 1622.030
741.9623, 1641.286
742.4445, 1691.414
742.9266, 1739.299
743.4087, 1777.796
743.8908, 1815.956
744.3729, 1872.021
744.8550, 1945.870
745.3372, 2027.761
745.8193, 2113.589
746.3014, 2208.411
746.7835, 2318.255
747.2656, 2442.908
747.7477, 2585.314
748.2299, 2747.916
748.7120, 2926.198
749.1941, 3113.732
749.6762, 3312.749
750.1583, 3533.737
750.6404, 3788.477
751.1226, 4047.366
751.6047, 4294.946
752.0868, 4535.079
752.5689, 4823.486
753.0510, 5162.754
753.5331, 5519.289
754.0153, 5863.219
754.4974, 6209.229
754.9795, 6607.513
755.4616, 7055.525
755.9437, 7518.476
756.4258, 7973.667
756.9080, 8434.604
757.3901, 8918.655
757.8722, 9445.490
758.3543, 9911.844
758.8364, 10357.07
759.3185, 10692.31
759.8007, 10871.83
760.2828, 10900.89
760.7649, 10742.73
761.2470, 10383.44
761.7291, 9877.184
762.2112, 9233.085
762.6934, 8483.204
763.1755, 7729.783
763.6576, 6983.716
764.1397, 6299.791
764.6218, 5730.557
765.1039, 5239.942
765.5861, 4781.241
766.0682, 4324.010
766.5503, 3931.257
767.0324, 3640.185
767.5145, 3407.746
767.9966, 3183.516
768.4788, 2964.627
768.9609, 2767.775
769.4430, 2597.343
769.9251, 2449.210
770.4072, 2318.968
770.8893, 2205.149
771.3715, 2104.990
771.8536, 2020.148
772.3357, 1942.774
772.8178, 1864.288
773.2999, 1788.554
773.7820, 1723.207
774.2642, 1680.729
774.7463, 1636.994
775.2284, 1581.547
775.7105, 1521.739
776.1926, 1480.279
776.6747, 1463.716
777.1569, 1440.318
777.6390, 1395.486
778.1211, 1341.060
778.6032, 1308.545
779.0853, 1295.579
779.5674, 1287.067
780.0496, 1279.063
780.5317, 1268.850
781.0138, 1250.153
781.4959, 1225.774
781.9780, 1209.255
782.4601, 1214.432
782.9423, 1218.123
783.4244, 1210.903
783.9065, 1194.000
784.3886, 1181.906
784.8707, 1175.655
785.3528, 1170.687
785.8350, 1165.932
786.3171, 1160.491
786.7992, 1147.832
787.2813, 1129.053
787.7634, 1116.393
788.2455, 1125.758
788.7277, 1139.130
789.2098, 1138.564
789.6919, 1122.434
790.1740, 1112.711
790.6561, 1120.507
791.1382, 1130.629
791.6204, 1138.058
792.1025, 1143.295
792.5846, 1136.096
793.0667, 1113.180
793.5488, 1092.424
794.0309, 1090.741
794.5131, 1102.113
794.9952, 1109.468
795.4773, 1111.727
795.9594, 1116.873
796.4415, 1134.786
796.9236, 1155.398
797.4058, 1169.042
797.8879, 1171.888
798.3700, 1178.091
798.8521, 1188.871
799.3342, 1203.657
799.8163, 1223.659
800.2985, 1250.366
800.7806, 1268.114
801.2627, 1274.344
801.7448, 1283.541
802.2269, 1314.637
802.7090, 1358.195
803.1912, 1392.704
803.6733, 1411.658
804.1554, 1441.202
804.6375, 1504.999
805.1196, 1582.396
805.6017, 1654.744
806.0839, 1715.550
806.5660, 1777.993
807.0481, 1840.437
807.5302, 1906.495
808.0123, 1977.591
808.4944, 2053.723
808.9766, 2148.821
809.4587, 2268.556
809.9408, 2388.302
810.4229, 2478.634
810.9050, 2553.140
811.3871, 2635.235
811.8693, 2737.004
812.3514, 2828.514
812.8335, 2892.899
813.3156, 2942.943
813.7977, 2992.699
814.2798, 3047.958
814.7620, 3094.650
815.2441, 3137.668
815.7262, 3161.643
816.2083, 3141.549
816.6904, 3081.940
817.1725, 3012.468
817.6547, 2940.952
818.1368, 2854.275
818.6189, 2726.861
819.1010, 2580.531
819.5831, 2444.100
820.0652, 2331.657
820.5474, 2221.647
821.0295, 2104.596
821.5116, 1992.369
821.9937, 1897.008
822.4758, 1819.801
822.9579, 1755.028
823.4401, 1704.864
823.9222, 1661.089
824.4043, 1612.884
824.8864, 1562.462
825.3685, 1513.651
825.8506, 1464.757
826.3328, 1425.898
826.8149, 1408.130
827.2970, 1403.205
827.7791, 1400.955
828.2612, 1404.079
828.7433, 1402.972
829.2255, 1394.586
829.7076, 1384.681
830.1897, 1379.754
830.6718, 1379.842
831.1539, 1388.191
831.6360, 1406.287
832.1182, 1429.848
832.6003, 1455.476
833.0824, 1482.427
833.5645, 1509.709
834.0466, 1535.758
834.5287, 1563.836
835.0109, 1598.591
835.4930, 1634.662
835.9751, 1663.686
836.4572, 1677.500
836.9393, 1707.184
837.4214, 1758.484
837.9036, 1820.455
838.3857, 1881.842
838.8678, 1941.450
839.3499, 1992.156
839.8320, 2031.023
840.3141, 2063.227
840.7963, 2086.091
841.2784, 2107.399
841.7605, 2136.879
842.2426, 2207.921
842.7248, 2240.336
843.2069, 2214.341
843.6890, 2163.155
844.1711, 2125.868
844.6533, 2103.069
845.1354, 2079.014
845.6175, 2051.658
846.0996, 2022.354
846.5817, 1985.870
847.0638, 1950.228
847.5460, 1930.113
848.0281, 1930.670
848.5102, 1942.326
848.9923, 1969.665
849.4744, 2001.680
849.9565, 2026.155
850.4387, 2037.488
850.9208, 2053.668
851.4029, 2072.556
851.8850, 2102.352
852.3671, 2160.942
852.8492, 2239.902
853.3314, 2307.804
853.8135, 2359.466
854.2956, 2401.404
854.7777, 2432.511
855.2598, 2460.533
855.7419, 2496.105
856.2241, 2554.335
856.7062, 2587.962
857.1883, 2588.560
857.6704, 2571.796
858.1525, 2549.360
858.6346, 2521.088
859.1168, 2490.801
859.5989, 2459.955
860.0810, 2418.156
860.5631, 2347.013
861.0452, 2262.901
861.5273, 2190.276
862.0095, 2136.331
862.4916, 2075.432
862.9737, 1990.906
863.4558, 1902.926
863.9379, 1825.260
864.4200, 1757.404
864.9022, 1701.153
865.3843, 1658.410
865.8664, 1618.423
866.3485, 1572.356
866.8306, 1521.713
867.3127, 1465.483
867.7949, 1403.412
868.2770, 1349.951
868.7591, 1313.754
869.2412, 1289.014
869.7233, 1275.778
870.2054, 1277.310
870.6876, 1262.995
871.1697, 1223.224
871.6518, 1186.036
872.1339, 1170.653
872.6160, 1173.109
873.0981, 1164.399
873.5803, 1144.927
874.0624, 1126.067
874.5445, 1116.403
875.0266, 1110.042
875.5087, 1102.001
875.9908, 1092.108
876.4730, 1082.789
876.9551, 1076.569
877.4372, 1068.668
877.9193, 1056.922
878.4014, 1042.132
878.8835, 1028.079
879.3657, 1014.751
879.8478, 1004.347
880.3299, 998.5150
880.8120, 996.1226
881.2941, 996.7464
881.7762, 999.6508
882.2584, 1002.289
882.7405, 1004.370
883.2226, 1005.220
883.7047, 1005.735
884.1868, 1004.774
884.6689, 996.3282
885.1511, 977.2133
885.6332, 968.0580
886.1153, 979.4803
886.5974, 998.1166
887.0795, 996.1094
887.5616, 981.2150
888.0438, 974.7042
888.5259, 996.3416
889.0080, 1016.216
889.4901, 1019.692
889.9722, 1012.767
890.4543, 1006.863
890.9365, 1002.144
891.4186, 998.6287
891.9007, 995.8686
892.3828, 995.1540
892.8649, 1001.508
893.3470, 1011.954
893.8292, 1014.146
894.3113, 1000.386
894.7934, 991.7684
895.2755, 1011.761
895.7576, 1041.220
896.2397, 1058.229
896.7219, 1050.512
897.2040, 1045.227
897.6861, 1043.544
898.1682, 1042.406
898.6503, 1035.740
899.1324, 1025.549
899.6146, 1027.960
900.0967, 1045.379
900.5788, 1065.715
901.0609, 1079.767
901.5430, 1091.682
902.0251, 1107.055
902.5073, 1128.632
902.9894, 1141.632
903.4715, 1136.853
903.9536, 1133.814
904.4357, 1145.751
904.9178, 1171.494
905.4000, 1189.029
905.8821, 1198.228
906.3642, 1204.722
906.8463, 1212.050
907.3284, 1219.142
907.8105, 1224.178
908.2927, 1227.401
908.7748, 1232.223
909.2569, 1245.042
909.7390, 1253.245
910.2211, 1251.912
910.7032, 1242.830
911.1854, 1233.818
911.6675, 1224.861
912.1496, 1218.193
912.6317, 1216.344
913.1138, 1215.784
913.5959, 1209.555
914.0781, 1201.087
914.5602, 1198.648
915.0423, 1210.242
915.5244, 1222.525
916.0065, 1233.470
916.4886, 1242.422
916.9708, 1247.227
917.4529, 1247.375
917.9350, 1248.427
918.4171, 1250.873
918.8992, 1256.471
919.3813, 1268.600
919.8635, 1285.114
920.3456, 1302.298
920.8277, 1318.109
921.3098, 1336.428
921.7919, 1354.582
922.2740, 1378.648
922.7562, 1416.890
923.2383, 1474.641
923.7204, 1514.710
924.2025, 1532.420
924.6846, 1551.848
925.1667, 1601.795
925.6489, 1666.405
926.1310, 1720.986
926.6131, 1762.413
927.0952, 1799.158
927.5773, 1826.282
928.0594, 1858.291
928.5416, 1907.304
929.0237, 1973.298
929.5058, 2018.501
929.9879, 2041.710
930.4700, 2054.607
930.9521, 2064.625
931.4343, 2068.197
931.9164, 2057.309
932.3985, 2034.117
932.8806, 2006.511
933.3627, 1979.441
933.8448, 1947.200
934.3270, 1907.006
934.8091, 1860.476
935.2912, 1809.123
935.7733, 1750.822
936.2554, 1698.863
936.7375, 1656.184
937.2197, 1621.090
937.7018, 1596.214
938.1839, 1575.410
938.6660, 1545.034
939.1481, 1486.964
939.6302, 1443.064
940.1124, 1444.085
940.5945, 1454.264
941.0766, 1435.404
941.5587, 1379.474
942.0408, 1336.185
942.5229, 1308.955
943.0051, 1292.319
943.4872, 1288.812
943.9693, 1289.058
944.4514, 1275.589
944.9335, 1245.677
945.4156, 1219.954
945.8978, 1214.518
946.3799, 1208.301
946.8620, 1188.744
947.3441, 1156.619
947.8262, 1135.391
948.3083, 1125.589
948.7905, 1119.128
949.2726, 1115.277
949.7547, 1109.521
950.2368, 1091.880
950.7189, 1066.183
951.2010, 1044.945
951.6832, 1038.162
952.1653, 1029.902
952.6474, 1012.245
953.1295, 992.2351
953.6116, 988.0610
954.0938, 1000.495
954.5759, 1005.586
955.0580, 996.5486
955.5401, 982.3362
956.0222, 971.9478
956.5043, 963.8864
956.9865, 955.5704
957.4686, 944.5916
957.9507, 937.9554
958.4328, 938.9081
958.9149, 942.0810
959.3970, 942.8049
959.8792, 940.9757
960.3613, 943.6282
960.8434, 951.1246
961.3255, 959.0489
961.8076, 967.5728
962.2897, 972.2731
962.7719, 963.1268
963.2540, 941.0181
963.7361, 934.8624
964.2182, 963.8280
964.7003, 989.9659
965.1824, 1001.114
965.6646, 1000.201
966.1467, 994.3294
966.6288, 984.3969
967.1109, 977.1124
967.5930, 974.6465
968.0751, 976.8768
968.5573, 984.5377
969.0394, 996.5479
969.5215, 1011.686
970.0036, 1039.348
970.4857, 1050.829
970.9678, 1036.403
971.4500, 1018.736
971.9321, 1030.193
972.4142, 1063.676
972.8963, 1090.892
973.3784, 1107.791
973.8605, 1121.313
974.3427, 1136.050
974.8248, 1149.287
975.3069, 1155.239
975.7890, 1151.468
976.2711, 1166.305
976.7532, 1204.448
977.2354, 1246.748
977.7175, 1288.438
978.1996, 1324.713
978.6817, 1336.175
979.1638, 1329.709
979.6459, 1332.806
980.1281, 1369.031
980.6102, 1406.568
981.0923, 1434.477
981.5744, 1453.702
982.0565, 1463.935
982.5386, 1461.785
983.0208, 1469.208
983.5029, 1491.666
983.9850, 1519.742
984.4671, 1545.980
984.9492, 1568.373
985.4313, 1583.854
985.9135, 1591.870
986.3956, 1592.637
986.8777, 1577.507
987.3598, 1563.021
987.8419, 1559.259
988.3240, 1566.273
988.8062, 1574.128
989.2883, 1582.953
989.7704, 1580.103
990.2525, 1550.222
990.7346, 1509.481
991.2167, 1472.283
991.6989, 1438.545
992.1810, 1406.558
992.6631, 1376.805
993.1452, 1347.090
993.6273, 1316.081
994.1094, 1286.319
994.5916, 1265.752
995.0737, 1252.166
995.5558, 1232.394
996.0379, 1201.049
996.5200, 1170.289
997.0021, 1143.804
997.4843, 1125.318
997.9664, 1123.555
998.4485, 1151.779
998.9306, 1145.408
999.4127, 1093.883
999.8948, 1041.101
1000.377, 1024.130
1000.859, 1029.612
1001.341, 1024.674
1001.823, 1010.590
1002.305, 1001.295
1002.788, 1007.791
1003.270, 1015.953
1003.752, 1020.954
1004.234, 1022.990
1004.716, 1021.958
1005.198, 1017.527
1005.680, 1014.186
1006.162, 1013.921
1006.644, 1013.072
1007.127, 1006.685
1007.609, 996.9724
1008.091, 986.4869
1008.573, 972.7681
1009.055, 966.7802
1009.537, 974.4323
1010.019, 983.2990
1010.501, 983.8703
1010.984, 977.0932
1011.466, 972.4410
1011.948, 969.9670
1012.430, 969.0688
1012.912, 970.2256
1013.394, 972.0195
1013.876, 974.1277
1014.358, 976.1033
1014.841, 976.3311
1015.323, 974.5610
1015.805, 971.8782
1016.287, 968.9170
1016.769, 964.3224
1017.251, 953.0861
1017.733, 939.0612
1018.215, 930.9730
1018.697, 932.5577
1019.180, 935.5443
1019.662, 937.9379
1020.144, 939.3529
1020.626, 938.6504
1021.108, 935.4214
1021.590, 940.7461
1022.072, 955.3508
1022.554, 961.0521
1023.036, 931.2258
1023.519, 896.9095
1024.001, 894.4023
1024.483, 916.8469
1024.965, 935.2661
1025.447, 939.7673
1025.929, 947.1760
1026.411, 963.8586
1026.893, 979.4923
1027.375, 969.8313
1027.858, 942.6295
1028.340, 929.3903
1028.822, 938.6025
1029.304, 949.8742
1029.786, 949.2017
1030.268, 946.2389
1030.750, 950.1589
1031.232, 962.1454
1031.715, 966.0786
1032.197, 961.0096
1032.679, 953.6354
1033.161, 944.4025
1033.643, 937.6072
1034.125, 940.9933
1034.607, 952.2437
1035.089, 964.6198
1035.572, 978.6302
1036.054, 990.4612
1036.536, 1002.986
1037.018, 1009.520
1037.500, 992.4556
1037.982, 956.9503
1038.464, 947.5527
1038.946, 971.9497
1039.428, 997.5474
1039.911, 998.2475
1040.393, 990.9385
1040.875, 987.8200
1041.357, 989.8120
1041.839, 994.4278
1042.321, 1003.208
1042.803, 1007.616
1043.285, 998.9052
1043.767, 989.3472
1044.250, 1008.956
1044.732, 1044.292
1045.214, 1065.625
1045.696, 1042.506
1046.178, 1032.799
1046.660, 1058.019
1047.142, 1088.982
1047.624, 1095.176
1048.107, 1078.449
1048.589, 1065.990
1049.071, 1059.286
1049.553, 1066.069
1050.035, 1111.040
1050.517, 1155.655
1050.999, 1164.829
1051.481, 1142.097
1051.964, 1136.203
1052.446, 1152.811
1052.928, 1168.318
1053.410, 1174.962
1053.892, 1180.349
1054.374, 1199.203
1054.856, 1225.188
1055.338, 1246.679
1055.820, 1261.357
1056.302, 1269.295
1056.785, 1258.604
1057.267, 1253.786
1057.749, 1273.788
1058.231, 1316.255
1058.713, 1349.130
1059.195, 1372.650
1059.677, 1389.940
1060.159, 1391.945
1060.642, 1399.017
1061.124, 1428.852
1061.606, 1474.559
1062.088, 1516.598
1062.570, 1554.933
1063.052, 1587.891
1063.534, 1614.377
1064.016, 1638.704
1064.499, 1661.297
1064.981, 1687.722
1065.463, 1727.175
1065.945, 1781.584
1066.427, 1842.354
1066.909, 1918.530
1067.391, 1987.061
1067.873, 2035.937
1068.355, 2071.751
1068.838, 2115.318
1069.320, 2166.381
1069.802, 2229.049
1070.284, 2315.767
1070.766, 2395.640
1071.248, 2437.787
1071.730, 2470.159
1072.212, 2530.093
1072.694, 2632.272
1073.177, 2705.824
1073.659, 2748.504
1074.141, 2783.330
1074.623, 2831.662
1075.105, 2881.162
1075.587, 2919.727
1076.069, 2946.495
1076.551, 2960.282
1077.034, 2960.799
1077.516, 2948.547
1077.998, 2921.860
1078.480, 2884.609
1078.962, 2846.988
1079.444, 2803.957
1079.926, 2735.898
1080.408, 2636.060
1080.891, 2540.773
1081.373, 2474.322
1081.855, 2415.146
1082.337, 2349.738
1082.819, 2278.907
1083.301, 2208.344
1083.783, 2138.057
1084.265, 2068.205
1084.747, 1993.161
1085.229, 1926.516
1085.712, 1884.786
1086.194, 1858.448
1086.676, 1832.985
1087.158, 1807.018
1087.640, 1779.307
1088.122, 1748.940
1088.604, 1720.659
1089.086, 1696.654
1089.569, 1678.582
1090.051, 1674.644
1090.533, 1681.777
1091.015, 1680.276
1091.497, 1654.733
1091.979, 1628.739
1092.461, 1602.045
1092.943, 1583.583
1093.426, 1599.588
1093.908, 1641.380
1094.390, 1664.403
1094.872, 1658.823
1095.354, 1643.030
1095.836, 1612.598
1096.318, 1590.467
1096.800, 1598.896
1097.282, 1634.618
1097.765, 1647.601
1098.247, 1636.912
1098.729, 1618.470
1099.211, 1592.085
1099.693, 1572.494
1100.175, 1581.690
1100.657, 1606.376
1101.139, 1625.833
1101.622, 1638.141
1102.104, 1641.347
1102.586, 1634.347
1103.068, 1621.456
1103.550, 1602.957
1104.032, 1582.399
1104.514, 1564.276
1104.996, 1549.763
1105.479, 1543.739
1105.961, 1559.302
1106.443, 1569.227
1106.925, 1570.414
1107.407, 1560.674
1107.889, 1529.985
1108.371, 1483.629
1108.853, 1450.062
1109.335, 1433.206
1109.818, 1424.982
1110.300, 1433.837
1110.782, 1436.232
1111.264, 1411.763
1111.746, 1367.142
1112.228, 1341.962
1112.710, 1336.457
1113.192, 1334.002
1113.674, 1329.246
1114.157, 1324.877
1114.639, 1329.339
1115.121, 1332.810
1115.603, 1320.745
1116.085, 1283.678
1116.567, 1263.305
1117.049, 1263.794
1117.531, 1264.321
1118.014, 1249.517
1118.496, 1227.554
1118.978, 1208.452
1119.460, 1193.582
1119.942, 1186.243
1120.424, 1194.149
1120.906, 1200.603
1121.388, 1203.825
1121.870, 1205.708
1122.353, 1210.379
1122.835, 1215.181
1123.317, 1209.985
1123.799, 1194.962
1124.281, 1181.154
1124.763, 1175.524
1125.245, 1170.559
1125.727, 1160.681
1126.209, 1151.277
1126.692, 1159.609
1127.174, 1182.637
1127.656, 1190.663
1128.138, 1175.724
1128.620, 1156.600
1129.102, 1136.828
1129.584, 1126.335
1130.066, 1135.663
1130.549, 1162.935
1131.031, 1193.749
1131.513, 1229.296
1131.995, 1249.848
1132.477, 1240.530
1132.959, 1225.703
1133.441, 1234.324
1133.923, 1251.726
1134.406, 1255.917
1134.888, 1236.257
1135.370, 1229.289
1135.852, 1236.942
1136.334, 1249.853
1136.816, 1261.883
1137.298, 1275.148
1137.780, 1295.641
1138.262, 1320.226
1138.745, 1339.413
1139.227, 1345.207
1139.709, 1353.283
1140.191, 1365.008
1140.673, 1378.860
1141.155, 1391.629
1141.637, 1405.455
1142.119, 1425.380
1142.601, 1451.819
1143.084, 1482.044
1143.566, 1524.451
1144.048, 1558.805
1144.530, 1578.828
1145.012, 1589.176
1145.494, 1592.427
1145.976, 1593.230
1146.458, 1618.498
1146.941, 1676.832
1147.423, 1726.583
1147.905, 1727.796
1148.387, 1730.051
1148.869, 1766.006
1149.351, 1827.350
1149.833, 1865.303
1150.315, 1881.680
1150.797, 1900.969
1151.280, 1933.714
1151.762, 1966.720
1152.244, 1987.900
1152.726, 2005.890
1153.208, 2031.353
1153.690, 2066.180
1154.172, 2084.924
1154.654, 2086.559
1155.136, 2096.273
1155.619, 2139.001
1156.101, 2184.794
1156.583, 2202.210
1157.065, 2202.830
1157.547, 2208.701
1158.029, 2230.030
1158.511, 2230.534
1158.993, 2207.107
1159.476, 2175.119
1159.958, 2147.804
1160.440, 2118.944
1160.922, 2071.072
1161.404, 2013.366
1161.886, 1983.171
1162.368, 2006.590
1162.850, 2010.685
1163.333, 1983.698
1163.815, 1943.818
1164.297, 1907.257
1164.779, 1874.303
1165.261, 1848.814
1165.743, 1830.083
1166.225, 1803.822
1166.707, 1758.019
1167.189, 1719.875
1167.672, 1698.566
1168.154, 1683.621
1168.636, 1657.425
1169.118, 1622.970
1169.600, 1584.585
1170.082, 1541.678
1170.564, 1505.562
1171.046, 1486.519
1171.528, 1465.626
1172.011, 1432.649
1172.493, 1395.386
1172.975, 1378.903
1173.457, 1377.663
1173.939, 1373.627
1174.421, 1362.660
1174.903, 1344.433
1175.385, 1306.789
1175.868, 1274.055
1176.350, 1265.224
1176.832, 1274.635
1177.314, 1265.316
1177.796, 1240.624
1178.278, 1218.924
1178.760, 1208.000
1179.242, 1202.528
1179.724, 1206.765
1180.207, 1210.310
1180.689, 1199.190
1181.171, 1173.827
1181.653, 1179.250
1182.135, 1212.691
1182.617, 1232.290
1183.099, 1192.851
1183.581, 1154.176
1184.063, 1155.751
1184.546, 1173.391
1185.028, 1168.955
1185.510, 1141.326
1185.992, 1128.864
1186.474, 1134.403
1186.956, 1146.242
1187.438, 1161.933
1187.920, 1175.098
1188.403, 1184.580
1188.885, 1187.102
1189.367, 1168.972
1189.849, 1127.547
1190.331, 1114.951
1190.813, 1142.420
1191.295, 1166.063
1191.777, 1134.385
1192.260, 1095.231
1192.742, 1091.206
1193.224, 1116.393
1193.706, 1126.517
1194.188, 1120.362
1194.670, 1110.002
1195.152, 1096.783
1195.634, 1086.383
1196.116, 1087.711
1196.599, 1092.190
1197.081, 1092.958
1197.563, 1089.350
1198.045, 1074.219
1198.527, 1044.862
1199.009, 1029.873
1199.491, 1043.995
1199.973, 1065.509
1200.455, 1073.080
1200.938, 1073.914
1201.420, 1077.268
1201.902, 1085.006
1202.384, 1083.110
1202.866, 1069.517
1203.348, 1062.864
1203.830, 1077.962
1204.312, 1095.880
1204.795, 1096.973
1205.277, 1086.261
1205.759, 1068.306
1206.241, 1035.696
1206.723, 1032.665
1207.205, 1064.828
1207.687, 1088.458
1208.169, 1062.954
1208.651, 1026.599
1209.134, 1025.355
1209.616, 1044.210
1210.098, 1053.463
1210.580, 1046.312
1211.062, 1041.352
1211.544, 1038.698
1212.026, 1039.514
1212.508, 1050.171
1212.990, 1060.320
1213.473, 1054.172
1213.955, 1038.431
1214.437, 1032.824
1214.919, 1042.065
1215.401, 1050.414
1215.883, 1057.207
1216.365, 1060.242
1216.847, 1053.114
1217.330, 1044.708
1217.812, 1045.580
1218.294, 1054.097
1218.776, 1062.767
1219.258, 1074.909
1219.740, 1070.654
1220.222, 1044.129
1220.704, 1018.673
1221.187, 1017.967
1221.669, 1030.845
1222.151, 1052.418
1222.633, 1078.340
1223.115, 1084.303
1223.597, 1062.481
1224.079, 1052.226
1224.561, 1062.526
1225.043, 1077.869
1225.526, 1084.124
1226.008, 1084.490
1226.490, 1083.431
1226.972, 1080.322
1227.454, 1063.605
1227.936, 1026.902
1228.418, 1012.571
1228.900, 1035.573
1229.382, 1067.478
1229.865, 1084.508
1230.347, 1088.412
1230.829, 1072.762
1231.311, 1038.274
1231.793, 1035.756
1232.275, 1069.995
1232.757, 1099.136
1233.239, 1109.637
1233.722, 1112.052
1234.204, 1118.628
1234.686, 1122.450
1235.168, 1113.724
1235.650, 1092.002
1236.132, 1074.733
1236.614, 1061.743
1237.096, 1058.411
1237.578, 1071.320
1238.061, 1084.290
1238.543, 1076.419
1239.025, 1064.229
1239.507, 1067.870
1239.989, 1088.064
1240.471, 1104.073
1240.953, 1115.817
1241.435, 1121.641
1241.917, 1120.349
1242.400, 1113.425
1242.882, 1095.207
1243.364, 1076.698
1243.846, 1069.547
1244.328, 1073.960
1244.810, 1086.480
1245.292, 1106.739
1245.774, 1118.569
1246.257, 1110.082
1246.739, 1097.165
1247.221, 1087.430
1247.703, 1080.647
1248.185, 1075.754
1248.667, 1072.646
1249.149, 1075.088
1249.631, 1082.752
1250.114, 1092.818
1250.596, 1108.651
1251.078, 1120.194
1251.560, 1120.616
1252.042, 1115.505
1252.524, 1107.722
1253.006, 1097.929
1253.488, 1101.097
1253.970, 1115.647
1254.453, 1129.366
1254.935, 1133.257
1255.417, 1138.400
1255.899, 1155.438
1256.381, 1169.010
1256.863, 1157.094
1257.345, 1126.957
1257.827, 1129.083
1258.310, 1158.955
1258.792, 1184.251
1259.274, 1194.721
1259.756, 1188.928
1260.238, 1159.516
1260.720, 1126.678
1261.202, 1110.008
1261.684, 1107.077
1262.167, 1114.297
1262.649, 1128.902
1263.131, 1138.637
1263.613, 1130.943
1264.095, 1129.142
1264.577, 1138.136
1265.059, 1150.505
1265.541, 1159.878
1266.023, 1166.024
1266.505, 1167.654
1266.988, 1165.286
1267.470, 1161.361
1267.952, 1148.328
1268.434, 1150.738
1268.916, 1175.752
1269.398, 1202.194
1269.880, 1208.953
1270.362, 1202.328
1270.845, 1183.972
1271.327, 1159.145
1271.809, 1153.455
1272.291, 1175.877
1272.773, 1196.134
1273.255, 1211.529
1273.737, 1219.456
1274.219, 1211.249
1274.702, 1198.768
1275.184, 1192.352
1275.666, 1192.946
1276.148, 1201.082
1276.630, 1219.126
1277.112, 1230.267
1277.594, 1232.267
1278.076, 1228.184
1278.558, 1212.239
1279.041, 1199.049
1279.523, 1204.702
1280.005, 1221.716
1280.487, 1228.840
1280.969, 1225.743
1281.451, 1229.205
1281.933, 1241.348
1282.415, 1256.925
1282.897, 1277.532
1283.380, 1294.971
1283.862, 1305.507
1284.344, 1309.505
1284.826, 1303.471
1285.308, 1289.694
1285.790, 1285.474
1286.272, 1292.531
1286.754, 1298.508
1287.237, 1285.413
1287.719, 1286.205
1288.201, 1317.862
1288.683, 1359.506
1289.165, 1372.465
1289.647, 1366.452
1290.129, 1366.460
1290.611, 1375.212
1291.094, 1389.187
1291.576, 1418.813
1292.058, 1433.516
1292.540, 1421.177
1293.022, 1405.533
1293.504, 1427.353
1293.986, 1464.107
1294.468, 1478.854
1294.950, 1469.768
1295.432, 1458.192
1295.915, 1440.915
1296.397, 1440.141
1296.879, 1462.350
1297.361, 1491.657
1297.843, 1515.321
1298.325, 1532.753
1298.807, 1541.932
1299.289, 1543.341
1299.772, 1542.775
1300.254, 1539.493
1300.736, 1542.556
1301.218, 1554.597
1301.700, 1563.276
1302.182, 1556.863
1302.664, 1543.840
1303.146, 1522.879
1303.629, 1502.501
1304.111, 1507.539
1304.593, 1534.849
1305.075, 1542.737
1305.557, 1525.026
1306.039, 1504.064
1306.521, 1485.581
1307.003, 1477.790
1307.485, 1486.198
1307.968, 1502.246
1308.450, 1511.945
1308.932, 1516.136
1309.414, 1519.030
1309.896, 1520.775
1310.378, 1513.450
1310.860, 1482.442
1311.342, 1459.537
1311.824, 1450.459
1312.307, 1453.056
1312.789, 1471.260
1313.271, 1495.655
1313.753, 1512.797
1314.235, 1521.146
1314.717, 1519.510
1315.199, 1501.434
1315.681, 1500.054
##END=



