##NAMES=Hillite
##RRUFFID=R061014
##IDEAL CHEMISTRY=Ca_2_Zn^2+^(P^5+^O_4_)_2_&#183;2H_2_O
##LOCALITY=Reaphook Hill, South Australia
##OWNER=RRUFF
##SOURCE=Michael Scott
##DESCRIPTION=Colorless pillow-shaped aggregate associated with colorless bladed scholzite.
##STATUS=The identification of this mineral has been confirmed only by single crystal X-ray diffraction.
##URL=rruff.info/R061014
166.3650, 1603.535
166.8471, 1620.481
167.3292, 1638.582
167.8113, 1656.442
168.2934, 1675.322
168.7756, 1693.175
169.2577, 1708.477
169.7398, 1721.174
170.2219, 1729.708
170.7040, 1729.763
171.1861, 1722.385
171.6683, 1720.138
172.1504, 1730.019
172.6325, 1743.733
173.1146, 1749.937
173.5967, 1746.329
174.0788, 1743.257
174.5610, 1751.854
175.0431, 1770.469
175.5252, 1789.307
176.0073, 1809.503
176.4894, 1827.646
176.9715, 1837.995
177.4537, 1838.786
177.9358, 1837.519
178.4179, 1838.804
178.9000, 1842.892
179.3821, 1854.183
179.8642, 1879.813
180.3464, 1911.310
180.8285, 1935.025
181.3106, 1947.842
181.7927, 1960.108
182.2748, 1982.006
182.7569, 2011.444
183.2391, 2042.921
183.7212, 2083.987
184.2033, 2123.237
184.6854, 2138.389
185.1675, 2121.939
185.6496, 2101.700
186.1318, 2102.228
186.6139, 2118.729
187.0960, 2140.488
187.5781, 2168.377
188.0602, 2198.275
188.5423, 2223.789
189.0245, 2243.668
189.5066, 2261.192
189.9887, 2274.510
190.4708, 2286.405
190.9529, 2307.142
191.4350, 2347.634
191.9172, 2396.623
192.3993, 2436.897
192.8814, 2467.296
193.3635, 2489.222
193.8456, 2503.968
194.3277, 2511.603
194.8099, 2508.938
195.2920, 2488.771
195.7741, 2459.638
196.2562, 2436.999
196.7383, 2424.260
197.2204, 2407.779
197.7026, 2369.423
198.1847, 2318.946
198.6668, 2277.785
199.1489, 2256.773
199.6310, 2247.318
200.1131, 2235.803
200.5953, 2221.048
201.0774, 2207.899
201.5595, 2200.686
202.0416, 2197.585
202.5237, 2196.098
203.0058, 2195.408
203.4880, 2195.934
203.9701, 2198.341
204.4522, 2202.733
204.9343, 2208.433
205.4164, 2211.583
205.8985, 2215.930
206.3807, 2229.722
206.8628, 2260.608
207.3449, 2298.938
207.8270, 2331.363
208.3091, 2356.542
208.7912, 2384.439
209.2734, 2426.178
209.7555, 2474.236
210.2376, 2514.096
210.7197, 2537.262
211.2018, 2555.550
211.6839, 2581.032
212.1661, 2613.801
212.6482, 2652.994
213.1303, 2707.449
213.6124, 2765.354
214.0945, 2804.897
214.5766, 2815.663
215.0588, 2814.639
215.5409, 2821.223
216.0230, 2835.823
216.5051, 2837.235
216.9872, 2807.442
217.4693, 2759.896
217.9515, 2719.448
218.4336, 2692.630
218.9157, 2667.534
219.3978, 2634.916
219.8799, 2594.992
220.3620, 2551.008
220.8442, 2501.520
221.3263, 2450.026
221.8084, 2401.671
222.2905, 2354.237
222.7726, 2314.382
223.2547, 2290.850
223.7369, 2281.145
224.2190, 2267.950
224.7011, 2243.555
225.1832, 2212.618
225.6653, 2181.713
226.1474, 2146.901
226.6296, 2122.045
227.1117, 2121.104
227.5938, 2138.241
228.0759, 2152.303
228.5580, 2156.272
229.0401, 2153.802
229.5223, 2149.777
230.0044, 2142.709
230.4865, 2139.711
230.9686, 2146.784
231.4507, 2160.257
231.9328, 2170.415
232.4150, 2172.856
232.8971, 2174.637
233.3792, 2187.917
233.8613, 2213.508
234.3434, 2237.542
234.8255, 2250.586
235.3077, 2260.248
235.7898, 2280.917
236.2719, 2317.250
236.7540, 2358.920
237.2361, 2395.188
237.7182, 2426.479
238.2004, 2451.025
238.6825, 2458.786
239.1646, 2463.699
239.6467, 2483.833
240.1288, 2522.651
240.6109, 2568.798
241.0931, 2612.977
241.5752, 2655.180
242.0573, 2691.774
242.5394, 2719.283
243.0215, 2743.286
243.5036, 2769.462
243.9858, 2798.116
244.4679, 2824.771
244.9500, 2845.514
245.4321, 2859.829
245.9142, 2872.687
246.3963, 2884.374
246.8785, 2894.355
247.3606, 2902.286
247.8427, 2908.127
248.3248, 2913.329
248.8069, 2921.327
249.2890, 2930.143
249.7712, 2916.660
250.2533, 2860.365
250.7354, 2805.810
251.2175, 2775.447
251.6996, 2762.395
252.1817, 2746.988
252.6639, 2717.210
253.1460, 2676.966
253.6281, 2646.765
254.1102, 2641.635
254.5923, 2627.906
255.0744, 2588.312
255.5566, 2537.159
256.0387, 2498.727
256.5208, 2484.771
257.0029, 2485.510
257.4850, 2474.745
257.9671, 2434.623
258.4492, 2404.465
258.9314, 2391.036
259.4135, 2386.165
259.8956, 2383.826
260.3777, 2381.586
260.8598, 2375.846
261.3419, 2359.587
261.8241, 2323.994
262.3062, 2293.005
262.7883, 2265.417
263.2704, 2242.880
263.7525, 2227.257
264.2346, 2218.542
264.7168, 2214.121
265.1989, 2211.312
265.6810, 2211.184
266.1631, 2208.968
266.6452, 2204.644
267.1273, 2198.585
267.6095, 2187.860
268.0916, 2174.664
268.5737, 2166.200
269.0558, 2171.043
269.5379, 2190.568
270.0201, 2198.616
270.5022, 2180.676
270.9843, 2164.384
271.4664, 2156.896
271.9485, 2156.893
272.4306, 2160.646
272.9128, 2166.168
273.3949, 2173.196
273.8770, 2180.030
274.3591, 2184.976
274.8412, 2192.442
275.3233, 2204.655
275.8055, 2219.418
276.2876, 2233.380
276.7697, 2244.533
277.2518, 2255.797
277.7339, 2273.364
278.2160, 2297.991
278.6982, 2327.013
279.1803, 2364.060
279.6624, 2402.614
280.1445, 2435.985
280.6266, 2461.728
281.1087, 2488.094
281.5909, 2526.358
282.0730, 2577.662
282.5551, 2626.250
283.0372, 2659.888
283.5193, 2697.876
284.0014, 2760.170
284.4836, 2847.671
284.9657, 2932.347
285.4478, 2989.441
285.9299, 3025.133
286.4120, 3067.742
286.8941, 3123.059
287.3763, 3183.237
287.8584, 3242.261
288.3405, 3300.256
288.8226, 3356.882
289.3047, 3411.690
289.7868, 3465.023
290.2690, 3522.234
290.7511, 3586.848
291.2332, 3636.911
291.7153, 3654.395
292.1974, 3642.288
292.6795, 3611.421
293.1617, 3551.425
293.6438, 3481.642
294.1259, 3418.684
294.6080, 3361.857
295.0901, 3300.967
295.5722, 3229.323
296.0544, 3149.803
296.5365, 3071.876
297.0186, 2996.128
297.5007, 2921.298
297.9828, 2843.874
298.4649, 2766.885
298.9471, 2696.895
299.4292, 2636.142
299.9113, 2582.242
300.3934, 2529.584
300.8755, 2473.298
301.3576, 2427.005
301.8398, 2400.641
302.3219, 2380.878
302.8040, 2353.306
303.2861, 2315.048
303.7682, 2273.646
304.2503, 2237.069
304.7325, 2203.144
305.2146, 2184.370
305.6967, 2196.555
306.1788, 2208.261
306.6609, 2198.609
307.1430, 2170.990
307.6252, 2143.614
308.1073, 2132.025
308.5894, 2135.907
309.0715, 2135.746
309.5536, 2125.834
310.0357, 2117.749
310.5179, 2112.630
311.0000, 2111.289
311.4821, 2114.936
311.9642, 2124.438
312.4463, 2138.339
312.9284, 2153.467
313.4106, 2174.455
313.8927, 2187.185
314.3748, 2180.657
314.8569, 2170.992
315.3390, 2172.014
315.8211, 2187.469
316.3033, 2210.734
316.7854, 2234.287
317.2675, 2257.843
317.7496, 2284.036
318.2317, 2314.763
318.7138, 2347.010
319.1960, 2378.604
319.6781, 2409.667
320.1602, 2441.457
320.6423, 2473.699
321.1244, 2507.216
321.6065, 2544.507
322.0887, 2585.230
322.5708, 2630.614
323.0529, 2684.796
323.5350, 2744.339
324.0171, 2801.544
324.4992, 2856.261
324.9814, 2906.231
325.4635, 2950.054
325.9456, 2987.954
326.4277, 3016.582
326.9098, 3035.229
327.3919, 3041.909
327.8741, 3035.271
328.3562, 3013.552
328.8383, 2982.387
329.3204, 2944.220
329.8025, 2898.470
330.2846, 2842.449
330.7668, 2774.938
331.2489, 2700.614
331.7310, 2626.319
332.2131, 2549.550
332.6952, 2481.009
333.1773, 2423.259
333.6595, 2373.006
334.1416, 2330.050
334.6237, 2293.245
335.1058, 2258.602
335.5879, 2221.615
336.0700, 2181.169
336.5522, 2151.371
337.0343, 2139.372
337.5164, 2129.064
337.9985, 2116.739
338.4806, 2101.836
338.9627, 2082.582
339.4449, 2057.172
339.9270, 2030.049
340.4091, 2017.592
340.8912, 2033.251
341.3733, 2041.716
341.8554, 2033.887
342.3376, 2020.260
342.8197, 2010.088
343.3018, 2005.733
343.7839, 2002.659
344.2660, 1995.681
344.7481, 1984.610
345.2303, 1970.633
345.7124, 1946.871
346.1945, 1927.423
346.6766, 1921.294
347.1587, 1926.726
347.6408, 1934.896
348.1230, 1942.888
348.6051, 1949.580
349.0872, 1951.554
349.5693, 1947.934
350.0514, 1942.499
350.5335, 1936.397
351.0157, 1930.177
351.4978, 1925.098
351.9799, 1923.310
352.4620, 1920.152
352.9441, 1906.891
353.4262, 1887.155
353.9084, 1880.605
354.3905, 1898.803
354.8726, 1927.312
355.3547, 1935.882
355.8368, 1919.313
356.3189, 1907.058
356.8011, 1912.792
357.2832, 1922.605
357.7653, 1917.735
358.2474, 1895.996
358.7295, 1874.038
359.2116, 1869.904
359.6938, 1887.303
360.1759, 1891.350
360.6580, 1868.354
361.1401, 1847.991
361.6222, 1846.356
362.1043, 1856.795
362.5865, 1863.931
363.0686, 1858.795
363.5507, 1845.239
364.0328, 1836.397
364.5149, 1832.292
364.9970, 1833.463
365.4792, 1846.548
365.9613, 1860.246
366.4434, 1863.005
366.9255, 1853.148
367.4076, 1841.155
367.8897, 1840.019
368.3719, 1850.669
368.8540, 1857.215
369.3361, 1854.166
369.8182, 1852.274
370.3003, 1860.516
370.7824, 1874.820
371.2646, 1883.656
371.7467, 1877.202
372.2288, 1864.019
372.7109, 1860.163
373.1930, 1866.755
373.6751, 1872.614
374.1573, 1869.247
374.6394, 1863.301
375.1215, 1868.260
375.6036, 1891.369
376.0857, 1910.774
376.5678, 1912.992
377.0500, 1903.324
377.5321, 1891.195
378.0142, 1878.217
378.4963, 1868.979
378.9784, 1870.641
379.4605, 1887.458
379.9427, 1898.071
380.4248, 1898.513
380.9069, 1895.808
381.3890, 1892.984
381.8711, 1890.943
382.3532, 1890.864
382.8354, 1893.700
383.3175, 1899.038
383.7996, 1904.274
384.2817, 1910.336
384.7638, 1915.136
385.2459, 1919.355
385.7281, 1921.788
386.2102, 1919.752
386.6923, 1912.902
387.1744, 1906.122
387.6565, 1905.830
388.1386, 1912.560
388.6208, 1922.759
389.1029, 1942.608
389.5850, 1959.278
390.0671, 1962.720
390.5492, 1957.005
391.0313, 1954.951
391.5135, 1964.992
391.9956, 1982.300
392.4777, 1999.491
392.9598, 2017.473
393.4419, 2028.771
393.9240, 2026.322
394.4062, 2016.390
394.8883, 2010.367
395.3704, 2009.251
395.8525, 2010.627
396.3346, 2013.196
396.8167, 2017.409
397.2989, 2023.710
397.7810, 2032.085
398.2631, 2044.150
398.7452, 2063.310
399.2273, 2092.188
399.7094, 2111.922
400.1916, 2115.910
400.6737, 2117.097
401.1558, 2119.823
401.6379, 2125.561
402.1200, 2136.864
402.6021, 2155.787
403.0843, 2179.613
403.5664, 2198.586
404.0485, 2209.005
404.5306, 2220.565
405.0127, 2232.654
405.4948, 2247.186
405.9770, 2265.610
406.4591, 2288.164
406.9412, 2314.132
407.4233, 2342.472
407.9054, 2373.477
408.3875, 2408.974
408.8697, 2450.666
409.3518, 2494.342
409.8339, 2537.602
410.3160, 2581.266
410.7981, 2626.067
411.2802, 2671.403
411.7624, 2719.335
412.2445, 2772.014
412.7266, 2828.976
413.2087, 2889.058
413.6908, 2950.632
414.1729, 3016.521
414.6551, 3095.017
415.1372, 3188.286
415.6193, 3276.943
416.1014, 3351.618
416.5835, 3423.129
417.0656, 3500.711
417.5478, 3584.960
418.0299, 3672.353
418.5120, 3762.050
418.9941, 3853.020
419.4762, 3937.418
419.9583, 4010.107
420.4405, 4082.126
420.9226, 4162.650
421.4047, 4240.001
421.8868, 4298.828
422.3689, 4335.483
422.8510, 4363.874
423.3332, 4404.108
423.8153, 4459.443
424.2974, 4502.169
424.7795, 4522.367
425.2616, 4538.981
425.7437, 4565.195
426.2259, 4595.634
426.7080, 4616.792
427.1901, 4621.747
427.6722, 4615.262
428.1543, 4605.752
428.6364, 4593.008
429.1186, 4565.707
429.6007, 4518.228
430.0828, 4454.532
430.5649, 4379.858
431.0470, 4292.564
431.5291, 4204.372
432.0113, 4127.485
432.4934, 4046.357
432.9755, 3939.383
433.4576, 3807.165
433.9397, 3671.660
434.4218, 3548.663
434.9040, 3438.031
435.3861, 3336.870
435.8682, 3250.704
436.3503, 3166.932
436.8324, 3081.221
437.3145, 2997.722
437.7967, 2921.952
438.2788, 2855.075
438.7609, 2794.477
439.2430, 2735.532
439.7251, 2678.014
440.2072, 2626.560
440.6894, 2579.909
441.1715, 2541.628
441.6536, 2516.688
442.1357, 2500.455
442.6178, 2482.170
443.0999, 2458.317
443.5821, 2429.807
444.0642, 2393.122
444.5463, 2349.773
445.0284, 2316.908
445.5105, 2301.903
445.9926, 2298.311
446.4748, 2298.482
446.9569, 2304.694
447.4390, 2303.331
447.9211, 2285.474
448.4032, 2263.996
448.8853, 2247.561
449.3675, 2237.563
449.8496, 2235.047
450.3317, 2242.226
450.8138, 2255.828
451.2959, 2257.872
451.7780, 2237.017
452.2602, 2220.411
452.7423, 2211.195
453.2244, 2207.104
453.7065, 2176.541
454.1886, 2207.920
454.6707, 2222.079
455.1529, 2219.940
455.6350, 2152.699
456.1171, 2169.527
456.5992, 2152.663
457.0813, 2134.418
457.5634, 2163.078
458.0455, 2105.306
458.5276, 2133.222
459.0098, 2126.931
459.4919, 2136.296
459.9740, 2111.763
460.4561, 2097.700
460.9382, 2117.547
461.4203, 2118.617
461.9025, 2090.180
462.3846, 2059.224
462.8667, 2020.707
463.3488, 1999.177
463.8309, 2012.339
464.3130, 2022.931
464.7952, 2010.563
465.2773, 1984.611
465.7594, 1964.479
466.2415, 1959.209
466.7236, 1959.701
467.2057, 1946.999
467.6879, 1915.424
468.1700, 1890.718
468.6521, 1878.288
469.1342, 1871.027
469.6163, 1865.434
470.0984, 1861.868
470.5806, 1862.425
471.0627, 1871.561
471.5448, 1883.001
472.0269, 1888.325
472.5090, 1887.529
472.9911, 1878.843
473.4733, 1857.060
473.9554, 1831.948
474.4375, 1824.348
474.9196, 1839.586
475.4017, 1846.137
475.8839, 1827.646
476.3660, 1805.996
476.8481, 1803.187
477.3302, 1816.554
477.8123, 1826.797
478.2944, 1820.069
478.7766, 1800.946
479.2587, 1790.911
479.7408, 1797.254
480.2229, 1800.715
480.7050, 1796.850
481.1871, 1791.156
481.6693, 1789.726
482.1514, 1792.141
482.6335, 1790.662
483.1156, 1773.063
483.5977, 1746.573
484.0798, 1738.283
484.5620, 1752.451
485.0441, 1765.851
485.5262, 1765.682
486.0083, 1757.222
486.4904, 1752.276
486.9725, 1751.602
487.4547, 1752.911
487.9368, 1757.179
488.4189, 1762.061
488.9010, 1765.521
489.3831, 1766.848
489.8652, 1763.587
490.3474, 1752.397
490.8295, 1734.222
491.3116, 1723.723
491.7937, 1723.603
492.2758, 1728.730
492.7579, 1746.158
493.2401, 1764.150
493.7222, 1770.430
494.2043, 1762.666
494.6864, 1749.796
495.1685, 1738.763
495.6506, 1729.776
496.1328, 1725.163
496.6149, 1727.305
497.0970, 1727.337
497.5791, 1716.328
498.0612, 1700.487
498.5433, 1692.698
499.0255, 1697.209
499.5076, 1703.898
499.9897, 1708.939
500.4718, 1712.654
500.9539, 1716.287
501.4360, 1719.862
501.9182, 1720.293
502.4003, 1713.518
502.8824, 1699.417
503.3645, 1692.593
503.8466, 1702.342
504.3287, 1708.671
504.8109, 1703.875
505.2930, 1695.933
505.7751, 1695.282
506.2572, 1704.102
506.7393, 1712.899
507.2214, 1709.257
507.7036, 1695.300
508.1857, 1688.345
508.6678, 1690.670
509.1499, 1696.290
509.6320, 1706.190
510.1141, 1715.875
510.5963, 1713.969
511.0784, 1687.853
511.5605, 1670.560
512.0426, 1688.321
512.5247, 1720.067
513.0068, 1732.155
513.4890, 1719.287
513.9711, 1702.019
514.4532, 1700.111
514.9353, 1713.322
515.4174, 1721.137
515.8995, 1721.305
516.3817, 1718.387
516.8638, 1710.717
517.3459, 1701.659
517.8280, 1693.654
518.3101, 1687.491
518.7922, 1685.000
519.2744, 1690.590
519.7565, 1701.700
520.2386, 1707.308
520.7207, 1706.270
521.2028, 1702.273
521.6849, 1696.010
522.1671, 1688.677
522.6492, 1683.258
523.1313, 1679.298
523.6134, 1678.143
524.0955, 1682.677
524.5776, 1688.885
525.0598, 1691.921
525.5419, 1691.484
526.0240, 1690.913
526.5061, 1693.166
526.9882, 1697.606
527.4703, 1699.440
527.9525, 1698.087
528.4346, 1695.020
528.9167, 1684.389
529.3988, 1676.532
529.8809, 1684.152
530.3630, 1706.810
530.8452, 1725.404
531.3273, 1723.447
531.8094, 1709.748
532.2915, 1700.616
532.7736, 1696.516
533.2557, 1695.835
533.7379, 1699.182
534.2200, 1703.970
534.7021, 1703.150
535.1842, 1690.655
535.6663, 1687.300
536.1484, 1700.348
536.6306, 1719.153
537.1127, 1740.464
537.5948, 1760.745
538.0769, 1771.816
538.5590, 1767.444
539.0411, 1754.739
539.5233, 1751.947
540.0054, 1760.895
540.4875, 1740.888
540.9696, 1796.277
541.4517, 1834.445
541.9338, 1856.315
542.4160, 1813.088
542.8981, 1853.922
543.3802, 1861.068
543.8623, 1866.833
544.3444, 1919.501
544.8265, 1885.737
545.3087, 1937.666
545.7908, 1955.385
546.2729, 1988.760
546.7550, 1988.236
547.2371, 1998.183
547.7192, 2042.037
548.2014, 2067.121
548.6835, 2056.811
549.1656, 2102.725
549.6477, 2156.693
550.1298, 2203.548
550.6119, 2237.837
551.0941, 2265.225
551.5762, 2288.374
552.0583, 2308.926
552.5404, 2340.216
553.0225, 2387.294
553.5046, 2432.323
553.9868, 2462.685
554.4689, 2480.158
554.9510, 2495.395
555.4331, 2510.985
555.9152, 2520.599
556.3973, 2530.290
556.8795, 2528.490
557.3616, 2495.281
557.8437, 2432.735
558.3258, 2366.802
558.8079, 2318.976
559.2900, 2286.231
559.7722, 2248.995
560.2543, 2204.664
560.7364, 2161.618
561.2185, 2123.175
561.7006, 2085.841
562.1827, 2046.512
562.6649, 2005.122
563.1470, 1966.001
563.6291, 1931.537
564.1112, 1899.703
564.5933, 1865.977
565.0754, 1831.795
565.5576, 1804.974
566.0397, 1788.978
566.5218, 1781.451
567.0039, 1779.656
567.4860, 1789.244
567.9681, 1787.792
568.4503, 1759.806
568.9324, 1738.348
569.4145, 1744.132
569.8966, 1764.335
570.3787, 1777.426
570.8608, 1775.240
571.3430, 1763.434
571.8251, 1742.295
572.3072, 1715.329
572.7893, 1703.996
573.2714, 1712.779
573.7535, 1730.543
574.2357, 1754.812
574.7178, 1781.551
575.1999, 1790.995
575.6820, 1763.582
576.1641, 1745.692
576.6462, 1756.867
577.1284, 1776.459
577.6105, 1785.595
578.0926, 1755.875
578.5747, 1795.138
579.0568, 1817.180
579.5389, 1822.927
580.0211, 1763.570
580.5032, 1788.281
580.9853, 1779.301
581.4674, 1768.940
581.9495, 1805.483
582.4316, 1755.596
582.9138, 1791.395
583.3959, 1792.990
583.8780, 1810.239
584.3601, 1793.589
584.8422, 1787.410
585.3243, 1815.141
585.8065, 1792.909
586.2886, 1818.272
586.7707, 1849.239
587.2528, 1876.015
587.7349, 1898.550
588.2170, 1917.818
588.6992, 1927.022
589.1813, 1942.475
589.6634, 1970.618
590.1455, 2006.517
590.6276, 2046.522
591.1097, 2090.421
591.5919, 2129.841
592.0740, 2151.687
592.5561, 2168.650
593.0382, 2206.529
593.5203, 2264.109
594.0024, 2313.954
594.4846, 2340.247
594.9667, 2351.085
595.4488, 2366.971
595.9309, 2391.971
596.4130, 2413.946
596.8951, 2438.909
597.3773, 2455.436
597.8594, 2452.772
598.3415, 2437.886
598.8236, 2425.966
599.3057, 2424.595
599.7878, 2423.635
600.2700, 2411.570
600.7521, 2389.805
601.2342, 2363.361
601.7163, 2332.579
602.1984, 2301.325
602.6805, 2275.158
603.1627, 2251.578
603.6448, 2212.396
604.1269, 2137.249
604.6090, 2075.422
605.0911, 2041.107
605.5732, 2016.567
606.0554, 1990.245
606.5375, 1959.627
607.0196, 1924.009
607.5017, 1880.302
607.9838, 1835.195
608.4659, 1801.712
608.9481, 1779.985
609.4302, 1766.196
609.9123, 1762.044
610.3944, 1760.145
610.8765, 1752.526
611.3586, 1739.263
611.8408, 1728.665
612.3229, 1726.966
612.8050, 1720.860
613.2871, 1697.810
613.7692, 1671.612
614.2513, 1662.677
614.7335, 1672.461
615.2156, 1681.091
615.6977, 1666.894
616.1798, 1637.700
616.6619, 1631.004
617.1440, 1652.590
617.6262, 1665.856
618.1083, 1654.516
618.5904, 1633.724
619.0725, 1621.725
619.5546, 1618.313
620.0367, 1617.825
620.5189, 1622.822
621.0010, 1626.972
621.4831, 1624.085
621.9652, 1618.548
622.4473, 1620.032
622.9294, 1630.737
623.4116, 1640.311
623.8937, 1633.783
624.3758, 1612.863
624.8579, 1606.274
625.3400, 1620.902
625.8221, 1630.634
626.3043, 1620.968
626.7864, 1603.478
627.2685, 1593.954
627.7506, 1593.265
628.2327, 1594.776
628.7148, 1599.603
629.1970, 1603.466
629.6791, 1601.482
630.1612, 1596.182
630.6433, 1594.517
631.1254, 1599.061
631.6075, 1603.842
632.0897, 1598.994
632.5718, 1583.779
633.0539, 1574.919
633.5360, 1575.389
634.0181, 1575.860
634.5002, 1569.268
634.9824, 1561.621
635.4645, 1563.176
635.9466, 1577.420
636.4287, 1585.755
636.9108, 1577.634
637.3929, 1564.767
637.8751, 1553.313
638.3572, 1545.885
638.8393, 1549.065
639.3214, 1565.789
639.8035, 1585.719
640.2856, 1590.299
640.7678, 1577.413
641.2499, 1575.191
641.7320, 1591.876
642.2141, 1604.090
642.6962, 1596.394
643.1783, 1578.539
643.6605, 1564.110
644.1426, 1553.907
644.6247, 1547.391
645.1068, 1545.195
645.5889, 1545.966
646.0710, 1550.977
646.5532, 1557.891
647.0353, 1561.166
647.5174, 1558.238
647.9995, 1550.828
648.4816, 1539.969
648.9637, 1525.051
649.4459, 1516.515
649.9280, 1516.716
650.4101, 1519.131
650.8922, 1521.607
651.3743, 1523.674
651.8564, 1524.669
652.3386, 1524.639
652.8207, 1523.182
653.3028, 1515.984
653.7849, 1510.707
654.2670, 1519.023
654.7491, 1534.380
655.2313, 1537.571
655.7134, 1519.630
656.1955, 1496.417
656.6776, 1493.819
657.1597, 1511.937
657.6418, 1525.503
658.1240, 1533.844
658.6061, 1536.934
659.0882, 1532.675
659.5703, 1523.989
660.0524, 1516.936
660.5345, 1512.153
661.0167, 1506.721
661.4988, 1497.019
661.9809, 1489.216
662.4630, 1489.093
662.9451, 1493.981
663.4272, 1498.951
663.9094, 1501.938
664.3915, 1500.809
664.8736, 1488.268
665.3557, 1466.691
665.8378, 1461.838
666.3199, 1478.715
666.8021, 1493.387
667.2842, 1493.884
667.7663, 1485.447
668.2484, 1476.793
668.7305, 1465.004
669.2126, 1462.878
669.6948, 1484.209
670.1769, 1502.471
670.6590, 1499.763
671.1411, 1485.453
671.6232, 1475.912
672.1053, 1476.333
672.5875, 1479.495
673.0696, 1476.929
673.5517, 1471.175
674.0338, 1472.146
674.5159, 1480.410
674.9980, 1485.936
675.4802, 1483.733
675.9623, 1478.027
676.4444, 1475.602
676.9265, 1477.224
677.4086, 1479.208
677.8907, 1483.080
678.3729, 1485.532
678.8550, 1484.120
679.3371, 1481.339
679.8192, 1480.554
680.3013, 1482.301
680.7834, 1483.724
681.2656, 1483.936
681.7477, 1481.878
682.2298, 1472.961
682.7119, 1459.086
683.1940, 1452.813
683.6761, 1459.501
684.1583, 1467.636
684.6404, 1461.410
685.1225, 1439.410
685.6046, 1428.685
686.0867, 1434.730
686.5688, 1444.818
687.0510, 1462.786
687.5331, 1478.747
688.0152, 1481.318
688.4973, 1471.472
688.9794, 1464.962
689.4615, 1474.281
689.9437, 1484.882
690.4258, 1481.072
690.9079, 1469.578
691.3900, 1465.699
691.8721, 1472.554
692.3542, 1481.156
692.8364, 1483.341
693.3185, 1480.183
693.8006, 1477.805
694.2827, 1476.873
694.7648, 1474.524
695.2469, 1470.229
695.7291, 1464.224
696.2112, 1453.761
696.6933, 1441.110
697.1754, 1436.295
697.6575, 1448.333
698.1396, 1458.826
698.6218, 1462.450
699.1039, 1459.786
699.5860, 1446.238
700.0681, 1426.071
700.5502, 1414.882
701.0323, 1424.054
701.5145, 1441.738
701.9966, 1444.928
702.4787, 1434.407
702.9608, 1427.508
703.4429, 1426.916
703.9250, 1428.190
704.4072, 1427.480
704.8893, 1426.735
705.3714, 1433.298
705.8535, 1458.775
706.3356, 1470.333
706.8177, 1454.963
707.2999, 1436.927
707.7820, 1428.891
708.2641, 1428.534
708.7462, 1429.622
709.2283, 1429.992
709.7104, 1431.956
710.1926, 1440.820
710.6747, 1451.526
711.1568, 1452.007
711.6389, 1443.046
712.1210, 1436.892
712.6031, 1439.470
713.0853, 1445.057
713.5674, 1443.358
714.0495, 1431.834
714.5316, 1430.342
715.0137, 1445.014
715.4958, 1460.535
715.9780, 1475.172
716.4601, 1486.284
716.9422, 1490.543
717.4243, 1487.782
717.9064, 1481.955
718.3885, 1471.512
718.8707, 1461.362
719.3528, 1456.330
719.8349, 1453.479
720.3170, 1446.383
720.7991, 1434.520
721.2813, 1424.828
721.7634, 1423.262
722.2455, 1428.676
722.7276, 1440.022
723.2097, 1458.311
723.6918, 1468.006
724.1740, 1463.866
724.6561, 1454.576
725.1382, 1446.103
725.6203, 1438.734
726.1024, 1435.475
726.5845, 1439.066
727.0667, 1442.478
727.5488, 1448.314
728.0309, 1450.809
728.5130, 1443.362
728.9951, 1429.379
729.4772, 1416.750
729.9594, 1407.639
730.4415, 1405.120
730.9236, 1417.207
731.4057, 1436.341
731.8878, 1446.735
732.3699, 1447.910
732.8521, 1448.453
733.3342, 1452.934
733.8163, 1458.308
734.2984, 1458.221
734.7805, 1450.894
735.2626, 1449.335
735.7448, 1457.877
736.2269, 1464.592
736.7090, 1463.759
737.1911, 1459.158
737.6732, 1453.196
738.1553, 1445.481
738.6375, 1445.010
739.1196, 1463.643
739.6017, 1479.500
740.0838, 1479.737
740.5659, 1470.093
741.0480, 1455.896
741.5302, 1440.068
742.0123, 1429.131
742.4944, 1430.823
742.9765, 1437.409
743.4586, 1431.342
743.9407, 1414.433
744.4229, 1401.647
744.9050, 1395.828
745.3871, 1397.509
745.8692, 1408.317
746.3513, 1426.460
746.8334, 1443.462
747.3156, 1463.345
747.7977, 1474.538
748.2798, 1470.854
748.7619, 1464.276
749.2440, 1460.537
749.7261, 1458.001
750.2083, 1452.089
750.6904, 1440.066
751.1725, 1432.228
751.6546, 1437.759
752.1367, 1446.512
752.6188, 1450.497
753.1010, 1449.101
753.5831, 1441.471
754.0652, 1427.675
754.5473, 1413.329
755.0294, 1404.215
755.5115, 1400.156
755.9937, 1401.758
756.4758, 1409.546
756.9579, 1415.922
757.4400, 1418.667
757.9221, 1418.635
758.4042, 1416.128
758.8864, 1411.167
759.3685, 1408.071
759.8506, 1407.156
760.3327, 1407.779
760.8148, 1415.023
761.2969, 1419.369
761.7791, 1411.179
762.2612, 1394.132
762.7433, 1379.796
763.2254, 1371.178
763.7075, 1368.436
764.1896, 1378.777
764.6718, 1390.777
765.1539, 1387.894
765.6360, 1371.909
766.1181, 1353.209
766.6002, 1336.625
767.0823, 1325.932
767.5645, 1329.043
768.0466, 1344.740
768.5287, 1358.777
769.0108, 1371.375
769.4929, 1378.612
769.9750, 1377.516
770.4572, 1372.814
770.9393, 1370.779
771.4214, 1371.780
771.9035, 1372.043
772.3856, 1369.310
772.8677, 1368.847
773.3499, 1371.713
773.8320, 1377.178
774.3141, 1388.811
774.7962, 1403.206
775.2783, 1406.840
775.7604, 1386.308
776.2426, 1367.778
776.7247, 1373.955
777.2068, 1390.095
777.6889, 1396.244
778.1710, 1392.328
778.6531, 1388.044
779.1353, 1388.279
779.6174, 1393.234
780.0995, 1407.267
780.5816, 1428.202
781.0637, 1434.716
781.5458, 1424.575
782.0280, 1411.558
782.5101, 1399.951
782.9922, 1391.714
783.4743, 1390.196
783.9564, 1396.076
784.4385, 1402.547
784.9207, 1413.054
785.4028, 1419.320
785.8849, 1417.229
786.3670, 1412.437
786.8491, 1410.808
787.3312, 1411.053
787.8134, 1405.503
788.2955, 1383.616
788.7776, 1368.373
789.2597, 1380.714
789.7418, 1400.019
790.2239, 1402.202
790.7061, 1389.683
791.1882, 1377.796
791.6703, 1373.757
792.1524, 1375.189
792.6345, 1381.931
793.1166, 1391.625
793.5988, 1395.343
794.0809, 1392.867
794.5630, 1387.386
795.0451, 1379.438
795.5272, 1372.769
796.0093, 1373.551
796.4915, 1381.854
796.9736, 1378.853
797.4557, 1355.044
797.9378, 1339.495
798.4199, 1343.421
798.9020, 1352.585
799.3842, 1357.928
799.8663, 1359.427
800.3484, 1356.503
800.8305, 1343.769
801.3126, 1335.613
801.7947, 1338.033
802.2769, 1344.602
802.7590, 1350.706
803.2411, 1357.045
803.7232, 1368.150
804.2053, 1385.602
804.6874, 1398.011
805.1696, 1390.119
805.6517, 1374.113
806.1338, 1368.963
806.6159, 1373.106
807.0980, 1380.300
807.5801, 1388.401
808.0623, 1392.841
808.5444, 1387.857
809.0265, 1376.984
809.5086, 1376.412
809.9907, 1387.799
810.4728, 1396.776
810.9550, 1401.788
811.4371, 1401.424
811.9192, 1391.286
812.4013, 1376.514
812.8834, 1373.449
813.3655, 1388.935
813.8477, 1401.923
814.3298, 1414.236
814.8119, 1422.044
815.2940, 1421.540
815.7761, 1416.942
816.2582, 1413.892
816.7404, 1413.036
817.2225, 1409.868
817.7046, 1400.091
818.1867, 1390.090
818.6688, 1383.095
819.1509, 1379.085
819.6331, 1378.780
820.1152, 1381.535
820.5973, 1385.022
821.0794, 1388.186
821.5615, 1390.160
822.0436, 1387.786
822.5258, 1383.333
823.0079, 1384.840
823.4900, 1392.683
823.9721, 1403.120
824.4542, 1415.149
824.9363, 1423.566
825.4185, 1419.132
825.9006, 1401.645
826.3827, 1388.011
826.8648, 1377.000
827.3469, 1374.537
827.8290, 1387.522
828.3111, 1402.292
828.7932, 1405.525
829.2753, 1398.566
829.7574, 1393.283
830.2396, 1389.328
830.7217, 1387.565
831.2038, 1386.671
831.6859, 1389.382
832.1680, 1400.919
832.6501, 1415.956
833.1323, 1425.309
833.6144, 1426.687
834.0965, 1425.025
834.5786, 1420.748
835.0607, 1416.310
835.5428, 1412.735
836.0250, 1410.849
836.5071, 1410.953
836.9892, 1413.723
837.4713, 1423.104
837.9534, 1446.128
838.4355, 1468.438
838.9177, 1459.736
839.3998, 1430.503
839.8819, 1420.411
840.3640, 1433.188
840.8461, 1446.968
841.3282, 1449.797
841.8104, 1447.614
842.2925, 1451.761
842.7746, 1462.846
843.2567, 1463.183
843.7388, 1447.066
844.2209, 1442.093
844.7031, 1463.021
845.1852, 1488.468
845.6673, 1495.609
846.1494, 1485.922
846.6315, 1479.986
847.1136, 1478.288
847.5958, 1479.818
848.0779, 1489.177
848.5600, 1496.981
849.0421, 1494.294
849.5242, 1487.656
850.0063, 1491.623
850.4885, 1511.350
850.9706, 1522.276
851.4527, 1503.837
851.9348, 1486.499
852.4169, 1494.792
852.8990, 1513.631
853.3812, 1522.241
853.8633, 1517.842
854.3454, 1508.879
854.8275, 1498.256
855.3096, 1489.708
855.7917, 1489.747
856.2739, 1493.933
856.7560, 1491.564
857.2381, 1483.754
857.7202, 1482.418
858.2023, 1493.225
858.6844, 1506.002
859.1666, 1506.002
859.6487, 1495.646
860.1308, 1489.051
860.6129, 1486.255
861.0950, 1484.552
861.5771, 1483.353
862.0593, 1482.319
862.5414, 1481.327
863.0235, 1480.115
863.5056, 1477.521
863.9877, 1473.411
864.4698, 1468.198
864.9520, 1460.810
865.4341, 1454.288
865.9162, 1452.298
866.3983, 1450.743
866.8804, 1439.573
867.3625, 1415.432
867.8447, 1407.763
868.3268, 1437.241
868.8089, 1457.596
869.2910, 1448.728
869.7731, 1432.928
870.2552, 1429.471
870.7374, 1435.697
871.2195, 1437.476
871.7016, 1427.416
872.1837, 1422.066
872.6658, 1436.847
873.1479, 1452.447
873.6301, 1450.682
874.1122, 1438.416
874.5943, 1429.753
875.0764, 1428.056
875.5585, 1426.892
876.0406, 1421.438
876.5228, 1414.254
877.0049, 1404.762
877.4870, 1397.146
877.9691, 1405.674
878.4512, 1427.841
878.9333, 1438.859
879.4155, 1424.257
879.8976, 1402.300
880.3797, 1405.728
880.8618, 1426.965
881.3439, 1420.958
881.8260, 1388.080
882.3082, 1371.251
882.7903, 1385.110
883.2724, 1406.855
883.7545, 1414.671
884.2366, 1411.279
884.7188, 1408.888
885.2009, 1408.126
885.6830, 1404.751
886.1651, 1396.464
886.6472, 1390.352
887.1293, 1390.852
887.6115, 1394.805
888.0936, 1396.080
888.5757, 1393.085
889.0578, 1398.180
889.5399, 1424.754
890.0220, 1439.917
890.5042, 1433.590
890.9863, 1418.019
891.4684, 1393.805
891.9505, 1367.672
892.4326, 1361.286
892.9147, 1390.206
893.3969, 1407.072
893.8790, 1391.754
894.3611, 1372.675
894.8432, 1362.629
895.3253, 1359.694
895.8074, 1360.990
896.2896, 1365.765
896.7717, 1373.187
897.2538, 1387.682
897.7359, 1398.279
898.2180, 1397.085
898.7001, 1388.916
899.1823, 1372.140
899.6644, 1354.143
900.1465, 1354.845
900.6286, 1381.654
901.1107, 1407.184
901.5928, 1401.318
902.0750, 1384.223
902.5571, 1386.333
903.0392, 1400.533
903.5213, 1408.105
904.0034, 1405.932
904.4855, 1401.023
904.9677, 1397.395
905.4498, 1396.637
905.9319, 1403.542
906.4140, 1415.681
906.8961, 1422.108
907.3782, 1422.804
907.8604, 1425.138
908.3425, 1431.861
908.8246, 1438.132
909.3067, 1437.988
909.7888, 1434.004
910.2709, 1438.739
910.7531, 1453.194
911.2352, 1462.208
911.7173, 1462.980
912.1994, 1463.441
912.6815, 1469.667
913.1636, 1473.967
913.6458, 1459.295
914.1279, 1422.119
914.6100, 1416.372
915.0921, 1456.381
915.5742, 1492.750
916.0563, 1515.665
916.5385, 1530.429
917.0206, 1539.209
917.5027, 1543.307
917.9848, 1546.543
918.4669, 1545.164
918.9490, 1551.588
919.4312, 1573.107
919.9133, 1593.370
920.3954, 1608.109
920.8775, 1618.753
921.3596, 1624.101
921.8417, 1625.587
922.3239, 1633.412
922.8060, 1652.701
923.2881, 1672.985
923.7702, 1691.674
924.2523, 1711.269
924.7344, 1732.102
925.2166, 1755.275
925.6987, 1783.244
926.1808, 1816.174
926.6629, 1849.187
927.1450, 1882.382
927.6271, 1912.844
928.1093, 1929.114
928.5914, 1949.632
929.0735, 2000.337
929.5556, 2070.503
930.0377, 2127.775
930.5198, 2160.284
931.0020, 2192.387
931.4841, 2233.958
931.9662, 2288.542
932.4483, 2363.709
932.9304, 2452.444
933.4125, 2541.990
933.8947, 2632.615
934.3768, 2733.272
934.8589, 2847.066
935.3410, 2981.766
935.8231, 3149.520
936.3052, 3342.220
936.7874, 3534.875
937.2695, 3741.597
937.7516, 3998.405
938.2337, 4315.771
938.7158, 4684.871
939.1979, 5100.572
939.6801, 5570.524
940.1622, 6107.567
940.6443, 6711.500
941.1264, 7390.892
941.6085, 8143.049
942.0906, 8923.206
942.5728, 9716.444
943.0549, 10544.73
943.5370, 11450.05
944.0191, 12392.04
944.5012, 13260.86
944.9833, 14055.43
945.4655, 14783.36
945.9476, 15445.07
946.4297, 15905.65
946.9118, 16096.50
947.3939, 16006.30
947.8760, 15593.06
948.3582, 14876.17
948.8403, 14014.56
949.3224, 13001.20
949.8045, 11906.07
950.2866, 10725.64
950.7687, 9573.708
951.2509, 8511.411
951.7330, 7555.375
952.2151, 6751.993
952.6972, 6107.555
953.1793, 5533.077
953.6614, 5025.265
954.1436, 4593.929
954.6257, 4248.932
955.1078, 3957.018
955.5899, 3692.677
956.0720, 3457.380
956.5541, 3266.643
957.0363, 3132.074
957.5184, 3001.914
958.0005, 2871.716
958.4826, 2756.949
958.9647, 2666.390
959.4468, 2589.770
959.9290, 2518.945
960.4111, 2452.959
960.8932, 2385.429
961.3753, 2306.395
961.8574, 2248.213
962.3395, 2226.499
962.8217, 2203.676
963.3038, 2158.259
963.7859, 2107.987
964.2680, 2077.604
964.7501, 2066.962
965.2322, 2050.416
965.7144, 2022.304
966.1965, 1997.319
966.6786, 1977.280
967.1607, 1959.916
967.6428, 1944.850
968.1249, 1931.327
968.6071, 1919.212
969.0892, 1909.006
969.5713, 1893.884
970.0534, 1862.825
970.5355, 1842.032
971.0176, 1848.041
971.4998, 1853.330
971.9819, 1838.297
972.4640, 1811.563
972.9461, 1787.362
973.4282, 1765.281
973.9103, 1757.352
974.3925, 1782.071
974.8746, 1798.532
975.3567, 1790.110
975.8388, 1774.100
976.3209, 1756.568
976.8030, 1743.432
977.2852, 1748.769
977.7673, 1779.865
978.2494, 1801.050
978.7315, 1796.658
979.2136, 1790.988
979.6957, 1788.315
980.1779, 1792.568
980.6600, 1812.495
981.1421, 1841.475
981.6242, 1860.032
982.1063, 1861.160
982.5884, 1864.912
983.0706, 1876.956
983.5527, 1893.172
984.0348, 1912.795
984.5169, 1934.677
984.9990, 1959.917
985.4811, 1986.437
985.9633, 2007.128
986.4454, 2016.379
986.9275, 2032.196
987.4096, 2066.380
987.8917, 2102.596
988.3738, 2132.273
988.8560, 2158.513
989.3381, 2183.544
989.8202, 2209.054
990.3023, 2238.808
990.7844, 2272.172
991.2665, 2314.885
991.7487, 2375.670
992.2308, 2439.895
992.7129, 2491.048
993.1950, 2544.650
993.6771, 2624.302
994.1592, 2727.399
994.6414, 2829.119
995.1235, 2921.930
995.6056, 3010.373
996.0877, 3089.069
996.5698, 3172.488
997.0519, 3275.706
997.5341, 3386.781
998.0162, 3490.240
998.4983, 3583.672
998.9804, 3672.215
999.4625, 3760.583
999.9446, 3836.137
1000.427, 3890.790
1000.909, 3932.504
1001.391, 3970.196
1001.873, 3997.184
1002.355, 4002.486
1002.837, 3986.303
1003.319, 3958.655
1003.802, 3918.924
1004.284, 3877.664
1004.766, 3847.152
1005.248, 3809.981
1005.730, 3756.006
1006.212, 3685.269
1006.694, 3595.990
1007.176, 3490.282
1007.659, 3381.619
1008.141, 3275.174
1008.623, 3165.373
1009.105, 3048.866
1009.587, 2929.247
1010.069, 2803.924
1010.551, 2680.006
1011.033, 2567.612
1011.515, 2467.708
1011.998, 2374.903
1012.480, 2283.608
1012.962, 2206.182
1013.444, 2160.621
1013.926, 2118.371
1014.408, 2053.359
1014.890, 1981.422
1015.372, 1926.577
1015.854, 1890.236
1016.337, 1857.534
1016.819, 1827.126
1017.301, 1792.377
1017.783, 1748.148
1018.265, 1701.292
1018.747, 1647.952
1019.229, 1599.582
1019.711, 1574.340
1020.194, 1570.503
1020.676, 1564.952
1021.158, 1552.113
1021.640, 1534.509
1022.122, 1511.004
1022.604, 1485.163
1023.086, 1455.241
1023.568, 1426.867
1024.051, 1408.133
1024.533, 1398.126
1025.015, 1386.063
1025.497, 1361.954
1025.979, 1350.280
1026.461, 1369.854
1026.943, 1389.024
1027.425, 1386.455
1027.907, 1377.716
1028.390, 1387.998
1028.872, 1412.247
1029.354, 1413.734
1029.836, 1371.775
1030.318, 1336.636
1030.800, 1318.533
1031.282, 1307.930
1031.764, 1305.456
1032.246, 1304.767
1032.729, 1297.809
1033.211, 1286.446
1033.693, 1281.317
1034.175, 1286.341
1034.657, 1291.341
1035.139, 1299.008
1035.621, 1301.894
1036.103, 1298.265
1036.586, 1288.084
1037.068, 1262.310
1037.550, 1228.948
1038.032, 1222.277
1038.514, 1260.628
1038.996, 1283.561
1039.478, 1285.407
1039.960, 1279.041
1040.443, 1258.649
1040.925, 1240.538
1041.407, 1241.854
1041.889, 1254.892
1042.371, 1254.825
1042.853, 1235.156
1043.335, 1225.862
1043.817, 1233.619
1044.299, 1239.136
1044.781, 1237.687
1045.264, 1233.097
1045.746, 1226.868
1046.228, 1220.500
1046.710, 1218.682
1047.192, 1223.392
1047.674, 1216.931
1048.156, 1191.278
1048.638, 1179.132
1049.121, 1191.893
1049.603, 1207.214
1050.085, 1211.292
1050.567, 1208.146
1051.049, 1204.623
1051.531, 1200.703
1052.013, 1198.855
1052.495, 1200.434
1052.978, 1193.948
1053.460, 1174.369
1053.942, 1163.075
1054.424, 1173.219
1054.906, 1191.738
1055.388, 1199.855
1055.870, 1198.828
1056.352, 1197.386
1056.834, 1195.570
1057.317, 1188.659
1057.799, 1175.851
1058.281, 1165.665
1058.763, 1161.729
1059.245, 1164.880
1059.727, 1179.003
1060.209, 1196.665
1060.691, 1191.381
1061.173, 1167.504
1061.656, 1153.779
1062.138, 1151.552
1062.620, 1146.310
1063.102, 1133.387
1063.584, 1127.179
1064.066, 1142.869
1064.548, 1166.550
1065.030, 1171.904
1065.513, 1165.127
1065.995, 1162.417
1066.477, 1163.446
1066.959, 1162.510
1067.441, 1158.347
1067.923, 1153.519
1068.405, 1149.354
1068.887, 1146.962
1069.370, 1149.718
1069.852, 1153.626
1070.334, 1151.365
1070.816, 1145.844
1071.298, 1143.211
1071.780, 1144.367
1072.262, 1146.893
1072.744, 1149.347
1073.226, 1155.506
1073.708, 1175.417
1074.191, 1193.156
1074.673, 1193.296
1075.155, 1182.694
1075.637, 1164.735
1076.119, 1145.811
1076.601, 1140.246
1077.083, 1152.755
1077.565, 1167.267
1078.047, 1179.101
1078.530, 1186.845
1079.012, 1189.513
1079.494, 1188.005
1079.976, 1175.336
1080.458, 1162.198
1080.940, 1172.285
1081.422, 1208.562
1081.904, 1232.413
1082.387, 1227.575
1082.869, 1220.061
1083.351, 1210.764
1083.833, 1205.816
1084.315, 1206.171
1084.797, 1214.251
1085.279, 1239.034
1085.761, 1278.014
1086.244, 1299.514
1086.726, 1288.507
1087.208, 1287.337
1087.690, 1299.261
1088.172, 1315.788
1088.654, 1335.053
1089.136, 1357.020
1089.618, 1381.911
1090.100, 1409.323
1090.583, 1436.540
1091.065, 1460.578
1091.547, 1503.163
1092.029, 1567.728
1092.511, 1637.629
1092.993, 1711.158
1093.475, 1779.117
1093.957, 1833.500
1094.439, 1885.421
1094.922, 1956.770
1095.404, 2043.825
1095.886, 2124.412
1096.368, 2197.308
1096.850, 2244.982
1097.332, 2265.329
1097.814, 2273.998
1098.296, 2278.206
1098.779, 2264.032
1099.261, 2215.616
1099.743, 2140.061
1100.225, 2043.037
1100.707, 1933.695
1101.189, 1835.258
1101.671, 1749.467
1102.153, 1675.560
1102.635, 1612.088
1103.118, 1551.218
1103.600, 1485.864
1104.082, 1427.519
1104.564, 1390.899
1105.046, 1364.938
1105.528, 1337.738
1106.010, 1310.724
1106.492, 1286.805
1106.974, 1266.698
1107.457, 1251.502
1107.939, 1242.386
1108.421, 1232.892
1108.903, 1213.399
1109.385, 1200.310
1109.867, 1212.776
1110.349, 1226.872
1110.831, 1216.950
1111.314, 1192.932
1111.796, 1178.443
1112.278, 1176.871
1112.760, 1173.582
1113.242, 1162.392
1113.724, 1155.115
1114.206, 1155.129
1114.688, 1157.720
1115.171, 1164.737
1115.653, 1169.589
1116.135, 1162.878
1116.617, 1147.294
1117.099, 1138.307
1117.581, 1138.830
1118.063, 1136.356
1118.545, 1128.910
1119.027, 1125.926
1119.510, 1132.344
1119.992, 1134.424
1120.474, 1119.917
1120.956, 1100.036
1121.438, 1098.915
1121.920, 1114.008
1122.402, 1119.843
1122.884, 1116.961
1123.366, 1112.550
1123.849, 1107.843
1124.331, 1103.291
1124.813, 1099.086
1125.295, 1093.996
1125.777, 1083.423
1126.259, 1076.738
1126.741, 1100.396
1127.223, 1135.477
1127.706, 1143.330
1128.188, 1128.231
1128.670, 1103.727
1129.152, 1077.513
1129.634, 1067.920
1130.116, 1089.583
1130.598, 1110.868
1131.080, 1106.394
1131.563, 1094.145
1132.045, 1084.011
1132.527, 1078.100
1133.009, 1080.991
1133.491, 1088.957
1133.973, 1091.169
1134.455, 1084.597
1134.937, 1081.612
1135.419, 1089.441
1135.901, 1094.928
1136.384, 1097.651
1136.866, 1093.901
1137.348, 1072.152
1137.830, 1049.841
1138.312, 1052.173
1138.794, 1074.806
1139.276, 1082.202
1139.758, 1067.981
1140.241, 1059.520
1140.723, 1058.265
1141.205, 1059.854
1141.687, 1063.234
1142.169, 1068.692
1142.651, 1076.875
1143.133, 1085.926
1143.615, 1093.610
1144.098, 1098.937
1144.580, 1092.543
1145.062, 1076.992
1145.544, 1070.527
1146.026, 1074.150
1146.508, 1074.703
1146.990, 1067.398
1147.472, 1063.836
1147.954, 1078.067
1148.437, 1092.874
1148.919, 1078.969
1149.401, 1057.764
1149.883, 1063.967
1150.365, 1083.921
1150.847, 1088.027
1151.329, 1075.044
1151.811, 1063.711
1152.293, 1061.181
1152.776, 1059.331
1153.258, 1053.719
1153.740, 1048.899
1154.222, 1044.303
1154.704, 1043.990
1155.186, 1054.831
1155.668, 1070.615
1156.150, 1080.616
1156.633, 1084.254
1157.115, 1083.335
1157.597, 1075.134
1158.079, 1068.658
1158.561, 1066.761
1159.043, 1059.755
1159.525, 1041.243
1160.007, 1025.229
1160.490, 1024.724
1160.972, 1032.815
1161.454, 1033.598
1161.936, 1027.681
1162.418, 1022.334
1162.900, 1017.957
1163.382, 1019.032
1163.864, 1025.987
1164.346, 1037.914
1164.828, 1054.024
1165.311, 1065.534
1165.793, 1063.936
1166.275, 1054.368
1166.757, 1036.898
1167.239, 1021.008
1167.721, 1022.733
1168.203, 1035.263
1168.685, 1046.255
1169.168, 1053.050
1169.650, 1055.725
1170.132, 1053.323
1170.614, 1052.202
1171.096, 1058.852
1171.578, 1062.064
1172.060, 1055.132
1172.542, 1045.182
1173.025, 1033.745
1173.507, 1024.885
1173.989, 1025.031
1174.471, 1033.725
1174.953, 1046.042
1175.435, 1068.678
1175.917, 1072.030
1176.399, 1048.910
1176.881, 1029.897
1177.364, 1024.077
1177.846, 1022.745
1178.328, 1019.802
1178.810, 1016.759
1179.292, 1015.142
1179.774, 1016.033
1180.256, 1029.279
1180.738, 1048.157
1181.220, 1042.685
1181.703, 1017.247
1182.185, 1005.396
1182.667, 1015.667
1183.149, 1023.222
1183.631, 1009.109
1184.113, 995.8096
1184.595, 1007.000
1185.077, 1021.870
1185.560, 1017.537
1186.042, 1010.374
1186.524, 1026.560
1187.006, 1056.103
1187.488, 1067.566
1187.970, 1054.656
1188.452, 1040.804
1188.934, 1018.504
1189.417, 1013.157
1189.899, 1038.742
1190.381, 1061.483
1190.863, 1070.247
1191.345, 1066.781
1191.827, 1049.820
1192.309, 1025.911
1192.791, 1012.703
1193.273, 1009.998
1193.755, 1013.284
1194.238, 1021.914
1194.720, 1027.187
1195.202, 1028.031
1195.684, 1028.315
1196.166, 1029.655
1196.648, 1030.501
1197.130, 1029.085
1197.612, 1027.453
1198.095, 1026.360
1198.577, 1027.860
1199.059, 1037.889
1199.541, 1050.072
1200.023, 1057.720
1200.505, 1057.977
1200.987, 1043.417
1201.469, 1009.211
1201.952, 985.7491
1202.434, 986.4987
1202.916, 989.7202
1203.398, 993.4056
1203.880, 995.4443
1204.362, 995.6897
1204.844, 992.7625
1205.326, 984.0484
1205.808, 972.0089
1206.291, 964.1804
1206.773, 960.5501
1207.255, 961.4361
1207.737, 966.9019
1208.219, 981.5427
1208.701, 1004.760
1209.183, 1019.709
1209.665, 1019.079
1210.147, 1011.561
1210.630, 1002.669
1211.112, 996.2134
1211.594, 997.8039
1212.076, 1003.857
1212.558, 1014.173
1213.040, 1023.164
1213.522, 1019.805
1214.004, 1007.813
1214.487, 1002.744
1214.969, 1009.016
1215.451, 1013.804
1215.933, 1019.016
1216.415, 1014.869
1216.897, 990.2145
1217.379, 968.9915
1217.861, 957.2425
1218.344, 958.7637
1218.826, 981.7224
1219.308, 1014.833
1219.790, 1027.589
1220.272, 1020.652
1220.754, 1003.020
1221.236, 977.0862
1221.718, 972.9579
1222.200, 991.2451
1222.682, 1005.094
1223.165, 1004.725
1223.647, 999.5095
1224.129, 995.8210
1224.611, 992.0692
1225.093, 983.5997
1225.575, 977.5567
1226.057, 982.7854
1226.539, 992.8902
1227.022, 1003.560
1227.504, 1011.250
1227.986, 1007.448
1228.468, 990.2749
1228.950, 981.9345
1229.432, 990.3356
1229.914, 996.4335
1230.396, 1001.461
1230.879, 998.7139
1231.361, 983.6621
1231.843, 968.0505
1232.325, 959.9033
1232.807, 958.3024
1233.289, 964.2538
1233.771, 973.7081
1234.253, 971.4089
1234.735, 960.3346
1235.218, 945.9512
1235.700, 932.3719
1236.182, 931.8462
1236.664, 944.2838
1237.146, 952.9675
1237.628, 949.2961
1238.110, 944.8577
1238.592, 948.0034
1239.074, 949.9670
1239.557, 943.4908
1240.039, 937.0667
1240.521, 936.2615
1241.003, 940.0984
1241.485, 948.0201
1241.967, 958.6750
1242.449, 965.0484
1242.931, 966.3664
1243.414, 967.2209
1243.896, 967.1855
1244.378, 974.4132
1244.860, 990.2087
1245.342, 998.6682
1245.824, 992.5999
1246.306, 975.3641
1246.788, 944.3206
1247.271, 919.4294
1247.753, 934.6502
1248.235, 964.7040
1248.717, 985.9655
1249.199, 994.5862
1249.681, 979.7444
1250.163, 951.8812
1250.645, 936.6826
1251.127, 939.0114
1251.609, 946.9515
1252.092, 969.6396
1252.574, 977.7736
1253.056, 958.9871
1253.538, 950.0243
1254.020, 965.8792
1254.502, 980.4888
1254.984, 975.0006
1255.466, 961.6720
1255.949, 959.6481
1256.431, 965.0762
1256.913, 966.7617
1257.395, 965.5173
1257.877, 963.1579
1258.359, 960.1129
1258.841, 955.9620
1259.323, 951.6529
1259.806, 951.3452
1260.288, 957.0731
1260.770, 962.1920
1261.252, 964.5793
1261.734, 964.2293
1262.216, 961.6149
1262.698, 955.5285
1263.180, 938.4987
1263.662, 925.4755
1264.145, 932.8209
1264.627, 951.5944
1265.109, 958.5566
1265.591, 954.7247
1266.073, 965.4362
1266.555, 987.8110
1267.037, 978.0239
1267.519, 939.6132
1268.001, 931.5203
1268.484, 965.6547
1268.966, 992.5220
1269.448, 982.1745
1269.930, 961.7543
1270.412, 945.0652
1270.894, 935.5545
1271.376, 935.0214
1271.858, 943.6453
##END=



