##NAMES=Hingganite-(Ce)
##RRUFFID=R060857
##IDEAL CHEMISTRY=BeCe^3+^(SiO_4_)(OH)
##LOCALITY=Tatyana pegmatite, Haldzan Buregteg massif, Mongolia
##OWNER=RRUFF
##SOURCE=Michael Scott
##DESCRIPTION=Brown vitreous fragments
##STATUS=The identification of this mineral has been confirmed only by single crystal X-ray diffraction.
##URL=rruff.info/R060857
145.1467, 6429.934
145.6288, 6471.266
146.1110, 6508.521
146.5931, 6543.571
147.0752, 6579.557
147.5573, 6604.089
148.0394, 6610.236
148.5215, 6605.845
149.0037, 6606.651
149.4858, 6613.957
149.9679, 6625.158
150.4500, 6640.151
150.9321, 6669.175
151.4142, 6687.729
151.8964, 6689.858
152.3785, 6680.616
152.8606, 6676.393
153.3427, 6678.010
153.8248, 6685.659
154.3069, 6699.487
154.7890, 6728.297
155.2712, 6754.766
155.7533, 6772.346
156.2354, 6782.967
156.7175, 6803.077
157.1996, 6844.460
157.6817, 6892.368
158.1639, 6935.717
158.6460, 6975.120
159.1281, 7006.198
159.6102, 7018.703
160.0923, 7011.351
160.5744, 7020.216
161.0566, 7072.413
161.5387, 7142.111
162.0208, 7200.648
162.5029, 7232.500
162.9850, 7254.709
163.4671, 7273.439
163.9493, 7288.073
164.4314, 7304.703
164.9135, 7333.640
165.3956, 7365.754
165.8777, 7386.331
166.3598, 7381.750
166.8420, 7368.096
167.3241, 7355.474
167.8062, 7344.163
168.2883, 7338.641
168.7704, 7342.591
169.2525, 7354.843
169.7346, 7372.346
170.2168, 7399.463
170.6989, 7428.548
171.1810, 7451.566
171.6631, 7465.966
172.1452, 7476.185
172.6273, 7486.666
173.1095, 7496.565
173.5916, 7502.868
174.0737, 7496.414
174.5558, 7486.576
175.0379, 7487.691
175.5201, 7506.261
176.0022, 7533.729
176.4843, 7562.484
176.9664, 7592.022
177.4485, 7619.574
177.9306, 7645.738
178.4128, 7668.117
178.8949, 7681.366
179.3770, 7675.188
179.8591, 7663.982
180.3412, 7676.097
180.8233, 7711.993
181.3055, 7745.963
181.7876, 7742.833
182.2697, 7715.146
182.7518, 7705.442
183.2339, 7743.944
183.7160, 7809.600
184.1981, 7851.748
184.6803, 7868.741
185.1624, 7873.464
185.6445, 7884.881
186.1266, 7899.506
186.6087, 7896.690
187.0908, 7844.719
187.5730, 7763.058
188.0551, 7734.021
188.5372, 7765.616
189.0193, 7826.210
189.5014, 7882.153
189.9835, 7933.394
190.4657, 7968.215
190.9478, 7975.529
191.4299, 7958.801
191.9120, 7938.919
192.3941, 7913.024
192.8762, 7892.497
193.3584, 7904.664
193.8405, 7951.117
194.3226, 7993.733
194.8047, 8004.978
195.2868, 7986.512
195.7689, 7979.246
196.2511, 7987.954
196.7332, 8007.859
197.2153, 8032.678
197.6974, 8065.033
198.1795, 8086.485
198.6616, 8077.359
199.1437, 8035.302
199.6259, 8009.935
200.1080, 8009.507
200.5901, 8028.062
201.0722, 8049.611
201.5543, 8076.457
202.0364, 8097.557
202.5186, 8097.873
203.0007, 8072.174
203.4828, 8067.540
203.9649, 8098.661
204.4470, 8155.117
204.9291, 8184.087
205.4113, 8177.887
205.8934, 8164.555
206.3755, 8166.944
206.8576, 8187.565
207.3397, 8212.070
207.8218, 8242.088
208.3040, 8275.361
208.7861, 8290.074
209.2682, 8281.803
209.7503, 8264.044
210.2324, 8245.263
210.7145, 8220.945
211.1967, 8215.108
211.6788, 8241.053
212.1609, 8297.271
212.6430, 8325.647
213.1251, 8314.413
213.6072, 8293.071
214.0894, 8292.572
214.5715, 8318.994
215.0536, 8350.178
215.5357, 8384.735
216.0178, 8423.588
216.4999, 8442.013
216.9820, 8432.460
217.4642, 8410.250
217.9463, 8390.317
218.4284, 8367.090
218.9105, 8359.476
219.3926, 8378.549
219.8747, 8428.896
220.3569, 8457.795
220.8390, 8452.443
221.3211, 8437.574
221.8032, 8450.106
222.2853, 8510.695
222.7674, 8556.162
223.2496, 8562.550
223.7317, 8519.238
224.2138, 8497.282
224.6959, 8503.729
225.1780, 8526.279
225.6601, 8548.678
226.1423, 8574.223
226.6244, 8593.218
227.1065, 8601.432
227.5886, 8596.299
228.0707, 8589.661
228.5528, 8576.117
229.0350, 8563.872
229.5171, 8569.029
229.9992, 8604.229
230.4813, 8635.142
230.9634, 8648.661
231.4455, 8637.921
231.9276, 8632.665
232.4098, 8634.996
232.8919, 8641.815
233.3740, 8646.896
233.8561, 8648.082
234.3382, 8651.233
234.8203, 8659.217
235.3025, 8674.863
235.7846, 8687.033
236.2667, 8692.386
236.7488, 8695.840
237.2309, 8709.016
237.7130, 8741.960
238.1952, 8769.107
238.6773, 8778.631
239.1594, 8760.148
239.6415, 8752.545
240.1236, 8760.143
240.6057, 8777.278
241.0879, 8790.028
241.5700, 8790.629
242.0521, 8798.479
242.5342, 8824.850
243.0163, 8887.136
243.4984, 8923.837
243.9806, 8923.194
244.4627, 8900.208
244.9448, 8890.624
245.4269, 8899.198
245.9090, 8913.427
246.3911, 8928.978
246.8732, 8947.580
247.3554, 8961.836
247.8375, 8968.323
248.3196, 8971.101
248.8017, 8981.121
249.2838, 9002.213
249.7659, 9024.464
250.2481, 9044.897
250.7302, 9066.397
251.2123, 9079.533
251.6944, 9081.438
252.1765, 9076.654
252.6586, 9076.956
253.1408, 9088.791
253.6229, 9096.313
254.1050, 9092.344
254.5871, 9073.424
255.0692, 9051.694
255.5513, 9019.932
256.0334, 8988.436
256.5156, 8983.081
256.9977, 9012.919
257.4798, 9053.261
257.9619, 9096.586
258.4440, 9151.284
258.9261, 9183.200
259.4083, 9182.182
259.8904, 9162.633
260.3725, 9160.059
260.8546, 9180.496
261.3367, 9205.443
261.8188, 9229.344
262.3010, 9257.132
262.7831, 9265.051
263.2652, 9241.882
263.7473, 9205.095
264.2294, 9197.882
264.7115, 9233.814
265.1937, 9268.659
265.6758, 9279.041
266.1579, 9255.560
266.6400, 9247.063
267.1221, 9257.968
267.6042, 9281.164
268.0864, 9303.040
268.5685, 9325.671
269.0506, 9342.506
269.5327, 9350.384
270.0148, 9348.535
270.4969, 9341.981
270.9791, 9329.039
271.4612, 9313.523
271.9433, 9303.124
272.4254, 9298.758
272.9075, 9296.775
273.3896, 9293.645
273.8718, 9287.876
274.3539, 9294.546
274.8360, 9315.527
275.3181, 9346.549
275.8002, 9385.315
276.2823, 9435.984
276.7645, 9473.005
277.2466, 9479.535
277.7287, 9452.795
278.2108, 9439.688
278.6929, 9443.635
279.1750, 9454.238
279.6572, 9451.769
280.1393, 9433.526
280.6214, 9423.868
281.1035, 9438.626
281.5856, 9476.630
282.0677, 9501.700
282.5499, 9513.143
283.0320, 9513.145
283.5141, 9500.270
283.9962, 9473.882
284.4783, 9451.662
284.9604, 9437.625
285.4425, 9432.747
285.9247, 9450.514
286.4068, 9496.157
286.8889, 9544.634
287.3710, 9558.610
287.8531, 9540.139
288.3352, 9527.291
288.8174, 9541.524
289.2995, 9573.846
289.7816, 9580.245
290.2637, 9556.368
290.7458, 9532.147
291.2279, 9549.107
291.7101, 9600.462
292.1922, 9640.924
292.6743, 9648.936
293.1564, 9635.569
293.6385, 9626.683
294.1206, 9622.184
294.6028, 9625.011
295.0849, 9648.578
295.5670, 9685.025
296.0491, 9703.353
296.5312, 9682.607
297.0133, 9643.806
297.4955, 9626.886
297.9776, 9632.192
298.4597, 9643.742
298.9418, 9645.477
299.4239, 9642.872
299.9060, 9649.938
300.3882, 9678.269
300.8703, 9711.668
301.3524, 9720.046
301.8345, 9706.019
302.3166, 9699.502
302.7987, 9729.854
303.2809, 9781.252
303.7630, 9829.177
304.2451, 9872.213
304.7272, 9901.265
305.2093, 9894.703
305.6914, 9858.893
306.1736, 9830.206
306.6557, 9839.077
307.1378, 9865.949
307.6199, 9886.244
308.1020, 9892.865
308.5841, 9895.325
309.0663, 9902.454
309.5484, 9912.624
310.0305, 9919.286
310.5126, 9918.438
310.9947, 9913.069
311.4768, 9904.045
311.9590, 9887.301
312.4411, 9877.014
312.9232, 9890.948
313.4053, 9918.755
313.8874, 9935.546
314.3695, 9909.959
314.8516, 9883.237
315.3337, 9890.047
315.8159, 9950.621
316.2980, 9996.063
316.7801, 9986.464
317.2622, 9943.294
317.7443, 9903.922
318.2264, 9876.120
318.7086, 9860.287
319.1907, 9860.088
319.6728, 9879.587
320.1549, 9897.231
320.6370, 9903.470
321.1191, 9905.369
321.6013, 9911.866
322.0834, 9929.841
322.5655, 9947.847
323.0476, 9963.877
323.5297, 9978.329
324.0118, 9984.589
324.4940, 9961.823
324.9761, 9938.792
325.4582, 9942.890
325.9403, 10021.67
326.4224, 10081.19
326.9045, 10093.51
327.3867, 10055.60
327.8688, 10037.75
328.3509, 10056.33
328.8330, 10086.24
329.3151, 10110.54
329.7972, 10130.25
330.2794, 10142.96
330.7615, 10145.77
331.2436, 10140.16
331.7257, 10137.91
332.2078, 10139.48
332.6899, 10144.10
333.1721, 10152.51
333.6542, 10170.87
334.1363, 10179.87
334.6184, 10174.06
335.1005, 10159.06
335.5826, 10152.21
336.0648, 10152.85
336.5469, 10163.09
337.0290, 10189.19
337.5111, 10241.46
337.9932, 10268.08
338.4753, 10259.72
338.9575, 10232.28
339.4396, 10216.95
339.9217, 10215.61
340.4038, 10218.11
340.8859, 10218.96
341.3680, 10217.77
341.8502, 10226.65
342.3323, 10248.58
342.8144, 10273.66
343.2965, 10288.60
343.7786, 10293.62
344.2607, 10291.54
344.7429, 10277.67
345.2250, 10257.06
345.7071, 10255.36
346.1892, 10274.53
346.6713, 10302.20
347.1534, 10332.12
347.6355, 10361.97
348.1176, 10378.21
348.5998, 10367.92
349.0819, 10346.63
349.5640, 10346.59
350.0461, 10367.24
350.5282, 10396.77
351.0103, 10437.93
351.4925, 10480.00
351.9746, 10497.36
352.4567, 10471.73
352.9388, 10436.32
353.4209, 10433.02
353.9030, 10456.28
354.3852, 10480.69
354.8673, 10489.93
355.3494, 10491.80
355.8315, 10496.78
356.3136, 10509.43
356.7957, 10518.69
357.2779, 10506.67
357.7600, 10484.61
358.2421, 10477.68
358.7242, 10517.04
359.2063, 10562.80
359.6884, 10586.62
360.1706, 10583.44
360.6527, 10570.38
361.1348, 10536.37
361.6169, 10501.81
362.0990, 10494.44
362.5811, 10559.47
363.0633, 10619.83
363.5454, 10638.80
364.0275, 10613.29
364.5096, 10594.27
364.9917, 10603.26
365.4738, 10619.49
365.9560, 10626.03
366.4381, 10608.75
366.9202, 10594.23
367.4023, 10584.29
367.8844, 10579.73
368.3665, 10585.73
368.8487, 10615.17
369.3308, 10646.24
369.8129, 10667.76
370.2950, 10670.03
370.7771, 10678.19
371.2592, 10701.19
371.7414, 10729.11
372.2235, 10733.86
372.7056, 10697.46
373.1877, 10664.41
373.6698, 10651.90
374.1519, 10662.16
374.6341, 10685.02
375.1162, 10728.25
375.5983, 10774.76
376.0804, 10799.05
376.5625, 10798.88
377.0446, 10782.46
377.5267, 10741.16
378.0089, 10678.95
378.4910, 10665.65
378.9731, 10710.90
379.4552, 10771.11
379.9373, 10801.79
380.4194, 10804.16
380.9016, 10802.82
381.3837, 10800.14
381.8658, 10800.53
382.3479, 10820.89
382.8300, 10860.91
383.3121, 10895.63
383.7943, 10902.33
384.2764, 10888.56
384.7585, 10872.28
385.2406, 10852.04
385.7227, 10840.20
386.2048, 10862.47
386.6870, 10909.29
387.1691, 10948.80
387.6512, 10954.83
388.1333, 10946.27
388.6154, 10945.59
389.0975, 10955.15
389.5797, 10967.48
390.0618, 10982.97
390.5439, 10996.41
391.0260, 10999.47
391.5081, 10982.64
391.9902, 10960.02
392.4724, 10935.22
392.9545, 10909.55
393.4366, 10895.14
393.9187, 10905.90
394.4008, 10926.15
394.8829, 10943.56
395.3651, 10954.91
395.8472, 10963.63
396.3293, 10971.34
396.8114, 10977.31
397.2935, 10978.76
397.7756, 10963.46
398.2578, 10952.58
398.7399, 10957.06
399.2220, 10993.17
399.7041, 11013.27
400.1862, 11001.60
400.6683, 10978.45
401.1505, 10976.86
401.6326, 11012.58
402.1147, 11047.31
402.5968, 11071.71
403.0789, 11085.24
403.5610, 11097.03
404.0432, 11108.73
404.5253, 11116.71
405.0074, 11116.21
405.4895, 11104.97
405.9716, 11093.56
406.4537, 11079.83
406.9359, 11068.61
407.4180, 11084.46
407.9001, 11132.60
408.3822, 11177.90
408.8643, 11194.06
409.3464, 11183.75
409.8285, 11170.90
410.3106, 11153.85
410.7928, 11145.31
411.2749, 11174.93
411.7570, 11236.30
412.2391, 11287.34
412.7212, 11307.42
413.2033, 11303.60
413.6855, 11278.83
414.1676, 11231.90
414.6497, 11196.70
415.1318, 11210.19
415.6139, 11254.86
416.0960, 11301.63
416.5782, 11354.48
417.0603, 11392.65
417.5424, 11389.67
418.0245, 11352.73
418.5066, 11318.47
418.9887, 11304.74
419.4709, 11301.34
419.9530, 11299.76
420.4351, 11295.12
420.9172, 11299.61
421.3993, 11322.50
421.8814, 11357.17
422.3636, 11391.25
422.8457, 11434.73
423.3278, 11466.04
423.8099, 11474.08
424.2920, 11453.56
424.7741, 11436.98
425.2563, 11427.33
425.7384, 11421.47
426.2205, 11417.52
426.7026, 11421.30
427.1847, 11416.46
427.6668, 11392.64
428.1490, 11356.33
428.6311, 11348.38
429.1132, 11380.37
429.5953, 11417.98
430.0774, 11439.53
430.5595, 11441.53
431.0417, 11452.40
431.5238, 11478.04
432.0059, 11505.27
432.4880, 11507.71
432.9701, 11484.49
433.4522, 11463.09
433.9344, 11455.14
434.4165, 11458.02
434.8986, 11458.35
435.3807, 11455.49
435.8628, 11461.87
436.3449, 11507.30
436.8271, 11571.99
437.3092, 11600.40
437.7913, 11560.69
438.2734, 11504.20
438.7555, 11489.55
439.2376, 11508.66
439.7197, 11531.06
440.2018, 11536.23
440.6840, 11537.81
441.1661, 11550.68
441.6482, 11579.96
442.1303, 11604.38
442.6124, 11613.32
443.0945, 11610.47
443.5767, 11601.00
444.0588, 11574.75
444.5409, 11553.44
445.0230, 11544.95
445.5051, 11549.40
445.9872, 11559.22
446.4694, 11579.64
446.9515, 11600.94
447.4336, 11617.33
447.9157, 11625.85
448.3978, 11634.53
448.8799, 11649.85
449.3621, 11664.04
449.8442, 11654.90
450.3263, 11604.89
450.8084, 11566.08
451.2905, 11559.95
451.7726, 11588.88
452.2548, 11611.08
452.7369, 11623.20
453.2190, 11635.63
453.7011, 11666.35
454.1832, 11715.94
454.6653, 11745.48
455.1475, 11741.69
455.6296, 11717.65
456.1117, 11703.14
456.5938, 11697.79
457.0759, 11691.64
457.5580, 11675.73
458.0402, 11654.88
458.5223, 11636.65
459.0044, 11620.24
459.4865, 11614.78
459.9686, 11643.92
460.4507, 11689.14
460.9329, 11715.43
461.4150, 11682.69
461.8971, 11645.02
462.3792, 11639.32
462.8613, 11663.77
463.3434, 11695.40
463.8256, 11735.99
464.3077, 11772.17
464.7898, 11794.22
465.2719, 11793.43
465.7540, 11789.01
466.2361, 11774.86
466.7183, 11760.22
467.2004, 11764.47
467.6825, 11813.13
468.1646, 11854.86
468.6467, 11874.68
469.1288, 11869.39
469.6109, 11870.16
470.0930, 11882.79
470.5752, 11893.67
471.0573, 11886.83
471.5394, 11852.99
472.0215, 11838.86
472.5036, 11856.35
472.9857, 11892.34
473.4679, 11912.79
473.9500, 11916.69
474.4321, 11916.42
474.9142, 11919.85
475.3963, 11925.13
475.8784, 11922.10
476.3606, 11909.81
476.8427, 11897.48
477.3248, 11897.39
477.8069, 11905.17
478.2890, 11909.92
478.7711, 11905.49
479.2533, 11900.28
479.7354, 11904.41
480.2175, 11915.63
480.6996, 11924.65
481.1817, 11915.80
481.6638, 11909.16
482.1460, 11922.11
482.6281, 11961.97
483.1102, 12000.46
483.5923, 12026.70
484.0744, 12045.75
484.5565, 12063.92
485.0387, 12083.48
485.5208, 12099.76
486.0029, 12113.83
486.4850, 12124.88
486.9671, 12124.00
487.4492, 12101.40
487.9314, 12078.68
488.4135, 12067.18
488.8956, 12069.62
489.3777, 12078.68
489.8598, 12100.05
490.3419, 12121.90
490.8241, 12120.14
491.3062, 12091.23
491.7883, 12075.61
492.2704, 12090.89
492.7525, 12127.98
493.2346, 12157.60
493.7168, 12179.22
494.1989, 12196.32
494.6810, 12223.75
495.1631, 12246.84
495.6452, 12220.97
496.1273, 12120.98
496.6095, 12032.14
497.0916, 12067.48
497.5737, 12173.96
498.0558, 12248.74
498.5379, 12209.62
499.0201, 12153.72
499.5022, 12143.05
499.9843, 12176.55
500.4664, 12207.50
500.9485, 12221.45
501.4306, 12225.42
501.9127, 12223.09
502.3948, 12207.13
502.8770, 12197.24
503.3591, 12196.60
503.8412, 12202.39
504.3233, 12209.72
504.8054, 12214.62
505.2875, 12227.39
505.7697, 12255.50
506.2518, 12297.96
506.7339, 12317.80
507.2160, 12308.87
507.6981, 12293.23
508.1802, 12285.22
508.6624, 12284.95
509.1445, 12297.81
509.6266, 12327.93
510.1087, 12363.45
510.5908, 12392.09
511.0729, 12412.11
511.5551, 12414.32
512.0372, 12379.16
512.5193, 12331.20
513.0014, 12300.63
513.4835, 12287.51
513.9656, 12292.89
514.4478, 12332.39
514.9299, 12383.16
515.4120, 12423.36
515.8941, 12447.43
516.3762, 12462.04
516.8583, 12461.71
517.3405, 12454.70
517.8226, 12454.58
518.3047, 12472.22
518.7868, 12488.62
519.2689, 12494.62
519.7510, 12490.33
520.2332, 12500.77
520.7153, 12537.18
521.1974, 12574.38
521.6795, 12596.05
522.1616, 12596.85
522.6437, 12603.41
523.1259, 12621.60
523.6080, 12639.10
524.0901, 12630.44
524.5722, 12594.32
525.0543, 12564.81
525.5364, 12552.45
526.0186, 12554.53
526.5007, 12573.23
526.9828, 12606.66
527.4649, 12627.08
527.9470, 12594.83
528.4291, 12542.85
528.9113, 12524.15
529.3934, 12553.80
529.8755, 12585.09
530.3576, 12579.72
530.8397, 12556.38
531.3218, 12542.34
531.8040, 12559.01
532.2861, 12575.26
532.7682, 12577.18
533.2503, 12567.26
533.7324, 12562.08
534.2145, 12572.70
534.6967, 12581.40
535.1788, 12578.34
535.6609, 12553.73
536.1430, 12549.16
536.6251, 12573.12
537.1072, 12608.30
537.5894, 12634.92
538.0715, 12652.23
538.5536, 12664.79
539.0357, 12672.50
539.5178, 12676.52
539.9999, 12681.25
540.4821, 12686.38
540.9642, 12686.29
541.4463, 12665.52
541.9284, 12639.08
542.4105, 12640.51
542.8926, 12671.56
543.3748, 12718.87
543.8569, 12798.22
544.3390, 12877.63
544.8211, 12911.14
545.3032, 12848.92
545.7853, 12793.72
546.2675, 12820.43
546.7495, 12892.17
547.2316, 12924.27
547.7137, 12831.57
548.1959, 12755.33
548.6780, 12757.16
549.1601, 12850.30
549.6422, 12905.42
550.1243, 12902.27
550.6064, 12883.06
551.0886, 12877.42
551.5707, 12892.43
552.0528, 12894.87
552.5349, 12879.12
553.0170, 12855.37
553.4991, 12838.33
553.9813, 12827.96
554.4634, 12828.93
554.9455, 12848.40
555.4276, 12877.32
555.9097, 12894.39
556.3918, 12900.61
556.8740, 12905.14
557.3561, 12917.92
557.8382, 12931.18
558.3203, 12935.44
558.8024, 12928.89
559.2845, 12916.66
559.7667, 12890.57
560.2488, 12864.60
560.7309, 12854.96
561.2130, 12879.24
561.6951, 12905.57
562.1772, 12925.04
562.6594, 12940.25
563.1415, 12963.69
563.6236, 13011.48
564.1057, 13045.36
564.5878, 13048.04
565.0699, 13016.32
565.5521, 12990.91
566.0342, 12970.07
566.5163, 12959.39
566.9984, 12967.28
567.4805, 12992.90
567.9626, 13019.04
568.4448, 13044.91
568.9269, 13066.78
569.4090, 13076.13
569.8911, 13076.38
570.3732, 13079.53
570.8553, 13099.16
571.3375, 13119.01
571.8196, 13118.98
572.3017, 13102.04
572.7838, 13088.28
573.2659, 13086.44
573.7480, 13091.98
574.2302, 13103.78
574.7123, 13126.33
575.1944, 13141.48
575.6765, 13144.06
576.1586, 13139.03
576.6407, 13131.55
577.1229, 13121.47
577.6050, 13108.93
578.0871, 13090.53
578.5692, 13071.35
579.0513, 13070.12
579.5334, 13090.73
580.0156, 13108.67
580.4977, 13105.51
580.9798, 13089.45
581.4619, 13106.07
581.9440, 13156.19
582.4261, 13201.68
582.9083, 13200.55
583.3904, 13173.76
583.8725, 13158.14
584.3546, 13163.29
584.8367, 13170.41
585.3188, 13164.02
585.8010, 13151.29
586.2831, 13143.38
586.7652, 13147.53
587.2473, 13153.26
587.7294, 13154.62
588.2115, 13153.42
588.6937, 13162.35
589.1758, 13193.88
589.6579, 13221.47
590.1400, 13234.52
590.6221, 13231.24
591.1042, 13225.78
591.5864, 13215.51
592.0685, 13209.47
592.5506, 13220.10
593.0327, 13246.40
593.5148, 13266.34
593.9969, 13276.18
594.4791, 13279.78
594.9612, 13278.70
595.4433, 13275.52
595.9254, 13277.94
596.4075, 13295.77
596.8896, 13316.17
597.3718, 13330.90
597.8539, 13339.33
598.3360, 13337.85
598.8181, 13311.79
599.3002, 13285.35
599.7823, 13271.77
600.2645, 13273.03
600.7466, 13284.41
601.2287, 13316.87
601.7108, 13350.25
602.1929, 13366.08
602.6750, 13354.38
603.1572, 13352.37
603.6393, 13366.44
604.1214, 13388.36
604.6035, 13400.88
605.0856, 13403.72
605.5677, 13410.15
606.0499, 13432.09
606.5320, 13456.99
607.0141, 13448.17
607.4962, 13411.01
607.9783, 13386.12
608.4604, 13419.36
608.9425, 13468.48
609.4246, 13486.51
609.9067, 13464.19
610.3889, 13443.05
610.8710, 13440.77
611.3531, 13449.01
611.8352, 13460.27
612.3173, 13470.46
612.7994, 13488.26
613.2816, 13524.62
613.7637, 13565.43
614.2458, 13582.98
614.7279, 13571.22
615.2100, 13552.34
615.6921, 13527.17
616.1743, 13500.68
616.6564, 13501.49
617.1385, 13530.91
617.6206, 13557.01
618.1027, 13547.70
618.5848, 13522.46
619.0670, 13530.23
619.5491, 13574.92
620.0312, 13617.42
620.5133, 13622.74
620.9954, 13611.24
621.4775, 13606.16
621.9597, 13613.44
622.4418, 13626.56
622.9239, 13654.20
623.4060, 13683.47
623.8881, 13693.59
624.3702, 13658.92
624.8524, 13634.88
625.3345, 13633.56
625.8166, 13650.30
626.2987, 13661.54
626.7808, 13664.93
627.2629, 13671.77
627.7451, 13694.94
628.2272, 13729.30
628.7093, 13734.10
629.1914, 13708.28
629.6735, 13674.32
630.1556, 13646.30
630.6378, 13625.80
631.1199, 13616.46
631.6020, 13619.88
632.0841, 13631.16
632.5662, 13662.92
633.0483, 13695.58
633.5305, 13703.60
634.0126, 13635.09
634.4947, 13591.58
634.9768, 13611.59
635.4589, 13674.23
635.9410, 13717.37
636.4232, 13739.88
636.9053, 13744.02
637.3874, 13721.32
637.8695, 13676.56
638.3516, 13665.71
638.8337, 13693.06
639.3159, 13723.73
639.7980, 13729.65
640.2801, 13719.20
640.7622, 13720.54
641.2443, 13736.56
641.7264, 13754.98
642.2086, 13772.32
642.6907, 13783.26
643.1728, 13778.05
643.6549, 13739.52
644.1370, 13712.20
644.6191, 13717.73
645.1013, 13745.71
645.5834, 13778.39
646.0655, 13832.22
646.5476, 13866.82
647.0297, 13868.67
647.5118, 13845.39
647.9940, 13829.31
648.4761, 13818.40
648.9582, 13819.46
649.4403, 13842.55
649.9224, 13881.31
650.4045, 13895.91
650.8867, 13885.52
651.3688, 13879.70
651.8509, 13918.46
652.3330, 13972.35
652.8151, 13987.86
653.2972, 13950.01
653.7794, 13917.15
654.2615, 13935.59
654.7436, 13974.36
655.2257, 13999.94
655.7078, 13992.88
656.1899, 13987.30
656.6721, 13993.36
657.1542, 14002.41
657.6363, 13996.09
658.1184, 13961.73
658.6005, 13943.73
659.0826, 13958.20
659.5648, 13995.74
660.0469, 14020.08
660.5290, 14030.92
661.0111, 14041.01
661.4932, 14065.43
661.9753, 14091.96
662.4575, 14092.59
662.9396, 14068.31
663.4217, 14045.54
663.9038, 14040.66
664.3859, 14046.81
664.8680, 14059.67
665.3502, 14081.77
665.8323, 14100.59
666.3144, 14116.99
666.7965, 14126.14
667.2786, 14122.08
667.7607, 14090.19
668.2429, 14074.04
668.7250, 14081.57
669.2071, 14100.28
669.6892, 14106.25
670.1713, 14098.60
670.6534, 14091.58
671.1355, 14086.38
671.6176, 14087.45
672.0997, 14115.85
672.5818, 14162.45
673.0640, 14188.53
673.5461, 14153.08
674.0282, 14103.97
674.5103, 14081.90
674.9924, 14087.29
675.4745, 14084.22
675.9567, 14049.87
676.4388, 14013.97
676.9209, 13991.77
677.4030, 13982.45
677.8851, 13993.31
678.3672, 14033.21
678.8494, 14079.62
679.3315, 14113.65
679.8136, 14134.62
680.2957, 14140.60
680.7778, 14126.27
681.2599, 14110.66
681.7421, 14120.87
682.2242, 14149.93
682.7063, 14180.55
683.1884, 14210.06
683.6705, 14234.68
684.1526, 14251.63
684.6348, 14261.59
685.1169, 14266.36
685.5990, 14263.34
686.0811, 14258.83
686.5632, 14256.29
687.0453, 14255.07
687.5275, 14247.45
688.0096, 14227.89
688.4917, 14214.55
688.9738, 14218.77
689.4559, 14238.68
689.9380, 14242.69
690.4202, 14228.92
690.9023, 14224.86
691.3844, 14265.81
691.8665, 14328.39
692.3486, 14369.84
692.8307, 14384.22
693.3129, 14388.50
693.7950, 14386.49
694.2771, 14383.74
694.7592, 14386.76
695.2413, 14408.68
695.7234, 14416.75
696.2056, 14389.59
696.6877, 14354.35
697.1698, 14350.18
697.6519, 14398.19
698.1340, 14412.06
698.6161, 14364.23
699.0983, 14290.21
699.5804, 14270.90
700.0625, 14302.36
700.5446, 14341.19
701.0267, 14378.23
701.5089, 14405.32
701.9910, 14402.75
702.4731, 14378.05
702.9552, 14361.32
703.4373, 14381.55
703.9194, 14402.04
704.4016, 14398.21
704.8837, 14367.29
705.3658, 14348.14
705.8479, 14346.25
706.3300, 14353.42
706.8121, 14369.88
707.2943, 14399.28
707.7764, 14404.73
708.2585, 14380.53
708.7406, 14354.60
709.2227, 14369.20
709.7048, 14406.04
710.1870, 14388.26
710.6691, 14292.42
711.1512, 14210.79
711.6333, 14242.14
712.1154, 14329.62
712.5975, 14397.45
713.0797, 14414.53
713.5618, 14426.05
714.0439, 14445.07
714.5260, 14465.88
715.0081, 14478.86
715.4902, 14480.08
715.9724, 14479.03
716.4545, 14472.92
716.9366, 14468.22
717.4187, 14492.92
717.9008, 14547.15
718.3829, 14573.97
718.8651, 14523.59
719.3472, 14451.35
719.8293, 14461.40
720.3114, 14535.70
720.7935, 14594.61
721.2756, 14578.47
721.7578, 14545.00
722.2399, 14529.21
722.7220, 14533.05
723.2041, 14537.58
723.6862, 14536.57
724.1683, 14539.11
724.6505, 14551.79
725.1326, 14576.98
725.6147, 14587.63
726.0968, 14580.75
726.5789, 14569.08
727.0610, 14560.54
727.5432, 14556.07
728.0253, 14562.57
728.5074, 14582.48
728.9895, 14598.30
729.4716, 14590.09
729.9537, 14570.68
730.4359, 14554.99
730.9180, 14543.46
731.4000, 14542.31
731.8821, 14565.00
732.3643, 14594.10
732.8464, 14605.11
733.3285, 14579.79
733.8106, 14578.25
734.2927, 14615.15
734.7748, 14669.18
735.2570, 14703.84
735.7391, 14719.43
736.2212, 14720.53
736.7033, 14702.71
737.1854, 14679.28
737.6675, 14669.08
738.1497, 14668.16
738.6318, 14665.44
739.1139, 14654.14
739.5960, 14642.29
740.0781, 14633.12
740.5602, 14627.00
741.0424, 14623.75
741.5245, 14621.36
742.0066, 14625.02
742.4887, 14637.04
742.9708, 14656.67
743.4529, 14680.14
743.9351, 14707.71
744.4172, 14732.27
744.8993, 14741.14
745.3814, 14744.97
745.8635, 14774.21
746.3456, 14827.34
746.8278, 14869.58
747.3099, 14872.03
747.7920, 14857.96
748.2741, 14842.90
748.7562, 14827.82
749.2383, 14817.96
749.7205, 14834.23
750.2026, 14838.36
750.6847, 14805.68
751.1668, 14732.50
751.6489, 14628.99
752.1310, 14478.04
752.6132, 14355.24
753.0953, 14363.33
753.5774, 14470.66
754.0595, 14578.70
754.5416, 14674.87
755.0237, 14754.60
755.5059, 14815.42
755.9880, 14857.33
756.4701, 14881.09
756.9522, 14872.34
757.4343, 14863.35
757.9164, 14863.16
758.3986, 14863.11
758.8807, 14852.49
759.3628, 14831.34
759.8449, 14797.61
760.3270, 14744.43
760.8091, 14690.58
761.2913, 14670.33
761.7734, 14681.25
762.2555, 14710.22
762.7376, 14776.97
763.2197, 14830.86
763.7018, 14800.51
764.1840, 14721.21
764.6661, 14674.76
765.1482, 14719.97
765.6303, 14770.55
766.1124, 14800.00
766.5945, 14813.75
767.0767, 14830.42
767.5588, 14848.23
768.0409, 14872.54
768.5230, 14909.12
769.0051, 14950.96
769.4872, 14978.77
769.9694, 14992.54
770.4515, 14993.10
770.9336, 14977.45
771.4157, 14951.16
771.8978, 14911.20
772.3799, 14861.34
772.8621, 14829.68
773.3442, 14834.18
773.8263, 14852.45
774.3084, 14877.84
774.7905, 14910.59
775.2726, 14941.21
775.7548, 14975.23
776.2369, 14994.43
776.7190, 14977.73
777.2011, 14933.68
777.6832, 14912.65
778.1653, 14914.87
778.6475, 14928.51
779.1296, 14958.06
779.6117, 14986.15
780.0938, 14986.80
780.5759, 14952.42
781.0580, 14935.42
781.5402, 14978.05
782.0223, 15023.09
782.5044, 15029.17
782.9865, 14977.26
783.4686, 14962.71
783.9507, 14997.25
784.4329, 15040.52
784.9150, 15054.96
785.3971, 15046.17
785.8792, 15041.06
786.3613, 15043.12
786.8434, 15043.62
787.3256, 15027.64
787.8077, 15009.74
788.2898, 15008.51
788.7719, 15037.31
789.2540, 15058.47
789.7361, 15040.14
790.2183, 15024.82
790.7004, 15059.44
791.1825, 15177.14
791.6646, 15223.51
792.1467, 15171.28
792.6288, 15089.95
793.1110, 15066.83
793.5930, 15089.07
794.0751, 15113.00
794.5573, 15131.35
795.0394, 15141.41
795.5215, 15128.32
796.0036, 15110.27
796.4857, 15110.29
796.9678, 15156.64
797.4500, 15191.69
797.9321, 15207.36
798.4142, 15211.01
798.8963, 15210.32
799.3784, 15204.00
799.8605, 15204.10
800.3427, 15217.40
800.8248, 15226.47
801.3069, 15187.79
801.7890, 15122.44
802.2711, 15093.06
802.7532, 15142.79
803.2354, 15194.00
803.7175, 15188.11
804.1996, 15153.29
804.6817, 15136.50
805.1638, 15167.81
805.6459, 15190.19
806.1281, 15194.95
806.6102, 15190.13
807.0923, 15189.72
807.5744, 15193.68
808.0565, 15205.29
808.5386, 15229.66
809.0208, 15254.35
809.5029, 15256.94
809.9850, 15244.77
810.4671, 15235.32
810.9492, 15242.96
811.4313, 15247.12
811.9135, 15228.54
812.3956, 15201.37
812.8777, 15198.96
813.3598, 15232.36
813.8419, 15272.53
814.3240, 15323.43
814.8062, 15369.52
815.2883, 15367.57
815.7704, 15321.79
816.2525, 15275.96
816.7346, 15237.89
817.2167, 15218.47
817.6989, 15242.15
818.1810, 15293.95
818.6631, 15338.90
819.1452, 15376.14
819.6273, 15392.52
820.1094, 15374.02
820.5916, 15333.48
821.0737, 15293.65
821.5558, 15246.29
822.0379, 15233.58
822.5200, 15278.56
823.0021, 15351.52
823.4843, 15385.04
823.9664, 15388.61
824.4485, 15402.44
824.9306, 15464.45
825.4127, 15523.80
825.8948, 15545.26
826.3770, 15535.75
826.8591, 15513.28
827.3412, 15446.90
827.8233, 15411.01
828.3054, 15423.17
828.7875, 15472.28
829.2697, 15543.40
829.7518, 15641.60
830.2339, 15680.42
830.7160, 15603.75
831.1981, 15488.82
831.6802, 15458.04
832.1624, 15486.42
832.6445, 15508.77
833.1266, 15481.50
833.6087, 15458.59
834.0908, 15458.40
834.5729, 15480.40
835.0551, 15524.37
835.5372, 15618.59
836.0193, 15664.63
836.5014, 15625.59
836.9835, 15540.35
837.4656, 15497.96
837.9478, 15494.89
838.4299, 15509.84
838.9120, 15545.83
839.3941, 15582.58
839.8762, 15599.57
840.3583, 15603.93
840.8405, 15611.07
841.3226, 15640.76
841.8047, 15652.72
842.2868, 15624.76
842.7689, 15581.90
843.2510, 15587.96
843.7332, 15649.04
844.2153, 15700.77
844.6974, 15724.15
845.1795, 15730.80
845.6616, 15733.15
846.1437, 15733.69
846.6259, 15738.70
847.1080, 15764.67
847.5901, 15779.32
848.0722, 15755.56
848.5543, 15713.91
849.0364, 15695.95
849.5186, 15710.90
850.0007, 15731.58
850.4828, 15758.57
850.9649, 15783.27
851.4470, 15788.17
851.9291, 15775.83
852.4113, 15758.02
852.8934, 15735.10
853.3755, 15714.91
853.8576, 15693.06
854.3397, 15681.88
854.8218, 15699.83
855.3039, 15798.92
855.7860, 15863.87
856.2681, 15868.41
856.7502, 15845.77
857.2324, 15842.74
857.7145, 15860.47
858.1966, 15870.91
858.6787, 15865.05
859.1608, 15863.22
859.6429, 15901.32
860.1251, 15958.60
860.6072, 16000.10
861.0893, 16013.74
861.5714, 16014.76
862.0535, 15988.09
862.5356, 15963.07
863.0178, 15974.27
863.4999, 16039.51
863.9820, 16088.24
864.4641, 16113.47
864.9462, 16127.71
865.4283, 16151.68
865.9105, 16176.55
866.3926, 16170.09
866.8747, 16121.44
867.3568, 16074.58
867.8389, 16059.34
868.3210, 16063.27
868.8032, 16076.32
869.2853, 16103.82
869.7674, 16124.71
870.2495, 16132.01
870.7316, 16143.88
871.2137, 16190.37
871.6959, 16265.32
872.1780, 16276.84
872.6601, 16216.26
873.1422, 16153.67
873.6243, 16157.43
874.1064, 16185.72
874.5886, 16187.82
875.0707, 16150.68
875.5528, 16134.76
876.0349, 16172.01
876.5170, 16216.90
876.9991, 16249.27
877.4813, 16268.94
877.9634, 16269.75
878.4455, 16248.43
878.9276, 16238.46
879.4097, 16279.03
879.8918, 16340.32
880.3740, 16375.92
880.8561, 16385.71
881.3382, 16391.30
881.8203, 16389.93
882.3024, 16399.26
882.7845, 16437.65
883.2667, 16500.67
883.7488, 16534.98
884.2309, 16534.30
884.7130, 16528.76
885.1951, 16529.89
885.6772, 16537.77
886.1594, 16556.54
886.6415, 16583.55
887.1236, 16607.58
887.6057, 16627.58
888.0878, 16638.44
888.5699, 16627.17
889.0521, 16602.65
889.5342, 16601.91
890.0163, 16636.79
890.4984, 16672.17
890.9805, 16700.72
891.4626, 16723.85
891.9448, 16743.70
892.4269, 16760.43
892.9090, 16776.17
893.3911, 16788.80
893.8732, 16803.74
894.3553, 16826.00
894.8375, 16852.66
895.3196, 16878.56
895.8017, 16909.23
896.2838, 16928.53
896.7659, 16933.15
897.2480, 16928.26
897.7302, 16921.41
898.2123, 16912.76
898.6944, 16897.61
899.1765, 16871.63
899.6586, 16855.25
900.1407, 16893.16
900.6229, 16942.71
901.1050, 16943.74
901.5871, 16836.74
902.0692, 16787.83
902.5513, 16851.45
903.0334, 16936.22
903.5156, 16964.92
903.9977, 16935.81
904.4798, 16902.94
904.9619, 16867.79
905.4440, 16835.65
905.9261, 16801.74
906.4083, 16778.50
906.8904, 16790.85
907.3725, 16844.87
907.8546, 16877.01
908.3367, 16859.21
908.8188, 16821.69
909.3010, 16774.30
909.7831, 16717.36
910.2652, 16667.46
910.7473, 16623.01
911.2294, 16607.09
911.7115, 16662.08
912.1937, 16739.22
912.6758, 16767.23
913.1579, 16750.41
913.6400, 16718.12
914.1221, 16654.88
914.6042, 16607.86
915.0864, 16594.41
915.5685, 16609.33
916.0506, 16645.33
916.5327, 16709.63
917.0148, 16740.35
917.4969, 16701.96
917.9790, 16644.35
918.4611, 16656.82
918.9432, 16711.56
919.4254, 16744.99
919.9075, 16702.70
920.3896, 16671.23
920.8717, 16695.20
921.3538, 16737.36
921.8359, 16741.48
922.3181, 16693.61
922.8002, 16675.96
923.2823, 16702.96
923.7644, 16744.61
924.2465, 16769.20
924.7286, 16777.98
925.2108, 16767.03
925.6929, 16727.46
926.1750, 16704.38
926.6571, 16738.66
927.1392, 16781.21
927.6213, 16791.40
928.1035, 16760.26
928.5856, 16745.95
929.0677, 16749.61
929.5498, 16766.77
930.0319, 16808.48
930.5140, 16856.53
930.9962, 16875.80
931.4783, 16866.14
931.9604, 16842.11
932.4425, 16796.56
932.9246, 16752.38
933.4067, 16716.81
933.8889, 16691.03
934.3710, 16688.05
934.8531, 16714.29
935.3352, 16729.72
935.8173, 16711.01
936.2994, 16679.59
936.7816, 16673.36
937.2637, 16687.57
937.7458, 16709.49
938.2279, 16737.97
938.7100, 16768.01
939.1921, 16807.77
939.6743, 16843.46
940.1564, 16850.73
940.6385, 16821.61
941.1206, 16800.83
941.6027, 16794.60
942.0848, 16797.71
942.5670, 16803.55
943.0491, 16813.62
943.5312, 16834.26
944.0133, 16871.88
944.4954, 16898.00
944.9775, 16891.84
945.4597, 16876.95
945.9418, 16872.02
946.4239, 16880.01
946.9060, 16877.55
947.3881, 16863.56
947.8702, 16847.44
948.3524, 16828.97
948.8345, 16816.69
949.3166, 16836.27
949.7987, 16882.13
950.2808, 16904.34
950.7629, 16837.43
951.2451, 16790.55
951.7272, 16817.69
952.2093, 16897.18
952.6914, 16939.80
953.1735, 16943.00
953.6556, 16933.81
954.1378, 16916.21
954.6199, 16899.79
955.1020, 16897.00
955.5841, 16905.34
956.0662, 16919.89
956.5483, 16946.97
957.0305, 16970.07
957.5126, 16988.14
957.9947, 17000.03
958.4768, 17002.57
958.9589, 16995.50
959.4410, 16991.85
959.9232, 16993.81
960.4053, 16992.42
960.8874, 16969.45
961.3695, 16942.98
961.8516, 16933.54
962.3337, 16943.95
962.8159, 16970.44
963.2980, 17034.77
963.7801, 17086.32
964.2622, 17095.61
964.7443, 17068.90
965.2264, 17072.45
965.7086, 17104.00
966.1907, 17120.55
966.6728, 17078.53
967.1549, 17026.16
967.6370, 17005.55
968.1191, 17010.50
968.6013, 17021.15
969.0834, 17042.48
969.5655, 17055.82
970.0476, 17056.93
970.5297, 17050.88
971.0118, 17040.21
971.4940, 17028.84
971.9761, 17042.96
972.4582, 17099.30
972.9403, 17143.55
973.4224, 17115.41
973.9045, 17066.56
974.3867, 17052.67
974.8688, 17095.55
975.3509, 17124.44
975.8330, 17137.07
976.3151, 17140.90
976.7972, 17132.08
977.2794, 17119.61
977.7615, 17138.74
978.2435, 17186.22
978.7256, 17225.52
979.2078, 17223.34
979.6899, 17218.71
980.1720, 17237.68
980.6541, 17272.61
981.1362, 17290.50
981.6183, 17289.50
982.1005, 17278.83
982.5826, 17257.51
983.0647, 17235.23
983.5468, 17233.65
984.0289, 17242.90
984.5110, 17240.16
984.9932, 17202.97
985.4753, 17182.35
985.9574, 17219.76
986.4395, 17261.78
986.9216, 17257.46
987.4037, 17199.81
987.8859, 17163.70
988.3680, 17152.62
988.8501, 17155.11
989.3322, 17163.24
989.8143, 17178.30
990.2964, 17208.51
990.7786, 17252.51
991.2607, 17279.89
991.7428, 17270.06
992.2249, 17261.30
992.7070, 17267.21
993.1891, 17281.59
993.6713, 17278.21
994.1534, 17260.84
994.6355, 17257.32
995.1176, 17287.30
995.5997, 17320.96
996.0818, 17341.75
996.5640, 17348.98
997.0461, 17338.70
997.5282, 17288.77
998.0103, 17270.69
998.4924, 17295.64
998.9745, 17330.99
999.4567, 17336.15
999.9388, 17325.53
1000.421, 17346.35
1000.903, 17401.58
1001.385, 17442.57
1001.867, 17432.76
1002.349, 17407.97
1002.831, 17383.14
1003.314, 17360.07
1003.796, 17350.79
1004.278, 17356.96
1004.760, 17363.88
1005.242, 17365.94
1005.724, 17365.81
1006.206, 17365.05
1006.688, 17365.70
1007.171, 17371.59
1007.653, 17409.34
1008.135, 17414.79
1008.617, 17351.21
1009.099, 17285.57
1009.581, 17302.87
1010.063, 17397.39
1010.545, 17440.84
1011.027, 17422.93
1011.510, 17404.45
1011.992, 17445.84
1012.474, 17498.74
1012.956, 17524.90
1013.438, 17520.77
1013.920, 17499.92
1014.402, 17449.65
1014.884, 17418.52
1015.367, 17431.99
1015.849, 17466.25
1016.331, 17459.21
1016.813, 17425.65
1017.295, 17410.59
1017.777, 17446.72
1018.259, 17480.71
1018.741, 17468.79
1019.223, 17458.73
1019.706, 17515.84
1020.188, 17666.44
1020.670, 17712.55
1021.152, 17634.62
1021.634, 17544.09
1022.116, 17554.60
1022.598, 17601.89
1023.080, 17598.66
1023.563, 17544.36
1024.045, 17526.42
1024.527, 17610.68
1025.009, 17664.54
1025.491, 17630.78
1025.973, 17556.70
1026.455, 17594.86
1026.937, 17718.91
1027.419, 17786.19
1027.901, 17723.46
1028.384, 17646.35
1028.866, 17631.77
1029.348, 17646.23
1029.830, 17650.38
1030.312, 17634.17
1030.794, 17639.34
1031.276, 17671.86
1031.758, 17703.17
1032.241, 17710.41
1032.723, 17700.83
1033.205, 17676.75
1033.687, 17643.38
1034.169, 17629.02
1034.651, 17661.14
1035.133, 17694.76
1035.615, 17719.27
1036.098, 17734.76
1036.580, 17741.15
1037.062, 17738.34
1037.544, 17725.76
1038.026, 17695.87
1038.508, 17680.68
1038.990, 17725.58
1039.472, 17788.74
1039.954, 17825.61
1040.437, 17825.90
1040.919, 17819.78
1041.401, 17803.89
1041.883, 17793.41
1042.365, 17808.82
1042.847, 17833.63
1043.329, 17816.66
1043.811, 17771.82
1044.293, 17751.39
1044.776, 17826.48
1045.258, 17868.95
1045.740, 17813.33
1046.222, 17725.34
1046.704, 17720.07
1047.186, 17796.29
1047.668, 17814.83
1048.150, 17748.35
1048.633, 17682.06
1049.115, 17703.80
1049.597, 17755.83
1050.079, 17778.88
1050.561, 17760.70
1051.043, 17787.73
1051.525, 17884.20
1052.007, 17961.33
1052.490, 17975.10
1052.972, 17948.49
1053.454, 17914.96
1053.936, 17883.00
1054.418, 17876.46
1054.900, 17925.01
1055.382, 17971.71
1055.864, 18001.50
1056.346, 18021.80
1056.828, 18042.14
1057.311, 18062.47
1057.793, 18054.52
1058.275, 18015.92
1058.757, 17979.68
1059.239, 17978.75
1059.721, 17985.09
1060.203, 17967.93
1060.685, 17933.00
1061.168, 17935.98
1061.650, 18001.00
1062.132, 18036.59
1062.614, 18008.82
1063.096, 17961.52
1063.578, 17976.45
1064.060, 18023.75
1064.542, 18043.12
1065.025, 18014.46
1065.507, 17973.79
1065.989, 17909.93
1066.471, 17861.09
1066.953, 17855.54
1067.435, 17889.65
1067.917, 17912.17
1068.399, 17923.69
1068.881, 17928.99
1069.364, 17908.77
1069.846, 17905.29
1070.328, 17962.48
1070.810, 18054.25
1071.292, 18124.86
1071.774, 18178.80
1072.256, 18183.84
1072.738, 18126.14
1073.220, 18058.16
1073.703, 18045.52
1074.185, 18058.28
1074.667, 18048.11
1075.149, 18009.72
1075.631, 17992.13
1076.113, 18022.96
1076.595, 18057.99
1077.077, 18090.99
1077.559, 18113.72
1078.042, 18091.17
1078.524, 18035.06
1079.006, 17990.79
1079.488, 17973.71
1079.970, 17973.34
1080.452, 17999.98
1080.934, 18029.80
1081.416, 18036.47
1081.899, 18013.60
1082.381, 18017.78
1082.863, 18050.37
1083.345, 18088.38
1083.827, 18123.45
1084.309, 18148.75
1084.791, 18147.24
1085.273, 18129.36
1085.755, 18131.81
1086.238, 18173.19
1086.720, 18205.55
1087.202, 18222.22
1087.684, 18229.93
1088.166, 18234.92
1088.648, 18238.80
1089.130, 18249.94
1089.612, 18270.55
1090.094, 18273.88
1090.577, 18218.65
1091.059, 18178.95
1091.541, 18193.94
1092.023, 18246.03
1092.505, 18259.36
1092.987, 18239.84
1093.469, 18235.84
1093.951, 18270.91
1094.434, 18311.41
1094.916, 18336.91
1095.398, 18352.41
1095.880, 18363.18
1096.362, 18369.41
1096.844, 18372.49
1097.326, 18372.96
1097.808, 18365.40
1098.291, 18333.04
1098.773, 18299.60
1099.255, 18297.38
1099.737, 18320.16
1100.219, 18348.73
1100.701, 18391.97
1101.183, 18416.99
1101.665, 18412.90
1102.147, 18405.73
1102.630, 18433.56
1103.112, 18483.53
1103.594, 18534.12
1104.076, 18582.07
1104.558, 18594.78
1105.040, 18511.39
1105.522, 18440.12
1106.004, 18426.13
1106.486, 18455.01
1106.969, 18490.69
1107.451, 18529.30
1107.933, 18537.32
1108.415, 18491.30
1108.897, 18451.30
1109.379, 18474.66
1109.861, 18516.49
1110.343, 18535.21
1110.826, 18529.76
1111.308, 18505.88
1111.790, 18461.78
1112.272, 18421.93
1112.754, 18397.51
1113.236, 18387.55
1113.718, 18390.50
1114.200, 18406.71
1114.682, 18439.68
1115.165, 18521.34
1115.647, 18548.92
1116.129, 18500.18
1116.611, 18439.68
1117.093, 18441.65
1117.575, 18475.52
1118.057, 18475.98
1118.539, 18443.93
1119.021, 18426.99
1119.504, 18466.42
1119.986, 18492.48
1120.468, 18481.70
1120.950, 18455.59
1121.432, 18459.89
1121.914, 18488.01
1122.396, 18514.29
1122.878, 18535.64
1123.361, 18544.02
1123.843, 18525.87
1124.325, 18501.10
1124.807, 18475.62
1125.289, 18453.19
1125.771, 18467.96
1126.253, 18518.59
1126.735, 18577.09
1127.218, 18644.23
1127.700, 18691.94
1128.182, 18661.01
1128.664, 18613.88
1129.146, 18644.21
1129.628, 18794.08
1130.110, 18845.38
1130.592, 18783.39
1131.074, 18716.45
1131.557, 18731.68
1132.039, 18778.34
1132.521, 18800.41
1133.003, 18800.59
1133.485, 18787.28
1133.967, 18754.99
1134.449, 18724.71
1134.931, 18697.87
1135.413, 18676.46
1135.896, 18658.56
1136.378, 18650.19
1136.860, 18672.86
1137.342, 18724.72
1137.824, 18754.82
1138.306, 18709.61
1138.788, 18688.80
1139.270, 18729.40
1139.752, 18793.06
1140.235, 18786.87
1140.717, 18734.52
1141.199, 18720.19
1141.681, 18769.65
1142.163, 18811.37
1142.645, 18801.81
1143.127, 18781.33
1143.609, 18772.99
1144.092, 18773.89
1144.574, 18767.86
1145.056, 18755.43
1145.538, 18737.23
1146.020, 18710.60
1146.502, 18685.80
1146.984, 18659.94
1147.466, 18648.43
1147.948, 18670.63
1148.431, 18733.38
1148.913, 18771.81
1149.395, 18785.69
1149.877, 18790.23
1150.359, 18790.61
1150.841, 18789.28
1151.323, 18770.21
1151.805, 18754.40
1152.287, 18796.40
1152.770, 18930.11
1153.252, 18995.21
1153.734, 18973.20
1154.216, 18923.54
1154.698, 18880.42
1155.180, 18857.19
1155.662, 18886.74
1156.144, 18959.05
1156.627, 18994.07
1157.109, 18962.72
1157.591, 18956.40
1158.073, 19001.27
1158.555, 19053.62
1159.037, 19053.33
1159.519, 19020.92
1160.001, 18982.87
1160.484, 18941.46
1160.966, 18918.52
1161.448, 18919.46
1161.930, 18937.02
1162.412, 18979.19
1162.894, 19023.08
1163.376, 19008.85
1163.858, 18958.63
1164.340, 18928.21
1164.823, 18940.50
1165.305, 18944.26
1165.787, 18911.57
1166.269, 18887.90
1166.751, 18906.75
1167.233, 18952.29
1167.715, 18950.18
1168.197, 18913.91
1168.679, 18897.39
1169.162, 18943.30
1169.644, 18981.42
1170.126, 18973.28
1170.608, 18959.43
1171.090, 18973.62
1171.572, 19013.03
1172.054, 19046.42
1172.536, 19073.13
1173.019, 19095.46
1173.501, 19104.25
1173.983, 19120.34
1174.465, 19176.73
1174.947, 19232.16
1175.429, 19219.54
1175.911, 19140.03
1176.393, 19110.51
1176.875, 19140.50
1177.358, 19180.94
1177.840, 19217.08
1178.322, 19232.38
1178.804, 19199.38
1179.286, 19139.84
1179.768, 19106.84
1180.250, 19101.10
1180.732, 19113.05
1181.214, 19142.75
1181.697, 19177.03
1182.179, 19203.55
1182.661, 19230.59
1183.143, 19279.10
1183.625, 19339.37
1184.107, 19330.84
1184.589, 19244.77
1185.071, 19185.41
1185.554, 19187.04
1186.036, 19206.02
1186.518, 19198.32
1187.000, 19183.76
1187.482, 19182.74
1187.964, 19197.09
1188.446, 19230.41
1188.928, 19290.22
1189.411, 19317.10
1189.893, 19269.69
1190.375, 19206.84
1190.857, 19206.72
1191.339, 19231.94
1191.821, 19225.40
1192.303, 19160.97
1192.785, 19151.01
1193.267, 19207.27
1193.750, 19254.51
1194.232, 19235.03
1194.714, 19193.27
1195.196, 19177.21
1195.678, 19182.91
1196.160, 19205.33
1196.642, 19263.82
1197.124, 19288.48
1197.606, 19271.96
1198.089, 19249.85
1198.571, 19245.80
1199.053, 19256.71
1199.535, 19298.36
1200.017, 19352.03
1200.499, 19356.21
1200.981, 19261.08
1201.463, 19209.29
1201.945, 19217.53
1202.428, 19252.46
1202.910, 19301.24
1203.392, 19344.01
1203.874, 19339.58
1204.356, 19297.07
1204.838, 19287.57
1205.320, 19349.85
1205.802, 19374.63
1206.285, 19332.72
1206.767, 19285.89
1207.249, 19324.12
1207.731, 19400.96
1208.213, 19450.92
1208.695, 19467.67
1209.177, 19472.48
1209.659, 19460.70
1210.141, 19461.13
1210.624, 19488.91
1211.106, 19511.72
1211.588, 19460.92
1212.070, 19383.29
1212.552, 19357.65
1213.034, 19401.19
1213.516, 19427.75
1213.998, 19418.64
1214.480, 19417.42
1214.963, 19444.62
1215.445, 19476.29
1215.927, 19449.89
1216.409, 19407.97
1216.891, 19438.67
1217.373, 19592.64
1217.855, 19641.70
1218.337, 19528.96
1218.820, 19424.71
1219.302, 19411.51
1219.784, 19443.10
1220.266, 19429.23
1220.748, 19400.38
1221.230, 19418.16
1221.712, 19536.21
1222.194, 19581.47
1222.677, 19521.02
1223.159, 19460.40
1223.641, 19469.80
1224.123, 19507.69
1224.605, 19491.51
1225.087, 19448.50
1225.569, 19434.03
1226.051, 19487.49
1226.533, 19522.79
1227.016, 19534.80
1227.498, 19540.47
1227.980, 19556.95
1228.462, 19571.63
1228.944, 19544.48
1229.426, 19501.07
1229.908, 19504.40
1230.390, 19633.01
1230.872, 19678.92
1231.355, 19615.87
1231.837, 19544.69
1232.319, 19564.55
1232.801, 19619.25
1233.283, 19623.07
1233.765, 19592.64
1234.247, 19588.36
1234.729, 19639.28
1235.212, 19663.97
1235.694, 19650.88
1236.176, 19634.79
1236.658, 19647.10
1237.140, 19675.72
1237.622, 19718.42
1238.104, 19765.06
1238.586, 19777.83
1239.068, 19745.16
1239.551, 19708.08
1240.033, 19666.78
1240.515, 19645.27
1240.997, 19690.11
1241.479, 19751.55
1241.961, 19781.69
1242.443, 19777.59
1242.925, 19740.47
1243.407, 19654.64
1243.890, 19616.30
1244.372, 19646.41
1244.854, 19694.06
1245.336, 19705.76
1245.818, 19708.80
1246.300, 19731.33
1246.782, 19770.69
1247.264, 19795.58
1247.747, 19803.10
1248.229, 19812.34
1248.711, 19827.42
1249.193, 19842.30
1249.675, 19863.41
1250.157, 19872.94
1250.639, 19846.77
1251.121, 19793.36
1251.604, 19755.92
1252.086, 19735.88
1252.568, 19721.43
1253.050, 19711.85
1253.532, 19700.02
1254.014, 19662.00
1254.496, 19635.21
1254.978, 19662.55
1255.460, 19728.07
1255.943, 19754.06
1256.425, 19741.80
1256.907, 19725.29
1257.389, 19709.82
1257.871, 19704.91
1258.353, 19732.12
1258.835, 19756.75
1259.317, 19750.49
1259.799, 19721.94
1260.281, 19725.91
1260.764, 19753.58
1261.246, 19742.05
1261.728, 19658.75
1262.210, 19585.22
1262.692, 19573.10
1263.174, 19576.91
1263.656, 19566.81
1264.138, 19553.84
1264.621, 19601.81
1265.103, 19688.29
1265.585, 19720.22
1266.067, 19643.13
1266.549, 19585.76
1267.031, 19607.75
1267.513, 19643.12
1267.995, 19662.50
1268.478, 19669.18
1268.960, 19666.11
1269.442, 19659.77
1269.924, 19669.52
1270.406, 19705.45
1270.888, 19744.52
1271.370, 19784.36
1271.852, 19821.45
1272.334, 19862.18
1272.817, 19890.25
1273.299, 19845.82
1273.781, 19767.90
1274.263, 19740.69
1274.745, 19824.65
1275.227, 19867.89
1275.709, 19859.17
1276.191, 19832.99
1276.673, 19807.05
1277.156, 19779.21
1277.638, 19732.19
1278.120, 19685.62
1278.602, 19676.39
1279.084, 19729.60
1279.566, 19754.14
1280.048, 19746.06
1280.530, 19738.41
1281.013, 19753.55
1281.495, 19775.24
1281.977, 19797.71
1282.459, 19809.85
1282.941, 19789.07
1283.423, 19724.98
1283.905, 19695.76
1284.387, 19701.33
1284.870, 19712.63
1285.352, 19710.41
1285.834, 19709.78
1286.316, 19727.60
1286.798, 19747.65
1287.280, 19748.09
1287.762, 19728.04
1288.244, 19732.87
1288.726, 19759.04
1289.208, 19776.90
1289.691, 19761.06
1290.173, 19745.45
1290.655, 19748.39
1291.137, 19754.60
1291.619, 19747.81
1292.101, 19730.56
1292.583, 19737.58
1293.065, 19764.00
1293.548, 19771.05
1294.030, 19718.54
1294.512, 19673.54
1294.994, 19645.46
1295.476, 19627.90
1295.958, 19616.12
1296.440, 19606.22
1296.922, 19595.82
1297.405, 19619.90
1297.887, 19666.08
1298.369, 19665.28
1298.851, 19668.81
1299.333, 19679.83
1299.815, 19686.27
1300.297, 19681.07
1300.779, 19664.24
##END=



