##NAMES=Hingganite-(Y)
##RRUFFID=R070466
##IDEAL CHEMISTRY=BeY^3+^(SiO_4_)(OH)
##LOCALITY=Tuften Quarry, Tvedalen, Larvik, Vestfold, Norway
##OWNER=RRUFF
##SOURCE=Michael Scott
##DESCRIPTION=White prismatic crystals
##STATUS=The identification of this mineral has been confirmed only by single crystal X-ray diffraction.
##URL=rruff.info/R070466
172.5823, 7860.389
173.0644, 7869.240
173.5465, 7869.324
174.0287, 7881.596
174.5108, 7929.858
174.9929, 7988.498
175.4750, 8027.859
175.9571, 8043.466
176.4392, 8054.596
176.9214, 8081.965
177.4035, 8119.845
177.8856, 8152.713
178.3677, 8166.075
178.8498, 8170.419
179.3319, 8184.120
179.8141, 8212.478
180.2962, 8242.588
180.7783, 8254.783
181.2604, 8252.586
181.7425, 8255.773
182.2246, 8285.481
182.7068, 8330.012
183.1889, 8361.307
183.6710, 8369.637
184.1531, 8368.753
184.6352, 8381.188
185.1173, 8406.414
185.5995, 8432.779
186.0816, 8450.790
186.5637, 8462.186
187.0458, 8473.626
187.5279, 8486.271
188.0100, 8500.116
188.4922, 8513.184
188.9743, 8525.236
189.4564, 8541.824
189.9385, 8572.969
190.4206, 8616.274
190.9027, 8653.063
191.3849, 8676.394
191.8670, 8689.123
192.3491, 8702.211
192.8312, 8715.993
193.3133, 8729.068
193.7954, 8737.104
194.2776, 8740.332
194.7597, 8750.178
195.2418, 8774.015
195.7239, 8809.630
196.2060, 8840.885
196.6881, 8867.653
197.1703, 8889.810
197.6524, 8906.705
198.1345, 8918.016
198.6166, 8926.208
199.0987, 8929.722
199.5808, 8928.549
200.0630, 8934.014
200.5451, 8946.711
201.0272, 8965.311
201.5093, 8989.531
201.9914, 9020.693
202.4735, 9050.540
202.9557, 9077.878
203.4378, 9103.633
203.9199, 9112.832
204.4020, 9097.509
204.8841, 9071.418
205.3662, 9072.119
205.8484, 9106.585
206.3305, 9144.230
206.8126, 9164.235
207.2947, 9161.891
207.7768, 9173.339
208.2589, 9208.920
208.7411, 9257.936
209.2232, 9279.037
209.7053, 9262.226
210.1874, 9241.459
210.6695, 9241.366
211.1517, 9267.557
211.6338, 9290.641
212.1159, 9307.032
212.5980, 9317.317
213.0801, 9324.773
213.5622, 9329.104
214.0444, 9331.029
214.5265, 9327.468
215.0086, 9311.281
215.4907, 9314.157
215.9728, 9349.336
216.4549, 9412.953
216.9371, 9451.098
217.4192, 9453.517
217.9013, 9445.058
218.3834, 9449.705
218.8655, 9473.340
219.3476, 9493.591
219.8298, 9503.292
220.3119, 9502.169
220.7940, 9514.374
221.2761, 9549.594
221.7582, 9587.016
222.2403, 9601.150
222.7225, 9577.799
223.2046, 9563.395
223.6867, 9571.423
224.1688, 9604.448
224.6509, 9631.200
225.1330, 9649.113
225.6152, 9663.481
226.0973, 9683.065
226.5794, 9716.210
227.0615, 9736.555
227.5436, 9731.256
228.0257, 9692.497
228.5079, 9676.055
228.9900, 9691.054
229.4721, 9721.373
229.9542, 9743.189
230.4363, 9750.711
230.9184, 9760.352
231.4006, 9779.173
231.8827, 9811.671
232.3648, 9832.916
232.8469, 9836.054
233.3290, 9832.148
233.8111, 9842.179
234.2933, 9878.554
234.7754, 9908.035
235.2575, 9916.346
235.7396, 9892.585
236.2217, 9882.896
236.7038, 9889.947
237.1860, 9909.830
237.6681, 9936.414
238.1502, 9977.175
238.6323, 10012.78
239.1144, 10036.15
239.5965, 10043.32
240.0787, 10047.48
240.5608, 10043.67
241.0429, 10038.67
241.5250, 10050.37
242.0071, 10095.18
242.4892, 10131.86
242.9714, 10139.33
243.4535, 10095.46
243.9356, 10075.34
244.4177, 10087.28
244.8998, 10120.90
245.3819, 10150.78
245.8641, 10182.29
246.3462, 10202.18
246.8283, 10200.59
247.3104, 10160.38
247.7925, 10140.40
248.2746, 10148.65
248.7568, 10176.00
249.2389, 10196.10
249.7210, 10203.00
250.2031, 10211.63
250.6852, 10230.80
251.1674, 10268.77
251.6495, 10296.25
252.1316, 10306.24
252.6137, 10306.11
253.0958, 10321.96
253.5779, 10369.81
254.0601, 10408.84
254.5422, 10411.69
255.0243, 10353.17
255.5064, 10325.43
255.9885, 10343.86
256.4706, 10393.79
256.9528, 10426.73
257.4349, 10437.61
257.9170, 10439.85
258.3991, 10438.00
258.8812, 10425.77
259.3633, 10428.27
259.8455, 10453.29
260.3276, 10492.86
260.8097, 10517.01
261.2918, 10517.92
261.7739, 10518.12
262.2560, 10532.28
262.7382, 10568.10
263.2203, 10594.35
263.7024, 10606.48
264.1845, 10608.64
264.6666, 10616.89
265.1487, 10635.59
265.6309, 10651.22
266.1130, 10652.11
266.5951, 10630.07
267.0772, 10624.13
267.5593, 10641.61
268.0414, 10675.41
268.5236, 10700.55
269.0057, 10714.51
269.4878, 10726.42
269.9699, 10742.36
270.4520, 10763.51
270.9341, 10783.70
271.4163, 10804.98
271.8984, 10823.75
272.3805, 10824.45
272.8626, 10799.30
273.3447, 10779.10
273.8268, 10786.46
274.3090, 10826.23
274.7911, 10860.48
275.2732, 10886.95
275.7553, 10904.64
276.2374, 10906.35
276.7195, 10887.47
277.2017, 10870.65
277.6838, 10870.94
278.1659, 10889.58
278.6480, 10910.73
279.1301, 10934.65
279.6122, 10958.68
280.0944, 10976.38
280.5765, 10986.72
281.0586, 10996.05
281.5407, 11011.07
282.0228, 11031.91
282.5049, 11040.24
282.9871, 11030.39
283.4692, 11012.39
283.9513, 11007.91
284.4334, 11017.70
284.9155, 11031.88
285.3976, 11045.14
285.8798, 11057.62
286.3619, 11071.93
286.8440, 11089.75
287.3261, 11107.05
287.8082, 11111.87
288.2903, 11104.02
288.7725, 11104.14
289.2546, 11134.20
289.7367, 11186.71
290.2188, 11216.55
290.7009, 11214.71
291.1830, 11201.08
291.6652, 11209.46
292.1473, 11238.50
292.6294, 11268.49
293.1115, 11287.98
293.5936, 11299.55
294.0757, 11311.26
294.5579, 11323.15
295.0400, 11337.32
295.5221, 11360.17
296.0042, 11389.92
296.4863, 11414.69
296.9684, 11432.21
297.4506, 11440.09
297.9327, 11426.57
298.4148, 11385.95
298.8969, 11345.51
299.3790, 11338.15
299.8611, 11358.98
300.3433, 11392.24
300.8254, 11446.72
301.3075, 11503.78
301.7896, 11525.70
302.2717, 11506.33
302.7538, 11480.33
303.2360, 11483.02
303.7181, 11505.98
304.2002, 11529.05
304.6823, 11542.58
305.1644, 11550.95
305.6465, 11556.37
306.1287, 11558.33
306.6108, 11565.74
307.0929, 11594.63
307.5750, 11633.43
308.0571, 11662.06
308.5392, 11667.45
309.0214, 11661.17
309.5035, 11644.03
309.9856, 11615.60
310.4677, 11606.16
310.9498, 11661.32
311.4319, 11742.01
311.9141, 11794.92
312.3962, 11768.05
312.8783, 11731.66
313.3604, 11738.00
313.8426, 11785.90
314.3247, 11825.87
314.8068, 11821.90
315.2889, 11799.62
315.7710, 11785.92
316.2531, 11792.43
316.7353, 11806.56
317.2174, 11826.85
317.6995, 11852.18
318.1816, 11872.10
318.6637, 11872.02
319.1458, 11870.19
319.6280, 11881.27
320.1101, 11927.66
320.5922, 11968.41
321.0743, 11987.44
321.5564, 11988.70
322.0385, 11994.37
322.5207, 12019.54
323.0028, 12045.08
323.4849, 12058.70
323.9670, 12041.65
324.4491, 12032.96
324.9312, 12046.29
325.4134, 12074.51
325.8955, 12090.80
326.3776, 12068.38
326.8597, 12050.97
327.3418, 12060.35
327.8239, 12140.01
328.3061, 12186.57
328.7882, 12173.38
329.2703, 12124.92
329.7524, 12104.24
330.2345, 12135.08
330.7166, 12170.50
331.1988, 12193.90
331.6809, 12199.54
332.1630, 12205.50
332.6451, 12213.79
333.1272, 12221.71
333.6093, 12223.37
334.0915, 12213.13
334.5736, 12205.47
335.0557, 12205.64
335.5378, 12215.40
336.0199, 12224.82
336.5020, 12233.92
336.9842, 12242.76
337.4663, 12250.52
337.9484, 12254.73
338.4305, 12265.06
338.9126, 12287.16
339.3947, 12321.05
339.8769, 12345.30
340.3590, 12357.41
340.8411, 12365.39
341.3232, 12378.75
341.8053, 12398.25
342.2874, 12416.58
342.7696, 12432.41
343.2517, 12445.57
343.7338, 12452.98
344.2159, 12453.84
344.6980, 12453.73
345.1801, 12459.29
345.6623, 12469.83
346.1444, 12475.47
346.6265, 12471.86
347.1086, 12464.06
347.5907, 12461.49
348.0728, 12464.23
348.5550, 12476.20
349.0371, 12505.83
349.5192, 12547.72
350.0013, 12586.44
350.4834, 12621.17
350.9655, 12647.65
351.4477, 12653.58
351.9298, 12642.89
352.4119, 12634.53
352.8940, 12644.02
353.3761, 12662.34
353.8582, 12676.00
354.3404, 12684.10
354.8225, 12684.54
355.3046, 12663.18
355.7867, 12631.59
356.2688, 12617.48
356.7509, 12649.69
357.2331, 12697.09
357.7152, 12732.87
358.1973, 12754.75
358.6794, 12767.86
359.1615, 12769.82
359.6436, 12766.31
360.1258, 12765.24
360.6079, 12774.63
361.0900, 12783.20
361.5721, 12780.22
362.0542, 12765.85
362.5363, 12761.94
363.0185, 12784.12
363.5006, 12817.79
363.9827, 12849.56
364.4648, 12890.20
364.9469, 12914.38
365.4290, 12904.98
365.9112, 12867.58
366.3933, 12841.22
366.8754, 12826.18
367.3575, 12829.09
367.8396, 12854.04
368.3217, 12936.68
368.8039, 12997.74
369.2860, 13025.57
369.7681, 13027.71
370.2502, 13027.33
370.7323, 13022.57
371.2144, 13017.11
371.6966, 13011.96
372.1787, 13005.79
372.6608, 13002.75
373.1429, 12999.48
373.6250, 13001.20
374.1071, 13018.40
374.5893, 13059.60
375.0714, 13099.44
375.5535, 13130.37
376.0356, 13152.11
376.5177, 13168.55
376.9998, 13179.72
377.4820, 13185.32
377.9641, 13184.16
378.4462, 13175.65
378.9283, 13162.69
379.4104, 13139.03
379.8925, 13112.12
380.3747, 13124.06
380.8568, 13180.83
381.3389, 13239.91
381.8210, 13262.13
382.3031, 13251.67
382.7852, 13244.21
383.2674, 13245.60
383.7495, 13254.16
384.2316, 13266.67
384.7137, 13283.35
385.1958, 13305.02
385.6779, 13342.60
386.1601, 13384.45
386.6422, 13402.85
387.1243, 13391.33
387.6064, 13368.23
388.0885, 13336.26
388.5706, 13306.00
389.0528, 13305.72
389.5349, 13386.95
390.0170, 13483.03
390.4991, 13526.57
390.9812, 13510.81
391.4633, 13481.74
391.9455, 13460.76
392.4276, 13446.51
392.9097, 13437.25
393.3918, 13434.68
393.8739, 13434.89
394.3561, 13433.22
394.8382, 13430.84
395.3203, 13438.43
395.8024, 13473.45
396.2845, 13511.56
396.7667, 13535.53
397.2488, 13520.91
397.7309, 13518.71
398.2130, 13551.13
398.6951, 13604.75
399.1772, 13637.32
399.6594, 13620.60
400.1415, 13602.31
400.6236, 13600.58
401.1057, 13624.52
401.5878, 13643.45
402.0699, 13655.29
402.5521, 13663.13
403.0342, 13670.80
403.5163, 13675.36
403.9984, 13685.38
404.4805, 13706.31
404.9626, 13738.31
405.4448, 13757.65
405.9269, 13759.50
406.4090, 13757.55
406.8911, 13769.90
407.3732, 13801.63
407.8553, 13810.91
408.3375, 13782.37
408.8196, 13731.02
409.3017, 13700.54
409.7838, 13691.15
410.2659, 13700.43
410.7480, 13734.60
411.2302, 13788.58
411.7123, 13839.31
412.1944, 13886.76
412.6765, 13922.01
413.1586, 13925.18
413.6407, 13902.70
414.1229, 13882.92
414.6050, 13874.91
415.0871, 13880.13
415.5692, 13910.27
416.0513, 13967.67
416.5334, 14013.10
417.0156, 14000.91
417.4977, 13960.29
417.9798, 13935.19
418.4619, 13953.71
418.9440, 13981.92
419.4261, 14000.09
419.9083, 14009.35
420.3904, 14018.38
420.8725, 14028.55
421.3546, 14041.31
421.8367, 14058.33
422.3188, 14085.51
422.8010, 14107.44
423.2831, 14117.60
423.7652, 14120.07
424.2473, 14124.04
424.7294, 14132.96
425.2115, 14141.61
425.6937, 14147.39
426.1758, 14148.19
426.6579, 14154.29
427.1400, 14168.51
427.6221, 14186.25
428.1042, 14203.49
428.5864, 14221.25
429.0685, 14235.97
429.5506, 14244.37
430.0327, 14248.25
430.5148, 14263.53
430.9969, 14295.00
431.4791, 14326.26
431.9612, 14345.33
432.4433, 14351.68
432.9254, 14355.58
433.4075, 14357.42
433.8896, 14357.99
434.3718, 14358.18
434.8539, 14358.04
435.3360, 14358.96
435.8181, 14360.93
436.3002, 14364.49
436.7823, 14371.47
437.2645, 14381.97
437.7466, 14394.76
438.2287, 14409.32
438.7108, 14425.25
439.1929, 14441.63
439.6750, 14456.14
440.1572, 14472.73
440.6393, 14501.15
441.1214, 14537.59
441.6035, 14563.25
442.0856, 14555.34
442.5677, 14538.68
443.0499, 14535.66
443.5320, 14557.19
444.0141, 14575.73
444.4962, 14574.34
444.9783, 14563.79
445.4604, 14562.11
445.9426, 14585.13
446.4247, 14607.26
446.9068, 14617.94
447.3889, 14614.23
447.8710, 14617.42
448.3531, 14638.55
448.8353, 14660.60
449.3174, 14670.61
449.7995, 14659.18
450.2816, 14651.08
450.7637, 14646.98
451.2458, 14648.01
451.7280, 14658.92
452.2101, 14680.85
452.6922, 14709.63
453.1743, 14750.35
453.6564, 14806.66
454.1385, 14829.70
454.6207, 14810.56
455.1028, 14776.67
455.5849, 14765.49
456.0670, 14776.04
456.5491, 14792.04
457.0313, 14809.10
457.5134, 14827.16
457.9955, 14846.92
458.4776, 14868.39
458.9597, 14886.89
459.4418, 14899.61
459.9240, 14906.70
460.4061, 14905.31
460.8882, 14887.87
461.3703, 14878.52
461.8524, 14911.57
462.3345, 14969.59
462.8167, 15011.44
463.2988, 15006.80
463.7809, 14987.64
464.2630, 14968.54
464.7451, 14949.78
465.2272, 14943.24
465.7094, 14961.75
466.1915, 14990.17
466.6736, 15015.12
467.1557, 15031.16
467.6378, 15046.78
468.1199, 15058.76
468.6021, 15070.17
469.0842, 15095.66
469.5663, 15158.74
470.0484, 15208.25
470.5305, 15218.85
471.0126, 15174.24
471.4948, 15144.69
471.9769, 15131.97
472.4590, 15131.70
472.9411, 15139.60
473.4232, 15156.64
473.9053, 15175.20
474.3875, 15192.34
474.8696, 15209.53
475.3517, 15232.96
475.8338, 15262.96
476.3159, 15294.72
476.7981, 15325.95
477.2802, 15356.07
477.7623, 15384.89
478.2444, 15414.53
478.7265, 15436.26
479.2086, 15429.45
479.6908, 15405.72
480.1729, 15394.30
480.6550, 15422.75
481.1371, 15460.30
481.6192, 15483.72
482.1013, 15492.40
482.5835, 15489.48
483.0656, 15453.14
483.5477, 15418.42
484.0298, 15416.16
484.5119, 15488.00
484.9940, 15546.23
485.4762, 15570.06
485.9583, 15566.90
486.4404, 15555.85
486.9225, 15523.14
487.4046, 15497.98
487.8867, 15489.58
488.3689, 15500.73
488.8510, 15511.10
489.3331, 15514.31
489.8152, 15524.48
490.2973, 15562.34
490.7794, 15639.53
491.2616, 15692.01
491.7437, 15704.71
492.2258, 15690.37
492.7079, 15682.19
493.1900, 15680.56
493.6721, 15679.27
494.1543, 15672.26
494.6364, 15662.51
495.1185, 15659.79
495.6006, 15664.54
496.0827, 15676.47
496.5648, 15698.02
497.0470, 15726.42
497.5291, 15755.77
498.0112, 15789.03
498.4933, 15817.85
498.9754, 15830.40
499.4576, 15831.13
499.9397, 15836.24
500.4218, 15861.01
500.9039, 15887.28
501.3860, 15903.26
501.8681, 15904.60
502.3503, 15904.37
502.8324, 15899.27
503.3145, 15896.48
503.7966, 15904.80
504.2787, 15942.68
504.7608, 15969.32
505.2430, 15971.84
505.7251, 15955.61
506.2072, 15960.66
506.6893, 16000.65
507.1714, 16037.47
507.6535, 16048.37
508.1357, 16029.82
508.6178, 16011.67
509.0999, 15990.97
509.5820, 15979.49
510.0641, 16002.13
510.5462, 16055.71
511.0284, 16098.56
511.5105, 16115.56
511.9926, 16115.88
512.4747, 16112.34
512.9568, 16105.98
513.4389, 16105.55
513.9210, 16117.69
514.4031, 16139.09
514.8853, 16169.76
515.3674, 16214.70
515.8495, 16248.12
516.3316, 16244.18
516.8137, 16221.78
517.2958, 16207.04
517.7780, 16203.90
518.2601, 16214.07
518.7422, 16248.37
519.2244, 16302.90
519.7065, 16339.22
520.1886, 16332.34
520.6707, 16324.08
521.1528, 16336.04
521.6349, 16388.12
522.1171, 16406.08
522.5992, 16372.18
523.0813, 16321.84
523.5634, 16305.27
524.0455, 16329.54
524.5276, 16348.69
525.0098, 16345.76
525.4919, 16331.62
525.9740, 16349.31
526.4561, 16400.00
526.9382, 16446.50
527.4203, 16454.21
527.9025, 16440.62
528.3846, 16453.71
528.8667, 16503.25
529.3488, 16545.72
529.8309, 16524.23
530.3130, 16470.80
530.7952, 16437.11
531.2773, 16453.34
531.7594, 16485.71
532.2415, 16528.77
532.7236, 16576.77
533.2057, 16603.30
533.6879, 16574.75
534.1700, 16543.25
534.6521, 16535.38
535.1342, 16561.70
535.6163, 16588.51
536.0984, 16618.06
536.5806, 16645.71
537.0627, 16665.60
537.5448, 16674.62
538.0269, 16682.65
538.5090, 16686.31
538.9911, 16692.10
539.4733, 16732.61
539.9554, 16816.06
540.4375, 16876.54
540.9196, 16859.67
541.4017, 16785.10
541.8839, 16747.43
542.3660, 16750.87
542.8481, 16766.64
543.3302, 16761.33
543.8123, 16749.09
544.2944, 16760.29
544.7766, 16816.86
545.2587, 16877.41
545.7408, 16913.94
546.2229, 16928.80
546.7050, 16928.84
547.1871, 16906.48
547.6693, 16878.77
548.1514, 16845.40
548.6335, 16803.20
549.1156, 16793.29
549.5977, 16858.26
550.0798, 16933.20
550.5620, 16972.12
551.0441, 16948.54
551.5262, 16942.18
552.0083, 16962.20
552.4904, 16996.67
552.9725, 17022.59
553.4547, 17038.71
553.9368, 17052.54
554.4189, 17063.89
554.9010, 17075.29
555.3831, 17101.88
555.8652, 17144.10
556.3474, 17179.38
556.8295, 17184.33
557.3116, 17170.52
557.7937, 17161.49
558.2758, 17161.04
558.7579, 17163.27
559.2401, 17158.20
559.7222, 17153.51
560.2043, 17161.16
560.6864, 17195.29
561.1685, 17233.50
561.6506, 17271.31
562.1328, 17306.54
562.6149, 17329.16
563.0970, 17327.14
563.5791, 17320.88
564.0612, 17318.96
564.5433, 17323.05
565.0255, 17324.66
565.5076, 17321.64
565.9897, 17318.67
566.4718, 17319.42
566.9539, 17323.26
567.4360, 17337.15
567.9182, 17367.82
568.4003, 17401.64
568.8824, 17400.43
569.3645, 17367.77
569.8466, 17347.49
570.3287, 17377.07
570.8109, 17428.60
571.2930, 17447.71
571.7751, 17435.74
572.2572, 17434.73
572.7393, 17489.89
573.2214, 17563.27
573.7036, 17616.27
574.1857, 17637.28
574.6678, 17645.75
575.1499, 17642.98
575.6320, 17633.26
576.1141, 17622.75
576.5963, 17608.99
577.0784, 17598.32
577.5605, 17589.30
578.0426, 17583.44
578.5247, 17592.28
579.0068, 17623.38
579.4890, 17653.53
579.9711, 17670.22
580.4532, 17672.58
580.9353, 17677.37
581.4174, 17686.18
581.8995, 17690.77
582.3817, 17670.37
582.8638, 17635.74
583.3459, 17630.70
583.8280, 17677.86
584.3101, 17735.05
584.7922, 17748.57
585.2744, 17733.07
585.7565, 17726.58
586.2386, 17761.52
586.7207, 17798.90
587.2028, 17812.97
587.6849, 17803.56
588.1671, 17797.60
588.6492, 17800.81
589.1313, 17810.67
589.6134, 17827.37
590.0955, 17861.43
590.5776, 17877.81
591.0598, 17865.83
591.5419, 17845.77
592.0240, 17842.91
592.5061, 17857.88
592.9882, 17890.41
593.4703, 17949.87
593.9525, 18017.11
594.4346, 18034.53
594.9167, 18005.84
595.3988, 17983.18
595.8809, 18005.99
596.3630, 18050.38
596.8452, 18078.17
597.3273, 18087.66
597.8094, 18091.54
598.2915, 18097.83
598.7736, 18102.77
599.2557, 18101.96
599.7379, 18090.50
600.2200, 18081.44
600.7021, 18069.82
601.1842, 18065.08
601.6663, 18083.23
602.1484, 18148.97
602.6306, 18203.85
603.1127, 18236.51
603.5948, 18250.43
604.0769, 18261.85
604.5590, 18270.86
605.0411, 18276.79
605.5233, 18280.57
606.0054, 18281.63
606.4875, 18269.64
606.9696, 18242.95
607.4517, 18220.79
607.9338, 18226.70
608.4160, 18250.14
608.8981, 18268.51
609.3802, 18274.71
609.8623, 18282.09
610.3444, 18301.54
610.8265, 18328.90
611.3087, 18357.58
611.7908, 18399.46
612.2729, 18427.68
612.7550, 18414.54
613.2371, 18370.15
613.7192, 18369.82
614.2014, 18454.17
614.6835, 18535.02
615.1656, 18577.51
615.6477, 18578.86
616.1298, 18563.26
616.6119, 18522.79
617.0941, 18486.25
617.5762, 18487.71
618.0583, 18521.75
618.5404, 18539.50
619.0225, 18528.57
619.5046, 18514.89
619.9868, 18536.75
620.4689, 18581.55
620.9510, 18619.20
621.4331, 18627.00
621.9152, 18631.94
622.3973, 18657.17
622.8795, 18696.29
623.3616, 18723.02
623.8437, 18715.43
624.3258, 18705.05
624.8079, 18708.85
625.2900, 18731.33
625.7722, 18739.46
626.2543, 18716.10
626.7364, 18699.71
627.2185, 18729.13
627.7006, 18817.39
628.1827, 18862.51
628.6649, 18846.99
629.1470, 18810.91
629.6291, 18817.04
630.1112, 18856.52
630.5933, 18881.78
631.0754, 18864.17
631.5576, 18840.90
632.0397, 18868.47
632.5218, 18930.82
633.0039, 18977.46
633.4860, 18969.63
633.9681, 18949.12
634.4503, 18939.80
634.9324, 18943.45
635.4145, 18943.10
635.8966, 18916.53
636.3787, 18900.63
636.8608, 18919.67
637.3430, 18998.24
637.8251, 19041.61
638.3072, 19039.20
638.7893, 19017.08
639.2714, 19004.01
639.7535, 19000.13
640.2357, 19001.48
640.7178, 19008.19
641.1999, 19018.06
641.6820, 19024.60
642.1641, 19030.71
642.6462, 19046.41
643.1284, 19091.97
643.6105, 19137.63
644.0926, 19155.10
644.5747, 19148.11
645.0568, 19142.41
645.5389, 19142.15
646.0211, 19150.38
646.5032, 19173.32
646.9853, 19220.76
647.4674, 19244.64
647.9495, 19226.79
648.4316, 19205.92
648.9138, 19218.79
649.3959, 19275.02
649.8780, 19304.12
650.3601, 19293.61
650.8422, 19268.33
651.3243, 19265.08
651.8065, 19280.35
652.2886, 19295.23
652.7707, 19299.82
653.2528, 19305.83
653.7349, 19336.83
654.2170, 19381.89
654.6992, 19408.02
655.1813, 19367.80
655.6634, 19332.52
656.1455, 19353.16
656.6276, 19431.47
657.1097, 19475.33
657.5919, 19430.58
658.0740, 19390.44
658.5561, 19405.60
659.0382, 19496.38
659.5203, 19550.22
660.0024, 19558.88
660.4846, 19550.92
660.9667, 19558.33
661.4488, 19578.40
661.9309, 19585.07
662.4130, 19571.67
662.8951, 19550.11
663.3773, 19529.11
663.8594, 19511.78
664.3415, 19505.03
664.8236, 19511.73
665.3057, 19529.81
665.7878, 19567.27
666.2700, 19616.87
666.7521, 19654.11
667.2342, 19661.04
667.7163, 19666.49
668.1984, 19684.26
668.6805, 19714.08
669.1627, 19718.89
669.6448, 19689.09
670.1269, 19656.08
670.6090, 19638.12
671.0911, 19634.93
671.5732, 19642.25
672.0554, 19660.28
672.5375, 19685.14
673.0196, 19721.33
673.5017, 19759.97
673.9838, 19785.59
674.4659, 19796.63
674.9481, 19788.04
675.4302, 19726.97
675.9123, 19652.49
676.3944, 19620.68
676.8765, 19686.81
677.3586, 19750.24
677.8408, 19792.56
678.3229, 19817.96
678.8050, 19835.44
679.2871, 19840.11
679.7692, 19849.68
680.2513, 19874.51
680.7335, 19909.06
681.2156, 19926.37
681.6977, 19926.59
682.1799, 19908.20
682.6620, 19844.11
683.1441, 19770.51
683.6262, 19754.37
684.1083, 19800.52
684.5905, 19853.19
685.0726, 19880.16
685.5547, 19895.16
686.0368, 19909.37
686.5189, 19925.41
687.0010, 19939.35
687.4832, 19948.69
687.9653, 19956.83
688.4474, 19966.37
688.9295, 19975.81
689.4116, 19992.96
689.8937, 20024.37
690.3759, 20056.45
690.8580, 20056.56
691.3401, 20027.93
691.8222, 20008.51
692.3043, 20015.33
692.7864, 20035.57
693.2686, 20052.71
693.7507, 20067.94
694.2328, 20085.11
694.7149, 20118.22
695.1970, 20143.87
695.6791, 20140.25
696.1613, 20107.25
696.6434, 20093.54
697.1255, 20132.57
697.6076, 20164.66
698.0897, 20154.41
698.5718, 20088.40
699.0540, 20082.77
699.5361, 20155.45
700.0182, 20234.16
700.5003, 20245.28
700.9824, 20201.96
701.4645, 20161.13
701.9467, 20126.06
702.4288, 20116.52
702.9109, 20178.47
703.3930, 20271.23
703.8751, 20333.91
704.3572, 20337.98
704.8394, 20324.31
705.3215, 20294.26
705.8036, 20259.05
706.2857, 20240.43
706.7678, 20244.56
707.2499, 20256.45
707.7321, 20276.18
708.2142, 20301.25
708.6963, 20327.70
709.1784, 20357.82
709.6605, 20367.27
710.1426, 20327.15
710.6248, 20266.38
711.1069, 20258.26
711.5890, 20297.06
712.0711, 20344.84
712.5532, 20384.34
713.0353, 20417.10
713.5175, 20447.38
713.9996, 20476.39
714.4817, 20485.63
714.9638, 20437.74
715.4459, 20394.62
715.9280, 20398.20
716.4102, 20475.40
716.8923, 20505.37
717.3744, 20471.87
717.8565, 20422.18
718.3386, 20404.14
718.8207, 20414.97
719.3029, 20421.85
719.7850, 20418.52
720.2671, 20417.02
720.7492, 20434.92
721.2313, 20463.87
721.7134, 20489.31
722.1956, 20511.47
722.6777, 20522.44
723.1598, 20504.34
723.6419, 20474.71
724.1240, 20468.27
724.6061, 20517.43
725.0883, 20552.21
725.5704, 20555.71
726.0525, 20538.55
726.5346, 20533.98
727.0167, 20541.91
727.4988, 20563.96
727.9810, 20613.35
728.4631, 20670.76
728.9452, 20680.14
729.4273, 20648.92
729.9094, 20624.85
730.3915, 20645.73
730.8737, 20679.86
731.3558, 20706.21
731.8379, 20722.97
732.3200, 20727.26
732.8021, 20699.23
733.2842, 20675.08
733.7664, 20675.87
734.2485, 20709.37
734.7306, 20727.28
735.2127, 20726.37
735.6948, 20717.50
736.1769, 20707.46
736.6591, 20696.87
737.1412, 20690.12
737.6233, 20687.40
738.1054, 20689.73
738.5875, 20700.59
739.0696, 20716.31
739.5518, 20732.27
740.0339, 20749.45
740.5160, 20762.15
740.9981, 20754.74
741.4802, 20746.67
741.9623, 20767.42
742.4445, 20849.39
742.9266, 20900.52
743.4087, 20902.32
743.8908, 20877.30
744.3729, 20867.05
744.8550, 20871.70
745.3372, 20885.83
745.8193, 20916.45
746.3014, 20943.72
746.7835, 20925.22
747.2656, 20876.36
747.7477, 20842.40
748.2299, 20857.57
748.7120, 20882.46
749.1941, 20900.40
749.6762, 20910.91
750.1583, 20912.96
750.6404, 20889.44
751.1226, 20879.66
751.6047, 20898.74
752.0868, 20943.92
752.5689, 20990.45
753.0510, 21040.18
753.5331, 21075.68
754.0153, 21071.21
754.4974, 21047.52
754.9795, 21063.18
755.4616, 21116.32
755.9437, 21156.47
756.4258, 21134.36
756.9080, 21096.50
757.3901, 21081.71
757.8722, 21099.29
758.3543, 21109.11
758.8364, 21102.49
759.3185, 21088.06
759.8007, 21065.96
760.2828, 21028.00
760.7649, 21022.31
761.2470, 21054.06
761.7291, 21100.81
762.2112, 21148.90
762.6934, 21193.41
763.1755, 21215.79
763.6576, 21211.16
764.1397, 21193.99
764.6218, 21155.91
765.1039, 21120.24
765.5861, 21115.15
766.0682, 21164.63
766.5503, 21217.37
767.0324, 21282.20
767.5145, 21336.22
767.9966, 21347.97
768.4788, 21304.56
768.9609, 21268.02
769.4430, 21244.74
769.9251, 21236.78
770.4072, 21257.90
770.8893, 21300.14
771.3715, 21328.78
771.8536, 21327.68
772.3357, 21316.62
772.8178, 21309.27
773.2999, 21304.76
773.7820, 21301.40
774.2642, 21288.66
774.7463, 21288.93
775.2284, 21311.80
775.7105, 21350.37
776.1926, 21392.68
776.6747, 21447.60
777.1569, 21470.72
777.6390, 21435.78
778.1211, 21369.85
778.6032, 21338.55
779.0853, 21339.80
779.5674, 21360.07
780.0496, 21407.40
780.5317, 21458.62
781.0138, 21492.74
781.4959, 21512.91
781.9780, 21536.00
782.4601, 21593.64
782.9423, 21625.98
783.4244, 21600.82
783.9065, 21525.62
784.3886, 21491.88
784.8707, 21509.79
785.3528, 21530.78
785.8350, 21517.97
786.3171, 21488.36
786.7992, 21510.86
787.2813, 21581.04
787.7634, 21646.40
788.2455, 21672.09
788.7277, 21678.45
789.2098, 21677.54
789.6919, 21670.31
790.1740, 21670.57
790.6561, 21696.03
791.1382, 21715.78
791.6204, 21710.63
792.1025, 21676.51
792.5846, 21670.72
793.0667, 21697.23
793.5488, 21734.94
794.0309, 21784.59
794.5131, 21830.48
794.9952, 21815.98
795.4773, 21736.96
795.9594, 21665.78
796.4415, 21644.36
796.9236, 21659.30
797.4058, 21712.20
797.8879, 21826.81
798.3700, 21886.52
798.8521, 21845.50
799.3342, 21785.00
799.8163, 21763.12
800.2985, 21786.87
800.7806, 21790.58
801.2627, 21768.34
801.7448, 21748.54
802.2269, 21768.94
802.7090, 21810.70
803.1912, 21833.42
803.6733, 21827.00
804.1554, 21825.93
804.6375, 21861.54
805.1196, 21906.39
805.6017, 21936.21
806.0839, 21947.23
806.5660, 21940.10
807.0481, 21903.25
807.5302, 21862.63
808.0123, 21838.69
808.4944, 21831.42
808.9766, 21866.97
809.4587, 21958.54
809.9408, 22042.21
810.4229, 22023.22
810.9050, 21957.83
811.3871, 21939.80
811.8693, 22009.74
812.3514, 22077.03
812.8335, 22104.53
813.3156, 22109.83
813.7977, 22111.63
814.2798, 22107.53
814.7620, 22107.94
815.2441, 22115.01
815.7262, 22123.61
816.2083, 22123.94
816.6904, 22118.44
817.1725, 22124.38
817.6547, 22147.67
818.1368, 22173.24
818.6189, 22191.69
819.1010, 22201.87
819.5831, 22201.38
820.0652, 22177.84
820.5474, 22162.26
821.0295, 22155.49
821.5116, 22163.18
821.9937, 22201.74
822.4758, 22288.47
822.9579, 22321.52
823.4401, 22274.25
823.9222, 22208.05
824.4043, 22224.68
824.8864, 22293.45
825.3685, 22329.22
825.8506, 22299.00
826.3328, 22257.43
826.8149, 22222.71
827.2970, 22205.31
827.7791, 22219.11
828.2612, 22314.32
828.7433, 22374.21
829.2255, 22388.46
829.7076, 22373.89
830.1897, 22346.94
830.6718, 22307.86
831.1539, 22277.77
831.6360, 22259.28
832.1182, 22255.63
832.6003, 22276.82
833.0824, 22313.90
833.5645, 22353.78
834.0466, 22401.35
834.5287, 22434.96
835.0109, 22425.58
835.4930, 22408.07
835.9751, 22433.16
836.4572, 22528.31
836.9393, 22586.50
837.4214, 22592.21
837.9036, 22568.04
838.3857, 22533.85
838.8678, 22495.32
839.3499, 22478.92
839.8320, 22496.97
840.3141, 22519.78
840.7963, 22517.94
841.2784, 22509.00
841.7605, 22514.91
842.2426, 22557.51
842.7247, 22591.22
843.2068, 22610.66
843.6890, 22622.65
844.1711, 22632.97
844.6532, 22641.22
845.1353, 22659.42
845.6174, 22692.64
846.0995, 22722.16
846.5817, 22720.78
847.0638, 22701.25
847.5460, 22685.11
848.0281, 22676.37
848.5102, 22674.53
848.9923, 22689.92
849.4744, 22706.27
849.9565, 22704.32
850.4387, 22667.74
850.9208, 22656.38
851.4029, 22678.85
851.8850, 22712.43
852.3671, 22732.51
852.8492, 22741.39
853.3314, 22745.77
853.8135, 22745.28
854.2956, 22748.90
854.7777, 22773.95
855.2598, 22801.27
855.7419, 22809.61
856.2241, 22780.96
856.7062, 22765.16
857.1883, 22767.40
857.6704, 22780.09
858.1525, 22799.55
858.6346, 22826.18
859.1168, 22847.12
859.5989, 22861.32
860.0810, 22871.93
860.5631, 22876.21
861.0452, 22881.13
861.5273, 22900.95
862.0095, 22942.11
862.4916, 22969.29
862.9737, 22955.22
863.4558, 22932.79
863.9379, 22924.92
864.4200, 22935.60
864.9022, 22938.61
865.3843, 22930.83
865.8664, 22927.22
866.3485, 22933.61
866.8306, 22954.95
867.3127, 23020.76
867.7949, 23132.14
868.2770, 23210.88
868.7591, 23176.43
869.2412, 23116.38
869.7233, 23095.06
870.2054, 23126.76
870.6876, 23138.88
871.1697, 23122.96
871.6518, 23103.43
872.1339, 23093.79
872.6160, 23092.73
873.0981, 23087.50
873.5803, 23078.81
874.0624, 23082.41
874.5445, 23128.94
875.0266, 23177.77
875.5087, 23180.12
875.9908, 23139.69
876.4730, 23130.12
876.9551, 23200.08
877.4372, 23269.23
877.9193, 23318.00
878.4014, 23345.09
878.8835, 23332.33
879.3657, 23278.51
879.8478, 23240.40
880.3299, 23256.19
880.8120, 23300.37
881.2941, 23352.52
881.7762, 23404.65
882.2584, 23430.62
882.7405, 23394.38
883.2226, 23357.53
883.7047, 23335.96
884.1868, 23330.39
884.6689, 23348.61
885.1511, 23397.16
885.6332, 23435.28
886.1153, 23447.13
886.5974, 23446.22
887.0795, 23457.06
887.5616, 23475.16
888.0438, 23488.26
888.5259, 23481.55
889.0080, 23479.49
889.4901, 23500.35
889.9722, 23531.18
890.4543, 23545.07
890.9365, 23527.33
891.4186, 23532.55
891.9007, 23578.01
892.3828, 23630.84
892.8649, 23632.59
893.3470, 23596.89
893.8292, 23570.89
894.3113, 23566.38
894.7934, 23574.72
895.2755, 23607.55
895.7576, 23641.47
896.2397, 23647.98
896.7219, 23581.50
897.2040, 23562.96
897.6861, 23609.55
898.1682, 23676.11
898.6503, 23718.37
899.1324, 23738.76
899.6146, 23749.76
900.0967, 23751.66
900.5788, 23754.66
901.0609, 23772.69
901.5430, 23792.59
902.0251, 23800.25
902.5073, 23790.40
902.9894, 23784.69
903.4715, 23778.84
903.9536, 23786.31
904.4357, 23828.61
904.9178, 23901.23
905.4000, 23900.27
905.8821, 23825.10
906.3642, 23762.83
906.8463, 23795.99
907.3284, 23859.62
907.8105, 23878.78
908.2927, 23855.80
908.7748, 23848.76
909.2569, 23898.82
909.7390, 23939.62
910.2211, 23948.27
910.7032, 23930.92
911.1854, 23909.46
911.6675, 23883.12
912.1496, 23887.63
912.6317, 23960.26
913.1138, 24049.47
913.5959, 24093.63
914.0781, 24101.25
914.5602, 24093.37
915.0423, 24047.94
915.5244, 24024.60
916.0065, 24055.96
916.4886, 24107.98
916.9708, 24109.69
917.4529, 24053.49
917.9350, 24033.58
918.4171, 24078.46
918.8992, 24139.24
919.3813, 24149.96
919.8635, 24131.86
920.3456, 24120.20
920.8277, 24126.49
921.3098, 24135.75
921.7919, 24142.64
922.2740, 24151.44
922.7562, 24169.30
923.2383, 24201.94
923.7204, 24206.26
924.2025, 24175.41
924.6846, 24147.92
925.1667, 24169.75
925.6489, 24215.92
926.1310, 24247.85
926.6131, 24260.95
927.0952, 24266.03
927.5773, 24262.06
928.0594, 24256.14
928.5416, 24249.71
929.0237, 24242.86
929.5058, 24250.42
929.9879, 24274.06
930.4700, 24300.34
930.9521, 24317.37
931.4343, 24333.80
931.9164, 24380.87
932.3985, 24444.35
932.8806, 24471.24
933.3627, 24377.51
933.8448, 24308.77
934.3270, 24348.00
934.8091, 24445.25
935.2912, 24470.88
935.7733, 24409.27
936.2554, 24385.67
936.7375, 24448.67
937.2197, 24527.36
937.7018, 24498.28
938.1839, 24409.08
938.6660, 24359.24
939.1481, 24401.27
939.6302, 24444.34
940.1124, 24459.22
940.5945, 24461.86
941.0766, 24464.84
941.5587, 24464.64
942.0408, 24486.55
942.5229, 24534.01
943.0051, 24590.95
943.4872, 24660.04
943.9693, 24720.96
944.4514, 24731.79
944.9335, 24685.06
945.4156, 24650.45
945.8978, 24669.05
946.3799, 24695.43
946.8620, 24708.15
947.3441, 24707.50
947.8262, 24695.21
948.3083, 24668.50
948.7905, 24659.89
949.2726, 24699.19
949.7547, 24760.61
950.2368, 24818.64
950.7189, 24868.65
951.2010, 24895.51
951.6832, 24865.70
952.1653, 24845.95
952.6474, 24865.86
953.1295, 24900.62
953.6116, 24889.54
954.0938, 24830.34
954.5759, 24788.55
955.0580, 24778.70
955.5401, 24792.57
956.0222, 24841.68
956.5043, 24900.60
956.9865, 24929.04
957.4686, 24896.42
957.9507, 24878.35
958.4328, 24896.56
958.9149, 24922.27
959.3970, 24931.20
959.8792, 24922.86
960.3613, 24929.27
960.8434, 24952.07
961.3255, 24970.35
961.8076, 24957.38
962.2897, 24938.67
962.7719, 24941.69
963.2540, 24967.18
963.7361, 24990.55
964.2182, 25005.20
964.7003, 25019.83
965.1824, 25037.08
965.6646, 25056.14
966.1467, 25074.98
966.6288, 25093.04
967.1109, 25106.04
967.5930, 25102.04
968.0751, 25105.77
968.5573, 25154.25
969.0394, 25220.36
969.5215, 25255.77
970.0036, 25234.35
970.4857, 25213.19
970.9678, 25193.55
971.4500, 25179.33
971.9321, 25176.60
972.4142, 25183.86
972.8963, 25197.21
973.3784, 25216.83
973.8605, 25232.95
974.3427, 25232.63
974.8248, 25230.38
975.3069, 25235.60
975.7890, 25248.45
976.2711, 25281.73
976.7532, 25348.15
977.2354, 25394.60
977.7175, 25379.27
978.1996, 25329.30
978.6817, 25315.37
979.1638, 25329.91
979.6459, 25342.73
980.1281, 25327.34
980.6102, 25319.96
981.0923, 25340.18
981.5744, 25377.81
982.0565, 25418.16
982.5386, 25466.16
983.0208, 25484.45
983.5029, 25458.41
983.9850, 25426.77
984.4671, 25448.64
984.9492, 25494.83
985.4313, 25514.43
985.9135, 25486.83
986.3956, 25472.13
986.8777, 25501.24
987.3598, 25537.11
987.8419, 25563.10
988.3240, 25579.24
988.8062, 25564.39
989.2883, 25518.04
989.7704, 25489.49
990.2525, 25532.52
990.7346, 25594.42
991.2167, 25625.12
991.6989, 25627.62
992.1810, 25619.33
992.6631, 25580.88
993.1452, 25568.10
993.6273, 25600.01
994.1094, 25653.87
994.5916, 25683.92
995.0737, 25694.22
995.5558, 25705.93
996.0379, 25723.60
996.5200, 25746.14
997.0021, 25782.82
997.4843, 25818.38
997.9664, 25835.81
998.4485, 25831.91
998.9306, 25814.36
999.4127, 25774.68
999.8948, 25748.35
1000.377, 25773.03
1000.859, 25828.08
1001.341, 25874.95
1001.823, 25909.52
1002.305, 25915.34
1002.788, 25841.16
1003.270, 25783.26
1003.752, 25786.75
1004.234, 25834.66
1004.716, 25890.83
1005.198, 25956.53
1005.680, 26012.78
1006.162, 26056.03
1006.644, 26081.37
1007.127, 26069.74
1007.609, 26040.30
1008.091, 26020.96
1008.573, 26020.73
1009.055, 26024.97
1009.537, 26036.29
1010.019, 26045.19
1010.501, 26041.05
1010.984, 26026.21
1011.466, 26022.69
1011.948, 26031.00
1012.430, 26055.81
1012.912, 26130.08
1013.394, 26194.85
1013.876, 26201.78
1014.358, 26160.54
1014.841, 26122.29
1015.323, 26075.68
1015.805, 26070.58
1016.287, 26128.12
1016.769, 26211.48
1017.251, 26277.01
1017.733, 26317.70
1018.215, 26306.99
1018.697, 26211.54
1019.180, 26149.70
1019.662, 26204.03
1020.144, 26281.88
1020.626, 26316.25
1021.108, 26303.54
1021.590, 26310.68
1022.072, 26339.13
1022.554, 26352.81
1023.036, 26303.07
1023.519, 26244.19
1024.001, 26233.29
1024.483, 26263.69
1024.965, 26305.29
1025.447, 26367.98
1025.929, 26416.10
1026.411, 26442.90
1026.893, 26454.23
1027.375, 26458.70
1027.858, 26456.20
1028.340, 26439.17
1028.822, 26398.58
1029.304, 26383.51
1029.786, 26461.58
1030.268, 26550.16
1030.750, 26574.59
1031.232, 26527.04
1031.715, 26518.25
1032.197, 26553.72
1032.679, 26593.09
1033.161, 26608.87
1033.643, 26616.80
1034.125, 26652.91
1034.607, 26702.02
1035.089, 26720.53
1035.572, 26661.08
1036.054, 26612.20
1036.536, 26583.40
1037.018, 26576.05
1037.500, 26603.69
1037.982, 26659.87
1038.464, 26691.10
1038.946, 26689.29
1039.428, 26680.33
1039.911, 26683.02
1040.393, 26687.48
1040.875, 26679.20
1041.357, 26657.46
1041.839, 26673.46
1042.321, 26739.61
1042.803, 26793.38
1043.285, 26799.27
1043.767, 26785.52
1044.250, 26807.77
1044.732, 26849.33
1045.214, 26873.22
1045.696, 26844.19
1046.178, 26827.42
1046.660, 26840.71
1047.142, 26864.12
1047.624, 26880.00
1048.107, 26888.56
1048.589, 26892.97
1049.071, 26893.36
1049.553, 26893.03
1050.035, 26884.13
1050.517, 26884.29
1050.999, 26918.86
1051.481, 26981.00
1051.964, 27003.79
1052.446, 26967.21
1052.928, 26958.85
1053.410, 27010.71
1053.892, 27084.80
1054.374, 27123.88
1054.856, 27136.54
1055.338, 27132.90
1055.820, 27098.45
1056.302, 27097.60
1056.785, 27191.92
1057.267, 27278.19
1057.749, 27280.40
1058.231, 27206.68
1058.713, 27189.31
1059.195, 27223.33
1059.677, 27243.76
1060.159, 27176.67
1060.642, 27115.06
1061.124, 27127.05
1061.606, 27193.96
1062.088, 27265.24
1062.570, 27354.70
1063.052, 27389.29
1063.534, 27346.24
1064.016, 27291.88
1064.499, 27312.92
1064.981, 27372.55
1065.463, 27410.69
1065.945, 27418.26
1066.427, 27428.27
1066.909, 27463.13
1067.391, 27485.23
1067.873, 27475.95
1068.355, 27445.43
1068.838, 27424.32
1069.320, 27414.70
1069.802, 27428.24
1070.284, 27486.60
1070.766, 27539.92
1071.248, 27554.52
1071.730, 27549.17
1072.212, 27546.07
1072.694, 27543.76
1073.177, 27555.25
1073.659, 27583.35
1074.141, 27606.08
1074.623, 27599.41
1075.105, 27582.04
1075.587, 27572.16
1076.069, 27571.79
1076.551, 27586.42
1077.034, 27628.99
1077.516, 27667.45
1077.998, 27694.46
1078.480, 27718.76
1078.962, 27757.80
1079.444, 27806.71
1079.926, 27854.84
1080.408, 27903.28
1080.891, 27924.39
1081.373, 27876.83
1081.855, 27821.33
1082.337, 27791.59
1082.819, 27786.63
1083.301, 27792.35
1083.783, 27808.82
1084.265, 27844.02
1084.747, 27923.45
1085.229, 27992.60
1085.712, 27982.91
1086.194, 27935.70
1086.676, 27917.63
1087.158, 27949.09
1087.640, 27982.43
1088.122, 28020.90
1088.604, 28047.52
1089.086, 28031.33
1089.569, 28000.03
1090.051, 28015.89
1090.533, 28070.88
1091.015, 28101.17
1091.497, 28045.59
1091.979, 28010.48
1092.461, 28022.49
1092.943, 28064.59
1093.426, 28118.12
1093.908, 28176.04
1094.390, 28196.11
1094.872, 28164.76
1095.354, 28135.53
1095.836, 28143.08
1096.318, 28165.55
1096.800, 28189.73
1097.282, 28214.89
1097.765, 28239.87
1098.247, 28265.44
1098.729, 28276.19
1099.211, 28257.24
1099.693, 28232.84
1100.175, 28216.74
1100.657, 28216.75
1101.139, 28247.98
1101.622, 28347.49
1102.104, 28403.03
1102.586, 28403.06
1103.068, 28390.67
1103.550, 28401.63
1104.032, 28424.43
1104.514, 28435.31
1104.996, 28436.15
1105.479, 28438.94
1105.961, 28460.37
1106.443, 28466.97
1106.925, 28445.77
1107.407, 28414.15
1107.889, 28381.92
1108.371, 28360.13
1108.853, 28435.85
1109.335, 28632.65
1109.818, 28770.96
1110.300, 28680.93
1110.782, 28549.76
1111.264, 28488.42
1111.746, 28487.96
1112.228, 28495.54
1112.710, 28511.07
1113.192, 28543.10
1113.674, 28599.16
1114.157, 28660.64
1114.639, 28724.00
1115.121, 28773.42
1115.603, 28784.08
1116.085, 28736.34
1116.567, 28715.44
1117.049, 28724.99
1117.531, 28747.04
1118.014, 28781.51
1118.496, 28814.03
1118.978, 28816.07
1119.460, 28796.59
1119.942, 28778.50
1120.424, 28759.53
1120.906, 28756.96
1121.388, 28771.13
1121.870, 28803.03
1122.353, 28876.34
1122.835, 28965.78
1123.317, 28973.28
1123.799, 28901.29
1124.281, 28860.82
1124.763, 28957.72
1125.245, 29038.18
1125.727, 29035.28
1126.209, 28987.49
1126.692, 28980.18
1127.174, 29009.78
1127.656, 29045.62
1128.138, 29082.08
1128.620, 29116.24
1129.102, 29157.89
1129.584, 29186.11
1130.066, 29172.73
1130.549, 29123.50
1131.031, 29118.71
1131.513, 29161.98
1131.995, 29193.02
1132.477, 29175.58
1132.959, 29157.57
1133.441, 29215.25
1133.923, 29292.16
1134.406, 29300.93
1134.888, 29192.17
1135.370, 29139.85
1135.852, 29149.67
1136.334, 29194.98
1136.816, 29287.47
1137.298, 29386.59
1137.780, 29424.35
1138.262, 29413.08
1138.745, 29387.72
1139.227, 29306.73
1139.709, 29298.36
1140.191, 29397.79
1140.673, 29519.50
1141.155, 29568.60
1141.637, 29565.01
1142.119, 29542.75
1142.601, 29508.55
1143.084, 29502.51
1143.566, 29573.06
1144.048, 29634.94
1144.530, 29666.95
1145.012, 29674.86
1145.494, 29663.14
1145.976, 29636.51
1146.458, 29611.89
1146.941, 29589.73
1147.423, 29593.01
1147.905, 29674.51
1148.387, 29745.77
1148.869, 29753.47
1149.351, 29709.06
1149.833, 29659.81
1150.315, 29608.76
1150.797, 29604.76
1151.280, 29680.15
1151.762, 29765.77
1152.244, 29835.45
1152.726, 29870.66
1153.208, 29838.08
1153.690, 29726.16
1154.172, 29701.51
1154.654, 29768.00
1155.136, 29831.98
1155.619, 29835.22
1156.101, 29818.17
1156.583, 29795.62
1157.065, 29786.79
1157.547, 29836.83
1158.029, 29984.22
1158.511, 30070.18
1158.993, 30084.62
1159.476, 30072.70
1159.958, 30053.52
1160.440, 30042.24
1160.922, 30072.56
1161.404, 30130.07
1161.886, 30155.49
1162.368, 30122.61
1162.850, 30095.46
1163.333, 30080.07
1163.815, 30076.59
1164.297, 30084.47
1164.779, 30104.61
1165.261, 30148.83
1165.743, 30215.03
1166.225, 30252.69
1166.707, 30226.59
1167.189, 30208.22
1167.672, 30213.00
1168.154, 30236.03
1168.636, 30282.74
1169.118, 30337.26
1169.600, 30359.42
1170.082, 30336.95
1170.564, 30321.74
1171.046, 30332.87
1171.528, 30352.39
1172.011, 30375.81
1172.493, 30401.37
1172.975, 30426.86
1173.457, 30450.35
1173.939, 30464.93
1174.421, 30463.27
1174.903, 30466.19
1175.385, 30479.08
1175.868, 30503.15
1176.350, 30545.95
1176.832, 30601.43
1177.314, 30622.25
1177.796, 30614.84
1178.278, 30612.23
1178.760, 30622.99
1179.242, 30651.42
1179.724, 30731.04
1180.207, 30804.55
1180.689, 30811.31
1181.171, 30752.60
1181.653, 30722.58
1182.135, 30719.96
1182.617, 30717.68
1183.099, 30677.06
1183.581, 30656.50
1184.063, 30711.52
1184.546, 30793.14
1185.028, 30828.73
1185.510, 30817.05
1185.992, 30801.75
1186.474, 30785.64
1186.956, 30789.29
1187.438, 30846.88
1187.920, 30910.46
1188.403, 30963.60
1188.885, 30993.39
1189.367, 30954.90
1189.849, 30840.78
1190.331, 30780.73
1190.813, 30796.14
1191.295, 30849.27
1191.777, 30932.78
1192.260, 31019.54
1192.742, 31097.18
1193.224, 31160.01
1193.706, 31180.39
1194.188, 31153.95
1194.670, 31124.27
1195.152, 31096.19
1195.634, 31089.85
1196.116, 31148.18
1196.599, 31221.41
1197.081, 31258.36
1197.563, 31256.93
1198.045, 31266.61
1198.527, 31289.71
1199.009, 31302.99
1199.491, 31298.54
1199.973, 31279.95
1200.455, 31225.32
1200.938, 31173.29
1201.420, 31178.73
1201.902, 31253.48
1202.384, 31305.85
1202.866, 31332.47
1203.348, 31364.73
1203.830, 31433.56
1204.312, 31491.56
1204.795, 31467.37
1205.277, 31404.81
1205.759, 31368.13
1206.241, 31364.11
1206.723, 31389.97
1207.205, 31452.63
1207.687, 31499.61
1208.169, 31478.73
1208.651, 31442.83
1209.134, 31446.54
1209.616, 31480.27
1210.098, 31529.16
1210.580, 31605.77
1211.062, 31651.77
1211.544, 31662.93
1212.026, 31664.38
1212.508, 31666.94
1212.990, 31677.33
1213.473, 31715.07
1213.955, 31765.82
1214.437, 31786.13
1214.919, 31760.36
1215.401, 31749.78
1215.883, 31760.56
1216.365, 31777.37
1216.847, 31790.51
1217.330, 31799.62
1217.812, 31797.96
1218.294, 31791.24
1218.776, 31803.26
1219.258, 31839.23
1219.740, 31882.99
1220.222, 31937.56
1220.704, 31972.57
1221.187, 31922.99
1221.669, 31862.75
1222.151, 31884.21
1222.633, 31978.12
1223.115, 32032.35
1223.597, 32027.99
1224.079, 32051.12
1224.561, 32125.83
1225.043, 32193.47
1225.526, 32181.02
1226.008, 32133.96
1226.490, 32092.04
1226.972, 32060.96
1227.454, 32051.65
1227.936, 32067.37
1228.418, 32086.90
1228.900, 32104.82
1229.382, 32125.42
1229.865, 32158.12
1230.347, 32192.92
1230.829, 32213.24
1231.311, 32218.97
1231.793, 32259.27
1232.275, 32343.16
1232.757, 32389.55
1233.239, 32362.67
1233.722, 32321.37
1234.204, 32318.75
1234.686, 32341.72
1235.168, 32385.54
1235.650, 32449.35
1236.132, 32480.61
1236.614, 32476.61
1237.096, 32473.42
1237.578, 32487.75
1238.061, 32500.82
1238.543, 32486.18
1239.025, 32466.51
1239.507, 32468.71
1239.989, 32493.46
1240.471, 32519.75
1240.953, 32547.58
1241.435, 32566.11
1241.917, 32559.95
1242.400, 32561.55
1242.882, 32631.41
1243.364, 32698.13
1243.846, 32667.00
1244.328, 32530.00
1244.810, 32517.13
1245.292, 32624.80
1245.774, 32735.22
1246.257, 32803.33
1246.739, 32839.76
1247.221, 32833.11
1247.703, 32811.01
1248.185, 32798.05
1248.667, 32793.66
1249.149, 32838.61
1249.631, 32926.00
1250.114, 32986.55
1250.596, 32953.10
1251.078, 32918.95
1251.560, 32928.89
1252.042, 32962.54
1252.524, 33010.87
1253.006, 33070.81
1253.488, 33079.41
1253.970, 33042.55
1254.453, 33006.78
1254.935, 32982.38
1255.417, 32983.04
1255.899, 33027.64
1256.381, 33086.12
1256.863, 33137.93
1257.345, 33180.76
1257.827, 33193.10
1258.310, 33179.75
1258.792, 33170.57
1259.274, 33187.39
1259.756, 33198.28
1260.238, 33178.74
1260.720, 33174.56
1261.202, 33259.08
1261.684, 33394.07
1262.167, 33446.54
1262.649, 33425.88
1263.131, 33403.46
1263.613, 33412.13
1264.095, 33415.38
1264.577, 33404.71
1265.059, 33393.79
1265.541, 33396.83
1266.023, 33410.57
1266.505, 33425.36
1266.988, 33443.58
1267.470, 33479.90
1267.952, 33571.71
1268.434, 33617.22
1268.916, 33593.58
1269.398, 33561.98
1269.880, 33595.32
1270.362, 33656.20
1270.845, 33691.21
1271.327, 33702.55
1271.809, 33711.08
1272.291, 33709.99
1272.773, 33738.93
1273.255, 33808.15
1273.737, 33877.82
1274.219, 33925.83
1274.702, 33938.20
1275.184, 33873.38
1275.666, 33756.50
1276.148, 33688.34
1276.630, 33674.31
1277.112, 33696.73
1277.594, 33756.02
1278.076, 33826.93
1278.558, 33910.89
1279.041, 33976.13
1279.523, 33987.61
1280.005, 33960.27
1280.487, 33924.85
1280.969, 33880.74
1281.451, 33880.46
1281.933, 33931.41
1282.415, 34000.86
1282.897, 34107.89
1283.380, 34180.23
1283.862, 34145.51
1284.344, 34070.38
1284.826, 34098.76
1285.308, 34209.26
1285.790, 34242.77
1286.272, 34183.15
1286.754, 34135.54
1287.237, 34164.79
1287.719, 34210.49
1288.201, 34263.41
1288.683, 34305.20
1289.165, 34290.39
1289.647, 34240.66
1290.129, 34208.63
1290.611, 34200.98
1291.094, 34227.11
1291.576, 34333.19
1292.058, 34407.62
1292.540, 34422.96
1293.022, 34410.97
1293.504, 34411.36
1293.986, 34416.05
1294.468, 34409.02
1294.950, 34390.52
1295.432, 34381.41
1295.915, 34380.30
1296.397, 34400.02
1296.879, 34447.60
1297.361, 34496.89
1297.843, 34514.43
1298.325, 34521.00
1298.807, 34544.63
1299.289, 34580.57
1299.772, 34586.31
1300.254, 34558.91
1300.736, 34518.18
1301.218, 34461.85
1301.700, 34441.62
1302.182, 34530.21
1302.664, 34646.27
1303.146, 34761.50
1303.629, 34847.40
1304.111, 34818.84
1304.593, 34686.89
1305.075, 34584.73
1305.557, 34530.34
1306.039, 34527.64
1306.521, 34651.81
1307.003, 34736.37
1307.485, 34695.05
1307.968, 34606.50
1308.450, 34613.80
1308.932, 34693.39
1309.414, 34789.98
1309.896, 34893.54
1310.378, 34952.06
1310.860, 34898.84
1311.342, 34868.66
1311.824, 34892.17
1312.307, 34936.68
1312.789, 34955.08
1313.271, 34965.41
1313.753, 35003.55
1314.235, 35066.73
1314.717, 35103.55
1315.199, 35106.96
1315.681, 35095.27
1316.164, 35069.29
1316.646, 35040.50
1317.128, 34997.40
1317.610, 34976.68
##END=



