##NAMES=Hiortdahlite
##RRUFFID=R060092
##IDEAL CHEMISTRY=Na_2_Ca_4_(Ca_0.5_Zr^4+^_0.5_)Zr^4+^(Si_2_O_7_)_2_OF_3_
##LOCALITY=Vesuvius, Italy
##OWNER=RRUFF
##SOURCE=University of Arizona Mineral Museum
##DESCRIPTION=Tan colored prismatic crystals, variety guarinite
##STATUS=The identification of this mineral has been confirmed by single-crystal X-ray diffraction.
##URL=rruff.info/R060092
93.74609, 2.544926
94.22821, 2.473462
94.71033, 2.510448
95.19244, 2.637348
95.67456, 2.787090
96.15668, 2.922905
96.63879, 3.061036
97.12091, 3.267030
97.60303, 3.551995
98.08514, 3.867001
98.56726, 4.131001
99.04938, 4.343340
99.53149, 4.573810
100.0136, 4.849948
100.4957, 5.170345
100.9778, 5.534204
101.4600, 5.942443
101.9421, 6.390361
102.4242, 6.850211
102.9063, 7.315145
103.3884, 7.819714
103.8705, 8.391239
104.3527, 9.070243
104.8348, 9.712124
105.3169, 10.30510
105.7990, 10.85151
106.2811, 11.41857
106.7632, 12.05838
107.2454, 12.65946
107.7275, 13.12000
108.2096, 13.31434
108.6917, 13.55232
109.1738, 13.87366
109.6559, 14.28504
110.1381, 14.74554
110.6202, 15.27708
111.1023, 15.85292
111.5844, 16.44730
112.0665, 17.02435
112.5486, 17.66073
113.0308, 18.39417
113.5129, 19.26590
113.9950, 20.10949
114.4771, 20.79772
114.9592, 21.46071
115.4413, 22.29798
115.9235, 23.60064
116.4056, 24.90251
116.8877, 25.96119
117.3698, 26.67776
117.8519, 27.34963
118.3340, 28.11564
118.8162, 28.91819
119.2983, 29.61684
119.7804, 30.01530
120.2625, 30.36801
120.7446, 30.87949
121.2267, 31.68851
121.7089, 32.54240
122.1910, 33.32655
122.6731, 34.03747
123.1552, 34.65908
123.6373, 35.25135
124.1194, 35.72850
124.6016, 35.97356
125.0837, 35.69242
125.5658, 35.34957
126.0479, 35.43188
126.5300, 35.92908
127.0121, 36.60979
127.4943, 37.37280
127.9764, 38.17584
128.4585, 38.94183
128.9406, 39.61634
129.4227, 40.23292
129.9048, 40.82229
130.3869, 41.37634
130.8691, 41.96804
131.3512, 42.73603
131.8333, 43.50447
132.3154, 43.98234
132.7975, 44.19302
133.2796, 44.25267
133.7618, 44.41015
134.2439, 44.69800
134.7260, 45.01353
135.2081, 45.14300
135.6902, 45.08074
136.1723, 45.09930
136.6545, 45.41457
137.1366, 46.02417
137.6187, 46.45194
138.1008, 46.63626
138.5829, 46.67265
139.0650, 46.81797
139.5472, 47.12510
140.0293, 47.34561
140.5114, 47.30534
140.9935, 46.94607
141.4756, 46.58117
141.9577, 46.20354
142.4399, 45.83513
142.9220, 45.60091
143.4041, 45.52195
143.8862, 45.53110
144.3683, 45.60379
144.8504, 45.81475
145.3326, 45.91081
145.8147, 45.79861
146.2968, 45.49489
146.7789, 45.38433
147.2610, 45.63162
147.7431, 45.92455
148.2253, 45.99017
148.7074, 45.60623
149.1895, 45.30695
149.6716, 45.19821
150.1537, 45.29798
150.6358, 45.40259
151.1180, 45.57793
151.6001, 45.72831
152.0822, 45.75132
152.5643, 45.43761
153.0464, 45.20314
153.5285, 45.14399
154.0107, 45.29998
154.4928, 45.47292
154.9749, 45.75040
155.4570, 46.01233
155.9391, 46.10826
156.4212, 45.89043
156.9034, 45.62100
157.3855, 45.36309
157.8676, 45.09496
158.3497, 44.93188
158.8318, 44.97096
159.3139, 45.11987
159.7961, 45.22037
160.2782, 45.17789
160.7603, 45.11992
161.2424, 45.10999
161.7245, 45.17858
162.2066, 45.24794
162.6888, 45.29586
163.1709, 45.32583
163.6530, 45.34561
164.1351, 45.35275
164.6172, 45.35248
165.0993, 45.34453
165.5815, 45.31453
166.0636, 45.29911
166.5457, 45.30515
167.0278, 45.33591
167.5099, 45.40377
167.9921, 45.60975
168.4742, 45.81066
168.9563, 45.86092
169.4384, 45.59517
169.9205, 45.34260
170.4026, 45.36060
170.8848, 45.60022
171.3669, 45.85626
171.8490, 46.07941
172.3311, 46.22821
172.8132, 46.24143
173.2953, 46.00020
173.7775, 45.72400
174.2596, 45.61520
174.7417, 45.65907
175.2238, 45.75612
175.7059, 45.87058
176.1880, 45.98519
176.6702, 46.06929
177.1523, 46.08864
177.6344, 46.09002
178.1165, 46.13080
178.5986, 46.20979
179.0807, 46.30283
179.5629, 46.38802
180.0450, 46.47239
180.5271, 46.57177
181.0092, 46.70459
181.4913, 46.84990
181.9734, 46.97574
182.4556, 47.08168
182.9377, 47.16359
183.4198, 47.20457
183.9019, 47.21479
184.3840, 47.23044
184.8661, 47.26122
185.3483, 47.30720
185.8304, 47.38385
186.3125, 47.49606
186.7946, 47.59464
187.2767, 47.60397
187.7588, 47.54078
188.2409, 47.50164
188.7231, 47.58197
189.2052, 47.72411
189.6873, 47.67939
190.1694, 47.41647
190.6515, 47.12087
191.1336, 47.04693
191.6158, 47.18043
192.0979, 47.31528
192.5800, 47.35403
193.0621, 47.31400
193.5442, 47.30977
194.0263, 47.34489
194.5085, 47.40454
194.9906, 47.47627
195.4727, 47.55996
195.9548, 47.63079
196.4369, 47.66835
196.9190, 47.67506
197.4012, 47.70076
197.8833, 47.75068
198.3654, 47.80631
198.8475, 47.83460
199.3296, 47.83326
199.8117, 47.82775
200.2939, 47.82890
200.7760, 47.83668
201.2581, 47.84742
201.7402, 47.86786
202.2223, 47.88071
202.7044, 47.84782
203.1866, 47.76166
203.6687, 47.67603
204.1508, 47.60909
204.6329, 47.55979
205.1150, 47.54443
205.5971, 47.56342
206.0793, 47.61694
206.5614, 47.71622
207.0435, 47.87321
207.5256, 48.02679
208.0077, 48.16162
208.4898, 48.28595
208.9720, 48.32344
209.4541, 48.23071
209.9362, 48.08948
210.4183, 48.09051
210.9004, 48.28421
211.3825, 48.47082
211.8647, 48.54293
212.3468, 48.45811
212.8289, 48.45739
213.3110, 48.57266
213.7931, 48.75213
214.2752, 48.87279
214.7574, 48.91323
215.2395, 48.94911
215.7216, 49.02160
216.2037, 49.14943
216.6858, 49.24225
217.1679, 49.29456
217.6501, 49.31527
218.1322, 49.31244
218.6143, 49.25466
219.0964, 49.23951
219.5785, 49.34466
220.0606, 49.66865
220.5428, 49.78674
221.0249, 49.60070
221.5070, 49.25338
221.9891, 49.09094
222.4712, 49.16727
222.9533, 49.32457
223.4355, 49.51822
223.9176, 49.81668
224.3997, 49.95392
224.8818, 49.87108
225.3639, 49.65496
225.8460, 49.49486
226.3282, 49.38550
226.8103, 49.34388
227.2924, 49.38043
227.7745, 49.50676
228.2566, 49.69447
228.7387, 50.00843
229.2209, 50.35832
229.7030, 50.50775
230.1851, 50.33913
230.6672, 50.16463
231.1493, 50.11845
231.6314, 50.25904
232.1136, 50.37069
232.5957, 50.44297
233.0778, 50.49146
233.5599, 50.54298
234.0420, 50.57756
234.5241, 50.64664
235.0063, 50.77496
235.4884, 50.98073
235.9705, 51.19398
236.4526, 51.45814
236.9347, 51.71122
237.4168, 51.80455
237.8990, 51.59814
238.3811, 51.45485
238.8632, 51.53503
239.3453, 51.94628
239.8274, 52.25551
240.3095, 52.43783
240.7917, 52.53352
241.2738, 52.61692
241.7559, 52.69394
242.2380, 52.74963
242.7201, 52.77174
243.2022, 52.74260
243.6844, 52.74714
244.1665, 52.81798
244.6486, 52.90457
245.1307, 52.90886
245.6128, 52.76342
246.0949, 52.64863
246.5771, 52.61841
247.0592, 52.67768
247.5413, 52.80553
248.0234, 53.02288
248.5055, 53.29309
248.9876, 53.57832
249.4697, 53.97342
249.9519, 54.21023
250.4340, 54.16429
250.9161, 53.75793
251.3982, 53.46941
251.8803, 53.29955
252.3624, 53.25007
252.8446, 53.35268
253.3267, 53.71952
253.8088, 54.01659
254.2909, 54.12940
254.7730, 54.02607
255.2551, 54.00344
255.7373, 54.11113
256.2194, 54.24939
256.7015, 54.28209
257.1836, 54.13946
257.6657, 54.04570
258.1479, 54.07228
258.6300, 54.22822
259.1121, 54.32659
259.5942, 54.33083
260.0763, 54.31774
260.5584, 54.37896
261.0406, 54.55035
261.5227, 54.70204
262.0048, 54.80452
262.4869, 54.85796
262.9690, 54.90050
263.4511, 54.92576
263.9333, 54.95074
264.4154, 55.00253
264.8975, 55.10984
265.3796, 55.16032
265.8617, 55.12266
266.3438, 55.00621
266.8260, 54.87704
267.3081, 54.68969
267.7902, 54.57642
268.2723, 54.71802
268.7544, 55.24353
269.2365, 55.51448
269.7187, 55.32866
270.2008, 54.80311
270.6829, 54.64066
271.1650, 54.95916
271.6471, 55.35577
272.1292, 55.50421
272.6114, 55.35331
273.0935, 55.24482
273.5756, 55.23236
274.0577, 55.28574
274.5398, 55.29359
275.0219, 55.23714
275.5041, 55.18986
275.9862, 55.20404
276.4683, 55.28602
276.9504, 55.36917
277.4325, 55.44769
277.9146, 55.52330
278.3968, 55.63153
278.8788, 55.79852
279.3610, 55.86884
279.8431, 55.66871
280.3252, 55.18456
280.8073, 54.93669
281.2894, 55.00714
281.7715, 55.24853
282.2537, 55.39979
282.7358, 55.45935
283.2179, 55.45564
283.7000, 55.36689
284.1821, 55.19936
284.6642, 55.11357
285.1464, 55.12721
285.6285, 55.18429
286.1106, 55.20200
286.5927, 55.17912
287.0748, 55.14788
287.5569, 55.11749
288.0391, 55.08773
288.5212, 55.06669
289.0033, 55.05650
289.4854, 55.04242
289.9675, 55.00654
290.4496, 54.94954
290.9318, 54.87989
291.4139, 54.77800
291.8960, 54.66765
292.3781, 54.63335
292.8602, 54.67873
293.3423, 54.76595
293.8245, 54.91220
294.3066, 55.08779
294.7887, 55.13985
295.2708, 54.93645
295.7529, 54.62884
296.2350, 54.56587
296.7172, 54.74596
297.1993, 54.95382
297.6814, 55.01811
298.1635, 54.96920
298.6456, 54.88177
299.1277, 54.73393
299.6099, 54.60478
300.0920, 54.66429
300.5741, 54.88694
301.0562, 55.08414
301.5383, 55.09385
302.0204, 54.99298
302.5026, 54.92048
302.9847, 54.89796
303.4668, 54.92063
303.9489, 55.00393
304.4310, 55.13305
304.9131, 55.25950
305.3953, 55.36529
305.8774, 55.44517
306.3595, 55.47605
306.8416, 55.43819
307.3237, 55.41284
307.8058, 55.53584
308.2880, 55.72845
308.7701, 55.81429
309.2522, 55.58595
309.7343, 55.28079
310.2164, 55.11745
310.6985, 55.11990
311.1807, 55.19252
311.6628, 55.32174
312.1449, 55.47200
312.6270, 55.58493
313.1091, 55.65270
313.5912, 55.66734
314.0734, 55.58440
314.5555, 55.40540
315.0376, 55.28358
315.5197, 55.38276
316.0018, 55.54785
316.4839, 55.61520
316.9661, 55.35146
317.4482, 55.14801
317.9303, 55.24608
318.4124, 55.59146
318.8945, 55.84306
319.3766, 55.78801
319.8588, 55.63381
320.3409, 55.53169
320.8230, 55.55400
321.3051, 55.57619
321.7872, 55.62718
322.2693, 55.66327
322.7515, 55.55103
323.2336, 55.04458
323.7157, 54.54381
324.1978, 54.25549
324.6799, 54.33483
325.1620, 54.37501
325.6442, 54.20924
326.1263, 53.98519
326.6084, 53.96456
327.0905, 54.55738
327.5726, 55.00623
328.0547, 55.02591
328.5369, 54.42534
329.0190, 53.99548
329.5011, 53.81145
329.9832, 53.77566
330.4653, 53.78510
330.9474, 53.92014
331.4296, 54.00130
331.9117, 53.97948
332.3938, 53.84919
332.8759, 53.73857
333.3580, 53.61868
333.8401, 53.54518
334.3223, 53.57650
334.8044, 53.79804
335.2865, 53.94899
335.7686, 53.96819
336.2507, 53.88499
336.7328, 53.86057
337.2150, 53.90368
337.6971, 53.98668
338.1792, 54.11758
338.6613, 54.33394
339.1434, 54.42236
339.6255, 54.31151
340.1077, 54.11233
340.5898, 54.08618
341.0719, 54.26302
341.5540, 54.48873
342.0361, 54.71825
342.5182, 54.95679
343.0004, 55.09916
343.4825, 55.13188
343.9646, 55.10006
344.4467, 55.03369
344.9288, 54.93316
345.4109, 54.90414
345.8931, 55.00896
346.3752, 55.21622
346.8573, 55.37958
347.3394, 55.49279
347.8215, 55.62653
348.3036, 55.88023
348.7858, 56.22594
349.2679, 56.53021
349.7500, 56.75341
350.2321, 56.92136
350.7142, 57.06717
351.1964, 57.19115
351.6785, 57.30596
352.1606, 57.43732
352.6427, 57.56188
353.1248, 57.61877
353.6069, 57.57124
354.0891, 57.53392
354.5712, 57.66019
355.0533, 57.90379
355.5354, 58.13499
356.0175, 58.22535
356.4996, 58.29579
356.9818, 58.52038
357.4639, 58.93617
357.9460, 59.28713
358.4281, 59.24727
358.9102, 59.05692
359.3923, 59.06656
359.8745, 59.65376
360.3566, 60.29311
360.8387, 60.63630
361.3208, 60.69973
361.8029, 60.75229
362.2850, 60.87778
362.7672, 61.06510
363.2493, 61.30879
363.7314, 61.69348
364.2135, 62.03145
364.6956, 62.24733
365.1777, 62.36700
365.6599, 62.46659
366.1420, 62.50050
366.6241, 62.56898
367.1062, 62.73084
367.5883, 63.05227
368.0704, 63.33258
368.5526, 63.55000
369.0347, 63.71286
369.5168, 63.83783
369.9989, 63.88637
370.4810, 63.93608
370.9631, 64.01092
371.4453, 64.11791
371.9274, 64.18918
372.4095, 64.20937
372.8916, 64.20502
373.3737, 64.19539
373.8558, 64.16729
374.3380, 64.16315
374.8201, 64.20964
375.3022, 64.28823
375.7843, 64.28340
376.2664, 64.15883
376.7485, 64.02963
377.2307, 63.99824
377.7128, 64.10720
378.1949, 64.02840
378.6770, 63.67402
379.1591, 63.22384
379.6412, 63.05969
380.1234, 63.21250
380.6055, 63.35009
381.0876, 63.31723
381.5697, 63.13997
382.0518, 62.98725
382.5339, 62.86337
383.0161, 62.74634
383.4982, 62.61158
383.9803, 62.46129
384.4624, 62.31461
384.9445, 62.16846
385.4266, 62.03517
385.9088, 61.96510
386.3909, 61.94779
386.8730, 61.88260
387.3551, 61.62733
387.8372, 61.28906
388.3193, 61.07577
388.8015, 61.06477
389.2836, 61.05505
389.7657, 60.83041
390.2478, 60.46032
390.7299, 60.11135
391.2120, 59.83046
391.6942, 59.62801
392.1763, 59.54803
392.6584, 59.60048
393.1405, 59.63914
393.6226, 59.62569
394.1047, 59.54325
394.5869, 59.37341
395.0690, 58.90001
395.5511, 58.54700
396.0332, 58.60018
396.5153, 58.96322
396.9974, 59.11547
397.4796, 58.68183
397.9617, 58.17519
398.4438, 57.88049
398.9259, 57.97974
399.4080, 58.02348
399.8901, 57.94995
400.3723, 57.79931
400.8544, 57.64388
401.3365, 57.37082
401.8186, 57.22809
402.3007, 57.33325
402.7828, 57.73321
403.2649, 57.96144
403.7470, 57.94689
404.2292, 57.83619
404.7113, 57.76453
405.1934, 57.76117
405.6755, 57.70108
406.1576, 57.53865
406.6397, 57.31573
407.1219, 57.19934
407.6040, 57.21538
408.0861, 57.23447
408.5682, 57.13248
409.0503, 56.91485
409.5324, 56.91143
410.0146, 57.18625
410.4967, 57.53072
410.9788, 57.62947
411.4609, 57.50468
411.9430, 57.38015
412.4251, 57.37938
412.9073, 57.42321
413.3894, 57.28215
413.8715, 56.96117
414.3536, 56.69666
414.8357, 56.75127
415.3178, 56.98525
415.8000, 57.13241
416.2821, 57.11437
416.7642, 57.03255
417.2463, 56.96489
417.7284, 56.90894
418.2105, 56.85983
418.6927, 56.79469
419.1748, 56.74870
419.6569, 56.77283
420.1390, 56.88501
420.6211, 56.94410
421.1032, 56.78437
421.5854, 56.57758
422.0675, 56.50900
422.5496, 56.79953
423.0317, 57.05648
423.5138, 57.15486
423.9959, 57.11364
424.4781, 57.07079
424.9602, 56.98950
425.4423, 56.95650
425.9244, 57.02707
426.4065, 57.31818
426.8886, 57.48702
427.3708, 57.46669
427.8529, 57.35209
428.3350, 57.29029
428.8171, 57.30001
429.2992, 57.32507
429.7813, 57.33473
430.2635, 57.33177
430.7456, 57.46957
431.2277, 57.83765
431.7098, 58.14869
432.1919, 58.07358
432.6740, 57.56062
433.1562, 57.35291
433.6383, 57.63195
434.1204, 58.12828
434.6025, 58.26487
435.0846, 58.05016
435.5667, 57.84468
436.0489, 57.85724
436.5310, 58.02415
437.0131, 58.16582
437.4952, 58.28217
437.9773, 58.34047
438.4594, 58.22456
438.9416, 58.03246
439.4237, 57.97858
439.9058, 58.19125
440.3879, 58.49194
440.8700, 58.77551
441.3521, 59.02060
441.8343, 59.15014
442.3164, 58.93708
442.7985, 58.71011
443.2806, 58.77984
443.7627, 59.27205
444.2448, 59.66944
444.7270, 59.65942
445.2091, 59.46657
445.6912, 59.35616
446.1733, 59.45629
446.6554, 59.57741
447.1375, 59.66496
447.6197, 59.72252
448.1018, 59.80780
448.5839, 60.02749
449.0660, 60.18786
449.5481, 60.17723
450.0302, 59.82043
450.5124, 59.66428
450.9945, 59.78959
451.4766, 60.06297
451.9587, 60.26418
452.4408, 60.35776
452.9229, 60.48749
453.4051, 60.72188
453.8872, 61.03771
454.3693, 61.23757
454.8514, 61.29853
455.3335, 61.34678
455.8156, 61.52842
456.2978, 61.81791
456.7799, 61.96243
457.2620, 61.89654
457.7441, 61.75848
458.2262, 61.72043
458.7083, 61.78016
459.1905, 61.92950
459.6726, 62.25938
460.1547, 62.63202
460.6368, 62.83028
461.1189, 62.85899
461.6010, 62.87537
462.0832, 63.05753
462.5653, 63.26423
463.0474, 63.32178
463.5295, 63.12093
464.0116, 62.88319
464.4937, 62.67342
464.9759, 62.51337
465.4580, 62.45500
465.9401, 62.69380
466.4222, 62.88044
466.9043, 62.83228
467.3864, 62.49855
467.8686, 62.23879
468.3507, 62.15929
468.8328, 62.12544
469.3149, 62.03579
469.7970, 61.80320
470.2791, 61.66239
470.7613, 61.68399
471.2434, 61.79191
471.7255, 61.78182
472.2076, 61.63313
472.6897, 61.40894
473.1718, 61.05421
473.6540, 60.57059
474.1361, 60.46987
474.6182, 60.83347
475.1003, 61.28547
475.5824, 61.44820
476.0645, 61.34468
476.5467, 61.16687
477.0288, 60.93277
477.5109, 60.67857
477.9930, 60.43655
478.4751, 60.21649
478.9572, 60.06404
479.4394, 60.00725
479.9215, 60.03131
480.4036, 60.15592
480.8857, 60.38400
481.3678, 60.56700
481.8499, 60.59621
482.3321, 60.52739
482.8142, 60.41765
483.2963, 60.21171
483.7784, 60.05868
484.2605, 60.06634
484.7426, 60.17327
485.2248, 60.22797
485.7069, 60.12090
486.1890, 60.02347
486.6711, 60.00922
487.1532, 60.10755
487.6353, 60.16272
488.1175, 60.13948
488.5996, 60.10360
489.0817, 60.11530
489.5638, 60.21785
490.0459, 60.25259
490.5280, 60.16402
491.0102, 60.02338
491.4923, 60.04646
491.9744, 60.28002
492.4565, 60.43362
492.9386, 60.33766
493.4207, 60.03757
493.9029, 59.83647
494.3850, 59.73480
494.8671, 59.70961
495.3492, 59.80872
495.8313, 59.97040
496.3134, 59.99531
496.7956, 59.78583
497.2777, 59.56004
497.7598, 59.60437
498.2419, 59.82671
498.7240, 59.99377
499.2061, 59.93691
499.6883, 59.82607
500.1704, 59.78698
500.6525, 59.82353
501.1346, 59.85120
501.6167, 59.75655
502.0988, 59.68859
502.5810, 59.76625
503.0631, 60.18267
503.5452, 60.47754
504.0273, 60.48141
504.5094, 60.34961
504.9915, 60.35201
505.4737, 60.58224
505.9558, 60.80666
506.4379, 60.97276
506.9200, 61.08176
507.4021, 61.15618
507.8842, 61.18183
508.3664, 61.20650
508.8485, 61.25266
509.3306, 61.31939
509.8127, 61.46483
510.2948, 61.71980
510.7769, 61.97390
511.2591, 62.00229
511.7412, 61.85550
512.2233, 61.82428
512.7054, 62.09583
513.1875, 62.47149
513.6696, 62.64771
514.1517, 62.65442
514.6339, 62.65550
515.1160, 62.74715
515.5981, 62.88708
516.0802, 63.05437
516.5623, 63.26060
517.0444, 63.41645
517.5266, 63.49463
518.0087, 63.49565
518.4908, 63.41998
518.9729, 63.14001
519.4550, 62.92579
519.9371, 62.84106
520.4193, 62.87096
520.9014, 62.94653
521.3835, 63.12519
521.8656, 63.27730
522.3477, 63.36103
522.8298, 63.37555
523.3120, 63.31075
523.7941, 63.12498
524.2762, 62.94730
524.7583, 62.94571
525.2404, 63.13033
525.7225, 63.16703
526.2047, 62.95578
526.6868, 62.66963
527.1689, 62.64017
527.6510, 62.83257
528.1331, 63.02456
528.6152, 63.10078
529.0974, 63.11706
529.5795, 63.16584
530.0616, 63.24186
530.5437, 63.27744
531.0258, 63.20887
531.5079, 63.08958
531.9901, 62.94764
532.4722, 62.74137
532.9543, 62.64567
533.4364, 62.84149
533.9185, 63.15281
534.4006, 63.34430
534.8828, 63.25748
535.3649, 63.16980
535.8470, 63.13847
536.3291, 63.15292
536.8112, 63.14658
537.2933, 63.05341
537.7755, 63.04295
538.2576, 63.23216
538.7397, 63.66593
539.2218, 63.94561
539.7039, 64.05640
540.1860, 64.04563
540.6682, 63.86804
541.1503, 63.55467
541.6324, 63.49074
542.1145, 63.84455
542.5966, 64.31161
543.0787, 64.37113
543.5609, 64.11832
544.0430, 63.90683
544.5251, 64.00673
545.0072, 64.17973
545.4893, 64.12861
545.9714, 63.87191
546.4536, 63.73003
546.9357, 63.98843
547.4178, 64.35685
547.8999, 64.61616
548.3820, 64.69571
548.8641, 64.74267
549.3463, 64.75776
549.8284, 64.76534
550.3105, 64.79916
550.7926, 64.89623
551.2747, 64.96487
551.7568, 64.99984
552.2390, 64.99706
552.7211, 64.91984
553.2032, 64.72951
553.6853, 64.58778
554.1674, 64.62113
554.6495, 64.81043
555.1317, 64.81422
555.6138, 64.61218
556.0959, 64.39066
556.5780, 64.30624
557.0601, 64.34285
557.5422, 64.48075
558.0244, 64.75699
558.5065, 65.02041
558.9886, 65.09641
559.4707, 65.04733
559.9528, 64.99588
560.4349, 64.97453
560.9171, 64.98135
561.3992, 65.01723
561.8813, 65.08078
562.3634, 65.16407
562.8455, 65.30777
563.3276, 65.43449
563.8098, 65.51019
564.2919, 65.53596
564.7740, 65.49215
565.2561, 65.28886
565.7382, 65.10440
566.2203, 65.12407
566.7025, 65.40021
567.1846, 65.68015
567.6667, 65.95593
568.1488, 66.19349
568.6309, 66.29194
569.1130, 66.25863
569.5952, 66.23355
570.0773, 66.28329
570.5594, 66.37926
571.0415, 66.45951
571.5236, 66.53035
572.0057, 66.63929
572.4879, 66.86346
572.9700, 67.12069
573.4521, 67.30977
573.9342, 67.39899
574.4163, 67.53337
574.8984, 67.83142
575.3806, 68.18331
575.8627, 68.48096
576.3448, 68.69550
576.8269, 68.85745
577.3090, 68.95133
577.7911, 68.99809
578.2733, 69.04330
578.7554, 69.07162
579.2375, 69.12598
579.7196, 69.22179
580.2017, 69.35606
580.6838, 69.49552
581.1660, 69.63789
581.6481, 69.79543
582.1302, 70.00211
582.6123, 70.23622
583.0944, 70.42027
583.5765, 70.55689
584.0587, 70.58900
584.5408, 70.36054
585.0229, 70.00708
585.5050, 69.76083
585.9871, 69.71329
586.4692, 69.75515
586.9514, 69.89198
587.4335, 70.06564
587.9156, 70.15222
588.3977, 70.04637
588.8798, 69.91404
589.3619, 69.78480
589.8441, 69.66223
590.3262, 69.62370
590.8083, 69.73758
591.2904, 69.84539
591.7725, 69.86438
592.2546, 69.77851
592.7368, 69.70224
593.2189, 69.64962
593.7010, 69.56944
594.1831, 69.35741
594.6652, 69.04330
595.1473, 68.83746
595.6295, 68.79631
596.1116, 68.83894
596.5937, 68.88090
597.0758, 68.92110
597.5579, 68.95663
598.0400, 69.03130
598.5222, 69.06252
599.0043, 68.93282
599.4864, 68.68462
599.9685, 68.52798
600.4506, 68.63570
600.9327, 68.77592
601.4149, 68.84332
601.8970, 68.82300
602.3791, 68.74061
602.8612, 68.52762
603.3433, 68.32171
603.8254, 68.24047
604.3076, 68.32343
604.7897, 68.37785
605.2718, 68.39405
605.7539, 68.37589
606.2360, 68.27504
606.7181, 68.10954
607.2003, 68.11046
607.6824, 68.43826
608.1645, 68.86238
608.6466, 68.98770
609.1287, 68.87959
609.6108, 68.78041
610.0930, 68.81375
610.5751, 68.91673
611.0572, 69.07910
611.5393, 69.29353
612.0214, 69.43724
612.5035, 69.32010
612.9857, 69.22627
613.4678, 69.36474
613.9499, 69.95876
614.4320, 70.28214
614.9141, 70.24395
615.3962, 70.02049
615.8784, 69.74912
616.3605, 69.37147
616.8426, 69.22839
617.3247, 69.42901
617.8068, 69.79433
618.2889, 69.97559
618.7711, 69.99081
619.2532, 69.97448
619.7353, 69.95444
620.2174, 69.95554
620.6995, 70.02284
621.1816, 70.14828
621.6638, 70.28816
622.1459, 70.46203
622.6280, 70.61167
623.1101, 70.67193
623.5922, 70.62729
624.0743, 70.63280
624.5565, 70.78886
625.0386, 70.96781
625.5207, 71.07568
626.0028, 71.03820
626.4849, 71.09377
626.9670, 71.29691
627.4492, 71.53397
627.9313, 71.63121
628.4134, 71.56326
628.8955, 71.58847
629.3776, 71.77512
629.8597, 72.05232
630.3419, 72.30488
630.8240, 72.53691
631.3061, 72.76974
631.7882, 73.08433
632.2703, 73.35812
632.7524, 73.38406
633.2346, 73.21851
633.7167, 73.15276
634.1988, 73.42414
634.6809, 73.76406
635.1630, 74.04182
635.6451, 74.25184
636.1273, 74.35757
636.6094, 74.22175
637.0915, 74.09738
637.5736, 74.13909
638.0557, 74.37006
638.5378, 74.72127
639.0200, 75.24245
639.5021, 75.79232
639.9842, 76.19078
640.4663, 76.43922
640.9484, 76.60080
641.4305, 76.65099
641.9127, 76.69102
642.3948, 76.87526
642.8769, 77.16732
643.3590, 77.47261
643.8411, 77.75776
644.3232, 78.02910
644.8054, 78.25031
645.2875, 78.44602
645.7696, 78.75365
646.2517, 79.38162
646.7338, 79.97704
647.2159, 80.35848
647.6981, 80.51015
648.1802, 80.68423
648.6623, 80.86590
649.1444, 81.09899
649.6265, 81.42741
650.1086, 81.86106
650.5908, 82.31216
651.0729, 82.80436
651.5550, 83.22240
652.0371, 83.26269
652.5192, 83.11626
653.0013, 83.40746
653.4835, 84.41673
653.9656, 85.51318
654.4477, 86.07825
654.9298, 86.34052
655.4119, 86.68957
655.8940, 87.30473
656.3762, 87.98853
656.8583, 88.73035
657.3404, 89.48974
657.8225, 90.12946
658.3046, 90.56837
658.7867, 90.98558
659.2689, 91.41479
659.7510, 91.85835
660.2331, 92.38078
660.7152, 93.00480
661.1973, 93.57850
661.6794, 93.94663
662.1616, 94.18050
662.6437, 94.63381
663.1258, 95.32388
663.6079, 95.84382
664.0900, 95.74878
664.5721, 95.33841
665.0543, 94.97165
665.5364, 94.73078
666.0185, 94.47758
666.5006, 94.18785
666.9827, 93.84249
667.4648, 93.42139
667.9470, 92.93724
668.4291, 92.34585
668.9112, 91.56603
669.3933, 90.72042
669.8754, 90.04684
670.3575, 89.57043
670.8397, 89.11252
671.3218, 88.63851
671.8039, 88.14143
672.2860, 87.58798
672.7681, 86.99383
673.2502, 86.40369
673.7324, 85.82741
674.2145, 85.27483
674.6966, 84.78842
675.1787, 84.35083
675.6608, 83.87656
676.1429, 83.11711
676.6251, 82.48669
677.1072, 82.30431
677.5893, 82.70039
678.0714, 82.80803
678.5535, 82.46452
679.0356, 81.97433
679.5178, 81.49709
679.9999, 81.00777
680.4820, 80.63562
680.9641, 80.37830
681.4462, 80.23261
681.9283, 80.28528
682.4105, 80.46345
682.8926, 80.43026
683.3747, 80.06462
683.8568, 79.69351
684.3389, 79.70418
684.8210, 79.89919
685.3032, 79.96564
685.7853, 79.58718
686.2674, 79.30779
686.7495, 79.43547
687.2316, 79.78027
687.7137, 79.89526
688.1959, 79.56154
688.6780, 79.31087
689.1601, 79.28867
689.6422, 79.42003
690.1243, 79.37489
690.6064, 79.12094
691.0886, 78.93652
691.5707, 79.00640
692.0528, 79.22179
692.5349, 79.30897
693.0170, 79.27932
693.4991, 79.23120
693.9813, 79.23969
694.4634, 79.25445
694.9455, 79.22356
695.4276, 79.14235
695.9097, 79.06745
696.3918, 79.00668
696.8740, 78.96724
697.3561, 78.94881
697.8382, 78.93758
698.3203, 79.00186
698.8024, 79.20341
699.2845, 79.38222
699.7667, 79.33964
700.2488, 79.07748
700.7309, 78.92934
701.2130, 78.93994
701.6951, 79.03304
702.1772, 79.14174
702.6594, 79.26106
703.1415, 79.39351
703.6236, 79.60355
704.1057, 79.70557
704.5878, 79.48363
705.0699, 79.09943
705.5521, 78.81316
706.0342, 78.72405
706.5163, 78.70115
706.9984, 78.74409
707.4805, 78.82833
707.9626, 78.87527
708.4448, 78.84267
708.9269, 78.92843
709.4090, 79.25797
709.8911, 79.70682
710.3732, 79.87672
710.8553, 79.78874
711.3374, 79.66682
711.8195, 79.62241
712.3016, 79.62302
712.7838, 79.64294
713.2659, 79.67896
713.7480, 79.71432
714.2301, 79.70557
714.7122, 79.72523
715.1943, 79.83912
715.6765, 80.07548
716.1586, 80.20798
716.6407, 80.16280
717.1228, 80.11689
717.6049, 80.20491
718.0870, 80.45061
718.5692, 80.53773
719.0513, 80.45186
719.5334, 80.29162
720.0155, 80.07218
720.4976, 79.85986
720.9797, 79.83381
721.4619, 80.04839
721.9440, 80.25774
722.4261, 80.21070
722.9082, 80.09826
723.3903, 80.12894
723.8724, 80.51630
724.3546, 80.75500
724.8367, 80.63868
725.3188, 80.41983
725.8009, 80.38484
726.2830, 80.60402
726.7651, 80.76740
727.2473, 80.82811
727.7294, 80.83418
728.2115, 80.86028
728.6936, 80.90372
729.1757, 80.95291
729.6578, 81.01099
730.1400, 81.06138
730.6221, 81.08166
731.1042, 81.08284
731.5863, 81.08741
732.0684, 81.09935
732.5505, 81.12310
733.0327, 81.13560
733.5148, 81.16073
733.9969, 81.28638
734.4790, 81.58157
734.9611, 81.83924
735.4432, 81.97780
735.9254, 82.03931
736.4075, 82.23885
736.8896, 82.57542
737.3717, 82.82973
737.8538, 82.79532
738.3359, 82.64021
738.8181, 82.63018
739.3002, 82.74345
739.7823, 82.84616
740.2644, 82.82011
740.7465, 82.79707
741.2286, 82.88194
741.7108, 83.08846
742.1929, 83.19947
742.6750, 83.08810
743.1571, 83.03206
743.6392, 83.20684
744.1213, 83.62663
744.6035, 83.84760
745.0856, 83.84485
745.5677, 83.81491
746.0498, 83.92090
746.5319, 84.11806
747.0140, 84.33628
747.4962, 84.57423
747.9783, 84.74084
748.4604, 84.69534
748.9425, 84.60229
749.4246, 84.61949
749.9067, 84.82425
750.3889, 84.96946
750.8710, 84.95532
751.3531, 84.93060
751.8352, 85.01611
752.3173, 85.24342
752.7994, 85.42719
753.2816, 85.55051
753.7637, 85.65854
754.2458, 85.83163
754.7279, 86.03512
755.2100, 86.17006
755.6921, 86.21464
756.1743, 86.19251
756.6564, 85.99390
757.1385, 85.79259
757.6206, 85.81274
758.1027, 86.39112
758.5848, 86.76964
759.0670, 86.68252
759.5491, 86.42519
760.0312, 86.34585
760.5133, 86.49669
760.9954, 86.65416
761.4775, 86.80563
761.9597, 86.92130
762.4418, 86.92143
762.9239, 86.83549
763.4060, 86.78324
763.8881, 86.79811
764.3702, 86.86363
764.8524, 86.99877
765.3345, 87.16513
765.8166, 87.29566
766.2987, 87.33360
766.7808, 87.37305
767.2629, 87.40164
767.7451, 87.45193
768.2272, 87.62132
768.7093, 87.97549
769.1914, 88.21581
769.6735, 88.26150
770.1556, 88.16629
770.6378, 87.99409
771.1199, 87.76911
771.6020, 87.61451
772.0841, 87.62862
772.5662, 87.69086
773.0483, 87.71362
773.5305, 87.69922
774.0126, 87.65282
774.4947, 87.46844
774.9768, 87.37218
775.4589, 87.44961
775.9410, 87.66515
776.4232, 87.92860
776.9053, 88.29520
777.3874, 88.50917
777.8695, 88.42107
778.3516, 88.16649
778.8337, 88.17980
779.3159, 88.40262
779.7980, 88.48991
780.2801, 87.99557
780.7622, 87.48790
781.2443, 87.58054
781.7264, 88.12243
782.2086, 88.46953
782.6907, 88.23211
783.1728, 87.97386
783.6549, 87.84071
784.1370, 87.83682
784.6191, 88.04727
785.1013, 88.54993
785.5834, 88.92044
786.0655, 88.88918
786.5476, 88.61610
787.0297, 88.56189
787.5118, 88.70534
787.9940, 88.90372
788.4761, 89.10916
788.9582, 89.30998
789.4403, 89.52499
789.9224, 89.74178
790.4045, 89.85519
790.8867, 89.73292
791.3688, 89.61431
791.8509, 89.56648
792.3330, 89.58752
792.8151, 89.68625
793.2972, 89.87349
793.7794, 90.07024
794.2615, 90.25208
794.7436, 90.40752
795.2257, 90.50297
795.7078, 90.54453
796.1899, 90.56005
796.6721, 90.50208
797.1542, 90.47973
797.6363, 90.56979
798.1184, 90.77488
798.6005, 91.03578
799.0826, 91.48435
799.5648, 91.80289
800.0469, 91.85320
800.5290, 91.65852
801.0111, 91.40756
801.4932, 91.09082
801.9753, 90.87404
802.4575, 90.95930
802.9396, 91.16701
803.4217, 91.13418
803.9038, 90.90266
804.3859, 90.79702
804.8680, 91.19523
805.3502, 91.57890
805.8323, 91.60843
806.3144, 91.25919
806.7965, 91.08662
807.2786, 91.12991
807.7607, 91.28652
808.2429, 91.56802
808.7250, 91.93188
809.2071, 92.11446
809.6892, 92.11906
810.1713, 92.02161
810.6534, 91.77591
811.1356, 91.51939
811.6177, 91.44454
812.0998, 91.52856
812.5819, 91.56578
813.0640, 91.36964
813.5461, 91.21859
814.0283, 91.26604
814.5104, 91.49342
814.9925, 91.65504
815.4746, 91.73613
815.9567, 91.80595
816.4388, 91.89217
816.9210, 91.99340
817.4031, 92.10830
817.8852, 92.23516
818.3673, 92.36732
818.8494, 92.49210
819.3315, 92.62358
819.8137, 92.77480
820.2958, 92.94263
820.7779, 93.10548
821.2600, 93.26135
821.7421, 93.40911
822.2242, 93.54829
822.7064, 93.67813
823.1885, 93.77914
823.6706, 93.84843
824.1527, 93.93089
824.6348, 94.04372
825.1169, 94.18965
825.5991, 94.38877
826.0812, 94.62936
826.5633, 94.87560
827.0454, 95.18080
827.5275, 95.41919
828.0096, 95.43687
828.4918, 95.30446
828.9739, 95.45760
829.4560, 96.11836
829.9381, 96.57264
830.4202, 96.52233
830.9023, 96.17419
831.3845, 96.14897
831.8666, 96.41323
832.3487, 96.71561
832.8308, 96.89531
833.3129, 97.09547
833.7950, 97.53652
834.2772, 98.10764
834.7593, 98.52082
835.2414, 98.68066
835.7235, 98.66833
836.2056, 98.32267
836.6877, 97.88499
837.1699, 98.08193
837.6520, 99.01285
838.1341, 99.81683
838.6162, 100.2507
839.0983, 100.4370
839.5804, 100.5353
840.0626, 100.5599
840.5447, 100.5455
841.0268, 100.3160
841.5089, 100.2757
841.9910, 100.8106
842.4731, 101.6210
842.9553, 102.1348
843.4374, 102.2503
843.9195, 102.2224
844.4016, 102.0334
844.8837, 101.7862
845.3658, 101.6375
845.8480, 101.5889
846.3301, 101.6899
846.8122, 102.0397
847.2943, 102.3050
847.7764, 102.0649
848.2585, 101.5738
848.7407, 101.1875
849.2228, 100.9983
849.7049, 100.9253
850.1870, 101.1112
850.6691, 101.2803
851.1512, 101.1082
851.6334, 100.5529
852.1155, 99.92776
852.5976, 99.21867
853.0797, 98.64802
853.5618, 98.58471
854.0439, 98.80249
854.5261, 98.90157
855.0082, 98.79301
855.4903, 98.60235
855.9724, 98.35011
856.4545, 98.06519
856.9366, 97.77499
857.4188, 97.49097
857.9009, 97.13046
858.3830, 96.60957
858.8651, 96.23759
859.3472, 96.49076
859.8293, 97.14552
860.3115, 97.22758
860.7936, 96.67737
861.2757, 96.07300
861.7578, 95.73008
862.2399, 95.58533
862.7220, 95.65031
863.2042, 95.96319
863.6863, 96.10609
864.1684, 95.96514
864.6505, 95.77064
865.1326, 95.61683
865.6147, 95.50298
866.0969, 95.45515
866.5790, 95.47205
867.0611, 95.51814
867.5432, 95.71970
868.0253, 95.83904
868.5074, 95.41853
868.9896, 94.58360
869.4717, 94.09690
869.9538, 94.57214
870.4359, 95.06590
870.9180, 95.23215
871.4001, 95.14430
871.8823, 95.15037
872.3644, 95.26054
872.8465, 95.39825
873.3286, 95.57283
873.8107, 95.71758
874.2928, 95.64442
874.7750, 95.43715
875.2571, 95.33442
875.7392, 95.56692
876.2213, 95.78092
876.7034, 95.77535
877.1855, 95.66146
877.6677, 95.69134
878.1498, 95.93088
878.6319, 96.12450
879.1140, 96.21787
879.5961, 96.26755
880.0782, 96.39025
880.5604, 96.55108
881.0425, 96.61414
881.5246, 96.48760
882.0067, 96.41338
882.4888, 96.53667
882.9709, 96.81564
883.4531, 97.21734
883.9352, 97.95594
884.4173, 98.40357
884.8994, 98.47151
885.3815, 98.39126
885.8636, 98.36500
886.3458, 98.39034
886.8279, 98.44038
887.3100, 98.50951
887.7921, 98.66019
888.2742, 99.05814
888.7563, 99.49136
889.2385, 99.73247
889.7206, 99.73156
890.2027, 99.74063
890.6848, 99.70055
891.1669, 99.80369
891.6490, 100.2346
892.1312, 100.9494
892.6133, 101.2087
893.0954, 101.0107
893.5775, 100.8841
894.0596, 101.3528
894.5417, 101.9512
895.0239, 102.1062
895.5060, 101.9001
895.9881, 101.7877
896.4702, 102.0313
896.9523, 102.2551
897.4344, 102.3088
897.9166, 102.2753
898.3987, 102.4782
898.8808, 102.9413
899.3629, 103.2771
899.8450, 103.3061
900.3271, 103.2445
900.8093, 103.3839
901.2914, 103.6663
901.7735, 103.9753
902.2556, 104.3209
902.7377, 104.6210
903.2198, 104.7971
903.7020, 104.9442
904.1841, 105.1669
904.6662, 105.4653
905.1483, 105.8702
905.6304, 106.4330
906.1125, 106.9290
906.5947, 107.0419
907.0768, 106.9305
907.5589, 106.8649
908.0410, 106.8877
908.5231, 106.9609
909.0052, 107.0549
909.4874, 107.2054
909.9695, 107.4789
910.4516, 107.9160
910.9337, 108.0685
911.4158, 107.8712
911.8979, 107.6770
912.3801, 107.7336
912.8622, 107.9659
913.3443, 108.2786
913.8264, 108.6423
914.3085, 108.8732
914.7906, 108.7212
915.2728, 108.5698
915.7549, 108.6145
916.2370, 108.8244
916.7191, 109.0697
917.2012, 109.3851
917.6833, 109.5891
918.1655, 109.5808
918.6476, 109.5028
919.1297, 109.6520
919.6118, 109.9559
920.0939, 110.2130
920.5760, 110.3133
921.0582, 110.4054
921.5403, 110.5937
922.0224, 110.7958
922.5045, 110.9003
922.9866, 110.8690
923.4688, 110.8250
923.9509, 110.7536
924.4330, 110.7250
924.9151, 110.8146
925.3972, 111.0085
925.8793, 111.3301
926.3615, 111.7960
926.8436, 112.1373
927.3257, 112.0548
927.8078, 111.9118
928.2899, 111.9818
928.7720, 112.2816
929.2542, 112.5728
929.7363, 112.8755
930.2184, 113.1079
930.7005, 113.1867
931.1826, 113.1848
931.6647, 113.2937
932.1469, 113.4939
932.6290, 113.7000
933.1111, 113.9177
933.5932, 114.0813
934.0753, 114.0594
934.5574, 113.9713
935.0396, 114.1638
935.5217, 114.7745
936.0038, 115.2183
936.4859, 115.3671
936.9680, 115.3678
937.4501, 115.3526
937.9323, 115.3810
938.4144, 115.6192
938.8965, 116.1710
939.3786, 116.7347
939.8607, 117.2493
940.3428, 117.6371
940.8250, 117.7878
941.3071, 117.5953
941.7892, 117.6723
942.2713, 118.0928
942.7534, 118.4785
943.2355, 118.4311
943.7177, 118.1699
944.1998, 118.1964
944.6819, 118.4871
945.1640, 118.6920
945.6461, 118.5511
946.1282, 118.3637
946.6104, 118.2087
947.0925, 118.1193
947.5746, 118.3113
948.0567, 118.8756
948.5388, 119.1575
949.0209, 118.8717
949.5031, 118.3381
949.9852, 118.0186
950.4673, 117.8462
950.9494, 117.6797
951.4315, 117.4146
951.9136, 117.2462
952.3958, 117.3465
952.8779, 117.4961
953.3600, 117.5113
953.8421, 117.3981
954.3242, 117.0527
954.8063, 116.4367
955.2885, 115.8664
955.7706, 115.7135
956.2527, 115.7426
956.7348, 115.6533
957.2169, 115.4186
957.6990, 115.1120
958.1811, 114.6189
958.6632, 114.2104
959.1453, 114.0052
959.6274, 113.9604
960.1096, 113.8926
960.5917, 113.7995
961.0738, 113.5467
961.5559, 112.9429
962.0380, 112.3322
962.5201, 112.1412
963.0023, 112.2051
963.4844, 112.2183
963.9665, 112.0139
964.4486, 111.8777
964.9307, 111.8757
965.4128, 111.8964
965.8950, 111.7969
966.3771, 111.5916
966.8592, 111.4164
967.3413, 111.2875
967.8234, 111.1625
968.3055, 110.9322
968.7877, 110.7450
969.2698, 110.8144
969.7519, 111.1863
970.2340, 111.2493
970.7161, 110.8111
971.1982, 110.4067
971.6804, 110.2613
972.1625, 110.3049
972.6446, 110.3316
973.1267, 110.3458
973.6088, 110.3674
974.0909, 110.4208
974.5731, 110.4652
975.0552, 110.4835
975.5373, 110.4758
976.0194, 110.4378
976.5015, 110.3393
976.9836, 110.2977
977.4658, 110.3298
977.9479, 110.3930
978.4300, 110.3994
978.9121, 110.4100
979.3942, 110.5727
979.8763, 110.9069
980.3585, 111.2758
980.8406, 111.7531
981.3227, 112.0967
981.8048, 112.1502
982.2869, 111.9412
982.7690, 111.7392
983.2512, 111.5382
983.7333, 111.4000
984.2154, 111.3510
984.6975, 111.3816
985.1796, 111.5456
985.6617, 111.7702
986.1439, 111.9029
986.6260, 111.8315
987.1081, 111.7462
987.5902, 111.6395
988.0723, 111.5711
988.5544, 111.6311
989.0366, 111.8139
989.5187, 111.9718
990.0008, 112.0960
990.4829, 112.1587
990.9650, 112.0572
991.4471, 111.9420
991.9293, 111.9613
992.4114, 112.1269
992.8935, 112.2726
993.3756, 112.3959
993.8577, 112.4716
994.3398, 112.4647
994.8220, 112.4248
995.3041, 112.5365
995.7862, 112.7379
996.2683, 112.7984
996.7504, 112.5306
997.2325, 112.2684
997.7147, 112.1557
998.1968, 112.1673
998.6789, 112.2838
999.1610, 112.5791
999.6431, 112.6940
1000.125, 112.5843
1000.607, 112.4619
1001.089, 112.5314
1001.572, 112.7079
1002.054, 112.8720
1002.536, 113.0134
1003.018, 113.1308
1003.500, 113.2071
1003.982, 113.2770
1004.464, 113.3753
1004.946, 113.4653
1005.429, 113.3502
1005.911, 113.0470
1006.393, 113.0437
1006.875, 113.6140
1007.357, 114.1804
1007.839, 114.1072
1008.321, 113.7514
1008.803, 113.5474
1009.285, 113.6432
1009.768, 113.7473
1010.250, 113.8590
1010.732, 113.9752
1011.214, 114.0637
1011.696, 114.1550
1012.178, 114.4389
1012.660, 114.8663
1013.142, 115.1300
1013.625, 114.9061
1014.107, 114.6277
1014.589, 114.4556
1015.071, 114.3991
1015.553, 114.5129
1016.035, 114.8418
1016.517, 115.0547
1016.999, 115.0655
1017.481, 115.0514
1017.964, 115.2472
1018.446, 115.5493
1018.928, 115.8301
1019.410, 116.0793
1019.892, 116.2347
1020.374, 116.2319
1020.856, 116.1983
1021.338, 116.1702
1021.820, 116.1595
1022.303, 116.2343
1022.785, 116.3906
1023.267, 116.6090
1023.749, 116.9921
1024.231, 117.3043
1024.713, 117.2549
1025.195, 117.0695
1025.677, 117.1694
1026.160, 117.7196
1026.642, 118.1260
1027.124, 118.3471
1027.606, 118.4439
1028.088, 118.4041
1028.570, 118.3146
1029.052, 118.3582
1029.534, 118.5421
1030.016, 118.7067
1030.499, 118.8057
1030.981, 118.8445
1031.463, 118.7848
1031.945, 118.6831
1032.427, 118.7356
1032.909, 118.9361
1033.391, 119.2429
1033.873, 119.7285
1034.356, 120.0802
1034.838, 119.8312
1035.320, 119.3830
1035.802, 119.2357
1036.284, 119.5993
1036.766, 119.8401
1037.248, 119.9175
1037.730, 119.9916
1038.213, 120.1775
1038.695, 120.4448
1039.177, 120.7960
1039.659, 121.1773
1040.141, 121.3472
1040.623, 120.8233
1041.105, 120.5262
1041.587, 120.9022
1042.069, 121.5673
1042.552, 121.9125
1043.034, 121.9293
1043.516, 122.1770
1043.998, 122.7702
1044.480, 123.2539
1044.962, 123.0012
1045.444, 122.6038
1045.926, 122.6962
1046.408, 123.3659
1046.891, 123.7618
1047.373, 123.7459
1047.855, 123.7447
1048.337, 123.9772
1048.819, 124.2470
1049.301, 123.9877
1049.783, 123.4417
1050.265, 123.2371
1050.748, 123.8658
1051.230, 124.3146
1051.712, 123.9438
1052.194, 123.4926
1052.676, 123.6073
1053.158, 124.3379
1053.640, 124.4376
1054.122, 123.9097
1054.604, 123.4521
1055.087, 123.7501
1055.569, 124.1314
1056.051, 123.9799
1056.533, 123.4499
1057.015, 123.0917
1057.497, 122.9732
1057.979, 122.9626
1058.461, 123.0927
1058.943, 123.1930
1059.426, 122.9760
1059.908, 122.5913
1060.390, 122.3136
1060.872, 122.1837
1061.354, 122.1200
1061.836, 122.1837
1062.318, 122.2025
1062.800, 122.0726
1063.283, 121.8520
1063.765, 121.7550
1064.247, 121.7819
1064.729, 121.9841
1065.211, 122.5217
1065.693, 122.9268
1066.175, 122.6864
1066.657, 122.2014
1067.140, 121.9363
1067.622, 121.9277
1068.104, 122.1212
1068.586, 122.5846
1069.068, 122.9002
1069.550, 122.6642
1070.032, 122.1594
1070.514, 121.7234
1070.996, 121.3941
1071.479, 121.2627
1071.961, 121.4996
1072.443, 121.7670
1072.925, 122.0669
1073.407, 122.3128
1073.889, 122.3837
1074.371, 122.3006
1074.853, 122.0994
1075.335, 121.7841
1075.818, 121.5907
1076.300, 121.7380
1076.782, 121.9850
1077.264, 122.2318
1077.746, 122.4617
1078.228, 122.5671
1078.710, 122.5396
1079.192, 122.6248
1079.675, 122.9656
1080.157, 123.2465
1080.639, 123.0163
1081.121, 122.5866
1081.603, 122.3575
1082.085, 122.4730
1082.567, 122.4921
1083.049, 122.3724
1083.531, 122.2644
1084.014, 122.2242
1084.496, 122.2730
1084.978, 122.5132
1085.460, 122.8842
1085.942, 123.2182
1086.424, 123.5584
1086.906, 123.7006
1087.388, 123.5123
1087.870, 123.2272
1088.353, 123.0512
1088.835, 122.9860
1089.317, 123.0813
1089.799, 123.3323
1090.281, 123.6074
1090.763, 123.8047
1091.245, 124.0112
1091.727, 124.3523
1092.209, 124.7345
1092.692, 124.8587
1093.174, 124.6804
1093.656, 124.5757
1094.138, 124.6108
1094.620, 124.7403
1095.102, 125.0319
1095.584, 125.3196
1096.066, 125.3921
1096.549, 125.2061
1097.031, 125.0259
1097.513, 124.8378
1097.995, 124.7484
1098.477, 124.8404
1098.959, 125.0011
1099.441, 124.9477
1099.923, 124.7887
1100.406, 124.7850
1100.888, 125.1201
1101.370, 125.3538
1101.852, 125.3447
1102.334, 125.2292
1102.816, 124.9922
1103.298, 124.6934
1103.780, 124.9222
1104.262, 125.6016
1104.745, 126.1864
1105.227, 126.3501
1105.709, 126.3835
1106.191, 126.3466
1106.673, 126.3111
1107.155, 126.3961
1107.637, 126.6281
1108.119, 126.7418
1108.601, 126.7167
1109.084, 126.6724
1109.566, 126.7306
1110.048, 126.7970
1110.530, 126.7291
1111.012, 126.5785
1111.494, 126.6258
1111.976, 126.9619
1112.458, 127.2688
1112.941, 127.5162
1113.423, 127.6501
1113.905, 127.5476
1114.387, 127.3096
1114.869, 127.0574
1115.351, 126.7964
1115.833, 126.7127
1116.315, 126.9799
1116.797, 127.1998
1117.280, 127.2120
1117.762, 127.1280
1118.244, 127.2365
1118.726, 127.4769
1119.208, 127.6735
1119.690, 127.7599
1120.172, 127.8486
1120.654, 127.9668
1121.136, 128.1236
1121.619, 128.3251
1122.101, 128.5697
1122.583, 128.9185
1123.065, 129.3375
1123.547, 129.5231
1124.029, 129.1240
1124.511, 128.7166
1124.993, 128.7391
1125.476, 128.9116
1125.958, 128.8139
1126.440, 128.3158
1126.922, 128.3501
1127.404, 128.9599
1127.886, 129.5670
1128.368, 129.6969
1128.850, 129.6689
1129.333, 129.7864
1129.815, 129.9933
1130.297, 130.1039
1130.779, 130.0780
1131.261, 130.0500
1131.743, 130.0339
1132.225, 130.0198
1132.707, 130.0144
1133.189, 129.9963
1133.672, 129.8927
1134.154, 129.7210
1134.636, 129.6855
1135.118, 129.9587
1135.600, 130.1095
1136.082, 129.9747
1136.564, 129.8097
1137.046, 130.1372
1137.528, 130.7345
1138.011, 131.0887
1138.493, 131.1029
1138.975, 131.0572
1139.457, 130.9519
1139.939, 130.9263
1140.421, 131.0565
1140.903, 131.2841
1141.385, 131.4647
1141.868, 131.5971
1142.350, 131.6659
1142.832, 131.6127
1143.314, 131.6591
1143.796, 132.0443
1144.278, 132.4528
1144.760, 132.6807
1145.242, 132.7387
1145.724, 132.6950
1146.207, 132.5650
1146.689, 132.4951
1147.171, 132.6028
1147.653, 132.7194
1148.135, 132.6424
1148.617, 132.5774
1149.099, 132.8217
1149.581, 133.4955
1150.063, 133.5913
1150.546, 133.0946
1151.028, 132.6512
1151.510, 132.7560
1151.992, 133.0488
1152.474, 133.3006
1152.956, 133.5046
1153.438, 133.6325
1153.920, 133.6234
1154.403, 133.7701
1154.885, 134.0979
1155.367, 134.5053
1155.849, 135.0099
1156.331, 135.4539
1156.813, 135.6220
1157.295, 135.5562
1157.777, 135.4694
1158.260, 135.3444
1158.742, 135.3135
1159.224, 135.4131
1159.706, 135.5453
1160.188, 135.5641
1160.670, 135.5586
1161.152, 135.7262
1161.634, 136.0595
1162.116, 136.1639
1162.599, 135.8571
1163.081, 135.5349
1163.563, 135.2374
1164.045, 135.0657
1164.527, 135.2798
1165.009, 135.7085
1165.491, 136.0506
1165.973, 136.2640
1166.455, 136.3099
1166.938, 135.9639
1167.420, 135.7947
1167.902, 136.0561
1168.384, 136.5350
1168.866, 136.7538
1169.348, 136.7825
1169.830, 136.8180
1170.312, 136.9219
1170.795, 136.9706
1171.277, 136.8016
1171.759, 136.7116
1172.241, 136.8644
1172.723, 137.1925
1173.205, 137.4946
1173.687, 137.7536
1174.169, 137.9167
1174.651, 137.9283
1175.134, 137.9270
1175.616, 137.9300
1176.098, 137.9831
1176.580, 138.1759
1177.062, 138.4610
1177.544, 138.3713
1178.026, 137.9889
1178.508, 137.7709
1178.990, 138.0505
1179.473, 138.3868
1179.955, 138.6054
1180.437, 138.7785
1180.919, 139.0136
1181.401, 139.3025
1181.883, 139.2520
1182.365, 138.9002
1182.847, 138.6637
1183.330, 138.9324
1183.812, 139.2165
1184.294, 139.2336
1184.776, 139.1418
1185.258, 139.1150
1185.740, 139.1545
1186.222, 139.3278
1186.704, 139.6357
1187.187, 139.9667
1187.669, 140.3859
1188.151, 140.6660
1188.633, 140.5085
1189.115, 140.1763
1189.597, 140.1601
1190.079, 140.4769
1190.561, 140.6369
1191.043, 140.5893
1191.526, 140.5996
1192.008, 140.9980
1192.490, 141.4055
1192.972, 141.5092
1193.454, 141.4176
1193.936, 141.4026
1194.418, 141.4568
1194.900, 141.7630
1195.382, 142.3778
1195.865, 142.8748
1196.347, 142.8970
1196.829, 142.6550
1197.311, 142.1269
1197.793, 141.4721
1198.275, 141.2986
1198.757, 141.6416
1199.239, 142.0633
1199.722, 142.5079
1200.204, 142.8240
1200.686, 142.7677
1201.168, 142.6177
1201.650, 142.6113
1202.132, 142.7380
1202.614, 142.8148
1203.096, 142.8260
1203.578, 143.0550
1204.061, 143.6490
1204.543, 144.1514
1205.025, 143.9416
1205.507, 143.5633
1205.989, 143.5617
1206.471, 143.9293
1206.953, 144.2343
1207.435, 144.4751
1207.917, 144.6933
1208.400, 144.9213
1208.882, 145.0609
1209.364, 144.9004
1209.846, 144.6796
1210.328, 144.7110
1210.810, 144.9926
1211.292, 144.9903
1211.774, 144.6873
1212.257, 144.4668
1212.739, 144.5136
1213.221, 144.6080
1213.703, 144.4804
1214.185, 144.3320
1214.667, 144.4316
1215.149, 144.7981
1215.631, 144.9428
1216.114, 144.8560
1216.596, 144.8340
1217.078, 144.8663
1217.560, 145.3608
1218.042, 145.6854
1218.524, 145.8494
1219.006, 145.3716
1219.488, 145.7226
1219.970, 145.7414
1220.453, 145.7468
1220.935, 146.2144
1221.417, 145.8299
1221.899, 146.2902
1222.381, 146.4133
1222.863, 146.6907
1223.345, 146.6339
1223.827, 146.6803
1224.309, 147.0611
1224.792, 147.2569
1225.274, 147.1617
1225.756, 147.4489
1226.238, 147.0527
1226.720, 147.2562
1227.202, 147.7185
1227.684, 147.6400
1228.166, 147.9333
1228.649, 148.0853
1229.131, 147.5935
1229.613, 148.2209
1230.095, 148.3642
1230.577, 148.0107
1231.059, 148.5996
1231.541, 148.3146
1232.023, 148.5964
1232.505, 148.8027
1232.988, 148.8496
1233.470, 148.7506
1233.952, 148.7132
1234.434, 148.9422
1234.916, 149.1765
1235.398, 149.2542
1235.880, 149.2764
1236.362, 149.3784
1236.844, 149.5571
1237.327, 149.5583
1237.809, 149.3999
1238.291, 149.3026
1238.773, 149.4727
1239.255, 149.6453
1239.737, 149.6667
1240.219, 149.6610
1240.701, 149.7746
1241.184, 149.9875
1241.666, 150.1339
1242.148, 150.2139
1242.630, 150.2846
1243.112, 150.4007
1243.594, 150.4784
1244.076, 150.4646
1244.558, 150.4345
1245.041, 150.4526
1245.523, 150.5268
1246.005, 150.7330
1246.487, 151.0491
1246.969, 151.3209
1247.451, 151.3335
1247.933, 151.5148
1248.415, 152.0780
1248.897, 152.6478
1249.380, 152.7557
1249.862, 152.5290
1250.344, 152.2307
1250.826, 151.9346
1251.308, 151.9456
1251.790, 152.7528
1252.272, 153.3501
1252.754, 153.5708
1253.236, 153.5847
1253.719, 153.5073
1254.201, 153.3932
1254.683, 153.3311
1255.165, 153.3329
1255.647, 153.4247
1256.129, 153.6671
1256.611, 153.9441
1257.093, 154.3019
1257.576, 154.5254
1258.058, 154.1955
1258.540, 153.7038
1259.022, 153.6480
1259.504, 153.9747
1259.986, 154.3297
1260.468, 154.8091
1260.950, 154.8459
1261.432, 154.2823
1261.915, 153.7562
1262.397, 154.0108
1262.879, 154.5401
1263.361, 154.7744
1263.843, 154.7859
1264.325, 154.9634
1264.807, 155.3786
1265.289, 155.6903
1265.771, 155.8571
1266.254, 155.9853
1266.736, 156.1932
1267.218, 156.3746
1267.700, 156.4417
1268.182, 156.4047
1268.664, 156.2778
1269.146, 156.0419
1269.628, 156.0461
1270.111, 156.3294
1270.593, 156.6281
1271.075, 156.7004
1271.557, 156.7820
1272.039, 157.0723
1272.521, 157.4446
1273.003, 157.7244
1273.485, 157.9091
1273.968, 157.9173
1274.450, 157.7578
1274.932, 157.7316
1275.414, 158.2277
1275.896, 158.6254
1276.378, 158.6637
1276.860, 158.5339
1277.342, 158.4866
1277.824, 158.4974
1278.307, 158.4296
1278.789, 158.2976
1279.271, 158.2994
1279.753, 158.6630
1280.235, 158.9808
1280.717, 159.1776
1281.199, 159.2961
1281.681, 159.3904
1282.163, 159.4447
1282.646, 159.3769
1283.128, 159.2213
1283.610, 159.1751
1284.092, 159.3444
1284.574, 159.5202
1285.056, 159.6829
1285.538, 159.8387
1286.020, 159.9818
1286.503, 160.1308
1286.985, 160.3477
1287.467, 160.5948
1287.949, 160.7350
1288.431, 160.7329
1288.913, 160.7098
1289.395, 160.6637
1289.877, 160.7009
1290.359, 161.0401
1290.842, 161.3807
1291.324, 161.4534
1291.806, 161.3324
1292.288, 161.1573
1292.770, 160.8960
1293.252, 161.1459
1293.734, 161.9246
1294.216, 162.4828
1294.698, 162.0302
1295.181, 161.5358
1295.663, 161.5695
1296.145, 161.8343
1296.627, 161.9991
1297.109, 162.0857
1297.591, 162.2991
1298.073, 162.6152
1298.555, 162.8076
1299.038, 162.5335
1299.520, 162.4582
1300.002, 162.7835
1300.484, 163.3039
1300.966, 163.7925
1301.448, 164.2039
1301.930, 164.5605
1302.412, 164.8559
1302.895, 165.0567
1303.377, 164.9441
1303.859, 165.0989
1304.341, 165.5875
1304.823, 165.9783
1305.305, 165.7373
##END=



