##NAMES=Hiortdahlite
##RRUFFID=R070514
##IDEAL CHEMISTRY=Na_2_Ca_4_(Ca_0.5_Zr^4+^_0.5_)Zr^4+^(Si_2_O_7_)_2_OF_3_
##LOCALITY=Aroy, Langesundsfjord, near Larvik, Vestfold, Norway
##OWNER=RRUFF
##SOURCE=James Shigley
##DESCRIPTION=Brownish-yellow massive
##STATUS=The identification of this mineral is confirmed by single-crystal X-ray diffraction and chemical analysis.
##URL=rruff.info/R070514
##MEASURED CHEMISTRY=Na_4.00_Ca_8.00_Zr_2.00_(Zr_0.49_Nb^5+^_0.45_Fe^2+^_0.38_Ti_0.33_Mn_0.32_Mg_0.02_Al_0.01_)_Î£=2_(Si_2.00_O_7_)_4_O_3_F_5.00_
149.6732, 4687.537
150.1554, 4696.344
150.6375, 4706.239
151.1196, 4723.197
151.6017, 4752.997
152.0838, 4784.547
152.5659, 4815.348
153.0481, 4844.486
153.5302, 4877.530
154.0123, 4913.801
154.4944, 4954.350
154.9765, 5000.624
155.4586, 5064.224
155.9408, 5124.126
156.4229, 5172.697
156.9050, 5185.275
157.3871, 5169.299
157.8692, 5137.381
158.3513, 5101.957
158.8335, 5085.049
159.3156, 5109.385
159.7977, 5141.595
160.2798, 5164.317
160.7619, 5175.714
161.2440, 5176.616
161.7262, 5161.312
162.2083, 5133.786
162.6904, 5110.828
163.1725, 5099.643
163.6546, 5095.148
164.1367, 5093.361
164.6189, 5098.812
165.1010, 5101.537
165.5831, 5093.752
166.0652, 5075.876
166.5473, 5060.994
167.0294, 5053.523
167.5116, 5053.429
167.9937, 5060.949
168.4758, 5092.224
168.9579, 5119.967
169.4400, 5118.387
169.9221, 5082.750
170.4043, 5051.936
170.8864, 5056.289
171.3685, 5083.891
171.8506, 5112.805
172.3327, 5140.564
172.8148, 5160.479
173.2970, 5161.707
173.7791, 5138.362
174.2612, 5114.146
174.7433, 5111.235
175.2254, 5125.120
175.7076, 5142.552
176.1897, 5163.992
176.6718, 5182.250
177.1539, 5185.498
177.6360, 5166.886
178.1181, 5141.867
178.6003, 5126.138
179.0824, 5119.109
179.5645, 5117.479
180.0466, 5122.659
180.5287, 5131.377
181.0108, 5135.991
181.4930, 5132.593
181.9751, 5126.304
182.4572, 5123.625
182.9393, 5124.515
183.4214, 5131.008
183.9035, 5151.895
184.3857, 5181.310
184.8678, 5199.939
185.3499, 5198.776
185.8320, 5183.465
186.3141, 5163.930
186.7962, 5139.201
187.2784, 5117.383
187.7605, 5105.499
188.2426, 5103.405
188.7247, 5110.845
189.2068, 5134.417
189.6889, 5168.418
190.1711, 5192.483
190.6532, 5206.782
191.1353, 5209.833
191.6174, 5190.413
192.0995, 5150.073
192.5816, 5120.626
193.0638, 5127.172
193.5459, 5163.705
194.0280, 5178.318
194.5101, 5165.284
194.9922, 5139.696
195.4743, 5126.729
195.9565, 5127.034
196.4386, 5131.140
196.9207, 5135.715
197.4028, 5140.769
197.8849, 5142.237
198.3671, 5139.125
198.8492, 5133.321
199.3313, 5131.621
199.8134, 5136.054
200.2955, 5133.354
200.7776, 5106.426
201.2598, 5052.329
201.7419, 5024.086
202.2240, 5034.890
202.7061, 5071.726
203.1882, 5088.120
203.6703, 5078.715
204.1525, 5066.089
204.6346, 5071.473
205.1167, 5099.842
205.5988, 5110.488
206.0809, 5090.025
206.5630, 5046.054
207.0452, 5024.394
207.5273, 5031.540
208.0094, 5046.154
208.4915, 5048.871
208.9736, 5036.585
209.4557, 5027.213
209.9379, 5027.036
210.4200, 5034.831
210.9021, 5027.700
211.3842, 4996.109
211.8663, 4965.767
212.3484, 4970.558
212.8306, 5025.540
213.3127, 5064.522
213.7948, 5066.032
214.2769, 5028.542
214.7590, 5007.565
215.2411, 5009.713
215.7233, 5020.185
216.2054, 5019.736
216.6875, 5003.846
217.1696, 4989.136
217.6517, 4981.448
218.1338, 4982.319
218.6160, 4977.039
219.0981, 4962.967
219.5802, 4944.980
220.0623, 4929.444
220.5444, 4913.749
221.0265, 4906.117
221.5087, 4911.627
221.9908, 4935.210
222.4729, 4950.827
222.9550, 4957.516
223.4371, 4957.157
223.9192, 4951.975
224.4014, 4938.280
224.8835, 4927.143
225.3656, 4923.537
225.8477, 4930.355
226.3298, 4935.471
226.8119, 4937.482
227.2941, 4938.314
227.7762, 4942.736
228.2583, 4952.386
228.7404, 4962.387
229.2225, 4970.565
229.7046, 4976.402
230.1868, 4982.019
230.6689, 4991.983
231.1510, 5000.493
231.6331, 4988.226
232.1152, 4936.769
232.5974, 4892.021
233.0795, 4877.281
233.5616, 4910.682
234.0437, 4933.809
234.5258, 4942.868
235.0079, 4941.101
235.4901, 4938.549
235.9722, 4931.461
236.4543, 4929.303
236.9364, 4939.465
237.4185, 4974.912
237.9006, 4994.210
238.3828, 4989.033
238.8649, 4965.616
239.3470, 4950.126
239.8291, 4942.667
240.3112, 4942.870
240.7933, 4952.770
241.2755, 4983.310
241.7576, 4998.920
242.2397, 4989.429
242.7218, 4961.124
243.2039, 4949.688
243.6860, 4964.485
244.1682, 4984.069
244.6503, 4994.489
245.1324, 4991.015
245.6145, 4988.816
246.0966, 4989.591
246.5787, 4992.975
247.0609, 4995.823
247.5430, 4996.077
248.0251, 4998.520
248.5072, 5008.008
248.9893, 5031.917
249.4714, 5045.887
249.9536, 5041.281
250.4357, 5021.649
250.9178, 5020.490
251.3999, 5048.236
251.8820, 5080.978
252.3641, 5101.472
252.8463, 5106.729
253.3284, 5105.866
253.8105, 5097.865
254.2926, 5083.761
254.7747, 5072.853
255.2568, 5062.675
255.7390, 5059.006
256.2211, 5068.623
256.7032, 5100.116
257.1853, 5123.799
257.6674, 5133.068
258.1495, 5129.495
258.6317, 5129.870
259.1138, 5137.168
259.5959, 5144.090
260.0780, 5143.065
260.5601, 5128.547
261.0422, 5120.555
261.5244, 5123.432
262.0065, 5136.248
262.4886, 5147.964
262.9707, 5157.538
263.4528, 5167.829
263.9349, 5182.609
264.4171, 5205.417
264.8992, 5222.603
265.3813, 5231.716
265.8634, 5233.174
266.3455, 5230.740
266.8276, 5221.884
267.3098, 5213.635
267.7919, 5213.225
268.2740, 5223.699
268.7561, 5230.531
269.2382, 5228.569
269.7203, 5219.875
270.2025, 5222.689
270.6846, 5241.711
271.1667, 5262.204
271.6488, 5270.404
272.1309, 5263.388
272.6130, 5256.914
273.0952, 5252.845
273.5773, 5251.577
274.0594, 5256.445
274.5415, 5268.851
275.0236, 5283.667
275.5057, 5298.315
275.9879, 5313.989
276.4700, 5320.696
276.9521, 5312.659
277.4342, 5294.423
277.9163, 5289.881
278.3984, 5301.656
278.8806, 5318.103
279.3627, 5331.313
279.8448, 5341.537
280.3269, 5343.530
280.8090, 5332.085
281.2911, 5312.758
281.7733, 5308.458
282.2554, 5321.423
282.7375, 5337.603
283.2196, 5345.396
283.7017, 5344.736
284.1838, 5342.033
284.6660, 5337.631
285.1481, 5332.427
285.6302, 5327.619
286.1123, 5322.723
286.5944, 5322.628
287.0765, 5336.785
287.5587, 5363.256
288.0408, 5377.241
288.5229, 5368.967
289.0050, 5350.280
289.4871, 5355.280
289.9692, 5384.780
290.4514, 5408.803
290.9335, 5394.844
291.4156, 5351.285
291.8977, 5325.807
292.3798, 5331.621
292.8619, 5353.321
293.3441, 5360.806
293.8262, 5354.632
294.3083, 5347.315
294.7904, 5350.151
295.2726, 5359.445
295.7547, 5361.389
296.2368, 5349.205
296.7189, 5336.116
297.2010, 5347.460
297.6831, 5380.083
298.1653, 5411.489
298.6474, 5425.188
299.1295, 5426.719
299.6116, 5428.789
300.0937, 5434.497
300.5758, 5438.962
301.0580, 5432.225
301.5401, 5417.221
302.0222, 5406.688
302.5043, 5409.388
302.9864, 5421.545
303.4685, 5439.596
303.9507, 5466.477
304.4328, 5489.878
304.9149, 5494.942
305.3970, 5485.829
305.8791, 5474.840
306.3612, 5464.357
306.8434, 5457.747
307.3255, 5460.169
307.8076, 5473.689
308.2897, 5490.460
308.7718, 5506.891
309.2539, 5521.768
309.7361, 5532.441
310.2182, 5526.801
310.7003, 5522.548
311.1824, 5540.113
311.6645, 5586.715
312.1466, 5626.571
312.6288, 5629.155
313.1109, 5611.090
313.5930, 5600.867
314.0751, 5618.409
314.5572, 5641.740
315.0393, 5657.463
315.5215, 5663.957
316.0036, 5667.761
316.4857, 5668.896
316.9678, 5670.038
317.4499, 5674.680
317.9320, 5692.209
318.4142, 5706.564
318.8963, 5707.260
319.3784, 5692.588
319.8605, 5683.792
320.3426, 5693.978
320.8247, 5711.048
321.3069, 5722.564
321.7890, 5717.131
322.2711, 5713.865
322.7532, 5717.618
323.2353, 5728.493
323.7174, 5744.369
324.1996, 5774.725
324.6817, 5804.678
325.1638, 5822.295
325.6459, 5816.252
326.1280, 5808.789
326.6101, 5803.509
327.0923, 5800.233
327.5744, 5795.054
328.0565, 5780.457
328.5386, 5768.960
329.0207, 5768.420
329.5028, 5800.961
329.9850, 5815.957
330.4671, 5798.798
330.9492, 5758.376
331.4313, 5739.978
331.9134, 5759.083
332.3955, 5784.321
332.8777, 5798.810
333.3598, 5790.823
333.8419, 5794.990
334.3240, 5818.084
334.8061, 5852.631
335.2882, 5877.822
335.7704, 5890.806
336.2525, 5899.005
336.7346, 5905.651
337.2167, 5911.017
337.6988, 5912.202
338.1809, 5905.962
338.6631, 5898.197
339.1452, 5902.164
339.6273, 5921.587
340.1094, 5939.750
340.5915, 5949.368
341.0736, 5949.931
341.5558, 5952.354
342.0379, 5957.720
342.5200, 5963.015
343.0021, 5964.466
343.4842, 5962.110
343.9663, 5956.021
344.4485, 5941.690
344.9306, 5922.441
345.4127, 5921.658
345.8948, 5941.305
346.3769, 5967.978
346.8590, 5987.812
347.3412, 6001.746
347.8233, 6014.722
348.3054, 6027.239
348.7875, 6040.379
349.2696, 6057.551
349.7517, 6078.440
350.2339, 6098.588
350.7160, 6110.172
351.1981, 6117.406
351.6802, 6133.100
352.1623, 6167.101
352.6444, 6201.844
353.1266, 6209.283
353.6087, 6193.515
354.0908, 6177.458
354.5729, 6173.981
355.0550, 6180.340
355.5371, 6193.908
356.0193, 6216.590
356.5014, 6241.491
356.9835, 6267.599
357.4656, 6292.060
357.9477, 6306.800
358.4298, 6297.899
358.9120, 6283.858
359.3941, 6280.838
359.8762, 6293.794
360.3583, 6306.710
360.8404, 6309.481
361.3225, 6306.887
361.8047, 6306.574
362.2868, 6308.783
362.7689, 6315.851
363.2510, 6329.008
363.7331, 6348.402
364.2152, 6372.147
364.6974, 6405.953
365.1795, 6440.750
365.6616, 6467.604
366.1437, 6485.714
366.6258, 6494.694
367.1079, 6486.396
367.5901, 6461.114
368.0722, 6453.974
368.5543, 6488.761
369.0364, 6530.356
369.5185, 6555.068
370.0006, 6548.515
370.4828, 6544.410
370.9649, 6545.394
371.4470, 6550.785
371.9291, 6556.282
372.4112, 6554.566
372.8933, 6561.811
373.3755, 6589.583
373.8576, 6656.167
374.3397, 6696.155
374.8218, 6696.826
375.3039, 6676.435
375.7861, 6675.913
376.2682, 6701.020
376.7503, 6729.313
377.2324, 6752.368
377.7145, 6769.927
378.1967, 6783.829
378.6788, 6793.133
379.1609, 6800.691
379.6430, 6808.887
380.1251, 6817.572
380.6072, 6832.381
381.0894, 6861.362
381.5715, 6898.181
382.0536, 6912.643
382.5357, 6903.376
383.0178, 6887.991
383.4999, 6879.384
383.9821, 6877.918
384.4642, 6885.479
384.9463, 6905.577
385.4284, 6931.228
385.9105, 6952.209
386.3926, 6968.748
386.8748, 6984.591
387.3569, 7007.030
387.8390, 7029.138
388.3211, 7037.292
388.8032, 7023.295
389.2853, 7010.308
389.7675, 7028.076
390.2496, 7063.773
390.7317, 7085.704
391.2138, 7057.714
391.6959, 7022.970
392.1780, 7016.715
392.6602, 7046.394
393.1423, 7081.660
393.6244, 7112.866
394.1065, 7139.494
394.5886, 7161.205
395.0707, 7173.511
395.5529, 7184.685
396.0350, 7197.231
396.5171, 7211.202
396.9992, 7226.501
397.4813, 7244.031
397.9634, 7261.903
398.4456, 7278.925
398.9277, 7295.899
399.4098, 7310.513
399.8919, 7319.241
400.3740, 7324.430
400.8561, 7336.596
401.3383, 7363.034
401.8204, 7388.648
402.3025, 7406.083
402.7846, 7408.520
403.2667, 7419.718
403.7488, 7442.543
404.2310, 7472.277
404.7131, 7499.943
405.1952, 7522.809
405.6773, 7551.133
406.1594, 7592.177
406.6415, 7645.876
407.1237, 7684.125
407.6058, 7704.627
408.0879, 7714.758
408.5700, 7718.686
409.0521, 7716.201
409.5342, 7718.856
410.0164, 7730.863
410.4985, 7748.551
410.9806, 7760.775
411.4627, 7767.533
411.9448, 7778.098
412.4269, 7803.269
412.9091, 7838.052
413.3912, 7866.997
413.8733, 7887.064
414.3554, 7904.174
414.8375, 7926.610
415.3196, 7952.112
415.8018, 7973.590
416.2839, 7981.101
416.7660, 7985.991
417.2481, 8000.474
417.7302, 8025.973
418.2123, 8054.377
418.6945, 8082.728
419.1766, 8110.200
419.6587, 8135.199
420.1408, 8156.219
420.6229, 8176.056
421.1050, 8197.514
421.5872, 8219.887
422.0693, 8237.622
422.5514, 8243.619
423.0335, 8247.726
423.5156, 8256.198
423.9977, 8273.571
424.4799, 8289.937
424.9620, 8300.696
425.4441, 8309.313
425.9262, 8324.561
426.4083, 8349.885
426.8904, 8377.460
427.3726, 8406.225
427.8547, 8437.526
428.3368, 8462.939
428.8189, 8482.823
429.3010, 8496.874
429.7831, 8502.937
430.2653, 8496.890
430.7474, 8498.705
431.2295, 8518.045
431.7116, 8549.347
432.1937, 8558.019
432.6758, 8540.314
433.1580, 8518.826
433.6401, 8508.347
434.1222, 8508.599
434.6043, 8515.597
435.0864, 8526.658
435.5685, 8548.450
436.0507, 8608.101
436.5328, 8696.699
437.0149, 8758.948
437.4970, 8744.578
437.9791, 8692.393
438.4612, 8669.136
438.9434, 8678.859
439.4255, 8693.348
439.9076, 8690.617
440.3897, 8676.728
440.8718, 8661.396
441.3539, 8642.929
441.8361, 8629.184
442.3182, 8625.853
442.8003, 8632.181
443.2824, 8643.702
443.7645, 8668.912
444.2466, 8692.193
444.7288, 8701.233
445.2109, 8684.137
445.6930, 8673.629
446.1751, 8685.904
446.6572, 8707.330
447.1393, 8714.691
447.6215, 8685.446
448.1036, 8661.711
448.5857, 8655.709
449.0678, 8669.795
449.5499, 8678.056
450.0320, 8674.032
450.5142, 8670.920
450.9963, 8682.897
451.4784, 8721.970
451.9605, 8741.707
452.4426, 8729.569
452.9247, 8697.896
453.4069, 8682.476
453.8890, 8684.072
454.3711, 8698.120
454.8532, 8729.542
455.3353, 8775.868
455.8174, 8807.364
456.2996, 8823.576
456.7817, 8822.488
457.2638, 8782.946
457.7459, 8718.140
458.2281, 8684.515
458.7102, 8731.924
459.1923, 8803.240
459.6744, 8806.760
460.1565, 8748.895
460.6386, 8687.026
461.1208, 8654.389
461.6029, 8641.238
462.0850, 8638.623
462.5671, 8650.628
463.0492, 8660.128
463.5313, 8653.487
464.0135, 8638.182
464.4956, 8628.665
464.9777, 8636.393
465.4598, 8645.150
465.9419, 8646.787
466.4240, 8639.545
466.9062, 8636.103
467.3883, 8648.260
467.8704, 8658.791
468.3525, 8653.031
468.8346, 8610.538
469.3167, 8580.285
469.7989, 8568.597
470.2810, 8571.109
470.7631, 8574.351
471.2452, 8580.121
471.7273, 8582.843
472.2094, 8580.565
472.6916, 8573.617
473.1737, 8559.216
473.6558, 8534.751
474.1379, 8510.555
474.6200, 8503.963
475.1021, 8514.350
475.5843, 8514.049
476.0664, 8487.778
476.5485, 8451.700
477.0306, 8444.476
477.5127, 8464.036
477.9948, 8488.816
478.4770, 8505.506
478.9591, 8516.731
479.4412, 8525.358
479.9233, 8530.262
480.4054, 8537.596
480.8875, 8557.387
481.3697, 8581.964
481.8518, 8598.373
482.3339, 8596.410
482.8160, 8588.905
483.2981, 8579.097
483.7802, 8567.507
484.2624, 8562.343
484.7445, 8573.028
485.2266, 8585.946
485.7087, 8592.748
486.1908, 8594.518
486.6729, 8587.109
487.1551, 8564.810
487.6372, 8534.956
488.1193, 8511.292
488.6014, 8495.037
489.0835, 8484.022
489.5656, 8478.480
490.0478, 8478.572
490.5299, 8480.254
491.0120, 8483.858
491.4941, 8488.779
491.9762, 8496.476
492.4583, 8506.979
492.9405, 8510.476
493.4226, 8503.146
493.9047, 8492.271
494.3868, 8494.681
494.8689, 8507.662
495.3510, 8513.096
495.8332, 8492.358
496.3153, 8460.783
496.7974, 8441.532
497.2795, 8435.262
497.7616, 8436.339
498.2437, 8452.194
498.7259, 8468.586
499.2080, 8466.442
499.6901, 8416.010
500.1722, 8377.262
500.6543, 8393.147
501.1364, 8443.816
501.6186, 8475.679
502.1007, 8459.876
502.5828, 8434.437
503.0649, 8414.178
503.5470, 8402.082
504.0291, 8388.613
504.5113, 8370.963
504.9934, 8353.846
505.4755, 8341.303
505.9576, 8333.584
506.4397, 8330.564
506.9218, 8334.399
507.4040, 8342.131
507.8861, 8345.261
508.3682, 8344.184
508.8503, 8335.802
509.3324, 8312.896
509.8145, 8278.121
510.2967, 8255.136
510.7788, 8244.318
511.2609, 8243.786
511.7430, 8255.952
512.2252, 8277.100
512.7073, 8296.562
513.1894, 8309.405
513.6715, 8321.584
514.1536, 8343.175
514.6357, 8370.502
515.1179, 8390.832
515.6000, 8404.326
516.0821, 8403.536
516.5642, 8373.358
517.0463, 8303.913
517.5284, 8259.173
518.0106, 8279.034
518.4927, 8325.375
518.9748, 8360.567
519.4569, 8373.054
519.9390, 8381.688
520.4211, 8384.412
520.9033, 8384.469
521.3854, 8396.221
521.8675, 8434.019
522.3496, 8459.346
522.8317, 8451.104
523.3138, 8404.329
523.7960, 8377.734
524.2781, 8374.699
524.7602, 8382.396
525.2423, 8393.475
525.7244, 8406.698
526.2065, 8400.958
526.6887, 8364.035
527.1708, 8317.566
527.6529, 8299.813
528.1350, 8306.571
528.6171, 8318.099
529.0992, 8326.611
529.5814, 8331.895
530.0635, 8331.793
530.5456, 8325.747
531.0277, 8322.140
531.5098, 8330.060
531.9919, 8340.654
532.4741, 8345.323
532.9562, 8339.116
533.4383, 8329.512
533.9204, 8316.171
534.4025, 8300.516
534.8846, 8286.701
535.3668, 8270.292
535.8489, 8261.393
536.3310, 8268.091
536.8131, 8293.462
537.2952, 8294.253
537.7773, 8258.273
538.2595, 8219.095
538.7416, 8206.989
539.2237, 8225.417
539.7058, 8238.168
540.1879, 8241.204
540.6700, 8237.466
541.1522, 8227.157
541.6343, 8211.946
542.1164, 8205.670
542.5985, 8223.417
543.0806, 8250.020
543.5627, 8257.913
544.0449, 8248.591
544.5270, 8242.487
545.0091, 8260.251
545.4912, 8284.645
545.9733, 8296.667
546.4554, 8286.650
546.9376, 8279.339
547.4197, 8287.911
547.9018, 8304.672
548.3839, 8318.368
548.8660, 8333.519
549.3481, 8338.249
549.8303, 8323.634
550.3124, 8293.063
550.7945, 8276.672
551.2766, 8281.887
551.7587, 8290.417
552.2408, 8293.120
552.7230, 8289.153
553.2051, 8285.400
553.6872, 8283.026
554.1693, 8277.983
554.6514, 8263.100
555.1335, 8239.290
555.6157, 8217.664
556.0978, 8202.519
556.5799, 8188.856
557.0620, 8166.606
557.5441, 8137.841
558.0262, 8111.931
558.5084, 8096.728
558.9905, 8085.820
559.4726, 8075.618
559.9547, 8066.263
560.4368, 8049.424
560.9189, 8011.253
561.4011, 7969.464
561.8832, 7939.420
562.3653, 7946.326
562.8474, 7937.592
563.3295, 7891.741
563.8116, 7828.706
564.2938, 7788.130
564.7759, 7783.120
565.2580, 7777.938
565.7401, 7758.061
566.2222, 7726.059
566.7043, 7722.451
567.1865, 7754.127
567.6686, 7787.363
568.1507, 7798.448
568.6328, 7788.891
569.1149, 7764.797
569.5970, 7722.390
570.0792, 7682.684
570.5613, 7669.118
571.0434, 7677.422
571.5255, 7698.795
572.0076, 7746.023
572.4897, 7788.972
572.9719, 7795.267
573.4540, 7774.658
573.9361, 7763.406
574.4182, 7784.478
574.9003, 7812.501
575.3824, 7836.626
575.8646, 7857.541
576.3467, 7867.297
576.8288, 7851.280
577.3109, 7834.419
577.7930, 7837.044
578.2751, 7868.040
578.7573, 7897.982
579.2394, 7927.088
579.7215, 7951.640
580.2036, 7959.386
580.6857, 7948.386
581.1678, 7946.052
581.6500, 7967.945
582.1321, 8004.825
582.6142, 8034.691
583.0963, 8056.984
583.5784, 8064.360
584.0605, 8035.734
584.5427, 7995.406
585.0248, 7978.648
585.5069, 7994.511
585.9890, 8012.480
586.4711, 8011.308
586.9532, 8003.010
587.4354, 8001.518
587.9175, 8021.563
588.3996, 8036.106
588.8817, 8037.143
589.3638, 8027.735
589.8459, 8019.273
590.3281, 8015.592
590.8102, 8006.596
591.2923, 7985.878
591.7744, 7953.243
592.2565, 7932.956
592.7386, 7927.153
593.2208, 7925.849
593.7029, 7925.764
594.1850, 7924.782
594.6671, 7904.164
595.1492, 7856.735
595.6313, 7809.033
596.1135, 7799.743
596.5956, 7814.586
597.0777, 7821.246
597.5598, 7806.212
598.0419, 7779.787
598.5240, 7737.851
599.0062, 7688.134
599.4883, 7656.735
599.9704, 7665.849
600.4525, 7684.301
600.9346, 7698.249
601.4167, 7705.412
601.8989, 7715.538
602.3810, 7734.843
602.8631, 7750.200
603.3452, 7752.135
603.8273, 7739.795
604.3094, 7713.396
604.7916, 7665.712
605.2737, 7615.622
605.7558, 7597.018
606.2379, 7607.791
606.7200, 7618.111
607.2021, 7617.873
607.6843, 7611.572
608.1664, 7603.518
608.6485, 7594.998
609.1306, 7591.510
609.6127, 7600.033
610.0948, 7612.764
610.5770, 7627.410
611.0591, 7644.935
611.5412, 7647.884
612.0233, 7614.168
612.5054, 7573.184
612.9875, 7547.662
613.4697, 7553.719
613.9518, 7555.069
614.4339, 7551.919
614.9160, 7543.943
615.3981, 7528.413
615.8802, 7501.751
616.3624, 7483.332
616.8445, 7482.042
617.3266, 7490.034
617.8087, 7480.449
618.2908, 7454.206
618.7729, 7432.281
619.2551, 7430.821
619.7372, 7440.425
620.2193, 7450.304
620.7014, 7459.733
621.1835, 7457.560
621.6656, 7422.358
622.1478, 7379.583
622.6299, 7354.191
623.1120, 7359.650
623.5941, 7364.182
624.0762, 7357.857
624.5583, 7346.768
625.0405, 7339.310
625.5226, 7334.418
626.0047, 7336.348
626.4868, 7351.630
626.9689, 7372.685
627.4510, 7370.090
627.9332, 7339.736
628.4153, 7308.099
628.8974, 7284.264
629.3795, 7269.118
629.8616, 7269.678
630.3438, 7285.618
630.8259, 7300.790
631.3080, 7297.522
631.7901, 7287.535
632.2722, 7288.594
632.7543, 7306.422
633.2365, 7322.820
633.7186, 7330.823
634.2007, 7331.198
634.6828, 7324.814
635.1649, 7297.225
635.6470, 7281.182
636.1292, 7287.719
636.6113, 7307.703
637.0934, 7320.447
637.5755, 7324.583
638.0576, 7324.867
638.5397, 7321.995
639.0219, 7316.419
639.5040, 7308.295
639.9861, 7297.021
640.4682, 7291.496
640.9503, 7297.092
641.4324, 7312.931
641.9146, 7342.222
642.3967, 7385.956
642.8788, 7423.112
643.3609, 7435.083
643.8430, 7432.073
644.3251, 7424.506
644.8073, 7412.004
645.2894, 7400.573
645.7715, 7382.759
646.2536, 7369.635
646.7357, 7379.802
647.2178, 7434.220
647.7000, 7479.769
648.1821, 7506.127
648.6642, 7518.080
649.1463, 7532.152
649.6284, 7549.504
650.1105, 7563.821
650.5927, 7569.542
651.0748, 7570.151
651.5569, 7577.518
652.0390, 7591.550
652.5211, 7610.585
653.0032, 7638.225
653.4854, 7667.690
653.9675, 7689.879
654.4496, 7702.026
654.9317, 7715.091
655.4138, 7736.300
655.8959, 7760.330
656.3781, 7781.480
656.8602, 7790.303
657.3423, 7808.284
657.8244, 7846.958
658.3065, 7890.295
658.7886, 7905.690
659.2708, 7881.761
659.7529, 7869.159
660.2350, 7882.759
660.7171, 7914.700
661.1992, 7948.467
661.6813, 7983.457
662.1635, 8006.354
662.6456, 8002.207
663.1277, 7984.810
663.6099, 7974.590
664.0920, 7971.577
664.5741, 7966.460
665.0562, 7950.949
665.5383, 7933.234
666.0204, 7919.013
666.5026, 7908.976
666.9847, 7903.063
667.4668, 7916.475
667.9489, 7924.198
668.4310, 7902.352
668.9131, 7834.618
669.3953, 7782.642
669.8774, 7752.155
670.3595, 7738.516
670.8416, 7740.439
671.3237, 7756.405
671.8058, 7761.350
672.2880, 7739.504
672.7701, 7711.326
673.2522, 7715.642
673.7343, 7741.948
674.2164, 7753.706
674.6985, 7713.587
675.1807, 7667.102
675.6628, 7645.535
676.1449, 7648.715
676.6270, 7652.917
677.1091, 7658.004
677.5912, 7658.216
678.0734, 7648.826
678.5555, 7625.810
679.0376, 7612.646
679.5197, 7609.128
680.0018, 7616.078
680.4839, 7644.999
680.9661, 7692.150
681.4482, 7705.402
681.9303, 7672.875
682.4124, 7627.652
682.8945, 7609.088
683.3766, 7607.620
683.8588, 7603.589
684.3409, 7585.758
684.8230, 7570.625
685.3051, 7566.905
685.7872, 7572.855
686.2693, 7584.478
686.7515, 7607.979
687.2336, 7629.563
687.7157, 7649.063
688.1978, 7664.955
688.6799, 7666.998
689.1620, 7649.359
689.6442, 7634.518
690.1263, 7633.875
690.6084, 7645.115
691.0905, 7653.096
691.5726, 7657.565
692.0547, 7666.396
692.5369, 7696.945
693.0190, 7731.016
693.5011, 7738.075
693.9832, 7711.571
694.4653, 7687.318
694.9474, 7686.467
695.4296, 7696.245
695.9117, 7705.623
696.3938, 7715.498
696.8759, 7720.792
697.3580, 7718.619
697.8401, 7714.224
698.3223, 7715.064
698.8044, 7723.300
699.2865, 7726.732
699.7686, 7720.728
700.2507, 7712.499
700.7328, 7716.207
701.2150, 7730.510
701.6971, 7748.975
702.1792, 7773.164
702.6613, 7795.950
703.1434, 7813.259
703.6255, 7823.566
704.1077, 7821.898
704.5898, 7785.615
705.0719, 7755.546
705.5540, 7760.305
706.0361, 7803.006
706.5182, 7811.989
707.0004, 7766.583
707.4825, 7717.752
707.9646, 7691.008
708.4467, 7686.856
708.9288, 7697.620
709.4109, 7726.805
709.8931, 7751.370
710.3752, 7740.313
710.8573, 7709.755
711.3394, 7699.121
711.8215, 7717.311
712.3036, 7736.498
712.7858, 7731.038
713.2679, 7716.847
713.7500, 7713.138
714.2321, 7744.246
714.7142, 7757.579
715.1964, 7724.358
715.6785, 7675.426
716.1606, 7652.520
716.6427, 7661.108
717.1248, 7681.827
717.6069, 7717.980
718.0891, 7757.012
718.5712, 7766.364
719.0533, 7748.325
719.5354, 7722.941
720.0175, 7691.276
720.4996, 7663.354
720.9818, 7654.705
721.4639, 7661.752
721.9460, 7670.023
722.4281, 7677.987
722.9102, 7681.012
723.3923, 7672.860
723.8745, 7653.452
724.3566, 7645.545
724.8387, 7660.957
725.3208, 7672.888
725.8029, 7663.326
726.2850, 7630.622
726.7672, 7627.369
727.2493, 7657.553
727.7314, 7691.677
728.2135, 7703.382
728.6956, 7699.601
729.1777, 7696.719
729.6599, 7696.444
730.1420, 7696.062
730.6241, 7690.522
731.1062, 7685.419
731.5883, 7687.043
732.0704, 7700.951
732.5526, 7713.987
733.0347, 7725.170
733.5168, 7734.292
733.9989, 7742.061
734.4810, 7751.026
734.9631, 7750.011
735.4453, 7734.183
735.9274, 7714.080
736.4095, 7709.281
736.8916, 7717.515
737.3737, 7724.309
737.8558, 7721.779
738.3380, 7720.316
738.8201, 7735.888
739.3022, 7760.830
739.7843, 7777.722
740.2664, 7774.909
740.7485, 7767.377
741.2307, 7756.738
741.7128, 7745.088
742.1949, 7742.050
742.6770, 7750.359
743.1591, 7762.450
743.6412, 7777.607
744.1234, 7794.627
744.6055, 7803.426
745.0876, 7804.000
745.5697, 7808.409
746.0518, 7826.625
746.5339, 7852.239
747.0161, 7880.297
747.4982, 7909.298
747.9803, 7924.516
748.4624, 7900.387
748.9445, 7872.845
749.4266, 7865.500
749.9088, 7884.881
750.3909, 7906.813
750.8730, 7939.827
751.3551, 7964.184
751.8372, 7962.095
752.3193, 7930.167
752.8015, 7913.523
753.2836, 7914.586
753.7657, 7923.274
754.2478, 7928.525
754.7299, 7933.996
755.2120, 7949.701
755.6942, 7980.585
756.1763, 8007.128
756.6584, 8008.839
757.1405, 8002.326
757.6226, 8005.317
758.1047, 8035.784
758.5869, 8053.827
759.0690, 8050.378
759.5511, 8038.642
760.0332, 8036.976
760.5153, 8047.606
760.9974, 8053.197
761.4796, 8049.537
761.9617, 8043.532
762.4438, 8047.118
762.9259, 8058.002
763.4080, 8068.579
763.8901, 8076.900
764.3723, 8083.707
764.8544, 8089.540
765.3365, 8094.436
765.8186, 8098.235
766.3007, 8097.204
766.7828, 8099.516
767.2650, 8108.128
767.7471, 8120.574
768.2292, 8128.317
768.7113, 8129.597
769.1934, 8133.822
769.6755, 8144.503
770.1577, 8159.869
770.6398, 8180.074
771.1219, 8202.965
771.6040, 8217.091
772.0861, 8201.567
772.5682, 8187.236
773.0504, 8200.966
773.5325, 8239.132
774.0146, 8274.771
774.4967, 8309.052
774.9788, 8331.154
775.4609, 8334.581
775.9431, 8320.567
776.4252, 8309.067
776.9073, 8299.153
777.3894, 8296.185
777.8715, 8304.288
778.3536, 8321.853
778.8358, 8346.227
779.3179, 8376.870
779.8000, 8406.555
780.2821, 8423.827
780.7642, 8443.075
781.2463, 8479.637
781.7285, 8537.076
782.2106, 8587.524
782.6927, 8625.968
783.1748, 8655.170
783.6569, 8669.661
784.1390, 8663.311
784.6212, 8696.093
785.1033, 8776.703
785.5854, 8859.819
786.0675, 8904.461
786.5496, 8922.060
787.0317, 8945.377
787.5139, 8978.133
787.9960, 9003.121
788.4781, 8997.062
788.9602, 8983.671
789.4423, 8984.204
789.9244, 9005.481
790.4066, 9033.171
790.8887, 9083.995
791.3708, 9122.786
791.8529, 9110.356
792.3350, 9032.925
792.8171, 9008.076
793.2993, 9051.083
793.7814, 9108.285
794.2635, 9109.439
794.7456, 9081.067
795.2277, 9091.799
795.7098, 9167.778
796.1920, 9227.061
796.6741, 9202.018
797.1562, 9141.110
797.6383, 9095.286
798.1204, 9074.256
798.6025, 9070.027
799.0847, 9099.321
799.5668, 9127.018
800.0489, 9101.359
800.5310, 9018.986
801.0131, 8962.111
801.4952, 8945.576
801.9774, 8943.896
802.4595, 8922.738
802.9416, 8893.087
803.4237, 8876.716
803.9058, 8888.302
804.3879, 8897.228
804.8701, 8885.402
805.3522, 8863.852
805.8343, 8849.050
806.3164, 8856.322
806.7985, 8841.799
807.2806, 8793.149
807.7628, 8733.166
808.2449, 8698.800
808.7270, 8688.435
809.2091, 8680.869
809.6912, 8671.885
810.1733, 8662.353
810.6555, 8652.992
811.1376, 8643.653
811.6197, 8634.078
812.1018, 8618.560
812.5839, 8609.272
813.0660, 8616.703
813.5482, 8629.782
814.0303, 8630.147
814.5124, 8613.322
814.9945, 8598.237
815.4766, 8589.427
815.9587, 8581.372
816.4409, 8559.283
816.9230, 8527.912
817.4051, 8510.438
817.8872, 8521.378
818.3693, 8535.304
818.8514, 8523.565
819.3336, 8502.227
819.8157, 8498.101
820.2978, 8541.243
820.7799, 8573.002
821.2620, 8580.273
821.7441, 8573.939
822.2263, 8572.519
822.7084, 8575.949
823.1905, 8582.174
823.6726, 8591.388
824.1547, 8600.793
824.6368, 8608.693
825.1190, 8613.153
825.6011, 8609.474
826.0832, 8583.337
826.5653, 8564.954
827.0474, 8576.031
827.5295, 8603.754
828.0117, 8624.291
828.4938, 8636.882
828.9760, 8640.518
829.4581, 8631.305
829.9402, 8617.894
830.4223, 8618.396
830.9044, 8631.686
831.3865, 8645.400
831.8687, 8657.869
832.3508, 8665.317
832.8329, 8657.646
833.3150, 8642.792
833.7971, 8634.557
834.2792, 8646.179
834.7614, 8654.760
835.2435, 8644.164
835.7256, 8631.581
836.2077, 8649.226
836.6898, 8710.367
837.1719, 8744.199
837.6541, 8731.156
838.1362, 8700.111
838.6183, 8697.737
839.1004, 8716.842
839.5825, 8735.715
840.0646, 8748.593
840.5468, 8757.185
841.0289, 8761.668
841.5110, 8762.921
841.9931, 8761.983
842.4752, 8748.799
842.9573, 8749.491
843.4395, 8771.973
843.9216, 8802.510
844.4037, 8820.356
844.8858, 8825.769
845.3679, 8823.104
845.8500, 8812.219
846.3322, 8796.452
846.8143, 8771.390
847.2964, 8746.334
847.7785, 8737.026
848.2606, 8761.123
848.7427, 8780.311
849.2249, 8782.691
849.7070, 8776.126
850.1891, 8769.467
850.6712, 8764.226
851.1533, 8752.102
851.6354, 8729.103
852.1176, 8708.399
852.5997, 8713.628
853.0818, 8734.570
853.5639, 8741.395
854.0460, 8722.794
854.5281, 8707.068
855.0103, 8720.383
855.4924, 8742.063
855.9745, 8749.953
856.4566, 8736.990
856.9387, 8715.196
857.4208, 8676.689
857.9030, 8641.021
858.3851, 8630.201
858.8672, 8642.580
859.3493, 8663.612
859.8314, 8693.299
860.3135, 8718.492
860.7957, 8723.308
861.2778, 8718.808
861.7599, 8718.691
862.2420, 8728.144
862.7241, 8732.049
863.2062, 8723.971
863.6884, 8711.379
864.1705, 8695.626
864.6526, 8673.409
865.1347, 8671.389
865.6168, 8692.412
866.0989, 8717.310
866.5811, 8731.396
867.0632, 8736.737
867.5453, 8736.106
868.0274, 8729.721
868.5095, 8722.874
868.9916, 8711.311
869.4738, 8705.904
869.9559, 8719.189
870.4380, 8755.294
870.9201, 8771.109
871.4022, 8759.668
871.8843, 8749.452
872.3665, 8760.729
872.8486, 8788.542
873.3307, 8816.713
873.8128, 8844.844
874.2949, 8866.487
874.7770, 8876.267
875.2592, 8878.916
875.7413, 8872.919
876.2234, 8858.815
876.7055, 8857.018
877.1876, 8872.557
877.6697, 8893.301
878.1519, 8914.849
878.6340, 8937.649
879.1161, 8969.167
879.5982, 9008.261
880.0803, 9038.591
880.5624, 9038.828
881.0446, 9035.492
881.5267, 9065.945
882.0088, 9117.175
882.4909, 9144.977
882.9730, 9099.146
883.4551, 9073.784
883.9373, 9099.892
884.4194, 9158.295
884.9015, 9193.321
885.3836, 9203.910
885.8657, 9209.245
886.3478, 9213.228
886.8300, 9219.254
887.3121, 9237.395
887.7942, 9260.827
888.2763, 9275.093
888.7584, 9260.386
889.2405, 9252.370
889.7227, 9267.104
890.2048, 9292.178
890.6869, 9309.752
891.1690, 9316.693
891.6511, 9327.361
892.1332, 9342.907
892.6154, 9363.647
893.0975, 9396.287
893.5796, 9433.205
894.0617, 9458.893
894.5438, 9468.702
895.0259, 9469.784
895.5081, 9460.170
895.9902, 9447.458
896.4723, 9439.268
896.9544, 9435.156
897.4365, 9440.159
897.9186, 9457.840
898.4008, 9477.310
898.8829, 9486.092
899.3650, 9488.489
899.8471, 9496.954
900.3292, 9512.600
900.8113, 9537.291
901.2935, 9591.387
901.7756, 9640.690
902.2577, 9652.844
902.7398, 9615.910
903.2219, 9595.548
903.7040, 9592.502
904.1862, 9604.666
904.6683, 9637.854
905.1504, 9685.210
905.6325, 9715.823
906.1146, 9730.170
906.5967, 9736.221
907.0789, 9737.857
907.5610, 9734.310
908.0431, 9719.104
908.5252, 9696.023
909.0073, 9688.070
909.4894, 9715.470
909.9716, 9729.816
910.4537, 9715.547
910.9358, 9682.167
911.4179, 9656.685
911.9000, 9638.215
912.3821, 9617.155
912.8643, 9584.498
913.3464, 9554.930
913.8285, 9543.772
914.3106, 9544.851
914.7927, 9547.129
915.2748, 9550.601
915.7570, 9552.420
916.2391, 9557.661
916.7212, 9555.975
917.2033, 9522.907
917.6854, 9461.305
918.1675, 9428.561
918.6497, 9438.603
919.1318, 9457.141
919.6139, 9447.455
920.0960, 9427.784
920.5781, 9421.703
921.0602, 9442.338
921.5424, 9449.163
922.0245, 9428.925
922.5066, 9402.721
922.9887, 9384.796
923.4708, 9375.367
923.9529, 9359.294
924.4351, 9335.818
924.9172, 9322.830
925.3993, 9348.812
925.8814, 9383.221
926.3635, 9392.995
926.8456, 9377.187
927.3278, 9355.773
927.8099, 9322.414
928.2920, 9298.156
928.7741, 9292.168
929.2562, 9300.677
929.7383, 9306.011
930.2205, 9308.139
930.7026, 9305.479
931.1847, 9292.581
931.6668, 9279.662
932.1489, 9280.339
932.6310, 9289.623
933.1132, 9296.248
933.5953, 9298.204
934.0774, 9294.528
934.5595, 9279.360
935.0416, 9263.623
935.5237, 9266.065
936.0059, 9286.579
936.4880, 9310.861
936.9701, 9339.222
937.4522, 9358.636
937.9343, 9349.102
938.4164, 9325.635
938.8986, 9305.869
939.3807, 9292.364
939.8628, 9285.921
940.3449, 9280.895
940.8270, 9288.561
941.3091, 9324.165
941.7913, 9388.779
942.2734, 9424.498
942.7555, 9430.285
943.2376, 9422.354
943.7197, 9393.622
944.2018, 9370.348
944.6840, 9392.838
945.1661, 9455.391
945.6482, 9488.916
946.1303, 9446.387
946.6124, 9412.463
947.0945, 9415.560
947.5767, 9442.854
948.0588, 9447.773
948.5409, 9432.132
949.0230, 9415.232
949.5051, 9398.729
949.9872, 9393.917
950.4694, 9431.153
950.9515, 9483.107
951.4336, 9502.560
951.9157, 9444.856
952.3978, 9401.022
952.8799, 9378.868
953.3621, 9368.896
953.8442, 9358.371
954.3263, 9348.523
954.8084, 9353.851
955.2905, 9378.199
955.7726, 9396.116
956.2548, 9376.449
956.7369, 9346.332
957.2190, 9332.108
957.7011, 9340.529
958.1832, 9341.202
958.6653, 9331.326
959.1475, 9316.288
959.6296, 9292.534
960.1117, 9266.490
960.5938, 9279.736
961.0759, 9324.553
961.5580, 9349.198
962.0402, 9307.062
962.5223, 9251.572
963.0044, 9211.659
963.4865, 9185.743
963.9686, 9164.033
964.4507, 9147.139
964.9329, 9131.173
965.4150, 9114.139
965.8971, 9099.519
966.3792, 9092.636
966.8613, 9092.999
967.3434, 9101.704
967.8256, 9123.470
968.3077, 9138.524
968.7898, 9132.175
969.2719, 9116.756
969.7540, 9104.685
970.2361, 9099.604
970.7183, 9081.858
971.2004, 9048.286
971.6825, 9014.425
972.1646, 8989.538
972.6467, 8974.059
973.1288, 8973.683
973.6110, 8986.104
974.0931, 8993.550
974.5752, 8986.140
975.0573, 8973.510
975.5394, 8956.678
976.0215, 8938.292
976.5037, 8925.129
976.9858, 8916.919
977.4679, 8919.495
977.9500, 8940.868
978.4321, 8961.118
978.9142, 8949.075
979.3964, 8918.514
979.8785, 8892.841
980.3606, 8882.329
980.8427, 8871.072
981.3248, 8853.038
981.8069, 8837.615
982.2891, 8838.081
982.7712, 8854.367
983.2533, 8846.648
983.7354, 8812.584
984.2175, 8780.077
984.6996, 8771.951
985.1818, 8775.326
985.6639, 8778.810
986.1460, 8781.568
986.6281, 8789.160
987.1102, 8804.383
987.5923, 8818.675
988.0745, 8827.716
988.5566, 8834.826
989.0387, 8855.685
989.5208, 8884.867
990.0029, 8897.754
990.4850, 8875.817
990.9672, 8850.081
991.4493, 8835.720
991.9314, 8830.827
992.4135, 8834.157
992.8957, 8852.478
993.3778, 8858.504
993.8599, 8848.738
994.3420, 8836.042
994.8242, 8834.066
995.3063, 8838.620
995.7884, 8844.796
996.2705, 8851.675
996.7526, 8846.729
997.2347, 8811.780
997.7169, 8775.847
998.1990, 8750.500
998.6811, 8735.594
999.1632, 8730.930
999.6453, 8737.170
1000.127, 8741.347
1000.610, 8736.828
1001.092, 8730.293
1001.574, 8727.979
1002.056, 8730.235
1002.538, 8737.710
1003.020, 8765.690
1003.502, 8775.404
1003.984, 8754.991
1004.466, 8728.607
1004.949, 8722.390
1005.431, 8733.699
1005.913, 8741.204
1006.395, 8743.609
1006.877, 8741.490
1007.359, 8740.010
1007.841, 8730.378
1008.323, 8695.117
1008.806, 8636.537
1009.288, 8617.423
1009.770, 8651.598
1010.252, 8685.374
1010.734, 8702.355
1011.216, 8705.999
1011.698, 8700.013
1012.180, 8686.368
1012.662, 8669.949
1013.145, 8648.533
1013.627, 8631.377
1014.109, 8631.878
1014.591, 8631.042
1015.073, 8607.067
1015.555, 8554.252
1016.037, 8528.452
1016.519, 8533.231
1017.002, 8542.737
1017.484, 8539.118
1017.966, 8526.995
1018.448, 8507.353
1018.930, 8481.986
1019.412, 8463.302
1019.894, 8451.830
1020.376, 8451.439
1020.858, 8468.696
1021.341, 8492.316
1021.823, 8493.370
1022.305, 8476.646
1022.787, 8461.668
1023.269, 8452.839
1023.751, 8450.973
1024.233, 8461.467
1024.715, 8476.278
1025.198, 8489.188
1025.680, 8503.707
1026.162, 8495.141
1026.644, 8458.335
1027.126, 8422.760
1027.608, 8404.978
1028.090, 8404.692
1028.572, 8431.606
1029.054, 8478.174
1029.536, 8510.559
1030.019, 8509.305
1030.501, 8499.523
1030.983, 8483.110
1031.465, 8465.790
1031.947, 8462.428
1032.429, 8471.139
1032.911, 8469.592
1033.393, 8452.186
1033.876, 8432.120
1034.358, 8422.897
1034.840, 8415.474
1035.322, 8398.082
1035.804, 8366.056
1036.286, 8354.563
1036.768, 8371.053
1037.250, 8384.667
1037.733, 8370.564
1038.215, 8346.598
1038.697, 8360.976
1039.179, 8399.826
1039.661, 8421.009
1040.143, 8393.708
1040.625, 8360.730
1041.107, 8322.312
1041.589, 8292.112
1042.072, 8292.531
1042.554, 8323.621
1043.036, 8354.977
1043.518, 8383.789
1044.000, 8405.899
1044.482, 8416.833
1044.964, 8419.618
1045.446, 8416.381
1045.928, 8407.076
1046.411, 8391.763
1046.893, 8365.244
1047.375, 8346.267
1047.857, 8340.645
1048.339, 8346.895
1048.821, 8374.815
1049.303, 8411.396
1049.785, 8422.285
1050.268, 8379.679
1050.750, 8341.126
1051.232, 8323.681
1051.714, 8320.237
1052.196, 8329.586
1052.678, 8352.773
1053.160, 8364.943
1053.642, 8365.940
1054.125, 8369.266
1054.607, 8397.037
1055.089, 8420.919
1055.571, 8408.745
1056.053, 8370.223
1056.535, 8350.505
1057.017, 8365.020
1057.499, 8364.660
1057.981, 8336.160
1058.464, 8300.459
1058.946, 8287.938
1059.428, 8291.385
1059.910, 8295.621
1060.392, 8297.233
1060.874, 8303.923
1061.356, 8328.633
1061.838, 8348.637
1062.320, 8351.933
1062.803, 8340.475
1063.285, 8326.644
1063.767, 8311.188
1064.249, 8304.528
1064.731, 8318.218
1065.213, 8334.016
1065.695, 8333.217
1066.177, 8326.829
1066.660, 8334.896
1067.142, 8372.884
1067.624, 8380.203
1068.106, 8346.882
1068.588, 8313.552
1069.070, 8333.705
1069.552, 8372.434
1070.034, 8364.362
1070.516, 8313.127
1070.999, 8275.538
1071.481, 8281.479
1071.963, 8293.063
1072.445, 8303.636
1072.927, 8311.798
1073.409, 8317.372
1073.891, 8318.658
1074.373, 8302.777
1074.855, 8262.455
1075.338, 8225.598
1075.820, 8208.974
1076.302, 8205.067
1076.784, 8210.789
1077.266, 8226.212
1077.748, 8228.679
1078.230, 8216.323
1078.713, 8209.084
1079.195, 8224.240
1079.677, 8242.534
1080.159, 8236.166
1080.641, 8215.189
1081.123, 8199.086
1081.605, 8194.222
1082.087, 8192.839
1082.569, 8195.845
1083.052, 8199.648
1083.534, 8197.434
1084.016, 8193.538
1084.498, 8206.207
1084.980, 8233.581
1085.462, 8248.022
1085.944, 8226.015
1086.426, 8198.738
1086.908, 8175.370
1087.391, 8156.979
1087.873, 8145.456
1088.355, 8140.942
1088.837, 8147.265
1089.319, 8168.174
1089.801, 8186.354
1090.283, 8178.316
1090.765, 8166.506
1091.248, 8180.343
1091.730, 8225.473
1092.212, 8222.322
1092.694, 8157.284
1093.176, 8109.667
1093.658, 8128.094
1094.140, 8171.566
1094.622, 8178.791
1095.104, 8161.378
1095.587, 8141.499
1096.069, 8112.729
1096.551, 8104.140
1097.033, 8124.833
1097.515, 8152.008
1097.997, 8164.616
1098.479, 8166.723
1098.961, 8177.783
1099.443, 8195.934
1099.926, 8204.941
1100.408, 8187.285
1100.890, 8168.307
1101.372, 8157.584
1101.854, 8151.929
1102.336, 8147.301
1102.818, 8143.596
1103.300, 8134.954
1103.783, 8119.888
1104.265, 8107.769
1104.747, 8110.106
1105.229, 8116.825
1105.711, 8120.242
1106.193, 8120.168
1106.675, 8119.284
1107.157, 8117.722
1107.640, 8116.363
1108.122, 8115.818
1108.604, 8115.315
1109.086, 8109.303
1109.568, 8104.079
1110.050, 8111.200
1110.532, 8142.732
1111.014, 8158.190
1111.496, 8145.779
1111.979, 8135.104
1112.461, 8149.585
1112.943, 8178.842
1113.425, 8190.407
1113.907, 8187.618
1114.389, 8182.724
1114.871, 8184.203
1115.353, 8179.482
1115.835, 8153.542
1116.318, 8131.163
1116.800, 8153.179
1117.282, 8211.922
1117.764, 8215.908
1118.246, 8161.421
1118.728, 8119.640
1119.210, 8162.590
1119.692, 8210.612
1120.175, 8204.690
1120.657, 8165.445
1121.139, 8156.312
1121.621, 8180.712
1122.103, 8197.089
1122.585, 8197.212
1123.067, 8189.093
1123.549, 8175.541
1124.031, 8161.383
1124.514, 8152.337
1124.996, 8149.427
1125.478, 8145.481
1125.960, 8141.019
1126.442, 8131.343
1126.924, 8106.302
1127.406, 8088.250
1127.888, 8132.469
1128.370, 8204.558
1128.853, 8242.549
1129.335, 8213.967
1129.817, 8190.393
1130.299, 8176.484
1130.781, 8172.350
1131.263, 8184.984
1131.745, 8205.388
1132.227, 8199.475
1132.710, 8175.104
1133.192, 8160.860
1133.674, 8183.776
1134.156, 8200.151
1134.638, 8194.481
1135.120, 8182.789
1135.602, 8182.214
1136.084, 8191.479
1136.567, 8200.986
1137.049, 8209.973
1137.531, 8214.854
1138.013, 8205.425
1138.495, 8199.171
1138.977, 8209.821
1139.459, 8228.961
1139.941, 8237.882
1140.423, 8235.923
1140.906, 8246.682
1141.388, 8276.055
1141.870, 8299.901
1142.352, 8292.322
1142.834, 8274.065
1143.316, 8257.153
1143.798, 8244.498
1144.280, 8256.900
1144.762, 8302.132
1145.245, 8322.866
1145.727, 8294.400
1146.209, 8253.523
1146.691, 8237.686
1147.173, 8238.945
1147.655, 8248.246
1148.137, 8265.942
1148.619, 8287.081
1149.102, 8316.447
1149.584, 8331.993
1150.066, 8314.359
1150.548, 8285.104
1151.030, 8280.582
1151.512, 8293.179
1151.994, 8307.667
1152.476, 8321.995
1152.958, 8334.447
1153.441, 8348.883
1153.923, 8354.401
1154.405, 8336.581
1154.887, 8305.390
1155.369, 8285.714
1155.851, 8277.743
1156.333, 8281.206
1156.815, 8312.008
1157.297, 8331.792
1157.780, 8328.790
1158.262, 8319.303
1158.744, 8323.912
1159.226, 8338.579
1159.708, 8343.450
1160.190, 8338.329
1160.672, 8336.083
1161.154, 8352.451
1161.637, 8362.297
1162.119, 8350.605
1162.601, 8330.911
1163.083, 8331.402
1163.565, 8348.598
1164.047, 8350.343
1164.529, 8330.967
1165.011, 8314.707
1165.494, 8320.581
1165.976, 8332.214
1166.458, 8339.412
1166.940, 8343.986
1167.422, 8353.646
1167.904, 8368.351
1168.386, 8384.976
1168.868, 8404.378
1169.350, 8419.122
1169.833, 8416.653
1170.315, 8411.360
1170.797, 8419.565
1171.279, 8439.820
1171.761, 8437.201
1172.243, 8409.933
1172.725, 8401.957
1173.207, 8440.185
1173.689, 8483.691
1174.172, 8497.819
1174.654, 8491.584
1175.136, 8470.732
1175.618, 8431.746
1176.100, 8409.491
1176.582, 8404.004
1177.064, 8415.277
1177.546, 8460.793
1178.029, 8504.045
1178.511, 8490.546
1178.993, 8450.644
1179.475, 8441.449
1179.957, 8485.987
1180.439, 8513.003
1180.921, 8520.034
1181.403, 8520.692
1181.885, 8518.641
1182.368, 8520.961
1182.850, 8546.267
1183.332, 8583.119
1183.814, 8597.798
1184.296, 8570.879
1184.778, 8557.479
1185.260, 8565.838
1185.742, 8571.773
1186.224, 8540.215
1186.707, 8498.017
1187.189, 8483.967
1187.671, 8496.159
1188.153, 8514.790
1188.635, 8544.479
1189.117, 8562.372
1189.599, 8563.128
1190.081, 8556.996
1190.564, 8555.926
1191.046, 8557.065
1191.528, 8554.408
1192.010, 8547.887
1192.492, 8546.951
1192.974, 8555.700
1193.456, 8565.589
1193.938, 8574.897
1194.421, 8584.018
1194.903, 8595.532
1195.385, 8606.617
1195.867, 8614.575
1196.349, 8619.826
1196.831, 8606.975
1197.313, 8552.559
1197.795, 8518.195
1198.277, 8529.200
1198.760, 8562.003
1199.242, 8578.166
1199.724, 8579.524
1200.206, 8564.154
1200.688, 8523.197
1201.170, 8509.937
1201.652, 8551.910
1202.134, 8587.953
1202.616, 8586.605
1203.099, 8567.563
1203.581, 8578.797
1204.063, 8610.122
1204.545, 8637.802
1205.027, 8659.344
1205.509, 8665.327
1205.991, 8644.308
1206.473, 8627.138
1206.956, 8634.828
1207.438, 8656.319
1207.920, 8661.401
1208.402, 8654.061
1208.884, 8644.961
1209.366, 8637.265
1209.848, 8628.374
1210.330, 8613.970
1210.813, 8605.021
1211.295, 8610.320
1211.777, 8626.967
1212.259, 8649.710
1212.741, 8675.655
1213.223, 8694.877
1213.705, 8700.947
1214.187, 8702.672
1214.669, 8695.553
1215.151, 8694.815
1215.634, 8724.285
1216.116, 8767.936
1216.598, 8771.470
1217.080, 8744.991
1217.562, 8732.288
1218.044, 8769.977
1218.526, 8793.570
1219.008, 8788.146
1219.491, 8775.859
1219.973, 8775.321
1220.455, 8785.951
1220.937, 8815.225
1221.419, 8857.170
1221.901, 8881.956
1222.383, 8862.111
1222.865, 8845.776
1223.348, 8839.771
1223.830, 8840.270
1224.312, 8850.864
1224.794, 8862.227
1225.276, 8845.205
1225.758, 8803.706
1226.240, 8775.429
1226.722, 8778.021
1227.204, 8793.255
1227.687, 8824.023
1228.169, 8856.037
1228.651, 8874.365
1229.133, 8878.625
1229.615, 8861.856
1230.097, 8826.000
1230.579, 8797.917
1231.061, 8786.137
1231.543, 8779.606
1232.026, 8777.111
1232.508, 8776.936
1232.990, 8774.671
1233.472, 8773.808
1233.954, 8786.348
1234.436, 8812.233
1234.918, 8816.224
1235.400, 8770.218
1235.883, 8752.898
1236.365, 8789.869
1236.847, 8843.886
1237.329, 8858.695
1237.811, 8854.831
1238.293, 8864.815
1238.775, 8893.036
1239.257, 8913.707
1239.740, 8925.222
1240.222, 8928.230
1240.704, 8922.664
1241.186, 8909.431
1241.668, 8877.955
1242.150, 8846.200
1242.632, 8845.471
1243.114, 8882.108
1243.596, 8892.584
1244.079, 8864.555
1244.561, 8850.239
1245.043, 8870.043
1245.525, 8898.848
1246.007, 8901.881
1246.489, 8897.034
1246.971, 8911.314
1247.453, 8950.479
1247.936, 8956.687
1248.418, 8922.735
1248.900, 8897.515
1249.382, 8898.253
1249.864, 8911.374
1250.346, 8929.465
1250.828, 8946.462
1251.310, 8952.471
1251.792, 8946.816
1252.275, 8954.941
1252.757, 8977.980
1253.239, 8997.304
1253.721, 9007.327
1254.203, 9009.329
1254.685, 8996.844
1255.167, 8983.007
1255.649, 8983.168
1256.131, 8996.520
1256.614, 8999.703
1257.096, 8993.386
1257.578, 9001.221
1258.060, 9038.757
1258.542, 9076.233
1259.024, 9098.677
1259.506, 9104.471
1259.988, 9089.293
1260.471, 9056.295
1260.953, 9037.621
1261.435, 9033.317
1261.917, 9048.264
1262.399, 9099.366
1262.881, 9134.764
1263.363, 9114.658
1263.845, 9078.980
1264.328, 9049.420
1264.810, 9028.271
1265.292, 9030.944
1265.774, 9053.375
1266.256, 9078.566
1266.738, 9104.803
1267.220, 9122.868
1267.702, 9123.500
1268.184, 9122.359
1268.667, 9128.559
1269.149, 9139.592
1269.631, 9148.481
1270.113, 9154.584
1270.595, 9155.300
1271.077, 9144.134
1271.559, 9142.218
1272.041, 9159.706
1272.523, 9171.458
1273.006, 9157.050
1273.488, 9131.778
1273.970, 9135.177
1274.452, 9154.221
1274.934, 9161.039
1275.416, 9139.168
1275.898, 9127.094
1276.380, 9126.206
1276.863, 9134.293
1277.345, 9154.665
1277.827, 9177.755
1278.309, 9187.724
1278.791, 9190.849
1279.273, 9197.522
1279.755, 9209.289
1280.237, 9225.431
1280.719, 9247.245
1281.202, 9263.026
1281.684, 9263.223
1282.166, 9259.657
1282.648, 9265.282
1283.130, 9273.832
1283.612, 9275.872
1284.094, 9270.203
1284.576, 9271.533
1285.058, 9279.756
1285.541, 9287.605
1286.023, 9289.609
1286.505, 9292.895
1286.987, 9304.181
1287.469, 9317.085
1287.951, 9323.980
1288.433, 9325.583
1288.915, 9342.089
1289.398, 9369.057
1289.880, 9377.837
1290.362, 9336.210
1290.844, 9309.878
1291.326, 9344.082
1291.808, 9381.521
1292.290, 9385.029
1292.772, 9363.873
1293.255, 9347.732
1293.737, 9338.304
1294.219, 9341.373
1294.701, 9368.953
1295.183, 9388.251
1295.665, 9394.392
##END=



