##NAMES=Hoelite
##RRUFFID=R060874
##IDEAL CHEMISTRY=C_14_H_8_O_2_
##LOCALITY=Kladno, Central Bohemia Region, Bohemia, Czech Republic
##OWNER=RRUFF
##SOURCE=Michael Scott
##DESCRIPTION=Straw-yellow acicular crystals
##STATUS=The identification of this mineral has been confirmed by single-crystal X-ray diffraction.
##URL=rruff.info/R060874
156.7219, 5641.269
157.2041, 5651.992
157.6862, 5649.183
158.1683, 5637.634
158.6504, 5638.617
159.1325, 5662.829
159.6146, 5707.231
160.0968, 5758.456
160.5789, 5818.522
161.0610, 5881.699
161.5431, 5944.805
162.0252, 6007.841
162.5073, 6071.073
162.9895, 6133.358
163.4716, 6196.781
163.9537, 6265.046
164.4358, 6343.050
164.9179, 6419.829
165.4000, 6491.526
165.8822, 6557.549
166.3643, 6605.924
166.8464, 6620.272
167.3285, 6616.713
167.8106, 6625.650
168.2927, 6656.641
168.7749, 6692.076
169.2570, 6717.667
169.7391, 6733.312
170.2212, 6742.775
170.7033, 6747.459
171.1854, 6746.814
171.6676, 6739.354
172.1497, 6721.089
172.6318, 6701.084
173.1139, 6689.942
173.5960, 6688.588
174.0781, 6686.268
174.5603, 6676.035
175.0424, 6662.439
175.5245, 6651.403
176.0066, 6644.943
176.4887, 6640.230
176.9708, 6632.978
177.4530, 6622.292
177.9351, 6614.771
178.4172, 6611.686
178.8993, 6614.370
179.3814, 6626.861
179.8635, 6655.370
180.3457, 6686.313
180.8278, 6701.703
181.3099, 6699.056
181.7920, 6693.408
182.2741, 6683.542
182.7562, 6677.129
183.2384, 6684.083
183.7205, 6709.849
184.2026, 6745.270
184.6847, 6783.089
185.1668, 6826.366
185.6489, 6856.186
186.1311, 6848.161
186.6132, 6827.570
187.0953, 6818.841
187.5774, 6830.405
188.0595, 6853.162
188.5416, 6876.116
189.0238, 6899.894
189.5059, 6921.516
189.9880, 6939.085
190.4701, 6954.292
190.9522, 6968.753
191.4343, 6983.771
191.9165, 6996.682
192.3986, 7001.888
192.8807, 6996.929
193.3628, 6995.585
193.8449, 7008.957
194.3270, 7026.244
194.8092, 7035.758
195.2913, 7031.174
195.7734, 7026.695
196.2555, 7047.076
196.7376, 7099.956
197.2197, 7141.580
197.7019, 7143.885
198.1840, 7133.072
198.6661, 7130.178
199.1482, 7141.463
199.6303, 7158.624
200.1124, 7170.709
200.5946, 7176.500
201.0767, 7183.870
201.5588, 7203.617
202.0409, 7221.918
202.5230, 7223.923
203.0051, 7203.133
203.4873, 7179.948
203.9694, 7179.920
204.4515, 7206.063
204.9336, 7235.897
205.4157, 7270.224
205.8978, 7301.168
206.3800, 7321.363
206.8621, 7328.909
207.3442, 7329.494
207.8263, 7325.840
208.3084, 7316.670
208.7905, 7316.036
209.2727, 7338.030
209.7548, 7363.702
210.2369, 7376.270
210.7190, 7372.202
211.2011, 7367.719
211.6832, 7382.773
212.1654, 7418.624
212.6475, 7444.887
213.1296, 7442.224
213.6117, 7436.802
214.0938, 7450.832
214.5759, 7486.908
215.0581, 7526.065
215.5402, 7552.512
216.0223, 7566.406
216.5044, 7577.629
216.9865, 7587.370
217.4686, 7595.571
217.9508, 7599.775
218.4329, 7600.236
218.9150, 7605.939
219.3971, 7626.897
219.8792, 7661.609
220.3613, 7692.944
220.8435, 7717.928
221.3256, 7738.938
221.8077, 7755.861
222.2898, 7769.493
222.7719, 7787.098
223.2540, 7819.136
223.7362, 7861.209
224.2183, 7887.966
224.7004, 7883.507
225.1825, 7881.457
225.6646, 7909.833
226.1467, 7964.143
226.6289, 8021.099
227.1110, 8066.273
227.5931, 8104.175
228.0752, 8147.635
228.5573, 8195.628
229.0394, 8253.389
229.5216, 8324.693
230.0037, 8407.580
230.4858, 8498.910
230.9679, 8596.759
231.4500, 8701.929
231.9321, 8816.418
232.4143, 8940.881
232.8964, 9072.919
233.3785, 9219.959
233.8606, 9374.704
234.3427, 9518.742
234.8248, 9641.212
235.3070, 9752.413
235.7891, 9870.213
236.2712, 9999.201
236.7533, 10116.09
237.2354, 10211.08
237.7175, 10281.52
238.1997, 10316.05
238.6818, 10298.19
239.1639, 10253.50
239.6460, 10207.15
240.1281, 10159.13
240.6102, 10104.06
241.0924, 10032.36
241.5745, 9952.955
242.0566, 9887.887
242.5387, 9847.658
243.0208, 9812.638
243.5029, 9770.030
243.9851, 9720.279
244.4672, 9665.495
244.9493, 9607.529
245.4314, 9544.371
245.9135, 9474.486
246.3956, 9403.929
246.8778, 9317.534
247.3599, 9194.796
247.8420, 9046.926
248.3241, 8911.748
248.8062, 8801.319
249.2883, 8714.236
249.7705, 8648.382
250.2526, 8606.170
250.7347, 8572.762
251.2168, 8544.109
251.6989, 8520.318
252.1810, 8501.401
252.6632, 8487.088
253.1453, 8478.615
253.6274, 8481.529
254.1095, 8501.663
254.5916, 8510.375
255.0737, 8501.518
255.5559, 8478.610
256.0380, 8439.577
256.5201, 8383.603
257.0022, 8329.733
257.4843, 8303.993
257.9665, 8318.314
258.4486, 8316.582
258.9307, 8284.910
259.4128, 8244.818
259.8949, 8211.939
260.3770, 8188.519
260.8592, 8171.073
261.3413, 8156.081
261.8234, 8143.397
262.3055, 8137.782
262.7876, 8144.562
263.2697, 8152.897
263.7519, 8157.152
264.2340, 8157.646
264.7161, 8157.515
265.1982, 8159.309
265.6803, 8162.900
266.1624, 8162.823
266.6446, 8161.629
267.1267, 8154.773
267.6088, 8131.423
268.0909, 8102.178
268.5730, 8088.404
269.0551, 8103.646
269.5373, 8139.460
270.0194, 8158.396
270.5015, 8135.948
270.9836, 8123.547
271.4657, 8135.725
271.9478, 8156.621
272.4300, 8163.438
272.9121, 8147.195
273.3942, 8124.375
273.8763, 8133.488
274.3584, 8209.903
274.8405, 8256.601
275.3227, 8251.350
275.8048, 8229.258
276.2869, 8214.475
276.7690, 8213.503
277.2511, 8220.399
277.7332, 8227.855
278.2154, 8235.764
278.6975, 8244.349
279.1796, 8256.843
279.6617, 8267.278
280.1438, 8274.104
280.6259, 8276.355
281.1081, 8272.000
281.5902, 8254.490
282.0723, 8223.210
282.5544, 8208.770
283.0365, 8228.246
283.5186, 8246.191
284.0008, 8242.368
284.4829, 8225.847
284.9650, 8217.979
285.4471, 8235.484
285.9292, 8270.188
286.4113, 8293.780
286.8935, 8302.004
287.3756, 8308.104
287.8577, 8327.317
288.3398, 8345.755
288.8219, 8341.627
289.3040, 8299.540
289.7862, 8244.888
290.2683, 8211.370
290.7504, 8200.771
291.2325, 8200.693
291.7146, 8213.580
292.1967, 8231.317
292.6789, 8244.549
293.1610, 8251.198
293.6431, 8256.733
294.1252, 8264.766
294.6073, 8275.119
295.0894, 8286.132
295.5716, 8295.210
296.0537, 8307.862
296.5358, 8331.318
297.0179, 8365.545
297.5000, 8403.229
297.9821, 8448.270
298.4643, 8492.780
298.9464, 8522.329
299.4285, 8533.239
299.9106, 8535.148
300.3927, 8538.158
300.8748, 8542.141
301.3570, 8536.535
301.8391, 8506.090
302.3212, 8475.511
302.8033, 8471.596
303.2854, 8492.160
303.7675, 8506.702
304.2497, 8491.443
304.7318, 8449.032
305.2139, 8418.654
305.6960, 8390.388
306.1781, 8382.158
306.6602, 8419.429
307.1424, 8480.789
307.6245, 8523.492
308.1066, 8525.750
308.5887, 8498.167
309.0708, 8472.644
309.5529, 8434.571
310.0351, 8417.809
310.5172, 8443.406
310.9993, 8481.354
311.4814, 8502.459
311.9635, 8498.455
312.4456, 8480.476
312.9278, 8463.663
313.4099, 8446.689
313.8920, 8435.020
314.3741, 8429.563
314.8562, 8427.911
315.3383, 8432.025
315.8205, 8439.733
316.3026, 8444.151
316.7847, 8437.244
317.2668, 8419.141
317.7489, 8411.437
318.2310, 8424.535
318.7132, 8436.343
319.1953, 8435.665
319.6774, 8429.521
320.1595, 8431.660
320.6416, 8452.529
321.1237, 8480.697
321.6059, 8486.122
322.0880, 8458.596
322.5701, 8437.097
323.0522, 8434.278
323.5343, 8443.720
324.0164, 8462.626
324.4986, 8491.556
324.9807, 8522.811
325.4628, 8550.431
325.9449, 8574.239
326.4270, 8592.059
326.9091, 8601.205
327.3913, 8606.379
327.8734, 8612.265
328.3555, 8618.850
328.8376, 8625.947
329.3197, 8636.059
329.8018, 8645.967
330.2840, 8650.303
330.7661, 8648.332
331.2482, 8641.295
331.7303, 8625.895
332.2124, 8604.277
332.6945, 8595.642
333.1767, 8615.400
333.6588, 8636.845
334.1409, 8643.019
334.6230, 8635.081
335.1051, 8618.630
335.5872, 8594.009
336.0694, 8565.683
336.5515, 8551.855
337.0336, 8561.433
337.5157, 8572.257
337.9978, 8588.634
338.4799, 8601.325
338.9621, 8593.542
339.4442, 8560.962
339.9263, 8522.779
340.4084, 8510.213
340.8905, 8538.753
341.3727, 8556.237
341.8548, 8553.760
342.3369, 8549.239
342.8190, 8554.665
343.3011, 8568.675
343.7832, 8580.795
344.2654, 8580.472
344.7475, 8568.501
345.2296, 8568.785
345.7117, 8594.879
346.1938, 8616.654
346.6759, 8624.013
347.1581, 8622.475
347.6402, 8618.782
348.1223, 8614.829
348.6044, 8613.671
349.0865, 8622.387
349.5686, 8643.614
350.0508, 8663.486
350.5329, 8680.813
351.0150, 8693.385
351.4971, 8696.461
351.9792, 8689.243
352.4613, 8684.013
352.9435, 8691.317
353.4256, 8708.177
353.9077, 8723.951
354.3898, 8737.367
354.8719, 8748.812
355.3540, 8757.694
355.8362, 8764.584
356.3183, 8771.754
356.8004, 8774.838
357.2825, 8781.717
357.7646, 8801.327
358.2467, 8832.994
358.7289, 8869.024
359.2110, 8907.364
359.6931, 8945.672
360.1752, 8974.532
360.6573, 8985.257
361.1394, 8998.861
361.6216, 9025.331
362.1037, 9056.401
362.5858, 9085.757
363.0679, 9110.902
363.5500, 9120.439
364.0321, 9094.947
364.5143, 9015.630
364.9964, 8947.301
365.4785, 8884.994
365.9606, 8835.850
366.4427, 8810.594
366.9248, 8803.525
367.4070, 8796.301
367.8891, 8772.746
368.3712, 8736.326
368.8533, 8719.396
369.3354, 8736.584
369.8175, 8752.802
370.2997, 8755.431
370.7818, 8753.636
371.2639, 8759.645
371.7460, 8778.556
372.2281, 8799.792
372.7102, 8805.926
373.1924, 8794.891
373.6745, 8795.313
374.1566, 8824.587
374.6387, 8855.751
375.1208, 8867.015
375.6029, 8858.723
376.0851, 8843.081
376.5672, 8817.035
377.0493, 8790.230
377.5314, 8784.144
378.0135, 8802.547
378.4956, 8820.796
378.9778, 8818.841
379.4599, 8801.525
379.9420, 8796.418
380.4241, 8813.477
380.9062, 8833.101
381.3883, 8848.253
381.8705, 8858.599
382.3526, 8864.058
382.8347, 8864.765
383.3168, 8859.421
383.7989, 8845.087
384.2810, 8814.055
384.7632, 8788.150
385.2453, 8766.471
385.7274, 8750.567
386.2095, 8742.973
386.6916, 8742.913
387.1737, 8747.322
387.6559, 8754.868
388.1380, 8765.171
388.6201, 8765.110
389.1022, 8721.399
389.5843, 8710.560
390.0664, 8784.470
390.5486, 8887.738
391.0307, 8945.856
391.5128, 8928.239
391.9949, 8878.387
392.4770, 8857.921
392.9591, 8869.664
393.4413, 8882.060
393.9234, 8889.179
394.4055, 8894.903
394.8876, 8902.110
395.3697, 8910.746
395.8518, 8920.207
396.3340, 8933.394
396.8161, 8945.987
397.2982, 8949.389
397.7803, 8942.633
398.2624, 8934.923
398.7445, 8934.617
399.2267, 8937.632
399.7088, 8927.406
400.1909, 8886.345
400.6730, 8852.948
401.1551, 8846.818
401.6372, 8856.846
402.1194, 8864.757
402.6015, 8864.601
403.0836, 8860.965
403.5657, 8860.683
404.0478, 8865.520
404.5299, 8869.089
405.0121, 8868.529
405.4942, 8869.719
405.9763, 8875.995
406.4584, 8886.898
406.9405, 8901.763
407.4226, 8922.192
407.9048, 8943.608
408.3869, 8944.617
408.8690, 8910.608
409.3511, 8885.516
409.8332, 8880.040
410.3153, 8887.158
410.7975, 8906.590
411.2796, 8938.155
411.7617, 8963.310
412.2438, 8956.522
412.7259, 8925.426
413.2080, 8914.471
413.6902, 8933.689
414.1723, 8962.729
414.6544, 8990.572
415.1365, 9015.648
415.6186, 9030.334
416.1007, 9018.411
416.5829, 9007.932
417.0650, 9027.456
417.5471, 9068.424
418.0292, 9098.073
418.5113, 9100.952
418.9934, 9087.596
419.4756, 9080.307
419.9577, 9084.154
420.4398, 9085.121
420.9219, 9084.380
421.4040, 9079.588
421.8861, 9064.848
422.3683, 9042.724
422.8504, 9025.202
423.3325, 9023.887
423.8146, 9037.030
424.2967, 9040.548
424.7788, 9021.639
425.2610, 9011.323
425.7431, 9025.982
426.2252, 9048.090
426.7073, 9055.851
427.1894, 9042.254
427.6715, 9025.136
428.1537, 9030.011
428.6358, 9054.759
429.1179, 9060.631
429.6000, 9032.680
430.0821, 8999.923
430.5642, 8985.560
431.0464, 8986.510
431.5285, 8993.041
432.0106, 9003.077
432.4927, 9017.226
432.9748, 9035.818
433.4569, 9058.895
433.9391, 9088.033
434.4212, 9125.339
434.9033, 9166.288
435.3854, 9201.104
435.8675, 9233.272
436.3496, 9252.212
436.8318, 9246.953
437.3139, 9235.643
437.7960, 9234.827
438.2781, 9243.773
438.7602, 9247.552
439.2423, 9230.320
439.7245, 9196.161
440.2066, 9189.659
440.6887, 9237.690
441.1708, 9273.585
441.6529, 9273.814
442.1350, 9259.049
442.6172, 9253.542
443.0993, 9264.123
443.5814, 9270.272
444.0635, 9242.062
444.5456, 9186.312
445.0277, 9154.032
445.5099, 9158.226
445.9920, 9172.556
446.4741, 9179.188
446.9562, 9178.713
447.4383, 9171.255
447.9204, 9150.648
448.4026, 9128.681
448.8847, 9114.342
449.3668, 9105.331
449.8489, 9094.682
450.3310, 9079.301
450.8131, 9063.120
451.2953, 9052.888
451.7774, 9050.520
452.2595, 9050.964
452.7416, 9051.204
453.2237, 9056.859
453.7059, 9082.142
454.1880, 9116.736
454.6701, 9131.183
455.1522, 9102.054
455.6343, 9045.796
456.1165, 9017.174
456.5986, 9025.083
457.0807, 9037.264
457.5628, 9048.801
458.0449, 9059.160
458.5270, 9065.257
459.0092, 9067.067
459.4913, 9074.813
459.9734, 9097.346
460.4555, 9129.582
460.9376, 9165.568
461.4197, 9205.656
461.9019, 9233.478
462.3840, 9231.657
462.8661, 9209.384
463.3482, 9207.637
463.8303, 9239.064
464.3124, 9273.103
464.7946, 9293.031
465.2767, 9314.667
465.7588, 9361.673
466.2409, 9437.563
466.7230, 9521.130
467.2051, 9587.644
467.6873, 9634.643
468.1694, 9696.133
468.6515, 9773.914
469.1336, 9865.632
469.6157, 9972.572
470.0978, 10092.44
470.5800, 10221.81
471.0621, 10359.10
471.5442, 10510.38
472.0263, 10689.65
472.5084, 10894.82
472.9905, 11099.73
473.4727, 11308.83
473.9548, 11499.60
474.4369, 11656.62
474.9190, 11780.67
475.4011, 11854.58
475.8832, 11866.68
476.3654, 11836.09
476.8475, 11781.13
477.3296, 11694.05
477.8117, 11547.11
478.2938, 11327.12
478.7759, 11064.68
479.2581, 10808.79
479.7402, 10549.59
480.2223, 10322.03
480.7044, 10132.60
481.1865, 9965.225
481.6686, 9806.509
482.1508, 9664.021
482.6329, 9560.011
483.1150, 9512.878
483.5971, 9494.382
484.0792, 9438.232
484.5613, 9334.219
485.0435, 9259.798
485.5256, 9251.676
486.0077, 9262.374
486.4898, 9240.686
486.9719, 9189.979
487.4540, 9159.470
487.9362, 9188.994
488.4183, 9233.313
488.9004, 9239.737
489.3825, 9212.974
489.8646, 9191.459
490.3467, 9195.942
490.8289, 9214.047
491.3110, 9215.104
491.7931, 9176.514
492.2752, 9157.510
492.7573, 9173.818
493.2394, 9196.444
493.7216, 9211.050
494.2037, 9214.216
494.6858, 9202.068
495.1679, 9167.188
495.6500, 9121.693
496.1321, 9109.988
496.6143, 9147.896
497.0964, 9165.540
497.5785, 9124.103
498.0606, 9068.166
498.5427, 9037.953
499.0248, 9035.389
499.5070, 9034.831
499.9891, 9021.219
500.4712, 9004.741
500.9533, 9002.453
501.4354, 9013.206
501.9175, 9017.293
502.3997, 9001.636
502.8818, 8974.724
503.3639, 8961.652
503.8460, 8976.411
504.3281, 8985.290
504.8102, 8980.683
505.2924, 8975.255
505.7745, 8980.344
506.2566, 8994.388
506.7387, 9005.890
507.2208, 9003.799
507.7029, 8995.533
508.1851, 9010.360
508.6672, 9057.493
509.1493, 9098.188
509.6314, 9124.168
510.1135, 9135.866
510.5956, 9130.690
511.0778, 9108.382
511.5599, 9083.433
512.0420, 9056.521
512.5241, 9033.749
513.0062, 9023.787
513.4883, 9026.087
513.9705, 9035.500
514.4526, 9051.544
514.9347, 9068.236
515.4168, 9068.234
515.8989, 9026.623
516.3810, 9005.405
516.8632, 9019.537
517.3453, 9041.576
517.8274, 9054.384
518.3095, 9057.697
518.7916, 9059.042
519.2737, 9063.119
519.7559, 9068.968
520.2380, 9073.902
520.7201, 9077.437
521.2022, 9083.159
521.6843, 9098.434
522.1664, 9110.020
522.6486, 9100.128
523.1307, 9068.889
523.6128, 9045.848
524.0949, 9049.749
524.5770, 9058.896
525.0591, 9052.141
525.5413, 9032.227
526.0234, 9011.769
526.5055, 8996.225
526.9876, 8986.594
527.4697, 8986.014
527.9518, 9004.734
528.4340, 9010.554
528.9161, 8990.540
529.3982, 8971.715
529.8803, 8969.202
530.3624, 8978.991
530.8445, 8990.190
531.3267, 8998.888
531.8088, 9003.160
532.2909, 8995.253
532.7730, 8975.939
533.2551, 8970.461
533.7372, 8990.061
534.2194, 9015.078
534.7015, 9020.861
535.1836, 9009.058
535.6657, 9009.995
536.1478, 9045.724
536.6299, 9075.600
537.1121, 9067.875
537.5942, 9040.338
538.0763, 9029.043
538.5584, 9045.919
539.0405, 9070.900
539.5226, 9076.276
540.0048, 9059.960
540.4869, 9035.773
540.9690, 8990.334
541.4511, 8953.939
541.9332, 8935.833
542.4153, 8933.625
542.8975, 8947.130
543.3796, 8980.345
543.8617, 9011.834
544.3438, 9022.906
544.8259, 9019.265
545.3080, 9016.030
545.7902, 9015.730
546.2723, 9011.652
546.7544, 8995.275
547.2365, 8969.618
547.7186, 8963.955
548.2007, 9006.459
548.6829, 9030.315
549.1650, 9014.324
549.6471, 8981.984
550.1292, 8947.944
550.6113, 8918.597
551.0934, 8904.178
551.5756, 8918.179
552.0577, 8952.305
552.5398, 8972.732
553.0219, 8975.906
553.5040, 8979.105
553.9861, 8990.621
554.4683, 9003.454
554.9504, 9007.903
555.4325, 9002.955
555.9146, 8999.248
556.3967, 8999.056
556.8788, 9002.264
557.3610, 9012.971
557.8431, 9027.585
558.3252, 9033.354
558.8073, 9023.232
559.2894, 9006.266
559.7715, 9004.234
560.2537, 9031.333
560.7358, 9035.776
561.2179, 8983.790
561.7000, 8940.174
562.1821, 8942.271
562.6642, 8971.861
563.1464, 8987.796
563.6285, 8970.174
564.1106, 8943.752
564.5927, 8931.240
565.0748, 8930.690
565.5569, 8938.900
566.0391, 8956.867
566.5212, 8969.911
567.0033, 8962.096
567.4854, 8934.030
567.9675, 8918.730
568.4496, 8927.269
568.9318, 8932.972
569.4139, 8927.847
569.8960, 8918.690
570.3781, 8912.330
570.8602, 8910.056
571.3423, 8909.191
571.8245, 8907.420
572.3066, 8905.242
572.7887, 8905.951
573.2708, 8911.391
573.7529, 8909.945
574.2350, 8891.422
574.7172, 8868.552
575.1993, 8860.174
575.6814, 8867.424
576.1635, 8878.447
576.6456, 8900.794
577.1277, 8917.194
577.6099, 8907.608
578.0920, 8881.380
578.5741, 8864.587
579.0562, 8869.485
579.5383, 8884.533
580.0204, 8888.397
580.5026, 8877.420
580.9847, 8873.162
581.4668, 8882.074
581.9489, 8890.291
582.4310, 8886.921
582.9131, 8879.088
583.3953, 8880.607
583.8774, 8897.823
584.3595, 8916.751
584.8416, 8931.375
585.3237, 8940.561
585.8058, 8939.529
586.2880, 8928.563
586.7701, 8919.408
587.2522, 8922.970
587.7343, 8934.609
588.2164, 8927.645
588.6985, 8881.110
589.1807, 8849.519
589.6628, 8841.438
590.1449, 8845.493
590.6270, 8862.788
591.1091, 8886.804
591.5912, 8896.485
592.0734, 8870.115
592.5555, 8834.025
593.0376, 8824.296
593.5197, 8838.027
594.0018, 8861.538
594.4839, 8894.253
594.9661, 8920.337
595.4482, 8920.061
595.9303, 8890.471
596.4124, 8862.051
596.8945, 8825.702
597.3766, 8800.910
597.8588, 8802.968
598.3409, 8814.437
598.8230, 8814.719
599.3051, 8799.848
599.7872, 8781.893
600.2693, 8766.962
600.7515, 8757.812
601.2336, 8769.757
601.7157, 8806.474
602.1978, 8831.551
602.6799, 8823.015
603.1620, 8801.339
603.6442, 8805.616
604.1263, 8844.984
604.6084, 8867.338
605.0905, 8851.731
605.5726, 8832.813
606.0547, 8830.542
606.5369, 8840.243
607.0190, 8851.614
607.5011, 8860.341
607.9832, 8864.904
608.4653, 8862.612
608.9474, 8853.510
609.4296, 8840.297
609.9117, 8819.430
610.3938, 8803.694
610.8759, 8801.831
611.3580, 8809.576
611.8401, 8817.821
612.3223, 8828.308
612.8044, 8834.325
613.2865, 8832.144
613.7686, 8826.066
614.2507, 8815.846
614.7328, 8805.027
615.2150, 8805.472
615.6971, 8825.390
616.1792, 8850.104
616.6613, 8842.472
617.1434, 8793.959
617.6255, 8773.003
618.1077, 8803.684
618.5898, 8837.888
619.0719, 8838.942
619.5540, 8820.400
620.0361, 8812.768
620.5182, 8828.438
621.0004, 8841.525
621.4825, 8838.507
621.9646, 8826.858
622.4467, 8812.636
622.9288, 8798.441
623.4109, 8790.014
623.8931, 8792.048
624.3752, 8801.190
624.8573, 8806.709
625.3394, 8807.849
625.8215, 8807.872
626.3036, 8806.614
626.7858, 8805.096
627.2679, 8803.259
627.7500, 8801.737
628.2321, 8802.625
628.7142, 8809.424
629.1964, 8814.972
629.6785, 8813.067
630.1606, 8807.932
630.6427, 8806.616
631.1248, 8810.028
631.6069, 8814.281
632.0891, 8816.481
632.5712, 8816.401
633.0533, 8812.028
633.5354, 8799.975
634.0175, 8792.180
634.4996, 8793.929
634.9818, 8797.992
635.4639, 8800.376
635.9460, 8800.777
636.4281, 8798.743
636.9102, 8791.118
637.3923, 8784.063
637.8745, 8781.719
638.3566, 8782.831
638.8387, 8787.525
639.3208, 8794.813
639.8029, 8796.597
640.2850, 8783.357
640.7672, 8758.719
641.2493, 8750.474
641.7314, 8768.310
642.2135, 8779.969
642.6956, 8774.672
643.1777, 8763.857
643.6599, 8754.573
644.1420, 8747.104
644.6241, 8741.058
645.1062, 8734.885
645.5883, 8731.675
646.0704, 8736.133
646.5526, 8744.532
647.0347, 8748.664
647.5168, 8747.293
647.9989, 8748.192
648.4810, 8759.891
648.9631, 8780.286
649.4453, 8792.392
649.9274, 8795.192
650.4095, 8792.230
650.8916, 8776.864
651.3737, 8762.269
651.8558, 8759.530
652.3380, 8767.698
652.8201, 8778.546
653.3022, 8790.612
653.7843, 8803.518
654.2664, 8818.764
654.7485, 8833.932
655.2307, 8845.607
655.7128, 8852.693
656.1949, 8854.988
656.6770, 8853.198
657.1591, 8845.937
657.6412, 8821.809
658.1234, 8770.888
658.6055, 8735.660
659.0876, 8738.229
659.5697, 8748.009
660.0518, 8733.648
660.5339, 8699.461
661.0161, 8675.086
661.4982, 8668.772
661.9803, 8671.329
662.4624, 8689.651
662.9445, 8708.723
663.4266, 8701.911
663.9088, 8668.873
664.3909, 8637.663
664.8730, 8632.598
665.3551, 8646.940
665.8372, 8658.105
666.3193, 8666.058
666.8015, 8671.253
667.2836, 8673.928
667.7657, 8673.608
668.2478, 8665.514
668.7299, 8652.197
669.2120, 8650.686
669.6942, 8666.034
670.1763, 8688.947
670.6584, 8731.146
671.1405, 8769.898
671.6226, 8773.886
672.1047, 8746.552
672.5869, 8719.799
673.0690, 8714.208
673.5511, 8726.714
674.0332, 8758.490
674.5153, 8809.398
674.9974, 8839.263
675.4796, 8832.920
675.9617, 8824.608
676.4438, 8844.171
676.9259, 8887.876
677.4080, 8924.374
677.8901, 8945.919
678.3723, 8971.559
678.8544, 9004.067
679.3365, 9041.662
679.8186, 9082.063
680.3007, 9126.082
680.7828, 9175.528
681.2650, 9229.312
681.7471, 9294.036
682.2292, 9401.025
682.7113, 9529.766
683.1934, 9593.907
683.6755, 9579.549
684.1577, 9513.205
684.6398, 9405.755
685.1219, 9266.264
685.6040, 9127.836
686.0861, 8970.225
686.5682, 8849.384
687.0504, 8779.696
687.5325, 8730.050
688.0146, 8683.494
688.4967, 8644.935
688.9788, 8630.707
689.4609, 8651.988
689.9431, 8670.716
690.4252, 8642.603
690.9073, 8598.318
691.3894, 8600.333
691.8715, 8645.230
692.3536, 8673.835
692.8358, 8652.777
693.3179, 8607.621
693.8000, 8589.543
694.2821, 8606.500
694.7642, 8617.441
695.2463, 8615.930
695.7285, 8617.247
696.2106, 8633.486
696.6927, 8653.442
697.1748, 8661.390
697.6569, 8654.261
698.1390, 8645.800
698.6212, 8647.826
699.1033, 8644.979
699.5854, 8616.436
700.0675, 8573.889
700.5496, 8544.461
701.0317, 8537.312
701.5139, 8540.070
701.9960, 8540.144
702.4781, 8537.394
702.9602, 8528.344
703.4423, 8510.368
703.9244, 8499.686
704.4066, 8506.769
704.8887, 8517.641
705.3708, 8511.945
705.8529, 8488.103
706.3350, 8474.676
706.8171, 8481.013
707.2993, 8488.056
707.7814, 8490.838
708.2635, 8489.869
708.7456, 8485.165
709.2277, 8477.316
709.7098, 8468.409
710.1920, 8459.045
710.6741, 8450.353
711.1562, 8442.998
711.6383, 8437.603
712.1204, 8440.604
712.6025, 8454.542
713.0847, 8462.037
713.5668, 8445.292
714.0489, 8410.012
714.5310, 8390.639
715.0131, 8386.775
715.4952, 8400.270
715.9774, 8465.221
716.4595, 8514.749
716.9416, 8492.583
717.4237, 8426.961
717.9058, 8391.630
718.3879, 8418.181
718.8701, 8449.091
719.3522, 8449.765
719.8343, 8434.710
720.3164, 8418.710
720.7985, 8404.815
721.2806, 8395.261
721.7628, 8391.180
722.2449, 8392.260
722.7270, 8400.781
723.2091, 8417.363
723.6912, 8423.561
724.1733, 8416.164
724.6555, 8406.326
725.1376, 8399.887
725.6197, 8393.719
726.1018, 8382.626
726.5839, 8367.222
727.0660, 8345.852
727.5482, 8303.326
728.0303, 8271.744
728.5124, 8273.662
728.9945, 8291.531
729.4766, 8300.415
729.9587, 8296.513
730.4409, 8298.420
730.9230, 8330.619
731.4051, 8370.454
731.8872, 8376.405
732.3693, 8354.465
732.8514, 8332.532
733.3336, 8317.756
733.8157, 8307.217
734.2978, 8297.931
734.7799, 8290.280
735.2620, 8287.599
735.7441, 8291.085
736.2263, 8296.792
736.7084, 8304.998
737.1905, 8314.549
737.6726, 8329.345
738.1547, 8344.825
738.6368, 8346.983
739.1190, 8322.394
739.6011, 8305.911
740.0832, 8326.095
740.5653, 8352.157
741.0474, 8347.079
741.5295, 8319.317
742.0117, 8304.084
742.4938, 8318.438
742.9759, 8339.794
743.4580, 8338.694
743.9401, 8317.283
744.4222, 8282.196
744.9044, 8231.054
745.3865, 8194.718
745.8686, 8186.224
746.3507, 8201.538
746.8328, 8240.513
747.3149, 8313.309
747.7971, 8352.188
748.2792, 8337.888
748.7613, 8313.673
749.2434, 8272.449
749.7255, 8237.021
750.2076, 8236.519
750.6898, 8267.630
751.1719, 8288.742
751.6540, 8271.761
752.1361, 8248.308
752.6182, 8246.482
753.1003, 8254.189
753.5825, 8249.232
754.0646, 8230.056
754.5467, 8211.168
755.0288, 8202.602
755.5109, 8202.437
755.9930, 8210.656
756.4752, 8228.076
756.9573, 8228.304
757.4394, 8204.150
757.9215, 8175.951
758.4036, 8150.907
758.8857, 8133.597
759.3679, 8136.221
759.8500, 8166.750
760.3321, 8199.726
760.8142, 8249.693
761.2963, 8285.632
761.7784, 8279.878
762.2606, 8259.680
762.7427, 8264.417
763.2248, 8300.701
763.7069, 8335.949
764.1890, 8346.540
764.6711, 8350.135
765.1533, 8367.864
765.6354, 8393.378
766.1175, 8413.572
766.5996, 8424.233
767.0817, 8421.568
767.5638, 8399.724
768.0460, 8365.393
768.5281, 8341.470
769.0102, 8329.009
769.4923, 8318.578
769.9744, 8311.138
770.4565, 8299.238
770.9387, 8273.502
771.4208, 8240.146
771.9029, 8222.328
772.3850, 8236.132
772.8671, 8235.121
773.3492, 8202.803
773.8314, 8171.064
774.3135, 8161.225
774.7956, 8160.351
775.2777, 8146.718
775.7598, 8115.180
776.2419, 8079.755
776.7241, 8034.673
777.2062, 8001.530
777.6883, 8015.385
778.1704, 8059.149
778.6525, 8091.218
779.1346, 8100.455
779.6168, 8101.088
780.0989, 8107.391
780.5810, 8114.507
781.0631, 8100.612
781.5452, 8063.092
782.0273, 8038.196
782.5095, 8032.752
782.9916, 8041.595
783.4737, 8067.077
783.9558, 8102.056
784.4379, 8117.838
784.9200, 8096.532
785.4022, 8085.854
785.8843, 8088.892
786.3664, 8098.733
786.8485, 8124.726
787.3306, 8150.127
787.8127, 8145.496
788.2949, 8103.496
788.7770, 8066.299
789.2591, 8062.687
789.7412, 8066.246
790.2233, 8053.329
790.7054, 8030.581
791.1876, 8010.598
791.6697, 7996.960
792.1518, 7989.042
792.6339, 7987.933
793.1160, 7989.865
793.5981, 7986.200
794.0803, 7977.200
794.5624, 7962.933
795.0445, 7941.872
795.5266, 7929.194
796.0087, 7938.125
796.4908, 7959.724
796.9730, 7967.219
797.4551, 7955.836
797.9372, 7941.847
798.4193, 7918.342
798.9014, 7901.043
799.3835, 7900.286
799.8657, 7906.469
800.3478, 7909.683
800.8299, 7909.369
801.3120, 7899.527
801.7941, 7863.645
802.2762, 7834.513
802.7584, 7830.388
803.2405, 7842.645
803.7226, 7870.061
804.2047, 7904.703
804.6868, 7919.281
805.1689, 7889.620
805.6511, 7850.199
806.1332, 7847.029
806.6153, 7868.885
807.0974, 7890.679
807.5795, 7907.899
808.0616, 7910.450
808.5438, 7891.228
809.0259, 7865.505
809.5080, 7864.600
809.9901, 7891.718
810.4722, 7892.410
810.9543, 7854.251
811.4365, 7830.110
811.9186, 7847.112
812.4007, 7876.309
812.8828, 7883.385
813.3649, 7867.609
813.8470, 7855.325
814.3292, 7842.156
814.8113, 7838.306
815.2934, 7856.390
815.7755, 7874.726
816.2576, 7876.011
816.7397, 7864.626
817.2219, 7853.426
817.7040, 7843.765
818.1861, 7843.930
818.6682, 7876.644
819.1503, 7907.799
819.6324, 7897.133
820.1146, 7855.733
820.5967, 7810.206
821.0788, 7770.884
821.5609, 7740.203
822.0430, 7720.347
822.5251, 7711.287
823.0073, 7721.081
823.4894, 7745.628
823.9716, 7744.045
824.4537, 7705.136
824.9358, 7675.417
825.4179, 7695.595
825.9000, 7748.038
826.3821, 7771.117
826.8643, 7760.354
827.3464, 7734.666
827.8285, 7684.155
828.3106, 7637.894
828.7927, 7606.768
829.2748, 7590.788
829.7570, 7592.370
830.2391, 7614.112
830.7212, 7634.833
831.2033, 7671.168
831.6854, 7683.645
832.1675, 7634.719
832.6497, 7573.617
833.1318, 7546.429
833.6139, 7553.306
834.0960, 7570.305
834.5781, 7592.870
835.0602, 7612.521
835.5424, 7625.630
836.0245, 7631.001
836.5066, 7623.007
836.9887, 7606.062
837.4708, 7593.595
837.9529, 7590.948
838.4351, 7589.242
838.9172, 7576.306
839.3993, 7556.758
839.8814, 7544.938
840.3635, 7540.065
840.8456, 7531.940
841.3278, 7517.264
841.8099, 7510.126
842.2920, 7525.010
842.7741, 7555.330
843.2562, 7576.962
843.7383, 7592.755
844.2205, 7582.312
844.7026, 7524.646
845.1847, 7481.666
845.6668, 7498.191
846.1489, 7543.014
846.6310, 7553.146
847.1132, 7513.902
847.5953, 7497.174
848.0774, 7529.786
848.5595, 7550.507
849.0416, 7529.938
849.5237, 7499.035
850.0059, 7478.321
850.4880, 7473.043
850.9701, 7496.413
851.4522, 7584.817
851.9343, 7645.439
852.4164, 7610.686
852.8986, 7543.943
853.3807, 7501.494
853.8628, 7480.025
854.3449, 7457.573
854.8270, 7426.677
855.3091, 7396.468
855.7913, 7372.057
856.2734, 7355.882
856.7555, 7355.418
857.2376, 7366.516
857.7197, 7376.768
858.2018, 7383.280
858.6840, 7389.261
859.1661, 7398.146
859.6482, 7405.016
860.1303, 7392.817
860.6124, 7362.418
861.0945, 7355.417
861.5767, 7378.526
862.0588, 7400.936
862.5409, 7409.819
863.0230, 7406.453
863.5051, 7390.184
863.9872, 7359.619
864.4694, 7343.436
864.9515, 7348.641
865.4336, 7354.327
865.9157, 7360.308
866.3978, 7361.222
866.8799, 7348.864
867.3621, 7328.008
867.8442, 7314.652
868.3263, 7316.099
868.8084, 7311.126
869.2905, 7283.642
869.7726, 7264.077
870.2548, 7275.250
870.7369, 7299.626
871.2190, 7314.046
871.7011, 7315.401
872.1832, 7314.637
872.6653, 7317.165
873.1475, 7318.229
873.6296, 7314.427
874.1117, 7307.697
874.5938, 7296.943
875.0759, 7285.376
875.5580, 7282.605
876.0402, 7293.490
876.5223, 7306.853
877.0044, 7316.468
877.4865, 7318.460
877.9686, 7298.066
878.4507, 7263.654
878.9329, 7246.671
879.4150, 7254.592
879.8971, 7267.325
880.3792, 7268.270
880.8613, 7259.675
881.3434, 7242.198
881.8256, 7217.722
882.3077, 7212.105
882.7898, 7229.781
883.2719, 7247.021
883.7540, 7252.617
884.2361, 7248.142
884.7183, 7234.085
885.2004, 7209.916
885.6825, 7195.502
886.1646, 7195.021
886.6467, 7191.251
887.1288, 7175.898
887.6110, 7163.222
888.0931, 7166.312
888.5752, 7181.601
889.0573, 7195.096
889.5394, 7215.419
890.0215, 7217.162
890.5037, 7179.859
890.9858, 7148.606
891.4679, 7140.296
891.9500, 7146.573
892.4321, 7163.903
892.9142, 7190.548
893.3964, 7201.949
893.8785, 7187.406
894.3606, 7164.566
894.8427, 7123.032
895.3248, 7089.646
895.8069, 7095.186
896.2891, 7124.218
896.7712, 7139.090
897.2533, 7127.971
897.7354, 7116.564
898.2175, 7124.293
898.6996, 7133.681
899.1818, 7126.002
899.6639, 7111.403
900.1460, 7110.511
900.6281, 7122.216
901.1102, 7123.627
901.5923, 7098.204
902.0745, 7068.181
902.5566, 7058.697
903.0387, 7062.917
903.5208, 7071.440
904.0029, 7081.483
904.4850, 7086.266
904.9672, 7083.687
905.4493, 7079.905
905.9314, 7083.461
906.4135, 7087.523
906.8956, 7065.608
907.3777, 7023.846
907.8599, 7012.004
908.3420, 7037.041
908.8241, 7066.334
909.3062, 7082.913
909.7883, 7085.479
910.2704, 7066.880
910.7526, 7027.581
911.2347, 7010.668
911.7168, 7018.641
912.1989, 7035.922
912.6810, 7062.943
913.1631, 7084.765
913.6453, 7088.833
914.1274, 7078.146
914.6095, 7063.645
915.0916, 7044.791
915.5737, 7022.277
916.0558, 6985.079
916.5380, 6965.190
917.0201, 6987.083
917.5022, 7020.466
917.9843, 7027.306
918.4664, 7008.114
918.9485, 6999.340
919.4307, 7013.990
919.9128, 7019.719
920.3949, 7008.028
920.8770, 6993.450
921.3591, 6979.508
921.8412, 6969.448
922.3234, 6967.359
922.8055, 6973.375
923.2876, 6989.876
923.7697, 7032.470
924.2518, 7066.312
924.7339, 7079.532
925.2161, 7078.413
925.6982, 7060.552
926.1803, 7034.245
926.6624, 7021.681
927.1445, 7034.619
927.6266, 7035.771
928.1088, 6994.325
928.5909, 6949.566
929.0730, 6925.861
929.5551, 6918.758
930.0372, 6928.583
930.5193, 6948.367
931.0015, 6951.708
931.4836, 6918.409
931.9657, 6883.609
932.4478, 6875.079
932.9299, 6880.445
933.4120, 6888.707
933.8942, 6897.579
934.3763, 6906.157
934.8584, 6913.740
935.3405, 6917.210
935.8226, 6913.025
936.3047, 6905.365
936.7869, 6895.499
937.2690, 6887.911
937.7511, 6900.311
938.2332, 6925.670
938.7153, 6927.233
939.1974, 6889.805
939.6796, 6841.357
940.1617, 6808.819
940.6438, 6790.203
941.1259, 6784.917
941.6080, 6789.954
942.0901, 6794.038
942.5723, 6794.958
943.0544, 6792.781
943.5365, 6787.303
944.0186, 6780.832
944.5007, 6776.366
944.9828, 6774.107
945.4650, 6776.070
945.9471, 6782.124
946.4292, 6790.685
946.9113, 6801.588
947.3934, 6809.222
947.8755, 6808.876
948.3577, 6802.859
948.8398, 6795.792
949.3219, 6787.597
949.8040, 6784.036
950.2861, 6785.843
950.7682, 6788.232
951.2504, 6790.250
951.7325, 6788.489
952.2146, 6777.491
952.6967, 6761.258
953.1788, 6762.016
953.6609, 6785.528
954.1431, 6791.621
954.6252, 6770.519
955.1073, 6756.744
955.5894, 6770.982
956.0715, 6788.420
956.5536, 6773.275
957.0358, 6728.423
957.5179, 6712.214
958.0000, 6737.024
958.4821, 6756.137
958.9642, 6765.470
959.4464, 6765.853
959.9285, 6751.893
960.4106, 6734.935
960.8927, 6735.688
961.3748, 6756.674
961.8569, 6765.645
962.3391, 6752.180
962.8212, 6746.446
963.3033, 6766.347
963.7854, 6777.824
964.2675, 6748.118
964.7496, 6699.454
965.2318, 6681.269
965.7139, 6702.750
966.1960, 6715.806
966.6781, 6721.501
967.1602, 6717.220
967.6423, 6691.744
968.1245, 6666.071
968.6066, 6659.697
969.0887, 6664.184
969.5708, 6652.375
970.0529, 6607.276
970.5350, 6595.172
971.0172, 6659.286
971.4993, 6707.143
971.9814, 6694.299
972.4635, 6666.930
972.9456, 6665.264
973.4277, 6684.356
973.9099, 6700.164
974.3920, 6710.221
974.8741, 6716.231
975.3562, 6720.058
975.8383, 6717.937
976.3204, 6702.881
976.8026, 6684.980
977.2847, 6670.217
977.7668, 6661.462
978.2489, 6670.300
978.7310, 6721.857
979.2131, 6743.077
979.6953, 6680.482
980.1774, 6623.942
980.6595, 6635.517
981.1416, 6670.823
981.6237, 6673.807
982.1058, 6643.654
982.5880, 6616.216
983.0701, 6597.682
983.5522, 6588.208
984.0343, 6596.166
984.5164, 6604.313
984.9985, 6602.909
985.4807, 6594.199
985.9628, 6578.273
986.4449, 6557.240
986.9270, 6545.481
987.4091, 6550.981
987.8912, 6561.062
988.3734, 6583.130
988.8555, 6595.819
989.3376, 6578.471
989.8197, 6544.029
990.3018, 6509.491
990.7839, 6478.895
991.2661, 6457.727
991.7482, 6448.067
992.2303, 6448.274
992.7124, 6469.599
993.1945, 6489.198
993.6766, 6483.634
994.1588, 6465.625
994.6409, 6459.097
995.1230, 6467.740
995.6051, 6476.200
996.0872, 6477.017
996.5693, 6477.517
997.0515, 6477.613
997.5336, 6481.962
998.0157, 6500.769
998.4978, 6524.305
998.9799, 6533.514
999.4620, 6525.139
999.9442, 6516.307
1000.426, 6519.507
1000.908, 6517.399
1001.391, 6490.294
1001.873, 6464.021
1002.355, 6463.921
1002.837, 6481.106
1003.319, 6497.920
1003.801, 6510.091
1004.283, 6514.340
1004.765, 6507.845
1005.247, 6494.991
1005.730, 6468.388
1006.212, 6445.099
1006.694, 6446.424
1007.176, 6460.605
1007.658, 6462.540
1008.140, 6446.986
1008.622, 6430.733
1009.104, 6406.525
1009.586, 6401.807
1010.069, 6457.358
1010.551, 6514.136
1011.033, 6511.589
1011.515, 6472.603
1011.997, 6447.730
1012.479, 6447.871
1012.961, 6451.701
1013.443, 6449.360
1013.926, 6450.346
1014.408, 6457.731
1014.890, 6471.480
1015.372, 6500.267
1015.854, 6532.085
1016.336, 6546.903
1016.818, 6540.709
1017.300, 6518.132
1017.782, 6444.677
1018.265, 6402.827
1018.747, 6457.986
1019.229, 6529.313
1019.711, 6548.719
1020.193, 6537.981
1020.675, 6544.155
1021.157, 6575.216
1021.639, 6606.801
1022.122, 6634.810
1022.604, 6656.873
1023.086, 6653.639
1023.568, 6662.400
1024.050, 6712.200
1024.532, 6792.332
1025.014, 6879.620
1025.496, 6970.781
1025.978, 7092.447
1026.461, 7240.681
1026.943, 7434.302
1027.425, 7684.974
1027.907, 7974.604
1028.389, 8315.929
1028.871, 8678.926
1029.353, 9045.320
1029.835, 9409.617
1030.318, 9664.505
1030.800, 9838.924
1031.282, 9834.071
1031.764, 9561.396
1032.246, 9179.656
1032.728, 8716.260
1033.210, 8231.224
1033.692, 7789.465
1034.174, 7396.125
1034.656, 7092.294
1035.139, 6921.298
1035.621, 6782.120
1036.103, 6672.572
1036.585, 6584.927
1037.067, 6519.593
1037.549, 6472.558
1038.031, 6441.847
1038.513, 6426.783
1038.996, 6412.908
1039.478, 6398.916
1039.960, 6388.179
1040.442, 6389.028
1040.924, 6381.505
1041.406, 6352.100
1041.888, 6316.231
1042.370, 6289.618
1042.853, 6271.182
1043.335, 6253.811
1043.817, 6231.718
1044.299, 6225.257
1044.781, 6248.304
1045.263, 6260.157
1045.745, 6240.228
1046.227, 6214.224
1046.709, 6208.167
1047.192, 6215.821
1047.674, 6210.884
1048.156, 6187.775
1048.638, 6172.848
1049.120, 6168.932
1049.602, 6165.056
1050.084, 6157.877
1050.566, 6149.827
1051.048, 6141.265
1051.531, 6135.546
1052.013, 6145.728
1052.495, 6176.378
1052.977, 6174.316
1053.459, 6130.834
1053.941, 6114.531
1054.423, 6147.329
1054.905, 6179.337
1055.388, 6174.768
1055.870, 6150.257
1056.352, 6139.799
1056.834, 6141.563
1057.316, 6120.371
1057.798, 6076.186
1058.280, 6058.645
1058.762, 6077.571
1059.245, 6091.728
1059.727, 6076.327
1060.209, 6056.499
1060.691, 6073.348
1061.173, 6113.802
1061.655, 6130.171
1062.137, 6124.239
1062.619, 6098.945
1063.101, 6058.192
1063.583, 6026.560
1064.066, 6014.845
1064.548, 6018.695
1065.030, 6039.870
1065.512, 6064.926
1065.994, 6063.922
1066.476, 6045.890
1066.958, 6031.486
1067.440, 6022.870
1067.923, 6015.898
1068.405, 6010.024
1068.887, 6015.101
1069.369, 6043.230
1069.851, 6076.692
1070.333, 6101.965
1070.815, 6113.284
1071.297, 6089.915
1071.780, 6048.667
1072.262, 6029.381
1072.744, 6037.446
1073.226, 6046.931
1073.708, 6044.115
1074.190, 6037.722
1074.672, 6034.432
1075.154, 6030.613
1075.636, 6017.775
1076.119, 6005.227
1076.601, 6008.246
1077.083, 6025.148
1077.565, 6042.779
1078.047, 6058.741
1078.529, 6066.207
1079.011, 6058.978
1079.493, 6046.133
1079.976, 6022.359
1080.458, 6003.920
1080.940, 6012.822
1081.422, 6038.521
1081.904, 6053.990
1082.386, 6055.222
1082.868, 6044.731
1083.350, 6017.946
1083.833, 5986.637
1084.315, 5939.395
1084.797, 5903.653
1085.279, 5906.162
1085.761, 5926.519
1086.243, 5930.531
1086.725, 5917.663
1087.207, 5903.712
1087.689, 5877.558
1088.172, 5874.122
1088.654, 5913.939
1089.136, 5942.390
1089.618, 5929.917
1090.100, 5905.981
1090.582, 5903.416
1091.064, 5918.112
1091.546, 5930.831
1092.028, 5943.035
1092.511, 5942.495
1092.993, 5925.606
1093.475, 5915.392
1093.957, 5920.900
1094.439, 5920.350
1094.921, 5892.765
1095.403, 5858.721
1095.885, 5869.872
1096.368, 5919.831
1096.850, 5944.251
1097.332, 5944.486
1097.814, 5937.114
1098.296, 5925.112
1098.778, 5898.558
1099.260, 5851.387
1099.742, 5808.604
1100.224, 5806.086
1100.707, 5825.992
1101.189, 5833.969
1101.671, 5833.044
1102.153, 5826.252
1102.635, 5817.583
1103.117, 5821.561
1103.599, 5840.798
1104.081, 5850.354
1104.563, 5824.596
1105.046, 5795.954
1105.528, 5801.896
1106.010, 5816.792
1106.492, 5812.433
1106.974, 5794.737
1107.456, 5771.812
1107.938, 5749.409
1108.420, 5743.970
1108.903, 5769.092
1109.385, 5787.651
1109.867, 5774.869
1110.349, 5760.600
1110.831, 5760.349
1111.313, 5767.190
1111.795, 5778.801
1112.277, 5790.235
1112.760, 5787.242
1113.242, 5762.911
1113.724, 5755.021
1114.206, 5785.248
1114.688, 5805.434
1115.170, 5803.911
1115.652, 5796.794
1116.134, 5792.887
1116.616, 5787.452
1117.099, 5771.792
1117.581, 5747.675
1118.063, 5735.857
1118.545, 5740.192
1119.027, 5740.891
1119.509, 5735.560
1119.991, 5732.920
1120.473, 5736.515
1120.955, 5740.948
1121.438, 5741.780
1121.920, 5739.424
1122.402, 5733.068
1122.884, 5723.831
1123.366, 5725.125
1123.848, 5734.274
1124.330, 5723.622
1124.812, 5691.754
1125.295, 5678.300
1125.777, 5704.302
1126.259, 5734.976
1126.741, 5728.427
1127.223, 5705.337
1127.705, 5694.885
1128.187, 5693.696
1128.669, 5701.128
1129.151, 5711.114
1129.634, 5708.256
1130.116, 5690.516
1130.598, 5674.725
1131.080, 5668.247
1131.562, 5670.169
1132.044, 5694.619
1132.526, 5711.499
1133.008, 5684.520
1133.490, 5646.425
1133.973, 5637.802
1134.455, 5655.742
1134.937, 5675.675
1135.419, 5694.149
1135.901, 5711.674
1136.383, 5735.342
1136.865, 5747.962
1137.347, 5729.906
1137.830, 5717.351
1138.312, 5732.043
1138.794, 5762.375
1139.276, 5791.571
1139.758, 5820.099
1140.240, 5856.353
1140.722, 5902.599
1141.204, 5944.353
1141.687, 5977.998
1142.169, 6021.632
1142.651, 6081.814
1143.133, 6152.796
1143.615, 6231.995
1144.097, 6313.791
1144.579, 6391.074
1145.061, 6461.573
1145.543, 6513.117
1146.026, 6548.810
1146.508, 6581.570
1146.990, 6612.480
1147.472, 6635.594
1147.954, 6648.155
1148.436, 6645.658
1148.918, 6624.160
1149.400, 6585.629
1149.882, 6520.524
1150.365, 6449.186
1150.847, 6401.937
1151.329, 6365.320
1151.811, 6306.417
1152.293, 6226.626
1152.775, 6163.730
1153.257, 6136.204
1153.739, 6111.225
1154.222, 6073.301
1154.704, 6041.174
1155.186, 6032.569
1155.668, 6023.697
1156.150, 5993.189
1156.632, 5948.335
1157.114, 5903.418
1157.596, 5857.584
1158.078, 5824.799
1158.561, 5809.566
1159.043, 5794.948
1159.525, 5781.457
1160.007, 5759.964
1160.489, 5724.305
1160.971, 5689.221
1161.453, 5667.931
1161.935, 5659.263
1162.417, 5664.652
1162.900, 5680.685
1163.382, 5686.583
1163.864, 5682.068
1164.346, 5659.268
1164.828, 5623.327
1165.310, 5615.685
1165.792, 5654.832
1166.274, 5699.942
1166.757, 5712.670
1167.239, 5714.610
1167.721, 5714.445
1168.203, 5730.016
1168.685, 5791.759
1169.167, 5881.286
1169.649, 5956.186
1170.131, 6019.212
1170.614, 6121.360
1171.096, 6284.636
1171.578, 6465.888
1172.060, 6662.234
1172.542, 6862.110
1173.024, 7082.981
1173.506, 7283.921
1173.988, 7416.081
1174.470, 7525.636
1174.953, 7690.222
1175.435, 7907.156
1175.917, 8120.422
1176.399, 8335.131
1176.881, 8548.651
1177.363, 8785.706
1177.845, 8846.537
1178.327, 8665.067
1178.809, 8302.245
1179.292, 7788.167
1179.774, 7226.292
1180.256, 6775.348
1180.738, 6424.086
1181.220, 6148.635
1181.702, 5944.599
1182.184, 5813.105
1182.666, 5738.620
1183.149, 5680.124
1183.631, 5623.736
1184.113, 5574.413
1184.595, 5534.122
1185.077, 5503.494
1185.559, 5488.538
1186.041, 5477.399
1186.523, 5460.173
1187.005, 5442.903
1187.488, 5433.878
1187.970, 5430.903
1188.452, 5426.395
1188.934, 5420.027
1189.416, 5408.870
1189.898, 5386.034
1190.380, 5373.063
1190.862, 5375.891
1191.344, 5380.550
1191.827, 5382.293
1192.309, 5379.979
1192.791, 5371.308
1193.273, 5360.222
1193.755, 5359.700
1194.237, 5367.204
1194.719, 5362.519
1195.201, 5347.933
1195.684, 5337.015
1196.166, 5331.812
1196.648, 5329.941
1197.130, 5330.061
1197.612, 5325.831
1198.094, 5305.130
1198.576, 5289.694
1199.058, 5306.181
1199.541, 5331.426
1200.023, 5350.161
1200.505, 5357.402
1200.987, 5344.527
1201.469, 5315.834
1201.951, 5285.764
1202.433, 5251.809
1202.915, 5239.275
1203.397, 5265.979
1203.880, 5291.850
1204.362, 5317.051
1204.844, 5331.322
1205.326, 5326.905
1205.808, 5316.226
1206.290, 5313.221
1206.772, 5313.890
1207.254, 5301.519
1207.736, 5278.681
1208.219, 5279.700
1208.701, 5301.806
1209.183, 5322.732
1209.665, 5337.927
1210.147, 5344.011
1210.629, 5340.542
1211.111, 5350.387
1211.593, 5404.938
1212.076, 5459.122
1212.558, 5468.718
1213.040, 5457.021
1213.522, 5437.566
1214.004, 5418.273
1214.486, 5408.068
1214.968, 5405.614
1215.450, 5406.190
1215.932, 5413.629
1216.415, 5398.476
1216.897, 5335.508
1217.379, 5290.101
1217.861, 5271.057
1218.343, 5269.626
1218.825, 5293.480
1219.307, 5300.834
1219.789, 5241.972
1220.271, 5156.618
1220.754, 5153.849
1221.236, 5216.396
1221.718, 5234.300
1222.200, 5214.752
1222.682, 5185.939
1223.164, 5157.045
1223.646, 5147.603
1224.128, 5161.956
1224.611, 5169.726
1225.093, 5144.130
1225.575, 5121.421
1226.057, 5136.207
1226.539, 5155.015
1227.021, 5153.342
1227.503, 5141.733
1227.985, 5130.344
1228.468, 5119.952
1228.950, 5109.059
1229.432, 5097.481
1229.914, 5090.337
1230.396, 5089.491
1230.878, 5089.142
1231.360, 5091.536
1231.842, 5082.059
1232.324, 5054.300
1232.807, 5025.205
1233.289, 5005.340
1233.771, 5001.566
1234.253, 5034.666
1234.735, 5083.811
1235.217, 5100.524
1235.699, 5094.811
1236.181, 5083.859
1236.663, 5070.456
1237.146, 5052.960
1237.628, 5033.105
1238.110, 5019.864
1238.592, 5016.731
1239.074, 5020.308
1239.556, 5039.781
1240.038, 5051.039
1240.520, 5035.881
1241.003, 5020.710
1241.485, 5025.551
1241.967, 5034.086
1242.449, 5025.007
1242.931, 5003.934
1243.413, 4993.162
1243.895, 4992.696
1244.377, 5008.090
1244.859, 5037.831
1245.342, 5053.257
1245.824, 5049.824
1246.306, 5032.337
1246.788, 5004.021
1247.270, 4981.195
1247.752, 4980.783
1248.234, 4982.977
1248.716, 4962.358
1249.198, 4941.661
1249.681, 4947.942
1250.163, 4961.782
1250.645, 4956.277
1251.127, 4938.734
1251.609, 4935.802
1252.091, 4951.792
1252.573, 4948.035
1253.055, 4908.206
1253.538, 4890.508
1254.020, 4904.120
1254.502, 4915.530
1254.984, 4914.644
1255.466, 4914.794
1255.948, 4925.607
1256.430, 4934.587
1256.912, 4921.664
1257.395, 4899.123
1257.877, 4893.225
1258.359, 4895.737
1258.841, 4889.706
1259.323, 4879.957
1259.805, 4879.405
1260.287, 4888.337
1260.769, 4898.374
1261.251, 4906.816
1261.734, 4917.921
1262.216, 4942.725
1262.698, 4954.981
1263.180, 4940.299
1263.662, 4925.301
1264.144, 4919.439
1264.626, 4918.536
1265.108, 4920.983
1265.590, 4921.589
1266.073, 4906.729
1266.555, 4880.519
1267.037, 4864.216
1267.519, 4856.502
##END=



