##NAMES=Hollandite
##RRUFFID=R070539
##IDEAL CHEMISTRY=Ba(Mn^4+^_6_Mn^3+^_2_)O_16_
##LOCALITY=Tangen mine, Hurdalsjoen, Nannestad, Akershus, Norway
##OWNER=RRUFF
##SOURCE=James Shigley
##DESCRIPTION=Fibrous dark gray submetallic crystals
##STATUS=The identification of this mineral has been confirmed by X-ray diffraction and chemical analysis
##URL=rruff.info/R070539
##MEASURED CHEMISTRY=(Ba_0.94_[box]_0.06_)_Σ=1_(Mn^4+^_7.06_Mn^2+^_0.94_)_Σ=8_O_16_; Mn^4+^ and Mn^2+^ splitted by charge balance
150.1554, 1107.750
150.6375, 1112.751
151.1196, 1114.909
151.6017, 1106.170
152.0838, 1102.989
152.5659, 1108.233
153.0481, 1122.715
153.5302, 1139.467
154.0123, 1165.243
154.4944, 1190.541
154.9765, 1205.478
155.4586, 1196.434
155.9408, 1188.166
156.4229, 1187.162
156.9050, 1189.619
157.3871, 1191.716
157.8692, 1202.661
158.3513, 1217.508
158.8335, 1227.598
159.3156, 1226.637
159.7977, 1224.094
160.2798, 1224.420
160.7619, 1229.665
161.2440, 1234.967
161.7262, 1240.969
162.2083, 1246.249
162.6904, 1247.116
163.1725, 1236.756
163.6546, 1224.804
164.1367, 1217.477
164.6189, 1215.005
165.1010, 1218.500
165.5831, 1235.146
166.0652, 1261.078
166.5473, 1277.780
167.0294, 1266.533
167.5116, 1244.882
167.9937, 1229.619
168.4758, 1232.492
168.9579, 1238.516
169.4400, 1235.979
169.9221, 1225.513
170.4043, 1219.016
170.8864, 1231.187
171.3685, 1250.861
171.8506, 1262.114
172.3327, 1249.541
172.8148, 1230.878
173.2970, 1220.853
173.7791, 1219.962
174.2612, 1226.644
174.7433, 1248.419
175.2254, 1277.097
175.7076, 1295.552
176.1897, 1284.201
176.6718, 1262.316
177.1539, 1257.000
177.6360, 1273.293
178.1181, 1292.936
178.6003, 1294.648
179.0824, 1283.019
179.5645, 1274.696
180.0466, 1283.481
180.5287, 1301.108
181.0108, 1311.708
181.4930, 1312.706
181.9751, 1308.033
182.4572, 1300.627
182.9393, 1290.993
183.4214, 1283.371
183.9035, 1282.109
184.3857, 1285.180
184.8678, 1287.049
185.3499, 1286.733
185.8320, 1284.696
186.3141, 1280.993
186.7962, 1275.626
187.2784, 1270.814
187.7605, 1268.097
188.2426, 1267.352
188.7247, 1268.198
189.2068, 1271.065
189.6889, 1275.110
190.1711, 1278.897
190.6532, 1282.515
191.1353, 1284.571
191.6174, 1283.010
192.0995, 1278.166
192.5816, 1273.037
193.0638, 1267.541
193.5459, 1262.495
194.0280, 1261.900
194.5101, 1266.389
194.9922, 1272.453
195.4743, 1276.623
195.9565, 1278.882
196.4386, 1279.560
196.9207, 1277.250
197.4028, 1272.745
197.8849, 1274.351
198.3671, 1284.001
198.8492, 1294.835
199.3313, 1298.123
199.8134, 1293.612
200.2955, 1283.692
200.7776, 1265.250
201.2598, 1238.052
201.7419, 1222.966
202.2240, 1221.647
202.7061, 1229.407
203.1882, 1240.557
203.6703, 1256.665
204.1525, 1268.799
204.6346, 1271.680
205.1167, 1264.062
205.5988, 1258.120
206.0809, 1253.833
206.5630, 1251.488
207.0452, 1252.316
207.5273, 1257.277
208.0094, 1262.334
208.4915, 1265.010
208.9736, 1264.476
209.4557, 1266.976
209.9379, 1275.197
210.4200, 1285.214
210.9021, 1285.183
211.3842, 1271.957
211.8663, 1256.516
212.3484, 1244.624
212.8306, 1236.305
213.3127, 1231.497
213.7948, 1230.196
214.2769, 1232.396
214.7590, 1239.291
215.2411, 1253.766
215.7233, 1267.113
216.2054, 1274.036
216.6875, 1274.283
217.1696, 1268.297
217.6517, 1252.745
218.1338, 1230.368
218.6160, 1218.136
219.0981, 1219.260
219.5802, 1225.067
220.0623, 1229.006
220.5444, 1229.044
221.0265, 1233.040
221.5087, 1244.714
221.9908, 1262.543
222.4729, 1269.774
222.9550, 1260.409
223.4371, 1248.789
223.9192, 1247.754
224.4014, 1264.685
224.8835, 1274.658
225.3656, 1272.182
225.8477, 1257.795
226.3298, 1245.344
226.8119, 1234.884
227.2941, 1226.116
227.7762, 1218.049
228.2583, 1208.563
228.7404, 1204.631
229.2225, 1208.947
229.7046, 1221.486
230.1868, 1232.448
230.6689, 1241.794
231.1510, 1249.415
231.6331, 1255.653
232.1152, 1262.132
232.5974, 1263.928
233.0795, 1259.230
233.5616, 1247.716
234.0437, 1236.098
234.5258, 1222.128
235.0079, 1210.112
235.4901, 1204.956
235.9722, 1209.482
236.4543, 1215.849
236.9364, 1223.382
237.4185, 1232.572
237.9006, 1238.003
238.3828, 1238.256
238.8649, 1235.998
239.3470, 1234.104
239.8291, 1232.209
240.3112, 1231.225
240.7933, 1231.198
241.2755, 1231.990
241.7576, 1234.753
242.2397, 1241.161
242.7218, 1248.115
243.2039, 1251.248
243.6860, 1247.367
244.1682, 1245.451
244.6503, 1249.313
245.1324, 1260.896
245.6145, 1264.551
246.0966, 1254.947
246.5787, 1241.649
247.0609, 1238.113
247.5430, 1249.938
248.0251, 1261.567
248.5072, 1269.460
248.9893, 1273.667
249.4714, 1273.005
249.9536, 1264.520
250.4357, 1253.458
250.9178, 1247.372
251.3999, 1248.606
251.8820, 1250.496
252.3641, 1251.066
252.8463, 1249.876
253.3284, 1249.819
253.8105, 1250.692
254.2926, 1252.870
254.7747, 1257.920
255.2568, 1269.931
255.7390, 1276.571
256.2211, 1271.139
256.7032, 1249.543
257.1853, 1243.198
257.6674, 1260.818
258.1495, 1285.935
258.6317, 1292.887
259.1138, 1271.850
259.5959, 1253.905
260.0780, 1250.568
260.5601, 1265.205
261.0422, 1271.877
261.5244, 1266.784
262.0065, 1257.512
262.4886, 1256.136
262.9707, 1266.515
263.4528, 1275.256
263.9349, 1277.366
264.4171, 1271.502
264.8992, 1268.932
265.3813, 1270.176
265.8634, 1274.020
266.3455, 1279.578
266.8276, 1288.427
267.3098, 1294.507
267.7919, 1295.200
268.2740, 1289.930
268.7561, 1285.527
269.2382, 1281.169
269.7203, 1278.910
270.2025, 1283.176
270.6846, 1296.648
271.1667, 1306.851
271.6488, 1308.306
272.1309, 1300.468
272.6130, 1298.012
273.0952, 1302.808
273.5773, 1309.805
274.0594, 1312.091
274.5415, 1308.882
275.0236, 1304.971
275.5057, 1301.345
275.9879, 1298.045
276.4700, 1297.021
276.9521, 1298.578
277.4342, 1301.779
277.9163, 1306.209
278.3984, 1312.257
278.8806, 1316.641
279.3627, 1318.541
279.8448, 1317.961
280.3269, 1313.510
280.8090, 1303.586
281.2911, 1294.175
281.7733, 1293.889
282.2554, 1303.280
282.7375, 1310.548
283.2196, 1311.471
283.7017, 1307.012
284.1838, 1302.315
284.6660, 1296.842
285.1481, 1293.189
285.6302, 1295.026
286.1123, 1302.203
286.5944, 1309.633
287.0765, 1316.303
287.5587, 1322.033
288.0408, 1326.819
288.5229, 1331.054
289.0050, 1331.950
289.4871, 1323.389
289.9692, 1307.027
290.4514, 1295.979
290.9335, 1294.456
291.4156, 1300.602
291.8977, 1312.202
292.3798, 1329.734
292.8619, 1344.337
293.3441, 1344.155
293.8262, 1332.701
294.3083, 1325.709
294.7904, 1329.481
295.2726, 1338.405
295.7547, 1341.815
296.2368, 1339.748
296.7189, 1334.680
297.2010, 1326.724
297.6831, 1317.282
298.1653, 1310.004
298.6474, 1305.895
299.1295, 1304.258
299.6116, 1304.131
300.0937, 1305.517
300.5758, 1308.432
301.0580, 1315.009
301.5401, 1322.836
302.0222, 1327.001
302.5043, 1324.791
302.9864, 1320.962
303.4685, 1322.281
303.9507, 1327.554
304.4328, 1330.848
304.9149, 1325.543
305.3970, 1316.766
305.8791, 1312.099
306.3612, 1315.254
306.8434, 1318.382
307.3255, 1310.871
307.8076, 1296.526
308.2897, 1287.131
308.7718, 1294.944
309.2539, 1308.721
309.7361, 1316.199
310.2182, 1313.141
310.7003, 1309.684
311.1824, 1313.683
311.6645, 1322.726
312.1466, 1331.304
312.6288, 1336.483
313.1109, 1340.392
313.5930, 1345.826
314.0751, 1354.786
314.5572, 1359.197
315.0393, 1350.224
315.5215, 1334.379
316.0036, 1322.725
316.4857, 1322.780
316.9678, 1325.700
317.4499, 1326.330
317.9320, 1323.559
318.4142, 1322.208
318.8963, 1324.565
319.3784, 1329.205
319.8605, 1334.382
320.3426, 1347.196
320.8247, 1353.677
321.3069, 1342.989
321.7890, 1311.905
322.2711, 1292.422
322.7532, 1302.402
323.2353, 1323.047
323.7174, 1336.038
324.1996, 1329.176
324.6817, 1323.317
325.1638, 1324.458
325.6459, 1332.941
326.1280, 1339.364
326.6101, 1346.115
327.0923, 1348.676
327.5744, 1343.643
328.0565, 1316.651
328.5386, 1298.289
329.0207, 1293.358
329.5028, 1300.935
329.9850, 1310.695
330.4671, 1328.458
330.9492, 1343.631
331.4313, 1349.958
331.9134, 1341.694
332.3955, 1333.769
332.8777, 1326.292
333.3598, 1319.723
333.8419, 1315.828
334.3240, 1317.218
334.8061, 1317.575
335.2882, 1312.713
335.7704, 1298.001
336.2525, 1289.801
336.7346, 1288.006
337.2167, 1293.113
337.6988, 1308.534
338.1809, 1339.597
338.6631, 1367.297
339.1452, 1383.006
339.6273, 1385.824
340.1094, 1382.081
340.5915, 1369.166
341.0736, 1353.506
341.5558, 1346.688
342.0379, 1349.799
342.5200, 1353.244
343.0021, 1352.769
343.4842, 1348.887
343.9663, 1348.807
344.4485, 1353.685
344.9306, 1358.361
345.4127, 1354.142
345.8948, 1341.940
346.3769, 1334.202
346.8590, 1336.138
347.3412, 1345.208
347.8233, 1356.543
348.3054, 1370.502
348.7875, 1379.297
349.2696, 1368.396
349.7517, 1344.906
350.2339, 1333.217
350.7160, 1345.024
351.1981, 1366.218
351.6802, 1375.144
352.1623, 1372.748
352.6444, 1368.407
353.1266, 1367.760
353.6087, 1369.868
354.0908, 1374.189
354.5729, 1382.715
355.0550, 1388.965
355.5371, 1381.907
356.0193, 1366.189
356.5014, 1356.633
356.9835, 1369.353
357.4656, 1388.329
357.9477, 1397.366
358.4298, 1391.998
358.9120, 1385.653
359.3941, 1387.133
359.8762, 1393.318
360.3583, 1398.877
360.8404, 1403.635
361.3225, 1405.501
361.8047, 1402.295
362.2868, 1393.294
362.7689, 1384.541
363.2510, 1376.323
363.7331, 1370.208
364.2152, 1367.909
364.6974, 1371.299
365.1795, 1377.126
365.6616, 1387.373
366.1437, 1401.718
366.6258, 1408.999
367.1079, 1402.807
367.5901, 1391.739
368.0722, 1381.667
368.5543, 1366.151
369.0364, 1359.853
369.5185, 1370.832
370.0006, 1394.281
370.4828, 1406.331
370.9649, 1396.709
371.4470, 1385.912
371.9291, 1383.498
372.4112, 1395.130
372.8933, 1404.237
373.3755, 1409.750
373.8576, 1413.025
374.3397, 1416.675
374.8218, 1420.507
375.3039, 1424.909
375.7861, 1430.526
376.2682, 1437.698
376.7503, 1442.273
377.2324, 1443.685
377.7145, 1443.315
378.1967, 1443.123
378.6788, 1443.334
379.1609, 1441.979
379.6430, 1437.682
380.1251, 1431.335
380.6072, 1427.337
381.0894, 1425.851
381.5715, 1426.229
382.0536, 1427.231
382.5357, 1429.270
383.0178, 1436.020
383.4999, 1451.581
383.9821, 1468.475
384.4642, 1469.897
384.9463, 1457.107
385.4284, 1444.672
385.9105, 1443.965
386.3926, 1450.167
386.8748, 1453.307
387.3569, 1451.155
387.8390, 1448.225
388.3211, 1449.681
388.8032, 1454.180
389.2853, 1458.091
389.7675, 1458.137
390.2496, 1457.636
390.7317, 1460.304
391.2138, 1466.718
391.6959, 1472.519
392.1780, 1474.688
392.6602, 1474.876
393.1423, 1475.237
393.6244, 1476.510
394.1065, 1478.194
394.5886, 1481.371
395.0707, 1485.630
395.5529, 1486.688
396.0350, 1477.373
396.5171, 1467.810
396.9992, 1465.051
397.4813, 1478.486
397.9634, 1488.725
398.4456, 1491.648
398.9277, 1489.183
399.4098, 1487.640
399.8919, 1491.385
400.3740, 1492.597
400.8561, 1486.946
401.3383, 1467.695
401.8204, 1459.350
402.3025, 1466.667
402.7846, 1482.211
403.2667, 1495.804
403.7488, 1507.965
404.2310, 1516.980
404.7131, 1522.615
405.1952, 1524.843
405.6773, 1522.223
406.1594, 1513.216
406.6415, 1502.651
407.1237, 1494.182
407.6058, 1487.729
408.0879, 1485.337
408.5700, 1489.047
409.0521, 1495.703
409.5342, 1495.621
410.0164, 1488.554
410.4985, 1480.975
410.9806, 1476.585
411.4627, 1475.113
411.9448, 1475.692
412.4269, 1478.391
412.9091, 1482.542
413.3912, 1489.526
413.8733, 1497.758
414.3554, 1501.659
414.8375, 1494.789
415.3196, 1483.801
415.8018, 1477.576
416.2839, 1476.409
416.7660, 1475.568
417.2481, 1469.067
417.7302, 1461.589
418.2123, 1459.444
418.6945, 1471.308
419.1766, 1482.058
419.6587, 1479.180
420.1408, 1466.516
420.6229, 1459.805
421.1050, 1472.900
421.5872, 1488.887
422.0693, 1497.574
422.5514, 1495.026
423.0335, 1489.913
423.5156, 1479.912
423.9977, 1469.145
424.4799, 1464.312
424.9620, 1475.593
425.4441, 1483.643
425.9262, 1481.800
426.4083, 1467.951
426.8904, 1459.786
427.3726, 1458.285
427.8547, 1461.523
428.3368, 1469.109
428.8189, 1486.426
429.3010, 1495.792
429.7831, 1492.887
430.2653, 1480.764
430.7474, 1469.943
431.2295, 1458.897
431.7116, 1454.366
432.1937, 1465.014
432.6758, 1491.365
433.1580, 1503.980
433.6401, 1498.704
434.1222, 1486.261
434.6043, 1482.718
435.0864, 1487.267
435.5685, 1491.604
436.0507, 1492.025
436.5328, 1489.832
437.0149, 1487.608
437.4970, 1485.316
437.9791, 1483.661
438.4612, 1481.430
438.9434, 1480.560
439.4255, 1485.775
439.9076, 1504.110
440.3897, 1519.986
440.8718, 1514.258
441.3539, 1493.899
441.8361, 1478.976
442.3182, 1483.621
442.8003, 1494.520
443.2824, 1503.362
443.7645, 1509.224
444.2466, 1512.716
444.7288, 1512.202
445.2109, 1510.037
445.6930, 1509.045
446.1751, 1509.883
446.6572, 1511.798
447.1393, 1515.550
447.6215, 1521.035
448.1036, 1524.090
448.5857, 1521.875
449.0678, 1519.610
449.5499, 1520.342
450.0320, 1526.008
450.5142, 1530.984
450.9963, 1536.321
451.4784, 1540.304
451.9605, 1537.532
452.4426, 1524.503
452.9247, 1515.704
453.4069, 1519.048
453.8890, 1517.219
454.3711, 1538.930
454.8532, 1551.755
455.3353, 1556.171
455.8174, 1526.997
456.2996, 1541.199
456.7817, 1538.018
457.2638, 1534.123
457.7459, 1554.430
458.2281, 1530.142
458.7102, 1550.065
459.1923, 1552.339
459.6744, 1562.691
460.1565, 1555.552
460.6386, 1553.816
461.1208, 1569.575
461.6029, 1575.647
462.0850, 1566.495
462.5671, 1577.360
463.0492, 1552.461
463.5313, 1558.945
464.0135, 1578.971
464.4956, 1570.698
464.9777, 1581.883
465.4598, 1585.657
465.9419, 1555.754
466.4240, 1584.420
466.9062, 1587.756
467.3883, 1565.085
467.8704, 1591.744
468.3525, 1572.658
468.8346, 1569.900
469.3167, 1579.431
469.7989, 1576.151
470.2810, 1593.068
470.7631, 1590.528
471.2452, 1609.436
471.7273, 1618.085
472.2094, 1603.152
472.6916, 1582.920
473.1737, 1572.926
473.6558, 1573.704
474.1379, 1578.511
474.6200, 1588.611
475.1021, 1599.380
475.5843, 1597.546
476.0664, 1584.024
476.5485, 1575.488
477.0306, 1587.789
477.5127, 1610.712
477.9948, 1620.769
478.4770, 1616.431
478.9591, 1607.970
479.4412, 1601.428
479.9233, 1597.531
480.4054, 1597.891
480.8875, 1607.532
481.3697, 1616.361
481.8518, 1615.288
482.3339, 1607.131
482.8160, 1601.884
483.2981, 1606.299
483.7802, 1613.033
484.2624, 1617.660
484.7445, 1618.926
485.2266, 1620.710
485.7087, 1625.158
486.1908, 1629.932
486.6729, 1632.162
487.1551, 1630.319
487.6372, 1627.892
488.1193, 1624.079
488.6014, 1619.683
489.0835, 1620.498
489.5656, 1629.382
490.0478, 1638.212
490.5299, 1642.211
491.0120, 1640.703
491.4941, 1639.067
491.9762, 1636.754
492.4583, 1635.891
492.9405, 1641.194
493.4226, 1652.218
493.9047, 1661.063
494.3868, 1664.602
494.8689, 1664.521
495.3510, 1662.839
495.8332, 1659.844
496.3153, 1659.340
496.7974, 1667.615
497.2795, 1678.794
497.7616, 1683.452
498.2437, 1677.682
498.7259, 1673.046
499.2080, 1681.300
499.6901, 1695.423
500.1722, 1703.700
500.6543, 1696.867
501.1364, 1688.036
501.6186, 1682.171
502.1007, 1679.437
502.5828, 1677.078
503.0649, 1672.982
503.5470, 1670.352
504.0291, 1671.129
504.5113, 1676.964
504.9934, 1683.682
505.4755, 1693.311
505.9576, 1702.713
506.4397, 1705.355
506.9218, 1697.588
507.4040, 1693.242
507.8861, 1697.091
508.3682, 1708.050
508.8503, 1718.655
509.3324, 1729.129
509.8145, 1737.640
510.2967, 1743.283
510.7788, 1745.805
511.2609, 1742.929
511.7430, 1732.824
512.2252, 1722.046
512.7073, 1718.451
513.1894, 1720.765
513.6715, 1725.519
514.1536, 1735.230
514.6357, 1743.833
515.1179, 1745.486
515.6000, 1740.509
516.0821, 1733.450
516.5642, 1723.592
517.0463, 1714.411
517.5284, 1708.403
518.0106, 1705.877
518.4927, 1706.844
518.9748, 1717.814
519.4569, 1730.983
519.9390, 1732.617
520.4211, 1708.902
520.9033, 1691.345
521.3854, 1687.358
521.8675, 1696.333
522.3496, 1707.419
522.8317, 1706.609
523.3138, 1725.594
523.7960, 1735.692
524.2781, 1737.382
524.7602, 1705.482
525.2423, 1716.957
525.7244, 1711.049
526.2065, 1704.429
526.6887, 1722.009
527.1708, 1694.994
527.6529, 1712.190
528.1350, 1711.738
528.6171, 1719.364
529.0992, 1709.499
529.5814, 1705.036
530.0635, 1718.069
530.5456, 1700.254
531.0277, 1699.816
531.5098, 1704.217
531.9919, 1711.276
532.4741, 1725.682
532.9562, 1740.233
533.4383, 1746.109
533.9204, 1730.205
534.4025, 1717.188
534.8846, 1714.037
535.3668, 1719.341
535.8489, 1723.132
536.3310, 1725.846
536.8131, 1726.661
537.2952, 1724.680
537.7773, 1719.011
538.2595, 1715.370
538.7416, 1713.935
539.2237, 1714.271
539.7058, 1717.203
540.1879, 1722.702
540.6700, 1724.163
541.1522, 1718.192
541.6343, 1709.795
542.1164, 1709.846
542.5985, 1717.027
543.0806, 1723.564
543.5627, 1721.883
544.0449, 1718.407
544.5270, 1723.206
545.0091, 1737.206
545.4912, 1747.624
545.9733, 1740.922
546.4554, 1729.183
546.9376, 1724.784
547.4197, 1739.657
547.9018, 1750.107
548.3839, 1746.070
548.8660, 1733.491
549.3481, 1726.190
549.8303, 1730.492
550.3124, 1734.183
550.7945, 1733.731
551.2766, 1729.107
551.7587, 1726.840
552.2408, 1727.593
552.7230, 1729.432
553.2051, 1729.933
553.6872, 1728.782
554.1693, 1733.820
554.6514, 1747.501
555.1335, 1763.004
555.6157, 1770.521
556.0978, 1770.798
556.5799, 1766.947
557.0620, 1756.914
557.5441, 1745.913
558.0262, 1740.054
558.5084, 1739.250
558.9905, 1742.736
559.4726, 1755.476
559.9547, 1768.844
560.4368, 1774.581
560.9189, 1769.144
561.4011, 1766.831
561.8832, 1774.809
562.3653, 1787.069
562.8474, 1797.430
563.3295, 1806.357
563.8116, 1811.439
564.2938, 1811.563
564.7759, 1807.766
565.2580, 1802.541
565.7401, 1793.967
566.2222, 1788.542
566.7043, 1789.960
567.1865, 1797.735
567.6686, 1802.658
568.1507, 1804.414
568.6328, 1805.303
569.1149, 1805.685
569.5970, 1806.693
570.0792, 1813.567
570.5613, 1829.033
571.0434, 1844.633
571.5255, 1852.572
572.0076, 1853.933
572.4897, 1851.161
572.9719, 1837.840
573.4540, 1827.177
573.9361, 1829.046
574.4182, 1841.843
574.9003, 1853.658
575.3824, 1862.847
575.8646, 1868.699
576.3467, 1869.932
576.8288, 1864.023
577.3109, 1860.639
577.7930, 1857.893
578.2751, 1859.448
578.7573, 1871.559
579.2394, 1898.966
579.7215, 1917.435
580.2036, 1922.265
580.6857, 1917.529
581.1678, 1910.757
581.6500, 1902.123
582.1321, 1895.136
582.6142, 1890.352
583.0963, 1888.862
583.5784, 1895.448
584.0605, 1909.467
584.5427, 1920.998
585.0248, 1921.596
585.5069, 1916.405
585.9890, 1909.968
586.4711, 1901.742
586.9532, 1896.742
587.4354, 1900.612
587.9175, 1907.678
588.3996, 1910.609
588.8817, 1899.311
589.3638, 1894.272
589.8459, 1901.894
590.3281, 1918.367
590.8102, 1928.854
591.2923, 1933.221
591.7744, 1931.273
592.2565, 1918.514
592.7386, 1895.597
593.2208, 1892.492
593.7029, 1912.488
594.1850, 1933.392
594.6671, 1928.968
595.1492, 1907.948
595.6313, 1900.359
596.1135, 1915.705
596.5956, 1931.774
597.0777, 1923.325
597.5598, 1899.782
598.0419, 1879.245
598.5240, 1866.635
599.0062, 1860.969
599.4883, 1863.762
599.9704, 1873.773
600.4525, 1884.767
600.9346, 1898.921
601.4167, 1910.351
601.8989, 1916.626
602.3810, 1917.205
602.8631, 1914.826
603.3452, 1908.535
603.8273, 1900.506
604.3094, 1890.920
604.7916, 1878.892
605.2737, 1875.263
605.7558, 1884.011
606.2379, 1895.467
606.7200, 1893.188
607.2021, 1879.634
607.6843, 1866.810
608.1664, 1857.629
608.6485, 1853.124
609.1306, 1856.613
609.6127, 1866.509
610.0948, 1876.057
610.5770, 1883.911
611.0591, 1888.521
611.5412, 1886.695
612.0233, 1876.356
612.5054, 1871.803
612.9875, 1881.547
613.4697, 1894.484
613.9518, 1902.309
614.4339, 1904.308
614.9160, 1901.884
615.3981, 1891.161
615.8802, 1879.975
616.3624, 1884.707
616.8445, 1907.280
617.3266, 1923.769
617.8087, 1926.247
618.2908, 1918.922
618.7729, 1908.550
619.2551, 1895.859
619.7372, 1885.909
620.2193, 1880.827
620.7014, 1880.541
621.1835, 1888.462
621.6656, 1904.778
622.1478, 1914.641
622.6299, 1901.864
623.1120, 1884.800
623.5941, 1878.534
624.0762, 1893.456
624.5583, 1905.371
625.0405, 1911.133
625.5226, 1913.232
626.0047, 1914.384
626.4868, 1913.699
626.9689, 1914.705
627.4510, 1919.475
627.9332, 1925.409
628.4153, 1924.861
628.8974, 1917.695
629.3795, 1906.574
629.8616, 1887.157
630.3438, 1866.036
630.8259, 1859.588
631.3080, 1867.130
631.7901, 1877.101
632.2722, 1883.353
632.7543, 1886.782
633.2365, 1888.394
633.7186, 1888.567
634.2007, 1886.337
634.6828, 1875.582
635.1649, 1864.914
635.6470, 1864.031
636.1292, 1887.692
636.6113, 1900.727
637.0934, 1896.141
637.5755, 1881.802
638.0576, 1873.618
638.5397, 1871.749
639.0219, 1876.057
639.5040, 1890.526
639.9861, 1909.591
640.4682, 1911.581
640.9503, 1897.269
641.4324, 1883.695
641.9146, 1887.465
642.3967, 1896.416
642.8788, 1889.952
643.3609, 1865.834
643.8430, 1848.948
644.3251, 1864.497
644.8073, 1888.295
645.2894, 1898.628
645.7715, 1881.137
646.2536, 1868.760
646.7357, 1869.980
647.2178, 1876.665
647.7000, 1879.243
648.1821, 1876.609
648.6642, 1872.220
649.1463, 1865.550
649.6284, 1858.350
650.1105, 1856.120
650.5927, 1858.894
651.0748, 1862.413
651.5569, 1866.641
652.0390, 1869.417
652.5211, 1864.287
653.0032, 1852.221
653.4854, 1841.805
653.9675, 1838.726
654.4496, 1839.612
654.9317, 1841.454
655.4138, 1843.602
655.8959, 1848.208
656.3781, 1862.859
656.8602, 1876.050
657.3423, 1877.351
657.8244, 1856.095
658.3065, 1842.381
658.7886, 1838.399
659.2708, 1841.177
659.7529, 1848.008
660.2350, 1859.709
660.7171, 1866.527
661.1992, 1864.818
661.6813, 1858.319
662.1635, 1854.340
662.6456, 1852.359
663.1277, 1849.813
663.6099, 1845.070
664.0920, 1839.303
664.5741, 1832.033
665.0562, 1823.840
665.5383, 1819.492
666.0204, 1825.722
666.5026, 1832.682
666.9847, 1834.859
667.4668, 1830.667
667.9489, 1824.670
668.4310, 1814.919
668.9131, 1805.533
669.3953, 1799.272
669.8774, 1795.795
670.3595, 1799.196
670.8416, 1812.175
671.3237, 1826.141
671.8058, 1827.262
672.2880, 1818.484
672.7701, 1811.598
673.2522, 1811.525
673.7343, 1812.862
674.2164, 1808.283
674.6985, 1800.840
675.1807, 1797.815
675.6628, 1807.622
676.1449, 1817.346
676.6270, 1822.465
677.1091, 1822.773
677.5912, 1819.126
678.0734, 1806.606
678.5555, 1796.849
679.0376, 1795.629
679.5197, 1803.438
680.0018, 1790.460
680.4839, 1810.021
680.9661, 1820.697
681.4482, 1822.964
681.9303, 1791.640
682.4124, 1803.692
682.8945, 1798.361
683.3766, 1792.317
683.8588, 1810.474
684.3409, 1784.036
684.8230, 1801.809
685.3051, 1801.934
685.7872, 1810.136
686.2693, 1800.848
686.7515, 1796.962
687.2336, 1810.572
687.7157, 1814.494
688.1978, 1803.192
688.6799, 1811.908
689.1620, 1784.859
689.6442, 1789.193
690.1263, 1807.069
690.6084, 1796.647
691.0905, 1805.682
691.5726, 1807.307
692.0547, 1775.253
692.5369, 1801.769
693.0190, 1802.956
693.5011, 1778.135
693.9832, 1802.645
694.4653, 1781.409
694.9474, 1776.502
695.4296, 1783.882
695.9117, 1778.453
696.3938, 1793.220
696.8759, 1788.530
697.3580, 1782.103
697.8401, 1783.261
698.3223, 1762.922
698.8044, 1763.198
699.2865, 1767.218
699.7686, 1792.366
700.2507, 1806.506
700.7328, 1802.674
701.2150, 1791.274
701.6971, 1783.341
702.1792, 1779.295
702.6613, 1780.681
703.1434, 1794.610
703.6255, 1806.467
704.1077, 1802.683
704.5898, 1789.487
705.0719, 1782.521
705.5540, 1793.446
706.0361, 1802.829
706.5182, 1805.992
707.0004, 1803.378
707.4825, 1796.218
707.9646, 1781.339
708.4467, 1771.794
708.9288, 1777.335
709.4109, 1794.492
709.8931, 1801.711
710.3752, 1798.973
710.8573, 1793.849
711.3394, 1792.017
711.8215, 1791.221
712.3036, 1787.620
712.7858, 1780.378
713.2679, 1775.311
713.7500, 1777.066
714.2321, 1781.151
714.7142, 1783.836
715.1964, 1781.841
715.6785, 1767.053
716.1606, 1787.416
716.6427, 1798.893
717.1248, 1801.962
717.6069, 1771.440
718.0891, 1784.294
718.5712, 1779.765
719.0533, 1774.522
719.5354, 1793.481
720.0175, 1767.845
720.4996, 1786.420
720.9818, 1787.347
721.4639, 1796.351
721.9460, 1787.864
722.4281, 1784.780
722.9102, 1799.192
723.3923, 1803.916
723.8745, 1793.416
724.3566, 1802.933
724.8387, 1776.685
725.3208, 1781.822
725.8029, 1800.500
726.2850, 1790.879
726.7672, 1800.716
727.2493, 1803.143
727.7314, 1771.891
728.2135, 1799.209
728.6956, 1801.198
729.1777, 1777.179
729.6599, 1802.490
730.1420, 1782.056
730.6241, 1777.951
731.1062, 1786.133
731.5883, 1781.506
732.0704, 1797.074
732.5526, 1793.187
733.0347, 1787.561
733.5168, 1789.521
733.9989, 1769.984
734.4810, 1790.329
734.9631, 1783.431
735.4453, 1790.075
735.9274, 1799.788
736.4095, 1785.999
736.8916, 1797.091
737.3737, 1769.599
737.8558, 1774.391
738.3380, 1775.708
738.8201, 1797.660
739.3022, 1770.355
739.7843, 1774.251
740.2664, 1791.431
740.7485, 1790.024
741.2307, 1795.167
741.7128, 1799.501
742.1949, 1795.598
742.6770, 1788.180
743.1591, 1788.977
743.6412, 1800.488
744.1234, 1808.834
744.6055, 1809.274
745.0876, 1804.579
745.5697, 1799.125
746.0518, 1793.641
746.5339, 1792.067
747.0161, 1801.991
747.4982, 1812.424
747.9803, 1811.795
748.4624, 1802.245
748.9445, 1796.040
749.4266, 1803.603
749.9088, 1808.776
750.3909, 1803.072
750.8730, 1786.857
751.3551, 1777.726
751.8372, 1777.876
752.3193, 1779.772
752.8015, 1778.804
753.2836, 1775.718
753.7657, 1775.396
754.2478, 1777.865
754.7299, 1780.879
755.2120, 1783.708
755.6942, 1785.487
756.1763, 1784.624
756.6584, 1780.583
757.1405, 1776.772
757.6226, 1775.416
758.1047, 1773.932
758.5869, 1769.700
759.0690, 1759.280
759.5511, 1755.691
760.0332, 1761.515
760.5153, 1769.697
760.9974, 1772.498
761.4796, 1770.610
761.9617, 1773.182
762.4438, 1782.783
762.9259, 1790.020
763.4080, 1780.382
763.8901, 1762.783
764.3723, 1734.881
764.8544, 1755.237
765.3365, 1766.708
765.8186, 1769.770
766.3007, 1739.241
766.7828, 1752.088
767.2650, 1747.552
767.7471, 1742.304
768.2292, 1761.256
768.7113, 1735.613
769.1934, 1754.182
769.6755, 1755.102
770.1577, 1764.099
770.6398, 1755.606
771.1219, 1752.515
771.6040, 1766.920
772.0861, 1771.637
772.5682, 1761.131
773.0504, 1770.641
773.5325, 1744.387
774.0146, 1749.517
774.4967, 1768.188
774.9788, 1758.561
775.4609, 1768.392
775.9431, 1770.812
776.4252, 1739.553
776.9073, 1766.865
777.3894, 1768.847
777.8715, 1744.821
778.3536, 1770.126
778.8358, 1749.685
779.3179, 1745.573
779.8000, 1753.749
780.2821, 1749.115
780.7642, 1764.677
781.2463, 1760.783
781.7285, 1755.150
782.2106, 1757.104
782.6927, 1737.560
783.1748, 1757.898
783.6569, 1750.994
784.1390, 1757.631
784.6212, 1767.337
785.1033, 1753.542
785.5854, 1764.627
786.0675, 1737.128
786.5496, 1741.914
787.0317, 1743.224
787.5139, 1765.169
787.9960, 1737.858
788.4781, 1741.747
788.9602, 1758.921
789.4423, 1757.506
789.9244, 1763.864
790.4066, 1747.213
790.8887, 1752.177
791.3708, 1751.183
791.8529, 1770.776
792.3350, 1774.116
792.8171, 1757.856
793.2993, 1741.679
793.7814, 1762.753
794.2635, 1748.521
794.7456, 1753.336
795.2277, 1738.478
795.7098, 1740.606
796.1920, 1742.465
796.6741, 1753.031
797.1562, 1737.195
797.6383, 1755.607
798.1204, 1754.224
798.6025, 1758.672
799.0847, 1762.472
799.5668, 1739.708
800.0489, 1738.720
800.5310, 1768.890
801.0131, 1751.542
801.4952, 1743.785
801.9774, 1742.846
802.4595, 1774.083
802.9416, 1775.413
803.4237, 1740.993
803.9058, 1770.813
804.3879, 1761.111
804.8701, 1758.757
805.3522, 1760.810
805.8343, 1759.884
806.3164, 1757.495
806.7985, 1753.892
807.2806, 1747.810
807.7628, 1747.558
808.2449, 1755.208
808.7270, 1762.738
809.2091, 1758.157
809.6912, 1746.611
810.1733, 1742.192
810.6555, 1748.124
811.1376, 1756.401
811.6197, 1764.839
812.1018, 1770.868
812.5839, 1771.302
813.0660, 1758.914
813.5482, 1753.451
814.0303, 1759.166
814.5124, 1768.298
814.9945, 1774.425
815.4766, 1777.751
815.9587, 1773.058
816.4409, 1758.124
816.9230, 1742.848
817.4051, 1740.086
817.8872, 1745.027
818.3693, 1749.774
818.8514, 1752.623
819.3336, 1755.005
819.8157, 1757.521
820.2978, 1760.005
820.7799, 1762.341
821.2620, 1765.317
821.7441, 1765.966
822.2263, 1762.730
822.7084, 1759.439
823.1905, 1762.928
823.6726, 1771.631
824.1547, 1772.111
824.6368, 1760.021
825.1190, 1749.008
825.6011, 1754.475
826.0832, 1767.934
826.5653, 1778.660
827.0474, 1785.966
827.5295, 1786.870
828.0117, 1772.519
828.4938, 1756.692
828.9760, 1753.715
829.4581, 1767.429
829.9402, 1776.819
830.4223, 1780.039
830.9044, 1779.268
831.3865, 1775.095
831.8687, 1769.218
832.3508, 1766.686
832.8329, 1770.005
833.3150, 1771.449
833.7971, 1761.351
834.2792, 1749.056
834.7614, 1744.686
835.2435, 1757.846
835.7256, 1765.861
836.2077, 1765.537
836.6898, 1764.063
837.1719, 1771.214
837.6541, 1786.506
838.1362, 1795.646
838.6183, 1796.681
839.1004, 1793.294
839.5825, 1787.277
840.0646, 1780.154
840.5468, 1773.996
841.0289, 1768.919
841.5110, 1765.659
841.9931, 1763.798
842.4752, 1764.428
842.9573, 1768.751
843.4395, 1778.273
843.9216, 1786.781
844.4037, 1794.358
844.8858, 1799.809
845.3679, 1801.520
845.8500, 1800.019
846.3322, 1796.717
846.8143, 1791.754
847.2964, 1785.413
847.7785, 1772.129
848.2606, 1761.043
848.7427, 1762.503
849.2249, 1789.210
849.7070, 1798.440
850.1891, 1778.913
850.6712, 1755.995
851.1533, 1752.383
851.6354, 1767.473
852.1176, 1772.835
852.5997, 1766.314
853.0818, 1760.342
853.5639, 1769.039
854.0460, 1783.592
854.5281, 1794.144
855.0103, 1799.517
855.4924, 1799.262
855.9745, 1785.710
856.4566, 1772.762
856.9387, 1768.979
857.4208, 1775.481
857.9030, 1785.342
858.3851, 1800.522
858.8672, 1810.671
859.3493, 1801.904
859.8314, 1783.173
860.3135, 1776.413
860.7957, 1782.542
861.2778, 1790.707
861.7599, 1794.760
862.2420, 1798.261
862.7241, 1804.166
863.2062, 1813.213
863.6884, 1820.149
864.1705, 1826.014
864.6526, 1827.648
865.1347, 1820.395
865.6168, 1806.684
866.0989, 1803.837
866.5811, 1811.234
867.0632, 1818.474
867.5453, 1820.750
868.0274, 1818.307
868.5095, 1807.052
868.9916, 1788.606
869.4738, 1779.945
869.9559, 1794.727
870.4380, 1809.720
870.9201, 1818.556
871.4022, 1821.769
871.8843, 1819.819
872.3665, 1812.334
872.8486, 1809.352
873.3307, 1821.439
873.8128, 1837.174
874.2949, 1838.939
874.7770, 1829.486
875.2592, 1818.098
875.7413, 1802.139
876.2234, 1791.778
876.7055, 1792.001
877.1876, 1800.703
877.6697, 1816.206
878.1519, 1843.555
878.6340, 1855.103
879.1161, 1838.391
879.5982, 1808.089
880.0803, 1786.139
880.5624, 1773.660
881.0446, 1774.388
881.5267, 1807.570
882.0088, 1833.292
882.4909, 1821.257
882.9730, 1791.053
883.4551, 1782.105
883.9373, 1811.616
884.4194, 1826.047
884.9015, 1813.677
885.3836, 1791.888
885.8657, 1791.084
886.3478, 1806.691
886.8300, 1817.831
887.3121, 1818.781
887.7942, 1816.190
888.2763, 1812.560
888.7584, 1809.756
889.2405, 1810.119
889.7227, 1817.226
890.2048, 1822.606
890.6869, 1827.216
891.1690, 1828.488
891.6511, 1821.729
892.1332, 1807.613
892.6154, 1797.387
893.0975, 1792.026
893.5796, 1790.235
894.0617, 1793.958
894.5438, 1798.710
895.0259, 1797.881
895.5081, 1788.503
895.9902, 1785.466
896.4723, 1799.428
896.9544, 1813.336
897.4365, 1818.496
897.9186, 1814.995
898.4008, 1803.713
898.8829, 1783.841
899.3650, 1767.984
899.8471, 1767.098
900.3292, 1774.597
900.8113, 1782.470
901.2935, 1790.324
901.7756, 1799.065
902.2577, 1817.941
902.7398, 1827.660
903.2219, 1815.361
903.7040, 1786.001
904.1862, 1773.900
904.6683, 1781.084
905.1504, 1791.477
905.6325, 1798.382
906.1146, 1804.080
906.5967, 1814.422
907.0789, 1827.188
907.5610, 1835.484
908.0431, 1836.561
908.5252, 1832.347
909.0073, 1816.560
909.4894, 1797.578
909.9716, 1794.929
910.4537, 1814.031
910.9358, 1826.249
911.4179, 1825.250
911.9000, 1816.564
912.3821, 1806.016
912.8643, 1795.103
913.3464, 1787.202
913.8285, 1782.995
914.3106, 1782.577
914.7927, 1788.046
915.2748, 1796.282
915.7570, 1804.685
916.2391, 1816.436
916.7212, 1816.573
917.2033, 1800.670
917.6854, 1785.220
918.1675, 1790.926
918.6497, 1810.086
919.1318, 1822.946
919.6139, 1827.178
920.0960, 1828.057
920.5781, 1828.298
921.0602, 1826.570
921.5424, 1819.722
922.0245, 1806.309
922.5066, 1803.893
922.9887, 1816.557
923.4708, 1828.600
923.9529, 1830.785
924.4351, 1825.382
924.9172, 1816.809
925.3993, 1805.957
925.8814, 1798.426
926.3635, 1798.900
926.8456, 1802.007
927.3278, 1803.525
927.8099, 1804.918
928.2920, 1813.911
928.7741, 1836.462
929.2562, 1850.568
929.7383, 1848.404
930.2205, 1837.878
930.7026, 1836.296
931.1847, 1840.719
931.6668, 1840.852
932.1489, 1828.241
932.6310, 1818.784
933.1132, 1827.738
933.5953, 1843.043
934.0774, 1846.920
934.5595, 1833.508
935.0416, 1820.237
935.5237, 1805.951
936.0059, 1796.479
936.4880, 1800.124
936.9701, 1813.880
937.4522, 1831.458
937.9343, 1853.228
938.4164, 1866.566
938.8986, 1856.766
939.3807, 1840.940
939.8628, 1831.237
940.3449, 1828.441
940.8270, 1831.029
941.3091, 1840.777
941.7913, 1850.561
942.2734, 1857.929
942.7555, 1861.551
943.2376, 1854.425
943.7197, 1838.733
944.2018, 1826.726
944.6840, 1827.503
945.1661, 1831.299
945.6482, 1836.012
946.1303, 1839.656
946.6124, 1834.700
947.0945, 1815.694
947.5767, 1807.301
948.0588, 1819.021
948.5409, 1837.720
949.0230, 1837.872
949.5051, 1825.936
949.9872, 1818.372
950.4694, 1821.287
950.9515, 1827.404
951.4336, 1837.851
951.9157, 1847.194
952.3978, 1849.821
952.8799, 1844.930
953.3621, 1833.636
953.8442, 1813.248
954.3263, 1797.606
954.8084, 1806.002
955.2905, 1826.714
955.7726, 1835.360
956.2548, 1829.952
956.7369, 1827.482
957.2190, 1841.572
957.7011, 1855.354
958.1832, 1858.391
958.6653, 1852.001
959.1475, 1854.551
959.6296, 1867.877
960.1117, 1875.520
960.5938, 1865.696
961.0759, 1849.686
961.5580, 1846.951
962.0402, 1852.626
962.5223, 1854.004
963.0044, 1836.234
963.4865, 1826.193
963.9686, 1836.044
964.4507, 1853.763
964.9329, 1860.719
965.4150, 1856.281
965.8971, 1853.533
966.3792, 1854.077
966.8613, 1858.317
967.3434, 1875.081
967.8256, 1891.897
968.3077, 1887.943
968.7898, 1852.244
969.2719, 1831.135
969.7540, 1842.940
970.2361, 1860.552
970.7183, 1870.262
971.2004, 1872.448
971.6825, 1871.077
972.1646, 1866.304
972.6467, 1862.836
973.1288, 1868.825
973.6110, 1873.321
974.0931, 1861.331
974.5752, 1838.348
975.0573, 1826.819
975.5394, 1839.435
976.0215, 1848.909
976.5037, 1849.401
976.9858, 1845.483
977.4679, 1844.202
977.9500, 1846.233
978.4321, 1857.786
978.9142, 1886.484
979.3964, 1906.149
979.8785, 1887.576
980.3606, 1855.710
980.8427, 1837.226
981.3248, 1837.153
981.8069, 1843.327
982.2891, 1858.987
982.7712, 1872.477
983.2533, 1872.341
983.7354, 1863.312
984.2175, 1856.388
984.6996, 1852.237
985.1818, 1852.734
985.6639, 1862.538
986.1460, 1873.576
986.6281, 1884.016
987.1102, 1892.404
987.5923, 1891.366
988.0745, 1878.572
988.5566, 1871.306
989.0387, 1876.694
989.5208, 1885.504
990.0029, 1883.295
990.4850, 1874.866
990.9672, 1869.250
991.4493, 1870.453
991.9314, 1871.993
992.4135, 1874.762
992.8957, 1875.265
993.3778, 1868.062
993.8599, 1852.622
994.3420, 1850.267
994.8242, 1862.120
995.3063, 1875.313
995.7884, 1881.647
996.2705, 1883.261
996.7526, 1880.815
997.2347, 1874.839
997.7169, 1869.783
998.1990, 1865.384
998.6811, 1863.170
999.1632, 1863.031
999.6453, 1865.738
1000.127, 1876.222
1000.610, 1891.944
1001.092, 1901.600
1001.574, 1898.735
1002.056, 1893.815
1002.538, 1892.231
1003.020, 1892.782
1003.502, 1894.588
1003.984, 1899.979
1004.466, 1898.271
1004.949, 1887.190
1005.431, 1877.469
1005.913, 1884.783
1006.395, 1897.981
1006.877, 1888.814
1007.359, 1859.545
1007.841, 1845.638
1008.323, 1882.806
1008.806, 1916.501
1009.288, 1924.750
1009.770, 1913.961
1010.252, 1904.390
1010.734, 1896.045
1011.216, 1888.004
1011.698, 1878.007
1012.180, 1872.342
1012.662, 1883.062
1013.145, 1900.374
1013.627, 1910.585
1014.109, 1906.649
1014.591, 1902.887
1015.073, 1898.717
1015.555, 1896.812
1016.037, 1901.632
1016.519, 1911.055
1017.002, 1914.521
1017.484, 1912.061
1017.966, 1906.985
1018.448, 1900.324
1018.930, 1892.572
1019.412, 1880.004
1019.894, 1866.246
1020.376, 1867.158
1020.858, 1886.763
1021.341, 1902.252
1021.823, 1907.819
1022.305, 1907.229
1022.787, 1903.459
1023.269, 1898.126
1023.751, 1893.559
1024.233, 1889.059
1024.715, 1889.149
1025.198, 1901.081
1025.680, 1911.116
1026.162, 1907.104
1026.644, 1890.023
1027.126, 1888.893
1027.608, 1903.050
1028.090, 1917.226
1028.572, 1922.192
1029.054, 1922.608
1029.536, 1921.678
1030.019, 1919.044
1030.501, 1912.764
1030.983, 1899.680
1031.465, 1890.909
1031.947, 1888.786
1032.429, 1890.729
1032.911, 1892.601
1033.393, 1895.813
1033.876, 1905.967
1034.358, 1926.969
1034.840, 1939.054
1035.322, 1925.260
1035.804, 1908.160
1036.286, 1900.479
1036.768, 1901.802
1037.250, 1902.516
1037.733, 1902.608
1038.215, 1905.208
1038.697, 1914.461
1039.179, 1924.618
1039.661, 1932.440
1040.143, 1936.754
1040.625, 1934.821
1041.107, 1920.941
1041.589, 1909.927
1042.072, 1902.161
1042.554, 1899.083
1043.036, 1904.341
1043.518, 1915.519
1044.000, 1928.390
1044.482, 1942.486
1044.964, 1950.000
1045.446, 1940.267
1045.928, 1929.380
1046.411, 1927.137
1046.893, 1931.291
1047.375, 1927.153
1047.857, 1914.304
1048.339, 1906.822
1048.821, 1911.964
1049.303, 1920.971
1049.785, 1922.235
1050.268, 1921.563
1050.750, 1928.004
1051.232, 1953.838
1051.714, 1967.153
1052.196, 1965.410
1052.678, 1955.914
1053.160, 1940.573
1053.642, 1922.803
1054.125, 1914.230
1054.607, 1914.408
1055.089, 1918.419
1055.571, 1932.072
1056.053, 1939.776
1056.535, 1929.906
1057.017, 1910.939
1057.499, 1898.521
1057.981, 1892.401
1058.464, 1904.458
1058.946, 1942.126
1059.428, 1976.566
1059.910, 1972.122
1060.392, 1950.958
1060.874, 1935.269
1061.356, 1927.983
1061.838, 1931.988
1062.320, 1954.421
1062.803, 1970.286
1063.285, 1961.658
1063.767, 1940.581
1064.249, 1938.013
1064.731, 1949.893
1065.213, 1962.998
1065.695, 1976.658
1066.177, 1984.158
1066.660, 1978.345
1067.142, 1968.893
1067.624, 1966.020
1068.106, 1969.774
1068.588, 1976.235
1069.070, 1985.292
1069.552, 1990.337
1070.034, 1982.185
1070.516, 1970.827
1070.999, 1963.536
1071.481, 1960.854
1071.963, 1961.312
1072.445, 1966.940
1072.927, 1968.755
1073.409, 1962.938
1073.891, 1955.609
1074.373, 1959.292
1074.855, 1967.961
1075.338, 1969.634
1075.820, 1959.359
1076.302, 1949.903
1076.784, 1944.743
1077.266, 1940.648
1077.748, 1933.625
1078.230, 1925.552
1078.713, 1934.691
1079.195, 1958.438
1079.677, 1976.634
1080.159, 1974.219
1080.641, 1967.112
1081.123, 1960.638
1081.605, 1956.749
1082.087, 1958.866
1082.569, 1969.021
1083.052, 1975.861
1083.534, 1978.531
1084.016, 1977.706
1084.498, 1972.382
1084.980, 1964.952
1085.462, 1955.789
1085.944, 1945.691
1086.426, 1945.160
1086.908, 1963.315
1087.391, 1975.848
1087.873, 1974.865
1088.355, 1967.168
1088.837, 1964.219
1089.319, 1965.812
1089.801, 1973.485
1090.283, 1991.723
1090.765, 2000.875
1091.248, 1981.484
1091.730, 1960.269
1092.212, 1953.538
1092.694, 1960.509
1093.176, 1969.929
1093.658, 1981.423
1094.140, 1988.944
1094.622, 1987.140
1095.104, 1982.157
1095.587, 1977.120
1096.069, 1972.336
1096.551, 1967.736
1097.033, 1961.061
1097.515, 1963.783
1097.997, 1978.799
1098.479, 1992.183
1098.961, 1987.064
1099.443, 1974.734
1099.926, 1971.080
1100.408, 1975.798
1100.890, 1978.013
1101.372, 1972.150
1101.854, 1968.494
1102.336, 1969.431
1102.818, 1973.303
1103.300, 1979.311
1103.783, 1985.706
1104.265, 1986.584
1104.747, 1979.607
1105.229, 1974.531
1105.711, 1980.237
1106.193, 1984.859
1106.675, 1980.393
1107.157, 1969.063
1107.640, 1966.486
1108.122, 1972.211
1108.604, 1981.120
1109.086, 1995.210
1109.568, 2004.923
1110.050, 2000.163
1110.532, 1988.270
1111.014, 1977.991
1111.496, 1967.184
1111.979, 1967.450
1112.461, 1979.823
1112.943, 1995.167
1113.425, 2012.597
1113.907, 2024.151
1114.389, 2014.740
1114.871, 1990.315
1115.353, 1974.079
1115.835, 1971.594
1116.318, 1975.264
1116.800, 1986.443
1117.282, 1998.559
1117.764, 2002.990
1118.246, 2002.460
1118.728, 2004.889
1119.210, 2011.137
1119.692, 2008.539
1120.175, 1976.733
1120.657, 1954.095
1121.139, 1955.418
1121.621, 1972.738
1122.103, 1988.274
1122.585, 2000.963
1123.067, 2004.296
1123.549, 1993.313
1124.031, 1983.668
1124.514, 1985.395
1124.996, 1972.958
1125.478, 1994.030
1125.960, 2006.216
1126.442, 2009.993
1126.924, 1980.180
1127.406, 1993.742
1127.888, 1989.922
1128.370, 1985.388
1128.853, 2005.057
1129.335, 1980.129
1129.817, 1999.413
1130.299, 2001.048
1130.781, 2010.761
1131.263, 2002.983
1131.745, 2000.607
1132.227, 2015.728
1132.710, 2021.162
1133.192, 2011.371
1133.674, 2021.597
1134.156, 1996.058
1134.638, 2001.903
1135.120, 2021.289
1135.602, 2012.377
1136.084, 2022.923
1136.567, 2026.060
1137.049, 1995.517
1137.531, 2023.544
1138.013, 2026.241
1138.495, 2002.930
1138.977, 2005.112
1139.459, 2003.826
1139.941, 2017.224
1140.423, 2035.871
1140.906, 2031.860
1141.388, 2012.329
1141.870, 2003.959
1142.352, 2016.260
1142.834, 2028.664
1143.316, 2033.541
1143.798, 2033.060
1144.280, 2027.797
1144.762, 2018.488
1145.245, 2007.862
1145.727, 1996.940
1146.209, 1995.940
1146.691, 2017.686
1147.173, 2037.108
1147.655, 2033.003
1148.137, 2021.168
1148.619, 2021.980
1149.102, 2039.732
1149.584, 2039.965
1150.066, 2021.955
1150.548, 2003.722
1151.030, 1993.802
1151.512, 1992.094
1151.994, 2003.213
1152.476, 2021.696
1152.958, 2035.027
1153.441, 2043.296
1153.923, 2042.877
1154.405, 2031.583
1154.887, 2022.628
1155.369, 2033.756
1155.851, 2050.891
1156.333, 2058.425
1156.815, 2056.194
1157.297, 2049.639
1157.780, 2036.900
1158.262, 2027.575
1158.744, 2024.617
1159.226, 2022.777
1159.708, 2010.585
1160.190, 1996.374
1160.672, 1996.045
1161.154, 2012.853
1161.637, 2024.502
1162.119, 2024.273
1162.601, 2023.876
1163.083, 2027.665
1163.565, 2032.940
1164.047, 2032.697
1164.529, 2029.628
1165.011, 2031.021
1165.494, 2041.782
1165.976, 2046.199
1166.458, 2036.013
1166.940, 2024.404
1167.422, 2017.431
1167.904, 2014.428
1168.386, 2013.397
1168.868, 2014.169
1169.350, 2016.587
1169.833, 2024.320
1170.315, 2027.190
1170.797, 2014.603
1171.279, 2002.540
1171.761, 2003.773
1172.243, 2017.235
1172.725, 2033.530
1173.207, 2051.192
1173.689, 2059.358
1174.172, 2038.473
1174.654, 2022.209
1175.136, 2030.687
1175.618, 2049.169
1176.100, 2062.011
1176.582, 2069.406
1177.064, 2074.447
1177.546, 2077.383
1178.029, 2078.575
1178.511, 2080.364
1178.993, 2078.396
1179.475, 2065.240
1179.957, 2047.992
1180.439, 2041.996
1180.921, 2047.551
1181.403, 2052.210
1181.885, 2054.389
1182.368, 2054.289
1182.850, 2045.124
1183.332, 2039.787
1183.814, 2054.488
1184.296, 2082.292
1184.778, 2091.679
1185.260, 2081.604
1185.742, 2067.394
1186.224, 2051.173
1186.707, 2039.080
1187.189, 2039.806
1187.671, 2045.408
1188.153, 2047.661
1188.635, 2046.431
1189.117, 2054.033
1189.599, 2072.208
1190.081, 2083.789
1190.564, 2082.227
1191.046, 2073.456
1191.528, 2056.953
1192.010, 2040.706
1192.492, 2035.840
1192.974, 2045.215
1193.456, 2048.991
1193.938, 2046.317
1194.421, 2043.594
1194.903, 2042.086
1195.385, 2044.605
1195.867, 2059.176
1196.349, 2078.057
1196.831, 2089.514
1197.313, 2091.166
1197.795, 2087.424
1198.277, 2076.908
1198.760, 2068.292
1199.242, 2069.617
1199.724, 2073.625
1200.206, 2071.410
1200.688, 2064.884
1201.170, 2057.996
1201.652, 2050.253
1202.134, 2043.546
1202.616, 2036.756
1203.099, 2036.174
1203.581, 2052.591
1204.063, 2074.114
1204.545, 2088.386
1205.027, 2094.402
1205.509, 2087.833
1205.991, 2059.725
1206.473, 2042.164
1206.956, 2038.223
1207.438, 2042.736
1207.920, 2059.629
1208.402, 2075.938
1208.884, 2069.110
1209.366, 2044.277
1209.848, 2034.365
1210.330, 2048.536
1210.813, 2062.199
1211.295, 2072.693
1211.777, 2078.500
1212.259, 2071.911
1212.741, 2062.991
1213.223, 2068.081
1213.705, 2086.495
1214.187, 2095.379
1214.669, 2088.535
1215.151, 2085.445
1215.634, 2091.691
1216.116, 2098.578
1216.598, 2089.312
1217.080, 2077.073
1217.562, 2083.437
1218.044, 2110.706
1218.526, 2125.839
1219.008, 2124.416
1219.491, 2116.396
1219.973, 2101.788
1220.455, 2088.751
1220.937, 2089.677
1221.419, 2099.130
1221.901, 2112.431
1222.383, 2130.073
1222.865, 2134.969
1223.348, 2123.030
1223.830, 2112.178
1224.312, 2109.996
1224.794, 2109.552
1225.276, 2098.190
1225.758, 2083.763
1226.240, 2078.093
1226.722, 2086.049
1227.204, 2088.810
1227.687, 2084.490
1228.169, 2083.269
1228.651, 2092.230
1229.133, 2102.215
1229.615, 2098.149
1230.097, 2087.903
1230.579, 2083.216
1231.061, 2087.047
1231.543, 2092.545
1232.026, 2101.234
1232.508, 2102.669
1232.990, 2085.153
1233.472, 2065.546
1233.954, 2067.726
1234.436, 2081.237
1234.918, 2090.213
1235.400, 2091.265
1235.883, 2094.037
1236.365, 2098.697
1236.847, 2103.781
1237.329, 2109.458
1237.811, 2113.896
1238.293, 2113.008
1238.775, 2110.403
1239.257, 2112.639
1239.740, 2121.599
1240.222, 2130.604
1240.704, 2140.229
1241.186, 2143.824
1241.668, 2130.380
1242.150, 2115.308
1242.632, 2114.586
1243.114, 2120.819
1243.596, 2119.773
1244.079, 2108.424
1244.561, 2104.355
1245.043, 2108.084
1245.525, 2117.296
1246.007, 2135.748
1246.489, 2153.801
1246.971, 2166.551
1247.453, 2172.649
1247.936, 2170.394
1248.418, 2159.215
1248.900, 2142.883
1249.382, 2121.747
1249.864, 2108.614
1250.346, 2121.329
1250.828, 2135.889
1251.310, 2133.980
1251.792, 2125.994
1252.275, 2130.549
1252.757, 2147.195
1253.239, 2155.606
1253.721, 2154.618
1254.203, 2149.647
1254.685, 2137.381
1255.167, 2130.194
1255.649, 2139.090
1256.131, 2153.153
1256.614, 2156.821
1257.096, 2151.180
1257.578, 2142.692
1258.060, 2132.354
1258.542, 2127.638
1259.024, 2139.067
1259.506, 2149.239
1259.988, 2151.572
1260.471, 2149.859
1260.953, 2149.335
1261.435, 2149.883
1261.917, 2149.956
1262.399, 2149.730
1262.881, 2154.797
1263.363, 2177.385
1263.845, 2191.901
1264.328, 2189.240
1264.810, 2180.102
1265.292, 2183.057
1265.774, 2191.700
1266.256, 2188.253
1266.738, 2171.837
1267.220, 2160.170
1267.702, 2161.760
1268.184, 2164.139
1268.667, 2166.085
1269.149, 2165.306
1269.631, 2153.124
1270.113, 2138.666
1270.595, 2139.636
1271.077, 2156.746
1271.559, 2166.189
1272.041, 2161.619
1272.523, 2161.178
1273.006, 2171.139
1273.488, 2178.236
1273.970, 2155.861
1274.452, 2127.241
1274.934, 2123.942
1275.416, 2146.771
1275.898, 2159.083
1276.380, 2157.566
1276.863, 2158.247
1277.345, 2165.534
1277.827, 2171.321
1278.309, 2164.539
1278.791, 2154.327
1279.273, 2149.420
##END=



