##NAMES=Hollandite
##RRUFFID=R060852
##IDEAL CHEMISTRY=Ba(Mn^4+^_6_Mn^3+^_2_)O_16_
##LOCALITY=Ultevis, Sorharas, Sweden
##OWNER=RRUFF
##SOURCE=Michael Scott
##DESCRIPTION=Black semi-metallic elongated prismatic crystals associated with purple fluorite
##STATUS=The identification of this mineral has been confirmed by X-ray diffraction and chemical analysis
##URL=rruff.info/R060852
##MEASURED CHEMISTRY=(Ba_0.71_Pb_0.12_Na_0.11_Sr_0.04_K_0.02_)_Σ=1_(Mn^4+^_5.85_Fe^3+^_1.23_Mn^3+^_0.58_Ti_0.28_Al_0.06_)_Σ=8_O_16_ ; trace amounts of Ca; Mn^4+^ and Mn^3+^ splitted by charge balance
177.9351, 5750.762
178.4172, 5718.512
178.8993, 5670.173
179.3814, 5630.251
179.8635, 5608.617
180.3457, 5598.846
180.8278, 5591.003
181.3099, 5582.244
181.7920, 5571.023
182.2741, 5552.434
182.7562, 5523.151
183.2384, 5494.973
183.7205, 5472.960
184.2026, 5454.100
184.6847, 5430.731
185.1668, 5398.169
185.6489, 5364.058
186.1311, 5349.135
186.6132, 5363.920
187.0953, 5369.375
187.5774, 5344.304
188.0595, 5302.345
188.5416, 5271.770
189.0238, 5264.441
189.5059, 5269.302
189.9880, 5264.198
190.4701, 5249.755
190.9522, 5228.350
191.4343, 5194.901
191.9165, 5155.446
192.3986, 5121.687
192.8807, 5097.588
193.3628, 5080.613
193.8449, 5065.754
194.3270, 5050.805
194.8092, 5042.644
195.2913, 5049.782
195.7734, 5064.635
196.2555, 5073.276
196.7376, 5072.087
197.2197, 5061.478
197.7019, 5037.934
198.1840, 4997.156
198.6661, 4963.175
199.1482, 4949.116
199.6303, 4945.746
200.1124, 4935.165
200.5946, 4910.681
201.0767, 4881.498
201.5588, 4864.396
202.0409, 4861.202
202.5230, 4855.391
203.0051, 4845.225
203.4873, 4828.908
203.9694, 4800.523
204.4515, 4756.096
204.9336, 4707.644
205.4157, 4674.194
205.8978, 4656.628
206.3800, 4639.511
206.8621, 4617.502
207.3442, 4594.026
207.8263, 4574.354
208.3084, 4559.729
208.7905, 4548.458
209.2727, 4539.898
209.7548, 4534.585
210.2369, 4526.227
210.7190, 4514.154
211.2011, 4498.099
211.6832, 4476.775
212.1654, 4449.639
212.6475, 4420.044
213.1296, 4389.167
213.6117, 4355.854
214.0938, 4335.493
214.5760, 4340.220
215.0581, 4354.660
215.5402, 4361.895
216.0223, 4359.134
216.5044, 4352.065
216.9865, 4346.972
217.4687, 4344.170
217.9508, 4335.317
218.4329, 4309.176
218.9150, 4282.692
219.3971, 4276.056
219.8792, 4291.211
220.3614, 4308.041
220.8435, 4308.461
221.3256, 4291.157
221.8077, 4273.046
222.2898, 4247.717
222.7719, 4226.346
223.2541, 4223.672
223.7362, 4238.576
224.2183, 4249.195
224.7004, 4236.405
225.1825, 4199.521
225.6646, 4170.661
226.1468, 4148.056
226.6289, 4134.382
227.1110, 4136.611
227.5931, 4151.884
228.0752, 4165.282
228.5573, 4166.347
229.0395, 4155.574
229.5216, 4144.591
230.0037, 4130.846
230.4858, 4119.251
230.9679, 4113.798
231.4500, 4112.980
231.9322, 4111.285
232.4143, 4104.695
232.8964, 4094.826
233.3785, 4091.618
233.8606, 4103.847
234.3427, 4112.078
234.8249, 4105.732
235.3070, 4090.405
235.7891, 4079.155
236.2712, 4079.203
236.7533, 4086.498
237.2354, 4085.601
237.7176, 4068.893
238.1997, 4054.455
238.6818, 4042.094
239.1639, 4034.896
239.6460, 4040.468
240.1281, 4063.028
240.6103, 4093.249
241.0924, 4108.438
241.5745, 4101.229
242.0566, 4089.233
242.5387, 4063.325
243.0208, 4037.542
243.5030, 4032.167
243.9851, 4053.155
244.4672, 4082.938
244.9493, 4090.499
245.4314, 4054.933
245.9135, 4032.401
246.3957, 4030.299
246.8778, 4036.397
247.3599, 4042.282
247.8420, 4045.584
248.3241, 4046.180
248.8062, 4043.030
249.2884, 4031.520
249.7705, 4029.947
250.2526, 4047.605
250.7347, 4066.452
251.2168, 4074.402
251.6989, 4071.357
252.1811, 4065.348
252.6632, 4064.512
253.1453, 4069.994
253.6274, 4073.658
254.1095, 4070.421
254.5916, 4070.192
255.0738, 4080.503
255.5559, 4097.996
256.0380, 4112.425
256.5201, 4114.332
257.0022, 4104.002
257.4843, 4105.215
257.9665, 4140.401
258.4486, 4164.548
258.9307, 4157.446
259.4128, 4132.942
259.8949, 4115.797
260.3770, 4122.022
260.8592, 4145.936
261.3413, 4159.902
261.8234, 4148.763
262.3055, 4148.734
262.7876, 4176.013
263.2697, 4213.822
263.7519, 4242.540
264.2340, 4253.422
264.7161, 4252.428
265.1982, 4251.567
265.6803, 4249.137
266.1624, 4250.801
266.6446, 4257.946
267.1267, 4268.741
267.6088, 4282.771
268.0909, 4299.901
268.5730, 4317.653
269.0551, 4333.400
269.5373, 4347.596
270.0194, 4357.707
270.5015, 4358.320
270.9836, 4358.051
271.4657, 4362.903
271.9478, 4372.985
272.4300, 4381.945
272.9121, 4383.324
273.3942, 4377.329
273.8763, 4371.058
274.3584, 4360.325
274.8405, 4355.564
275.3227, 4367.305
275.8048, 4391.463
276.2869, 4411.775
276.7690, 4412.780
277.2511, 4401.552
277.7332, 4404.070
278.2154, 4428.183
278.6975, 4450.451
279.1796, 4450.233
279.6617, 4437.157
280.1438, 4431.201
280.6259, 4414.492
281.1081, 4448.746
281.5902, 4467.386
282.0723, 4471.251
282.5544, 4416.088
283.0365, 4437.148
283.5186, 4427.661
284.0008, 4416.921
284.4829, 4448.708
284.9650, 4402.131
285.4471, 4433.244
285.9292, 4433.344
286.4113, 4447.639
286.8935, 4431.197
287.3756, 4397.528
287.8577, 4372.462
288.3398, 4348.111
288.8219, 4329.417
289.3040, 4321.459
289.7862, 4320.235
290.2683, 4318.776
290.7504, 4315.570
291.2325, 4309.504
291.7146, 4297.098
292.1967, 4275.245
292.6789, 4260.312
293.1610, 4262.058
293.6431, 4267.741
294.1252, 4265.168
294.6073, 4252.415
295.0894, 4233.028
295.5716, 4208.313
296.0537, 4175.752
296.5358, 4158.324
297.0179, 4170.042
297.5000, 4182.754
297.9821, 4179.548
298.4643, 4163.076
298.9464, 4145.255
299.4285, 4133.998
299.9106, 4129.174
300.3927, 4129.945
300.8748, 4145.348
301.3570, 4155.863
301.8391, 4153.850
302.3212, 4145.225
302.8033, 4140.392
303.2854, 4144.607
303.7675, 4150.909
304.2497, 4139.816
304.7318, 4092.830
305.2139, 4058.633
305.6960, 4047.986
306.1781, 4045.414
306.6602, 4037.240
307.1424, 4020.724
307.6245, 4004.192
308.1066, 3999.060
308.5887, 4007.872
309.0708, 4017.891
309.5529, 4037.237
310.0351, 4050.418
310.5172, 4049.329
310.9993, 4034.982
311.4814, 4013.124
311.9635, 3980.795
312.4456, 3941.835
312.9278, 3930.753
313.4099, 3971.780
313.8920, 4002.328
314.3741, 3985.716
314.8562, 3941.386
315.3383, 3901.573
315.8205, 3877.156
316.3026, 3866.808
316.7847, 3873.327
317.2668, 3900.364
317.7489, 3921.969
318.2310, 3924.782
318.7132, 3916.812
319.1953, 3908.795
319.6774, 3903.271
320.1595, 3893.894
320.6416, 3867.331
321.1237, 3830.323
321.6059, 3815.345
322.0880, 3838.956
322.5701, 3875.479
323.0522, 3888.229
323.5343, 3876.514
324.0164, 3862.967
324.4986, 3846.662
324.9807, 3835.079
325.4628, 3842.076
325.9449, 3869.589
326.4270, 3899.292
326.9091, 3914.765
327.3913, 3914.560
327.8734, 3912.976
328.3555, 3910.305
328.8376, 3906.086
329.3197, 3899.565
329.8018, 3891.267
330.2840, 3882.128
330.7661, 3872.461
331.2482, 3862.903
331.7303, 3856.288
332.2124, 3858.273
332.6945, 3856.395
333.1767, 3846.246
333.6588, 3832.795
334.1409, 3820.962
334.6230, 3812.575
335.1051, 3807.264
335.5873, 3804.838
336.0694, 3807.463
336.5515, 3808.207
337.0336, 3805.313
337.5157, 3802.291
337.9979, 3803.879
338.4800, 3808.211
338.9621, 3807.107
339.4442, 3790.477
339.9263, 3759.500
340.4084, 3738.787
340.8906, 3727.455
341.3727, 3728.848
341.8548, 3754.984
342.3369, 3790.989
342.8190, 3811.787
343.3011, 3802.984
343.7833, 3779.833
344.2654, 3767.382
344.7475, 3766.956
345.2296, 3768.893
345.7117, 3771.080
346.1938, 3773.241
346.6760, 3774.439
347.1581, 3774.049
347.6402, 3775.672
348.1223, 3784.787
348.6044, 3798.084
349.0865, 3804.587
349.5687, 3800.728
350.0508, 3793.347
350.5329, 3788.728
351.0150, 3786.658
351.4971, 3788.451
351.9792, 3796.850
352.4614, 3807.526
352.9435, 3817.388
353.4256, 3826.062
353.9077, 3834.053
354.3898, 3843.167
354.8719, 3851.884
355.3541, 3846.383
355.8362, 3809.618
356.3183, 3781.473
356.8004, 3779.205
357.2825, 3790.406
357.7646, 3797.100
358.2468, 3792.468
358.7289, 3781.709
359.2110, 3773.719
359.6931, 3766.547
360.1752, 3766.789
360.6573, 3777.691
361.1395, 3792.238
361.6216, 3810.811
362.1037, 3830.250
362.5858, 3841.413
363.0679, 3833.018
363.5500, 3806.472
364.0322, 3793.609
364.5143, 3808.510
364.9964, 3818.150
365.4785, 3803.603
365.9606, 3779.578
366.4427, 3768.055
366.9249, 3779.742
367.4070, 3802.640
367.8891, 3820.530
368.3712, 3833.508
368.8533, 3840.567
369.3354, 3837.709
369.8176, 3831.501
370.2997, 3826.576
370.7818, 3822.618
371.2639, 3826.867
371.7460, 3855.035
372.2281, 3891.726
372.7103, 3901.088
373.1924, 3874.049
373.6745, 3845.157
374.1566, 3846.230
374.6387, 3875.761
375.1208, 3897.896
375.6030, 3910.896
376.0851, 3916.391
376.5672, 3908.504
377.0493, 3893.302
377.5314, 3888.580
378.0135, 3904.528
378.4957, 3932.157
378.9778, 3947.048
379.4599, 3930.844
379.9420, 3925.130
380.4241, 3940.977
380.9063, 3960.881
381.3884, 3970.584
381.8705, 3967.546
382.3526, 3956.515
382.8347, 3940.125
383.3168, 3916.517
383.7990, 3906.327
384.2811, 3928.188
384.7632, 3944.598
385.2453, 3938.238
385.7274, 3919.600
386.2095, 3907.682
386.6917, 3912.866
387.1738, 3927.335
387.6559, 3938.279
388.1380, 3946.994
388.6201, 3945.306
389.1022, 3919.793
389.5844, 3890.197
390.0665, 3872.108
390.5486, 3866.628
391.0307, 3873.922
391.5128, 3905.031
391.9949, 3947.635
392.4771, 3972.440
392.9592, 3973.802
393.4413, 3967.325
393.9234, 3965.151
394.4055, 3966.578
394.8876, 3964.325
395.3698, 3946.527
395.8519, 3935.890
396.3340, 3951.146
396.8161, 3983.946
397.2982, 4013.555
397.7803, 4030.682
398.2625, 4039.240
398.7446, 4048.297
399.2267, 4066.539
399.7088, 4070.536
400.1909, 4046.141
400.6730, 4018.452
401.1552, 4007.385
401.6373, 4012.927
402.1194, 4020.308
402.6015, 4015.481
403.0836, 3999.260
403.5657, 3989.632
404.0479, 3987.172
404.5300, 3991.287
405.0121, 4008.803
405.4942, 4029.618
405.9763, 4040.700
406.4584, 4037.265
406.9406, 4025.330
407.4227, 4009.279
407.9048, 3989.257
408.3869, 3975.043
408.8690, 3967.897
409.3511, 3968.797
409.8333, 3983.016
410.3154, 4008.961
410.7975, 4026.734
411.2796, 3997.107
411.7617, 4033.006
412.2438, 4053.291
412.7260, 4058.801
413.2081, 4005.283
413.6902, 4027.987
414.1723, 4020.144
414.6544, 4011.049
415.1365, 4044.481
415.6187, 3999.549
416.1008, 4032.306
416.5829, 4034.052
417.0650, 4049.990
417.5471, 4035.194
418.0292, 4029.891
418.5114, 4055.332
418.9935, 4063.750
419.4756, 4045.416
419.9577, 4062.257
420.4398, 4016.250
420.9219, 4025.393
421.4041, 4058.331
421.8862, 4041.542
422.3683, 4031.488
422.8504, 4026.018
423.3325, 4018.960
423.8146, 4010.041
424.2968, 4001.591
424.7789, 3995.051
425.2610, 3988.481
425.7431, 3977.067
426.2252, 3960.841
426.7073, 3953.522
427.1895, 3969.817
427.6716, 3995.995
428.1537, 4009.464
428.6358, 4008.364
429.1179, 4004.068
429.6000, 4003.541
430.0822, 4006.243
430.5643, 4008.864
431.0464, 4009.871
431.5285, 4012.631
432.0106, 4020.338
432.4927, 4029.464
432.9749, 4036.325
433.4570, 4039.603
433.9391, 4038.122
434.4212, 4028.009
434.9033, 4003.799
435.3854, 3997.418
435.8676, 4035.691
436.3497, 4064.509
436.8318, 4053.450
437.3139, 4021.113
437.7960, 4003.908
438.2781, 4021.965
438.7603, 4057.684
439.2424, 4077.225
439.7245, 4077.563
440.2066, 4085.104
440.6887, 4116.307
441.1708, 4147.923
441.6530, 4154.428
442.1351, 4136.402
442.6172, 4123.410
443.0993, 4131.801
443.5814, 4150.498
444.0635, 4166.080
444.5457, 4177.568
445.0278, 4184.982
445.5099, 4186.102
445.9920, 4184.039
446.4741, 4164.126
446.9562, 4204.357
447.4384, 4228.974
447.9205, 4238.815
448.4026, 4189.628
448.8847, 4216.665
449.3668, 4213.153
449.8489, 4208.390
450.3311, 4246.155
450.8132, 4205.553
451.2953, 4242.643
451.7774, 4248.719
452.2595, 4268.989
452.7416, 4258.524
453.2238, 4257.554
453.7059, 4287.327
454.1880, 4300.076
454.6701, 4286.073
455.1522, 4307.246
455.6343, 4265.571
456.1165, 4279.046
456.5986, 4316.315
457.0807, 4291.812
457.5628, 4284.833
458.0449, 4270.579
458.5270, 4262.739
459.0092, 4268.568
459.4913, 4277.833
459.9734, 4282.022
460.4555, 4282.864
460.9376, 4287.808
461.4197, 4300.854
461.9019, 4316.697
462.3840, 4323.329
462.8661, 4312.572
463.3482, 4307.573
463.8303, 4312.241
464.3124, 4319.013
464.7946, 4325.150
465.2767, 4329.356
465.7588, 4328.731
466.2409, 4318.668
466.7230, 4305.194
467.2051, 4312.211
467.6873, 4350.130
468.1694, 4377.409
468.6515, 4373.795
469.1336, 4358.458
469.6157, 4345.051
470.0978, 4334.839
470.5800, 4329.993
471.0621, 4337.482
471.5442, 4349.096
472.0263, 4348.223
472.5084, 4333.416
472.9905, 4321.283
473.4727, 4324.903
473.9548, 4340.189
474.4369, 4344.120
474.9190, 4330.658
475.4011, 4315.760
475.8832, 4295.861
476.3654, 4279.501
476.8475, 4276.837
477.3296, 4288.994
477.8117, 4309.248
478.2938, 4333.113
478.7759, 4360.634
479.2581, 4374.986
479.7402, 4370.528
480.2223, 4360.320
480.7044, 4344.866
481.1865, 4328.328
481.6686, 4315.390
482.1508, 4307.312
482.6329, 4303.481
483.1150, 4303.762
483.5971, 4307.968
484.0792, 4316.667
484.5613, 4331.312
485.0435, 4344.809
485.5256, 4350.625
486.0077, 4349.109
486.4898, 4348.989
486.9719, 4345.436
487.4540, 4348.524
487.9362, 4369.530
488.4183, 4397.924
488.9004, 4415.695
489.3825, 4417.522
489.8646, 4414.232
490.3467, 4422.427
490.8289, 4447.547
491.3110, 4455.465
491.7931, 4424.405
492.2752, 4398.355
492.7573, 4395.738
493.2394, 4406.173
493.7216, 4412.284
494.2037, 4407.485
494.6858, 4396.462
495.1679, 4379.692
495.6500, 4359.095
496.1321, 4353.522
496.6143, 4371.553
497.0964, 4394.455
497.5785, 4405.158
498.0606, 4404.388
498.5427, 4398.629
499.0248, 4379.458
499.5070, 4364.412
499.9891, 4368.735
500.4712, 4383.459
500.9533, 4392.169
501.4355, 4388.690
501.9176, 4373.904
502.3997, 4345.234
502.8818, 4291.410
503.3639, 4265.866
503.8460, 4299.389
504.3282, 4331.213
504.8103, 4336.925
505.2924, 4326.068
505.7745, 4317.998
506.2566, 4321.578
506.7387, 4328.139
507.2209, 4324.471
507.7030, 4312.092
508.1851, 4307.437
508.6672, 4316.844
509.1493, 4328.708
509.6314, 4332.460
510.1136, 4328.297
510.5957, 4318.543
511.0778, 4295.051
511.5599, 4274.264
512.0420, 4262.479
512.5241, 4260.294
513.0062, 4273.358
513.4883, 4303.081
513.9705, 4332.433
514.4526, 4333.279
514.9347, 4297.697
515.4168, 4267.970
515.8989, 4241.646
516.3810, 4224.660
516.8632, 4223.702
517.3453, 4232.566
517.8274, 4241.949
518.3095, 4249.605
518.7916, 4252.833
519.2737, 4245.533
519.7559, 4230.181
520.2380, 4218.941
520.7201, 4214.206
521.2022, 4214.330
521.6843, 4220.439
522.1664, 4232.154
522.6486, 4234.633
523.1307, 4221.904
523.6128, 4206.705
524.0949, 4189.390
524.5770, 4174.272
525.0591, 4170.307
525.5413, 4178.898
526.0234, 4187.406
526.5055, 4177.226
526.9876, 4146.090
527.4697, 4131.531
527.9518, 4146.012
528.4340, 4159.190
528.9161, 4157.364
529.3982, 4148.266
529.8803, 4142.029
530.3624, 4141.149
530.8445, 4142.506
531.3267, 4148.786
531.8088, 4154.832
532.2909, 4144.483
532.7730, 4114.925
533.2551, 4089.635
533.7372, 4089.083
534.2194, 4109.502
534.7015, 4116.633
535.1836, 4091.902
535.6657, 4078.904
536.1478, 4092.261
536.6299, 4115.233
537.1121, 4132.806
537.5942, 4142.531
538.0763, 4149.903
538.5584, 4159.315
539.0405, 4170.473
539.5226, 4181.424
540.0048, 4190.883
540.4869, 4204.951
540.9690, 4235.836
541.4511, 4265.920
541.9332, 4269.407
542.4153, 4240.933
542.8975, 4220.674
543.3796, 4225.474
543.8617, 4244.429
544.3438, 4277.377
544.8259, 4288.969
545.3080, 4332.469
545.7902, 4360.357
546.2723, 4373.468
546.7544, 4327.552
547.2365, 4357.858
547.7186, 4357.617
548.2007, 4356.123
548.6829, 4397.159
549.1650, 4359.827
549.6471, 4400.187
550.1292, 4409.534
550.6113, 4433.075
551.0934, 4425.879
551.5756, 4428.180
552.0577, 4461.223
552.5398, 4477.243
553.0219, 4458.254
553.5040, 4486.558
553.9861, 4516.489
554.4683, 4548.621
554.9504, 4566.532
555.4325, 4551.080
555.9146, 4542.083
556.3967, 4559.817
556.8788, 4593.151
557.3610, 4626.675
557.8431, 4655.174
558.3252, 4681.100
558.8073, 4706.308
559.2894, 4730.759
559.7715, 4759.839
560.2537, 4796.307
560.7358, 4832.083
561.2179, 4862.014
561.7000, 4889.422
562.1821, 4918.821
562.6642, 4951.195
563.1464, 4983.770
563.6285, 5016.832
564.1106, 5048.297
564.5927, 5070.967
565.0748, 5086.606
565.5569, 5111.272
566.0391, 5157.421
566.5212, 5217.585
567.0033, 5263.787
567.4854, 5286.205
567.9675, 5312.030
568.4496, 5342.873
568.9318, 5377.340
569.4139, 5410.483
569.8960, 5445.888
570.3781, 5496.878
570.8602, 5580.972
571.3423, 5670.622
571.8245, 5722.538
572.3066, 5741.930
572.7887, 5766.773
573.2708, 5808.277
573.7529, 5857.214
574.2350, 5903.987
574.7172, 5948.085
575.1993, 5993.354
575.6814, 6037.638
576.1635, 6085.549
576.6456, 6145.947
577.1277, 6207.544
577.6099, 6255.071
578.0920, 6284.828
578.5741, 6308.878
579.0562, 6344.221
579.5383, 6387.616
580.0204, 6409.006
580.5026, 6402.176
580.9847, 6394.183
581.4668, 6400.264
581.9489, 6411.252
582.4310, 6409.662
582.9132, 6391.022
583.3953, 6376.526
583.8774, 6378.853
584.3596, 6382.670
584.8417, 6380.036
585.3238, 6366.996
585.8059, 6332.239
586.2880, 6268.164
586.7701, 6192.034
587.2523, 6145.193
587.7344, 6138.439
588.2165, 6117.631
588.6986, 6074.842
589.1807, 6021.171
589.6628, 5954.410
590.1450, 5883.006
590.6271, 5827.243
591.1092, 5803.840
591.5913, 5776.980
592.0734, 5712.396
592.5555, 5629.744
593.0377, 5566.124
593.5198, 5527.335
594.0019, 5495.684
594.4840, 5456.713
594.9661, 5411.385
595.4482, 5368.590
595.9304, 5329.363
596.4125, 5290.489
596.8946, 5249.489
597.3767, 5210.049
597.8588, 5175.482
598.3409, 5145.163
598.8231, 5116.175
599.3052, 5088.173
599.7873, 5059.571
600.2694, 5026.937
600.7515, 4991.356
601.2336, 4956.108
601.7158, 4921.168
602.1979, 4893.874
602.6800, 4887.113
603.1621, 4906.354
603.6442, 4899.535
604.1263, 4836.106
604.6085, 4785.416
605.0906, 4774.300
605.5727, 4781.464
606.0548, 4785.305
606.5369, 4780.112
607.0190, 4767.729
607.5012, 4744.544
607.9833, 4716.069
608.4654, 4700.248
608.9475, 4697.887
609.4296, 4690.161
609.9117, 4664.391
610.3939, 4635.367
610.8760, 4631.495
611.3581, 4666.050
611.8402, 4683.236
612.3223, 4673.636
612.8044, 4654.654
613.2866, 4629.955
613.7687, 4603.519
614.2508, 4579.782
614.7329, 4560.424
615.2150, 4546.419
615.6971, 4540.729
616.1793, 4542.234
616.6614, 4541.924
617.1435, 4538.173
617.6256, 4538.537
618.1077, 4552.195
618.5898, 4570.328
619.0720, 4569.464
619.5541, 4541.325
620.0362, 4517.138
620.5183, 4504.379
621.0004, 4495.120
621.4825, 4482.204
621.9647, 4468.040
622.4468, 4459.996
622.9289, 4461.870
623.4110, 4469.554
623.8931, 4478.938
624.3752, 4489.974
624.8574, 4493.633
625.3395, 4489.019
625.8216, 4476.392
626.3037, 4446.008
626.7858, 4409.148
627.2679, 4400.646
627.7501, 4443.930
628.2322, 4473.477
628.7143, 4464.238
629.1964, 4439.845
629.6785, 4413.744
630.1606, 4392.354
630.6428, 4388.511
631.1249, 4412.600
631.6070, 4445.849
632.0891, 4443.906
632.5712, 4402.896
633.0533, 4377.145
633.5355, 4376.366
634.0176, 4387.687
634.4997, 4412.565
634.9818, 4442.313
635.4639, 4447.919
635.9460, 4406.906
636.4282, 4372.224
636.9103, 4361.619
637.3924, 4365.358
637.8745, 4383.191
638.3566, 4407.391
638.8387, 4413.126
639.3209, 4380.049
639.8030, 4329.269
640.2851, 4315.959
640.7672, 4345.365
641.2493, 4363.568
641.7314, 4355.584
642.2136, 4345.179
642.6957, 4357.349
643.1778, 4383.617
643.6599, 4392.207
644.1420, 4364.239
644.6241, 4340.090
645.1063, 4335.524
645.5884, 4340.314
646.0705, 4345.024
646.5526, 4320.054
647.0347, 4356.676
647.5168, 4377.685
647.9990, 4383.918
648.4811, 4331.124
648.9632, 4354.551
649.4453, 4347.433
649.9274, 4339.062
650.4095, 4373.217
650.8917, 4329.009
651.3738, 4362.490
651.8559, 4364.959
652.3380, 4381.622
652.8201, 4367.549
653.3022, 4355.781
653.7844, 4356.819
654.2665, 4367.250
654.7486, 4383.239
655.2307, 4389.663
655.7128, 4373.258
656.1949, 4348.490
656.6771, 4349.237
657.1592, 4376.405
657.6413, 4402.074
658.1234, 4423.859
658.6055, 4437.204
659.0876, 4436.580
659.5698, 4423.370
660.0519, 4409.827
660.5340, 4388.463
661.0161, 4376.649
661.4982, 4388.365
661.9803, 4403.666
662.4625, 4404.692
662.9446, 4392.107
663.4267, 4375.339
663.9088, 4358.090
664.3909, 4344.940
664.8730, 4347.160
665.3552, 4363.204
665.8373, 4372.991
666.3194, 4371.775
666.8015, 4369.931
667.2836, 4375.723
667.7657, 4387.640
668.2479, 4397.227
668.7300, 4407.497
669.2121, 4411.403
669.6942, 4401.588
670.1763, 4390.849
670.6584, 4391.998
671.1406, 4400.156
671.6227, 4397.957
672.1048, 4372.781
672.5869, 4349.139
673.0690, 4369.122
673.5511, 4417.740
674.0333, 4433.592
674.5154, 4407.048
674.9975, 4372.526
675.4796, 4350.667
675.9617, 4341.058
676.4438, 4343.299
676.9260, 4378.972
677.4081, 4390.013
677.8902, 4351.591
678.3723, 4314.992
678.8544, 4311.860
679.3365, 4329.048
679.8187, 4337.065
680.3008, 4323.942
680.7829, 4310.494
681.2650, 4318.788
681.7471, 4336.621
682.2292, 4339.920
682.7114, 4328.088
683.1935, 4316.684
683.6756, 4314.878
684.1577, 4316.286
684.6398, 4305.027
685.1219, 4271.739
685.6041, 4256.686
686.0862, 4280.489
686.5683, 4296.790
687.0504, 4278.994
687.5325, 4246.227
688.0146, 4226.708
688.4968, 4226.665
688.9789, 4227.776
689.4610, 4219.204
689.9431, 4209.510
690.4252, 4211.848
690.9073, 4220.666
691.3895, 4216.875
691.8716, 4193.105
692.3537, 4164.201
692.8358, 4153.833
693.3179, 4161.999
693.8000, 4150.994
694.2822, 4110.524
694.7643, 4080.053
695.2464, 4080.166
695.7285, 4094.501
696.2106, 4100.447
696.6927, 4097.244
697.1749, 4096.445
697.6570, 4110.527
698.1391, 4115.902
698.6212, 4093.101
699.1033, 4057.396
699.5854, 4027.768
700.0676, 4009.582
700.5497, 4001.103
701.0318, 4005.486
701.5139, 4015.781
701.9960, 4011.500
702.4781, 3992.938
702.9603, 3979.825
703.4424, 3981.385
703.9245, 3977.303
704.4066, 3941.283
704.8887, 3873.975
705.3708, 3834.223
705.8530, 3849.338
706.3351, 3855.171
706.8172, 3834.814
707.2993, 3808.886
707.7814, 3794.774
708.2635, 3790.888
708.7457, 3784.731
709.2278, 3770.042
709.7099, 3751.639
710.1920, 3732.259
710.6741, 3713.167
711.1563, 3699.323
711.6384, 3690.605
712.1205, 3676.182
712.6026, 3646.411
713.0847, 3610.638
713.5668, 3600.721
714.0490, 3629.793
714.5311, 3640.241
715.0132, 3615.998
715.4953, 3587.965
715.9774, 3574.800
716.4595, 3568.994
716.9417, 3556.131
717.4238, 3531.672
717.9059, 3509.124
718.3880, 3496.954
718.8701, 3485.565
719.3522, 3462.006
719.8344, 3433.104
720.3165, 3395.290
720.7986, 3417.323
721.2807, 3423.740
721.7628, 3415.383
722.2449, 3347.999
722.7271, 3356.832
723.2092, 3335.123
723.6913, 3312.162
724.1734, 3331.727
724.6555, 3272.927
725.1376, 3291.820
725.6198, 3279.695
726.1019, 3281.767
726.5840, 3253.105
727.0661, 3231.851
727.5482, 3244.110
728.0303, 3256.217
728.5125, 3241.427
728.9946, 3202.476
729.4767, 3173.006
729.9588, 3183.113
730.4409, 3198.426
730.9230, 3175.443
731.4052, 3131.433
731.8873, 3108.772
732.3694, 3114.125
732.8515, 3122.913
733.3336, 3115.563
733.8157, 3097.000
734.2979, 3086.135
734.7800, 3087.756
735.2621, 3075.074
735.7442, 3033.205
736.2263, 2994.023
736.7084, 2979.922
737.1906, 2983.555
737.6727, 2989.296
738.1548, 3001.366
738.6369, 3003.944
739.1190, 2988.194
739.6011, 2966.543
740.0833, 2943.218
740.5654, 2921.921
741.0475, 2909.880
741.5296, 2909.482
742.0117, 2908.978
742.4938, 2895.576
742.9760, 2873.374
743.4581, 2854.242
743.9402, 2837.685
744.4223, 2810.486
744.9044, 2765.140
745.3865, 2720.794
745.8687, 2703.810
746.3508, 2715.247
746.8329, 2721.306
747.3150, 2716.938
747.7971, 2715.504
748.2792, 2727.829
748.7614, 2737.756
749.2435, 2730.328
749.7256, 2708.227
750.2077, 2687.885
750.6898, 2673.408
751.1719, 2662.246
751.6541, 2656.191
752.1362, 2650.800
752.6183, 2637.919
753.1004, 2619.937
753.5825, 2609.861
754.0646, 2616.515
754.5468, 2626.405
755.0289, 2615.112
755.5110, 2586.208
755.9931, 2564.306
756.4752, 2552.001
756.9573, 2542.465
757.4395, 2532.984
757.9216, 2522.635
758.4037, 2509.713
758.8858, 2494.100
759.3679, 2476.304
759.8500, 2447.021
760.3322, 2426.807
760.8143, 2425.976
761.2964, 2434.119
761.7785, 2442.654
762.2606, 2449.973
762.7427, 2451.357
763.2249, 2441.726
763.7070, 2428.665
764.1891, 2414.898
764.6712, 2402.413
765.1533, 2397.835
765.6354, 2399.532
766.1176, 2393.319
766.5997, 2367.420
767.0818, 2330.715
767.5639, 2298.021
768.0460, 2270.149
768.5281, 2263.780
769.0103, 2284.962
769.4924, 2307.695
769.9745, 2316.438
770.4566, 2313.653
770.9387, 2304.855
771.4208, 2282.645
771.9030, 2271.906
772.3851, 2285.941
772.8672, 2296.040
773.3493, 2288.023
773.8314, 2272.367
774.3135, 2262.099
774.7957, 2259.220
775.2778, 2258.958
775.7599, 2268.367
776.2420, 2270.782
776.7241, 2242.266
777.2062, 2202.013
777.6884, 2184.890
778.1705, 2195.674
778.6526, 2212.259
779.1347, 2218.934
779.6168, 2217.155
780.0989, 2207.219
780.5811, 2190.034
781.0632, 2177.365
781.5453, 2171.229
782.0274, 2168.622
782.5095, 2167.950
782.9916, 2168.812
783.4738, 2170.847
783.9559, 2179.499
784.4380, 2176.149
784.9201, 2144.769
785.4022, 2119.998
785.8843, 2117.260
786.3665, 2126.804
786.8486, 2138.851
787.3307, 2152.720
787.8128, 2158.308
788.2949, 2141.490
788.7770, 2126.686
789.2592, 2135.654
789.7413, 2153.419
790.2234, 2158.074
790.7055, 2146.639
791.1876, 2129.250
791.6697, 2110.439
792.1519, 2094.179
792.6340, 2090.188
793.1161, 2094.890
793.5982, 2091.374
794.0803, 2077.212
794.5624, 2064.464
795.0446, 2060.794
795.5267, 2063.324
796.0088, 2067.176
796.4909, 2076.086
796.9730, 2070.031
797.4551, 2040.883
797.9373, 2010.798
798.4194, 1981.339
798.9015, 1960.877
799.3836, 1966.027
799.8657, 1999.162
800.3478, 2016.917
800.8300, 2003.618
801.3121, 1986.259
801.7942, 1968.120
802.2763, 1955.507
802.7584, 1956.390
803.2405, 1969.093
803.7227, 1985.345
804.2048, 2003.638
804.6869, 2017.599
805.1690, 2022.518
805.6511, 2018.237
806.1332, 1996.627
806.6154, 1963.053
807.0975, 1945.819
807.5796, 1959.392
808.0617, 1985.463
808.5438, 1996.914
809.0259, 1994.405
809.5081, 1990.580
809.9902, 1985.302
810.4723, 1979.303
810.9544, 1972.432
811.4365, 1965.644
811.9186, 1959.776
812.4008, 1954.863
812.8829, 1952.495
813.3650, 1956.430
813.8471, 1957.300
814.3292, 1950.589
814.8113, 1944.064
815.2935, 1944.726
815.7756, 1949.052
816.2577, 1947.753
816.7398, 1936.872
817.2219, 1926.958
817.7040, 1923.145
818.1862, 1921.430
818.6683, 1917.323
819.1504, 1913.208
819.6325, 1915.754
820.1146, 1925.866
820.5967, 1933.958
821.0789, 1929.211
821.5610, 1919.200
822.0431, 1920.470
822.5252, 1928.881
823.0073, 1924.390
823.4894, 1903.703
823.9716, 1889.647
824.4537, 1901.220
824.9358, 1926.977
825.4179, 1935.106
825.9000, 1923.260
826.3821, 1908.883
826.8643, 1888.651
827.3464, 1878.403
827.8285, 1890.780
828.3106, 1913.023
828.7927, 1924.824
829.2748, 1924.968
829.7570, 1920.090
830.2391, 1898.254
830.7212, 1859.089
831.2033, 1893.243
831.6854, 1911.784
832.1675, 1915.550
832.6497, 1860.287
833.1318, 1881.247
833.6139, 1871.661
834.0960, 1860.822
834.5781, 1892.510
835.0602, 1845.833
835.5424, 1876.846
836.0245, 1876.847
836.5066, 1891.042
836.9887, 1874.502
837.4708, 1867.454
837.9529, 1891.152
838.4351, 1897.826
838.9172, 1877.747
839.3993, 1892.844
839.8814, 1845.094
840.3635, 1852.493
840.8456, 1883.686
841.3278, 1865.153
841.8099, 1880.812
842.2920, 1883.449
842.7741, 1835.647
843.2562, 1830.979
843.7383, 1841.847
844.2205, 1852.495
844.7026, 1853.374
845.1847, 1849.746
845.6668, 1852.820
846.1489, 1866.833
846.6310, 1868.875
847.1132, 1845.394
847.5953, 1827.245
848.0774, 1825.514
848.5595, 1828.280
849.0416, 1820.576
849.5237, 1806.300
850.0059, 1808.593
850.4880, 1848.925
850.9701, 1880.177
851.4522, 1883.485
851.9343, 1872.396
852.4164, 1850.952
852.8986, 1826.001
853.3807, 1807.338
853.8628, 1798.067
854.3449, 1798.969
854.8270, 1819.025
855.3091, 1843.307
855.7913, 1852.708
856.2734, 1850.457
856.7555, 1843.170
857.2376, 1833.352
857.7197, 1826.306
858.2018, 1827.314
858.6840, 1829.032
859.1661, 1811.985
859.6482, 1779.651
860.1303, 1759.788
860.6124, 1754.977
861.0945, 1761.064
861.5767, 1778.061
862.0588, 1797.540
862.5409, 1807.320
863.0230, 1807.322
863.5051, 1799.065
863.9872, 1775.367
864.4694, 1763.919
864.9515, 1778.121
865.4336, 1796.496
865.9157, 1802.428
866.3978, 1797.642
866.8799, 1789.653
867.3621, 1774.625
867.8442, 1763.478
868.3263, 1753.320
868.8084, 1750.906
869.2905, 1764.833
869.7726, 1785.321
870.2548, 1804.264
870.7369, 1819.833
871.2190, 1816.907
871.7011, 1761.793
872.1832, 1720.806
872.6653, 1740.489
873.1475, 1783.120
873.6296, 1815.505
874.1117, 1831.252
874.5938, 1826.497
875.0759, 1796.648
875.5580, 1766.863
876.0402, 1762.193
876.5223, 1769.563
877.0044, 1769.140
877.4865, 1764.277
877.9686, 1772.564
878.4507, 1796.275
878.9329, 1808.542
879.4150, 1781.001
879.8971, 1706.581
880.3792, 1742.899
880.8613, 1763.604
881.3434, 1769.533
881.8256, 1716.434
882.3077, 1739.558
882.7898, 1732.135
883.2719, 1723.459
883.7540, 1757.311
884.2361, 1712.798
884.7183, 1745.975
885.2004, 1748.140
885.6825, 1764.498
886.1646, 1750.121
886.6467, 1745.237
887.1288, 1771.099
887.6110, 1779.936
888.0931, 1762.021
888.5752, 1779.282
889.0573, 1755.581
889.5394, 1741.627
890.0215, 1728.540
890.5037, 1723.723
890.9858, 1725.962
891.4679, 1737.621
891.9500, 1759.109
892.4321, 1769.204
892.9142, 1755.798
893.3964, 1742.905
893.8785, 1735.283
894.3606, 1732.526
894.8427, 1739.235
895.3248, 1749.544
895.8069, 1748.134
896.2891, 1727.896
896.7712, 1714.121
897.2533, 1728.903
897.7354, 1745.573
898.2175, 1742.077
898.6996, 1726.978
899.1818, 1708.755
899.6639, 1692.867
900.1460, 1692.999
900.6281, 1723.142
901.1102, 1757.541
901.5923, 1772.374
902.0745, 1771.754
902.5566, 1756.200
903.0387, 1731.733
903.5208, 1716.225
904.0029, 1716.113
904.4850, 1721.434
904.9672, 1721.680
905.4493, 1720.031
905.9314, 1728.253
906.4135, 1742.563
906.8956, 1740.689
907.3777, 1719.539
907.8599, 1699.370
908.3420, 1692.449
908.8241, 1695.094
909.3062, 1701.887
909.7883, 1712.745
910.2704, 1725.011
910.7526, 1739.787
911.2347, 1744.374
911.7169, 1732.822
912.1990, 1718.863
912.6811, 1716.309
913.1632, 1721.432
913.6453, 1716.487
914.1274, 1696.641
914.6096, 1683.627
915.0917, 1653.347
915.5738, 1689.215
916.0559, 1709.468
916.5380, 1714.947
917.0201, 1661.397
917.5023, 1684.071
917.9844, 1676.197
918.4665, 1667.071
918.9486, 1700.472
919.4307, 1655.508
919.9128, 1688.235
920.3950, 1689.949
920.8771, 1705.857
921.3592, 1691.029
921.8413, 1685.695
922.3234, 1711.106
922.8055, 1719.492
923.2877, 1701.127
923.7698, 1717.937
924.2519, 1671.900
924.7340, 1681.012
925.2161, 1713.918
925.6982, 1675.209
926.1804, 1683.511
926.6625, 1692.057
927.1446, 1694.114
927.6267, 1693.988
928.1088, 1694.424
928.5909, 1694.771
929.0731, 1693.769
929.5552, 1691.257
930.0373, 1687.867
930.5194, 1683.065
931.0015, 1678.823
931.4836, 1675.621
931.9658, 1674.458
932.4479, 1680.245
932.9300, 1688.363
933.4121, 1684.912
933.8942, 1666.608
934.3763, 1653.160
934.8585, 1666.761
935.3406, 1687.830
935.8227, 1691.751
936.3048, 1685.168
936.7869, 1680.168
937.2690, 1678.120
937.7512, 1675.276
938.2333, 1669.746
938.7154, 1664.059
939.1975, 1660.317
939.6796, 1659.003
940.1617, 1661.794
940.6439, 1668.025
941.1260, 1678.102
941.6081, 1690.688
942.0902, 1692.278
942.5723, 1671.626
943.0544, 1645.034
943.5366, 1643.853
944.0187, 1663.060
944.5008, 1677.934
944.9829, 1687.488
945.4650, 1692.785
945.9471, 1694.056
946.4293, 1693.443
946.9114, 1693.629
947.3935, 1692.055
947.8756, 1677.891
948.3577, 1651.192
948.8398, 1634.682
949.3220, 1630.472
949.8041, 1633.550
950.2862, 1642.429
950.7683, 1655.308
951.2504, 1671.012
951.7325, 1688.472
952.2147, 1699.749
952.6968, 1704.642
953.1789, 1704.192
953.6610, 1697.575
954.1431, 1688.680
954.6252, 1678.540
955.1074, 1669.638
955.5895, 1667.526
956.0716, 1672.760
956.5537, 1666.312
957.0358, 1640.722
957.5179, 1626.179
958.0001, 1631.890
958.4822, 1642.446
958.9643, 1648.012
959.4464, 1651.226
959.9285, 1659.272
960.4106, 1675.718
960.8928, 1678.778
961.3749, 1660.172
961.8570, 1643.786
962.3391, 1635.178
962.8212, 1630.601
963.3033, 1627.163
963.7855, 1625.397
964.2676, 1627.257
964.7497, 1633.630
965.2318, 1641.434
965.7139, 1658.822
966.1960, 1666.608
966.6782, 1643.789
967.1603, 1621.648
967.6424, 1641.583
968.1245, 1690.176
968.6066, 1697.100
969.0887, 1622.509
969.5709, 1577.190
970.0530, 1584.722
970.5351, 1600.628
971.0172, 1611.413
971.4993, 1619.492
971.9814, 1630.294
972.4636, 1642.505
972.9457, 1643.771
973.4278, 1615.366
973.9099, 1602.736
974.3920, 1633.391
974.8741, 1657.471
975.3563, 1637.944
975.8384, 1603.885
976.3205, 1598.129
976.8026, 1621.593
977.2847, 1631.226
977.7668, 1601.888
978.2490, 1581.753
978.7311, 1588.848
979.2132, 1601.231
979.6953, 1610.583
980.1774, 1613.270
980.6595, 1601.213
981.1417, 1574.036
981.6238, 1555.960
982.1059, 1559.474
982.5880, 1564.973
983.0701, 1562.779
983.5522, 1563.229
984.0344, 1575.944
984.5165, 1596.275
984.9986, 1590.110
985.4807, 1624.091
985.9628, 1642.458
986.4449, 1646.050
986.9271, 1590.614
987.4092, 1611.400
987.8913, 1601.640
988.3734, 1590.627
988.8555, 1622.142
989.3376, 1575.291
989.8198, 1606.131
990.3019, 1605.958
990.7840, 1619.979
991.2661, 1603.265
991.7482, 1596.044
992.2303, 1619.568
992.7125, 1626.068
993.1946, 1605.816
993.6767, 1620.739
994.1588, 1572.815
994.6409, 1580.040
995.1230, 1611.061
995.6052, 1592.353
996.0873, 1607.839
996.5694, 1610.302
997.0515, 1553.584
997.5336, 1599.787
998.0157, 1601.481
998.4979, 1557.472
998.9800, 1600.149
999.4621, 1562.441
999.9442, 1553.425
1000.426, 1566.004
1000.908, 1556.072
1001.391, 1595.916
1001.873, 1613.672
1002.355, 1616.652
1002.837, 1560.605
1003.319, 1580.781
1003.801, 1570.409
1004.283, 1558.785
1004.765, 1589.689
1005.247, 1542.227
1005.730, 1572.451
1006.212, 1571.667
1006.694, 1585.077
1007.176, 1567.752
1007.658, 1559.919
1008.140, 1582.832
1008.622, 1588.721
1009.104, 1567.858
1009.587, 1582.165
1010.069, 1533.630
1010.551, 1528.247
1011.033, 1527.622
1011.515, 1548.805
1011.997, 1564.630
1012.479, 1560.111
1012.961, 1550.499
1013.443, 1542.934
1013.926, 1536.108
1014.408, 1526.547
1014.890, 1516.178
1015.372, 1511.447
1015.854, 1514.959
1016.336, 1519.810
1016.818, 1526.880
1017.300, 1530.339
1017.783, 1521.495
1018.265, 1511.829
1018.747, 1515.993
1019.229, 1529.552
1019.711, 1537.352
1020.193, 1498.933
1020.675, 1532.196
1021.157, 1549.845
1021.639, 1552.719
1022.122, 1496.560
1022.604, 1516.628
1023.086, 1506.150
1023.568, 1494.419
1024.050, 1525.215
1024.532, 1477.647
1025.014, 1507.768
1025.496, 1506.878
1025.979, 1520.175
1026.461, 1502.743
1026.943, 1494.804
1027.425, 1517.610
1027.907, 1523.392
1028.389, 1502.421
1028.871, 1516.627
1029.353, 1467.984
1029.835, 1474.491
1030.318, 1504.788
1030.800, 1485.363
1031.282, 1500.130
1031.764, 1487.299
1032.246, 1514.647
1032.728, 1519.415
1033.210, 1490.001
1033.692, 1478.131
1034.174, 1507.725
1034.657, 1530.714
1035.139, 1536.038
1035.621, 1530.193
1036.103, 1506.057
1036.585, 1477.554
1037.067, 1478.448
1037.549, 1518.963
1038.031, 1535.194
1038.514, 1498.507
1038.996, 1476.621
1039.478, 1492.581
1039.960, 1510.997
1040.442, 1508.937
1040.924, 1497.539
1041.406, 1498.316
1041.888, 1513.554
1042.370, 1515.689
1042.853, 1490.065
1043.335, 1480.594
1043.817, 1507.482
1044.299, 1527.742
1044.781, 1513.850
1045.263, 1484.849
1045.745, 1467.887
1046.227, 1462.999
1046.709, 1468.913
1047.192, 1493.457
1047.674, 1505.798
1048.156, 1498.786
1048.638, 1488.727
1049.120, 1482.132
1049.602, 1478.342
1050.084, 1476.372
1050.566, 1476.412
1051.049, 1481.241
1051.531, 1493.099
1052.013, 1497.621
1052.495, 1493.031
1052.977, 1482.466
1053.459, 1465.058
1053.941, 1450.038
1054.423, 1447.951
1054.906, 1455.924
1055.388, 1463.869
1055.870, 1471.870
1056.352, 1475.236
1056.834, 1473.552
1057.316, 1468.419
1057.798, 1459.875
1058.280, 1454.439
1058.762, 1459.161
1059.245, 1467.351
1059.727, 1458.068
1060.209, 1435.991
1060.691, 1438.762
1061.173, 1464.947
1061.655, 1488.072
1062.137, 1500.848
1062.619, 1500.771
1063.101, 1484.420
1063.584, 1464.394
1064.066, 1463.026
1064.548, 1473.341
1065.030, 1475.865
1065.512, 1472.006
1065.994, 1469.014
1066.476, 1467.827
1066.958, 1463.329
1067.441, 1452.370
1067.923, 1443.503
1068.405, 1451.484
1068.887, 1463.832
1069.369, 1457.288
1069.851, 1441.466
1070.333, 1435.018
1070.815, 1439.152
1071.297, 1448.818
1071.780, 1461.889
1072.262, 1471.124
1072.744, 1470.248
1073.226, 1463.715
1073.708, 1452.254
1074.190, 1440.042
1074.672, 1431.717
1075.154, 1427.126
1075.636, 1423.943
1076.119, 1421.852
1076.601, 1424.559
1077.083, 1436.943
1077.565, 1450.328
1078.047, 1465.517
1078.529, 1474.556
1079.011, 1464.341
1079.494, 1447.170
1079.976, 1443.238
1080.458, 1453.009
1080.940, 1458.683
1081.422, 1453.100
1081.904, 1447.845
1082.386, 1447.709
1082.868, 1446.216
1083.350, 1435.500
1083.833, 1425.568
1084.315, 1430.120
1084.797, 1445.406
1085.279, 1452.299
1085.761, 1445.047
1086.243, 1441.505
1086.725, 1442.584
1087.207, 1446.502
1087.689, 1457.417
1088.172, 1464.869
1088.654, 1458.197
1089.136, 1445.090
1089.618, 1444.568
1090.100, 1459.396
1090.582, 1457.028
1091.064, 1429.601
1091.546, 1412.802
1092.029, 1413.028
1092.511, 1424.111
1092.993, 1446.134
1093.475, 1466.955
1093.957, 1467.874
1094.439, 1452.683
1094.921, 1443.998
1095.403, 1441.772
1095.885, 1439.657
1096.368, 1411.133
1096.850, 1447.085
1097.332, 1467.423
1097.814, 1472.987
1098.296, 1419.522
1098.778, 1442.279
1099.260, 1434.490
1099.742, 1425.448
1100.224, 1458.934
1100.707, 1414.055
1101.189, 1446.866
1101.671, 1448.665
1102.153, 1464.657
1102.635, 1449.914
1103.117, 1444.664
1103.599, 1470.159
1104.081, 1478.630
1104.564, 1460.350
1105.046, 1477.244
1105.528, 1431.291
1106.010, 1440.487
1106.492, 1473.478
1106.974, 1456.743
1107.456, 1474.199
1107.938, 1478.633
1108.421, 1423.887
1108.903, 1472.062
1109.385, 1475.726
1109.867, 1433.688
1110.349, 1442.218
1110.831, 1435.816
1111.313, 1426.529
1111.795, 1419.172
1112.277, 1415.593
1112.760, 1412.821
1113.242, 1405.067
1113.724, 1404.395
1114.206, 1427.992
1114.688, 1451.648
1115.170, 1445.431
1115.652, 1418.947
1116.134, 1411.108
1116.616, 1429.339
1117.099, 1441.373
1117.581, 1448.898
1118.063, 1444.017
1118.545, 1418.765
1119.027, 1397.636
1119.509, 1398.008
1119.991, 1409.242
1120.473, 1413.048
1120.956, 1410.396
1121.438, 1409.780
1121.920, 1381.463
1122.402, 1419.151
1122.884, 1441.225
1123.366, 1448.523
1123.848, 1396.794
1124.330, 1421.287
1124.813, 1415.238
1125.295, 1407.932
1125.777, 1443.153
1126.259, 1400.010
1126.741, 1434.556
1127.223, 1438.090
1127.705, 1455.817
1128.187, 1442.810
1128.669, 1439.295
1129.151, 1444.683
1129.634, 1446.184
1130.116, 1439.972
1130.598, 1432.789
1131.080, 1433.284
1131.562, 1434.531
1132.044, 1426.556
1132.526, 1412.197
1133.008, 1399.037
1133.491, 1388.792
1133.973, 1385.047
1134.455, 1392.920
1134.937, 1401.740
1135.419, 1410.265
1135.901, 1416.908
1136.383, 1421.657
1136.865, 1423.441
1137.348, 1420.315
1137.830, 1412.827
1138.312, 1403.141
1138.794, 1385.343
1139.276, 1382.776
1139.758, 1402.424
1140.240, 1419.959
1140.722, 1431.544
1141.204, 1431.938
1141.687, 1414.665
1142.169, 1390.906
1142.651, 1380.465
1143.133, 1382.093
1143.615, 1388.371
1144.097, 1398.357
1144.579, 1396.911
1145.061, 1383.472
1145.543, 1373.888
1146.026, 1374.138
1146.508, 1376.771
1146.990, 1374.359
1147.472, 1372.987
1147.954, 1387.764
1148.436, 1405.610
1148.918, 1397.847
1149.400, 1377.903
1149.883, 1379.124
1150.365, 1400.829
1150.847, 1415.584
1151.329, 1411.949
1151.811, 1404.188
1152.293, 1395.428
1152.775, 1391.087
1153.257, 1398.426
1153.740, 1407.527
1154.222, 1411.026
1154.704, 1409.701
1155.186, 1404.054
1155.668, 1394.396
1156.150, 1390.949
1156.632, 1402.704
1157.114, 1406.451
1157.596, 1398.567
1158.078, 1387.183
1158.561, 1368.722
1159.043, 1360.115
1159.525, 1379.951
1160.007, 1413.241
1160.489, 1424.297
1160.971, 1413.448
1161.453, 1404.799
1161.935, 1398.372
1162.418, 1392.161
1162.900, 1386.014
1163.382, 1383.961
1163.864, 1387.765
1164.346, 1392.265
1164.828, 1391.487
1165.310, 1390.574
1165.792, 1399.922
1166.275, 1413.692
1166.757, 1427.331
1167.239, 1434.699
1167.721, 1416.096
1168.203, 1377.838
1168.685, 1359.570
1169.167, 1380.460
1169.649, 1398.022
1170.131, 1381.572
1170.614, 1365.616
1171.096, 1369.636
1171.578, 1380.156
1172.060, 1390.099
1172.542, 1396.702
1173.024, 1393.977
1173.506, 1382.200
1173.988, 1380.482
1174.470, 1402.830
1174.953, 1401.785
1175.435, 1358.985
1175.917, 1339.119
1176.399, 1369.827
1176.881, 1401.499
1177.363, 1396.273
1177.845, 1371.792
1178.327, 1359.503
1178.810, 1358.171
1179.292, 1363.037
1179.774, 1372.437
1180.256, 1375.919
1180.738, 1372.805
1181.220, 1363.785
1181.702, 1350.848
1182.184, 1351.390
1182.667, 1384.378
1183.149, 1416.039
1183.631, 1403.767
1184.113, 1378.260
1184.595, 1370.671
1185.077, 1372.779
1185.559, 1370.395
1186.041, 1365.088
1186.523, 1368.661
1187.005, 1384.964
1187.488, 1391.981
1187.970, 1369.876
1188.452, 1359.737
1188.934, 1381.984
1189.416, 1402.698
1189.898, 1409.296
1190.380, 1405.602
1190.862, 1392.276
1191.345, 1373.813
1191.827, 1366.549
1192.309, 1372.120
1192.791, 1364.546
1193.273, 1343.173
1193.755, 1325.575
1194.237, 1315.069
1194.719, 1319.683
1195.202, 1343.198
1195.684, 1368.933
1196.166, 1380.887
1196.648, 1383.940
1197.130, 1380.611
1197.612, 1376.895
1198.094, 1388.935
1198.576, 1404.906
1199.058, 1397.772
1199.541, 1370.289
1200.023, 1346.976
1200.505, 1334.463
1200.987, 1336.074
1201.469, 1376.656
1201.951, 1398.230
1202.433, 1360.543
1202.915, 1320.630
1203.397, 1315.266
1203.880, 1325.653
1204.362, 1332.738
1204.844, 1337.078
1205.326, 1342.722
1205.808, 1352.426
1206.290, 1344.730
1206.772, 1317.419
1207.254, 1293.660
1207.737, 1277.782
1208.219, 1279.687
1208.701, 1305.022
1209.183, 1333.245
1209.665, 1341.055
1210.147, 1339.410
1210.629, 1349.807
1211.111, 1361.697
1211.594, 1351.776
1212.076, 1331.172
1212.558, 1325.882
1213.040, 1335.480
1213.522, 1338.193
1214.004, 1324.620
1214.486, 1322.538
1214.968, 1362.075
1215.450, 1386.916
1215.932, 1363.087
1216.415, 1336.682
1216.897, 1334.174
1217.379, 1342.512
1217.861, 1348.977
1218.343, 1353.939
1218.825, 1360.503
1219.307, 1370.334
1219.789, 1360.783
1220.272, 1330.605
1220.754, 1317.732
1221.236, 1328.379
1221.718, 1344.168
1222.200, 1356.665
1222.682, 1363.217
1223.164, 1358.654
1223.646, 1353.009
1224.129, 1363.658
1224.611, 1378.061
1225.093, 1378.609
1225.575, 1371.586
1226.057, 1370.155
1226.539, 1371.792
1227.021, 1361.011
1227.503, 1332.558
1227.985, 1315.838
1228.468, 1328.620
1228.950, 1336.776
1229.432, 1329.217
1229.914, 1325.076
1230.396, 1331.628
1230.878, 1344.179
1231.360, 1360.863
1231.842, 1377.074
1232.324, 1382.231
1232.807, 1376.818
1233.289, 1362.149
1233.771, 1340.476
1234.253, 1328.870
1234.735, 1326.591
1235.217, 1314.987
1235.699, 1290.432
1236.181, 1276.145
1236.664, 1291.193
1237.146, 1304.426
1237.628, 1281.521
1238.110, 1256.985
1238.592, 1256.724
1239.074, 1268.622
1239.556, 1287.887
1240.038, 1305.730
1240.521, 1302.902
1241.003, 1279.340
1241.485, 1274.948
1241.967, 1297.767
1242.449, 1319.415
1242.931, 1342.472
1243.413, 1350.352
1243.895, 1336.688
1244.377, 1323.318
1244.859, 1322.515
1245.342, 1332.958
1245.824, 1358.259
1246.306, 1385.139
1246.788, 1380.490
1247.270, 1361.985
1247.752, 1369.225
1248.234, 1387.140
1248.716, 1374.462
1249.199, 1335.914
1249.681, 1311.545
1250.163, 1313.974
1250.645, 1325.260
1251.127, 1349.221
1251.609, 1366.471
1252.091, 1368.599
1252.573, 1367.753
1253.056, 1367.483
1253.538, 1368.432
1254.020, 1372.214
1254.502, 1376.020
1254.984, 1372.765
1255.466, 1363.362
1255.948, 1355.053
1256.430, 1348.280
1256.912, 1347.622
1257.395, 1351.523
1257.877, 1347.926
1258.359, 1335.579
1258.841, 1331.504
1259.323, 1347.328
1259.805, 1363.385
1260.287, 1364.155
1260.769, 1362.181
1261.251, 1368.875
1261.734, 1372.556
1262.216, 1359.229
1262.698, 1338.979
1263.180, 1324.536
1263.662, 1317.466
1264.144, 1327.775
1264.626, 1361.906
1265.108, 1373.924
1265.591, 1361.559
1266.073, 1355.047
1266.555, 1359.375
1267.037, 1365.949
1267.519, 1370.874
1268.001, 1369.915
1268.483, 1356.769
1268.965, 1345.816
1269.448, 1361.966
1269.930, 1381.218
1270.412, 1374.722
1270.894, 1358.013
1271.376, 1351.863
1271.858, 1351.734
1272.340, 1345.317
1272.822, 1331.260
##END=



