##NAMES=Hollandite
##RRUFFID=R070539
##IDEAL CHEMISTRY=Ba(Mn^4+^_6_Mn^3+^_2_)O_16_
##LOCALITY=Tangen mine, Hurdalsjoen, Nannestad, Akershus, Norway
##OWNER=RRUFF
##SOURCE=James Shigley
##DESCRIPTION=Fibrous dark gray submetallic crystals
##STATUS=The identification of this mineral has been confirmed by X-ray diffraction and chemical analysis
##URL=rruff.info/R070539
##MEASURED CHEMISTRY=(Ba_0.94_[box]_0.06_)_Σ=1_(Mn^4+^_7.06_Mn^2+^_0.94_)_Σ=8_O_16_; Mn^4+^ and Mn^2+^ splitted by charge balance
148.3986, 2402.493
148.8807, 2461.581
149.3628, 2504.008
149.8449, 2526.403
150.3270, 2539.266
150.8091, 2564.200
151.2913, 2622.318
151.7734, 2653.783
152.2555, 2640.649
152.7376, 2610.726
153.2197, 2586.353
153.7018, 2575.906
154.1840, 2573.972
154.6661, 2569.414
155.1482, 2566.779
155.6303, 2553.540
156.1124, 2514.457
156.5945, 2471.793
157.0767, 2448.677
157.5588, 2454.243
158.0409, 2478.490
158.5230, 2496.724
159.0051, 2504.180
159.4872, 2510.840
159.9694, 2509.353
160.4515, 2499.239
160.9336, 2494.430
161.4157, 2506.269
161.8978, 2527.878
162.3799, 2540.700
162.8621, 2541.782
163.3442, 2537.660
163.8263, 2524.674
164.3084, 2508.466
164.7905, 2495.258
165.2726, 2487.800
165.7548, 2485.224
166.2369, 2485.326
166.7190, 2499.462
167.2011, 2502.879
167.6832, 2485.868
168.1653, 2459.314
168.6475, 2437.887
169.1296, 2428.097
169.6117, 2425.973
170.0938, 2420.138
170.5759, 2406.455
171.0580, 2394.688
171.5402, 2390.568
172.0223, 2388.289
172.5044, 2376.099
172.9865, 2347.123
173.4686, 2311.279
173.9507, 2299.186
174.4329, 2329.823
174.9150, 2354.069
175.3971, 2362.547
175.8792, 2358.647
176.3613, 2344.216
176.8434, 2317.581
177.3256, 2287.500
177.8077, 2280.802
178.2898, 2316.844
178.7719, 2341.663
179.2540, 2329.922
179.7361, 2299.859
180.2183, 2286.075
180.7004, 2304.762
181.1825, 2342.104
181.6646, 2362.106
182.1467, 2361.678
182.6288, 2355.644
183.1110, 2343.441
183.5931, 2328.850
184.0752, 2319.449
184.5573, 2319.020
185.0394, 2323.590
185.5215, 2323.803
186.0037, 2318.258
186.4858, 2312.956
186.9679, 2311.523
187.4500, 2311.427
187.9321, 2307.736
188.4142, 2298.490
188.8964, 2285.260
189.3785, 2269.250
189.8606, 2246.802
190.3427, 2231.368
190.8248, 2230.385
191.3069, 2238.923
191.7891, 2248.966
192.2712, 2259.333
192.7533, 2267.027
193.2354, 2265.100
193.7175, 2252.192
194.1996, 2238.878
194.6818, 2226.617
195.1639, 2216.328
195.6460, 2209.911
196.1281, 2208.211
196.6102, 2209.845
197.0923, 2213.699
197.5745, 2220.409
198.0566, 2225.481
198.5387, 2227.532
199.0208, 2227.119
199.5029, 2225.743
199.9850, 2224.389
200.4672, 2220.457
200.9493, 2207.250
201.4314, 2183.855
201.9135, 2165.142
202.3956, 2156.671
202.8777, 2154.990
203.3599, 2154.244
203.8420, 2152.755
204.3241, 2153.507
204.8062, 2163.655
205.2883, 2183.534
205.7704, 2196.575
206.2526, 2195.643
206.7347, 2186.411
207.2168, 2174.820
207.6989, 2160.843
208.1810, 2150.396
208.6631, 2155.372
209.1453, 2175.042
209.6274, 2183.683
210.1095, 2164.635
210.5916, 2136.554
211.0737, 2125.267
211.5558, 2135.844
212.0380, 2149.465
212.5201, 2145.560
213.0022, 2125.831
213.4843, 2112.557
213.9664, 2115.446
214.4485, 2123.164
214.9307, 2122.435
215.4128, 2111.728
215.8949, 2100.191
216.3770, 2094.033
216.8591, 2093.644
217.3412, 2099.632
217.8233, 2122.483
218.3055, 2145.052
218.7876, 2148.900
219.2697, 2133.586
219.7518, 2117.082
220.2339, 2112.699
220.7160, 2119.123
221.1982, 2123.115
221.6803, 2124.584
222.1624, 2123.299
222.6445, 2117.940
223.1266, 2108.951
223.6087, 2099.405
224.0909, 2089.639
224.5730, 2081.382
225.0551, 2080.198
225.5372, 2093.553
226.0193, 2106.984
226.5014, 2111.959
226.9836, 2109.752
227.4657, 2105.772
227.9478, 2102.215
228.4299, 2099.343
228.9120, 2097.939
229.3941, 2100.791
229.8763, 2101.510
230.3584, 2094.935
230.8405, 2083.758
231.3226, 2075.771
231.8047, 2075.252
232.2868, 2078.727
232.7690, 2076.112
233.2511, 2061.218
233.7332, 2052.396
234.2153, 2058.615
234.6974, 2074.396
235.1796, 2090.985
235.6617, 2105.994
236.1438, 2118.087
236.6259, 2124.220
237.1080, 2124.904
237.5901, 2120.129
238.0723, 2104.927
238.5544, 2085.949
239.0365, 2071.324
239.5186, 2063.309
240.0007, 2060.675
240.4828, 2063.111
240.9650, 2074.353
241.4471, 2078.592
241.9292, 2066.341
242.4113, 2051.135
242.8934, 2048.084
243.3755, 2059.359
243.8577, 2073.099
244.3398, 2075.898
244.8219, 2064.244
245.3040, 2055.329
245.7861, 2045.940
246.2682, 2041.408
246.7504, 2049.363
247.2325, 2068.098
247.7146, 2085.868
248.1967, 2092.409
248.6788, 2086.811
249.1609, 2078.458
249.6431, 2065.143
250.1252, 2051.576
250.6073, 2037.512
251.0894, 2024.680
251.5715, 2017.794
252.0536, 2021.179
252.5358, 2033.750
253.0179, 2039.283
253.5000, 2028.381
253.9821, 2021.730
254.4642, 2031.508
254.9463, 2048.703
255.4285, 2055.497
255.9106, 2041.426
256.3927, 2014.121
256.8748, 2002.522
257.3569, 2025.706
257.8391, 2043.150
258.3212, 2048.725
258.8033, 2047.835
259.2854, 2046.271
259.7675, 2046.339
260.2496, 2047.264
260.7318, 2047.428
261.2139, 2046.192
261.6960, 2045.182
262.1781, 2046.496
262.6602, 2046.778
263.1423, 2040.225
263.6245, 2026.984
264.1066, 2016.108
264.5887, 2022.074
265.0708, 2055.839
265.5529, 2075.354
266.0350, 2071.985
266.5172, 2063.614
266.9993, 2058.205
267.4814, 2056.751
267.9635, 2056.989
268.4456, 2056.660
268.9277, 2055.573
269.4099, 2056.330
269.8920, 2065.062
270.3741, 2069.798
270.8562, 2061.810
271.3383, 2046.804
271.8204, 2037.505
272.3026, 2044.412
272.7847, 2063.655
273.2668, 2072.280
273.7489, 2060.100
274.2310, 2051.895
274.7131, 2056.211
275.1953, 2067.733
275.6774, 2080.441
276.1595, 2092.307
276.6416, 2101.949
277.1237, 2106.113
277.6058, 2103.788
278.0880, 2098.678
278.5701, 2089.923
279.0522, 2079.970
279.5343, 2069.115
280.0164, 2057.012
280.4985, 2049.338
280.9807, 2056.531
281.4628, 2080.170
281.9449, 2095.634
282.4270, 2093.374
282.9091, 2084.410
283.3912, 2075.368
283.8734, 2066.792
284.3555, 2061.226
284.8376, 2064.239
285.3197, 2072.881
285.8018, 2071.087
286.2839, 2049.197
286.7661, 2029.987
287.2482, 2037.297
287.7303, 2064.268
288.2124, 2084.462
288.6945, 2080.943
289.1766, 2066.593
289.6588, 2064.400
290.1409, 2077.333
290.6230, 2090.351
291.1051, 2094.235
291.5872, 2090.153
292.0693, 2081.214
292.5515, 2061.651
293.0336, 2042.457
293.5157, 2033.956
293.9978, 2034.792
294.4799, 2035.392
294.9620, 2029.519
295.4442, 2021.561
295.9263, 2023.570
296.4084, 2043.036
296.8905, 2058.401
297.3726, 2057.619
297.8547, 2047.176
298.3369, 2040.442
298.8190, 2042.385
299.3011, 2046.549
299.7832, 2041.188
300.2653, 2020.994
300.7474, 2006.993
301.2296, 2005.884
301.7117, 2009.076
302.1938, 2008.658
302.6759, 2003.385
303.1580, 1996.364
303.6401, 1990.677
304.1223, 1986.590
304.6044, 1982.384
305.0865, 1976.862
305.5686, 1972.377
306.0507, 1971.999
306.5328, 1973.875
307.0150, 1972.135
307.4971, 1961.870
307.9792, 1945.254
308.4613, 1939.453
308.9434, 1960.478
309.4255, 1974.634
309.9077, 1973.560
310.3898, 1964.327
310.8719, 1953.909
311.3540, 1945.282
311.8361, 1940.722
312.3182, 1947.072
312.8004, 1975.633
313.2825, 1990.745
313.7646, 1980.049
314.2467, 1963.999
314.7288, 1956.200
315.2109, 1958.487
315.6931, 1964.029
316.1752, 1967.224
316.6573, 1968.371
317.1394, 1963.053
317.6215, 1940.625
318.1036, 1923.021
318.5858, 1923.983
319.0679, 1937.666
319.5500, 1948.157
320.0321, 1943.298
320.5142, 1929.487
320.9963, 1926.734
321.4785, 1940.444
321.9606, 1950.892
322.4427, 1943.489
322.9248, 1929.140
323.4069, 1921.255
323.8890, 1925.171
324.3712, 1932.041
324.8533, 1932.083
325.3354, 1925.790
325.8175, 1921.546
326.2996, 1923.054
326.7817, 1926.856
327.2639, 1928.229
327.7460, 1926.999
328.2281, 1924.983
328.7102, 1923.135
329.1923, 1920.998
329.6744, 1916.569
330.1566, 1908.897
330.6387, 1903.281
331.1208, 1906.812
331.6029, 1919.844
332.0850, 1927.520
332.5671, 1924.306
333.0493, 1919.046
333.5314, 1919.539
334.0135, 1924.454
334.4956, 1925.934
334.9777, 1918.058
335.4598, 1903.084
335.9420, 1894.578
336.4241, 1893.746
336.9062, 1896.819
337.3883, 1909.246
337.8704, 1923.070
338.3525, 1925.226
338.8346, 1911.379
339.3167, 1892.624
339.7989, 1889.648
340.2810, 1918.754
340.7631, 1929.933
341.2452, 1910.074
341.7273, 1885.779
342.2094, 1871.719
342.6916, 1869.202
343.1737, 1872.332
343.6558, 1876.410
344.1379, 1881.447
344.6200, 1887.788
345.1021, 1900.165
345.5843, 1907.826
346.0664, 1902.788
346.5485, 1892.498
347.0306, 1889.451
347.5127, 1901.213
347.9948, 1917.424
348.4770, 1914.882
348.9591, 1886.857
349.4412, 1870.243
349.9233, 1884.672
350.4054, 1909.345
350.8875, 1931.367
351.3697, 1949.453
351.8518, 1957.539
352.3339, 1943.861
352.8160, 1915.447
353.2981, 1898.956
353.7802, 1901.595
354.2624, 1908.719
354.7445, 1905.975
355.2266, 1896.101
355.7087, 1889.246
356.1908, 1889.351
356.6729, 1892.261
357.1551, 1893.969
357.6372, 1894.641
358.1193, 1896.931
358.6014, 1903.130
359.0835, 1911.520
359.5656, 1915.481
360.0478, 1911.727
360.5299, 1908.956
361.0120, 1911.533
361.4941, 1915.540
361.9762, 1915.165
362.4583, 1908.844
362.9405, 1900.043
363.4226, 1893.086
363.9047, 1887.011
364.3868, 1886.414
364.8689, 1895.169
365.3510, 1905.069
365.8332, 1914.487
366.3153, 1921.581
366.7974, 1922.343
367.2795, 1912.921
367.7616, 1895.691
368.2437, 1884.325
368.7259, 1879.522
369.2080, 1880.291
369.6901, 1891.382
370.1722, 1904.786
370.6543, 1912.673
371.1364, 1912.755
371.6186, 1907.577
372.1007, 1897.596
372.5828, 1882.060
373.0649, 1874.535
373.5470, 1881.909
374.0291, 1892.551
374.5113, 1897.830
374.9934, 1898.799
375.4755, 1900.991
375.9576, 1910.050
376.4397, 1920.996
376.9218, 1924.325
377.4040, 1919.079
377.8861, 1913.353
378.3682, 1911.431
378.8503, 1912.544
379.3324, 1913.763
379.8145, 1914.062
380.2967, 1915.976
380.7788, 1924.151
381.2609, 1934.346
381.7430, 1936.918
382.2251, 1928.545
382.7072, 1916.081
383.1894, 1909.111
383.6715, 1909.844
384.1536, 1909.753
384.6357, 1903.672
385.1178, 1901.098
385.5999, 1912.951
386.0821, 1934.643
386.5642, 1950.720
387.0463, 1949.877
387.5284, 1934.966
388.0105, 1923.425
388.4926, 1913.283
388.9748, 1909.812
389.4569, 1919.975
389.9390, 1933.384
390.4211, 1939.178
390.9032, 1934.641
391.3853, 1926.981
391.8675, 1926.036
392.3496, 1932.591
392.8317, 1934.419
393.3138, 1927.143
393.7959, 1918.988
394.2780, 1914.197
394.7602, 1912.259
395.2423, 1911.389
395.7244, 1909.420
396.2065, 1909.039
396.6886, 1916.855
397.1707, 1933.302
397.6529, 1945.462
398.1350, 1948.148
398.6171, 1942.396
399.0992, 1929.597
399.5813, 1904.962
400.0634, 1887.495
400.5456, 1887.342
401.0277, 1897.543
401.5098, 1910.116
401.9919, 1923.339
402.4740, 1933.519
402.9561, 1937.408
403.4383, 1934.816
403.9204, 1925.202
404.4025, 1897.427
404.8846, 1875.327
405.3667, 1871.022
405.8488, 1878.363
406.3310, 1886.119
406.8131, 1888.981
407.2952, 1889.252
407.7773, 1892.699
408.2594, 1903.510
408.7415, 1907.777
409.2237, 1898.480
409.7058, 1887.821
410.1879, 1883.713
410.6700, 1885.681
411.1521, 1887.754
411.6342, 1885.866
412.1164, 1880.399
412.5985, 1871.310
413.0806, 1855.477
413.5627, 1844.610
414.0448, 1847.039
414.5269, 1857.304
415.0091, 1871.234
415.4912, 1891.997
415.9733, 1906.076
416.4554, 1899.252
416.9375, 1877.960
417.4196, 1860.204
417.9018, 1850.115
418.3839, 1844.939
418.8660, 1842.374
419.3481, 1842.814
419.8302, 1842.815
420.3123, 1841.413
420.7945, 1840.334
421.2766, 1841.583
421.7587, 1844.066
422.2408, 1844.827
422.7229, 1842.228
423.2050, 1837.238
423.6872, 1832.426
424.1693, 1825.890
424.6514, 1822.855
425.1335, 1824.090
425.6156, 1828.087
426.0977, 1836.317
426.5799, 1847.235
427.0620, 1854.631
427.5441, 1851.272
428.0262, 1839.222
428.5083, 1834.446
428.9904, 1842.160
429.4726, 1846.291
429.9547, 1833.071
430.4368, 1814.939
430.9189, 1807.947
431.4010, 1817.644
431.8831, 1831.379
432.3653, 1840.243
432.8474, 1844.927
433.3295, 1847.348
433.8116, 1847.424
434.2937, 1847.105
434.7758, 1849.170
435.2580, 1853.687
435.7401, 1854.413
436.2222, 1846.377
436.7043, 1838.857
437.1864, 1839.008
437.6685, 1844.014
438.1507, 1846.572
438.6328, 1843.185
439.1149, 1835.968
439.5970, 1829.113
440.0791, 1818.254
440.5612, 1816.188
441.0434, 1833.051
441.5255, 1849.125
442.0076, 1850.479
442.4897, 1839.262
442.9718, 1827.363
443.4539, 1823.466
443.9361, 1825.465
444.4182, 1825.611
444.9003, 1823.051
445.3824, 1821.053
445.8645, 1822.081
446.3466, 1823.570
446.8288, 1822.693
447.3109, 1818.826
447.7930, 1815.000
448.2751, 1810.684
448.7572, 1808.203
449.2393, 1815.400
449.7215, 1834.248
450.2036, 1849.402
450.6857, 1845.892
451.1678, 1826.029
451.6499, 1819.648
452.1320, 1842.244
452.6142, 1859.341
453.0963, 1855.781
453.5784, 1840.829
454.0605, 1826.605
454.5426, 1817.155
455.0247, 1811.273
455.5069, 1806.723
455.9890, 1802.097
456.4711, 1805.383
456.9532, 1831.125
457.4353, 1850.251
457.9174, 1847.080
458.3996, 1831.643
458.8817, 1822.939
459.3638, 1830.404
459.8459, 1844.851
460.3280, 1853.295
460.8102, 1855.631
461.2923, 1856.586
461.7744, 1857.771
462.2565, 1857.152
462.7386, 1849.990
463.2207, 1837.204
463.7029, 1831.108
464.1850, 1840.885
464.6671, 1854.458
465.1492, 1861.901
465.6313, 1863.313
466.1134, 1860.696
466.5956, 1854.434
467.0777, 1846.508
467.5598, 1841.699
468.0419, 1839.982
468.5240, 1841.982
469.0061, 1851.792
469.4883, 1862.006
469.9704, 1869.134
470.4525, 1872.056
470.9346, 1869.271
471.4167, 1858.534
471.8988, 1842.220
472.3810, 1829.668
472.8631, 1821.134
473.3452, 1815.672
473.8273, 1810.153
474.3094, 1809.552
474.7915, 1822.232
475.2737, 1849.137
475.7558, 1871.145
476.2379, 1874.327
476.7200, 1866.020
477.2021, 1858.451
477.6842, 1852.594
478.1664, 1848.724
478.6485, 1847.891
479.1306, 1848.941
479.6127, 1846.570
480.0948, 1835.482
480.5769, 1828.601
481.0591, 1830.021
481.5412, 1835.790
482.0233, 1843.300
482.5054, 1851.344
482.9875, 1857.777
483.4696, 1860.652
483.9518, 1860.031
484.4339, 1856.616
484.9160, 1845.095
485.3981, 1839.182
485.8802, 1848.019
486.3623, 1860.684
486.8445, 1863.354
487.3266, 1852.476
487.8087, 1843.891
488.2908, 1856.539
488.7729, 1882.506
489.2550, 1894.527
489.7372, 1887.946
490.2193, 1877.112
490.7014, 1871.629
491.1835, 1870.438
491.6656, 1867.398
492.1477, 1859.995
492.6299, 1853.828
493.1120, 1848.685
493.5941, 1846.743
494.0762, 1853.838
494.5583, 1869.959
495.0404, 1884.745
495.5226, 1886.430
496.0047, 1874.436
496.4868, 1864.109
496.9689, 1851.384
497.4510, 1845.890
497.9331, 1857.772
498.4153, 1874.224
498.8974, 1878.766
499.3795, 1866.650
499.8616, 1851.337
500.3437, 1846.802
500.8258, 1850.512
501.3080, 1850.006
501.7901, 1842.591
502.2722, 1836.075
502.7543, 1836.364
503.2364, 1842.411
503.7185, 1848.636
504.2007, 1854.431
504.6828, 1860.954
505.1649, 1872.541
505.6470, 1883.487
506.1291, 1884.602
506.6112, 1874.549
507.0934, 1860.758
507.5755, 1850.310
508.0576, 1843.227
508.5397, 1840.321
509.0218, 1846.397
509.5039, 1850.535
509.9861, 1849.976
510.4682, 1846.499
510.9503, 1841.298
511.4324, 1834.721
511.9145, 1829.185
512.3967, 1827.467
512.8788, 1828.661
513.3609, 1829.772
513.8430, 1830.849
514.3251, 1830.318
514.8073, 1825.988
515.2894, 1819.369
515.7715, 1816.410
516.2536, 1822.519
516.7357, 1824.007
517.2178, 1810.382
517.7000, 1793.265
518.1821, 1787.898
518.6642, 1795.349
519.1463, 1804.215
519.6284, 1803.784
520.1105, 1795.354
520.5927, 1792.256
521.0748, 1794.089
521.5569, 1802.423
522.0390, 1826.820
522.5211, 1851.161
523.0032, 1860.584
523.4854, 1853.104
523.9675, 1838.876
524.4496, 1820.240
524.9317, 1801.138
525.4138, 1790.123
525.8959, 1787.658
526.3781, 1789.865
526.8602, 1795.956
527.3423, 1804.347
527.8244, 1810.958
528.3065, 1817.285
528.7886, 1819.284
529.2708, 1808.987
529.7529, 1799.837
530.2350, 1807.194
530.7171, 1826.916
531.1992, 1841.023
531.6813, 1837.216
532.1635, 1820.380
532.6456, 1803.147
533.1277, 1780.915
533.6098, 1772.370
534.0919, 1793.158
534.5740, 1818.967
535.0562, 1835.864
535.5383, 1843.299
536.0204, 1842.411
536.5025, 1828.091
536.9846, 1809.769
537.4667, 1797.527
537.9489, 1790.440
538.4310, 1782.580
538.9131, 1770.792
539.3952, 1761.659
539.8773, 1766.565
540.3594, 1792.395
540.8416, 1808.329
541.3237, 1809.761
541.8058, 1807.244
542.2879, 1800.370
542.7700, 1794.057
543.2521, 1797.797
543.7343, 1815.861
544.2164, 1835.645
544.6985, 1838.877
545.1806, 1826.017
545.6627, 1812.305
546.1448, 1797.608
546.6270, 1785.326
547.1091, 1776.151
547.5912, 1771.324
548.0733, 1775.176
548.5554, 1794.951
549.0375, 1813.451
549.5197, 1823.125
550.0018, 1826.536
550.4839, 1825.263
550.9660, 1820.489
551.4481, 1816.913
551.9302, 1819.172
552.4124, 1826.568
552.8945, 1831.546
553.3766, 1834.182
553.8587, 1834.012
554.3408, 1827.541
554.8229, 1820.940
555.3051, 1820.506
555.7872, 1826.299
556.2693, 1831.391
556.7514, 1830.643
557.2335, 1826.611
557.7156, 1822.812
558.1978, 1819.447
558.6799, 1818.992
559.1620, 1823.426
559.6441, 1829.743
560.1262, 1832.232
560.6083, 1828.688
561.0905, 1827.120
561.5726, 1828.575
562.0547, 1831.089
562.5368, 1833.265
563.0189, 1835.719
563.5010, 1839.561
563.9832, 1845.226
564.4653, 1853.184
564.9474, 1867.129
565.4295, 1887.465
565.9116, 1896.632
566.3937, 1890.101
566.8759, 1877.284
567.3580, 1856.939
567.8401, 1835.595
568.3222, 1830.476
568.8043, 1854.543
569.2864, 1877.916
569.7686, 1884.508
570.2507, 1883.152
570.7328, 1884.940
571.2149, 1891.958
571.6970, 1902.734
572.1791, 1917.159
572.6613, 1933.601
573.1434, 1939.753
573.6255, 1925.559
574.1076, 1920.244
574.5897, 1940.633
575.0718, 1962.391
575.5540, 1965.894
576.0361, 1952.188
576.5182, 1937.906
577.0003, 1930.198
577.4824, 1927.690
577.9645, 1932.118
578.4467, 1941.352
578.9288, 1943.045
579.4109, 1931.483
579.8930, 1917.448
580.3751, 1916.401
580.8572, 1931.646
581.3394, 1943.722
581.8215, 1952.863
582.3036, 1959.073
582.7857, 1959.788
583.2678, 1958.649
583.7499, 1960.674
584.2321, 1967.214
584.7142, 1974.753
585.1963, 1980.657
585.6783, 1984.668
586.1605, 1984.961
586.6426, 1980.916
587.1247, 1976.502
587.6068, 1973.375
588.0889, 1971.524
588.5710, 1971.176
589.0532, 1973.215
589.5353, 1974.242
590.0174, 1973.506
590.4995, 1971.789
590.9816, 1969.422
591.4637, 1966.597
591.9459, 1963.041
592.4280, 1958.451
592.9101, 1954.753
593.3922, 1957.526
593.8743, 1968.008
594.3564, 1970.060
594.8386, 1956.699
595.3207, 1942.938
595.8028, 1939.892
596.2849, 1944.001
596.7670, 1947.960
597.2491, 1953.323
597.7313, 1954.219
598.2134, 1941.974
598.6955, 1926.753
599.1776, 1924.083
599.6597, 1934.039
600.1418, 1943.157
600.6240, 1940.774
601.1061, 1930.101
601.5882, 1924.161
602.0703, 1924.524
602.5524, 1925.689
603.0345, 1929.038
603.5167, 1930.965
603.9988, 1928.731
604.4809, 1922.974
604.9630, 1916.454
605.4451, 1907.892
605.9272, 1901.364
606.4094, 1900.410
606.8915, 1904.036
607.3736, 1913.230
607.8557, 1927.782
608.3378, 1935.919
608.8199, 1923.892
609.3021, 1892.872
609.7842, 1871.778
610.2663, 1865.662
610.7484, 1862.081
611.2305, 1857.169
611.7126, 1854.874
612.1948, 1860.976
612.6769, 1874.415
613.1590, 1884.964
613.6411, 1886.602
614.1232, 1882.321
614.6053, 1871.136
615.0875, 1856.038
615.5696, 1853.780
616.0517, 1871.269
616.5338, 1892.474
617.0159, 1896.087
617.4980, 1879.161
617.9802, 1870.458
618.4623, 1879.136
618.9444, 1884.915
619.4265, 1881.409
619.9086, 1873.882
620.3907, 1867.737
620.8729, 1863.985
621.3550, 1860.714
621.8371, 1857.067
622.3192, 1852.754
622.8013, 1844.692
623.2834, 1833.698
623.7656, 1831.867
624.2477, 1846.342
624.7298, 1864.760
625.2119, 1868.299
625.6940, 1852.971
626.1761, 1839.747
626.6583, 1829.418
627.1404, 1820.007
627.6225, 1807.248
628.1046, 1796.711
628.5867, 1798.895
629.0688, 1815.299
629.5510, 1829.013
630.0331, 1823.129
630.5152, 1804.169
630.9973, 1786.333
631.4794, 1770.045
631.9615, 1761.560
632.4437, 1764.700
632.9258, 1775.180
633.4079, 1787.223
633.8900, 1804.340
634.3721, 1809.983
634.8542, 1791.737
635.3364, 1776.201
635.8185, 1779.151
636.3006, 1789.601
636.7827, 1788.615
637.2648, 1771.553
637.7469, 1757.113
638.2291, 1771.915
638.7112, 1802.396
639.1933, 1804.156
639.6754, 1774.890
640.1575, 1748.518
640.6396, 1739.889
641.1218, 1742.849
641.6039, 1747.831
642.0860, 1758.129
642.5681, 1759.400
643.0502, 1741.801
643.5323, 1726.206
644.0145, 1722.739
644.4966, 1726.390
644.9787, 1730.784
645.4608, 1733.848
645.9429, 1733.475
646.4250, 1725.968
646.9072, 1713.740
647.3893, 1702.647
647.8714, 1692.917
648.3535, 1686.862
648.8356, 1686.022
649.3177, 1688.586
649.7999, 1691.744
650.2820, 1695.864
650.7641, 1699.203
651.2462, 1701.867
651.7283, 1703.651
652.2104, 1702.768
652.6926, 1701.702
653.1747, 1705.440
653.6568, 1714.813
654.1389, 1721.300
654.6210, 1715.308
655.1031, 1701.804
655.5853, 1690.927
656.0674, 1683.020
656.5495, 1679.366
657.0316, 1681.699
657.5137, 1685.013
657.9958, 1680.463
658.4780, 1664.244
658.9601, 1657.680
659.4422, 1669.674
659.9243, 1679.954
660.4064, 1684.483
660.8885, 1683.077
661.3707, 1673.792
661.8528, 1657.003
662.3349, 1640.973
662.8170, 1628.646
663.2991, 1622.228
663.7813, 1630.749
664.2634, 1651.027
664.7455, 1660.569
665.2276, 1650.168
665.7097, 1633.995
666.1918, 1632.139
666.6740, 1647.274
667.1561, 1649.459
667.6382, 1622.362
668.1203, 1602.904
668.6024, 1603.100
669.0845, 1610.987
669.5667, 1615.613
670.0488, 1615.836
670.5309, 1616.271
671.0130, 1621.103
671.4951, 1626.129
671.9772, 1625.609
672.4594, 1621.371
672.9415, 1619.797
673.4236, 1622.658
673.9057, 1624.379
674.3878, 1618.462
674.8699, 1605.575
675.3521, 1596.107
675.8342, 1588.637
676.3163, 1587.281
676.7984, 1604.289
677.2805, 1618.674
677.7626, 1610.660
678.2448, 1584.276
678.7269, 1564.422
679.2090, 1565.319
679.6911, 1569.273
680.1732, 1561.935
680.6553, 1550.417
681.1375, 1547.489
681.6196, 1554.666
682.1017, 1564.308
682.5838, 1570.539
683.0659, 1573.985
683.5480, 1577.580
684.0302, 1582.775
684.5123, 1581.286
684.9944, 1567.377
685.4765, 1552.259
685.9586, 1542.405
686.4407, 1537.942
686.9229, 1540.319
687.4050, 1554.413
687.8871, 1567.656
688.3692, 1577.568
688.8513, 1583.404
689.3334, 1583.469
689.8156, 1578.715
690.2977, 1571.421
690.7798, 1562.421
691.2619, 1554.407
691.7440, 1552.833
692.2261, 1557.304
692.7083, 1560.923
693.1904, 1563.611
693.6725, 1563.128
694.1546, 1556.864
694.6367, 1547.247
695.1188, 1540.601
695.6010, 1538.112
696.0831, 1535.644
696.5652, 1530.816
697.0473, 1528.119
697.5294, 1532.454
698.0115, 1539.783
698.4937, 1543.122
698.9758, 1540.252
699.4579, 1535.457
699.9400, 1531.070
700.4221, 1528.035
700.9042, 1529.465
701.3864, 1535.022
701.8685, 1539.910
702.3506, 1542.298
702.8327, 1542.471
703.3148, 1540.768
703.7969, 1537.165
704.2791, 1531.817
704.7612, 1519.451
705.2433, 1512.651
705.7254, 1520.168
706.2075, 1530.365
706.6896, 1531.613
707.1718, 1523.538
707.6539, 1515.298
708.1360, 1511.238
708.6181, 1508.227
709.1002, 1502.773
709.5823, 1496.662
710.0645, 1493.647
710.5466, 1494.379
711.0287, 1496.949
711.5108, 1500.200
711.9929, 1503.322
712.4750, 1502.510
712.9572, 1496.560
713.4393, 1492.374
713.9214, 1490.740
714.4035, 1491.843
714.8856, 1497.319
715.3677, 1505.802
715.8499, 1512.482
716.3320, 1518.639
716.8141, 1520.535
717.2962, 1512.327
717.7783, 1503.584
718.2604, 1504.269
718.7426, 1511.059
719.2247, 1513.360
719.7068, 1506.049
720.1889, 1495.691
720.6710, 1490.027
721.1531, 1487.976
721.6353, 1485.734
722.1174, 1483.023
722.5995, 1480.614
723.0816, 1478.881
723.5637, 1477.751
724.0458, 1477.471
724.5280, 1479.190
725.0101, 1477.209
725.4922, 1459.650
725.9743, 1452.554
726.4564, 1474.138
726.9385, 1502.866
727.4207, 1515.033
727.9028, 1508.251
728.3849, 1497.079
728.8670, 1482.969
729.3491, 1472.268
729.8312, 1473.576
730.3134, 1481.666
730.7955, 1486.914
731.2776, 1486.836
731.7597, 1482.406
732.2418, 1473.287
732.7239, 1462.087
733.2061, 1459.211
733.6882, 1466.225
734.1703, 1471.159
734.6524, 1472.179
735.1345, 1470.000
735.6166, 1463.279
736.0988, 1453.636
736.5809, 1448.189
737.0630, 1448.960
737.5451, 1450.427
738.0272, 1451.448
738.5093, 1453.287
738.9915, 1459.152
739.4736, 1465.979
739.9557, 1467.046
740.4378, 1459.677
740.9199, 1450.699
741.4020, 1446.131
741.8842, 1444.489
742.3663, 1444.272
742.8484, 1444.705
743.3305, 1440.553
743.8126, 1429.236
744.2947, 1417.529
744.7769, 1415.325
745.2590, 1423.003
745.7411, 1427.693
746.2232, 1429.326
746.7053, 1428.019
747.1874, 1420.361
747.6696, 1412.617
748.1517, 1411.409
748.6338, 1415.826
749.1159, 1418.199
749.5980, 1412.330
750.0801, 1409.945
750.5623, 1422.141
751.0444, 1435.855
751.5265, 1435.240
752.0086, 1422.076
752.4907, 1408.912
752.9728, 1402.202
753.4550, 1400.460
753.9371, 1404.022
754.4192, 1411.007
754.9013, 1412.695
755.3834, 1408.208
755.8655, 1403.365
756.3477, 1401.294
756.8298, 1400.704
757.3119, 1398.842
757.7940, 1394.745
758.2761, 1393.612
758.7582, 1398.647
759.2404, 1402.273
759.7225, 1403.159
760.2046, 1400.968
760.6867, 1392.641
761.1688, 1378.617
761.6509, 1371.333
762.1331, 1382.157
762.6152, 1392.776
763.0973, 1390.704
763.5794, 1382.690
764.0615, 1377.258
764.5436, 1375.956
765.0258, 1377.070
765.5079, 1379.740
765.9900, 1383.389
766.4721, 1388.509
766.9542, 1394.249
767.4363, 1392.729
767.9185, 1382.217
768.4006, 1373.743
768.8827, 1374.750
769.3648, 1381.217
769.8469, 1383.865
770.3290, 1382.284
770.8112, 1378.050
771.2933, 1365.754
771.7754, 1357.543
772.2575, 1361.523
772.7396, 1369.005
773.2217, 1369.632
773.7039, 1362.429
774.1860, 1354.791
774.6681, 1345.385
775.1502, 1340.406
775.6323, 1348.065
776.1144, 1360.535
776.5966, 1366.180
777.0787, 1364.177
777.5608, 1362.365
778.0429, 1366.652
778.5250, 1372.787
779.0071, 1373.138
779.4893, 1368.481
779.9714, 1362.312
780.4535, 1354.835
780.9356, 1350.432
781.4177, 1352.144
781.8998, 1357.781
782.3820, 1363.048
782.8641, 1369.703
783.3462, 1369.218
783.8283, 1336.774
784.3104, 1355.597
784.7925, 1365.781
785.2747, 1367.792
785.7568, 1337.146
786.2389, 1348.669
786.7210, 1343.293
787.2031, 1337.224
787.6852, 1354.682
788.1674, 1328.786
788.6495, 1345.871
789.1316, 1345.799
789.6137, 1353.579
790.0958, 1344.356
790.5779, 1340.384
791.0601, 1353.422
791.5422, 1357.041
792.0243, 1345.860
792.5064, 1354.140
792.9885, 1327.650
793.4706, 1331.671
793.9528, 1348.855
794.4349, 1338.529
794.9170, 1347.119
795.3991, 1348.505
795.8812, 1317.151
796.3633, 1342.735
796.8455, 1343.695
797.3276, 1319.372
797.8097, 1343.005
798.2918, 1322.167
798.7739, 1317.203
799.2560, 1324.185
799.7382, 1318.713
800.2203, 1332.875
800.7024, 1328.123
801.1845, 1321.680
801.6666, 1322.613
802.1487, 1302.647
802.6309, 1321.452
803.1130, 1313.773
803.5951, 1319.259
804.0772, 1327.729
804.5593, 1313.350
805.0414, 1323.161
805.5236, 1295.461
806.0057, 1299.147
806.4878, 1299.453
806.9699, 1319.821
807.4520, 1292.304
807.9341, 1295.118
808.4163, 1310.847
808.8984, 1308.505
809.3805, 1313.719
809.8626, 1296.565
810.3447, 1300.424
810.8268, 1298.491
811.3090, 1316.572
811.7911, 1318.852
812.2732, 1302.078
812.7553, 1285.385
813.2374, 1304.906
813.7195, 1290.103
814.2017, 1293.817
814.6838, 1278.407
815.1659, 1279.509
815.6480, 1280.350
816.1301, 1289.655
816.6122, 1273.293
817.0944, 1290.226
817.5765, 1287.915
818.0586, 1291.273
818.5407, 1294.000
819.0228, 1270.903
819.5049, 1268.976
819.9871, 1297.339
820.4692, 1279.508
820.9513, 1271.000
821.4334, 1269.121
821.9155, 1281.314
822.3976, 1283.788
822.8798, 1290.764
823.3619, 1303.831
823.8440, 1314.860
824.3261, 1307.190
824.8082, 1280.087
825.2903, 1268.834
825.7725, 1278.051
826.2546, 1285.095
826.7367, 1281.705
827.2188, 1275.162
827.7009, 1272.426
828.1830, 1273.446
828.6652, 1277.384
829.1473, 1290.658
829.6294, 1297.499
830.1115, 1291.559
830.5936, 1284.002
831.0757, 1281.538
831.5579, 1282.215
832.0400, 1281.132
832.5221, 1276.617
833.0042, 1274.356
833.4863, 1279.506
833.9684, 1285.169
834.4506, 1285.644
834.9327, 1283.184
835.4148, 1281.779
835.8969, 1282.166
836.3790, 1282.656
836.8611, 1282.489
837.3433, 1281.091
837.8254, 1277.055
838.3075, 1271.164
838.7896, 1264.158
839.2717, 1256.834
839.7538, 1255.653
840.2360, 1264.954
840.7181, 1277.075
841.2002, 1277.414
841.6823, 1265.751
842.1644, 1258.370
842.6465, 1255.374
843.1287, 1257.673
843.6108, 1269.726
844.0929, 1278.412
844.5750, 1265.433
845.0571, 1233.537
845.5392, 1222.968
846.0214, 1254.162
846.5035, 1273.638
846.9856, 1270.405
847.4677, 1262.697
847.9498, 1258.155
848.4319, 1256.368
848.9141, 1256.450
849.3962, 1258.763
849.8783, 1260.228
850.3604, 1259.687
850.8425, 1258.330
851.3246, 1258.005
851.8068, 1256.596
852.2889, 1248.682
852.7710, 1235.934
853.2531, 1229.273
853.7352, 1237.063
854.2173, 1248.350
854.6995, 1252.426
855.1816, 1252.317
855.6637, 1253.497
856.1458, 1255.718
856.6279, 1253.803
857.1100, 1245.559
857.5922, 1240.103
858.0743, 1253.718
858.5564, 1279.298
859.0385, 1282.633
859.5206, 1264.607
860.0027, 1258.369
860.4849, 1273.787
860.9670, 1288.387
861.4491, 1282.552
861.9312, 1262.173
862.4133, 1247.768
862.8954, 1239.297
863.3776, 1238.210
863.8597, 1250.419
864.3418, 1258.006
864.8239, 1248.551
865.3060, 1233.455
865.7881, 1231.473
866.2703, 1245.354
866.7524, 1248.033
867.2345, 1223.561
867.7166, 1209.625
868.1987, 1220.425
868.6808, 1238.160
869.1630, 1253.292
869.6451, 1264.042
870.1272, 1267.627
870.6093, 1261.155
871.0914, 1255.647
871.5735, 1257.996
872.0557, 1260.577
872.5378, 1256.150
873.0199, 1248.855
873.5020, 1246.298
873.9841, 1249.215
874.4662, 1250.758
874.9484, 1245.708
875.4305, 1238.576
875.9126, 1232.774
876.3947, 1228.944
876.8768, 1229.684
877.3589, 1233.882
877.8411, 1236.008
878.3232, 1233.449
878.8053, 1229.272
879.2874, 1225.888
879.7695, 1224.310
880.2516, 1231.253
880.7338, 1245.575
881.2159, 1251.893
881.6980, 1245.759
882.1801, 1239.638
882.6622, 1244.959
883.1443, 1255.830
883.6265, 1251.849
884.1086, 1229.384
884.5907, 1217.332
885.0728, 1220.579
885.5549, 1223.455
886.0370, 1217.115
886.5192, 1210.185
887.0013, 1215.975
887.4834, 1235.139
887.9655, 1246.370
888.4476, 1249.254
888.9297, 1244.752
889.4119, 1219.745
889.8940, 1200.530
890.3761, 1207.260
890.8582, 1229.583
891.3403, 1246.062
891.8224, 1255.772
892.3046, 1256.622
892.7867, 1241.127
893.2688, 1225.164
893.7509, 1213.171
894.2330, 1205.986
894.7151, 1204.428
895.1973, 1208.186
895.6794, 1216.595
896.1615, 1234.656
896.6436, 1246.127
897.1257, 1235.543
897.6078, 1219.400
898.0900, 1211.782
898.5721, 1211.889
899.0542, 1216.964
899.5363, 1225.438
900.0184, 1231.843
900.5005, 1230.661
900.9827, 1210.828
901.4648, 1230.208
901.9469, 1240.951
902.4290, 1243.519
902.9111, 1213.432
903.3932, 1225.513
903.8754, 1220.695
904.3575, 1215.184
904.8396, 1233.200
905.3217, 1207.862
905.8038, 1225.505
906.2859, 1225.991
906.7681, 1234.329
907.2502, 1225.664
907.7323, 1222.250
908.2144, 1235.846
908.6965, 1240.024
909.1786, 1229.401
909.6608, 1238.238
910.1429, 1212.307
910.6250, 1216.885
911.1071, 1234.628
911.5892, 1224.860
912.0714, 1234.008
912.5535, 1235.952
913.0356, 1205.156
913.5177, 1231.298
913.9998, 1232.817
914.4819, 1209.051
914.9641, 1233.243
915.4462, 1212.963
915.9283, 1208.557
916.4104, 1216.096
916.8925, 1211.183
917.3746, 1225.903
917.8568, 1221.709
918.3389, 1215.824
918.8210, 1217.315
919.3031, 1197.907
919.7852, 1217.270
920.2673, 1210.150
920.7495, 1216.193
921.2316, 1225.221
921.7137, 1211.401
922.1958, 1221.769
922.6779, 1194.627
923.1600, 1198.871
923.6422, 1199.736
924.1243, 1220.662
924.6064, 1193.703
925.0885, 1197.075
925.5706, 1213.362
926.0527, 1211.578
926.5349, 1217.350
927.0170, 1200.754
927.4991, 1205.171
927.9812, 1203.796
928.4633, 1222.435
928.9454, 1225.274
929.4276, 1216.069
929.9097, 1220.056
930.3918, 1205.009
930.8739, 1190.771
931.3560, 1197.911
931.8381, 1211.593
932.3203, 1210.417
932.8024, 1198.325
933.2845, 1193.906
933.7666, 1203.859
934.2487, 1212.686
934.7308, 1202.213
935.2130, 1186.354
935.6951, 1187.177
936.1772, 1196.204
936.6593, 1192.911
937.1414, 1176.867
937.6235, 1163.091
938.1057, 1159.670
938.5878, 1163.193
939.0699, 1171.539
939.5520, 1182.753
940.0341, 1193.480
940.5162, 1202.805
940.9984, 1206.351
941.4805, 1203.555
941.9626, 1200.798
942.4447, 1203.365
942.9268, 1206.786
943.4089, 1200.758
943.8911, 1187.295
944.3732, 1178.848
944.8553, 1175.843
945.3374, 1173.648
945.8195, 1170.546
946.3016, 1171.261
946.7838, 1181.605
947.2659, 1197.436
947.7480, 1204.206
948.2301, 1201.832
948.7122, 1199.251
949.1943, 1197.254
949.6765, 1195.025
950.1586, 1192.217
950.6407, 1189.062
951.1228, 1185.989
951.6049, 1182.819
952.0870, 1176.906
952.5692, 1166.683
953.0513, 1162.892
953.5334, 1167.902
954.0155, 1176.991
954.4976, 1190.441
954.9797, 1200.952
955.4619, 1193.580
955.9440, 1166.868
956.4261, 1163.080
956.9082, 1195.539
957.3903, 1211.937
957.8724, 1196.326
958.3546, 1175.774
958.8367, 1166.917
959.3188, 1165.678
959.8009, 1162.833
960.2830, 1156.651
960.7651, 1158.759
961.2473, 1177.741
961.7294, 1188.888
962.2115, 1181.114
962.6936, 1170.829
963.1757, 1170.480
963.6578, 1177.234
964.1400, 1183.462
964.6221, 1192.148
965.1042, 1191.651
965.5863, 1166.992
966.0684, 1153.299
966.5505, 1172.167
967.0327, 1194.729
967.5148, 1194.714
967.9969, 1178.062
968.4790, 1169.575
968.9611, 1175.385
969.4432, 1177.698
969.9254, 1171.639
970.4075, 1166.782
970.8896, 1166.959
971.3717, 1169.576
971.8538, 1174.485
972.3359, 1180.082
972.8181, 1177.974
973.3002, 1158.966
973.7823, 1147.814
974.2644, 1153.004
974.7465, 1161.046
975.2286, 1168.066
975.7108, 1172.969
976.1929, 1172.547
976.6750, 1168.123
977.1571, 1170.255
977.6392, 1191.954
978.1213, 1202.174
978.6035, 1182.644
979.0856, 1161.995
979.5677, 1156.222
980.0498, 1159.226
980.5319, 1163.824
981.0140, 1168.537
981.4962, 1169.525
981.9783, 1160.709
982.4604, 1155.531
982.9425, 1164.181
983.4246, 1171.503
983.9067, 1161.469
984.3889, 1146.419
984.8710, 1148.407
985.3531, 1168.903
985.8352, 1183.344
986.3173, 1179.889
986.7994, 1174.174
987.2816, 1172.206
987.7637, 1169.924
988.2458, 1162.995
988.7279, 1154.162
989.2100, 1147.081
989.6921, 1142.668
990.1743, 1143.376
990.6564, 1157.946
991.1385, 1167.535
991.6206, 1157.503
992.1027, 1145.345
992.5848, 1148.050
993.0670, 1158.409
993.5491, 1160.898
994.0312, 1152.807
994.5133, 1145.879
994.9954, 1145.476
995.4775, 1146.663
995.9597, 1147.362
996.4418, 1148.379
996.9239, 1151.976
997.4060, 1155.896
997.8881, 1155.090
998.3702, 1148.646
998.8524, 1143.073
999.3345, 1139.997
999.8166, 1139.983
1000.299, 1147.671
1000.781, 1154.718
1001.263, 1152.786
1001.745, 1144.548
1002.227, 1135.365
1002.709, 1126.556
1003.191, 1120.787
1003.674, 1114.366
1004.156, 1117.512
1004.638, 1148.343
1005.120, 1179.776
1005.602, 1185.385
1006.084, 1173.166
1006.566, 1161.945
1007.048, 1156.034
1007.530, 1152.783
1008.013, 1153.779
1008.495, 1153.678
1008.977, 1147.588
1009.459, 1141.180
1009.941, 1141.554
1010.423, 1144.862
1010.905, 1141.816
1011.387, 1130.579
1011.870, 1122.111
1012.352, 1119.414
1012.834, 1122.458
1013.316, 1136.915
1013.798, 1152.006
1014.280, 1158.225
1014.762, 1158.163
1015.244, 1156.962
1015.726, 1155.720
1016.209, 1156.791
1016.691, 1168.555
1017.173, 1172.840
1017.655, 1154.624
1018.137, 1133.039
1018.619, 1120.022
1019.101, 1116.050
1019.583, 1121.479
1020.065, 1136.044
1020.548, 1149.855
1021.030, 1166.385
1021.512, 1172.566
1021.994, 1152.734
1022.476, 1131.948
1022.958, 1130.254
1023.440, 1139.014
1023.922, 1142.687
1024.405, 1139.376
1024.887, 1136.766
1025.369, 1135.192
1025.851, 1136.919
1026.333, 1149.091
1026.815, 1157.874
1027.297, 1150.081
1027.779, 1135.811
1028.261, 1130.469
1028.744, 1135.187
1029.226, 1140.560
1029.708, 1145.422
1030.190, 1150.051
1030.672, 1158.461
1031.154, 1162.222
1031.636, 1151.441
1032.118, 1136.691
1032.601, 1131.613
1033.083, 1136.494
1033.565, 1143.526
1034.047, 1156.540
1034.529, 1164.505
1035.011, 1166.074
1035.493, 1162.798
1035.975, 1151.260
1036.458, 1138.090
1036.940, 1130.381
1037.422, 1127.940
1037.904, 1127.337
1038.386, 1131.051
1038.868, 1132.242
1039.350, 1128.148
1039.832, 1125.297
1040.314, 1127.789
1040.797, 1130.653
1041.279, 1128.325
1041.761, 1122.103
1042.243, 1118.241
1042.725, 1115.673
1043.207, 1118.865
1043.689, 1135.600
1044.171, 1142.626
1044.653, 1126.381
1045.136, 1108.234
1045.618, 1108.047
1046.100, 1119.699
1046.582, 1122.812
1047.064, 1114.335
1047.546, 1111.597
1048.028, 1117.740
1048.510, 1119.921
1048.993, 1113.356
1049.475, 1105.977
1049.957, 1103.521
1050.439, 1104.399
1050.921, 1104.915
1051.403, 1104.893
1051.885, 1107.870
1052.367, 1114.496
1052.849, 1120.600
1053.332, 1125.759
1053.814, 1128.324
1054.296, 1127.199
1054.778, 1123.042
1055.260, 1116.201
1055.742, 1107.214
1056.224, 1100.961
1056.706, 1097.406
1057.188, 1102.072
1057.671, 1115.943
1058.153, 1130.295
1058.635, 1141.009
1059.117, 1147.076
1059.599, 1147.117
1060.081, 1141.622
1060.563, 1128.185
1061.045, 1109.880
1061.528, 1109.597
1062.010, 1126.434
1062.492, 1128.967
1062.974, 1105.750
1063.456, 1084.549
1063.938, 1093.781
1064.420, 1117.643
1064.902, 1128.770
1065.385, 1130.372
1065.867, 1129.726
1066.349, 1127.500
1066.831, 1121.620
1067.313, 1112.604
1067.795, 1108.810
1068.277, 1117.557
1068.759, 1128.766
1069.241, 1132.873
1069.724, 1130.257
1070.206, 1115.693
1070.688, 1096.991
1071.170, 1091.400
1071.652, 1099.207
1072.134, 1105.909
1072.616, 1104.052
1073.098, 1102.474
1073.580, 1111.914
1074.063, 1120.529
1074.545, 1116.177
1075.027, 1105.412
1075.509, 1095.165
1075.991, 1087.276
1076.473, 1083.062
1076.955, 1083.009
1077.437, 1085.703
1077.920, 1092.389
1078.402, 1099.255
1078.884, 1107.257
1079.366, 1112.016
1079.848, 1106.372
1080.330, 1096.094
1080.812, 1093.591
1081.294, 1100.685
1081.776, 1103.120
1082.259, 1093.610
1082.741, 1085.552
1083.223, 1080.423
1083.705, 1078.827
1084.187, 1081.663
1084.669, 1087.833
1085.151, 1099.274
1085.633, 1114.517
1086.115, 1117.852
1086.598, 1100.559
1087.080, 1088.357
1087.562, 1082.586
1088.044, 1079.854
1088.526, 1079.368
1089.008, 1081.127
1089.490, 1085.576
1089.972, 1091.964
1090.454, 1098.505
1090.937, 1105.983
1091.419, 1107.807
1091.901, 1102.626
1092.383, 1098.871
1092.865, 1098.784
1093.347, 1097.603
1093.829, 1091.279
1094.311, 1086.483
1094.794, 1097.877
1095.276, 1120.265
1095.758, 1114.996
1096.240, 1085.427
1096.722, 1074.487
1097.204, 1086.344
1097.686, 1095.002
1098.168, 1089.383
1098.651, 1081.240
1099.133, 1082.788
1099.615, 1088.956
1100.097, 1090.679
1100.579, 1089.210
1101.061, 1085.440
1101.543, 1081.497
1102.025, 1085.284
1102.507, 1096.961
1102.990, 1104.187
1103.472, 1098.585
1103.954, 1089.527
1104.436, 1084.970
1104.918, 1082.429
1105.400, 1078.860
1105.882, 1075.643
1106.364, 1074.205
1106.846, 1075.371
1107.329, 1081.975
1107.811, 1095.933
1108.293, 1105.370
1108.775, 1100.685
1109.257, 1095.299
1109.739, 1097.546
1110.221, 1100.187
1110.703, 1096.206
1111.186, 1088.594
1111.668, 1082.782
1112.150, 1079.368
1112.632, 1077.762
1113.114, 1077.464
1113.596, 1079.597
1114.078, 1084.342
1114.560, 1091.792
1115.042, 1108.697
1115.525, 1120.995
1116.007, 1111.105
1116.489, 1085.662
1116.971, 1071.990
1117.453, 1072.663
1117.935, 1075.204
1118.417, 1081.228
1118.899, 1081.150
1119.381, 1070.519
1119.864, 1064.167
1120.346, 1073.308
1120.828, 1086.572
1121.310, 1083.421
1121.792, 1067.992
1122.274, 1065.057
1122.756, 1073.017
1123.238, 1078.916
1123.721, 1081.433
1124.203, 1084.941
1124.685, 1090.946
1125.167, 1093.965
1125.649, 1088.202
1126.131, 1079.170
1126.613, 1073.960
1127.095, 1071.869
1127.578, 1072.047
1128.060, 1074.153
1128.542, 1079.318
1129.024, 1086.184
1129.506, 1087.926
1129.988, 1080.250
1130.470, 1075.121
1130.952, 1086.440
1131.434, 1095.867
1131.917, 1088.023
1132.399, 1074.164
1132.881, 1063.347
1133.363, 1056.616
1133.845, 1054.474
1134.327, 1057.007
1134.809, 1059.133
1135.291, 1056.984
1135.773, 1058.791
1136.256, 1069.514
1136.738, 1079.939
1137.220, 1088.059
1137.702, 1092.222
1138.184, 1089.426
1138.666, 1081.572
1139.148, 1076.147
1139.630, 1073.493
1140.113, 1071.913
1140.595, 1071.760
1141.077, 1070.794
1141.559, 1068.233
1142.041, 1067.121
1142.523, 1069.774
1143.005, 1072.146
1143.487, 1067.404
1143.969, 1058.321
1144.452, 1054.732
1144.934, 1055.877
1145.416, 1059.965
1145.898, 1065.697
1146.380, 1066.544
1146.862, 1061.651
1147.344, 1062.446
1147.826, 1079.056
1148.308, 1096.428
1148.791, 1099.161
1149.273, 1093.313
1149.755, 1081.902
1150.237, 1069.426
1150.719, 1062.087
1151.201, 1059.327
1151.683, 1056.575
1152.165, 1052.334
1152.648, 1051.629
1153.130, 1058.968
1153.612, 1066.471
1154.094, 1074.594
1154.576, 1078.473
1155.058, 1071.355
1155.540, 1060.587
1156.022, 1055.053
1156.505, 1054.696
1156.987, 1059.364
1157.469, 1074.266
1157.951, 1078.516
1158.433, 1068.786
1158.915, 1057.945
1159.397, 1048.252
1159.879, 1040.998
1160.361, 1036.655
1160.844, 1036.615
1161.326, 1044.669
1161.808, 1058.168
1162.290, 1066.461
1162.772, 1068.905
1163.254, 1054.835
1163.736, 1028.879
1164.218, 1026.213
1164.700, 1054.750
1165.183, 1077.446
1165.665, 1066.311
1166.147, 1046.071
1166.629, 1040.546
1167.111, 1042.993
1167.593, 1050.439
1168.075, 1057.589
1168.557, 1056.162
1169.040, 1048.295
1169.522, 1041.867
1170.004, 1038.764
1170.486, 1036.878
1170.968, 1037.969
1171.450, 1036.559
1171.932, 1026.428
1172.414, 1018.997
1172.896, 1021.082
1173.379, 1028.451
1173.861, 1039.188
1174.343, 1051.036
1174.825, 1055.277
1175.307, 1050.581
1175.789, 1044.997
1176.271, 1037.484
1176.753, 1036.188
1177.235, 1043.569
1177.718, 1048.943
1178.200, 1046.656
1178.682, 1040.760
1179.164, 1034.938
1179.646, 1030.936
1180.128, 1033.764
1180.610, 1041.464
1181.092, 1051.016
1181.575, 1060.323
1182.057, 1064.481
1182.539, 1062.926
1183.021, 1057.508
1183.503, 1048.223
1183.985, 1043.123
1184.467, 1052.997
1184.949, 1062.360
1185.432, 1058.869
1185.914, 1052.560
1186.396, 1053.781
1186.878, 1057.845
1187.360, 1054.443
1187.842, 1043.702
1188.324, 1039.331
1188.806, 1046.563
1189.288, 1051.085
1189.771, 1053.482
1190.253, 1051.145
1190.735, 1040.871
1191.217, 1032.903
1191.699, 1035.087
1192.181, 1040.248
1192.663, 1035.721
1193.145, 1025.005
1193.627, 1024.535
1194.110, 1033.280
1194.592, 1050.005
1195.074, 1070.817
1195.556, 1074.712
1196.038, 1058.899
1196.520, 1049.204
1197.002, 1062.443
1197.484, 1077.170
1197.967, 1072.990
1198.449, 1061.941
1198.931, 1052.768
1199.413, 1044.851
1199.895, 1035.396
1200.377, 1027.097
1200.859, 1026.666
1201.341, 1034.346
1201.823, 1039.466
1202.306, 1037.595
1202.788, 1037.921
1203.270, 1042.474
1203.752, 1046.684
1204.234, 1050.944
1204.716, 1050.844
1205.198, 1041.459
1205.680, 1029.606
1206.162, 1026.887
1206.645, 1032.142
1207.127, 1041.132
1207.609, 1052.498
1208.091, 1051.856
1208.573, 1040.732
1209.055, 1036.199
1209.537, 1042.413
1210.019, 1051.836
1210.502, 1060.468
1210.984, 1066.106
1211.466, 1064.251
1211.948, 1061.062
1212.430, 1064.941
1212.912, 1068.285
1213.394, 1057.932
1213.876, 1042.820
1214.359, 1042.318
1214.841, 1057.087
1215.323, 1066.529
1215.805, 1064.476
1216.287, 1063.648
1216.769, 1067.731
1217.251, 1065.792
1217.733, 1051.250
1218.215, 1040.170
1218.698, 1042.845
1219.180, 1053.420
1219.662, 1065.819
1220.144, 1076.451
1220.626, 1065.157
1221.108, 1039.618
1221.590, 1045.205
1222.072, 1074.217
1222.554, 1081.322
1223.037, 1061.030
1223.519, 1042.878
1224.001, 1040.784
1224.483, 1046.880
1224.965, 1061.292
1225.447, 1074.279
1225.929, 1082.176
1226.411, 1082.838
1226.894, 1067.082
1227.376, 1047.895
1227.858, 1044.756
1228.340, 1055.492
1228.822, 1062.595
1229.304, 1066.951
1229.786, 1060.564
1230.268, 1035.476
1230.750, 1029.464
1231.233, 1052.853
1231.715, 1070.453
1232.197, 1065.931
1232.679, 1055.298
1233.161, 1054.007
1233.643, 1058.000
1234.125, 1062.396
1234.607, 1064.771
1235.089, 1055.804
1235.572, 1042.415
1236.054, 1041.381
1236.536, 1049.960
1237.018, 1052.669
1237.500, 1045.678
1237.982, 1041.148
1238.464, 1047.466
1238.946, 1051.261
1239.429, 1046.523
1239.911, 1040.837
1240.393, 1036.947
1240.875, 1033.991
1241.357, 1031.846
1241.839, 1029.608
1242.321, 1025.163
1242.803, 1019.065
1243.286, 1016.246
1243.768, 1016.708
1244.250, 1023.293
1244.732, 1034.963
1245.214, 1038.182
1245.696, 1030.714
1246.178, 1023.635
1246.660, 1023.077
1247.142, 1026.080
1247.625, 1035.089
1248.107, 1040.309
1248.589, 1027.465
1249.071, 1011.972
1249.553, 1008.061
1250.035, 1011.471
1250.517, 1016.485
1250.999, 1021.700
1251.481, 1024.042
1251.964, 1022.437
1252.446, 1022.841
1252.928, 1027.741
1253.410, 1026.075
1253.892, 1014.563
1254.374, 1005.849
1254.856, 1005.096
1255.338, 1007.479
1255.821, 1009.065
1256.303, 1010.381
1256.785, 1011.590
1257.267, 1013.655
1257.749, 1019.428
1258.231, 1026.853
1258.713, 1035.259
1259.195, 1041.020
1259.677, 1033.807
1260.160, 1014.302
1260.642, 1002.177
1261.124, 1007.043
##END=



