##NAMES=Holtite
##RRUFFID=R061049
##IDEAL CHEMISTRY=(Ta_0.6_[box]_0.4_)Al_6_BSi_3_O_18_
##LOCALITY=Kola Peninsula, U.S.S.R.
##OWNER=RRUFF
##SOURCE=Michael Scott
##DESCRIPTION=Blocky crystals; as pseudohexagonal elongated needles, light buff to cream-buff or deep olive-buff in color. Crystals are twinned by a 2-fold rotation around [010].
##STATUS=The identification of this mineral has been confirmed only by single crystal X-ray diffraction.
##URL=rruff.info/R061049
196.4649, 32123.99
196.9470, 32248.75
197.4291, 32386.53
197.9112, 32464.49
198.3934, 32475.47
198.8755, 32487.95
199.3576, 32530.46
199.8397, 32604.02
200.3218, 32680.10
200.8039, 32762.43
201.2861, 32841.70
201.7682, 32898.16
202.2503, 32927.26
202.7324, 32954.43
203.2145, 32991.77
203.6966, 33040.66
204.1788, 33088.43
204.6609, 33133.03
205.1430, 33177.35
205.6251, 33230.31
206.1072, 33296.67
206.5893, 33356.73
207.0715, 33398.71
207.5536, 33419.16
208.0357, 33436.00
208.5178, 33445.93
208.9999, 33454.87
209.4820, 33481.27
209.9642, 33527.73
210.4463, 33585.50
210.9284, 33654.45
211.4105, 33741.39
211.8926, 33810.18
212.3747, 33853.08
212.8569, 33875.67
213.3390, 33904.86
213.8211, 33946.07
214.3032, 33983.07
214.7853, 34000.51
215.2674, 33986.48
215.7496, 33989.10
216.2317, 34018.78
216.7138, 34071.32
217.1959, 34116.58
217.6780, 34148.38
218.1601, 34183.06
218.6423, 34237.88
219.1244, 34330.87
219.6065, 34399.74
220.0886, 34435.24
220.5707, 34438.09
221.0528, 34418.40
221.5350, 34360.05
222.0171, 34299.75
222.4992, 34270.50
222.9813, 34285.90
223.4634, 34302.13
223.9455, 34307.27
224.4277, 34301.38
224.9098, 34319.92
225.3919, 34375.22
225.8740, 34441.41
226.3561, 34495.52
226.8382, 34537.13
227.3204, 34566.68
227.8025, 34584.88
228.2846, 34592.07
228.7667, 34579.57
229.2488, 34532.86
229.7310, 34480.69
230.2131, 34452.69
230.6952, 34450.55
231.1773, 34470.93
231.6594, 34521.68
232.1415, 34608.61
232.6237, 34671.66
233.1058, 34704.72
233.5879, 34719.01
234.0700, 34724.69
234.5521, 34708.17
235.0342, 34707.97
235.5164, 34741.89
235.9985, 34820.23
236.4806, 34863.13
236.9627, 34842.66
237.4448, 34807.84
237.9269, 34827.79
238.4091, 34941.92
238.8912, 35044.22
239.3733, 35102.51
239.8554, 35106.33
240.3375, 35118.57
240.8196, 35142.07
241.3018, 35172.08
241.7839, 35201.16
242.2660, 35223.31
242.7481, 35255.33
243.2302, 35308.44
243.7123, 35394.18
244.1945, 35447.09
244.6766, 35450.71
245.1587, 35432.09
245.6408, 35433.61
246.1229, 35465.14
246.6050, 35499.98
247.0872, 35530.71
247.5693, 35557.40
248.0514, 35578.19
248.5335, 35584.57
249.0156, 35590.29
249.4977, 35620.04
249.9799, 35684.13
250.4620, 35753.41
250.9441, 35820.82
251.4262, 35889.50
251.9083, 35944.84
252.3904, 35986.93
252.8726, 36015.23
253.3547, 36026.09
253.8368, 36011.59
254.3189, 35994.25
254.8010, 35976.43
255.2831, 35949.09
255.7653, 35961.33
256.2474, 36034.80
256.7295, 36133.02
257.2116, 36189.08
257.6937, 36190.77
258.1758, 36175.06
258.6580, 36146.55
259.1401, 36092.24
259.6222, 36083.61
260.1043, 36139.39
260.5864, 36226.86
261.0685, 36286.84
261.5507, 36314.08
262.0328, 36325.64
262.5149, 36320.49
262.9970, 36288.48
263.4791, 36290.63
263.9612, 36337.96
264.4434, 36409.84
264.9255, 36473.00
265.4076, 36529.41
265.8897, 36571.57
266.3718, 36593.20
266.8539, 36589.65
267.3361, 36590.39
267.8182, 36589.26
268.3003, 36599.01
268.7824, 36651.54
269.2645, 36765.91
269.7466, 36862.22
270.2288, 36904.36
270.7109, 36884.32
271.1930, 36878.23
271.6751, 36884.79
272.1572, 36907.00
272.6393, 36957.36
273.1215, 37045.02
273.6036, 37121.51
274.0857, 37164.14
274.5678, 37170.85
275.0499, 37180.50
275.5320, 37190.41
276.0142, 37208.06
276.4963, 37252.96
276.9784, 37331.99
277.4605, 37396.26
277.9426, 37424.12
278.4247, 37416.32
278.9069, 37402.86
279.3890, 37378.60
279.8711, 37360.31
280.3532, 37376.95
280.8354, 37431.20
281.3175, 37487.14
281.7996, 37531.51
282.2817, 37565.28
282.7638, 37598.26
283.2459, 37632.77
283.7281, 37659.20
284.2102, 37653.91
284.6923, 37616.93
285.1744, 37600.22
285.6565, 37640.63
286.1386, 37722.38
286.6208, 37751.85
287.1029, 37719.76
287.5850, 37677.14
288.0671, 37691.88
288.5492, 37758.29
289.0313, 37813.27
289.5135, 37825.43
289.9956, 37808.88
290.4777, 37814.01
290.9598, 37842.68
291.4419, 37877.08
291.9240, 37898.73
292.4062, 37909.42
292.8883, 37917.52
293.3704, 37916.60
293.8525, 37918.27
294.3346, 37964.36
294.8167, 38056.95
295.2989, 38137.00
295.7810, 38133.42
296.2631, 38068.11
296.7452, 38009.73
297.2273, 37979.30
297.7094, 37970.32
298.1916, 37976.16
298.6737, 37996.43
299.1558, 38021.54
299.6379, 38045.55
300.1200, 38068.37
300.6021, 38091.45
301.0843, 38122.09
301.5664, 38146.54
302.0485, 38141.36
302.5306, 38109.49
303.0127, 38077.33
303.4948, 38064.34
303.9770, 38063.33
304.4591, 38062.76
304.9412, 38057.59
305.4233, 38054.21
305.9054, 38064.11
306.3875, 38083.64
306.8697, 38095.27
307.3518, 38084.47
307.8339, 38060.75
308.3160, 38033.00
308.7981, 37995.37
309.2802, 37966.91
309.7624, 37966.84
310.2445, 37989.24
310.7266, 38015.10
311.2087, 38035.19
311.6908, 38054.21
312.1729, 38077.61
312.6551, 38111.79
313.1372, 38140.06
313.6193, 38153.20
314.1014, 38153.49
314.5835, 38146.14
315.0656, 38121.89
315.5478, 38098.22
316.0299, 38087.86
316.5120, 38098.21
316.9941, 38107.47
317.4762, 38097.46
317.9583, 38081.83
318.4405, 38084.54
318.9226, 38130.27
319.4047, 38182.47
319.8868, 38225.45
320.3689, 38256.32
320.8510, 38281.83
321.3332, 38290.73
321.8153, 38298.09
322.2974, 38325.36
322.7795, 38406.10
323.2616, 38480.13
323.7437, 38526.51
324.2259, 38538.34
324.7080, 38549.75
325.1901, 38565.17
325.6722, 38581.49
326.1543, 38595.28
326.6364, 38606.64
327.1186, 38615.27
327.6007, 38616.29
328.0828, 38607.35
328.5649, 38616.08
329.0470, 38646.79
329.5291, 38692.61
330.0113, 38749.78
330.4934, 38842.15
330.9755, 38910.45
331.4576, 38938.73
331.9397, 38929.50
332.4218, 38930.18
332.9040, 38941.87
333.3861, 38962.34
333.8682, 38990.55
334.3503, 39028.83
334.8324, 39070.58
335.3145, 39119.19
335.7967, 39171.11
336.2788, 39205.38
336.7609, 39212.04
337.2430, 39223.39
337.7251, 39263.11
338.2072, 39338.99
338.6894, 39403.42
339.1715, 39453.00
339.6536, 39490.01
340.1357, 39516.41
340.6178, 39530.18
341.0999, 39544.71
341.5821, 39568.33
342.0642, 39600.52
342.5463, 39631.50
343.0284, 39659.84
343.5105, 39688.54
343.9926, 39721.81
344.4748, 39759.47
344.9569, 39800.13
345.4390, 39851.63
345.9211, 39907.27
346.4032, 39933.66
346.8853, 39927.32
347.3675, 39910.84
347.8496, 39896.23
348.3317, 39889.40
348.8138, 39916.63
349.2959, 40017.67
349.7780, 40147.80
350.2602, 40219.73
350.7423, 40232.63
351.2244, 40243.64
351.7065, 40313.48
352.1887, 40416.76
352.6708, 40501.78
353.1529, 40550.45
353.6350, 40575.23
354.1171, 40577.19
354.5992, 40561.09
355.0814, 40556.95
355.5635, 40586.66
356.0456, 40638.22
356.5277, 40698.13
357.0098, 40762.55
357.4919, 40835.76
357.9741, 40941.65
358.4562, 41062.00
358.9383, 41147.64
359.4204, 41142.66
359.9025, 41114.50
360.3846, 41113.28
360.8668, 41162.52
361.3489, 41198.05
361.8310, 41174.13
362.3131, 41122.61
362.7952, 41098.24
363.2773, 41149.28
363.7595, 41202.71
364.2416, 41227.34
364.7237, 41213.43
365.2058, 41204.36
365.6879, 41220.32
366.1700, 41239.66
366.6522, 41239.03
367.1343, 41176.45
367.6164, 41135.34
368.0985, 41143.43
368.5806, 41203.86
369.0627, 41237.24
369.5449, 41223.21
370.0270, 41197.63
370.5091, 41186.18
370.9912, 41195.84
371.4733, 41208.32
371.9554, 41226.45
372.4376, 41246.88
372.9197, 41248.30
373.4018, 41218.80
373.8839, 41190.86
374.3660, 41188.20
374.8481, 41222.46
375.3303, 41229.75
375.8124, 41194.86
376.2945, 41142.05
376.7766, 41129.45
377.2587, 41165.48
377.7408, 41198.50
378.2230, 41192.86
378.7051, 41150.99
379.1872, 41158.27
379.6693, 41227.56
380.1514, 41307.11
380.6335, 41310.43
381.1157, 41245.79
381.5978, 41211.95
382.0799, 41274.04
382.5620, 41385.65
383.0441, 41413.32
383.5262, 41355.15
384.0084, 41296.61
384.4905, 41332.67
384.9726, 41428.04
385.4547, 41490.11
385.9368, 41467.88
386.4189, 41434.41
386.9011, 41491.79
387.3832, 41623.20
387.8653, 41742.15
388.3474, 41797.07
388.8295, 41808.67
389.3116, 41789.77
389.7938, 41725.09
390.2759, 41676.84
390.7580, 41698.16
391.2401, 41764.52
391.7222, 41824.10
392.2043, 41839.53
392.6865, 41853.43
393.1686, 41896.34
393.6507, 41977.98
394.1328, 42045.71
394.6149, 42070.07
395.0970, 42076.22
395.5792, 42092.39
396.0613, 42128.89
396.5434, 42171.23
397.0255, 42219.84
397.5076, 42274.13
397.9897, 42322.44
398.4719, 42374.74
398.9540, 42413.46
399.4361, 42426.30
399.9182, 42378.58
400.4003, 42357.08
400.8824, 42378.39
401.3646, 42429.61
401.8467, 42462.60
402.3288, 42462.80
402.8109, 42469.39
403.2930, 42500.42
403.7751, 42560.14
404.2573, 42630.93
404.7394, 42722.83
405.2215, 42813.29
405.7036, 42858.79
406.1857, 42852.68
406.6678, 42848.70
407.1500, 42866.16
407.6321, 42901.92
408.1142, 42939.07
408.5963, 42978.64
409.0784, 43011.20
409.5605, 43022.72
410.0427, 43016.89
410.5248, 43014.14
411.0069, 43019.61
411.4890, 43030.31
411.9711, 43041.64
412.4532, 43053.69
412.9354, 43066.90
413.4175, 43066.84
413.8996, 43072.35
414.3817, 43124.35
414.8638, 43245.86
415.3459, 43352.45
415.8281, 43348.57
416.3102, 43277.45
416.7923, 43224.73
417.2744, 43260.43
417.7565, 43307.09
418.2386, 43300.76
418.7208, 43234.03
419.2029, 43195.69
419.6850, 43259.73
420.1671, 43353.59
420.6492, 43409.36
421.1313, 43363.60
421.6135, 43326.18
422.0956, 43337.99
422.5777, 43387.90
423.0598, 43405.00
423.5420, 43325.66
424.0241, 43254.61
424.5062, 43243.84
424.9883, 43354.05
425.4704, 43416.93
425.9525, 43415.56
426.4347, 43374.49
426.9168, 43338.10
427.3989, 43311.01
427.8810, 43278.13
428.3631, 43226.43
428.8452, 43153.95
429.3274, 43128.99
429.8095, 43168.91
430.2916, 43220.65
430.7737, 43224.07
431.2558, 43175.85
431.7379, 43139.47
432.2201, 43130.61
432.7022, 43140.23
433.1843, 43142.97
433.6664, 43138.85
434.1485, 43142.15
434.6306, 43166.22
435.1128, 43205.25
435.5949, 43247.39
436.0770, 43294.82
436.5591, 43330.63
437.0412, 43326.99
437.5233, 43294.98
438.0055, 43262.49
438.4876, 43259.16
438.9697, 43250.96
439.4518, 43189.19
439.9339, 43075.39
440.4160, 42985.18
440.8982, 42966.57
441.3803, 42992.29
441.8624, 43036.72
442.3445, 43118.86
442.8266, 43186.96
443.3087, 43211.70
443.7909, 43206.19
444.2730, 43211.83
444.7551, 43268.86
445.2372, 43313.86
445.7193, 43314.51
446.2014, 43241.62
446.6836, 43192.65
447.1657, 43178.11
447.6478, 43183.83
448.1299, 43193.16
448.6120, 43204.44
449.0941, 43222.32
449.5763, 43249.57
450.0584, 43285.46
450.5405, 43315.11
451.0226, 43332.65
451.5047, 43357.75
451.9868, 43418.63
452.4690, 43522.74
452.9511, 43571.18
453.4332, 43541.59
453.9153, 43473.74
454.3974, 43432.85
454.8795, 43418.73
455.3617, 43434.10
455.8438, 43511.57
456.3259, 43616.47
456.8080, 43651.14
457.2901, 43610.69
457.7722, 43556.73
458.2544, 43534.56
458.7365, 43539.86
459.2186, 43566.87
459.7007, 43627.52
460.1828, 43693.01
460.6649, 43732.73
461.1471, 43755.30
461.6292, 43791.15
462.1113, 43883.89
462.5934, 43975.88
463.0755, 44019.12
463.5576, 43986.74
464.0398, 43978.32
464.5219, 44037.95
465.0040, 44133.54
465.4861, 44223.80
465.9682, 44347.56
466.4503, 44416.84
466.9325, 44376.62
467.4146, 44234.38
467.8967, 44179.19
468.3788, 44256.67
468.8609, 44369.84
469.3430, 44467.75
469.8252, 44558.88
470.3073, 44602.10
470.7894, 44570.71
471.2715, 44514.80
471.7536, 44548.45
472.2357, 44688.13
472.7179, 44801.61
473.2000, 44817.34
473.6821, 44758.75
474.1642, 44758.95
474.6463, 44822.33
475.1284, 44898.14
475.6106, 44941.61
476.0927, 44959.55
476.5748, 44966.72
477.0569, 44953.18
477.5390, 44954.44
478.0211, 45034.96
478.5033, 45169.91
478.9854, 45280.22
479.4675, 45320.59
479.9496, 45318.18
480.4317, 45271.86
480.9138, 45172.70
481.3960, 45122.95
481.8781, 45224.14
482.3602, 45375.35
482.8423, 45472.34
483.3244, 45430.77
483.8065, 45399.77
484.2887, 45426.18
484.7708, 45496.21
485.2529, 45533.19
485.7350, 45514.42
486.2171, 45483.82
486.6992, 45454.69
487.1814, 45420.48
487.6635, 45413.25
488.1456, 45446.11
488.6277, 45491.93
489.1098, 45514.97
489.5919, 45511.85
490.0741, 45502.28
490.5562, 45483.04
491.0383, 45463.78
491.5204, 45491.73
492.0026, 45570.11
492.4847, 45639.87
492.9668, 45648.68
493.4489, 45615.77
493.9310, 45593.27
494.4131, 45585.15
494.8953, 45596.59
495.3774, 45652.54
495.8595, 45732.61
496.3416, 45789.98
496.8237, 45785.50
497.3058, 45767.54
497.7880, 45773.86
498.2701, 45801.34
498.7522, 45823.83
499.2343, 45806.72
499.7164, 45794.79
500.1985, 45825.33
500.6807, 45947.72
501.1628, 46027.64
501.6449, 46010.91
502.1270, 45945.49
502.6091, 45912.56
503.0912, 45948.50
503.5734, 45970.56
504.0555, 45948.50
504.5376, 45886.62
505.0197, 45879.31
505.5018, 45950.73
505.9839, 46030.56
506.4661, 46066.84
506.9482, 46055.40
507.4303, 46049.49
507.9124, 46056.02
508.3945, 46064.06
508.8766, 46054.45
509.3588, 46028.69
509.8409, 45999.21
510.3230, 45956.02
510.8051, 45919.09
511.2872, 45946.77
511.7693, 46033.65
512.2515, 46096.38
512.7336, 46061.86
513.2157, 45975.12
513.6978, 45879.50
514.1799, 45763.63
514.6620, 45690.96
515.1442, 45739.43
515.6263, 45847.84
516.1084, 45911.64
516.5905, 45875.79
517.0726, 45814.60
517.5547, 45730.21
518.0369, 45621.47
518.5190, 45581.38
519.0011, 45684.89
519.4832, 45792.13
519.9653, 45817.06
520.4474, 45699.77
520.9296, 45646.72
521.4117, 45684.30
521.8938, 45764.76
522.3759, 45802.91
522.8580, 45792.16
523.3401, 45782.26
523.8223, 45790.06
524.3044, 45811.09
524.7865, 45834.14
525.2686, 45859.19
525.7507, 45872.51
526.2328, 45858.21
526.7150, 45825.11
527.1971, 45782.51
527.6792, 45721.93
528.1613, 45689.73
528.6434, 45759.54
529.1255, 45880.50
529.6077, 45964.87
530.0898, 45923.41
530.5719, 45884.66
531.0540, 45934.75
531.5361, 46060.53
532.0182, 46146.45
532.5004, 46109.25
532.9825, 46064.05
533.4646, 46076.12
533.9467, 46192.37
534.4288, 46271.82
534.9109, 46297.40
535.3931, 46298.10
535.8752, 46309.07
536.3573, 46328.54
536.8394, 46363.76
537.3215, 46419.18
537.8036, 46490.98
538.2858, 46569.02
538.7679, 46655.59
539.2500, 46733.03
539.7321, 46785.63
540.2142, 46819.64
540.6964, 46858.17
541.1785, 46903.26
541.6606, 46945.74
542.1427, 46967.72
542.6248, 46981.17
543.1069, 47009.14
543.5891, 47070.91
544.0712, 47135.21
544.5533, 47166.82
545.0354, 47181.41
545.5175, 47226.46
545.9996, 47369.46
546.4818, 47505.73
546.9639, 47571.32
547.4460, 47540.21
547.9281, 47550.39
548.4102, 47661.83
548.8923, 47784.05
549.3745, 47841.77
549.8566, 47786.60
550.3387, 47777.15
550.8208, 47842.38
551.3029, 47950.12
551.7850, 48024.75
552.2672, 48063.60
552.7493, 48092.10
553.2314, 48111.90
553.7135, 48129.90
554.1956, 48182.75
554.6777, 48271.15
555.1599, 48353.10
555.6420, 48382.58
556.1241, 48383.32
556.6062, 48400.65
557.0883, 48450.82
557.5704, 48492.01
558.0526, 48465.25
558.5347, 48412.70
559.0168, 48403.94
559.4989, 48540.84
559.9810, 48652.17
560.4631, 48649.68
560.9453, 48545.97
561.4274, 48477.52
561.9095, 48476.52
562.3916, 48504.21
562.8737, 48551.22
563.3558, 48628.82
563.8380, 48682.73
564.3201, 48706.37
564.8022, 48714.96
565.2843, 48729.00
565.7664, 48750.86
566.2485, 48753.37
566.7307, 48723.17
567.2128, 48680.15
567.6949, 48673.35
568.1770, 48698.21
568.6591, 48716.95
569.1412, 48695.27
569.6234, 48660.68
570.1055, 48657.86
570.5876, 48688.05
571.0697, 48716.23
571.5518, 48716.23
572.0339, 48704.40
572.5161, 48695.13
572.9982, 48686.06
573.4803, 48690.14
573.9624, 48739.35
574.4445, 48799.57
574.9266, 48807.17
575.4088, 48693.90
575.8909, 48608.98
576.3730, 48594.39
576.8551, 48639.45
577.3372, 48646.38
577.8193, 48598.14
578.3015, 48553.18
578.7836, 48558.95
579.2657, 48614.17
579.7478, 48615.57
580.2299, 48553.78
580.7120, 48471.33
581.1942, 48410.95
581.6763, 48370.04
582.1584, 48342.15
582.6405, 48331.61
583.1226, 48324.15
583.6047, 48300.16
584.0869, 48267.54
584.5690, 48247.17
585.0511, 48265.73
585.5332, 48284.75
586.0153, 48282.72
586.4974, 48257.96
586.9796, 48229.05
587.4617, 48167.24
587.9438, 48127.04
588.4259, 48145.56
588.9080, 48285.39
589.3901, 48349.80
589.8723, 48310.55
590.3544, 48224.34
590.8365, 48168.36
591.3186, 48143.31
591.8007, 48140.97
592.2828, 48166.38
592.7650, 48206.62
593.2471, 48228.26
593.7292, 48233.43
594.2113, 48242.48
594.6934, 48291.89
595.1755, 48341.10
595.6577, 48322.04
596.1398, 48230.86
596.6219, 48147.93
597.1040, 48135.26
597.5862, 48148.40
598.0683, 48144.57
598.5504, 48097.26
599.0325, 48062.42
599.5146, 48045.80
599.9968, 48051.09
600.4789, 48088.55
600.9610, 48214.00
601.4431, 48277.00
601.9252, 48213.40
602.4073, 48062.17
602.8895, 48035.85
603.3716, 48167.18
603.8537, 48279.35
604.3358, 48234.48
604.8179, 48072.91
605.3000, 48034.29
605.7822, 48133.08
606.2643, 48248.25
606.7464, 48269.72
607.2285, 48231.34
607.7106, 48186.55
608.1927, 48138.77
608.6749, 48109.18
609.1570, 48118.44
609.6391, 48154.77
610.1212, 48197.54
610.6033, 48269.59
611.0854, 48317.28
611.5676, 48298.93
612.0497, 48227.36
612.5318, 48221.63
613.0139, 48347.32
613.4960, 48443.87
613.9781, 48419.26
614.4603, 48258.68
614.9424, 48180.61
615.4245, 48198.87
615.9066, 48255.49
616.3887, 48303.14
616.8708, 48341.81
617.3530, 48373.21
617.8351, 48397.97
618.3172, 48413.67
618.7993, 48415.07
619.2814, 48405.36
619.7635, 48391.50
620.2457, 48352.48
620.7278, 48332.04
621.2099, 48379.14
621.6920, 48474.85
622.1741, 48528.65
622.6563, 48480.41
623.1384, 48418.46
623.6205, 48375.43
624.1026, 48351.80
624.5847, 48344.93
625.0668, 48352.13
625.5490, 48380.31
626.0311, 48451.13
626.5132, 48571.88
626.9953, 48630.06
627.4774, 48603.89
627.9595, 48544.47
628.4417, 48517.33
628.9238, 48518.19
629.4059, 48530.58
629.8880, 48548.84
630.3701, 48575.86
630.8522, 48633.13
631.3344, 48704.56
631.8165, 48741.55
632.2986, 48672.82
632.7807, 48605.66
633.2628, 48603.93
633.7449, 48676.13
634.2271, 48735.38
634.7092, 48791.44
635.1913, 48815.83
635.6734, 48780.46
636.1555, 48643.93
636.6376, 48587.64
637.1198, 48638.37
637.6019, 48720.66
638.0840, 48737.93
638.5661, 48695.02
639.0482, 48660.53
639.5303, 48646.45
640.0125, 48654.77
640.4946, 48708.14
640.9767, 48788.95
641.4588, 48847.05
641.9409, 48842.04
642.4230, 48817.88
642.9052, 48801.32
643.3873, 48792.18
643.8694, 48784.29
644.3515, 48774.59
644.8336, 48766.49
645.3157, 48758.63
645.7979, 48746.29
646.2800, 48758.88
646.7621, 48811.38
647.2442, 48868.21
647.7263, 48893.14
648.2084, 48881.98
648.6906, 48892.72
649.1727, 48939.26
649.6548, 48986.33
650.1369, 48970.24
650.6190, 48908.64
651.1011, 48861.75
651.5833, 48848.84
652.0654, 48862.71
652.5475, 48914.11
653.0296, 48988.73
653.5117, 49045.65
653.9938, 49048.61
654.4760, 49047.49
654.9581, 49079.47
655.4402, 49147.81
655.9223, 49154.80
656.4044, 49038.52
656.8865, 48929.71
657.3687, 48901.34
657.8508, 48971.64
658.3329, 49017.73
658.8150, 49036.02
659.2971, 49040.84
659.7792, 49051.33
660.2614, 49063.25
660.7435, 49048.71
661.2256, 48993.29
661.7077, 48937.81
662.1898, 48935.80
662.6719, 48965.70
663.1541, 48985.98
663.6362, 48961.95
664.1183, 48942.35
664.6004, 48949.79
665.0825, 48979.98
665.5646, 49017.55
666.0468, 49087.01
666.5289, 49133.84
667.0110, 49134.03
667.4931, 49089.15
667.9752, 49073.33
668.4573, 49093.37
668.9395, 49121.71
669.4216, 49144.96
669.9037, 49161.84
670.3858, 49160.75
670.8679, 49139.38
671.3500, 49118.30
671.8322, 49125.50
672.3143, 49143.94
672.7964, 49144.09
673.2785, 49107.96
673.7606, 49080.63
674.2427, 49099.09
674.7249, 49137.52
675.2070, 49159.93
675.6891, 49140.42
676.1712, 49126.27
676.6533, 49122.63
677.1354, 49128.93
677.6176, 49150.18
678.0997, 49198.61
678.5818, 49217.35
679.0639, 49166.08
679.5460, 49072.62
680.0281, 49059.16
680.5103, 49122.30
680.9924, 49192.16
681.4745, 49221.86
681.9566, 49229.04
682.4387, 49238.13
682.9208, 49251.15
683.4030, 49253.46
683.8851, 49229.40
684.3672, 49196.11
684.8493, 49165.47
685.3314, 49131.96
685.8135, 49116.35
686.2957, 49122.77
686.7778, 49144.28
687.2599, 49177.20
687.7420, 49227.39
688.2241, 49264.51
688.7062, 49283.10
689.1884, 49289.23
689.6705, 49281.14
690.1526, 49264.90
690.6347, 49280.27
691.1168, 49375.88
691.5989, 49475.99
692.0811, 49477.55
692.5632, 49407.95
693.0453, 49355.36
693.5274, 49376.08
694.0095, 49408.11
694.4916, 49421.82
694.9738, 49415.48
695.4559, 49409.86
695.9380, 49399.48
696.4201, 49398.10
696.9022, 49411.31
697.3843, 49439.06
697.8665, 49493.73
698.3486, 49586.85
698.8307, 49658.81
699.3128, 49637.41
699.7949, 49548.58
700.2770, 49460.93
700.7592, 49376.67
701.2413, 49335.96
701.7234, 49406.59
702.2055, 49530.71
702.6876, 49634.36
703.1697, 49704.77
703.6519, 49736.61
704.1340, 49695.15
704.6161, 49621.06
705.0982, 49589.99
705.5803, 49625.13
706.0624, 49659.77
706.5446, 49680.09
707.0267, 49692.43
707.5088, 49725.23
707.9909, 49779.41
708.4730, 49804.19
708.9551, 49752.05
709.4373, 49668.00
709.9194, 49634.07
710.4015, 49644.97
710.8836, 49666.98
711.3657, 49686.86
711.8478, 49706.02
712.3300, 49727.91
712.8121, 49753.68
713.2942, 49768.46
713.7763, 49756.07
714.2584, 49742.92
714.7405, 49743.12
715.2227, 49760.13
715.7048, 49778.09
716.1869, 49801.01
716.6690, 49814.07
717.1511, 49788.74
717.6332, 49735.41
718.1154, 49719.60
718.5975, 49761.29
719.0796, 49797.20
719.5617, 49743.26
720.0438, 49647.55
720.5259, 49583.02
721.0081, 49589.99
721.4902, 49609.00
721.9723, 49622.21
722.4544, 49633.36
722.9365, 49650.79
723.4186, 49680.97
723.9008, 49707.46
724.3829, 49732.75
724.8650, 49750.10
725.3471, 49726.24
725.8292, 49657.34
726.3113, 49617.13
726.7935, 49653.72
727.2756, 49728.80
727.7577, 49774.79
728.2398, 49795.23
728.7219, 49810.79
729.2040, 49833.09
729.6862, 49855.10
730.1683, 49870.07
730.6504, 49877.48
731.1325, 49890.04
731.6146, 49938.07
732.0967, 49964.57
732.5789, 49932.03
733.0610, 49824.79
733.5431, 49773.82
734.0252, 49788.73
734.5073, 49831.30
734.9894, 49885.20
735.4716, 49940.71
735.9537, 49954.12
736.4358, 49916.76
736.9179, 49867.77
737.4000, 49819.58
737.8821, 49789.83
738.3643, 49806.39
738.8464, 49913.66
739.3286, 49994.51
739.8107, 50007.71
740.2928, 49979.25
740.7749, 49937.54
741.2570, 49857.74
741.7391, 49825.29
742.2213, 49861.55
742.7034, 49935.01
743.1855, 49997.52
743.6676, 50047.45
744.1497, 50059.45
744.6318, 50006.73
745.1140, 49937.63
745.5961, 49909.83
746.0782, 49914.70
746.5603, 49930.85
747.0424, 49944.24
747.5245, 49971.47
748.0067, 50031.46
748.4888, 50116.99
748.9709, 50180.42
749.4530, 50223.89
749.9351, 50240.34
750.4172, 50217.63
750.8994, 50163.55
751.3815, 50142.08
751.8636, 50155.19
752.3457, 50159.31
752.8278, 50113.57
753.3099, 50045.34
753.7921, 49993.06
754.2742, 49959.06
754.7563, 49960.40
755.2384, 50062.12
755.7205, 50161.29
756.2026, 50174.98
756.6848, 50067.49
757.1669, 50008.11
757.6490, 50032.48
758.1311, 50073.46
758.6132, 50079.54
759.0953, 50040.85
759.5775, 50067.59
760.0596, 50176.72
760.5417, 50280.54
761.0238, 50265.75
761.5059, 50180.62
761.9880, 50134.08
762.4702, 50151.00
762.9523, 50176.60
763.4344, 50178.60
763.9165, 50166.98
764.3986, 50152.45
764.8807, 50129.42
765.3629, 50114.96
765.8450, 50111.63
766.3271, 50115.66
766.8092, 50126.90
767.2913, 50149.36
767.7734, 50146.83
768.2556, 50104.79
768.7377, 50055.15
769.2198, 50054.09
769.7019, 50086.68
770.1840, 50108.64
770.6661, 50094.13
771.1483, 50078.63
771.6304, 50099.60
772.1125, 50135.22
772.5946, 50142.65
773.0767, 50072.89
773.5588, 50021.00
774.0410, 49995.81
774.5231, 50000.76
775.0052, 50059.75
775.4873, 50186.81
775.9694, 50280.83
776.4515, 50297.49
776.9337, 50270.63
777.4158, 50276.11
777.8979, 50304.00
778.3800, 50311.56
778.8621, 50236.44
779.3442, 50168.04
779.8264, 50180.73
780.3085, 50260.26
780.7906, 50317.72
781.2727, 50315.54
781.7548, 50310.23
782.2369, 50314.83
782.7191, 50329.32
783.2012, 50362.81
783.6833, 50421.58
784.1654, 50457.02
784.6475, 50414.83
785.1296, 50335.30
785.6118, 50316.05
786.0939, 50353.42
786.5760, 50413.32
787.0581, 50512.00
787.5402, 50594.55
788.0223, 50607.19
788.5045, 50539.34
788.9866, 50505.96
789.4687, 50536.52
789.9508, 50582.91
790.4329, 50622.32
790.9150, 50654.62
791.3972, 50701.25
791.8793, 50767.77
792.3614, 50811.60
792.8435, 50770.68
793.3256, 50690.82
793.8077, 50669.10
794.2899, 50714.98
794.7720, 50760.45
795.2541, 50761.06
795.7362, 50748.13
796.2183, 50747.15
796.7004, 50769.10
797.1826, 50774.20
797.6647, 50742.46
798.1468, 50719.32
798.6289, 50746.07
799.1110, 50823.38
799.5931, 50900.77
800.0753, 50979.90
800.5574, 51034.50
801.0395, 51023.99
801.5216, 50977.07
802.0037, 50934.56
802.4858, 50902.23
802.9680, 50885.02
803.4501, 50880.05
803.9322, 50894.39
804.4143, 50942.05
804.8964, 51075.75
805.3785, 51113.41
805.8607, 51003.95
806.3428, 50880.32
806.8249, 50908.08
807.3070, 51067.36
807.7891, 51180.24
808.2712, 51222.08
808.7534, 51218.62
809.2355, 51161.46
809.7176, 51087.72
810.1997, 51049.83
810.6818, 51068.04
811.1639, 51105.41
811.6461, 51182.85
812.1282, 51256.70
812.6103, 51275.01
813.0924, 51208.80
813.5745, 51183.48
814.0566, 51217.89
814.5388, 51273.62
815.0209, 51296.21
815.5030, 51295.53
815.9851, 51312.95
816.4672, 51368.21
816.9493, 51409.20
817.4315, 51376.68
817.9136, 51310.96
818.3957, 51261.48
818.8778, 51208.97
819.3599, 51222.71
819.8420, 51363.80
820.3242, 51524.45
820.8063, 51547.16
821.2884, 51410.93
821.7705, 51331.84
822.2526, 51351.45
822.7347, 51409.66
823.2169, 51447.48
823.6990, 51460.00
824.1811, 51431.58
824.6632, 51326.16
825.1453, 51240.27
825.6274, 51221.21
826.1096, 51249.27
826.5917, 51300.73
827.0738, 51403.55
827.5559, 51466.83
828.0380, 51467.89
828.5201, 51447.54
829.0023, 51478.56
829.4844, 51552.34
829.9665, 51590.84
830.4486, 51565.26
830.9307, 51532.77
831.4128, 51580.64
831.8950, 51653.91
832.3771, 51667.88
832.8592, 51519.35
833.3413, 51418.00
833.8234, 51445.43
834.3055, 51524.14
834.7877, 51567.58
835.2698, 51572.77
835.7519, 51547.58
836.2340, 51477.51
836.7161, 51415.25
837.1982, 51460.89
837.6804, 51575.16
838.1625, 51647.96
838.6446, 51640.56
839.1267, 51606.12
839.6088, 51536.59
840.0909, 51475.66
840.5731, 51484.39
841.0552, 51661.96
841.5373, 51767.47
842.0194, 51764.17
842.5015, 51717.99
842.9836, 51724.53
843.4658, 51780.18
843.9479, 51805.23
844.4300, 51778.12
844.9121, 51744.39
845.3942, 51752.35
845.8763, 51786.48
846.3585, 51824.54
846.8406, 51863.11
847.3227, 51900.23
847.8048, 51930.92
848.2869, 51962.52
848.7690, 52003.46
849.2512, 52055.16
849.7333, 52115.35
850.2154, 52193.03
850.6975, 52251.93
851.1796, 52221.05
851.6617, 52136.44
852.1439, 52093.81
852.6260, 52117.47
853.1081, 52163.21
853.5902, 52224.41
854.0723, 52282.26
854.5544, 52316.58
855.0366, 52320.39
855.5187, 52305.18
856.0008, 52257.76
856.4829, 52211.62
856.9650, 52204.27
857.4471, 52232.43
857.9293, 52263.54
858.4114, 52295.39
858.8935, 52321.96
859.3756, 52340.48
859.8577, 52349.20
860.3398, 52344.97
860.8220, 52324.59
861.3041, 52300.84
861.7862, 52261.64
862.2683, 52232.39
862.7504, 52230.62
863.2325, 52259.37
863.7147, 52303.50
864.1968, 52367.71
864.6789, 52419.86
865.1610, 52424.39
865.6431, 52398.63
866.1252, 52363.95
866.6074, 52321.15
867.0895, 52307.86
867.5716, 52374.91
868.0537, 52453.66
868.5358, 52495.59
869.0179, 52496.60
869.5001, 52484.11
869.9822, 52450.55
870.4643, 52423.43
870.9464, 52425.12
871.4285, 52449.60
871.9106, 52486.91
872.3928, 52534.49
872.8749, 52548.77
873.3570, 52441.39
873.8391, 52333.69
874.3212, 52338.62
874.8033, 52466.29
875.2855, 52546.84
875.7676, 52550.29
876.2497, 52532.17
876.7318, 52509.76
877.2139, 52484.85
877.6960, 52460.80
878.1782, 52438.76
878.6603, 52453.24
879.1424, 52605.80
879.6245, 52747.36
880.1067, 52668.79
880.5888, 52420.16
881.0709, 52254.95
881.5530, 52327.26
882.0352, 52413.54
882.5173, 52452.86
882.9994, 52453.76
883.4815, 52447.71
883.9636, 52433.45
884.4457, 52426.45
884.9279, 52428.87
885.4100, 52446.50
885.8921, 52502.73
886.3742, 52581.95
886.8563, 52643.51
887.3384, 52688.28
887.8206, 52692.44
888.3027, 52609.91
888.7848, 52489.14
889.2669, 52432.12
889.7490, 52459.04
890.2311, 52468.71
890.7133, 52430.21
891.1954, 52385.55
891.6775, 52418.02
892.1596, 52501.24
892.6417, 52565.39
893.1238, 52578.99
893.6060, 52584.25
894.0881, 52604.88
894.5702, 52629.55
895.0523, 52642.00
895.5344, 52635.36
896.0165, 52631.84
896.4987, 52634.43
896.9808, 52636.71
897.4629, 52620.86
897.9450, 52596.86
898.4271, 52608.39
898.9092, 52668.25
899.3914, 52726.32
899.8735, 52715.88
900.3556, 52702.20
900.8377, 52759.16
901.3198, 52954.92
901.8019, 53051.71
902.2841, 53014.52
902.7662, 52934.23
903.2483, 52867.43
903.7304, 52815.77
904.2125, 52793.07
904.6946, 52800.16
905.1768, 52826.09
905.6589, 52873.88
906.1410, 52929.27
906.6231, 52984.26
907.1052, 53038.08
907.5873, 53073.40
908.0695, 53059.55
908.5516, 53067.98
909.0337, 53140.82
909.5158, 53261.39
909.9979, 53323.86
910.4800, 53329.69
910.9622, 53323.34
911.4443, 53327.47
911.9264, 53334.13
912.4085, 53332.31
912.8906, 53325.77
913.3727, 53327.59
913.8549, 53332.23
914.3370, 53359.53
914.8191, 53426.45
915.3012, 53511.76
915.7833, 53555.35
916.2654, 53557.33
916.7476, 53563.02
917.2297, 53589.53
917.7118, 53619.14
918.1939, 53626.03
918.6760, 53623.12
919.1581, 53632.07
919.6403, 53676.01
920.1224, 53708.93
920.6045, 53708.61
921.0866, 53708.09
921.5687, 53760.53
922.0508, 53871.10
922.5330, 53913.35
923.0151, 53862.20
923.4972, 53805.70
923.9793, 53842.10
924.4614, 53926.49
924.9435, 54003.80
925.4257, 54066.73
925.9078, 54111.97
926.3899, 54118.10
926.8720, 54123.86
927.3541, 54154.62
927.8362, 54212.24
928.3184, 54249.92
928.8005, 54266.99
929.2826, 54273.21
929.7647, 54270.04
930.2468, 54263.62
930.7289, 54256.73
931.2111, 54251.73
931.6932, 54264.12
932.1753, 54319.39
932.6574, 54370.39
933.1395, 54393.28
933.6216, 54399.58
934.1038, 54450.01
934.5859, 54547.89
935.0680, 54628.27
935.5501, 54667.53
936.0322, 54673.75
936.5143, 54640.60
936.9965, 54584.68
937.4786, 54540.63
937.9607, 54480.97
938.4428, 54490.13
938.9249, 54634.30
939.4070, 54816.67
939.8892, 54893.02
940.3713, 54856.26
940.8534, 54840.39
941.3355, 54865.68
941.8176, 54910.96
942.2997, 54982.47
942.7819, 55045.15
943.2640, 55033.36
943.7461, 54899.06
944.2282, 54835.53
944.7103, 54960.92
945.1924, 55103.70
945.6746, 55163.66
946.1567, 55138.02
946.6388, 55100.87
947.1209, 55050.82
947.6030, 55016.84
948.0851, 55043.09
948.5673, 55081.53
949.0494, 55064.96
949.5315, 55000.89
950.0136, 54965.98
950.4957, 55026.53
950.9778, 55064.85
951.4600, 55038.73
951.9421, 54971.46
952.4242, 54951.02
952.9063, 54974.75
953.3884, 54983.05
953.8705, 54949.33
954.3527, 54897.60
954.8348, 54841.36
955.3169, 54787.31
955.7990, 54745.88
956.2811, 54715.89
956.7632, 54709.40
957.2454, 54750.48
957.7275, 54785.99
958.2096, 54728.26
958.6917, 54592.28
959.1738, 54537.07
959.6559, 54590.87
960.1381, 54622.82
960.6202, 54456.13
961.1023, 54256.18
961.5844, 54192.51
962.0665, 54318.20
962.5486, 54375.26
963.0308, 54322.41
963.5129, 54253.69
963.9950, 54221.10
964.4771, 54213.60
964.9592, 54168.36
965.4413, 54091.91
965.9235, 54034.07
966.4056, 54031.73
966.8877, 54048.83
967.3698, 54067.63
967.8519, 54087.42
968.3340, 54110.07
968.8162, 54152.11
969.2983, 54153.99
969.7804, 54092.02
970.2625, 54007.39
970.7446, 53975.86
971.2267, 53979.86
971.7089, 53967.43
972.1910, 53918.53
972.6731, 53871.52
973.1552, 53840.26
973.6373, 53825.60
974.1194, 53829.24
974.6016, 53853.36
975.0837, 53892.99
975.5658, 53958.69
976.0479, 53995.86
976.5300, 53927.69
977.0121, 53813.71
977.4943, 53775.95
977.9764, 53811.07
978.4585, 53839.43
978.9406, 53830.04
979.4227, 53797.92
979.9048, 53727.93
980.3870, 53642.52
980.8691, 53639.45
981.3512, 53724.91
981.8333, 53819.34
982.3154, 53910.57
982.7975, 53972.12
983.2797, 53942.27
983.7618, 53864.33
984.2439, 53813.40
984.7260, 53840.69
985.2081, 53852.43
985.6902, 53836.91
986.1724, 53804.51
986.6545, 53745.61
987.1366, 53665.70
987.6187, 53679.99
988.1008, 53799.66
988.5829, 53922.07
989.0651, 53960.05
989.5472, 53964.94
990.0293, 53991.72
990.5114, 54045.86
990.9935, 54037.23
991.4756, 53922.31
991.9578, 53827.22
992.4399, 53805.50
992.9220, 53833.70
993.4041, 53848.17
993.8862, 53851.15
994.3683, 53852.43
994.8505, 53857.91
995.3326, 53860.73
995.8147, 53854.94
996.2968, 53845.01
996.7789, 53837.45
997.2610, 53831.38
997.7432, 53834.04
998.2253, 53850.16
998.7074, 53860.45
999.1895, 53824.45
999.6716, 53774.70
1000.154, 53782.16
1000.636, 53858.10
1001.118, 53913.50
1001.600, 53894.05
1002.082, 53863.14
1002.564, 53846.50
1003.046, 53844.59
1003.529, 53869.98
1004.011, 53923.32
1004.493, 53963.75
1004.975, 53962.52
1005.457, 53949.68
1005.939, 53961.04
1006.421, 53984.76
1006.903, 53996.55
1007.385, 53976.93
1007.868, 53961.87
1008.350, 53945.11
1008.832, 53946.50
1009.314, 54019.59
1009.796, 54137.73
1010.278, 54169.21
1010.760, 54092.84
1011.242, 54012.00
1011.725, 53999.59
1012.207, 54008.07
1012.689, 53995.21
1013.171, 53959.44
1013.653, 53969.40
1014.135, 54036.52
1014.617, 54105.11
1015.099, 54158.69
1015.581, 54189.55
1016.064, 54162.86
1016.546, 54101.63
1017.028, 54065.54
1017.510, 54146.04
1017.992, 54164.91
1018.474, 54008.70
1018.956, 53826.60
1019.438, 53822.82
1019.921, 54001.25
1020.403, 54085.95
1020.885, 54042.96
1021.367, 53982.04
1021.849, 54002.71
1022.331, 54051.66
1022.813, 54075.88
1023.295, 54068.81
1023.778, 54080.57
1024.260, 54135.44
1024.742, 54161.52
1025.224, 54111.56
1025.706, 54029.48
1026.188, 54048.74
1026.670, 54140.88
1027.152, 54206.64
1027.634, 54183.88
1028.117, 54156.04
1028.599, 54173.67
1029.081, 54198.02
1029.563, 54175.42
1030.045, 54090.25
1030.527, 54053.33
1031.009, 54075.89
1031.491, 54107.44
1031.974, 54096.69
1032.456, 54070.00
1032.938, 54058.45
1033.420, 54064.01
1033.902, 54073.71
1034.384, 54085.82
1034.866, 54101.18
1035.348, 54126.81
1035.830, 54150.82
1036.313, 54122.67
1036.795, 54058.74
1037.277, 54041.07
1037.759, 54119.42
1038.241, 54205.04
1038.723, 54240.16
1039.205, 54251.72
1039.687, 54274.89
1040.169, 54330.03
1040.652, 54314.43
1041.134, 54208.99
1041.616, 54128.23
1042.098, 54188.43
1042.580, 54318.72
1043.062, 54435.16
1043.544, 54527.25
1044.026, 54563.90
1044.509, 54485.76
1044.991, 54405.84
1045.473, 54333.03
1045.955, 54287.79
1046.437, 54338.43
1046.919, 54467.16
1047.401, 54553.36
1047.883, 54562.80
1048.365, 54548.58
1048.848, 54547.85
1049.330, 54543.84
1049.812, 54515.64
1050.294, 54457.54
1050.776, 54413.20
1051.258, 54379.36
1051.740, 54374.75
1052.222, 54429.61
1052.704, 54509.75
1053.187, 54583.24
1053.669, 54634.95
1054.151, 54618.93
1054.633, 54365.18
1055.115, 54260.89
1055.597, 54443.32
1056.079, 54717.13
1056.561, 54800.56
1057.044, 54717.72
1057.526, 54644.40
1058.008, 54602.49
1058.490, 54582.50
1058.972, 54581.53
1059.454, 54596.21
1059.936, 54636.40
1060.418, 54698.75
1060.901, 54721.68
1061.383, 54701.27
1061.865, 54654.20
1062.347, 54557.98
1062.829, 54480.54
1063.311, 54571.44
1063.793, 54748.01
1064.275, 54850.18
1064.757, 54779.16
1065.240, 54718.76
1065.722, 54679.80
1066.204, 54667.51
1066.686, 54702.20
1067.168, 54771.80
1067.650, 54795.36
1068.132, 54773.65
1068.614, 54749.15
1069.096, 54754.14
1069.579, 54757.15
1070.061, 54716.19
1070.543, 54662.01
1071.025, 54697.94
1071.507, 54842.52
1071.989, 54939.02
1072.471, 54952.58
1072.953, 54922.56
1073.436, 54865.73
1073.918, 54807.46
1074.400, 54785.81
1074.882, 54820.68
1075.364, 54818.52
1075.846, 54744.27
1076.328, 54690.07
1076.810, 54704.94
1077.292, 54772.97
1077.775, 54868.07
1078.257, 54978.37
1078.739, 55062.66
1079.221, 55113.48
1079.703, 55122.88
1080.185, 55036.19
1080.667, 54941.90
1081.149, 54945.41
1081.631, 55051.73
1082.114, 55098.50
1082.596, 55074.19
1083.078, 55042.21
1083.560, 55043.97
1084.042, 55068.51
1084.524, 55122.92
1085.006, 55198.28
1085.488, 55233.09
1085.971, 55218.59
1086.453, 55186.00
1086.935, 55136.12
1087.417, 55087.34
1087.899, 55062.09
1088.381, 55058.55
1088.863, 55074.79
1089.345, 55112.59
1089.828, 55163.95
1090.310, 55254.53
1090.792, 55320.30
1091.274, 55311.30
1091.756, 55248.52
1092.238, 55240.96
1092.720, 55279.69
1093.202, 55316.43
1093.684, 55321.48
1094.167, 55324.19
1094.649, 55369.61
1095.131, 55403.02
1095.613, 55325.73
1096.095, 55107.64
1096.577, 55049.93
1097.059, 55183.56
1097.541, 55341.46
1098.024, 55369.31
1098.506, 55357.85
1098.988, 55410.23
1099.470, 55516.72
1099.952, 55539.39
1100.434, 55427.45
1100.916, 55352.38
1101.398, 55362.87
1101.880, 55410.33
1102.363, 55420.92
1102.845, 55409.89
1103.327, 55400.57
1103.809, 55392.31
1104.291, 55412.08
1104.773, 55494.15
1105.255, 55570.60
1105.737, 55600.95
1106.219, 55598.19
1106.702, 55629.07
1107.184, 55683.85
1107.666, 55710.68
1108.148, 55639.91
1108.630, 55594.90
1109.112, 55668.43
1109.594, 55779.02
1110.076, 55828.86
1110.559, 55809.79
1111.041, 55806.52
1111.523, 55823.18
1112.005, 55832.39
1112.487, 55775.46
1112.969, 55732.70
1113.451, 55810.16
1113.933, 55971.25
1114.416, 56031.81
1114.898, 55942.02
1115.380, 55891.84
1115.862, 55921.96
1116.344, 55981.36
1116.826, 56007.89
1117.308, 56015.64
1117.790, 56027.10
1118.272, 56047.44
1118.755, 56050.81
1119.237, 56007.41
1119.719, 55992.39
1120.201, 56052.42
1120.683, 56146.01
1121.165, 56148.17
1121.647, 56090.32
1122.129, 56071.70
1122.611, 56158.50
1123.094, 56222.11
1123.576, 56173.75
1124.058, 56121.23
1124.540, 56145.22
1125.022, 56242.97
1125.504, 56349.69
1125.986, 56462.37
1126.468, 56544.41
1126.951, 56569.69
1127.433, 56561.50
1127.915, 56503.81
1128.397, 56432.54
1128.879, 56413.39
1129.361, 56452.47
1129.843, 56515.03
1130.325, 56603.28
1130.807, 56668.60
1131.290, 56634.86
1131.772, 56579.10
1132.254, 56586.95
1132.736, 56654.25
1133.218, 56681.69
1133.700, 56655.66
1134.182, 56616.92
1134.664, 56567.68
1135.146, 56527.71
1135.629, 56523.90
1136.111, 56548.78
1136.593, 56600.30
1137.075, 56688.30
1137.557, 56738.94
1138.039, 56725.74
1138.521, 56710.23
1139.003, 56723.96
1139.486, 56752.11
1139.968, 56736.91
1140.450, 56703.76
1140.932, 56729.95
1141.414, 56921.51
1141.896, 57033.87
1142.378, 56952.73
1142.860, 56824.36
1143.343, 56752.96
1143.825, 56733.08
1144.307, 56722.97
1144.789, 56721.48
1145.271, 56721.84
1145.753, 56706.45
1146.235, 56707.47
1146.717, 56752.00
1147.199, 56815.89
1147.682, 56877.16
1148.164, 56937.07
1148.646, 56926.75
1149.128, 56836.76
1149.610, 56759.61
1150.092, 56766.29
1150.574, 56814.76
1151.056, 56911.79
1151.538, 57026.91
1152.021, 57024.64
1152.503, 56882.31
1152.985, 56792.23
1153.467, 56804.34
1153.949, 56848.17
1154.431, 56871.79
1154.913, 56873.01
1155.395, 56835.79
1155.878, 56751.00
1156.360, 56731.12
1156.842, 56798.42
1157.324, 56842.53
1157.806, 56801.82
1158.288, 56747.15
1158.770, 56810.87
1159.252, 56925.54
1159.734, 56976.48
1160.217, 56891.09
1160.699, 56866.30
1161.181, 56937.12
1161.663, 56996.23
1162.145, 56960.06
1162.627, 56872.83
1163.109, 56817.58
1163.591, 56793.96
1164.073, 56801.08
1164.556, 56860.59
1165.038, 56922.93
1165.520, 56994.75
1166.002, 57047.87
1166.484, 57050.03
1166.966, 57012.07
1167.448, 56944.53
1167.930, 56859.70
1168.413, 56829.41
1168.895, 56941.26
1169.377, 57042.59
1169.859, 57101.57
1170.341, 57121.80
1170.823, 57097.33
1171.305, 57036.81
1171.787, 56971.80
1172.270, 56905.40
1172.752, 56863.68
1173.234, 56853.22
1173.716, 56882.95
1174.198, 56972.13
1174.680, 57090.67
1175.162, 57164.16
1175.644, 57193.40
1176.126, 57180.71
1176.609, 57114.28
1177.091, 57071.80
1177.573, 57154.24
1178.055, 57231.59
1178.537, 57200.54
1179.019, 57083.91
1179.501, 57038.39
1179.983, 57060.84
1180.465, 57101.13
1180.948, 57156.27
1181.430, 57190.09
1181.912, 57145.68
1182.394, 57088.41
1182.876, 57089.21
1183.358, 57152.83
1183.840, 57182.97
1184.322, 57179.77
1184.805, 57186.91
1185.287, 57262.87
1185.769, 57318.54
1186.251, 57221.87
1186.733, 57089.09
1187.215, 57107.45
1187.697, 57333.89
1188.179, 57441.10
1188.661, 57416.73
1189.144, 57376.79
1189.626, 57416.39
1190.108, 57469.36
1190.590, 57479.01
1191.072, 57456.43
1191.554, 57431.89
1192.036, 57401.13
1192.518, 57394.02
1193.000, 57414.87
1193.483, 57447.24
1193.965, 57471.35
1194.447, 57503.57
1194.929, 57586.63
1195.411, 57698.45
1195.893, 57718.31
1196.375, 57611.30
1196.857, 57536.86
1197.340, 57526.75
1197.822, 57542.00
1198.304, 57565.27
1198.786, 57573.72
1199.268, 57513.76
1199.750, 57389.05
1200.232, 57378.75
1200.714, 57533.19
1201.197, 57625.51
1201.679, 57573.36
1202.161, 57499.05
1202.643, 57585.26
1203.125, 57732.41
1203.607, 57809.14
1204.089, 57783.64
1204.571, 57791.81
1205.053, 57861.09
1205.536, 57866.55
1206.018, 57717.84
1206.500, 57556.72
1206.982, 57637.23
1207.464, 57828.63
1207.946, 57926.24
1208.428, 57855.18
1208.910, 57814.11
1209.392, 57809.84
1209.875, 57817.20
1210.357, 57829.13
1210.839, 57837.97
1211.321, 57824.09
1211.803, 57800.82
1212.285, 57791.95
1212.767, 57807.04
1213.249, 57829.02
1213.732, 57856.88
1214.214, 57895.79
1214.696, 57965.36
1215.178, 58037.70
1215.660, 58070.18
1216.142, 58070.64
1216.624, 58056.80
1217.106, 58027.27
1217.589, 57987.40
1218.071, 57927.81
1218.553, 57891.63
1219.035, 57942.93
1219.517, 58023.05
1219.999, 58034.14
1220.481, 57997.79
1220.963, 57999.59
1221.445, 58079.60
1221.927, 58137.99
1222.410, 58165.04
1222.892, 58171.57
1223.374, 58156.59
1223.856, 58135.77
1224.338, 58134.36
1224.820, 58148.88
1225.302, 58149.98
1225.784, 58123.26
1226.267, 58115.14
1226.749, 58135.68
1227.231, 58163.72
1227.713, 58162.16
1228.195, 58161.72
1228.677, 58217.06
1229.159, 58323.42
1229.641, 58385.52
1230.124, 58386.70
1230.606, 58376.76
1231.088, 58361.04
1231.570, 58354.90
1232.052, 58398.24
1232.534, 58449.07
1233.016, 58448.54
1233.498, 58390.83
1233.980, 58366.77
1234.463, 58395.07
1234.945, 58377.38
1235.427, 58260.88
1235.909, 58167.69
1236.391, 58332.94
1236.873, 58558.13
1237.355, 58569.86
1237.837, 58318.29
1238.320, 58264.42
1238.802, 58448.02
1239.284, 58602.12
1239.766, 58634.86
1240.248, 58601.35
1240.730, 58516.99
1241.212, 58432.80
1241.694, 58419.24
1242.177, 58487.02
1242.659, 58518.41
1243.141, 58508.40
1243.623, 58512.48
1244.105, 58560.83
1244.587, 58617.30
1245.069, 58661.50
1245.551, 58683.46
1246.033, 58656.39
1246.516, 58573.70
1246.998, 58568.04
1247.480, 58642.66
1247.962, 58703.62
1248.444, 58708.67
1248.926, 58678.16
1249.408, 58595.27
1249.890, 58507.51
1250.372, 58464.81
1250.855, 58467.91
1251.337, 58515.41
1251.819, 58605.99
1252.301, 58729.07
1252.783, 58936.25
1253.265, 59097.85
1253.747, 59091.09
1254.229, 59020.94
1254.712, 59011.34
1255.194, 59066.87
1255.676, 59049.19
1256.158, 58967.00
1256.640, 58910.58
1257.122, 58945.68
1257.604, 59001.36
1258.086, 59081.93
1258.568, 59137.02
1259.051, 59089.35
1259.533, 58954.43
1260.015, 58938.07
1260.497, 59024.59
1260.979, 59072.27
1261.461, 58932.94
1261.943, 58837.16
1262.425, 58887.46
1262.907, 58980.64
1263.390, 58997.30
1263.872, 58964.10
1264.354, 59019.54
1264.836, 59148.45
1265.318, 59233.39
1265.800, 59147.48
1266.282, 59118.59
1266.764, 59215.71
1267.247, 59339.37
1267.729, 59394.12
1268.211, 59383.44
1268.693, 59271.89
1269.175, 59087.52
1269.657, 58993.27
1270.139, 59111.86
1270.621, 59232.62
1271.104, 59341.73
1271.586, 59422.63
1272.068, 59445.84
1272.550, 59433.20
1273.032, 59408.05
1273.514, 59378.95
1273.996, 59384.80
1274.478, 59460.94
1274.960, 59489.14
1275.443, 59441.66
1275.925, 59393.74
1276.407, 59461.04
1276.889, 59547.27
1277.371, 59512.16
1277.853, 59381.70
1278.335, 59333.86
1278.817, 59394.09
1279.299, 59456.38
1279.782, 59508.61
1280.264, 59541.01
1280.746, 59509.08
1281.228, 59483.33
1281.710, 59553.04
1282.192, 59682.59
1282.674, 59729.61
1283.156, 59688.97
1283.639, 59652.45
1284.121, 59632.04
1284.603, 59644.62
1285.085, 59755.05
1285.567, 59850.96
1286.049, 59841.76
1286.531, 59772.13
1287.013, 59737.57
1287.495, 59733.68
1287.978, 59724.08
1288.460, 59703.30
1288.942, 59676.73
1289.424, 59614.54
1289.906, 59591.40
1290.388, 59651.35
1290.870, 59746.89
1291.352, 59784.41
1291.834, 59776.82
1292.317, 59761.00
1292.799, 59742.10
1293.281, 59727.94
1293.763, 59708.39
1294.245, 59716.65
1294.727, 59770.45
1295.209, 59838.12
1295.691, 59865.50
1296.174, 59873.32
1296.656, 59906.77
1297.138, 59971.39
1297.620, 59996.40
1298.102, 59970.18
1298.584, 59917.70
1299.066, 59834.05
1299.548, 59760.65
1300.031, 59753.87
1300.513, 59785.46
1300.995, 59836.12
1301.477, 59899.93
1301.959, 59931.72
##END=



