##NAMES=Hopeite
##RRUFFID=R050254
##IDEAL CHEMISTRY=Zn^2+^_3_(P^5+^O_4_)_2_&#183;4H_2_O
##LOCALITY=Broken Hill mine, Kabwe, Zambia
##OWNER=RRUFF
##SOURCE=Marcus Origlieri
##DESCRIPTION=Reddish-orange tabular single crystal
##STATUS=The identification of this mineral has been confirmed by X-ray diffraction and chemical analysis
##URL=rruff.info/R050254
##MEASURED CHEMISTRY=(Zn_2.93_Mg_0.07_)_Σ=3_(P_1.00_O_4_)_2_·4H_2_O
93.12335, 0.0000000E+00
93.60547, 80.39926
94.08759, 77.27524
94.56970, 79.22951
95.05182, 85.24801
95.53394, 91.92565
96.01605, 97.71704
96.49817, 103.4335
96.98029, 111.6134
97.46240, 122.4586
97.94452, 134.8916
98.42664, 147.3253
98.90875, 159.7989
99.39087, 173.5119
99.87299, 188.6397
100.3551, 205.1084
100.8372, 223.7924
101.3193, 244.5319
101.8015, 267.4992
102.2836, 292.9187
102.7657, 321.5829
103.2478, 350.8532
103.7299, 379.0873
104.2120, 406.2108
104.6942, 433.6575
105.1763, 462.1944
105.6584, 491.1891
106.1405, 519.5684
106.6226, 547.6312
107.1047, 574.4250
107.5869, 598.9836
108.0690, 620.7944
108.5511, 641.5163
109.0332, 660.1907
109.5153, 677.1404
109.9974, 696.9959
110.4795, 720.3395
110.9617, 746.4924
111.4438, 774.9387
111.9259, 805.4695
112.4080, 838.8746
112.8901, 875.5163
113.3722, 915.8194
113.8544, 958.3707
114.3365, 1004.605
114.8186, 1052.239
115.3007, 1099.510
115.7828, 1144.093
116.2649, 1189.591
116.7471, 1237.676
117.2292, 1290.391
117.7113, 1340.484
118.1934, 1385.137
118.6755, 1425.595
119.1576, 1463.711
119.6398, 1500.863
120.1219, 1536.099
120.6040, 1568.371
121.0861, 1597.402
121.5682, 1624.427
122.0503, 1650.397
122.5325, 1674.996
123.0146, 1697.372
123.4967, 1716.707
123.9788, 1733.620
124.4609, 1748.849
124.9430, 1761.534
125.4252, 1773.590
125.9073, 1785.444
126.3894, 1797.567
126.8715, 1812.747
127.3536, 1834.727
127.8357, 1861.082
128.3179, 1887.399
128.8000, 1911.385
129.2821, 1935.152
129.7642, 1962.146
130.2463, 1992.372
130.7284, 2023.952
131.2106, 2055.459
131.6927, 2086.921
132.1748, 2118.618
132.6569, 2150.588
133.1390, 2181.200
133.6211, 2201.651
134.1033, 2210.724
134.5854, 2219.388
135.0675, 2228.298
135.5496, 2237.542
136.0317, 2245.704
136.5138, 2252.012
136.9960, 2256.579
137.4781, 2261.377
137.9602, 2266.489
138.4423, 2271.761
138.9244, 2277.371
139.4065, 2283.659
139.8887, 2288.805
140.3708, 2291.469
140.8529, 2290.813
141.3350, 2292.216
141.8171, 2295.820
142.2992, 2301.219
142.7814, 2307.618
143.2635, 2315.342
143.7456, 2323.416
144.2277, 2331.681
144.7098, 2340.625
145.1919, 2348.380
145.6741, 2354.542
146.1562, 2359.492
146.6383, 2364.043
147.1204, 2367.311
147.6025, 2371.244
148.0846, 2377.248
148.5668, 2389.540
149.0489, 2397.281
149.5310, 2398.107
150.0131, 2393.066
150.4952, 2389.367
150.9773, 2390.258
151.4595, 2390.225
151.9416, 2385.940
152.4237, 2374.717
152.9058, 2362.344
153.3879, 2348.120
153.8700, 2332.324
154.3522, 2319.090
154.8343, 2312.435
155.3164, 2306.262
155.7985, 2296.169
156.2806, 2278.024
156.7627, 2259.517
157.2449, 2242.570
157.7270, 2227.465
158.2091, 2211.183
158.6912, 2191.555
159.1733, 2171.000
159.6554, 2151.713
160.1376, 2133.695
160.6197, 2117.444
161.1018, 2103.356
161.5839, 2091.524
162.0660, 2080.678
162.5481, 2070.299
163.0303, 2060.653
163.5124, 2052.070
163.9945, 2045.130
164.4766, 2038.918
164.9587, 2032.856
165.4408, 2026.777
165.9230, 2021.576
166.4051, 2017.825
166.8872, 2015.169
167.3693, 2013.058
167.8514, 2012.390
168.3335, 2011.469
168.8157, 2008.379
169.2978, 2002.163
169.7799, 1997.180
170.2620, 1997.037
170.7441, 2000.189
171.2262, 2003.593
171.7084, 2006.230
172.1905, 2008.143
172.6726, 2009.029
173.1547, 2008.425
173.6368, 2008.226
174.1189, 2010.563
174.6011, 2014.701
175.0832, 2018.638
175.5653, 2020.230
176.0474, 2021.253
176.5295, 2024.215
177.0116, 2029.973
177.4938, 2036.561
177.9759, 2042.246
178.4580, 2047.111
178.9401, 2051.249
179.4222, 2054.987
179.9043, 2058.051
180.3865, 2059.719
180.8686, 2059.523
181.3507, 2058.630
181.8328, 2058.361
182.3149, 2058.714
182.7970, 2059.665
183.2792, 2061.504
183.7613, 2063.967
184.2434, 2066.404
184.7255, 2068.948
185.2076, 2071.097
185.6897, 2071.692
186.1718, 2070.798
186.6540, 2069.886
187.1361, 2070.263
187.6182, 2071.583
188.1003, 2072.583
188.5824, 2073.308
189.0645, 2073.240
189.5467, 2070.608
190.0288, 2065.306
190.5109, 2060.202
190.9930, 2058.467
191.4751, 2059.489
191.9572, 2058.581
192.4394, 2054.210
192.9215, 2047.785
193.4036, 2042.943
193.8857, 2039.732
194.3678, 2037.519
194.8499, 2036.448
195.3321, 2036.439
195.8142, 2035.140
196.2963, 2031.710
196.7784, 2026.848
197.2605, 2022.939
197.7426, 2020.124
198.2248, 2017.550
198.7069, 2014.063
199.1890, 2009.551
199.6711, 2006.635
200.1532, 2005.998
200.6353, 2007.304
201.1175, 2009.690
201.5996, 2013.639
202.0817, 2016.852
202.5638, 2016.448
203.0459, 2011.859
203.5280, 2008.733
204.0102, 2008.594
204.4923, 2010.922
204.9744, 2012.687
205.4565, 2013.950
205.9386, 2014.545
206.4207, 2013.679
206.9029, 2010.757
207.3850, 2009.991
207.8671, 2013.043
208.3492, 2019.311
208.8313, 2023.157
209.3134, 2023.897
209.7956, 2023.701
210.2777, 2024.783
210.7598, 2027.664
211.2419, 2029.641
211.7240, 2029.553
212.2061, 2027.742
212.6883, 2028.791
213.1704, 2033.574
213.6525, 2039.699
214.1346, 2044.853
214.6167, 2048.736
215.0988, 2052.798
215.5810, 2057.709
216.0631, 2063.281
216.5452, 2066.973
217.0273, 2067.888
217.5094, 2068.278
217.9915, 2070.380
218.4737, 2075.030
218.9558, 2079.092
219.4379, 2081.643
219.9200, 2082.819
220.4021, 2084.927
220.8842, 2088.312
221.3664, 2092.085
221.8485, 2095.291
222.3306, 2097.416
222.8127, 2100.317
223.2948, 2104.746
223.7769, 2110.603
224.2591, 2114.526
224.7412, 2115.860
225.2233, 2116.167
225.7054, 2117.123
226.1875, 2120.169
226.6696, 2120.595
227.1518, 2116.866
227.6339, 2109.226
228.1160, 2103.184
228.5981, 2099.499
229.0802, 2096.506
229.5623, 2092.780
230.0445, 2087.444
230.5266, 2083.192
231.0087, 2080.698
231.4908, 2079.832
231.9729, 2078.669
232.4550, 2077.156
232.9372, 2075.371
233.4193, 2073.240
233.9014, 2070.108
234.3835, 2067.914
234.8656, 2066.884
235.3477, 2067.001
235.8299, 2068.301
236.3120, 2071.745
236.7941, 2075.227
237.2762, 2077.134
237.7583, 2076.650
238.2404, 2076.253
238.7226, 2076.202
239.2047, 2076.468
239.6868, 2076.741
240.1689, 2076.569
240.6510, 2076.969
241.1331, 2078.831
241.6153, 2083.313
242.0974, 2086.791
242.5795, 2088.581
243.0616, 2088.976
243.5437, 2089.784
244.0258, 2091.168
244.5080, 2092.756
244.9901, 2094.546
245.4722, 2097.545
245.9543, 2098.489
246.4364, 2096.058
246.9185, 2091.315
247.4007, 2089.250
247.8828, 2091.573
248.3649, 2094.238
248.8470, 2094.809
249.3291, 2091.931
249.8112, 2090.231
250.2934, 2090.448
250.7755, 2091.958
251.2576, 2092.432
251.7397, 2090.953
252.2218, 2089.842
252.7039, 2090.392
253.1861, 2093.405
253.6682, 2096.040
254.1503, 2098.179
254.6324, 2099.888
255.1145, 2101.304
255.5966, 2102.251
256.0788, 2103.167
256.5609, 2104.183
257.0430, 2105.188
257.5251, 2106.641
258.0072, 2108.876
258.4893, 2111.366
258.9715, 2112.934
259.4536, 2113.207
259.9357, 2113.236
260.4178, 2113.252
260.8999, 2112.963
261.3820, 2113.900
261.8642, 2116.696
262.3463, 2120.217
262.8284, 2122.267
263.3105, 2122.035
263.7926, 2122.217
264.2747, 2124.136
264.7569, 2128.361
265.2390, 2130.635
265.7211, 2130.035
266.2032, 2128.587
266.6853, 2129.542
267.1674, 2133.822
267.6496, 2137.906
268.1317, 2140.650
268.6138, 2142.060
269.0959, 2142.832
269.5780, 2142.408
270.0602, 2142.249
270.5423, 2144.746
271.0244, 2150.885
271.5065, 2155.715
271.9886, 2156.977
272.4707, 2154.983
272.9529, 2156.288
273.4350, 2161.622
273.9171, 2168.671
274.3992, 2175.192
274.8813, 2181.018
275.3634, 2187.022
275.8456, 2193.688
276.3277, 2200.747
276.8098, 2205.952
277.2919, 2208.639
277.7740, 2211.458
278.2561, 2217.009
278.7382, 2225.492
279.2203, 2234.147
279.7025, 2242.461
280.1846, 2250.501
280.6667, 2258.678
281.1488, 2266.923
281.6309, 2275.667
282.1130, 2285.228
282.5952, 2295.606
283.0773, 2306.804
283.5594, 2319.259
284.0415, 2332.113
284.5236, 2342.337
285.0057, 2349.682
285.4879, 2357.679
285.9700, 2369.402
286.4521, 2384.447
286.9342, 2397.781
287.4163, 2408.419
287.8984, 2418.072
288.3806, 2429.520
288.8627, 2442.797
289.3448, 2457.392
289.8269, 2474.047
290.3090, 2492.228
290.7911, 2508.134
291.2733, 2521.271
291.7554, 2533.581
292.2375, 2547.848
292.7196, 2563.985
293.2017, 2579.897
293.6838, 2593.262
294.1660, 2605.699
294.6481, 2623.488
295.1302, 2647.325
295.6123, 2671.413
296.0944, 2687.744
296.5765, 2698.033
297.0587, 2709.747
297.5408, 2726.901
298.0229, 2747.190
298.5050, 2765.853
298.9871, 2782.946
299.4692, 2799.420
299.9514, 2815.673
300.4335, 2831.807
300.9156, 2847.470
301.3977, 2862.801
301.8798, 2877.659
302.3619, 2891.658
302.8441, 2904.946
303.3262, 2917.502
303.8083, 2930.097
304.2904, 2941.897
304.7725, 2951.912
305.2546, 2959.403
305.7368, 2965.589
306.2189, 2971.477
306.7010, 2976.988
307.1831, 2981.934
307.6652, 2986.859
308.1473, 2990.808
308.6295, 2992.539
309.1116, 2991.506
309.5937, 2989.064
310.0758, 2986.063
310.5579, 2982.403
311.0400, 2977.956
311.5222, 2972.415
312.0043, 2966.122
312.4864, 2959.892
312.9685, 2954.116
313.4506, 2946.478
313.9327, 2934.708
314.4149, 2920.292
314.8970, 2905.482
315.3791, 2890.946
315.8612, 2876.383
316.3433, 2861.627
316.8254, 2846.562
317.3076, 2832.474
317.7897, 2821.790
318.2718, 2811.699
318.7539, 2799.199
319.2360, 2780.058
319.7181, 2761.578
320.2003, 2747.859
320.6824, 2738.262
321.1645, 2726.612
321.6466, 2709.407
322.1287, 2690.551
322.6108, 2672.703
323.0930, 2655.111
323.5751, 2640.012
324.0572, 2629.431
324.5393, 2622.144
325.0214, 2613.245
325.5035, 2599.008
325.9857, 2585.328
326.4678, 2575.155
326.9499, 2571.794
327.4320, 2566.591
327.9141, 2557.367
328.3962, 2546.112
328.8784, 2536.684
329.3605, 2531.715
329.8426, 2526.043
330.3247, 2517.777
330.8068, 2505.517
331.2889, 2495.406
331.7711, 2488.362
332.2532, 2482.942
332.7353, 2477.458
333.2174, 2471.790
333.6995, 2466.192
334.1816, 2460.690
334.6638, 2455.262
335.1459, 2450.386
335.6280, 2446.201
336.1101, 2442.463
336.5922, 2439.073
337.0743, 2436.094
337.5565, 2433.153
338.0386, 2430.102
338.5207, 2427.012
339.0028, 2424.087
339.4849, 2421.166
339.9670, 2418.670
340.4492, 2416.934
340.9313, 2416.075
341.4134, 2415.191
341.8955, 2414.513
342.3776, 2413.397
342.8597, 2409.850
343.3419, 2403.514
343.8240, 2398.197
344.3061, 2396.087
344.7882, 2397.006
345.2703, 2398.424
345.7524, 2400.546
346.2346, 2402.558
346.7167, 2403.120
347.1988, 2402.402
347.6809, 2401.928
348.1630, 2402.145
348.6451, 2403.012
349.1273, 2404.885
349.6094, 2407.759
350.0915, 2410.024
350.5736, 2408.711
351.0557, 2405.457
351.5378, 2405.126
352.0200, 2410.156
352.5021, 2416.828
352.9842, 2420.446
353.4663, 2421.341
353.9484, 2421.093
354.4305, 2420.179
354.9127, 2418.984
355.3948, 2417.843
355.8769, 2416.646
356.3590, 2416.274
356.8411, 2418.349
357.3232, 2421.851
357.8054, 2424.602
358.2875, 2424.659
358.7696, 2424.232
359.2517, 2425.105
359.7338, 2427.446
360.2159, 2430.047
360.6981, 2432.369
361.1802, 2434.473
361.6623, 2436.415
362.1444, 2437.609
362.6265, 2439.133
363.1086, 2441.936
363.5908, 2445.701
364.0729, 2448.438
364.5550, 2447.962
365.0371, 2447.153
365.5192, 2447.982
366.0013, 2453.040
366.4835, 2456.475
366.9656, 2455.729
367.4477, 2452.625
367.9298, 2451.423
368.4119, 2454.302
368.8940, 2457.739
369.3762, 2460.718
369.8583, 2463.371
370.3404, 2465.187
370.8225, 2466.412
371.3046, 2466.689
371.7867, 2465.437
372.2689, 2460.960
372.7510, 2457.521
373.2331, 2456.188
373.7152, 2456.882
374.1973, 2457.029
374.6794, 2456.509
375.1616, 2455.573
375.6437, 2454.364
376.1258, 2452.787
376.6079, 2451.181
377.0900, 2449.517
377.5721, 2447.902
378.0543, 2446.776
378.5364, 2446.330
379.0185, 2445.677
379.5006, 2444.224
379.9827, 2441.967
380.4648, 2440.104
380.9470, 2438.714
381.4291, 2437.573
381.9112, 2436.329
382.3933, 2435.018
382.8754, 2433.928
383.3575, 2433.310
383.8397, 2432.952
384.3218, 2432.226
384.8039, 2431.124
385.2860, 2430.058
385.7681, 2429.836
386.2502, 2429.900
386.7324, 2428.679
387.2145, 2425.224
387.6966, 2421.395
388.1787, 2419.843
388.6608, 2419.948
389.1429, 2419.497
389.6251, 2416.236
390.1072, 2412.237
390.5893, 2410.041
391.0714, 2410.242
391.5535, 2410.281
392.0356, 2408.013
392.5178, 2404.626
392.9999, 2401.801
393.4820, 2400.585
393.9641, 2399.809
394.4462, 2399.122
394.9283, 2398.501
395.4105, 2397.611
395.8926, 2396.529
396.3747, 2395.023
396.8568, 2392.854
397.3389, 2388.612
397.8210, 2385.460
398.3032, 2384.075
398.7853, 2384.102
399.2674, 2384.695
399.7495, 2386.599
400.2316, 2388.140
400.7137, 2388.624
401.1959, 2387.665
401.6780, 2386.861
402.1601, 2386.953
402.6422, 2386.653
403.1243, 2384.324
403.6064, 2378.350
404.0885, 2373.676
404.5706, 2371.875
405.0528, 2372.436
405.5349, 2371.015
406.0170, 2366.872
406.4991, 2362.738
406.9812, 2360.993
407.4633, 2362.168
407.9455, 2361.036
408.4276, 2356.397
408.9097, 2350.603
409.3918, 2348.406
409.8739, 2349.858
410.3560, 2350.197
410.8382, 2346.718
411.3203, 2340.343
411.8024, 2334.474
412.2845, 2329.055
412.7666, 2323.938
413.2487, 2318.983
413.7309, 2314.080
414.2130, 2309.004
414.6951, 2303.469
415.1772, 2297.976
415.6593, 2293.662
416.1414, 2290.147
416.6236, 2285.974
417.1057, 2278.700
417.5878, 2271.147
418.0699, 2266.985
418.5520, 2267.424
419.0341, 2267.255
419.5163, 2262.684
419.9984, 2255.649
420.4805, 2249.061
420.9626, 2243.475
421.4447, 2238.823
421.9268, 2235.141
422.4090, 2232.371
422.8911, 2230.321
423.3732, 2229.833
423.8553, 2229.397
424.3374, 2228.019
424.8195, 2224.559
425.3017, 2221.603
425.7838, 2219.915
426.2659, 2218.701
426.7480, 2216.320
427.2301, 2211.186
427.7122, 2206.809
428.1944, 2204.640
428.6765, 2205.091
429.1586, 2203.404
429.6407, 2198.569
430.1228, 2193.020
430.6049, 2188.935
431.0871, 2186.612
431.5692, 2184.667
432.0513, 2183.043
432.5334, 2181.593
433.0155, 2179.998
433.4977, 2178.318
433.9798, 2176.122
434.4619, 2172.610
434.9440, 2168.183
435.4261, 2165.553
435.9082, 2165.111
436.3904, 2164.741
436.8725, 2161.108
437.3546, 2155.310
437.8367, 2151.147
438.3188, 2151.163
438.8009, 2152.326
439.2831, 2149.872
439.7652, 2144.491
440.2473, 2140.274
440.7294, 2141.103
441.2115, 2143.756
441.6936, 2144.648
442.1758, 2142.589
442.6579, 2140.796
443.1400, 2141.679
443.6221, 2143.885
444.1042, 2145.392
444.5863, 2145.112
445.0685, 2144.345
445.5506, 2143.678
446.0327, 2143.086
446.5148, 2141.750
446.9969, 2138.664
447.4790, 2135.366
447.9612, 2132.769
448.4433, 2131.394
448.9254, 2130.129
449.4075, 2129.223
449.8896, 2128.401
450.3717, 2126.983
450.8539, 2124.237
451.3360, 2122.344
451.8181, 2122.170
452.3002, 2123.774
452.7823, 2125.080
453.2644, 2126.081
453.7466, 2126.908
454.2287, 2127.839
454.7108, 2128.915
455.1929, 2129.257
455.6750, 2128.699
456.1571, 2127.412
456.6393, 2125.047
457.1214, 2121.757
457.6035, 2119.792
458.0856, 2121.144
458.5677, 2124.463
459.0498, 2126.937
459.5320, 2128.467
460.0141, 2129.572
460.4962, 2130.651
460.9783, 2131.599
461.4604, 2132.163
461.9425, 2131.859
462.4247, 2131.744
462.9068, 2132.716
463.3889, 2134.493
463.8710, 2136.325
464.3531, 2138.232
464.8352, 2139.788
465.3174, 2140.741
465.7995, 2141.047
466.2816, 2140.822
466.7637, 2139.564
467.2458, 2138.041
467.7279, 2136.935
468.2101, 2136.542
468.6922, 2136.322
469.1743, 2136.051
469.6564, 2135.925
470.1385, 2136.767
470.6206, 2139.764
471.1028, 2141.905
471.5849, 2141.467
472.0670, 2137.833
472.5491, 2136.853
473.0312, 2139.372
473.5133, 2142.852
473.9955, 2144.492
474.4776, 2144.243
474.9597, 2143.548
475.4418, 2142.462
475.9239, 2141.385
476.4060, 2141.178
476.8882, 2141.810
477.3703, 2143.071
477.8524, 2145.116
478.3345, 2147.624
478.8166, 2150.238
479.2987, 2152.986
479.7809, 2155.010
480.2630, 2154.327
480.7451, 2152.723
481.2272, 2153.023
481.7093, 2158.720
482.1914, 2163.376
482.6736, 2161.091
483.1557, 2154.308
483.6378, 2150.196
484.1199, 2153.685
484.6020, 2158.702
485.0841, 2162.527
485.5663, 2164.760
486.0484, 2166.284
486.5305, 2166.701
487.0126, 2166.714
487.4947, 2167.003
487.9768, 2168.450
488.4590, 2168.705
488.9411, 2166.869
489.4232, 2163.827
489.9053, 2162.354
490.3874, 2162.789
490.8695, 2164.003
491.3517, 2165.782
491.8338, 2168.157
492.3159, 2169.935
492.7980, 2171.102
493.2801, 2171.905
493.7622, 2172.307
494.2444, 2172.458
494.7265, 2173.317
495.2086, 2175.334
495.6907, 2177.718
496.1728, 2179.542
496.6549, 2180.788
497.1371, 2181.396
497.6192, 2180.907
498.1013, 2179.998
498.5834, 2178.817
499.0655, 2177.393
499.5476, 2177.574
500.0298, 2182.656
500.5119, 2188.704
500.9940, 2191.847
501.4761, 2188.477
501.9582, 2186.348
502.4403, 2189.024
502.9225, 2194.249
503.4046, 2197.484
503.8867, 2195.352
504.3688, 2193.977
504.8509, 2195.234
505.3330, 2199.200
505.8152, 2201.986
506.2973, 2203.566
506.7794, 2203.979
507.2615, 2202.987
507.7436, 2200.163
508.2257, 2197.936
508.7079, 2196.507
509.1900, 2195.645
509.6721, 2195.070
510.1542, 2194.789
510.6363, 2194.527
511.1184, 2193.901
511.6006, 2193.390
512.0826, 2194.365
512.5648, 2196.710
513.0469, 2199.211
513.5290, 2201.161
514.0111, 2202.678
514.4932, 2204.012
514.9753, 2205.280
515.4575, 2205.941
515.9396, 2205.215
516.4217, 2203.810
516.9038, 2202.659
517.3859, 2202.636
517.8680, 2202.372
518.3502, 2200.724
518.8323, 2198.257
519.3144, 2197.336
519.7965, 2200.128
520.2786, 2202.973
520.7607, 2204.370
521.2429, 2203.911
521.7250, 2203.862
522.2071, 2204.345
522.6892, 2205.050
523.1713, 2205.725
523.6534, 2206.370
524.1356, 2206.699
524.6177, 2206.472
525.0998, 2206.069
525.5819, 2206.657
526.0640, 2208.211
526.5461, 2209.186
527.0283, 2207.866
527.5104, 2205.584
527.9925, 2206.804
528.4746, 2211.425
528.9567, 2214.773
529.4388, 2211.242
529.9210, 2204.911
530.4031, 2201.875
530.8852, 2204.435
531.3673, 2207.132
531.8494, 2205.793
532.3315, 2202.602
532.8137, 2200.945
533.2958, 2203.219
533.7779, 2205.820
534.2600, 2207.329
534.7421, 2207.883
535.2242, 2209.346
535.7064, 2212.548
536.1885, 2215.920
536.6706, 2218.844
537.1527, 2221.287
537.6348, 2223.253
538.1169, 2224.816
538.5991, 2225.734
539.0812, 2225.350
539.5633, 2223.467
540.0454, 2222.616
540.5275, 2223.574
541.0096, 2225.467
541.4918, 2226.327
541.9739, 2226.312
542.4560, 2226.782
542.9381, 2228.697
543.4202, 2231.473
543.9023, 2234.020
544.3845, 2236.350
544.8666, 2239.239
545.3487, 2244.023
545.8308, 2249.185
546.3129, 2253.149
546.7950, 2255.406
547.2772, 2256.821
547.7593, 2256.841
548.2414, 2256.447
548.7235, 2257.012
549.2056, 2259.210
549.6877, 2261.950
550.1699, 2265.606
550.6520, 2269.858
551.1341, 2272.653
551.6162, 2272.840
552.0983, 2273.690
552.5804, 2277.334
553.0626, 2284.295
553.5447, 2287.633
554.0268, 2286.345
554.5089, 2284.575
554.9910, 2287.480
555.4731, 2294.230
555.9553, 2298.797
556.4374, 2299.578
556.9195, 2298.971
557.4016, 2299.784
557.8837, 2301.846
558.3658, 2304.724
558.8480, 2309.309
559.3301, 2313.757
559.8122, 2316.001
560.2943, 2316.401
560.7764, 2317.263
561.2585, 2320.102
561.7407, 2323.454
562.2228, 2326.780
562.7049, 2330.828
563.1870, 2332.463
563.6691, 2328.365
564.1512, 2323.408
564.6334, 2321.967
565.1155, 2325.818
565.5976, 2329.693
566.0797, 2333.329
566.5618, 2336.503
567.0439, 2338.257
567.5261, 2338.313
568.0082, 2338.832
568.4903, 2340.848
568.9724, 2343.959
569.4545, 2346.359
569.9366, 2348.093
570.4188, 2350.647
570.9009, 2356.469
571.3830, 2363.569
571.8651, 2368.163
572.3472, 2369.429
572.8293, 2370.920
573.3115, 2375.482
573.7936, 2381.732
574.2757, 2387.905
574.7578, 2393.324
575.2399, 2398.762
575.7220, 2404.198
576.2042, 2409.814
576.6863, 2416.166
577.1684, 2423.442
577.6505, 2431.311
578.1326, 2440.169
578.6147, 2449.853
579.0969, 2457.939
579.5790, 2463.789
580.0611, 2469.394
580.5432, 2476.058
581.0253, 2483.732
581.5074, 2491.426
581.9896, 2498.930
582.4717, 2507.042
582.9538, 2517.377
583.4359, 2529.087
583.9180, 2539.652
584.4001, 2547.855
584.8823, 2555.334
585.3644, 2563.282
585.8465, 2571.822
586.3286, 2581.083
586.8107, 2591.363
587.2928, 2602.276
587.7750, 2613.677
588.2571, 2625.530
588.7392, 2637.405
589.2213, 2650.786
589.7034, 2662.764
590.1855, 2671.413
590.6677, 2674.625
591.1498, 2680.987
591.6319, 2691.897
592.1140, 2704.041
592.5961, 2714.102
593.0782, 2722.042
593.5604, 2728.043
594.0425, 2732.202
594.5246, 2734.271
595.0067, 2733.294
595.4888, 2729.694
595.9709, 2725.716
596.4531, 2722.672
596.9352, 2719.664
597.4173, 2716.133
597.8994, 2711.946
598.3815, 2705.861
598.8636, 2696.544
599.3458, 2685.661
599.8279, 2673.798
600.3100, 2660.756
600.7921, 2649.172
601.2742, 2641.750
601.7563, 2634.723
602.2385, 2624.992
602.7206, 2610.493
603.2027, 2596.909
603.6848, 2584.586
604.1669, 2573.156
604.6490, 2562.481
605.1312, 2552.621
605.6133, 2542.220
606.0954, 2530.434
606.5775, 2518.478
607.0596, 2510.368
607.5417, 2505.645
608.0239, 2500.978
608.5060, 2494.031
608.9881, 2486.220
609.4702, 2479.708
609.9523, 2474.507
610.4344, 2469.060
610.9166, 2461.418
611.3987, 2453.756
611.8808, 2447.882
612.3629, 2444.498
612.8450, 2441.649
613.3271, 2439.633
613.8093, 2437.591
614.2914, 2434.484
614.7735, 2429.161
615.2556, 2424.891
615.7377, 2422.087
616.2198, 2420.448
616.7020, 2419.494
617.1841, 2419.274
617.6662, 2419.198
618.1483, 2418.964
618.6304, 2418.785
619.1125, 2419.440
619.5947, 2420.852
620.0768, 2422.086
620.5589, 2422.740
621.0410, 2422.806
621.5231, 2422.068
622.0052, 2420.501
622.4874, 2419.085
622.9695, 2417.515
623.4516, 2416.828
623.9337, 2418.032
624.4158, 2423.001
624.8979, 2426.802
625.3801, 2428.007
625.8622, 2428.284
626.3443, 2429.536
626.8264, 2431.858
627.3085, 2435.012
627.7906, 2439.708
628.2728, 2444.517
628.7549, 2444.954
629.2370, 2440.933
629.7191, 2437.662
630.2012, 2438.081
630.6833, 2440.391
631.1655, 2441.469
631.6476, 2441.320
632.1297, 2439.902
632.6118, 2435.957
633.0939, 2431.590
633.5760, 2428.678
634.0582, 2427.575
634.5403, 2427.017
635.0224, 2428.327
635.5045, 2428.980
635.9866, 2426.857
636.4688, 2418.654
636.9509, 2413.204
637.4330, 2411.778
637.9151, 2412.034
638.3972, 2410.794
638.8793, 2407.675
639.3615, 2405.128
639.8436, 2403.960
640.3257, 2403.077
640.8078, 2399.704
641.2899, 2394.211
641.7720, 2389.208
642.2542, 2386.402
642.7363, 2384.408
643.2184, 2381.510
643.7005, 2377.866
644.1826, 2374.288
644.6647, 2371.261
645.1469, 2368.423
645.6290, 2365.458
646.1111, 2362.359
646.5932, 2359.534
647.0753, 2356.981
647.5574, 2354.849
648.0396, 2353.375
648.5217, 2353.066
649.0038, 2351.787
649.4859, 2349.146
649.9680, 2346.210
650.4501, 2344.440
650.9323, 2343.727
651.4144, 2342.861
651.8965, 2341.632
652.3786, 2340.043
652.8607, 2337.550
653.3428, 2334.731
653.8250, 2332.987
654.3071, 2334.685
654.7892, 2336.129
655.2713, 2333.791
655.7534, 2329.051
656.2355, 2326.555
656.7177, 2331.499
657.1998, 2335.213
657.6819, 2333.421
658.1640, 2326.200
658.6461, 2322.602
659.1282, 2324.185
659.6104, 2326.421
660.0925, 2326.573
660.5746, 2324.555
661.0567, 2323.208
661.5388, 2322.531
662.0209, 2322.352
662.5031, 2323.156
662.9852, 2324.258
663.4673, 2323.993
663.9494, 2321.915
664.4315, 2319.176
664.9136, 2316.553
665.3958, 2313.867
665.8779, 2310.878
666.3600, 2306.262
666.8421, 2302.903
667.3242, 2302.380
667.8063, 2303.507
668.2885, 2303.652
668.7706, 2302.254
669.2527, 2301.009
669.7348, 2300.475
670.2169, 2300.297
670.6990, 2298.805
671.1812, 2295.837
671.6633, 2293.721
672.1454, 2294.649
672.6275, 2296.919
673.1096, 2295.916
673.5917, 2292.042
674.0739, 2289.023
674.5560, 2290.303
675.0381, 2292.949
675.5202, 2294.668
676.0023, 2295.191
676.4844, 2294.670
676.9666, 2291.691
677.4487, 2288.689
677.9308, 2287.538
678.4129, 2289.346
678.8950, 2290.404
679.3771, 2290.586
679.8593, 2290.223
680.3414, 2289.794
680.8235, 2289.331
681.3056, 2287.711
681.7877, 2284.198
682.2698, 2281.042
682.7520, 2282.644
683.2341, 2287.386
683.7162, 2290.556
684.1983, 2289.365
684.6804, 2287.484
685.1625, 2287.855
685.6447, 2289.574
686.1268, 2290.513
686.6089, 2288.543
687.0910, 2287.190
687.5731, 2288.446
688.0552, 2291.551
688.5374, 2292.198
689.0195, 2289.343
689.5016, 2286.242
689.9837, 2284.086
690.4658, 2282.851
690.9479, 2282.499
691.4301, 2283.065
691.9122, 2284.146
692.3943, 2286.509
692.8764, 2288.880
693.3585, 2288.529
693.8406, 2285.254
694.3228, 2282.061
694.8049, 2280.847
695.2870, 2280.655
695.7691, 2280.786
696.2512, 2281.486
696.7333, 2281.540
697.2155, 2279.510
697.6976, 2277.614
698.1797, 2277.955
698.6618, 2281.344
699.1439, 2284.372
699.6260, 2286.838
700.1082, 2288.617
700.5903, 2289.343
701.0724, 2289.114
701.5545, 2288.432
702.0366, 2286.903
702.5187, 2286.021
703.0009, 2289.163
703.4830, 2294.209
703.9651, 2296.654
704.4472, 2291.534
704.9293, 2286.605
705.4114, 2285.129
705.8936, 2286.568
706.3757, 2288.764
706.8578, 2292.802
707.3399, 2295.690
707.8220, 2296.219
708.3041, 2294.834
708.7863, 2294.798
709.2684, 2296.354
709.7505, 2297.359
710.2325, 2296.013
710.7147, 2293.250
711.1968, 2291.999
711.6789, 2292.134
712.1610, 2291.933
712.6431, 2288.698
713.1252, 2285.607
713.6074, 2286.173
714.0895, 2291.239
714.5716, 2294.986
715.0537, 2295.058
715.5358, 2293.887
716.0179, 2293.031
716.5001, 2292.593
716.9822, 2292.148
717.4643, 2291.644
717.9464, 2291.212
718.4285, 2291.172
718.9106, 2291.443
719.3928, 2290.751
719.8749, 2288.567
720.3570, 2287.159
720.8391, 2290.829
721.3212, 2296.596
721.8033, 2299.129
722.2855, 2294.836
722.7676, 2290.879
723.2497, 2291.410
723.7318, 2294.065
724.2139, 2295.298
724.6960, 2292.956
725.1782, 2291.507
725.6603, 2291.531
726.1424, 2292.574
726.6245, 2293.622
727.1066, 2294.615
727.5887, 2296.124
728.0709, 2298.727
728.5530, 2301.367
729.0351, 2301.328
729.5172, 2299.304
729.9993, 2298.040
730.4814, 2300.445
730.9636, 2302.781
731.4457, 2301.542
731.9278, 2297.712
732.4099, 2295.358
732.8920, 2296.666
733.3741, 2298.605
733.8563, 2300.760
734.3384, 2302.958
734.8205, 2302.862
735.3026, 2299.853
735.7847, 2296.570
736.2668, 2293.971
736.7490, 2292.183
737.2311, 2292.497
737.7132, 2294.769
738.1953, 2296.419
738.6774, 2294.185
739.1595, 2291.177
739.6417, 2291.058
740.1238, 2294.192
740.6059, 2297.263
741.0880, 2299.919
741.5701, 2301.398
742.0522, 2300.829
742.5344, 2297.413
743.0165, 2295.648
743.4986, 2296.128
743.9807, 2297.190
744.4628, 2297.522
744.9449, 2297.170
745.4271, 2296.713
745.9092, 2296.179
746.3913, 2295.694
746.8734, 2294.781
747.3555, 2294.175
747.8376, 2295.264
748.3198, 2298.795
748.8019, 2302.250
749.2840, 2305.020
749.7661, 2306.747
750.2482, 2307.020
750.7303, 2304.453
751.2125, 2302.603
751.6946, 2301.512
752.1767, 2301.137
752.6588, 2301.483
753.1409, 2302.570
753.6230, 2304.512
754.1052, 2307.944
754.5873, 2310.533
755.0694, 2307.499
755.5515, 2301.475
756.0336, 2298.140
756.5157, 2300.891
756.9979, 2304.571
757.4800, 2307.642
757.9621, 2309.590
758.4442, 2309.409
758.9263, 2304.085
759.4084, 2300.608
759.8906, 2300.190
760.3727, 2301.776
760.8548, 2303.314
761.3369, 2304.855
761.8190, 2305.609
762.3011, 2305.141
762.7833, 2304.058
763.2654, 2303.312
763.7475, 2302.828
764.2296, 2302.367
764.7117, 2301.293
765.1938, 2300.731
765.6760, 2301.733
766.1581, 2303.799
766.6402, 2305.341
767.1223, 2305.956
767.6044, 2306.133
768.0865, 2305.540
768.5687, 2304.630
769.0508, 2305.714
769.5329, 2309.081
770.0150, 2311.447
770.4971, 2310.924
770.9792, 2308.781
771.4614, 2307.466
771.9435, 2306.803
772.4256, 2306.041
772.9077, 2303.664
773.3898, 2302.038
773.8719, 2303.484
774.3541, 2307.531
774.8362, 2310.053
775.3183, 2309.692
775.8004, 2308.763
776.2825, 2307.999
776.7646, 2307.342
777.2468, 2306.053
777.7289, 2304.070
778.2110, 2302.280
778.6931, 2300.763
779.1752, 2299.943
779.6573, 2301.242
780.1395, 2304.341
780.6216, 2307.097
781.1037, 2308.074
781.5858, 2308.339
782.0679, 2307.872
782.5500, 2306.663
783.0322, 2307.774
783.5143, 2313.716
783.9964, 2318.681
784.4785, 2319.791
784.9606, 2317.278
785.4427, 2316.401
785.9249, 2317.317
786.4070, 2318.097
786.8891, 2316.849
787.3712, 2314.786
787.8533, 2314.478
788.3354, 2315.838
788.8176, 2316.656
789.2997, 2314.994
789.7818, 2312.947
790.2639, 2311.684
790.7460, 2311.313
791.2281, 2311.886
791.7103, 2313.957
792.1924, 2316.000
792.6745, 2316.923
793.1566, 2316.783
793.6387, 2318.127
794.1208, 2321.051
794.6030, 2323.281
795.0851, 2322.355
795.5672, 2319.992
796.0493, 2318.668
796.5314, 2318.541
797.0135, 2318.250
797.4957, 2316.794
797.9778, 2315.315
798.4599, 2314.592
798.9420, 2314.760
799.4241, 2315.005
799.9063, 2315.200
800.3884, 2315.791
800.8705, 2317.410
801.3526, 2319.852
801.8347, 2320.942
802.3168, 2320.634
802.7990, 2320.819
803.2811, 2323.944
803.7632, 2327.739
804.2453, 2329.448
804.7274, 2328.703
805.2095, 2328.201
805.6917, 2329.708
806.1738, 2330.863
806.6559, 2329.854
807.1380, 2326.167
807.6201, 2325.695
808.1022, 2329.413
808.5844, 2333.053
809.0665, 2333.121
809.5486, 2330.637
810.0307, 2328.962
810.5128, 2328.227
810.9949, 2327.856
811.4771, 2327.943
811.9592, 2327.906
812.4413, 2326.916
812.9234, 2324.732
813.4055, 2323.838
813.8876, 2326.112
814.3698, 2328.091
814.8519, 2327.544
815.3340, 2324.329
815.8161, 2324.888
816.2982, 2329.667
816.7803, 2334.174
817.2625, 2334.845
817.7446, 2333.024
818.2267, 2330.509
818.7088, 2327.534
819.1909, 2325.828
819.6730, 2327.767
820.1552, 2330.109
820.6373, 2330.512
821.1194, 2328.555
821.6015, 2327.917
822.0836, 2329.026
822.5657, 2330.707
823.0479, 2332.771
823.5300, 2335.003
824.0121, 2335.435
824.4942, 2334.124
824.9763, 2332.979
825.4584, 2333.865
825.9406, 2335.259
826.4227, 2335.337
826.9048, 2334.174
827.3869, 2333.461
827.8690, 2334.219
828.3511, 2335.090
828.8333, 2335.284
829.3154, 2334.875
829.7975, 2335.849
830.2796, 2338.678
830.7617, 2340.469
831.2438, 2338.324
831.7260, 2334.511
832.2081, 2335.894
832.6902, 2341.526
833.1723, 2346.001
833.6544, 2345.929
834.1365, 2343.927
834.6187, 2340.736
835.1008, 2336.710
835.5829, 2334.274
836.0650, 2334.449
836.5471, 2334.780
837.0292, 2334.523
837.5114, 2333.887
837.9935, 2333.933
838.4756, 2334.628
838.9577, 2334.507
839.4398, 2331.708
839.9219, 2328.705
840.4041, 2329.392
840.8862, 2332.508
841.3683, 2334.186
841.8504, 2330.820
842.3325, 2328.203
842.8146, 2328.560
843.2968, 2331.026
843.7789, 2333.423
844.2610, 2335.704
844.7431, 2338.103
845.2252, 2340.778
845.7073, 2343.347
846.1895, 2344.812
846.6716, 2345.453
847.1537, 2346.259
847.6358, 2347.549
848.1179, 2349.114
848.6000, 2351.425
849.0822, 2353.758
849.5643, 2354.654
850.0464, 2353.298
850.5285, 2351.605
851.0106, 2349.583
851.4927, 2347.640
851.9749, 2346.628
852.4570, 2346.529
852.9391, 2346.454
853.4212, 2346.172
853.9033, 2346.158
854.3854, 2347.360
854.8676, 2349.060
855.3497, 2350.147
855.8318, 2349.626
856.3139, 2349.609
856.7960, 2350.688
857.2781, 2352.261
857.7603, 2353.750
858.2424, 2355.068
858.7245, 2356.587
859.2066, 2358.447
859.6887, 2359.847
860.1708, 2359.600
860.6530, 2358.271
861.1351, 2356.581
861.6172, 2354.260
862.0993, 2353.706
862.5814, 2358.116
863.0635, 2363.523
863.5457, 2366.673
864.0278, 2367.323
864.5099, 2365.983
864.9920, 2361.713
865.4741, 2357.828
865.9562, 2357.808
866.4384, 2360.610
866.9205, 2361.530
867.4026, 2360.389
867.8847, 2359.385
868.3668, 2360.742
868.8489, 2362.418
869.3311, 2362.498
869.8132, 2360.693
870.2953, 2359.885
870.7774, 2361.231
871.2595, 2362.301
871.7416, 2361.834
872.2238, 2360.128
872.7059, 2359.302
873.1880, 2359.358
873.6701, 2359.925
874.1522, 2360.745
874.6343, 2361.995
875.1165, 2364.424
875.5986, 2367.588
876.0807, 2369.598
876.5628, 2368.297
877.0449, 2367.384
877.5270, 2367.728
878.0092, 2369.197
878.4913, 2372.000
878.9734, 2376.429
879.4555, 2379.047
879.9376, 2378.005
880.4197, 2375.627
880.9019, 2375.709
881.3840, 2377.386
881.8661, 2378.641
882.3482, 2377.657
882.8303, 2377.348
883.3124, 2380.005
883.7946, 2383.497
884.2767, 2384.305
884.7588, 2381.382
885.2409, 2379.407
885.7230, 2379.066
886.2051, 2379.614
886.6873, 2380.259
887.1694, 2380.948
887.6515, 2381.308
888.1336, 2380.913
888.6157, 2381.592
889.0978, 2385.301
889.5800, 2390.073
890.0621, 2394.138
890.5442, 2397.347
891.0263, 2399.812
891.5084, 2401.740
891.9905, 2402.429
892.4727, 2400.603
892.9548, 2396.940
893.4369, 2394.120
893.9190, 2392.284
894.4011, 2391.939
894.8832, 2394.380
895.3654, 2397.710
895.8475, 2400.624
896.3296, 2403.026
896.8117, 2404.837
897.2938, 2406.064
897.7759, 2406.731
898.2581, 2406.615
898.7402, 2405.956
899.2223, 2405.620
899.7044, 2405.664
900.1865, 2406.803
900.6686, 2410.454
901.1508, 2414.515
901.6329, 2417.172
902.1150, 2418.748
902.5971, 2420.183
903.0792, 2422.147
903.5613, 2423.265
904.0435, 2422.634
904.5256, 2421.601
905.0077, 2423.340
905.4898, 2427.745
905.9719, 2431.517
906.4540, 2433.887
906.9362, 2435.326
907.4183, 2435.455
907.9004, 2435.282
908.3825, 2436.351
908.8646, 2440.479
909.3467, 2443.008
909.8289, 2441.748
910.3110, 2440.308
910.7931, 2442.187
911.2752, 2447.597
911.7573, 2451.632
912.2394, 2453.958
912.7216, 2455.970
913.2037, 2459.427
913.6858, 2462.984
914.1679, 2464.503
914.6500, 2463.741
915.1321, 2463.750
915.6143, 2465.204
916.0964, 2468.015
916.5785, 2472.611
917.0606, 2478.704
917.5427, 2483.641
918.0248, 2487.419
918.5070, 2490.485
918.9891, 2491.932
919.4712, 2493.716
919.9533, 2499.962
920.4354, 2508.909
920.9175, 2515.300
921.3997, 2514.303
921.8818, 2514.063
922.3639, 2516.561
922.8460, 2521.034
923.3281, 2526.315
923.8102, 2532.469
924.2924, 2538.447
924.7745, 2543.625
925.2566, 2549.501
925.7387, 2559.066
926.2208, 2570.195
926.7029, 2579.031
927.1851, 2583.293
927.6672, 2589.254
928.1493, 2600.563
928.6314, 2612.688
929.1135, 2622.092
929.5956, 2627.989
930.0778, 2637.811
930.5599, 2652.000
931.0420, 2666.234
931.5241, 2676.441
932.0062, 2684.665
932.4883, 2692.736
932.9705, 2701.082
933.4526, 2711.843
933.9347, 2729.429
934.4168, 2745.716
934.8989, 2756.897
935.3810, 2764.402
935.8632, 2774.863
936.3453, 2788.594
936.8274, 2801.138
937.3095, 2809.938
937.7916, 2817.995
938.2737, 2831.279
938.7559, 2846.407
939.2380, 2856.460
939.7201, 2854.762
940.2022, 2853.184
940.6843, 2854.232
941.1664, 2855.801
941.6486, 2855.977
942.1307, 2854.821
942.6128, 2850.110
943.0949, 2841.317
943.5770, 2830.516
944.0591, 2819.123
944.5413, 2807.149
945.0234, 2794.296
945.5055, 2780.503
945.9876, 2766.840
946.4697, 2754.275
946.9518, 2741.081
947.4340, 2726.029
947.9161, 2709.531
948.3982, 2695.568
948.8803, 2684.102
949.3624, 2672.872
949.8445, 2660.391
950.3267, 2647.667
950.8088, 2634.664
951.2909, 2622.329
951.7730, 2613.264
952.2551, 2612.258
952.7372, 2608.944
953.2194, 2600.801
953.7015, 2590.868
954.1836, 2584.071
954.6657, 2580.273
955.1478, 2578.455
955.6299, 2578.975
956.1121, 2578.599
956.5942, 2573.086
957.0763, 2565.933
957.5583, 2560.726
958.0405, 2558.332
958.5226, 2557.219
959.0047, 2558.052
959.4868, 2558.706
959.9689, 2557.514
960.4510, 2554.909
960.9332, 2553.517
961.4153, 2553.235
961.8974, 2553.196
962.3795, 2553.177
962.8616, 2552.929
963.3438, 2551.346
963.8259, 2549.290
964.3080, 2550.159
964.7901, 2555.582
965.2722, 2560.098
965.7543, 2562.335
966.2365, 2563.594
966.7186, 2565.516
967.2007, 2568.339
967.6828, 2573.154
968.1649, 2580.886
968.6470, 2588.250
969.1292, 2592.614
969.6113, 2596.233
970.0934, 2601.083
970.5755, 2607.387
971.0576, 2614.372
971.5397, 2622.269
972.0219, 2630.074
972.5040, 2636.569
972.9861, 2642.724
973.4682, 2650.553
973.9503, 2659.916
974.4324, 2669.793
974.9146, 2678.542
975.3967, 2689.135
975.8788, 2703.329
976.3609, 2720.004
976.8430, 2736.392
977.3251, 2752.132
977.8073, 2769.790
978.2894, 2790.029
978.7715, 2811.810
979.2536, 2833.347
979.7357, 2856.083
980.2178, 2882.516
980.7000, 2913.781
981.1821, 2946.593
981.6642, 2980.282
982.1463, 3015.993
982.6284, 3054.648
983.1105, 3096.246
983.5927, 3139.575
984.0748, 3184.896
984.5569, 3233.947
985.0390, 3290.182
985.5211, 3349.374
986.0032, 3406.632
986.4854, 3462.946
986.9675, 3523.613
987.4496, 3587.673
987.9317, 3658.977
988.4138, 3738.912
988.8959, 3824.157
989.3781, 3907.249
989.8602, 3990.195
990.3423, 4079.000
990.8244, 4177.005
991.3065, 4275.705
991.7886, 4369.818
992.2708, 4462.286
992.7529, 4559.445
993.2350, 4665.393
993.7171, 4752.086
994.1992, 4817.438
994.6813, 4870.439
995.1635, 4920.403
995.6456, 4960.247
996.1277, 4979.429
996.6098, 4977.847
997.0919, 4956.328
997.5740, 4908.698
998.0562, 4848.068
998.5383, 4777.875
999.0204, 4697.967
999.5025, 4604.276
999.9846, 4498.205
1000.467, 4392.785
1000.949, 4291.267
1001.431, 4192.140
1001.913, 4091.855
1002.395, 3994.872
1002.877, 3904.647
1003.359, 3824.480
1003.842, 3746.297
1004.324, 3668.166
1004.806, 3595.170
1005.288, 3530.499
1005.770, 3473.461
1006.252, 3425.830
1006.734, 3385.827
1007.216, 3347.599
1007.698, 3306.706
1008.181, 3267.016
1008.663, 3229.273
1009.145, 3194.240
1009.627, 3162.892
1010.109, 3135.922
1010.591, 3108.815
1011.073, 3081.052
1011.555, 3054.691
1012.038, 3034.488
1012.520, 3016.958
1013.002, 2995.247
1013.484, 2968.447
1013.966, 2944.075
1014.448, 2927.199
1014.930, 2911.255
1015.412, 2893.450
1015.894, 2874.648
1016.377, 2859.208
1016.859, 2847.090
1017.341, 2836.810
1017.823, 2828.747
1018.305, 2820.927
1018.787, 2810.729
1019.269, 2799.785
1019.751, 2790.589
1020.234, 2784.051
1020.716, 2778.139
1021.198, 2772.704
1021.680, 2768.079
1022.162, 2765.262
1022.644, 2763.375
1023.126, 2759.929
1023.608, 2754.912
1024.090, 2749.839
1024.573, 2745.257
1025.055, 2741.041
1025.537, 2737.440
1026.019, 2734.104
1026.501, 2729.819
1026.983, 2724.523
1027.465, 2719.412
1027.947, 2714.856
1028.430, 2710.463
1028.912, 2705.056
1029.394, 2699.841
1029.876, 2696.448
1030.358, 2695.811
1030.840, 2695.271
1031.322, 2695.098
1031.804, 2694.140
1032.286, 2690.850
1032.769, 2686.221
1033.251, 2685.259
1033.733, 2687.321
1034.215, 2688.794
1034.697, 2685.436
1035.179, 2683.466
1035.661, 2686.457
1036.143, 2692.883
1036.625, 2700.200
1037.108, 2709.062
1037.590, 2714.563
1038.072, 2715.541
1038.554, 2716.188
1039.036, 2721.356
1039.518, 2728.704
1040.000, 2734.813
1040.482, 2739.296
1040.965, 2745.320
1041.447, 2753.651
1041.929, 2763.590
1042.411, 2775.175
1042.893, 2788.181
1043.375, 2801.697
1043.857, 2816.126
1044.339, 2832.633
1044.822, 2852.896
1045.304, 2873.246
1045.786, 2891.302
1046.268, 2908.362
1046.750, 2925.202
1047.232, 2940.881
1047.714, 2961.120
1048.196, 2986.542
1048.678, 3012.195
1049.161, 3033.965
1049.643, 3053.990
1050.125, 3075.065
1050.607, 3097.129
1051.089, 3119.834
1051.571, 3145.648
1052.053, 3168.646
1052.535, 3187.928
1053.017, 3204.381
1053.500, 3218.723
1053.982, 3231.138
1054.464, 3242.486
1054.946, 3253.009
1055.428, 3261.672
1055.910, 3270.665
1056.392, 3275.155
1056.874, 3269.937
1057.357, 3256.198
1057.839, 3246.116
1058.321, 3240.450
1058.803, 3231.064
1059.285, 3213.899
1059.767, 3192.625
1060.249, 3169.688
1060.731, 3146.345
1061.214, 3124.606
1061.696, 3106.722
1062.178, 3087.558
1062.660, 3066.187
1063.142, 3044.771
1063.624, 3024.146
1064.106, 3004.624
1064.588, 2989.133
1065.070, 2976.827
1065.552, 2962.762
1066.035, 2941.417
1066.517, 2920.830
1066.999, 2904.125
1067.481, 2890.154
1067.963, 2877.345
1068.445, 2865.840
1068.927, 2854.999
1069.409, 2844.987
1069.892, 2833.777
1070.374, 2816.345
1070.856, 2798.975
1071.338, 2788.597
1071.820, 2786.391
1072.302, 2781.636
1072.784, 2773.011
1073.266, 2764.509
1073.749, 2757.572
1074.231, 2751.525
1074.713, 2744.159
1075.195, 2736.551
1075.677, 2731.019
1076.159, 2729.098
1076.641, 2727.647
1077.123, 2726.287
1077.605, 2724.624
1078.088, 2722.566
1078.570, 2720.051
1079.052, 2715.813
1079.534, 2710.034
1080.016, 2704.767
1080.498, 2701.461
1080.980, 2698.740
1081.462, 2695.575
1081.944, 2692.452
1082.427, 2690.594
1082.909, 2690.467
1083.391, 2689.198
1083.873, 2686.208
1084.355, 2683.604
1084.837, 2684.306
1085.319, 2686.185
1085.801, 2686.883
1086.283, 2686.191
1086.766, 2684.170
1087.248, 2679.384
1087.730, 2676.130
1088.212, 2676.111
1088.694, 2677.469
1089.176, 2676.401
1089.658, 2673.652
1090.140, 2671.145
1090.623, 2669.356
1091.105, 2667.839
1091.587, 2666.281
1092.069, 2665.090
1092.551, 2664.540
1093.033, 2664.586
1093.515, 2664.909
1093.997, 2665.479
1094.479, 2665.979
1094.962, 2666.661
1095.444, 2666.681
1095.926, 2665.731
1096.408, 2663.544
1096.890, 2659.235
1097.372, 2651.043
1097.854, 2647.647
1098.336, 2649.884
1098.818, 2653.001
1099.301, 2653.263
1099.783, 2651.987
1100.265, 2650.502
1100.747, 2648.994
1101.229, 2647.897
1101.711, 2647.911
1102.193, 2647.375
1102.675, 2645.903
1103.158, 2644.085
1103.640, 2642.660
1104.122, 2641.548
1104.604, 2640.386
1105.086, 2639.087
1105.568, 2638.505
1106.050, 2639.803
1106.532, 2640.957
1107.015, 2640.983
1107.497, 2640.253
1107.979, 2639.998
1108.461, 2640.180
1108.943, 2640.625
1109.425, 2641.385
1109.907, 2642.093
1110.389, 2643.217
1110.871, 2643.644
1111.354, 2641.723
1111.836, 2637.172
1112.318, 2635.853
1112.800, 2637.902
1113.282, 2641.452
1113.764, 2647.363
1114.246, 2652.241
1114.728, 2650.747
1115.210, 2645.946
1115.693, 2643.325
1116.175, 2645.585
1116.657, 2645.844
1117.139, 2643.289
1117.621, 2640.911
1118.103, 2642.218
1118.585, 2644.956
1119.067, 2644.708
1119.550, 2642.039
1120.032, 2640.112
1120.514, 2640.300
1120.996, 2641.200
1121.478, 2643.011
1121.960, 2644.885
1122.442, 2645.776
1122.924, 2645.732
1123.406, 2644.106
1123.889, 2640.888
1124.371, 2639.561
1124.853, 2644.324
1125.335, 2648.797
1125.817, 2649.745
1126.299, 2651.877
1126.781, 2652.446
1127.263, 2651.143
1127.745, 2651.094
1128.228, 2647.247
1128.710, 2644.294
1129.192, 2646.171
1129.674, 2650.225
1130.156, 2655.072
1130.638, 2660.500
1131.120, 2662.218
1131.602, 2659.919
1132.085, 2658.714
1132.567, 2661.746
1133.049, 2665.082
1133.531, 2664.295
1134.013, 2661.410
1134.495, 2659.184
1134.977, 2658.257
1135.459, 2657.093
1135.942, 2655.476
1136.424, 2654.603
1136.906, 2656.085
1137.388, 2658.315
1137.870, 2658.377
1138.352, 2657.163
1138.834, 2656.790
1139.316, 2658.606
1139.798, 2660.263
1140.281, 2661.566
1140.763, 2662.840
1141.245, 2664.840
1141.727, 2666.903
1142.209, 2666.753
1142.691, 2664.813
1143.173, 2664.371
1143.655, 2668.523
1144.137, 2672.079
1144.620, 2674.083
1145.102, 2674.696
1145.584, 2673.138
1146.066, 2670.337
1146.548, 2670.176
1147.030, 2673.152
1147.512, 2676.871
1147.994, 2681.239
1148.477, 2684.582
1148.959, 2686.094
1149.441, 2686.249
1149.923, 2685.964
1150.405, 2685.366
1150.887, 2685.921
1151.369, 2688.302
1151.851, 2689.853
1152.333, 2687.671
1152.816, 2684.702
1153.298, 2682.265
1153.780, 2680.698
1154.262, 2685.003
1154.744, 2695.156
1155.226, 2700.918
1155.708, 2696.638
1156.190, 2690.681
1156.672, 2690.500
1157.155, 2692.735
1157.637, 2693.817
1158.119, 2693.663
1158.601, 2691.803
1159.083, 2688.121
1159.565, 2684.276
1160.047, 2680.001
1160.529, 2677.426
1161.012, 2681.521
1161.494, 2688.114
1161.976, 2689.795
1162.458, 2682.385
1162.940, 2678.202
1163.422, 2677.449
1163.904, 2678.797
1164.386, 2682.129
1164.869, 2686.344
1165.351, 2690.428
1165.833, 2694.114
1166.315, 2696.647
1166.797, 2697.492
1167.279, 2697.644
1167.761, 2696.775
1168.243, 2696.215
1168.725, 2698.118
1169.208, 2700.822
1169.690, 2701.108
1170.172, 2699.279
1170.654, 2697.725
1171.136, 2697.727
1171.618, 2697.184
1172.100, 2695.623
1172.582, 2693.860
1173.064, 2692.358
1173.547, 2691.702
1174.029, 2693.845
1174.511, 2698.823
1174.993, 2702.526
1175.475, 2702.297
1175.957, 2702.219
1176.439, 2703.550
1176.921, 2705.132
1177.404, 2703.784
1177.886, 2701.042
1178.368, 2701.891
1178.850, 2707.555
1179.332, 2711.610
1179.814, 2710.456
1180.296, 2708.161
1180.778, 2705.718
1181.260, 2703.587
1181.743, 2703.430
1182.225, 2704.661
1182.707, 2704.938
1183.189, 2703.321
1183.671, 2702.493
1184.153, 2705.017
1184.635, 2707.337
1185.117, 2707.624
1185.599, 2706.280
1186.082, 2703.986
1186.564, 2701.419
1187.046, 2702.196
1187.528, 2709.330
1188.010, 2715.531
1188.492, 2715.741
1188.974, 2714.873
1189.456, 2716.248
1189.939, 2719.539
1190.421, 2722.476
1190.903, 2724.934
1191.385, 2725.849
1191.867, 2723.462
1192.349, 2721.542
1192.831, 2722.227
1193.313, 2724.112
1193.796, 2726.642
1194.278, 2729.798
1194.760, 2728.311
1195.242, 2722.788
1195.724, 2718.958
1196.206, 2721.367
1196.688, 2724.763
1197.170, 2726.836
1197.652, 2728.272
1198.135, 2729.828
1198.617, 2731.494
1199.099, 2733.005
1199.581, 2734.317
1200.063, 2735.071
1200.545, 2735.149
1201.027, 2734.523
1201.509, 2732.190
1201.991, 2729.716
1202.474, 2729.445
1202.956, 2731.420
1203.438, 2734.093
1203.920, 2737.347
1204.402, 2740.073
1204.884, 2740.241
1205.366, 2740.945
1205.848, 2745.317
1206.331, 2751.009
1206.813, 2753.581
1207.295, 2753.046
1207.777, 2751.971
1208.259, 2750.582
1208.741, 2749.136
1209.223, 2747.138
1209.705, 2745.783
1210.188, 2746.159
1210.670, 2747.686
1211.152, 2749.176
1211.634, 2750.649
1212.116, 2753.692
1212.598, 2758.774
1213.080, 2762.009
1213.562, 2756.608
1214.044, 2752.099
1214.526, 2757.203
1215.009, 2767.664
1215.491, 2771.259
1215.973, 2768.286
1216.455, 2766.906
1216.937, 2768.834
1217.419, 2771.147
1217.901, 2771.011
1218.383, 2771.223
1218.866, 2774.538
1219.348, 2779.569
1219.830, 2781.122
1220.312, 2779.441
1220.794, 2778.802
1221.276, 2780.437
1221.758, 2781.967
1222.240, 2781.189
1222.723, 2780.271
1223.205, 2780.774
1223.687, 2782.374
1224.169, 2783.679
1224.651, 2784.700
1225.133, 2785.194
1225.615, 2784.781
1226.097, 2785.268
1226.579, 2789.185
1227.062, 2793.066
1227.544, 2794.289
1228.026, 2796.949
1228.508, 2798.497
1228.990, 2798.515
1229.472, 2800.034
1229.954, 2797.695
1230.436, 2796.161
1230.918, 2799.045
1231.401, 2802.734
1231.883, 2804.896
1232.365, 2805.767
1232.847, 2806.696
1233.329, 2807.658
1233.811, 2808.417
1234.293, 2808.385
1234.775, 2809.571
1235.258, 2814.727
1235.740, 2819.724
1236.222, 2822.348
1236.704, 2822.780
1237.186, 2821.305
1237.668, 2818.299
1238.150, 2814.895
1238.632, 2810.076
1239.115, 2808.413
1239.597, 2815.658
1240.079, 2822.149
1240.561, 2821.043
1241.043, 2815.084
1241.525, 2815.973
1242.007, 2822.105
1242.489, 2827.949
1242.971, 2831.921
1243.453, 2834.308
1243.936, 2834.379
1244.418, 2834.083
1244.900, 2833.871
1245.382, 2834.477
1245.864, 2839.552
1246.346, 2847.521
1246.828, 2854.063
1247.310, 2857.781
1247.793, 2859.369
1248.275, 2857.903
1248.757, 2856.676
1249.239, 2858.555
1249.721, 2862.031
1250.203, 2863.009
1250.685, 2862.493
1251.167, 2862.854
1251.650, 2865.823
1252.132, 2868.156
1252.614, 2869.695
1253.096, 2870.834
1253.578, 2871.264
1254.060, 2871.878
1254.542, 2875.168
1255.024, 2879.721
1255.506, 2882.445
1255.989, 2880.787
1256.471, 2880.883
1256.953, 2883.220
1257.435, 2885.177
1257.917, 2883.816
1258.399, 2881.756
1258.881, 2882.670
1259.363, 2883.046
1259.845, 2884.506
1260.328, 2887.466
1260.810, 2889.890
1261.292, 2894.992
1261.774, 2899.496
1262.256, 2900.201
1262.738, 2900.121
1263.220, 2901.622
1263.702, 2904.573
1264.185, 2909.140
1264.667, 2916.378
1265.149, 2918.561
1265.631, 2915.450
1266.113, 2912.814
1266.595, 2915.638
1267.077, 2919.104
1267.559, 2919.462
1268.042, 2918.668
1268.524, 2919.527
1269.006, 2922.097
1269.488, 2925.329
1269.970, 2929.123
1270.452, 2931.870
1270.934, 2931.526
1271.416, 2931.278
1271.898, 2932.536
1272.380, 2934.846
1272.863, 2938.625
1273.345, 2943.420
1273.827, 2944.769
1274.309, 2943.052
1274.791, 2941.317
1275.273, 2938.390
1275.755, 2939.787
1276.237, 2950.094
1276.720, 2960.292
1277.202, 2960.187
1277.684, 2953.467
1278.166, 2953.730
1278.648, 2959.394
1279.130, 2963.151
1279.612, 2958.945
1280.094, 2957.954
1280.577, 2962.517
1281.059, 2967.559
1281.541, 2967.553
1282.023, 2965.566
1282.505, 2968.672
1282.987, 2974.823
1283.469, 2977.816
1283.951, 2972.210
1284.433, 2972.418
1284.916, 2980.367
1285.398, 2987.376
1285.880, 2984.044
1286.362, 2978.146
1286.844, 2979.233
1287.326, 2984.813
1287.808, 2989.682
1288.290, 2994.117
1288.772, 2994.516
1289.255, 2990.541
1289.737, 2987.764
1290.219, 2991.945
1290.701, 2996.930
1291.183, 2997.855
1291.665, 2996.856
1292.147, 2996.945
1292.629, 2998.109
1293.112, 3001.232
1293.594, 3006.069
1294.076, 3009.933
1294.558, 3010.065
1295.040, 3010.214
1295.522, 3012.492
1296.004, 3015.226
1296.486, 3016.935
1296.969, 3017.756
1297.451, 3017.811
1297.933, 3017.662
1298.415, 3019.682
1298.897, 3028.228
1299.379, 3034.179
1299.861, 3035.644
1300.343, 3035.785
1300.825, 3035.726
1301.307, 3036.024
1301.790, 3039.609
1302.272, 3045.250
1302.754, 3049.700
1303.236, 3051.324
1303.718, 3052.458
1304.200, 3052.560
1304.682, 3052.007
1305.164, 3049.655
##END=



