##NAMES=Hornesite
##RRUFFID=R060724
##IDEAL CHEMISTRY=Mg_3_(As^5+^O_4_)_2_&#183;8H_2_O
##LOCALITY=Huercal Overa, Almeria Province, Spain
##OWNER=RRUFF
##SOURCE=Bob Jenkins
##DESCRIPTION=Stellate aggregate of pearly white bladed crystals associated with green conichalcite
##STATUS=The identification of this mineral is confirmed by single-crystal X-ray diffraction and chemical analysis.
##URL=rruff.info/R060724
##MEASURED CHEMISTRY=(Mg_2.88_Fe_0.10_Mn_0.02_)_Σ=3_(As_1.00_O_4_)_2_·7.82H_2_ ; H_2_O estimated by difference
145.147, 12891.000
145.629, 13057.530
146.111, 13210.770
146.593, 13339.100
147.075, 13447.130
147.557, 13570.980
148.039, 13717.860
148.521, 13873.420
149.004, 14029.320
149.486, 14173.060
149.968, 14328.970
150.450, 14515.500
150.932, 14740.160
151.414, 14922.720
151.896, 15011.300
152.378, 15079.200
152.861, 15198.490
153.343, 15425.900
153.825, 15659.460
154.307, 15870.990
154.789, 16051.360
155.271, 16246.550
155.753, 16453.529
156.235, 16680.939
156.717, 16944.570
157.200, 17281.211
157.682, 17632.580
158.164, 17986.920
158.646, 18396.510
159.128, 18706.500
159.610, 18884.971
160.092, 18932.100
160.574, 18850.439
161.057, 18573.221
161.539, 18202.869
162.021, 17803.920
162.503, 17351.760
162.985, 16917.160
163.467, 16519.600
163.949, 16163.400
164.431, 15851.220
164.913, 15588.510
165.396, 15370.150
165.878, 15191.220
166.360, 15062.740
166.842, 14964.570
167.324, 14888.190
167.806, 14833.640
168.288, 14796.710
168.770, 14783.840
169.253, 14785.580
169.735, 14787.840
170.217, 14776.370
170.699, 14768.160
171.181, 14774.490
171.663, 14795.220
172.145, 14838.630
172.627, 14921.350
173.109, 15032.410
173.592, 15148.690
174.074, 15253.850
174.556, 15359.360
175.038, 15482.980
175.520, 15633.760
176.002, 15783.070
176.484, 15902.420
176.966, 15993.700
177.449, 16066.530
177.931, 16118.410
178.413, 16156.420
178.895, 16196.610
179.377, 16247.590
179.859, 16292.580
180.341, 16308.890
180.823, 16297.760
181.305, 16269.430
181.788, 16225.200
182.270, 16169.060
182.752, 16112.800
183.234, 16068.780
183.716, 16019.230
184.198, 15922.160
184.680, 15776.770
185.162, 15624.140
185.645, 15496.980
186.127, 15393.390
186.609, 15298.180
187.091, 15206.210
187.573, 15119.510
188.055, 15042.000
188.537, 14970.320
189.019, 14923.100
189.501, 14928.050
189.984, 14982.050
190.466, 15045.540
190.948, 15097.170
191.430, 15143.660
191.912, 15223.020
192.394, 15339.420
192.876, 15475.920
193.358, 15600.860
193.840, 15713.010
194.323, 15856.790
194.805, 16051.590
195.287, 16296.630
195.769, 16575.420
196.251, 16891.180
196.733, 17241.930
197.215, 17618.711
197.697, 18022.230
198.180, 18461.330
198.662, 18942.740
199.144, 19471.789
199.626, 20021.010
200.108, 20585.240
200.590, 21175.350
201.072, 21802.350
201.554, 22466.561
202.036, 23179.619
202.519, 23938.590
203.001, 24737.750
203.483, 25649.881
203.965, 26741.590
204.447, 27931.930
204.929, 28949.930
205.411, 29835.070
205.893, 30449.090
206.376, 30656.949
206.858, 30409.381
207.340, 29987.580
207.822, 29386.410
208.304, 28638.250
208.786, 27935.119
209.268, 27292.250
209.750, 26681.230
210.232, 26077.891
210.714, 25485.160
211.197, 24917.590
211.679, 24390.961
212.161, 23901.811
212.643, 23368.439
213.125, 22773.289
213.607, 22169.910
214.089, 21601.961
214.572, 21067.260
215.054, 20570.830
215.536, 20118.471
216.018, 19707.689
216.500, 19330.869
216.982, 18987.289
217.464, 18681.711
217.946, 18417.920
218.428, 18203.600
218.911, 18017.420
219.393, 17854.971
219.875, 17718.279
220.357, 17601.000
220.839, 17510.461
221.321, 17433.471
221.803, 17345.641
222.285, 17235.900
222.767, 17140.930
223.250, 17079.061
223.732, 17062.061
224.214, 17022.180
224.696, 16947.939
225.178, 16859.270
225.660, 16787.410
226.142, 16743.131
226.624, 16697.660
227.107, 16639.051
227.589, 16557.330
228.071, 16492.199
228.553, 16445.789
229.035, 16413.760
229.517, 16388.279
229.999, 16370.990
230.481, 16355.960
230.963, 16338.410
231.445, 16307.820
231.928, 16300.810
232.410, 16321.800
232.892, 16365.360
233.374, 16415.859
233.856, 16468.180
234.338, 16535.439
234.820, 16625.039
235.303, 16743.461
235.785, 16869.789
236.267, 17003.180
236.749, 17145.250
237.231, 17302.320
237.713, 17501.199
238.195, 17675.359
238.677, 17784.689
239.159, 17777.350
239.641, 17817.211
240.124, 17921.150
240.606, 18075.760
241.088, 18237.830
241.570, 18425.961
242.052, 18594.211
242.534, 18711.801
243.016, 18739.971
243.498, 18801.260
243.981, 18926.480
244.463, 19091.000
244.945, 19190.900
245.427, 19218.689
245.909, 19189.369
246.391, 19104.580
246.873, 18933.980
247.355, 18767.881
247.837, 18599.990
248.320, 18438.670
248.802, 18330.900
249.284, 18298.641
249.766, 18292.061
250.248, 18282.850
250.730, 18269.471
251.212, 18257.039
251.694, 18236.590
252.176, 18216.500
252.659, 18241.080
253.141, 18321.461
253.623, 18433.180
254.105, 18566.840
254.587, 18736.070
255.069, 18892.381
255.551, 19023.910
256.033, 19136.689
256.516, 19273.461
256.998, 19439.740
257.480, 19623.150
257.962, 19818.971
258.444, 20040.500
258.926, 20243.850
259.408, 20427.660
259.890, 20590.801
260.372, 20723.699
260.855, 20827.010
261.337, 20899.420
261.819, 20936.420
262.301, 20928.051
262.783, 20910.971
263.265, 20884.570
263.747, 20851.740
264.229, 20831.980
264.711, 20832.529
265.194, 20833.160
265.676, 20819.699
266.158, 20791.551
266.640, 20751.400
267.122, 20693.830
267.604, 20624.250
268.086, 20573.029
268.569, 20537.240
269.051, 20525.949
269.533, 20558.061
270.015, 20651.711
270.497, 20709.529
270.979, 20708.859
271.461, 20663.180
271.943, 20640.250
272.425, 20650.061
272.908, 20657.650
273.390, 20636.520
273.872, 20584.600
274.354, 20518.750
274.836, 20438.920
275.318, 20346.811
275.800, 20248.730
276.282, 20145.010
276.764, 20033.510
277.247, 19908.699
277.729, 19768.711
278.211, 19629.449
278.693, 19490.910
279.175, 19354.150
279.657, 19223.010
280.139, 19097.230
280.621, 18976.820
281.103, 18862.340
281.586, 18753.689
282.068, 18646.641
282.550, 18537.000
283.032, 18431.221
283.514, 18349.600
283.996, 18293.900
284.478, 18249.561
284.960, 18210.301
285.443, 18175.680
285.925, 18134.020
286.407, 18078.859
286.889, 18021.891
287.371, 17992.100
287.853, 17990.340
288.335, 17998.350
288.817, 18004.820
289.299, 18010.311
289.782, 18018.000
290.264, 18027.199
290.746, 18039.939
291.228, 18059.199
291.710, 18084.869
292.192, 18117.971
292.674, 18157.439
293.156, 18204.289
293.638, 18261.699
294.121, 18329.029
294.603, 18408.590
295.085, 18518.270
295.567, 18653.170
296.049, 18772.279
296.531, 18821.990
297.013, 18836.910
297.496, 18909.641
297.978, 19064.391
298.460, 19243.770
298.942, 19373.250
299.424, 19461.039
299.906, 19539.520
300.388, 19623.551
300.870, 19711.160
301.352, 19800.391
301.835, 19893.551
302.317, 19975.740
302.799, 20024.350
303.281, 20047.000
303.763, 20069.600
304.245, 20106.150
304.727, 20149.260
305.209, 20191.211
305.691, 20232.590
306.174, 20265.740
306.656, 20295.180
307.138, 20312.641
307.620, 20300.711
308.102, 20253.279
308.584, 20172.000
309.066, 20052.600
309.548, 19890.449
310.030, 19717.221
310.513, 19557.350
310.995, 19398.650
311.477, 19224.070
311.959, 18999.750
312.441, 18775.590
312.923, 18591.609
313.405, 18451.561
313.887, 18319.221
314.370, 18161.490
314.852, 18002.051
315.334, 17869.650
315.816, 17796.090
316.298, 17734.000
316.780, 17656.939
317.262, 17564.020
317.744, 17483.619
318.226, 17429.180
318.709, 17392.670
319.191, 17366.850
319.673, 17368.189
320.155, 17362.580
320.637, 17330.600
321.119, 17274.141
321.601, 17233.461
322.083, 17238.680
322.565, 17252.090
323.048, 17246.461
323.530, 17183.939
324.012, 17137.211
324.494, 17118.080
324.976, 17125.490
325.458, 17150.500
325.940, 17227.230
326.422, 17297.359
326.905, 17328.990
327.387, 17288.930
327.869, 17247.150
328.351, 17193.711
328.833, 17137.400
329.315, 17113.100
329.797, 17146.680
330.279, 17188.770
330.762, 17217.820
331.244, 17221.320
331.726, 17233.570
332.208, 17259.609
332.690, 17293.859
333.172, 17322.580
333.654, 17347.961
334.136, 17364.600
334.618, 17368.730
335.100, 17355.141
335.583, 17346.000
336.065, 17338.760
336.547, 17338.020
337.029, 17354.090
337.511, 17393.061
337.993, 17432.170
338.475, 17459.330
338.957, 17471.930
339.440, 17509.010
339.922, 17585.100
340.404, 17659.850
340.886, 17667.961
341.368, 17597.830
341.850, 17544.939
342.332, 17548.490
342.814, 17599.631
343.297, 17628.260
343.779, 17629.551
344.261, 17631.850
344.743, 17674.939
345.225, 17755.990
345.707, 17820.199
346.189, 17848.939
346.671, 17853.920
347.153, 17859.080
347.635, 17863.801
348.118, 17887.420
348.600, 17961.801
349.082, 18071.211
349.564, 18161.609
350.046, 18218.039
350.528, 18253.449
351.010, 18276.240
351.492, 18290.109
351.975, 18322.779
352.457, 18417.391
352.939, 18537.551
353.421, 18618.801
353.903, 18639.000
354.385, 18645.650
354.867, 18684.750
355.349, 18748.350
355.832, 18813.221
356.314, 18876.551
356.796, 18931.199
357.278, 18963.891
357.760, 18967.641
358.242, 18978.109
358.724, 19019.320
359.206, 19082.330
359.688, 19152.350
360.171, 19223.301
360.653, 19299.391
361.135, 19385.150
361.617, 19481.930
362.099, 19576.240
362.581, 19666.840
363.063, 19751.119
363.545, 19826.350
364.027, 19893.320
364.510, 19949.150
364.992, 20004.381
365.474, 20057.471
365.956, 20063.410
366.438, 19986.311
366.920, 19876.619
367.402, 19767.250
367.884, 19631.090
368.366, 19530.770
368.849, 19494.721
369.331, 19506.830
369.813, 19489.520
370.295, 19422.359
370.777, 19346.580
371.259, 19278.051
371.741, 19205.740
372.224, 19164.590
372.706, 19167.850
373.188, 19196.801
373.670, 19209.520
374.152, 19197.301
374.634, 19185.289
375.116, 19182.420
375.598, 19189.051
376.080, 19198.760
376.562, 19210.170
377.045, 19226.270
377.527, 19255.711
378.009, 19302.689
378.491, 19336.770
378.973, 19339.990
379.455, 19320.980
379.937, 19335.230
380.419, 19386.439
380.902, 19454.270
381.384, 19528.471
381.866, 19606.939
382.348, 19668.859
382.830, 19698.891
383.312, 19721.180
383.794, 19783.561
384.276, 19883.920
384.759, 20001.830
385.241, 20133.971
385.723, 20271.461
386.205, 20385.211
386.687, 20461.240
387.169, 20537.711
387.651, 20652.990
388.133, 20799.840
388.615, 20961.141
389.098, 21130.449
389.580, 21306.430
390.062, 21488.400
390.544, 21680.381
391.026, 21865.939
391.508, 22018.131
391.990, 22161.699
392.472, 22333.131
392.954, 22567.900
393.437, 22814.930
393.919, 23055.131
394.401, 23285.170
394.883, 23508.221
395.365, 23711.189
395.847, 23913.510
396.329, 24130.301
396.811, 24370.510
397.293, 24618.609
397.776, 24874.590
398.258, 25135.369
398.740, 25398.420
399.222, 25670.029
399.704, 25937.420
400.186, 26195.900
400.668, 26451.070
401.151, 26685.850
401.633, 26900.150
402.115, 27093.641
402.597, 27270.311
403.079, 27433.650
403.561, 27574.801
404.043, 27693.811
404.525, 27792.221
405.007, 27853.080
405.490, 27874.721
405.972, 27861.830
406.454, 27815.980
406.936, 27734.961
407.418, 27639.660
407.900, 27538.150
408.382, 27424.811
408.864, 27270.859
409.346, 27073.801
409.828, 26859.939
410.311, 26639.100
410.793, 26417.990
411.275, 26223.289
411.757, 26061.650
412.239, 25921.711
412.721, 25777.850
413.203, 25635.410
413.685, 25522.320
414.168, 25472.250
414.650, 25452.900
415.132, 25413.971
415.614, 25347.789
416.096, 25298.539
416.578, 25293.590
417.060, 25329.020
417.542, 25398.660
418.025, 25527.211
418.507, 25665.580
418.989, 25768.580
419.471, 25842.760
419.953, 25963.980
420.435, 26208.529
420.917, 26487.400
421.399, 26731.090
421.881, 26890.039
422.364, 27062.439
422.846, 27263.490
423.328, 27494.221
423.810, 27750.631
424.292, 28060.609
424.774, 28374.920
425.256, 28677.350
425.738, 28971.240
426.220, 29254.660
426.703, 29527.730
427.185, 29792.721
427.667, 30052.340
428.149, 30323.699
428.631, 30552.520
429.113, 30730.471
429.595, 30856.789
430.077, 30938.039
430.560, 30982.359
431.042, 30960.850
431.524, 30849.381
432.006, 30646.900
432.488, 30367.369
432.970, 29997.650
433.452, 29575.801
433.934, 29167.811
434.417, 28778.039
434.899, 28378.020
435.381, 27934.811
435.863, 27471.410
436.345, 27053.740
436.827, 26688.350
437.309, 26337.600
437.791, 25949.561
438.273, 25550.920
438.755, 25201.080
439.238, 24944.820
439.720, 24729.400
440.202, 24496.570
440.684, 24254.490
441.166, 24058.039
441.648, 23996.590
442.130, 23964.199
442.612, 23869.381
443.095, 23664.570
443.577, 23448.680
444.059, 23231.330
444.541, 23028.039
445.023, 22869.449
445.505, 22796.910
445.987, 22739.520
446.469, 22671.859
446.952, 22587.859
447.434, 22517.461
447.916, 22464.141
448.398, 22423.160
448.880, 22391.971
449.362, 22378.480
449.844, 22360.420
450.326, 22335.211
450.808, 22303.230
451.290, 22261.750
451.773, 22200.689
452.255, 22155.641
452.737, 22151.689
453.219, 22191.471
453.701, 22232.359
454.183, 22273.461
454.665, 22312.039
455.147, 22344.000
455.630, 22369.381
456.112, 22391.721
456.594, 22392.340
457.076, 22397.449
457.558, 22488.391
458.040, 22663.160
458.522, 22831.760
459.004, 22905.631
459.487, 22929.561
459.969, 22980.961
460.451, 23088.150
460.933, 23208.240
461.415, 23299.010
461.897, 23373.090
462.379, 23461.320
462.861, 23595.570
463.343, 23734.369
463.826, 23852.010
464.308, 23944.189
464.790, 24026.051
465.272, 24104.270
465.754, 24172.211
466.236, 24224.170
466.718, 24254.900
467.200, 24274.949
467.682, 24289.471
468.165, 24296.000
468.647, 24280.410
469.129, 24246.279
469.611, 24184.500
470.093, 24087.279
470.575, 23946.020
471.057, 23795.490
471.539, 23630.420
472.022, 23463.119
472.504, 23315.439
472.986, 23190.301
473.468, 23060.689
473.950, 22920.080
474.432, 22769.430
474.914, 22607.881
475.396, 22434.859
475.878, 22272.689
476.361, 22146.039
476.843, 22044.830
477.325, 21945.100
477.807, 21845.160
478.289, 21739.490
478.771, 21600.010
479.253, 21448.650
479.735, 21339.381
480.217, 21339.000
480.700, 21362.961
481.182, 21337.779
481.664, 21259.449
482.146, 21194.760
482.628, 21194.859
483.110, 21210.910
483.592, 21201.939
484.074, 21127.551
484.556, 21061.609
485.039, 21019.869
485.521, 20996.160
486.003, 20972.770
486.485, 20951.039
486.967, 20926.580
487.449, 20898.270
487.931, 20865.939
488.414, 20829.859
488.896, 20781.520
489.378, 20742.740
489.860, 20744.699
490.342, 20799.211
490.824, 20830.920
491.306, 20822.330
491.788, 20786.430
492.270, 20752.641
492.753, 20721.260
493.235, 20699.500
493.717, 20701.789
494.199, 20716.961
494.681, 20711.260
495.163, 20680.350
495.645, 20644.340
496.127, 20616.980
496.609, 20599.301
497.092, 20595.109
497.574, 20618.070
498.056, 20642.301
498.538, 20648.789
499.020, 20640.381
499.502, 20628.070
499.984, 20613.740
500.466, 20599.570
500.948, 20585.680
501.431, 20568.520
501.913, 20562.350
502.395, 20584.721
502.877, 20614.240
503.359, 20622.971
503.841, 20580.320
504.323, 20558.070
504.805, 20576.580
505.288, 20627.971
505.770, 20656.461
506.252, 20652.090
506.734, 20644.590
507.216, 20653.811
507.698, 20681.770
508.180, 20695.230
508.662, 20686.439
509.145, 20680.320
509.627, 20731.391
510.109, 20828.910
510.591, 20884.561
511.073, 20847.311
511.555, 20765.510
512.037, 20716.240
512.519, 20697.619
513.001, 20694.270
513.484, 20699.240
513.966, 20712.221
514.448, 20736.150
514.930, 20775.869
515.412, 20808.619
515.894, 20815.699
516.376, 20809.381
516.858, 20806.910
517.341, 20807.859
517.823, 20818.010
518.305, 20848.779
518.787, 20896.891
519.269, 20921.699
519.751, 20902.029
520.233, 20877.150
520.715, 20863.689
521.197, 20858.730
521.680, 20877.170
522.162, 20935.119
522.644, 20998.211
523.126, 21010.340
523.608, 20964.131
524.090, 20925.359
524.572, 20908.971
525.054, 20913.900
525.536, 20944.430
526.019, 20999.859
526.501, 21050.961
526.983, 21075.779
527.465, 21081.711
527.947, 21082.520
528.429, 21079.520
528.911, 21071.061
529.393, 21045.211
529.875, 21015.359
530.358, 21001.650
530.840, 21031.750
531.322, 21060.859
531.804, 21067.480
532.286, 21054.930
532.768, 21037.609
533.250, 21020.340
533.732, 20998.840
534.214, 20967.279
534.697, 20914.520
535.179, 20887.119
535.661, 20896.750
536.143, 20923.471
536.625, 20947.789
537.107, 20971.631
537.589, 20988.930
538.071, 20997.740
538.554, 21000.141
539.036, 21000.160
539.518, 20997.221
540.000, 20997.789
540.482, 21002.660
540.964, 21013.270
541.446, 21039.711
541.928, 21082.980
542.411, 21124.320
542.893, 21139.240
543.375, 21141.449
543.857, 21156.811
544.339, 21205.359
544.821, 21246.311
545.303, 21245.000
545.785, 21214.930
546.268, 21188.689
546.750, 21170.010
547.232, 21165.490
547.714, 21187.051
548.196, 21239.330
548.678, 21270.350
549.160, 21251.039
549.642, 21228.449
550.124, 21235.221
550.606, 21295.760
551.089, 21329.600
551.571, 21325.000
552.053, 21299.650
552.535, 21286.131
553.017, 21285.500
553.499, 21287.660
553.981, 21291.830
554.463, 21295.311
554.945, 21286.260
555.428, 21264.820
555.910, 21244.750
556.392, 21238.949
556.874, 21240.811
557.356, 21234.619
557.838, 21213.619
558.320, 21208.949
558.802, 21263.160
559.284, 21343.699
559.767, 21405.250
560.249, 21411.820
560.731, 21416.801
561.213, 21445.150
561.695, 21489.721
562.177, 21517.320
562.659, 21503.250
563.141, 21489.689
563.624, 21493.859
564.106, 21521.221
564.588, 21534.051
565.070, 21524.859
565.552, 21511.221
566.034, 21512.301
566.516, 21529.869
566.998, 21541.971
567.481, 21543.439
567.963, 21540.650
568.445, 21542.420
568.927, 21549.449
569.409, 21566.061
569.891, 21605.330
570.373, 21650.391
570.855, 21676.631
571.338, 21684.820
571.820, 21684.590
572.302, 21668.980
572.784, 21655.400
573.266, 21662.340
573.748, 21705.150
574.230, 21738.211
574.712, 21748.010
575.194, 21739.820
575.677, 21720.250
576.159, 21666.270
576.641, 21632.311
577.123, 21629.461
577.605, 21653.670
578.087, 21688.580
578.569, 21745.891
579.051, 21785.561
579.533, 21777.289
580.016, 21723.439
580.498, 21697.689
580.980, 21702.311
581.462, 21721.020
581.944, 21745.439
582.426, 21771.100
582.908, 21782.500
583.390, 21770.010
583.872, 21755.240
584.355, 21762.939
584.837, 21783.359
585.319, 21796.529
585.801, 21773.910
586.283, 21758.881
586.765, 21779.061
587.247, 21832.680
587.729, 21881.609
588.211, 21920.461
588.694, 21951.039
589.176, 21974.840
589.658, 21992.869
590.140, 22001.311
590.622, 21998.711
591.104, 21988.439
591.586, 21970.689
592.068, 21943.369
592.551, 21928.900
593.033, 21933.779
593.515, 21951.539
593.997, 21968.990
594.479, 21986.770
594.961, 22009.359
595.443, 22045.660
595.925, 22085.090
596.407, 22113.801
596.890, 22131.961
597.372, 22145.279
597.854, 22156.449
598.336, 22165.070
598.818, 22169.740
599.300, 22166.221
599.782, 22168.311
600.265, 22183.160
600.747, 22203.600
601.229, 22220.131
601.711, 22230.160
602.193, 22239.211
602.675, 22242.750
603.157, 22246.920
603.639, 22276.711
604.121, 22336.660
604.604, 22397.900
605.086, 22450.359
605.568, 22492.740
606.050, 22518.340
606.532, 22526.461
607.014, 22530.650
607.496, 22546.891
607.978, 22565.410
608.460, 22565.010
608.943, 22532.721
609.425, 22512.650
609.907, 22547.080
610.389, 22607.551
610.871, 22654.000
611.353, 22661.000
611.835, 22667.730
612.317, 22687.260
612.799, 22715.529
613.282, 22734.000
613.764, 22736.641
614.246, 22739.029
614.728, 22744.670
615.210, 22753.820
615.692, 22780.961
616.174, 22831.779
616.656, 22880.189
617.138, 22901.779
617.621, 22901.400
618.103, 22897.230
618.585, 22888.000
619.067, 22890.730
619.549, 22944.471
620.031, 23019.760
620.513, 23062.980
620.995, 23013.789
621.477, 22969.340
621.960, 22993.850
622.442, 23066.410
622.924, 23125.410
623.406, 23145.539
623.888, 23158.539
624.370, 23175.859
624.852, 23198.131
625.334, 23208.699
625.817, 23196.920
626.299, 23190.789
626.781, 23216.020
627.263, 23276.650
627.745, 23305.141
628.227, 23290.820
628.709, 23273.221
629.191, 23311.420
629.674, 23389.990
630.156, 23451.461
630.638, 23479.779
631.120, 23489.480
631.602, 23482.090
632.084, 23467.160
632.566, 23466.971
633.048, 23495.910
633.531, 23538.131
634.013, 23592.391
634.495, 23657.480
634.977, 23710.551
635.459, 23751.160
635.941, 23776.900
636.423, 23783.080
636.905, 23763.439
637.387, 23750.600
637.870, 23737.051
638.352, 23745.930
638.834, 23822.430
639.316, 23956.770
639.798, 24039.670
640.280, 24043.170
640.762, 24019.250
641.244, 24029.631
641.726, 24066.910
642.209, 24112.010
642.691, 24163.699
643.173, 24215.891
643.655, 24265.770
644.137, 24313.801
644.619, 24362.340
645.101, 24413.289
645.583, 24463.770
646.065, 24514.230
646.548, 24565.760
647.030, 24606.029
647.512, 24628.920
647.994, 24648.859
648.476, 24671.449
648.958, 24694.369
649.440, 24742.500
649.922, 24822.289
650.404, 24902.330
650.887, 24944.170
651.369, 24954.631
651.851, 24955.830
652.333, 24949.350
652.815, 24944.240
653.297, 24945.000
653.779, 24954.311
654.261, 24977.471
654.744, 25050.609
655.226, 25105.330
655.708, 25098.619
656.190, 25038.699
656.672, 25016.820
657.154, 25071.150
657.636, 25119.881
658.118, 25126.830
658.601, 25088.340
659.083, 25070.359
659.565, 25078.029
660.047, 25085.971
660.529, 25072.760
661.011, 25040.820
661.493, 25000.301
661.975, 24951.131
662.458, 24901.580
662.940, 24859.250
663.422, 24823.109
663.904, 24791.061
664.386, 24760.770
664.868, 24738.010
665.350, 24725.160
665.832, 24721.680
666.314, 24726.100
666.797, 24756.320
667.279, 24771.670
667.761, 24754.000
668.243, 24710.850
668.725, 24696.080
669.207, 24715.789
669.689, 24737.920
670.171, 24747.770
670.653, 24745.180
671.135, 24733.039
671.618, 24711.000
672.100, 24678.350
672.582, 24628.590
673.064, 24571.301
673.546, 24514.801
674.028, 24457.061
674.510, 24425.449
674.992, 24475.881
675.474, 24543.230
675.957, 24558.330
676.439, 24447.410
676.921, 24365.109
677.403, 24329.980
677.885, 24325.471
678.367, 24325.590
678.849, 24333.301
679.331, 24330.561
679.814, 24302.160
680.296, 24266.410
680.778, 24289.859
681.260, 24365.240
681.742, 24425.590
682.224, 24406.881
682.706, 24366.420
683.188, 24392.240
683.670, 24477.279
684.153, 24535.439
684.635, 24487.410
685.117, 24423.109
685.599, 24404.230
686.081, 24452.070
686.563, 24489.010
687.045, 24513.660
687.528, 24524.400
688.010, 24514.820
688.492, 24476.900
688.974, 24461.770
689.456, 24478.471
689.938, 24505.811
690.420, 24511.801
690.902, 24501.199
691.384, 24499.461
691.867, 24519.039
692.349, 24538.230
692.831, 24521.510
693.313, 24487.109
693.795, 24475.250
694.277, 24535.900
694.759, 24587.830
695.241, 24590.010
695.723, 24550.400
696.206, 24525.221
696.688, 24524.141
697.170, 24528.119
697.652, 24533.070
698.134, 24539.090
698.616, 24541.311
699.098, 24540.641
699.580, 24534.971
700.062, 24511.910
700.545, 24483.961
701.027, 24491.930
701.509, 24539.471
701.991, 24589.330
702.473, 24615.881
702.955, 24627.279
703.437, 24629.580
703.919, 24616.670
704.402, 24613.029
704.884, 24634.711
705.366, 24664.100
705.848, 24679.859
706.330, 24667.010
706.812, 24671.561
707.294, 24704.350
707.776, 24749.039
708.258, 24774.961
708.741, 24782.490
709.223, 24789.340
709.705, 24800.420
710.187, 24815.490
710.669, 24841.359
711.151, 24872.131
711.633, 24889.439
712.115, 24865.961
712.597, 24842.000
713.080, 24846.711
713.562, 24876.760
714.044, 24896.779
714.526, 24889.689
715.008, 24881.010
715.490, 24879.510
715.972, 24885.189
716.455, 24889.430
716.937, 24890.240
717.419, 24895.170
717.901, 24912.789
718.383, 24939.840
718.865, 24962.480
719.347, 24979.301
719.829, 24994.641
720.311, 25021.670
720.794, 25045.449
721.276, 25043.609
721.758, 25000.320
722.240, 24962.051
722.722, 24943.250
723.204, 24939.340
723.686, 24945.420
724.168, 24972.820
724.651, 24987.160
725.133, 24980.891
725.615, 24965.211
726.097, 24963.980
726.579, 24977.350
727.061, 24975.949
727.543, 24943.199
728.025, 24903.949
728.507, 24904.529
728.990, 24932.211
729.472, 24948.850
729.954, 24919.910
730.436, 24889.820
730.918, 24878.471
731.400, 24886.711
731.882, 24915.350
732.364, 25016.609
732.846, 25080.869
733.328, 25059.340
733.811, 24959.020
734.293, 24909.939
734.775, 24918.689
735.257, 24948.090
735.739, 24986.529
736.221, 25027.029
736.703, 25042.631
737.185, 25033.189
737.667, 25020.859
738.150, 25026.150
738.632, 25035.170
739.114, 25030.039
739.596, 25002.289
740.078, 24994.631
740.560, 25036.490
741.042, 25092.850
741.524, 25136.961
742.007, 25165.590
742.489, 25190.211
742.971, 25209.119
743.453, 25226.410
743.935, 25247.830
744.417, 25271.740
744.899, 25289.670
745.381, 25298.070
745.864, 25302.020
746.346, 25299.631
746.828, 25297.449
747.310, 25307.461
747.792, 25342.891
748.274, 25378.980
748.756, 25408.199
749.238, 25432.619
749.721, 25459.090
750.203, 25509.090
750.685, 25524.080
751.167, 25484.680
751.649, 25412.250
752.131, 25352.150
752.613, 25304.949
753.095, 25291.939
753.577, 25344.131
754.060, 25416.279
754.542, 25427.711
755.024, 25395.910
755.506, 25386.949
755.988, 25444.750
756.470, 25523.230
756.952, 25615.961
757.434, 25717.180
757.916, 25760.449
758.399, 25711.170
758.881, 25650.670
759.363, 25603.801
759.845, 25571.580
760.327, 25586.590
760.809, 25654.789
761.291, 25714.939
761.773, 25708.359
762.255, 25668.689
762.738, 25654.881
763.220, 25670.859
763.702, 25703.070
764.184, 25746.080
764.666, 25800.480
765.148, 25871.480
765.630, 25971.039
766.112, 26039.029
766.594, 26045.439
767.077, 26048.490
767.559, 26094.760
768.041, 26191.090
768.523, 26261.119
769.005, 26296.131
769.487, 26323.980
769.969, 26369.520
770.451, 26430.680
770.934, 26505.609
771.416, 26596.119
771.898, 26690.689
772.380, 26808.410
772.862, 26913.961
773.344, 26970.039
773.826, 26921.490
774.308, 26892.180
774.791, 26893.199
775.273, 26912.131
775.755, 26932.330
776.237, 26953.150
776.719, 26987.939
777.201, 27040.980
777.683, 27105.631
778.165, 27172.189
778.648, 27243.119
779.130, 27324.770
779.612, 27421.391
780.094, 27526.090
780.576, 27639.400
781.058, 27754.609
781.540, 27858.740
782.022, 27914.270
782.504, 28003.961
782.987, 28148.840
783.469, 28326.840
783.951, 28487.510
784.433, 28627.340
784.915, 28758.430
785.397, 28879.930
785.879, 29000.830
786.361, 29135.211
786.843, 29284.801
787.326, 29451.420
787.808, 29641.150
788.290, 29844.529
788.772, 30056.240
789.254, 30277.301
789.736, 30502.730
790.218, 30715.811
790.700, 30958.051
791.182, 31241.150
791.665, 31562.439
792.147, 31919.600
792.629, 32310.990
793.111, 32723.141
793.593, 33153.199
794.075, 33592.789
794.557, 33999.219
795.039, 34391.930
795.521, 34834.250
796.004, 35381.891
796.486, 35972.711
796.968, 36564.441
797.450, 37157.141
797.932, 37813.660
798.414, 38554.539
798.896, 39315.660
799.378, 40082.719
799.860, 40849.449
800.343, 41628.629
800.825, 42417.531
801.307, 43250.719
801.789, 44150.262
802.271, 45098.012
802.753, 46089.090
803.235, 47106.129
803.718, 48117.520
804.200, 49122.340
804.682, 50092.191
805.164, 51016.379
805.646, 51898.641
806.128, 52720.988
806.610, 53524.941
807.092, 54173.941
807.574, 54588.859
808.057, 54783.801
808.539, 54848.250
809.021, 54781.852
809.503, 54548.609
809.985, 54105.070
810.467, 53489.941
810.949, 52729.102
811.431, 51821.480
811.914, 50819.930
812.396, 49671.211
812.878, 48490.039
813.360, 47327.910
813.842, 46183.699
814.324, 45063.949
814.806, 43977.840
815.288, 42915.129
815.770, 41869.191
816.253, 40851.480
816.735, 39899.711
817.217, 39016.211
817.699, 38206.480
818.181, 37506.988
818.663, 36871.551
819.145, 36261.031
819.627, 35667.680
820.109, 35115.090
820.592, 34592.059
821.074, 34115.781
821.556, 33707.660
822.038, 33367.102
822.520, 33040.641
823.002, 32728.859
823.484, 32435.449
823.966, 32164.980
824.448, 31918.160
824.931, 31706.609
825.413, 31533.279
825.895, 31351.250
826.377, 31106.500
826.859, 30867.160
827.341, 30688.340
827.823, 30579.971
828.305, 30467.891
828.787, 30351.600
829.270, 30230.131
829.752, 30097.900
830.234, 29959.391
830.716, 29824.381
831.198, 29694.189
831.680, 29572.539
832.162, 29463.301
832.644, 29362.561
833.127, 29264.920
833.609, 29169.160
834.091, 29084.619
834.573, 29016.789
835.055, 28958.801
835.537, 28912.369
836.019, 28880.199
836.501, 28822.189
836.984, 28730.881
837.466, 28653.180
837.948, 28638.189
838.430, 28659.881
838.912, 28671.869
839.394, 28670.840
839.876, 28660.939
840.358, 28646.170
840.841, 28622.170
841.323, 28581.900
841.805, 28520.561
842.287, 28472.779
842.769, 28436.990
843.251, 28416.400
843.733, 28421.609
844.215, 28447.820
844.697, 28437.180
845.180, 28389.910
845.662, 28366.359
846.144, 28445.029
846.626, 28546.641
847.108, 28586.631
847.590, 28559.141
848.072, 28534.570
848.554, 28528.150
849.036, 28534.580
849.519, 28554.641
850.001, 28588.330
850.483, 28611.930
850.965, 28621.340
851.447, 28652.980
851.929, 28756.961
852.411, 28889.369
852.893, 28957.180
853.375, 28968.391
853.858, 28990.369
854.340, 29062.801
854.822, 29153.631
855.304, 29243.430
855.786, 29332.990
856.268, 29443.980
856.750, 29570.500
857.232, 29731.330
857.714, 29940.980
858.197, 30187.990
858.679, 30430.551
859.161, 30666.090
859.643, 30895.490
860.125, 31049.480
860.607, 31246.520
861.089, 31635.330
861.571, 32169.600
862.054, 32622.881
862.536, 32818.570
863.018, 33066.859
863.500, 33452.910
863.982, 33949.000
864.464, 34401.379
864.946, 34813.500
865.428, 35266.398
865.911, 35795.551
866.393, 36385.070
866.875, 37014.590
867.357, 37685.129
867.839, 38370.281
868.321, 39006.629
868.803, 39724.141
869.285, 40603.660
869.767, 41583.461
870.250, 42547.750
870.732, 43489.801
871.214, 44425.250
871.696, 45352.852
872.178, 46285.930
872.660, 47282.828
873.142, 48303.461
873.624, 49253.020
874.106, 50100.398
874.589, 50843.641
875.071, 51507.988
875.553, 52055.648
876.035, 52431.621
876.517, 52680.262
876.999, 52688.211
877.481, 52427.020
877.963, 51946.051
878.445, 51300.379
878.928, 50493.578
879.410, 49560.590
879.892, 48489.770
880.374, 47347.340
880.856, 46127.090
881.338, 44898.051
881.820, 43743.672
882.302, 42707.469
882.784, 41699.879
883.267, 40704.602
883.749, 39756.980
884.231, 38893.578
884.713, 38114.262
885.195, 37401.051
885.677, 36758.250
886.159, 36182.102
886.641, 35697.160
887.124, 35272.980
887.606, 34874.879
888.088, 34494.840
888.570, 34152.070
889.052, 33864.441
889.534, 33603.328
890.016, 33350.559
890.498, 33109.172
890.981, 32890.391
891.463, 32694.289
891.945, 32518.881
892.427, 32369.539
892.909, 32237.779
893.391, 32108.770
893.873, 31982.449
894.355, 31869.100
894.838, 31775.711
895.320, 31691.619
895.802, 31602.830
896.284, 31512.699
896.766, 31471.029
897.248, 31496.930
897.730, 31495.381
898.212, 31411.590
898.694, 31279.170
899.177, 31177.051
899.659, 31097.480
900.141, 31011.301
900.623, 30864.180
901.105, 30747.971
901.587, 30731.340
902.069, 30785.500
902.551, 30805.789
903.033, 30790.609
903.516, 30739.160
903.998, 30637.529
904.480, 30516.980
904.962, 30432.760
905.444, 30382.080
905.926, 30360.699
906.408, 30389.789
906.890, 30404.439
907.372, 30347.230
907.855, 30254.211
908.337, 30176.301
908.819, 30119.240
909.301, 30078.520
909.783, 30063.320
910.265, 30048.141
910.747, 29986.770
911.229, 29894.641
911.711, 29855.350
912.194, 29888.811
912.676, 29913.350
913.158, 29840.910
913.640, 29741.301
914.122, 29682.980
914.604, 29693.820
915.086, 29681.730
915.568, 29645.119
916.051, 29583.641
916.533, 29481.160
917.015, 29347.150
917.497, 29263.930
917.979, 29230.910
918.461, 29210.600
918.943, 29198.240
919.425, 29171.189
919.907, 29089.721
920.390, 28959.779
920.872, 28885.500
921.354, 28924.699
921.836, 28950.539
922.318, 28918.711
922.800, 28845.221
923.282, 28782.279
923.764, 28730.020
924.247, 28703.430
924.729, 28721.770
925.211, 28751.301
925.693, 28771.770
926.175, 28778.910
926.657, 28764.730
927.139, 28704.301
927.621, 28653.090
928.104, 28620.980
928.586, 28598.570
929.068, 28577.631
929.550, 28557.051
930.032, 28511.881
930.514, 28432.779
930.996, 28353.250
931.478, 28308.270
931.960, 28280.500
932.443, 28248.439
932.925, 28206.881
933.407, 28164.119
933.889, 28113.711
934.371, 28071.779
934.853, 28056.961
935.335, 28066.939
935.817, 28055.289
936.299, 28020.961
936.782, 27983.760
937.264, 27942.109
937.746, 27915.949
938.228, 27944.920
938.710, 28025.170
939.192, 28046.051
939.674, 27943.740
940.156, 27851.500
940.638, 27811.439
941.121, 27815.520
941.603, 27853.240
942.085, 27917.840
942.567, 27942.320
943.049, 27867.580
943.531, 27774.260
944.013, 27729.680
944.495, 27717.670
944.977, 27706.080
945.460, 27682.789
945.942, 27668.350
946.424, 27665.211
946.906, 27671.080
947.388, 27684.721
947.870, 27705.230
948.352, 27731.289
948.834, 27767.070
949.317, 27782.561
949.799, 27731.010
950.281, 27659.750
950.763, 27615.609
951.245, 27610.480
951.727, 27617.020
952.209, 27640.189
952.691, 27663.141
953.174, 27677.910
953.656, 27683.150
954.138, 27659.570
954.620, 27612.170
955.102, 27589.359
955.584, 27653.471
956.066, 27724.211
956.548, 27750.131
957.031, 27734.039
957.513, 27704.869
957.995, 27647.029
958.477, 27623.189
958.959, 27665.150
959.441, 27729.039
959.923, 27703.131
960.405, 27617.580
960.887, 27577.010
961.370, 27649.189
961.852, 27711.221
962.334, 27662.789
962.816, 27580.480
963.298, 27561.090
963.780, 27637.230
964.262, 27691.391
964.744, 27719.480
965.226, 27729.391
965.709, 27731.641
966.191, 27721.430
966.673, 27671.551
967.155, 27580.609
967.637, 27528.369
968.119, 27598.770
968.601, 27680.010
969.083, 27702.301
969.565, 27672.971
970.048, 27681.711
970.530, 27734.279
971.012, 27786.391
971.494, 27822.641
971.976, 27841.779
972.458, 27833.670
972.940, 27807.340
973.422, 27784.740
973.904, 27792.240
974.387, 27780.840
974.869, 27702.600
975.351, 27624.699
975.833, 27653.391
976.315, 27796.551
976.797, 27900.289
977.279, 27943.250
977.761, 27950.410
978.244, 27925.680
978.726, 27889.529
979.208, 27867.539
979.690, 27865.961
980.172, 27858.869
980.654, 27832.250
981.136, 27812.760
981.618, 27817.670
982.101, 27842.119
982.583, 27848.510
983.065, 27839.539
983.547, 27840.801
984.029, 27887.971
984.511, 27932.811
984.993, 27934.270
985.475, 27905.051
985.957, 27881.010
986.440, 27869.301
986.922, 27855.010
987.404, 27832.699
987.886, 27812.820
988.368, 27811.221
988.850, 27825.730
989.332, 27854.080
989.814, 27899.770
990.296, 27937.160
990.779, 27957.971
991.261, 27958.000
991.743, 27924.500
992.225, 27849.971
992.707, 27818.211
993.189, 27835.891
993.671, 27865.029
994.153, 27875.789
994.635, 27884.949
995.118, 27930.010
995.600, 28002.770
996.082, 28070.160
996.564, 28150.240
997.046, 28182.900
997.528, 28127.311
998.010, 28029.250
998.492, 27971.930
998.974, 27955.840
999.457, 27971.000
999.939, 28020.609
1000.421, 28079.260
1000.903, 28137.340
1001.385, 28181.211
1001.867, 28186.721
1002.349, 28130.539
1002.831, 28108.000
1003.314, 28142.689
1003.796, 28181.811
1004.278, 28187.250
1004.760, 28169.240
1005.242, 28191.779
1005.724, 28248.869
1006.206, 28296.230
1006.688, 28310.039
1007.171, 28303.350
1007.653, 28276.561
1008.135, 28235.391
1008.617, 28190.619
1009.099, 28128.150
1009.581, 28116.670
1010.063, 28180.131
1010.545, 28265.840
1011.027, 28313.859
1011.510, 28328.211
1011.992, 28304.609
1012.474, 28229.180
1012.956, 28182.631
1013.438, 28224.949
1013.920, 28276.029
1014.402, 28282.410
1014.884, 28246.670
1015.367, 28262.980
1015.849, 28331.609
1016.331, 28392.020
1016.813, 28416.631
1017.295, 28409.090
1017.777, 28332.350
1018.259, 28227.699
1018.741, 28208.740
1019.223, 28389.869
1019.706, 28488.850
1020.188, 28445.039
1020.670, 28352.990
1021.152, 28349.369
1021.634, 28413.561
1022.116, 28475.910
1022.598, 28526.789
1023.080, 28563.131
1023.563, 28571.090
1024.045, 28572.439
1024.527, 28578.221
1025.009, 28588.150
1025.491, 28623.529
1025.973, 28689.000
1026.455, 28741.430
1026.937, 28751.619
1027.419, 28743.760
1027.901, 28764.490
1028.384, 28794.869
1028.866, 28791.590
1029.348, 28692.711
1029.830, 28627.680
1030.312, 28619.381
1030.794, 28642.090
1031.276, 28678.641
1031.758, 28724.770
1032.241, 28730.250
1032.723, 28689.961
1033.205, 28656.740
1033.687, 28673.971
1034.169, 28710.350
1034.651, 28748.279
1035.133, 28785.369
1035.615, 28805.090
1036.098, 28797.010
1036.580, 28808.381
1037.062, 28864.840
1037.544, 28934.010
1038.026, 28960.221
1038.508, 28955.029
1038.990, 28943.539
1039.472, 28928.400
1039.954, 28916.381
1040.437, 28909.939
1040.919, 28906.699
1041.401, 28901.430
1041.883, 28895.320
1042.365, 28924.561
1042.847, 28989.820
1043.329, 29033.670
1043.811, 28987.520
1044.293, 28929.270
1044.776, 28925.980
1045.258, 28966.881
1045.740, 28979.699
1046.222, 28950.570
1046.704, 28928.551
1047.186, 28927.119
1047.668, 28930.279
1048.150, 28900.160
1048.633, 28859.010
1049.115, 28852.600
1049.597, 28894.340
1050.079, 28955.850
1050.561, 29070.770
1051.043, 29160.051
1051.525, 29168.250
1052.007, 29103.279
1052.490, 29070.039
1052.972, 29066.980
1053.454, 29071.070
1053.936, 29048.529
1054.418, 29046.711
1054.900, 29138.260
1055.382, 29268.721
1055.864, 29313.650
1056.346, 29216.400
1056.828, 29176.320
1057.311, 29221.109
1057.793, 29290.850
1058.275, 29327.180
1058.757, 29337.660
1059.239, 29334.551
1059.721, 29319.760
1060.203, 29298.221
1060.685, 29264.570
1061.168, 29234.230
1061.650, 29208.570
1062.132, 29193.359
1062.614, 29219.221
1063.096, 29279.619
1063.578, 29320.850
1064.060, 29320.199
1064.542, 29305.119
1065.025, 29289.711
1065.507, 29274.119
1065.989, 29257.779
1066.471, 29237.369
1066.953, 29227.340
1067.435, 29227.240
1067.917, 29239.859
1068.399, 29273.039
1068.881, 29316.881
1069.364, 29366.270
1069.846, 29414.461
1070.328, 29438.051
1070.810, 29390.141
1071.292, 29369.891
1071.774, 29397.641
1072.256, 29452.471
1072.738, 29511.711
1073.220, 29570.400
1073.703, 29597.391
1074.185, 29585.990
1074.667, 29576.600
1075.149, 29598.730
1075.631, 29628.850
1076.113, 29648.330
1076.595, 29660.141
1077.077, 29694.109
1077.559, 29752.449
1078.042, 29816.971
1078.524, 29886.131
1079.006, 29950.789
1079.488, 29985.311
1079.970, 30012.750
1080.452, 30068.160
1080.934, 30169.430
1081.416, 30279.789
1081.899, 30392.010
1082.381, 30528.029
1082.863, 30701.631
1083.345, 30911.131
1083.827, 31170.590
1084.309, 31465.539
1084.791, 31743.400
1085.273, 32000.439
1085.755, 32203.609
1086.238, 32360.490
1086.720, 32449.131
1087.202, 32420.580
1087.684, 32279.850
1088.166, 32080.721
1088.648, 31828.221
1089.130, 31574.211
1089.612, 31328.090
1090.094, 31124.730
1090.577, 31006.189
1091.059, 30971.289
1091.541, 30936.109
1092.023, 30896.689
1092.505, 30879.740
1092.987, 30890.020
1093.469, 30936.480
1093.951, 31044.230
1094.434, 31192.680
1094.916, 31350.461
1095.398, 31521.350
1095.880, 31672.961
1096.362, 31799.010
1096.844, 31915.330
1097.326, 32052.740
1097.808, 32189.369
1098.291, 32260.131
1098.773, 32259.949
1099.255, 32164.811
1099.737, 31911.170
1100.219, 31621.801
1100.701, 31289.750
1101.183, 30980.580
1101.665, 30795.289
1102.147, 30731.150
1102.630, 30654.939
1103.112, 30552.529
1103.594, 30453.080
1104.076, 30392.740
1104.558, 30334.539
1105.040, 30229.740
1105.522, 30090.289
1106.004, 30040.449
1106.486, 30100.711
1106.969, 30142.480
1107.451, 30124.211
1107.933, 30087.580
1108.415, 30082.580
1108.897, 30097.520
1109.379, 30119.480
1109.861, 30152.939
1110.343, 30169.500
1110.826, 30172.170
1111.308, 30150.311
1111.790, 30079.949
1112.272, 29992.580
1112.754, 29982.650
1113.236, 30027.609
1113.718, 30056.900
1114.200, 30012.711
1114.682, 29987.320
1115.165, 30016.580
1115.647, 30055.539
1116.129, 30059.430
1116.611, 30031.160
1117.093, 30000.900
1117.575, 29970.939
1118.057, 29963.330
1118.539, 30032.580
1119.021, 30087.721
1119.504, 30060.070
1119.986, 29983.561
1120.468, 29931.660
1120.950, 29905.600
1121.432, 29904.779
1121.914, 29932.680
1122.396, 29966.830
1122.878, 29986.699
1123.361, 30001.980
1123.843, 30022.840
1124.325, 30050.561
1124.807, 30072.850
1125.289, 30086.430
1125.771, 30106.199
1126.253, 30140.730
1126.735, 30175.869
1127.218, 30174.080
1127.700, 30161.789
1128.182, 30189.260
1128.664, 30291.039
1129.146, 30356.359
1129.628, 30355.539
1130.110, 30353.070
1130.592, 30396.301
1131.074, 30461.900
1131.557, 30476.500
1132.039, 30450.539
1132.521, 30421.391
1133.003, 30386.711
1133.485, 30377.789
1133.967, 30430.410
1134.449, 30483.840
1134.931, 30467.980
1135.413, 30393.920
1135.896, 30368.381
1136.378, 30392.539
1136.860, 30416.631
1137.342, 30407.779
1137.824, 30393.141
1138.306, 30381.881
1138.788, 30376.000
1139.270, 30380.400
1139.752, 30394.641
1140.235, 30405.430
1140.717, 30408.859
1141.199, 30418.910
1141.681, 30450.080
1142.163, 30489.811
1142.645, 30536.391
1143.127, 30585.439
1143.609, 30599.270
1144.092, 30575.029
1144.574, 30534.760
1145.056, 30478.949
1145.538, 30428.141
1146.020, 30416.500
1146.502, 30421.131
1146.984, 30410.131
1147.466, 30372.131
1147.948, 30360.600
1148.431, 30381.980
1148.913, 30412.760
1149.395, 30434.551
1149.877, 30466.490
1150.359, 30581.311
1150.841, 30723.131
1151.323, 30781.430
1151.805, 30652.539
1152.287, 30565.010
1152.770, 30528.539
1153.252, 30542.811
1153.734, 30639.260
1154.216, 30779.949
1154.698, 30844.320
1155.180, 30846.699
1155.662, 30843.400
1156.144, 30867.301
1156.627, 30875.211
1157.109, 30851.311
1157.591, 30821.480
1158.073, 30812.650
1158.555, 30824.330
1159.037, 30870.170
1159.519, 30945.051
1160.001, 30976.350
1160.484, 30877.189
1160.966, 30778.980
1161.448, 30727.779
1161.930, 30713.150
1162.412, 30725.199
1162.894, 30759.900
1163.376, 30780.660
1163.858, 30780.961
1164.340, 30781.990
1164.823, 30802.551
1165.305, 30825.939
1165.787, 30843.939
1166.269, 30857.311
1166.751, 30866.961
1167.233, 30873.631
1167.715, 30875.609
1168.197, 30873.480
1168.679, 30864.449
1169.162, 30829.340
1169.644, 30798.119
1170.126, 30805.641
1170.608, 30849.789
1171.090, 30867.430
1171.572, 30854.680
1172.054, 30867.221
1172.536, 30935.730
1173.019, 31024.730
1173.501, 31128.301
1173.983, 31217.039
1174.465, 31245.420
1174.947, 31198.189
1175.429, 31159.730
1175.911, 31128.961
1176.393, 31119.551
1176.875, 31158.980
1177.358, 31208.490
1177.840, 31217.619
1178.322, 31205.510
1178.804, 31210.881
1179.286, 31256.070
1179.768, 31271.230
1180.250, 31247.070
1180.732, 31229.270
1181.214, 31269.270
1181.697, 31328.199
1182.179, 31354.539
1182.661, 31354.471
1183.143, 31355.699
1183.625, 31363.961
1184.107, 31369.381
1184.589, 31369.760
1185.071, 31369.539
1185.554, 31383.471
1186.036, 31394.680
1186.518, 31370.580
1187.000, 31314.250
1187.482, 31264.529
1187.964, 31219.711
1188.446, 31201.859
1188.928, 31220.061
1189.411, 31255.980
1189.893, 31291.381
1190.375, 31323.869
1190.857, 31351.830
1191.339, 31375.471
1191.821, 31376.340
1192.303, 31327.199
1192.785, 31298.859
1193.267, 31313.619
1193.750, 31353.500
1194.232, 31407.430
1194.714, 31455.820
1195.196, 31445.051
1195.678, 31349.990
1196.160, 31310.561
1196.642, 31408.010
1197.124, 31476.279
1197.606, 31435.510
1198.089, 31343.811
1198.571, 31332.859
1199.053, 31380.869
1199.535, 31445.150
1200.017, 31529.529
1200.499, 31576.789
1200.981, 31569.420
1201.463, 31532.330
1201.945, 31457.859
1202.428, 31376.570
1202.910, 31404.410
1203.392, 31499.980
1203.874, 31546.830
1204.356, 31469.070
1204.838, 31412.561
1205.320, 31397.420
1205.802, 31420.051
1206.285, 31505.391
1206.767, 31620.510
1207.249, 31620.490
1207.731, 31541.609
1208.213, 31504.131
1208.695, 31612.820
1209.177, 31690.430
1209.659, 31698.721
1210.141, 31685.301
1210.624, 31685.881
1211.106, 31698.820
1211.588, 31722.971
1212.070, 31755.160
1212.552, 31783.490
1213.034, 31808.971
1213.516, 31815.641
1213.998, 31778.891
1214.480, 31756.359
1214.963, 31841.160
1215.445, 31987.881
1215.927, 32039.539
1216.409, 32000.330
1216.891, 31943.609
1217.373, 31884.391
1217.855, 31835.250
1218.337, 31794.119
1218.820, 31770.240
1219.302, 31781.721
1219.784, 31819.439
1220.266, 31862.680
1220.748, 31908.039
1221.230, 31934.150
1221.712, 31919.539
1222.194, 31898.789
1222.677, 31876.340
1223.159, 31856.410
1223.641, 31841.119
1224.123, 31834.020
1224.605, 31846.039
1225.087, 31877.760
1225.569, 31916.980
1226.051, 31971.891
1226.533, 32016.510
1227.016, 32046.070
1227.498, 32059.779
1227.980, 32049.180
1228.462, 32024.000
1228.944, 32003.260
1229.426, 31989.650
1229.908, 31990.320
1230.390, 32025.570
1230.872, 32045.900
1231.355, 32028.420
1231.837, 32003.881
1232.319, 32040.039
1232.801, 32108.961
1233.283, 32155.609
1233.765, 32169.461
1234.247, 32163.820
1234.729, 32112.500
1235.212, 32102.490
1235.694, 32179.760
1236.176, 32288.900
1236.658, 32320.900
1237.140, 32307.430
1237.622, 32306.170
1238.104, 32331.600
1238.586, 32352.070
1239.068, 32372.949
1239.551, 32365.990
1240.033, 32306.699
1240.515, 32235.279
1240.997, 32224.211
1241.479, 32250.020
1241.961, 32271.650
1242.443, 32277.680
1242.925, 32303.779
1243.407, 32365.670
1243.890, 32399.029
1244.372, 32354.410
1244.854, 32292.939
1245.336, 32319.311
1245.818, 32390.830
1246.300, 32437.510
1246.782, 32426.400
1247.264, 32467.900
1247.747, 32578.131
1248.229, 32661.770
1248.711, 32665.199
1249.193, 32621.961
1249.675, 32545.189
1250.157, 32463.789
1250.639, 32425.131
1251.121, 32442.811
1251.604, 32470.961
1252.086, 32513.289
1252.568, 32546.779
1253.050, 32559.789
1253.532, 32557.961
1254.014, 32542.270
1254.496, 32516.910
1254.978, 32481.420
1255.460, 32425.840
1255.943, 32422.801
1256.425, 32473.080
1256.907, 32532.561
1257.389, 32585.779
1257.871, 32625.961
1258.353, 32640.189
1258.835, 32641.000
1259.317, 32646.990
1259.799, 32659.760
1260.281, 32659.820
1260.764, 32648.391
1261.246, 32642.211
1261.728, 32669.689
1262.210, 32686.150
1262.692, 32657.869
1263.174, 32613.949
1263.656, 32583.750
1264.138, 32568.039
1264.621, 32564.930
1265.103, 32574.350
1265.585, 32590.461
1266.067, 32624.381
1266.549, 32646.430
1267.031, 32626.490
1267.513, 32606.490
1267.995, 32625.391
1268.478, 32677.090
1268.960, 32732.971
1269.442, 32790.648
1269.924, 32844.301
1270.406, 32894.289
1270.888, 32931.602
1271.370, 32950.309
1271.852, 32961.039
1272.334, 32960.680
1272.817, 32962.551
1273.299, 33031.910
1273.781, 33144.609
1274.263, 33208.301
1274.745, 33136.391
1275.227, 33095.488
1275.709, 33113.270
1276.191, 33135.301
1276.673, 33092.289
1277.156, 33032.051
1277.638, 33063.051
1278.120, 33152.039
1278.602, 33179.590
1279.084, 33066.301
1279.566, 33024.141
1280.048, 33076.121
1280.530, 33147.148
1281.013, 33166.910
1281.495, 33175.309
1281.977, 33237.762
1282.459, 33323.301
1282.941, 33341.328
1283.423, 33261.000
1283.905, 33238.051
1284.387, 33284.379
1284.870, 33329.750
1285.352, 33287.539
1285.834, 33253.371
1286.316, 33334.121
1286.798, 33460.551
1287.280, 33496.039
1287.762, 33434.051
1288.244, 33407.730
1288.726, 33422.609
1289.208, 33444.641
1289.691, 33459.879
1290.173, 33467.930
1290.655, 33468.961
1291.137, 33463.730
1291.619, 33443.578
1292.101, 33411.148
1292.583, 33409.512
1293.065, 33443.531
1293.548, 33483.820
1294.030, 33521.410
1294.512, 33547.641
1294.994, 33561.641
1295.476, 33563.840
1295.958, 33535.320
1296.440, 33493.781
##END=



