##NAMES=Hornesite
##RRUFFID=R060724
##IDEAL CHEMISTRY=Mg_3_(As^5+^O_4_)_2_&#183;8H_2_O
##LOCALITY=Huercal Overa, Almeria Province, Spain
##OWNER=RRUFF
##SOURCE=Bob Jenkins
##DESCRIPTION=Stellate aggregate of pearly white bladed crystals associated with green conichalcite
##STATUS=The identification of this mineral is confirmed by single-crystal X-ray diffraction and chemical analysis.
##URL=rruff.info/R060724
##MEASURED CHEMISTRY=(Mg_2.88_Fe_0.10_Mn_0.02_)_Σ=3_(As_1.00_O_4_)_2_·7.82H_2_ ; H_2_O estimated by difference
145.634, 5792.482
146.116, 6038.260
146.598, 6290.037
147.080, 6530.235
147.562, 6759.064
148.044, 6971.796
148.527, 7162.479
149.009, 7334.241
149.491, 7486.650
149.973, 7629.767
150.455, 7752.298
150.937, 7832.324
151.419, 7862.748
151.901, 7866.828
152.383, 7847.153
152.866, 7813.001
153.348, 7801.052
153.830, 7835.456
154.312, 7901.109
154.794, 7961.408
155.276, 8003.245
155.758, 8060.257
156.240, 8163.820
156.723, 8304.198
157.205, 8451.782
157.687, 8594.453
158.169, 8732.615
158.651, 8877.504
159.133, 9060.932
159.615, 9197.632
160.097, 9235.521
160.579, 9185.637
161.062, 9083.830
161.544, 8937.077
162.026, 8751.427
162.508, 8553.517
162.990, 8325.856
163.472, 8111.891
163.954, 7934.285
164.436, 7791.110
164.919, 7669.642
165.401, 7565.491
165.883, 7477.784
166.365, 7399.743
166.847, 7331.806
167.329, 7274.774
167.811, 7225.877
168.293, 7186.550
168.775, 7161.576
169.258, 7162.710
169.740, 7189.178
170.222, 7202.986
170.704, 7199.364
171.186, 7184.861
171.668, 7154.061
172.150, 7112.835
172.632, 7080.432
173.115, 7072.820
173.597, 7090.565
174.079, 7120.420
174.561, 7179.238
175.043, 7235.493
175.525, 7271.427
176.007, 7290.865
176.489, 7310.169
176.971, 7345.646
177.454, 7398.984
177.936, 7446.353
178.418, 7485.561
178.900, 7519.605
179.382, 7552.331
179.864, 7581.783
180.346, 7601.474
180.828, 7605.612
181.311, 7593.737
181.793, 7571.078
182.275, 7528.288
182.757, 7481.358
183.239, 7439.413
183.721, 7399.428
184.203, 7350.632
184.685, 7280.859
185.167, 7188.100
185.650, 7097.524
186.132, 6996.036
186.614, 6909.179
187.096, 6845.991
187.578, 6805.661
188.060, 6783.344
188.542, 6777.193
189.024, 6788.580
189.507, 6800.012
189.989, 6805.366
190.471, 6816.446
190.953, 6837.036
191.435, 6867.020
191.917, 6903.657
192.399, 6941.327
192.881, 6978.300
193.363, 7046.906
193.846, 7161.979
194.328, 7298.648
194.810, 7449.408
195.292, 7616.058
195.774, 7805.307
196.256, 8024.306
196.738, 8274.571
197.220, 8530.549
197.702, 8764.191
198.185, 9032.578
198.667, 9357.089
199.149, 9732.560
199.631, 10137.920
200.113, 10558.680
200.595, 10996.220
201.077, 11469.740
201.559, 11971.130
202.042, 12526.620
202.524, 13155.780
203.006, 13845.400
203.488, 14574.840
203.970, 15343.900
204.452, 16143.860
204.934, 16837.490
205.416, 17501.900
205.898, 17950.410
206.380, 18095.189
206.863, 17998.580
207.345, 17750.881
207.827, 17396.359
208.309, 16948.590
208.791, 16505.631
209.273, 16061.980
209.755, 15630.240
210.238, 15230.500
210.720, 14843.430
211.202, 14442.260
211.684, 14013.390
212.166, 13561.390
212.648, 13102.990
213.130, 12630.920
213.612, 12166.760
214.094, 11704.340
214.577, 11257.930
215.059, 10838.450
215.541, 10455.040
216.023, 10105.670
216.505, 9779.625
216.987, 9469.751
217.469, 9202.361
217.951, 8990.003
218.434, 8812.647
218.916, 8650.404
219.398, 8494.920
219.880, 8348.403
220.362, 8215.734
220.844, 8094.922
221.326, 7993.207
221.808, 7913.411
222.290, 7848.461
222.773, 7796.330
223.255, 7755.440
223.737, 7718.121
224.219, 7667.386
224.701, 7587.442
225.183, 7528.901
225.665, 7519.311
226.147, 7515.225
226.629, 7480.507
227.112, 7407.205
227.594, 7320.566
228.076, 7254.185
228.558, 7209.712
229.040, 7182.698
229.522, 7190.304
230.004, 7201.317
230.486, 7193.354
230.969, 7165.034
231.451, 7135.596
231.933, 7127.125
232.415, 7142.882
232.897, 7165.588
233.379, 7199.709
233.861, 7236.644
234.343, 7268.316
234.825, 7297.174
235.307, 7335.662
235.790, 7398.667
236.272, 7488.539
236.754, 7576.985
237.236, 7659.308
237.718, 7745.716
238.200, 7842.203
238.682, 7946.736
239.165, 8054.325
239.647, 8162.994
240.129, 8272.448
240.611, 8372.886
241.093, 8461.562
241.575, 8544.284
242.057, 8631.088
242.539, 8714.522
243.021, 8779.905
243.503, 8821.705
243.986, 8838.330
244.468, 8821.640
244.950, 8763.062
245.432, 8684.280
245.914, 8594.388
246.396, 8493.466
246.878, 8378.156
247.361, 8240.950
247.843, 8096.020
248.325, 7971.712
248.807, 7870.369
249.289, 7783.344
249.771, 7712.789
250.253, 7651.784
250.735, 7589.579
251.217, 7518.078
251.699, 7458.444
252.182, 7445.199
252.664, 7485.001
253.146, 7523.336
253.628, 7526.240
254.110, 7528.632
254.592, 7568.213
255.074, 7655.812
255.556, 7749.970
256.039, 7807.729
256.521, 7831.129
257.003, 7865.418
257.485, 7924.634
257.967, 7997.626
258.449, 8074.996
258.931, 8157.105
259.413, 8234.243
259.896, 8297.813
260.378, 8351.368
260.860, 8408.899
261.342, 8477.866
261.824, 8543.594
262.306, 8587.139
262.788, 8611.521
263.270, 8643.422
263.752, 8702.950
264.234, 8774.691
264.717, 8825.973
265.199, 8847.842
265.681, 8874.039
266.163, 8944.657
266.645, 9048.794
267.127, 9137.108
267.609, 9193.940
268.091, 9234.405
268.574, 9270.606
269.056, 9303.214
269.538, 9336.735
270.020, 9372.604
270.502, 9412.157
270.984, 9457.994
271.466, 9531.226
271.948, 9592.132
272.431, 9614.058
272.913, 9601.882
273.395, 9575.684
273.877, 9544.276
274.359, 9506.866
274.841, 9460.922
275.323, 9417.463
275.805, 9352.800
276.287, 9251.960
276.770, 9125.731
277.252, 8988.999
277.734, 8844.297
278.216, 8703.000
278.698, 8588.917
279.180, 8514.984
279.662, 8442.719
280.144, 8373.681
280.626, 8302.108
281.109, 8218.061
281.591, 8120.360
282.073, 8022.182
282.555, 7941.358
283.037, 7883.984
283.519, 7824.862
284.001, 7753.657
284.483, 7689.124
284.966, 7647.608
285.448, 7626.049
285.930, 7606.335
286.412, 7573.100
286.894, 7525.647
287.376, 7474.336
287.858, 7410.795
288.340, 7352.398
288.823, 7299.245
289.305, 7256.213
289.787, 7233.784
290.269, 7240.496
290.751, 7268.327
291.233, 7279.192
291.715, 7254.650
292.197, 7237.226
292.679, 7231.438
293.161, 7236.324
293.644, 7253.366
294.126, 7283.164
294.608, 7318.110
295.090, 7342.405
295.572, 7349.177
296.054, 7363.481
296.536, 7389.410
297.018, 7422.547
297.501, 7459.246
297.983, 7499.350
298.465, 7546.695
298.947, 7611.651
299.429, 7696.509
299.911, 7761.087
300.393, 7789.173
300.875, 7809.027
301.358, 7834.464
301.840, 7864.748
302.322, 7895.163
302.804, 7921.638
303.286, 7945.820
303.768, 7976.178
304.250, 8020.034
304.732, 8053.332
305.214, 8053.200
305.697, 8035.220
306.179, 8025.560
306.661, 8043.910
307.143, 8061.674
307.625, 8041.356
308.107, 7982.348
308.589, 7913.795
309.071, 7845.068
309.553, 7776.117
310.036, 7709.426
310.518, 7648.165
311.000, 7580.848
311.482, 7497.973
311.964, 7403.663
312.446, 7308.514
312.928, 7214.642
313.410, 7124.034
313.892, 7038.540
314.375, 6955.789
314.857, 6886.518
315.339, 6841.453
315.821, 6806.949
316.303, 6767.760
316.785, 6722.074
317.267, 6676.629
317.750, 6635.801
318.232, 6599.805
318.714, 6578.289
319.196, 6588.617
319.678, 6596.057
320.160, 6580.735
320.642, 6547.593
321.124, 6510.652
321.606, 6477.284
322.089, 6449.051
322.571, 6434.998
323.053, 6449.948
323.535, 6461.561
324.017, 6465.313
324.499, 6464.074
324.981, 6458.922
325.463, 6450.734
325.945, 6444.398
326.428, 6451.480
326.910, 6488.029
327.392, 6500.781
327.874, 6467.211
328.356, 6429.998
328.838, 6413.541
329.320, 6418.843
329.802, 6433.766
330.284, 6452.717
330.767, 6475.446
331.249, 6475.070
331.731, 6425.975
332.213, 6386.092
332.695, 6382.356
333.177, 6401.539
333.659, 6420.927
334.141, 6431.270
334.624, 6433.594
335.106, 6426.917
335.588, 6408.174
336.070, 6394.531
336.552, 6400.952
337.034, 6411.567
337.516, 6408.191
337.998, 6385.404
338.480, 6362.495
338.963, 6354.208
339.445, 6358.426
339.927, 6365.631
340.409, 6374.314
340.891, 6384.292
341.373, 6396.584
341.855, 6411.039
342.337, 6422.682
342.819, 6425.831
343.302, 6427.730
343.784, 6437.815
344.266, 6456.665
344.748, 6475.498
345.230, 6484.896
345.712, 6487.308
346.194, 6509.241
346.677, 6578.237
347.159, 6635.908
347.641, 6650.840
348.123, 6637.809
348.605, 6625.593
349.087, 6626.682
349.569, 6638.399
350.051, 6654.569
350.533, 6677.123
351.016, 6701.988
351.498, 6731.242
351.980, 6761.376
352.462, 6791.406
352.944, 6820.126
353.426, 6843.705
353.908, 6855.551
354.390, 6852.867
354.872, 6862.997
355.355, 6902.823
355.837, 6939.727
356.319, 6964.541
356.801, 6979.286
357.283, 6988.091
357.765, 6991.990
358.247, 6993.559
358.729, 6999.136
359.211, 7008.966
359.694, 7022.208
360.176, 7040.357
360.658, 7060.990
361.140, 7083.439
361.622, 7107.819
362.104, 7130.494
362.586, 7149.723
363.069, 7165.127
363.551, 7171.974
364.033, 7164.212
364.515, 7157.450
364.997, 7173.096
365.479, 7205.927
365.961, 7226.295
366.443, 7221.430
366.925, 7202.882
367.408, 7180.674
367.890, 7155.518
368.372, 7128.174
368.854, 7098.351
369.336, 7067.202
369.818, 7039.561
370.300, 7024.611
370.782, 7001.817
371.264, 6958.448
371.747, 6906.049
372.229, 6860.523
372.711, 6826.895
373.193, 6800.740
373.675, 6774.653
374.157, 6743.504
374.639, 6728.122
375.121, 6744.041
375.603, 6759.544
376.086, 6754.137
376.568, 6732.355
377.050, 6712.701
377.532, 6709.623
378.014, 6719.680
378.496, 6721.674
378.978, 6706.432
379.460, 6697.923
379.943, 6709.240
380.425, 6725.716
380.907, 6730.917
381.389, 6719.709
381.871, 6703.235
382.353, 6692.496
382.835, 6687.470
383.317, 6690.870
383.799, 6709.790
384.282, 6729.131
384.764, 6730.660
385.246, 6718.791
385.728, 6720.058
386.210, 6754.170
386.692, 6803.162
387.174, 6841.490
387.656, 6868.204
388.138, 6896.829
388.621, 6936.489
389.103, 6983.830
389.585, 7025.633
390.067, 7047.952
390.549, 7084.167
391.031, 7159.705
391.513, 7252.178
391.996, 7325.683
392.478, 7369.566
392.960, 7402.501
393.442, 7449.182
393.924, 7512.907
394.406, 7579.427
394.888, 7641.140
395.370, 7711.655
395.852, 7804.208
396.335, 7911.231
396.817, 8015.865
397.299, 8107.876
397.781, 8188.258
398.263, 8259.275
398.745, 8312.683
399.227, 8372.796
399.709, 8452.804
400.191, 8535.945
400.674, 8607.356
401.156, 8663.950
401.638, 8716.386
402.120, 8780.366
402.602, 8852.126
403.084, 8898.492
403.566, 8904.929
404.048, 8906.516
404.530, 8937.748
405.013, 8985.710
405.495, 9014.979
405.977, 9014.412
406.459, 8993.009
406.941, 8947.580
407.423, 8884.214
407.905, 8834.074
408.387, 8812.677
408.870, 8809.263
409.352, 8802.002
409.834, 8792.377
410.316, 8776.367
410.798, 8744.632
411.280, 8712.071
411.762, 8692.835
412.244, 8687.569
412.727, 8686.351
413.209, 8678.643
413.691, 8664.863
414.173, 8673.146
414.655, 8717.759
415.137, 8770.051
415.619, 8824.176
416.101, 8883.632
416.583, 8954.754
417.065, 9039.617
417.548, 9132.036
418.030, 9216.332
418.512, 9288.673
418.994, 9396.848
419.476, 9564.835
419.958, 9751.958
420.440, 9920.279
420.922, 10080.620
421.405, 10273.360
421.887, 10543.340
422.369, 10842.270
422.851, 11101.150
423.333, 11319.360
423.815, 11534.580
424.297, 11760.510
424.779, 11996.780
425.262, 12246.520
425.744, 12516.080
426.226, 12782.210
426.708, 13056.050
427.190, 13314.360
427.672, 13532.360
428.154, 13705.870
428.636, 13848.790
429.118, 13978.120
429.601, 14095.790
430.083, 14148.050
430.565, 14124.560
431.047, 14047.960
431.529, 13904.740
432.011, 13717.100
432.493, 13514.860
432.975, 13309.330
433.457, 13083.520
433.940, 12801.380
434.422, 12453.550
434.904, 12116.870
435.386, 11806.330
435.868, 11504.560
436.350, 11193.830
436.832, 10881.400
437.314, 10585.990
437.797, 10317.440
438.279, 10070.990
438.761, 9844.439
439.243, 9635.948
439.725, 9443.455
440.207, 9268.492
440.689, 9106.223
441.171, 8948.032
441.654, 8790.961
442.136, 8642.770
442.618, 8495.718
443.100, 8363.895
443.582, 8267.250
444.064, 8204.139
444.546, 8152.007
445.028, 8093.714
445.510, 8029.297
445.992, 7960.102
446.475, 7870.745
446.957, 7795.276
447.439, 7750.308
447.921, 7715.749
448.403, 7671.294
448.885, 7611.051
449.367, 7542.546
449.849, 7466.481
450.332, 7383.519
450.814, 7325.576
451.296, 7305.754
451.778, 7294.631
452.260, 7275.338
452.742, 7250.847
453.224, 7226.427
453.706, 7195.782
454.189, 7175.296
454.671, 7188.069
455.153, 7225.068
455.635, 7249.269
456.117, 7245.752
456.599, 7234.450
457.081, 7245.268
457.563, 7287.727
458.045, 7320.146
458.528, 7325.472
459.010, 7334.681
459.492, 7368.682
459.974, 7422.583
460.456, 7482.288
460.938, 7540.241
461.420, 7593.921
461.902, 7633.107
462.384, 7645.788
462.867, 7670.739
463.349, 7722.649
463.831, 7779.792
464.313, 7828.858
464.795, 7869.275
465.277, 7907.729
465.759, 7947.619
466.241, 7988.939
466.724, 8039.878
467.206, 8105.723
467.688, 8141.630
468.170, 8119.021
468.652, 8054.269
469.134, 7985.655
469.616, 7911.929
470.098, 7838.744
470.580, 7765.839
471.063, 7695.338
471.545, 7632.378
472.027, 7576.354
472.509, 7515.697
472.991, 7440.452
473.473, 7350.823
473.955, 7263.278
474.437, 7167.710
474.919, 7086.140
475.402, 7031.900
475.884, 6987.755
476.366, 6936.631
476.848, 6874.135
477.330, 6808.014
477.812, 6743.878
478.294, 6681.943
478.776, 6630.575
479.259, 6594.624
479.741, 6560.802
480.223, 6516.674
480.705, 6470.127
481.187, 6436.621
481.669, 6426.229
482.151, 6416.974
482.633, 6391.322
483.116, 6356.987
483.598, 6330.525
484.080, 6316.388
484.562, 6307.417
485.044, 6295.840
485.526, 6280.968
486.008, 6270.372
486.490, 6270.203
486.972, 6266.882
487.454, 6252.315
487.937, 6232.744
488.419, 6218.173
488.901, 6212.310
489.383, 6208.679
489.865, 6195.145
490.347, 6169.396
490.829, 6156.802
491.311, 6171.097
491.794, 6182.709
492.276, 6171.638
492.758, 6145.583
493.240, 6121.883
493.722, 6103.415
494.204, 6091.889
494.686, 6092.968
495.168, 6102.881
495.651, 6108.975
496.133, 6107.622
496.615, 6101.582
497.097, 6094.584
497.579, 6087.357
498.061, 6074.056
498.543, 6049.804
499.025, 6025.004
499.507, 6000.925
499.990, 5980.407
500.472, 5968.087
500.954, 5965.943
501.436, 5970.206
501.918, 5977.960
502.400, 5992.121
502.882, 5991.470
503.364, 5965.319
503.846, 5934.282
504.329, 5904.880
504.811, 5879.783
505.293, 5865.725
505.775, 5867.854
506.257, 5878.039
506.739, 5884.516
507.221, 5891.790
507.703, 5925.240
508.185, 5998.671
508.668, 6067.801
509.150, 6071.036
509.632, 5989.696
510.114, 5940.444
510.596, 5945.001
511.078, 5956.584
511.560, 5960.720
512.042, 5956.638
512.525, 5941.784
513.007, 5915.303
513.489, 5890.477
513.971, 5892.254
514.453, 5925.052
514.935, 5945.169
515.417, 5944.887
515.899, 5937.139
516.381, 5930.131
516.864, 5921.954
517.346, 5907.113
517.828, 5877.600
518.310, 5850.711
518.792, 5839.212
519.274, 5841.180
519.756, 5855.371
520.239, 5882.430
520.721, 5909.702
521.203, 5924.874
521.685, 5928.887
522.167, 5910.507
522.649, 5828.557
523.131, 5774.500
523.613, 5799.954
524.095, 5860.135
524.578, 5897.234
525.060, 5892.835
525.542, 5869.387
526.024, 5846.721
526.506, 5825.468
526.988, 5828.530
527.470, 5873.541
527.952, 5909.121
528.434, 5891.380
528.917, 5846.216
529.399, 5818.635
529.881, 5821.917
530.363, 5828.080
530.845, 5820.434
531.327, 5807.391
531.809, 5804.741
532.291, 5814.048
532.773, 5819.225
533.256, 5803.408
533.738, 5769.483
534.220, 5758.363
534.702, 5797.381
535.184, 5823.436
535.666, 5816.670
536.148, 5800.604
536.630, 5796.361
537.112, 5806.859
537.595, 5821.267
538.077, 5830.525
538.559, 5836.892
539.041, 5849.504
539.523, 5869.990
540.005, 5882.924
540.487, 5877.978
540.969, 5863.253
541.452, 5855.083
541.934, 5853.892
542.416, 5856.634
542.898, 5875.730
543.380, 5888.672
543.862, 5864.907
544.344, 5815.808
544.826, 5784.753
545.308, 5799.709
545.791, 5840.624
546.273, 5852.257
546.755, 5823.540
547.237, 5798.722
547.719, 5778.230
548.201, 5768.083
548.683, 5778.615
549.166, 5803.780
549.648, 5822.624
550.130, 5824.205
550.612, 5818.284
551.094, 5812.749
551.576, 5807.903
552.058, 5804.810
552.540, 5803.786
553.022, 5804.602
553.505, 5806.962
553.987, 5810.756
554.469, 5816.796
554.951, 5833.485
555.433, 5842.591
555.915, 5829.939
556.397, 5809.626
556.879, 5800.095
557.362, 5806.948
557.844, 5822.491
558.326, 5844.475
558.808, 5870.331
559.290, 5874.994
559.772, 5849.973
560.254, 5828.710
560.736, 5835.737
561.218, 5858.078
561.701, 5861.709
562.183, 5830.713
562.665, 5815.635
563.147, 5850.674
563.629, 5897.508
564.111, 5917.546
564.593, 5908.923
565.075, 5886.367
565.557, 5857.933
566.040, 5828.356
566.522, 5816.361
567.004, 5830.689
567.486, 5840.349
567.968, 5835.281
568.450, 5828.543
568.932, 5830.692
569.414, 5839.004
569.896, 5840.140
570.379, 5822.333
570.861, 5800.671
571.343, 5787.243
571.825, 5782.627
572.307, 5791.653
572.789, 5817.080
573.271, 5845.267
573.753, 5859.904
574.235, 5859.455
574.718, 5856.962
575.200, 5849.196
575.682, 5843.391
576.164, 5841.545
576.646, 5842.625
577.128, 5845.297
577.610, 5849.213
578.093, 5854.794
578.575, 5861.480
579.057, 5870.135
579.539, 5887.915
580.021, 5917.485
580.503, 5933.564
580.985, 5914.875
581.467, 5879.996
581.949, 5876.864
582.432, 5919.204
582.914, 5950.950
583.396, 5963.061
583.878, 5963.541
584.360, 5947.418
584.842, 5924.656
585.324, 5920.453
585.806, 5949.810
586.289, 5991.794
586.771, 6005.154
587.253, 5986.413
587.735, 5971.475
588.217, 5957.988
588.699, 5958.908
589.181, 6003.851
589.663, 6070.270
590.145, 6098.325
590.628, 6051.665
591.110, 6005.230
591.592, 5994.255
592.074, 6005.358
592.556, 6025.360
593.038, 6049.422
593.520, 6068.999
594.002, 6077.593
594.484, 6075.349
594.967, 6060.998
595.449, 6024.341
595.931, 5997.504
596.413, 5997.284
596.895, 6001.193
597.377, 5989.576
597.859, 5965.463
598.341, 5953.216
598.823, 5968.912
599.306, 5996.383
599.788, 6028.676
600.270, 6060.017
600.752, 6067.103
601.234, 6041.752
601.716, 6015.692
602.198, 6032.093
602.680, 6097.658
603.162, 6126.216
603.645, 6074.389
604.127, 6038.042
604.609, 6052.644
605.091, 6083.726
605.573, 6092.933
606.055, 6074.241
606.537, 6054.406
607.019, 6050.270
607.502, 6057.932
607.984, 6071.727
608.466, 6091.249
608.948, 6117.794
609.430, 6156.599
609.912, 6189.692
610.394, 6181.125
610.876, 6106.052
611.359, 6066.564
611.841, 6077.044
612.323, 6103.411
612.805, 6147.729
613.287, 6193.310
613.769, 6214.812
614.251, 6203.830
614.733, 6183.230
615.216, 6176.180
615.698, 6178.327
616.180, 6174.245
616.662, 6162.410
617.144, 6150.734
617.626, 6140.513
618.108, 6136.513
618.590, 6153.867
619.072, 6222.587
619.555, 6250.750
620.037, 6195.828
620.519, 6136.000
621.001, 6117.544
621.483, 6131.270
621.965, 6151.898
622.447, 6168.867
622.929, 6182.235
623.411, 6189.581
623.894, 6192.286
624.376, 6202.327
624.858, 6223.313
625.340, 6241.629
625.822, 6248.613
626.304, 6246.105
626.786, 6239.883
627.268, 6217.508
627.750, 6213.237
628.233, 6251.275
628.715, 6292.880
629.197, 6304.786
629.679, 6294.409
630.161, 6290.273
630.643, 6308.557
631.125, 6336.836
631.607, 6356.551
632.089, 6367.871
632.572, 6374.155
633.054, 6373.968
633.536, 6374.247
634.018, 6379.068
634.500, 6388.616
634.982, 6403.229
635.464, 6430.123
635.946, 6451.154
636.429, 6462.086
636.911, 6466.327
637.393, 6460.704
637.875, 6450.442
638.357, 6451.068
638.839, 6473.991
639.321, 6505.747
639.803, 6519.562
640.286, 6515.684
640.768, 6516.886
641.250, 6525.530
641.732, 6543.633
642.214, 6579.242
642.696, 6627.080
643.178, 6656.442
643.660, 6648.652
644.143, 6647.974
644.625, 6674.161
645.107, 6703.098
645.589, 6708.684
646.071, 6695.416
646.553, 6689.018
647.035, 6706.842
647.517, 6735.389
647.999, 6750.546
648.482, 6752.589
648.964, 6749.953
649.446, 6741.405
649.928, 6736.311
650.410, 6742.795
650.892, 6759.708
651.374, 6777.914
651.856, 6809.399
652.338, 6826.091
652.821, 6806.199
653.303, 6782.134
653.785, 6785.476
654.267, 6811.198
654.749, 6832.529
655.231, 6833.591
655.713, 6822.363
656.195, 6808.072
656.677, 6791.611
657.160, 6784.164
657.642, 6788.855
658.124, 6797.822
658.606, 6807.168
659.088, 6815.724
659.570, 6816.232
660.052, 6802.829
660.534, 6790.392
661.016, 6788.173
661.499, 6781.066
661.981, 6752.686
662.463, 6709.362
662.945, 6670.280
663.427, 6643.495
663.909, 6629.940
664.391, 6641.739
664.873, 6670.109
665.356, 6670.843
665.838, 6634.820
666.320, 6594.428
666.802, 6574.158
667.284, 6566.979
667.766, 6544.042
668.248, 6471.819
668.730, 6433.849
669.213, 6457.163
669.695, 6489.530
670.177, 6510.258
670.659, 6514.252
671.141, 6492.637
671.623, 6435.257
672.105, 6378.946
672.587, 6360.255
673.070, 6369.756
673.552, 6394.228
674.034, 6430.236
674.516, 6443.181
674.998, 6408.335
675.480, 6343.744
675.962, 6296.156
676.444, 6262.688
676.926, 6253.145
677.409, 6297.007
677.891, 6334.203
678.373, 6338.667
678.855, 6320.381
679.337, 6294.760
679.819, 6263.427
680.301, 6237.400
680.783, 6225.962
681.265, 6223.132
681.748, 6225.102
682.230, 6228.839
682.712, 6222.783
683.194, 6200.516
683.676, 6172.337
684.158, 6156.610
684.640, 6155.524
685.122, 6155.097
685.604, 6159.407
686.087, 6157.816
686.569, 6135.467
687.051, 6109.815
687.533, 6104.658
688.015, 6124.734
688.497, 6142.358
688.979, 6143.470
689.461, 6142.536
689.943, 6158.402
690.426, 6179.859
690.908, 6178.941
691.390, 6147.571
691.872, 6109.119
692.354, 6086.473
692.836, 6080.339
693.318, 6105.229
693.800, 6172.964
694.283, 6214.731
694.765, 6194.294
695.247, 6151.064
695.729, 6137.942
696.211, 6156.706
696.693, 6164.881
697.175, 6150.574
697.657, 6136.139
698.140, 6130.988
698.622, 6129.597
699.104, 6124.941
699.586, 6116.416
700.068, 6108.854
700.550, 6106.871
701.032, 6107.052
701.514, 6099.969
701.997, 6087.568
702.479, 6089.056
702.961, 6112.149
703.443, 6130.163
703.925, 6115.865
704.407, 6073.651
704.889, 6046.713
705.371, 6043.752
705.853, 6043.467
706.336, 6048.641
706.818, 6051.920
707.300, 6043.754
707.782, 6029.645
708.264, 6026.434
708.746, 6045.376
709.228, 6065.209
709.710, 6068.994
710.192, 6062.761
710.675, 6051.870
711.157, 6039.570
711.639, 6037.704
712.121, 6053.896
712.603, 6082.325
713.085, 6114.814
713.567, 6156.974
714.049, 6171.116
714.531, 6146.160
715.014, 6108.838
715.496, 6059.457
715.978, 6011.496
716.460, 5988.678
716.942, 5998.042
717.424, 6008.324
717.906, 6017.506
718.388, 6019.926
718.870, 6003.364
719.353, 5979.717
719.835, 5974.549
720.317, 5994.182
720.799, 6011.981
721.281, 5991.998
721.763, 5948.852
722.245, 5933.597
722.727, 5946.285
723.210, 5963.797
723.692, 5981.206
724.174, 5991.058
724.656, 5980.225
725.138, 5946.834
725.620, 5936.592
726.102, 5982.915
726.584, 6009.478
727.067, 5992.209
727.549, 5961.600
728.031, 5938.503
728.513, 5925.057
728.995, 5918.710
729.477, 5922.040
729.959, 5926.714
730.441, 5929.578
730.924, 5927.858
731.406, 5911.244
731.888, 5881.914
732.370, 5861.159
732.852, 5864.157
733.334, 5881.021
733.816, 5887.118
734.298, 5880.645
734.780, 5877.135
735.263, 5877.323
735.745, 5881.628
736.227, 5894.310
736.709, 5909.742
737.191, 5915.115
737.673, 5908.693
738.155, 5898.130
738.637, 5874.297
739.119, 5857.094
739.602, 5866.256
740.084, 5886.391
740.566, 5891.604
741.048, 5875.615
741.530, 5857.240
742.012, 5851.184
742.494, 5853.867
742.976, 5862.114
743.458, 5874.111
743.941, 5882.125
744.423, 5884.268
744.905, 5871.246
745.387, 5825.390
745.869, 5753.069
746.351, 5743.210
746.833, 5834.014
747.315, 5904.465
747.797, 5927.707
748.280, 5928.812
748.762, 5913.325
749.244, 5889.466
749.726, 5886.271
750.208, 5931.472
750.690, 5959.549
751.172, 5923.363
751.654, 5874.500
752.137, 5862.768
752.619, 5883.291
753.101, 5909.872
753.583, 5930.917
754.065, 5944.525
754.547, 5944.661
755.029, 5935.152
755.511, 5931.623
755.994, 5935.022
756.476, 5937.451
756.958, 5935.372
757.440, 5930.934
757.922, 5927.199
758.404, 5924.143
758.886, 5921.978
759.368, 5913.774
759.851, 5916.792
760.333, 5942.257
760.815, 5974.499
761.297, 6004.277
761.779, 6029.274
762.261, 6040.785
762.743, 6022.489
763.225, 6005.542
763.707, 6007.894
764.190, 6021.342
764.672, 6036.130
765.154, 6051.332
765.636, 6071.589
766.118, 6100.929
766.600, 6130.833
767.082, 6141.951
767.564, 6138.819
768.046, 6155.951
768.529, 6198.556
769.011, 6238.614
769.493, 6260.480
769.975, 6272.686
770.457, 6292.893
770.939, 6325.502
771.421, 6348.481
771.903, 6354.820
772.385, 6360.405
772.868, 6365.227
773.350, 6374.281
773.832, 6392.463
774.314, 6420.127
774.796, 6455.015
775.278, 6502.897
775.760, 6550.893
776.242, 6596.550
776.724, 6634.779
777.207, 6644.734
777.689, 6635.936
778.171, 6660.715
778.653, 6760.908
779.135, 6884.523
779.617, 6937.979
780.099, 6933.979
780.581, 6944.568
781.064, 6977.990
781.546, 7026.513
782.028, 7088.095
782.510, 7157.491
782.992, 7223.416
783.474, 7284.411
783.956, 7347.643
784.438, 7409.664
784.920, 7478.759
785.403, 7570.607
785.885, 7661.614
786.367, 7713.521
786.849, 7727.497
787.331, 7784.998
787.813, 7946.601
788.295, 8109.904
788.778, 8214.744
789.260, 8299.371
789.742, 8402.016
790.224, 8529.497
790.706, 8677.316
791.188, 8846.373
791.670, 9025.660
792.152, 9201.215
792.634, 9376.659
793.117, 9556.975
793.599, 9743.883
794.081, 9956.232
794.563, 10204.520
795.045, 10472.630
795.527, 10722.940
796.009, 10947.040
796.491, 11247.770
796.973, 11653.210
797.456, 12069.600
797.938, 12456.490
798.420, 12849.470
798.902, 13280.800
799.384, 13747.760
799.866, 14277.940
800.348, 14914.080
800.830, 15557.760
801.312, 16168.370
801.795, 16791.820
802.277, 17473.949
802.759, 18206.539
803.241, 18954.779
803.723, 19708.279
804.205, 20456.820
804.687, 21208.961
805.169, 21940.811
805.652, 22642.350
806.134, 23294.439
806.616, 23836.990
807.098, 24246.971
807.580, 24573.590
808.062, 24899.180
808.544, 25190.070
809.026, 25253.279
809.508, 25081.039
809.991, 24768.850
810.473, 24323.820
810.955, 23797.961
811.437, 23244.230
811.919, 22653.109
812.401, 21963.520
812.883, 21103.260
813.365, 20275.449
813.847, 19505.500
814.330, 18758.090
814.812, 18010.900
815.294, 17271.301
815.776, 16539.471
816.258, 15806.670
816.740, 15137.070
817.222, 14573.670
817.705, 14054.980
818.187, 13538.060
818.669, 13040.090
819.151, 12587.810
819.633, 12183.770
820.115, 11797.050
820.597, 11401.320
821.079, 11021.360
821.561, 10699.220
822.044, 10422.650
822.526, 10169.230
823.008, 9932.837
823.490, 9704.662
823.972, 9477.636
824.454, 9258.736
824.936, 9065.122
825.418, 8898.187
825.901, 8732.920
826.383, 8565.731
826.865, 8413.146
827.347, 8284.845
827.829, 8170.446
828.311, 8055.779
828.793, 7940.188
829.275, 7840.645
829.757, 7774.046
830.240, 7700.340
830.722, 7606.499
831.204, 7511.356
831.686, 7427.002
832.168, 7352.194
832.650, 7282.662
833.132, 7218.977
833.614, 7154.908
834.096, 7081.027
834.578, 7010.787
835.061, 6958.330
835.543, 6917.216
836.025, 6874.462
836.507, 6826.351
836.989, 6777.324
837.471, 6728.348
837.953, 6682.895
838.435, 6647.486
838.917, 6620.467
839.400, 6599.409
839.882, 6582.787
840.364, 6560.087
840.846, 6523.352
841.328, 6478.012
841.810, 6433.847
842.292, 6390.621
842.774, 6355.707
843.257, 6330.432
843.739, 6309.973
844.221, 6295.159
844.703, 6278.726
845.185, 6246.702
845.667, 6196.101
846.149, 6169.700
846.631, 6186.586
847.114, 6199.113
847.596, 6202.737
848.078, 6196.844
848.560, 6174.897
849.042, 6143.042
849.524, 6120.423
850.006, 6116.166
850.488, 6106.794
850.971, 6071.329
851.453, 6041.981
851.935, 6046.512
852.417, 6070.621
852.899, 6089.952
853.381, 6099.034
853.863, 6107.813
854.345, 6130.668
854.827, 6149.650
855.310, 6133.859
855.792, 6104.001
856.274, 6101.505
856.756, 6129.658
857.238, 6167.447
857.720, 6203.655
858.202, 6232.648
858.684, 6235.841
859.166, 6221.877
859.649, 6242.723
860.131, 6300.336
860.613, 6350.614
861.095, 6375.260
861.577, 6397.353
862.059, 6445.526
862.541, 6516.863
863.023, 6582.716
863.505, 6642.040
863.988, 6697.685
864.470, 6734.903
864.952, 6796.547
865.434, 6924.305
865.916, 7092.839
866.398, 7229.322
866.880, 7311.989
867.362, 7417.808
867.844, 7549.199
868.327, 7700.648
868.809, 7872.366
869.291, 8061.469
869.773, 8270.905
870.255, 8497.183
870.737, 8720.082
871.219, 8924.264
871.701, 9135.879
872.184, 9381.386
872.666, 9627.451
873.148, 9851.242
873.630, 10048.940
874.112, 10219.450
874.594, 10363.240
875.076, 10477.930
875.558, 10559.990
876.041, 10614.680
876.523, 10662.160
877.005, 10684.670
877.487, 10638.500
877.969, 10518.640
878.451, 10355.560
878.933, 10169.270
879.415, 9959.758
879.898, 9718.491
880.380, 9452.863
880.862, 9193.184
881.344, 8942.660
881.826, 8712.048
882.308, 8506.752
882.790, 8314.932
883.272, 8116.950
883.754, 7916.227
884.237, 7737.499
884.719, 7583.924
885.201, 7439.543
885.683, 7301.998
886.165, 7170.827
886.647, 7043.187
887.129, 6924.107
887.611, 6827.802
888.093, 6755.664
888.576, 6702.285
889.058, 6689.756
889.540, 6665.211
890.022, 6598.110
890.504, 6520.239
890.986, 6462.942
891.468, 6424.615
891.950, 6383.673
892.432, 6323.356
892.915, 6280.886
893.397, 6274.045
893.879, 6276.781
894.361, 6281.161
894.843, 6279.473
895.325, 6254.725
895.807, 6202.027
896.289, 6164.807
896.771, 6176.219
897.254, 6194.612
897.736, 6199.080
898.218, 6190.329
898.700, 6165.178
899.182, 6128.369
899.664, 6092.922
900.146, 6062.866
900.628, 6045.515
901.111, 6056.469
901.593, 6078.636
902.075, 6087.605
902.557, 6085.818
903.039, 6086.609
903.521, 6092.778
904.003, 6091.526
904.485, 6068.644
904.968, 6036.985
905.450, 6021.606
905.932, 6019.829
906.414, 6023.756
906.896, 6031.452
907.378, 6035.476
907.860, 6032.264
908.342, 6020.348
908.825, 5993.406
909.307, 5954.877
909.789, 5935.257
910.271, 5935.475
910.753, 5945.012
911.235, 5965.495
911.717, 5972.503
912.199, 5943.253
912.681, 5892.954
913.164, 5866.637
913.646, 5873.626
914.128, 5864.198
914.610, 5831.410
915.092, 5798.532
915.574, 5771.557
916.056, 5750.960
916.538, 5739.579
917.020, 5736.285
917.503, 5725.450
917.985, 5703.568
918.467, 5680.335
918.949, 5655.012
919.431, 5630.057
919.913, 5603.356
920.395, 5579.397
920.877, 5567.784
921.359, 5570.804
921.842, 5564.134
922.324, 5535.936
922.806, 5509.837
923.288, 5494.363
923.770, 5481.467
924.252, 5465.091
924.734, 5446.028
925.216, 5426.848
925.698, 5407.076
926.181, 5391.672
926.663, 5386.375
927.145, 5381.488
927.627, 5369.149
928.109, 5355.089
928.591, 5346.975
929.073, 5344.591
929.555, 5343.533
930.038, 5345.347
930.520, 5338.643
931.002, 5302.898
931.484, 5265.292
931.966, 5260.306
932.448, 5274.090
932.930, 5273.381
933.412, 5252.331
933.894, 5236.841
934.377, 5249.913
934.859, 5269.055
935.341, 5268.856
935.823, 5257.110
936.305, 5247.921
936.787, 5240.367
937.269, 5223.000
937.752, 5191.778
938.234, 5160.886
938.716, 5145.481
939.198, 5139.939
939.680, 5133.541
940.162, 5127.629
940.644, 5128.351
941.126, 5135.423
941.608, 5139.802
942.091, 5136.218
942.573, 5127.725
943.055, 5120.101
943.537, 5111.460
944.019, 5089.264
944.501, 5055.781
944.983, 5034.635
945.465, 5031.801
945.947, 5040.817
946.430, 5059.051
946.912, 5077.772
947.394, 5072.582
947.876, 5044.699
948.358, 5032.412
948.840, 5038.437
949.322, 5041.721
949.804, 5034.988
950.286, 5022.260
950.769, 5005.562
951.251, 4988.250
951.733, 4989.102
952.215, 5013.250
952.697, 5011.947
953.179, 4970.972
953.661, 4950.575
954.143, 4985.998
954.625, 5034.854
955.108, 5040.298
955.590, 5005.142
956.072, 4975.271
956.554, 4945.435
957.036, 4943.172
957.518, 4993.355
958.000, 5021.495
958.482, 4969.078
958.965, 4889.519
959.447, 4881.632
959.929, 4955.862
960.411, 4983.540
960.893, 4927.541
961.375, 4901.567
961.857, 4944.390
962.339, 4995.219
962.821, 5016.740
963.304, 5016.808
963.786, 5013.304
964.268, 5007.194
964.750, 4993.292
965.232, 4954.066
965.714, 4932.201
966.196, 4951.689
966.679, 4978.058
967.161, 4987.259
967.643, 4982.374
968.125, 4971.622
968.607, 4951.254
969.089, 4935.095
969.571, 4920.514
970.053, 4914.351
970.535, 4926.371
971.018, 4941.791
971.500, 4949.216
971.982, 4948.392
972.464, 4939.732
972.946, 4915.649
973.428, 4899.782
973.910, 4900.710
974.392, 4903.824
974.875, 4902.672
975.357, 4900.586
975.839, 4905.443
976.321, 4914.693
976.803, 4909.477
977.285, 4869.499
977.767, 4844.224
978.249, 4858.827
978.731, 4874.712
979.214, 4865.015
979.696, 4847.490
980.178, 4849.488
980.660, 4871.015
981.142, 4883.411
981.624, 4870.761
982.106, 4860.727
982.588, 4866.749
983.070, 4872.481
983.553, 4861.263
984.035, 4845.635
984.517, 4851.176
984.999, 4878.960
985.481, 4889.592
985.963, 4856.055
986.445, 4822.959
986.927, 4804.466
987.409, 4794.695
987.892, 4791.266
988.374, 4792.243
988.856, 4796.873
989.338, 4804.708
989.820, 4808.060
990.302, 4798.555
990.784, 4791.105
991.266, 4795.348
991.748, 4801.557
992.231, 4803.166
992.713, 4799.763
993.195, 4791.289
993.677, 4777.704
994.159, 4763.765
994.641, 4746.234
995.123, 4735.300
995.606, 4743.737
996.088, 4754.636
996.570, 4743.928
997.052, 4725.425
997.534, 4737.077
998.016, 4789.174
998.498, 4824.377
998.980, 4802.499
999.462, 4775.194
999.945, 4767.542
1000.427, 4770.357
1000.909, 4780.462
1001.391, 4791.513
1001.873, 4790.638
1002.355, 4773.851
1002.837, 4758.125
1003.319, 4749.279
1003.801, 4745.789
1004.284, 4746.979
1004.766, 4753.003
1005.248, 4767.585
1005.730, 4786.505
1006.212, 4799.911
1006.694, 4805.055
1007.176, 4807.636
1007.658, 4811.943
1008.141, 4812.361
1008.623, 4802.183
1009.105, 4789.449
1009.587, 4785.068
1010.069, 4784.570
1010.551, 4772.897
1011.033, 4744.411
1011.515, 4723.281
1011.997, 4721.288
1012.480, 4727.502
1012.962, 4751.427
1013.444, 4768.216
1013.926, 4736.339
1014.408, 4679.953
1014.890, 4667.480
1015.372, 4721.408
1015.854, 4764.907
1016.336, 4754.924
1016.819, 4742.645
1017.301, 4764.892
1017.783, 4787.512
1018.265, 4766.739
1018.747, 4721.072
1019.229, 4704.081
1019.711, 4731.356
1020.193, 4753.188
1020.676, 4744.716
1021.158, 4737.161
1021.640, 4752.941
1022.122, 4768.383
1022.604, 4762.007
1023.086, 4738.292
1023.568, 4706.876
1024.050, 4666.162
1024.532, 4646.848
1025.015, 4679.620
1025.497, 4706.953
1025.979, 4699.586
1026.461, 4684.697
1026.943, 4682.584
1027.425, 4690.855
1027.907, 4703.631
1028.389, 4722.051
1028.872, 4728.216
1029.354, 4696.207
1029.836, 4681.638
1030.318, 4726.073
1030.800, 4770.264
1031.282, 4759.845
1031.764, 4721.215
1032.246, 4714.192
1032.729, 4750.347
1033.211, 4766.567
1033.693, 4736.877
1034.175, 4712.193
1034.657, 4703.370
1035.139, 4703.317
1035.621, 4708.960
1036.103, 4719.747
1036.585, 4739.904
1037.068, 4773.163
1037.550, 4781.980
1038.032, 4732.053
1038.514, 4706.185
1038.996, 4738.462
1039.478, 4770.982
1039.960, 4773.211
1040.442, 4757.623
1040.924, 4739.440
1041.407, 4717.775
1041.889, 4712.003
1042.371, 4734.895
1042.853, 4749.464
1043.335, 4749.682
1043.817, 4744.410
1044.299, 4732.302
1044.781, 4722.742
1045.264, 4730.180
1045.746, 4753.582
1046.228, 4773.118
1046.710, 4792.648
1047.192, 4796.033
1047.674, 4774.620
1048.156, 4754.231
1048.638, 4745.336
1049.120, 4743.777
1049.603, 4745.392
1050.085, 4749.803
1050.567, 4755.131
1051.049, 4762.958
1051.531, 4763.096
1052.013, 4752.836
1052.495, 4744.890
1052.977, 4745.478
1053.459, 4743.649
1053.942, 4725.629
1054.424, 4699.795
1054.906, 4696.728
1055.388, 4717.149
1055.870, 4745.665
1056.352, 4783.287
1056.834, 4797.625
1057.316, 4776.338
1057.799, 4752.732
1058.281, 4755.167
1058.763, 4772.322
1059.245, 4779.099
1059.727, 4776.610
1060.209, 4771.664
1060.691, 4765.243
1061.173, 4768.417
1061.656, 4783.293
1062.138, 4794.316
1062.620, 4790.171
1063.102, 4782.717
1063.584, 4795.793
1064.066, 4819.197
1064.548, 4818.830
1065.030, 4801.078
1065.512, 4791.800
1065.995, 4794.556
1066.477, 4798.413
1066.959, 4797.684
1067.441, 4796.023
1067.923, 4797.915
1068.405, 4801.276
1068.887, 4801.248
1069.369, 4800.664
1069.851, 4804.567
1070.334, 4813.746
1070.816, 4829.242
1071.298, 4851.105
1071.780, 4871.479
1072.262, 4879.726
1072.744, 4888.245
1073.226, 4918.366
1073.708, 4949.007
1074.191, 4943.896
1074.673, 4919.807
1075.155, 4922.758
1075.637, 4961.108
1076.119, 4992.957
1076.601, 4989.204
1077.083, 4985.133
1077.565, 5002.434
1078.047, 5025.950
1078.530, 5040.621
1079.012, 5054.647
1079.494, 5083.115
1079.976, 5125.737
1080.458, 5167.006
1080.940, 5203.167
1081.422, 5236.491
1081.904, 5246.916
1082.386, 5279.174
1082.869, 5385.053
1083.351, 5500.237
1083.833, 5546.336
1084.315, 5541.527
1084.797, 5576.057
1085.279, 5677.364
1085.761, 5762.073
1086.243, 5843.320
1086.725, 5884.273
1087.208, 5855.681
1087.690, 5809.798
1088.172, 5785.546
1088.654, 5768.049
1089.136, 5721.229
1089.618, 5639.456
1090.100, 5579.041
1090.582, 5537.148
1091.065, 5529.854
1091.547, 5571.905
1092.029, 5609.971
1092.511, 5612.007
1092.993, 5603.756
1093.475, 5622.286
1093.957, 5663.733
1094.439, 5703.962
1094.922, 5742.890
1095.404, 5776.015
1095.886, 5802.810
1096.368, 5832.558
1096.850, 5869.373
1097.332, 5900.827
1097.814, 5916.157
1098.296, 5915.329
1098.778, 5889.651
1099.260, 5848.831
1099.743, 5835.168
1100.225, 5840.389
1100.707, 5813.789
1101.189, 5748.962
1101.671, 5694.524
1102.153, 5681.594
1102.635, 5683.595
1103.117, 5665.971
1103.600, 5648.127
1104.082, 5668.801
1104.564, 5704.121
1105.046, 5702.930
1105.528, 5672.604
1106.010, 5661.379
1106.492, 5686.922
1106.974, 5717.872
1107.457, 5734.004
1107.939, 5749.362
1108.421, 5775.981
1108.903, 5803.539
1109.385, 5823.381
1109.867, 5836.298
1110.349, 5846.447
1110.831, 5854.006
1111.313, 5852.290
1111.796, 5813.840
1112.278, 5804.661
1112.760, 5870.031
1113.242, 5929.879
1113.724, 5939.704
1114.206, 5928.315
1114.688, 5927.377
1115.170, 5933.693
1115.652, 5928.935
1116.135, 5898.891
1116.617, 5903.753
1117.099, 5971.001
1117.581, 6008.282
1118.063, 5983.769
1118.545, 5947.285
1119.027, 5932.704
1119.509, 5927.476
1119.992, 5903.677
1120.474, 5864.128
1120.956, 5868.931
1121.438, 5920.455
1121.920, 5937.633
1122.402, 5909.313
1122.884, 5884.579
1123.366, 5885.167
1123.849, 5893.955
1124.331, 5894.474
1124.813, 5887.652
1125.295, 5874.857
1125.777, 5856.588
1126.259, 5829.139
1126.741, 5797.585
1127.223, 5780.968
1127.705, 5781.003
1128.188, 5777.171
1128.670, 5755.417
1129.152, 5738.295
1129.634, 5760.082
1130.116, 5783.228
1130.598, 5766.399
1131.080, 5729.218
1131.562, 5697.883
1132.044, 5672.646
1132.527, 5639.541
1133.009, 5593.976
1133.491, 5568.229
1133.973, 5601.040
1134.455, 5618.687
1134.937, 5576.778
1135.419, 5531.631
1135.901, 5522.719
1136.384, 5530.648
1136.866, 5529.465
1137.348, 5518.056
1137.830, 5496.783
1138.312, 5453.456
1138.794, 5427.910
1139.276, 5430.467
1139.758, 5427.490
1140.240, 5408.972
1140.723, 5381.319
1141.205, 5344.079
1141.687, 5311.179
1142.169, 5317.377
1142.651, 5359.120
1143.133, 5368.773
1143.615, 5347.094
1144.097, 5318.929
1144.579, 5288.863
1145.062, 5272.549
1145.544, 5276.881
1146.026, 5285.993
1146.508, 5285.254
1146.990, 5277.281
1147.472, 5262.080
1147.954, 5245.276
1148.436, 5240.048
1148.919, 5242.050
1149.401, 5239.079
1149.883, 5229.511
1150.365, 5219.592
1150.847, 5212.221
1151.329, 5205.021
1151.811, 5198.538
1152.293, 5189.291
1152.776, 5169.934
1153.258, 5151.178
1153.740, 5144.938
1154.222, 5147.063
1154.704, 5147.957
1155.186, 5146.407
1155.668, 5143.196
1156.150, 5139.039
1156.632, 5132.115
1157.115, 5121.093
1157.597, 5108.709
1158.079, 5092.143
1158.561, 5080.374
1159.043, 5084.113
1159.525, 5097.760
1160.007, 5104.047
1160.489, 5102.374
1160.971, 5101.519
1161.454, 5101.899
1161.936, 5089.933
1162.418, 5062.964
1162.900, 5050.040
1163.382, 5066.747
1163.864, 5096.015
1164.346, 5122.514
1164.828, 5141.292
1165.311, 5137.406
1165.793, 5120.882
1166.275, 5110.979
1166.757, 5108.170
1167.239, 5111.846
1167.721, 5119.018
1168.203, 5116.548
1168.685, 5095.491
1169.167, 5074.351
1169.650, 5061.880
1170.132, 5056.207
1170.614, 5057.083
1171.096, 5063.372
1171.578, 5076.594
1172.060, 5093.476
1172.542, 5108.894
1173.024, 5122.488
1173.506, 5129.881
1173.989, 5122.027
1174.471, 5125.264
1174.953, 5149.535
1175.435, 5167.695
1175.917, 5167.634
1176.399, 5162.803
1176.881, 5164.682
1177.363, 5171.532
1177.846, 5179.689
1178.328, 5188.943
1178.810, 5194.277
1179.292, 5196.573
1179.774, 5209.153
1180.256, 5232.072
1180.738, 5245.068
1181.220, 5239.868
1181.703, 5235.861
1182.185, 5253.946
1182.667, 5275.913
1183.149, 5276.676
1183.631, 5269.467
1184.113, 5272.083
1184.595, 5279.438
1185.077, 5276.890
1185.559, 5267.882
1186.042, 5274.113
1186.524, 5305.336
1187.006, 5333.270
1187.488, 5342.134
1187.970, 5355.950
1188.452, 5392.665
1188.934, 5425.077
1189.416, 5434.576
1189.898, 5431.811
1190.381, 5426.814
1190.863, 5421.486
1191.345, 5430.825
1191.827, 5459.573
1192.309, 5473.693
1192.791, 5470.991
1193.273, 5463.518
1193.755, 5453.425
1194.238, 5461.497
1194.720, 5501.729
1195.202, 5548.584
1195.684, 5569.532
1196.166, 5573.870
1196.648, 5576.226
1197.130, 5578.416
1197.612, 5586.111
1198.094, 5596.224
1198.577, 5599.025
1199.059, 5594.176
1199.541, 5592.406
1200.023, 5598.915
1200.505, 5606.866
1200.987, 5607.732
1201.469, 5615.819
1201.951, 5657.111
1202.433, 5689.794
1202.916, 5658.380
1203.398, 5606.038
1203.880, 5619.144
1204.362, 5692.510
1204.844, 5729.913
1205.326, 5719.707
1205.808, 5718.421
1206.290, 5730.290
1206.773, 5740.035
1207.255, 5742.568
1207.737, 5750.673
1208.219, 5772.915
1208.701, 5806.862
1209.183, 5855.467
1209.665, 5908.140
1210.147, 5934.625
1210.630, 5947.889
1211.112, 5979.798
1211.594, 6024.185
1212.076, 6052.541
1212.558, 6062.220
1213.040, 6082.099
1213.522, 6129.341
1214.004, 6174.738
1214.486, 6198.840
1214.969, 6224.249
1215.451, 6262.840
1215.933, 6306.410
1216.415, 6356.129
1216.897, 6401.712
1217.379, 6423.155
1217.861, 6422.836
1218.343, 6435.567
1218.825, 6464.650
1219.308, 6491.688
1219.790, 6516.067
1220.272, 6533.926
1220.754, 6543.619
1221.236, 6567.175
1221.718, 6620.764
1222.200, 6669.294
1222.682, 6655.822
1223.165, 6617.679
1223.647, 6620.073
1224.129, 6648.517
1224.611, 6699.269
1225.093, 6746.771
1225.575, 6728.413
1226.057, 6649.742
1226.539, 6596.665
1227.021, 6602.143
1227.504, 6621.191
1227.986, 6676.449
1228.468, 6691.055
1228.950, 6590.496
1229.432, 6499.653
1229.914, 6500.462
1230.396, 6535.068
1230.878, 6528.003
1231.360, 6491.647
1231.843, 6490.240
1232.325, 6525.837
1232.807, 6515.138
1233.289, 6459.405
1233.771, 6419.616
1234.253, 6407.292
1234.735, 6408.104
1235.217, 6414.965
1235.700, 6419.464
1236.182, 6411.472
1236.664, 6401.813
1237.146, 6406.615
1237.628, 6411.151
1238.110, 6394.351
1238.592, 6370.967
1239.074, 6361.833
1239.557, 6366.207
##END=



