##NAMES=Howieite
##RRUFFID=R061009
##IDEAL CHEMISTRY=Na(Fe^2+^,Fe^3+^,Al,Mg)_12_(Si_6_O_17_)_2_(O,OH)_10_
##LOCALITY=Quarry on north side of U.S. 101, 5 miles south of Laytonville, Mendocino County, California, USA
##OWNER=RRUFF
##SOURCE=Michael Scott
##DESCRIPTION=Dark brown bladed crystals in plumose aggregates
##STATUS=The identification of this mineral has been made only by X-ray diffraction.
##URL=rruff.info/R061009
142.7361, 1589.856
143.2183, 1604.296
143.7004, 1622.909
144.1825, 1647.672
144.6646, 1674.629
145.1467, 1699.042
145.6288, 1718.049
146.1110, 1739.489
146.5931, 1768.964
147.0752, 1813.231
147.5573, 1835.000
148.0394, 1818.824
148.5215, 1785.671
149.0037, 1766.069
149.4858, 1769.262
149.9679, 1777.183
150.4500, 1786.707
150.9321, 1805.438
151.4142, 1810.886
151.8964, 1796.178
152.3785, 1768.237
152.8606, 1742.423
153.3427, 1715.989
153.8248, 1694.490
154.3069, 1680.626
154.7890, 1682.547
155.2712, 1681.479
155.7533, 1674.724
156.2354, 1663.027
156.7175, 1649.070
157.1996, 1633.350
157.6817, 1615.369
158.1639, 1594.760
158.6460, 1559.772
159.1281, 1533.455
159.6102, 1527.310
160.0923, 1539.105
160.5744, 1546.513
161.0566, 1533.757
161.5387, 1516.330
162.0208, 1508.188
162.5029, 1519.368
162.9850, 1535.943
163.4671, 1555.901
163.9493, 1579.221
164.4314, 1593.466
164.9135, 1587.985
165.3956, 1570.964
165.8777, 1553.043
166.3598, 1536.773
166.8420, 1522.266
167.3241, 1509.512
167.8062, 1498.451
168.2883, 1489.676
168.7704, 1483.464
169.2525, 1479.765
169.7346, 1478.440
170.2168, 1481.810
170.6989, 1486.409
171.1810, 1489.607
171.6631, 1491.694
172.1452, 1490.431
172.6273, 1481.946
173.1095, 1468.170
173.5916, 1454.557
174.0737, 1438.948
174.5558, 1426.876
175.0379, 1428.269
175.5201, 1450.460
176.0022, 1475.960
176.4843, 1483.842
176.9664, 1476.629
177.4485, 1467.483
177.9306, 1463.043
178.4128, 1463.286
178.8949, 1468.446
179.3770, 1480.151
179.8591, 1495.205
180.3412, 1509.310
180.8233, 1522.625
181.3055, 1535.695
181.7876, 1550.289
182.2697, 1565.251
182.7518, 1577.617
183.2339, 1586.171
183.7160, 1591.637
184.1982, 1592.391
184.6803, 1587.980
185.1624, 1587.760
185.6445, 1606.824
186.1266, 1640.620
186.6087, 1666.713
187.0908, 1673.972
187.5730, 1667.695
188.0551, 1664.170
188.5372, 1663.713
189.0193, 1664.037
189.5014, 1661.614
189.9835, 1656.768
190.4657, 1653.957
190.9478, 1658.801
191.4299, 1668.746
191.9120, 1665.972
192.3941, 1648.062
192.8762, 1624.982
193.3584, 1610.689
193.8405, 1605.325
194.3226, 1601.878
194.8047, 1600.155
195.2868, 1599.638
195.7689, 1588.783
196.2511, 1564.702
196.7332, 1534.769
197.2153, 1513.271
197.6974, 1501.096
198.1795, 1488.471
198.6616, 1469.345
199.1438, 1443.234
199.6259, 1419.787
200.1080, 1399.096
200.5901, 1381.625
201.0722, 1370.285
201.5543, 1366.482
202.0364, 1361.773
202.5186, 1350.076
203.0007, 1330.291
203.4828, 1312.436
203.9649, 1295.309
204.4470, 1281.698
204.9291, 1283.680
205.4113, 1306.773
205.8934, 1327.605
206.3755, 1327.931
206.8576, 1302.394
207.3397, 1285.932
207.8218, 1285.478
208.3040, 1296.117
208.7861, 1296.514
209.2682, 1282.521
209.7503, 1267.998
210.2324, 1264.499
210.7145, 1276.086
211.1967, 1282.447
211.6788, 1278.235
212.1609, 1266.235
212.6430, 1265.491
213.1251, 1282.283
213.6072, 1299.152
214.0894, 1301.068
214.5715, 1282.546
215.0536, 1265.477
215.5357, 1253.226
216.0178, 1245.448
216.4999, 1238.215
216.9820, 1228.189
217.4642, 1223.580
217.9463, 1235.326
218.4284, 1275.012
218.9105, 1300.311
219.3926, 1300.708
219.8747, 1276.849
220.3569, 1253.098
220.8390, 1226.630
221.3211, 1203.700
221.8032, 1190.730
222.2853, 1192.719
222.7674, 1193.677
223.2496, 1189.626
223.7317, 1180.280
224.2138, 1175.394
224.6959, 1178.516
225.1780, 1182.399
225.6601, 1178.807
226.1423, 1163.566
226.6244, 1149.192
227.1065, 1137.355
227.5886, 1127.516
228.0707, 1126.016
228.5528, 1138.227
229.0350, 1154.043
229.5171, 1160.875
229.9992, 1149.009
230.4813, 1154.780
230.9634, 1158.234
231.4455, 1159.495
231.9276, 1151.996
232.4098, 1155.809
232.8919, 1155.088
233.3740, 1154.182
233.8561, 1159.587
234.3382, 1153.361
234.8203, 1158.666
235.3025, 1174.563
235.7846, 1188.203
236.2667, 1200.534
236.7488, 1209.586
237.2309, 1211.468
237.7130, 1200.154
238.1952, 1192.134
238.6773, 1193.620
239.1594, 1207.790
239.6415, 1214.073
240.1236, 1207.005
240.6057, 1195.726
241.0879, 1194.257
241.5700, 1209.339
242.0521, 1222.845
242.5342, 1228.911
243.0163, 1225.403
243.4984, 1224.473
243.9806, 1226.863
244.4627, 1231.303
244.9448, 1235.701
245.4269, 1238.706
245.9090, 1243.991
246.3911, 1254.600
246.8732, 1274.044
247.3554, 1282.093
247.8375, 1272.906
248.3196, 1256.097
248.8017, 1246.121
249.2838, 1244.405
249.7659, 1247.418
250.2481, 1256.664
250.7302, 1276.119
251.2123, 1282.725
251.6944, 1270.692
252.1765, 1250.083
252.6586, 1236.136
253.1408, 1232.270
253.6229, 1228.901
254.1050, 1222.934
254.5871, 1213.749
255.0692, 1205.641
255.5513, 1199.196
256.0334, 1193.412
256.5156, 1186.172
256.9977, 1175.446
257.4798, 1167.214
257.9619, 1163.960
258.4440, 1166.785
258.9261, 1168.267
259.4083, 1167.945
259.8904, 1166.614
260.3725, 1165.296
260.8546, 1163.496
261.3367, 1162.683
261.8188, 1163.290
262.3010, 1165.361
262.7831, 1169.690
263.2652, 1180.479
263.7473, 1189.204
264.2294, 1180.766
264.7115, 1146.835
265.1937, 1117.362
265.6758, 1102.299
266.1579, 1102.693
266.6400, 1108.380
267.1221, 1122.031
267.6042, 1137.604
268.0864, 1146.630
268.5685, 1148.552
269.0506, 1145.853
269.5327, 1137.911
270.0148, 1124.315
270.4969, 1113.523
270.9791, 1105.290
271.4612, 1100.287
271.9433, 1100.604
272.4254, 1107.681
272.9075, 1113.939
273.3896, 1116.063
273.8718, 1114.105
274.3539, 1117.164
274.8360, 1127.390
275.3181, 1138.451
275.8002, 1141.334
276.2823, 1134.464
276.7645, 1128.980
277.2466, 1128.415
277.7287, 1132.481
278.2108, 1137.473
278.6929, 1144.678
279.1750, 1149.328
279.6572, 1143.034
280.1393, 1124.427
280.6214, 1111.342
281.1035, 1110.075
281.5856, 1118.911
282.0677, 1128.689
282.5499, 1140.642
283.0320, 1148.756
283.5141, 1141.674
283.9962, 1119.218
284.4783, 1107.733
284.9604, 1119.620
285.4425, 1147.531
285.9247, 1158.285
286.4068, 1149.938
286.8889, 1137.872
287.3710, 1135.791
287.8531, 1143.233
288.3352, 1155.089
288.8174, 1171.338
289.2995, 1190.511
289.7816, 1208.850
290.2637, 1226.034
290.7458, 1242.377
291.2279, 1258.004
291.7101, 1272.891
292.1922, 1287.345
292.6743, 1302.423
293.1564, 1316.039
293.6385, 1321.632
294.1206, 1319.343
294.6028, 1317.819
295.0849, 1324.557
295.5670, 1337.641
296.0491, 1350.642
296.5312, 1360.844
297.0133, 1372.069
297.4955, 1396.420
297.9776, 1431.271
298.4597, 1456.856
298.9418, 1447.333
299.4239, 1418.985
299.9060, 1407.421
300.3882, 1424.503
300.8703, 1450.971
301.3524, 1464.237
301.8345, 1465.779
302.3166, 1462.682
302.7987, 1456.222
303.2809, 1448.715
303.7630, 1443.561
304.2451, 1441.538
304.7272, 1441.280
305.2093, 1442.351
305.6914, 1444.278
306.1736, 1445.617
306.6557, 1446.788
307.1378, 1446.430
307.6199, 1442.348
308.1020, 1433.354
308.5841, 1424.275
309.0663, 1421.607
309.5484, 1421.684
310.0305, 1416.860
310.5126, 1397.313
310.9947, 1375.269
311.4768, 1362.072
311.9590, 1360.321
312.4411, 1357.414
312.9232, 1342.025
313.4053, 1321.216
313.8874, 1306.187
314.3695, 1310.677
314.8517, 1314.660
315.3337, 1304.047
315.8159, 1276.704
316.2980, 1251.813
316.7801, 1235.664
317.2622, 1226.968
317.7443, 1224.088
318.2264, 1237.045
318.7086, 1246.225
319.1907, 1241.307
319.6728, 1222.074
320.1549, 1205.424
320.6370, 1195.360
321.1191, 1190.484
321.6013, 1189.610
322.0834, 1197.502
322.5655, 1204.166
323.0476, 1206.283
323.5297, 1204.302
324.0118, 1203.886
324.4940, 1208.949
324.9761, 1213.931
325.4582, 1215.371
325.9403, 1205.727
326.4224, 1200.744
326.9045, 1204.481
327.3867, 1215.071
327.8688, 1222.615
328.3509, 1222.526
328.8330, 1222.801
329.3151, 1226.998
329.7972, 1237.874
330.2794, 1248.640
330.7615, 1259.146
331.2436, 1269.663
331.7257, 1280.929
332.2078, 1295.260
332.6899, 1307.481
333.1721, 1314.456
333.6542, 1311.702
334.1363, 1316.580
334.6184, 1331.645
335.1005, 1352.751
335.5826, 1373.475
336.0648, 1394.794
336.5469, 1413.704
337.0290, 1428.936
337.5111, 1440.116
337.9932, 1451.919
338.4753, 1466.135
338.9575, 1478.127
339.4396, 1478.627
339.9217, 1463.194
340.4038, 1457.941
340.8859, 1473.759
341.3680, 1507.661
341.8502, 1534.387
342.3323, 1553.411
342.8144, 1565.533
343.2965, 1569.037
343.7786, 1564.022
344.2607, 1559.175
344.7429, 1555.092
345.2250, 1553.364
345.7071, 1562.747
346.1892, 1584.386
346.6713, 1600.380
347.1534, 1589.704
347.6355, 1559.299
348.1176, 1541.034
348.5998, 1542.014
349.0819, 1554.640
349.5640, 1570.929
350.0461, 1589.992
350.5282, 1603.677
351.0103, 1603.130
351.4925, 1594.424
351.9746, 1590.520
352.4567, 1595.057
352.9388, 1597.183
353.4209, 1579.193
353.9030, 1548.645
354.3852, 1526.098
354.8673, 1528.267
355.3494, 1540.598
355.8315, 1547.995
356.3136, 1549.088
356.7957, 1549.576
357.2779, 1553.290
357.7600, 1559.149
358.2421, 1565.420
358.7242, 1575.505
359.2063, 1582.642
359.6884, 1579.648
360.1706, 1566.988
360.6527, 1558.145
361.1348, 1565.761
361.6169, 1577.220
362.0990, 1580.890
362.5811, 1562.327
363.0633, 1547.026
363.5454, 1543.608
364.0275, 1550.454
364.5096, 1559.573
364.9917, 1578.205
365.4738, 1592.108
365.9560, 1592.334
366.4381, 1561.755
366.9202, 1541.392
367.4023, 1536.629
367.8844, 1545.019
368.3665, 1560.453
368.8487, 1597.393
369.3308, 1628.094
369.8129, 1641.730
370.2950, 1630.022
370.7771, 1625.227
371.2592, 1632.223
371.7414, 1643.522
372.2235, 1649.194
372.7056, 1648.768
373.1877, 1642.969
373.6698, 1628.455
374.1519, 1604.756
374.6341, 1596.665
375.1162, 1612.654
375.5983, 1630.757
376.0804, 1625.647
376.5625, 1589.224
377.0446, 1569.132
377.5267, 1580.972
378.0089, 1613.778
378.4910, 1619.796
378.9731, 1594.909
379.4552, 1565.990
379.9373, 1554.225
380.4194, 1558.287
380.9016, 1556.682
381.3837, 1545.047
381.8658, 1530.736
382.3479, 1528.509
382.8300, 1537.269
383.3121, 1544.932
383.7943, 1541.500
384.2764, 1532.199
384.7585, 1531.073
385.2406, 1539.750
385.7227, 1550.243
386.2048, 1552.093
386.6870, 1548.769
387.1691, 1548.624
387.6512, 1559.762
388.1333, 1573.165
388.6154, 1577.469
389.0975, 1573.119
389.5797, 1569.794
390.0618, 1576.714
390.5439, 1587.406
391.0260, 1594.297
391.5081, 1593.107
391.9902, 1590.378
392.4724, 1587.101
392.9545, 1584.696
393.4366, 1587.849
393.9187, 1603.224
394.4008, 1621.496
394.8829, 1638.052
395.3651, 1653.429
395.8472, 1663.809
396.3293, 1664.421
396.8114, 1660.111
397.2935, 1658.708
397.7756, 1660.257
398.2578, 1666.019
398.7399, 1678.970
399.2220, 1702.235
399.7041, 1716.429
400.1862, 1717.252
400.6683, 1711.547
401.1505, 1704.198
401.6326, 1685.720
402.1147, 1682.029
402.5968, 1704.452
403.0789, 1747.350
403.5610, 1767.852
404.0432, 1755.325
404.5253, 1739.578
405.0074, 1742.109
405.4895, 1769.963
405.9716, 1780.483
406.4537, 1765.783
406.9359, 1739.153
407.4180, 1728.273
407.9001, 1734.775
408.3822, 1742.210
408.8643, 1740.760
409.3464, 1732.428
409.8285, 1734.396
410.3106, 1748.312
410.7928, 1763.755
411.2749, 1769.718
411.7570, 1767.418
412.2391, 1761.730
412.7212, 1751.510
413.2033, 1740.913
413.6855, 1737.735
414.1676, 1741.287
414.6497, 1745.746
415.1318, 1747.223
415.6139, 1746.906
416.0960, 1746.534
416.5782, 1746.910
417.0603, 1746.176
417.5424, 1741.856
418.0245, 1735.289
418.5066, 1729.549
418.9887, 1724.276
419.4709, 1721.493
419.9530, 1723.535
420.4351, 1731.443
420.9172, 1738.075
421.3993, 1740.513
421.8814, 1740.583
422.3636, 1740.189
422.8457, 1735.642
423.3278, 1735.042
423.8099, 1744.746
424.2920, 1763.493
424.7741, 1771.547
425.2563, 1754.630
425.7384, 1737.837
426.2205, 1734.834
426.7026, 1758.438
427.1847, 1772.265
427.6668, 1772.500
428.1490, 1764.155
428.6311, 1757.339
429.1132, 1751.878
429.5953, 1748.132
430.0774, 1746.584
430.5595, 1747.243
431.0417, 1748.027
431.5238, 1749.268
432.0059, 1749.715
432.4880, 1745.621
432.9701, 1737.093
433.4522, 1736.821
433.9344, 1753.128
434.4165, 1775.150
434.8986, 1773.196
435.3807, 1748.369
435.8628, 1724.556
436.3449, 1721.507
436.8271, 1731.372
437.3092, 1736.744
437.7913, 1734.514
438.2734, 1731.050
438.7555, 1734.206
439.2376, 1740.965
439.7197, 1744.650
440.2018, 1739.636
440.6840, 1732.043
441.1661, 1724.906
441.6482, 1718.530
442.1303, 1716.789
442.6124, 1729.156
443.0945, 1743.402
443.5767, 1748.142
444.0588, 1729.054
444.5409, 1714.254
445.0230, 1714.948
445.5051, 1726.240
445.9872, 1732.562
446.4694, 1726.548
446.9515, 1719.488
447.4336, 1716.182
447.9157, 1719.206
448.3978, 1718.237
448.8799, 1711.486
449.3621, 1701.941
449.8442, 1692.759
450.3263, 1682.796
450.8084, 1675.884
451.2905, 1673.189
451.7726, 1674.270
452.2548, 1677.749
452.7369, 1685.806
453.2190, 1689.346
453.7011, 1679.813
454.1832, 1657.365
454.6653, 1635.670
455.1475, 1614.212
455.6296, 1597.577
456.1117, 1597.623
456.5938, 1611.703
457.0759, 1620.756
457.5580, 1612.303
458.0402, 1593.869
458.5223, 1578.320
459.0044, 1565.601
459.4865, 1555.139
459.9686, 1544.743
460.4507, 1536.692
460.9329, 1535.002
461.4150, 1546.665
461.8971, 1556.133
462.3792, 1553.531
462.8613, 1540.907
463.3434, 1523.717
463.8256, 1496.305
464.3077, 1471.328
464.7898, 1455.929
465.2719, 1452.528
465.7540, 1451.632
466.2361, 1453.696
466.7183, 1456.250
467.2004, 1456.741
467.6825, 1454.663
468.1646, 1450.823
468.6467, 1443.786
469.1288, 1434.463
469.6110, 1429.063
470.0930, 1430.073
470.5752, 1430.874
471.0573, 1428.886
471.5394, 1424.900
472.0215, 1412.159
472.5036, 1385.872
472.9857, 1358.650
473.4679, 1353.998
473.9500, 1372.643
474.4321, 1383.730
474.9142, 1373.573
475.3963, 1350.033
475.8784, 1333.873
476.3606, 1325.069
476.8427, 1321.036
477.3248, 1322.063
477.8069, 1326.092
478.2890, 1329.686
478.7711, 1332.836
479.2533, 1333.780
479.7354, 1331.077
480.2175, 1324.983
480.6996, 1315.970
481.1817, 1298.021
481.6638, 1282.268
482.1460, 1277.998
482.6281, 1285.436
483.1102, 1289.755
483.5923, 1285.293
484.0744, 1275.939
484.5565, 1264.351
485.0387, 1243.239
485.5208, 1229.696
486.0029, 1230.223
486.4850, 1238.749
486.9671, 1241.489
487.4492, 1228.975
487.9314, 1224.578
488.4135, 1239.831
488.8956, 1277.227
489.3777, 1297.473
489.8598, 1296.684
490.3419, 1287.058
490.8241, 1278.696
491.3062, 1271.610
491.7883, 1265.579
492.2704, 1260.239
492.7525, 1256.335
493.2346, 1256.941
493.7168, 1261.493
494.1989, 1263.808
494.6810, 1257.969
495.1631, 1248.157
495.6452, 1243.031
496.1273, 1243.167
496.6095, 1242.899
497.0916, 1238.274
497.5737, 1230.140
498.0558, 1218.871
498.5379, 1197.308
499.0201, 1182.097
499.5022, 1190.481
499.9843, 1213.713
500.4664, 1226.848
500.9485, 1203.938
501.4306, 1183.538
501.9127, 1188.938
502.3948, 1233.064
502.8770, 1255.064
503.3591, 1232.623
503.8412, 1196.492
504.3233, 1172.466
504.8054, 1166.693
505.2875, 1161.942
505.7697, 1155.163
506.2518, 1148.203
506.7339, 1149.596
507.2160, 1162.503
507.6981, 1172.412
508.1802, 1169.830
508.6624, 1155.653
509.1445, 1147.579
509.6266, 1146.408
510.1087, 1147.173
510.5908, 1143.652
511.0729, 1137.414
511.5551, 1134.631
512.0372, 1139.839
512.5193, 1145.102
513.0014, 1138.960
513.4835, 1124.174
513.9656, 1109.986
514.4478, 1094.784
514.9299, 1086.715
515.4120, 1097.090
515.8941, 1129.437
516.3762, 1154.498
516.8583, 1157.709
517.3405, 1149.067
517.8226, 1137.617
518.3047, 1116.245
518.7868, 1102.329
519.2689, 1103.792
519.7510, 1114.930
520.2332, 1118.197
520.7153, 1106.737
521.1974, 1097.688
521.6795, 1099.282
522.1616, 1113.353
522.6437, 1116.186
523.1259, 1104.580
523.6080, 1089.216
524.0901, 1080.979
524.5722, 1079.786
525.0543, 1076.625
525.5364, 1068.378
526.0186, 1060.123
526.5007, 1063.012
526.9828, 1075.035
527.4649, 1085.421
527.9470, 1088.077
528.4291, 1085.880
528.9113, 1080.222
529.3934, 1071.386
529.8755, 1066.758
530.3576, 1073.734
530.8397, 1086.045
531.3218, 1098.768
531.8040, 1118.129
532.2861, 1125.445
532.7682, 1107.554
533.2503, 1074.076
533.7324, 1043.912
534.2145, 1008.676
534.6967, 988.8111
535.1788, 995.3697
535.6609, 1028.907
536.1430, 1047.304
536.6251, 1042.380
537.1072, 1034.365
537.5894, 1036.400
538.0715, 1049.150
538.5536, 1069.841
539.0357, 1102.959
539.5178, 1134.526
539.9999, 1137.815
540.4821, 1115.226
540.9642, 1095.354
541.4463, 1088.700
541.9284, 1091.069
542.4105, 1097.544
542.8926, 1107.325
543.3748, 1114.971
543.8569, 1110.059
544.3390, 1104.408
544.8211, 1114.371
545.3032, 1147.602
545.7853, 1171.920
546.2675, 1161.297
546.7495, 1136.372
547.2316, 1121.658
547.7137, 1133.096
548.1959, 1144.083
548.6780, 1149.628
549.1601, 1150.352
549.6422, 1149.324
550.1243, 1141.678
550.6064, 1139.020
551.0886, 1147.884
551.5707, 1170.542
552.0528, 1185.269
552.5349, 1188.967
553.0170, 1191.799
553.4991, 1209.824
553.9813, 1241.572
554.4634, 1253.921
554.9455, 1234.776
555.4276, 1204.893
555.9097, 1197.393
556.3918, 1208.821
556.8740, 1225.642
557.3561, 1249.845
557.8382, 1270.529
558.3203, 1274.769
558.8024, 1262.864
559.2845, 1246.438
559.7667, 1222.886
560.2488, 1202.714
560.7309, 1194.234
561.2130, 1202.752
561.6951, 1215.525
562.1772, 1239.546
562.6594, 1263.656
563.1415, 1271.141
563.6236, 1253.034
564.1057, 1231.275
564.5878, 1206.990
565.0699, 1181.854
565.5521, 1163.996
566.0342, 1153.366
566.5163, 1150.169
566.9984, 1161.605
567.4805, 1184.915
567.9626, 1184.280
568.4448, 1156.145
568.9269, 1121.992
569.4090, 1104.480
569.8911, 1098.547
570.3732, 1090.673
570.8553, 1074.575
571.3375, 1059.994
571.8196, 1057.149
572.3017, 1062.939
572.7838, 1070.277
573.2659, 1081.222
573.7480, 1088.501
574.2302, 1087.437
574.7123, 1077.637
575.1944, 1067.301
575.6765, 1057.673
576.1586, 1048.018
576.6407, 1037.656
577.1229, 1024.130
577.6050, 1015.488
578.0871, 1013.865
578.5692, 1014.888
579.0513, 1011.593
579.5334, 1003.187
580.0156, 997.1854
580.4977, 996.8508
580.9798, 998.9231
581.4619, 991.4647
581.9440, 976.0969
582.4261, 968.8854
582.9083, 990.0715
583.3904, 1021.229
583.8725, 1036.164
584.3546, 1033.205
584.8367, 1022.510
585.3188, 1000.494
585.8010, 978.8392
586.2831, 969.9805
586.7652, 987.4005
587.2473, 1000.642
587.7294, 997.5765
588.2115, 986.1658
588.6937, 981.1063
589.1758, 987.8225
589.6579, 994.1662
590.1400, 998.1309
590.6221, 999.7680
591.1042, 998.8691
591.5864, 994.5389
592.0685, 990.5786
592.5506, 989.5267
593.0327, 991.1343
593.5148, 991.5812
593.9969, 990.2377
594.4791, 991.4606
594.9612, 1003.463
595.4433, 1021.094
595.9254, 1032.869
596.4075, 1034.552
596.8896, 1032.106
597.3718, 1027.195
597.8539, 1021.964
598.3360, 1020.833
598.8181, 1034.746
599.3002, 1044.350
599.7823, 1035.543
600.2645, 1009.412
600.7466, 999.1207
601.2287, 1018.521
601.7108, 1042.470
602.1929, 1059.944
602.6750, 1069.460
603.1572, 1078.412
603.6393, 1087.810
604.1214, 1094.847
604.6035, 1091.717
605.0856, 1079.052
605.5677, 1083.097
606.0499, 1115.070
606.5320, 1154.163
607.0141, 1167.255
607.4962, 1159.382
607.9783, 1147.588
608.4604, 1136.474
608.9425, 1127.916
609.4246, 1122.413
609.9067, 1120.400
610.3889, 1125.215
610.8710, 1145.801
611.3531, 1167.977
611.8352, 1183.680
612.3173, 1191.527
612.7994, 1194.492
613.2816, 1186.490
613.7637, 1178.788
614.2458, 1185.063
614.7279, 1215.874
615.2100, 1224.081
615.6921, 1196.105
616.1743, 1153.090
616.6564, 1142.315
617.1385, 1162.692
617.6206, 1181.380
618.1027, 1182.577
618.5848, 1175.318
619.0670, 1177.583
619.5491, 1187.760
620.0312, 1195.439
620.5133, 1188.474
620.9954, 1179.587
621.4775, 1183.216
621.9597, 1203.885
622.4418, 1215.635
622.9239, 1200.362
623.4060, 1177.630
623.8881, 1163.573
624.3702, 1162.942
624.8524, 1167.149
625.3345, 1181.202
625.8166, 1196.924
626.2987, 1198.108
626.7808, 1180.898
627.2629, 1167.160
627.7451, 1164.143
628.2272, 1167.904
628.7093, 1168.569
629.1914, 1166.017
629.6735, 1158.051
630.1556, 1139.388
630.6378, 1116.472
631.1199, 1097.432
631.6020, 1082.704
632.0841, 1072.906
632.5662, 1070.844
633.0483, 1072.487
633.5305, 1074.667
634.0126, 1077.523
634.4947, 1079.228
634.9768, 1080.176
635.4589, 1079.417
635.9410, 1075.642
636.4232, 1066.958
636.9053, 1059.048
637.3874, 1052.813
637.8695, 1047.741
638.3516, 1040.961
638.8337, 1031.887
639.3159, 1028.536
639.7980, 1039.638
640.2801, 1057.302
640.7622, 1057.119
641.2443, 1041.011
641.7264, 1029.690
642.2086, 1042.468
642.6907, 1064.617
643.1728, 1081.729
643.6549, 1092.029
644.1370, 1098.599
644.6191, 1102.640
645.1013, 1103.696
645.5834, 1101.343
646.0655, 1085.145
646.5476, 1080.109
647.0297, 1090.268
647.5118, 1109.495
647.9940, 1127.631
648.4761, 1144.352
648.9582, 1162.009
649.4403, 1182.180
649.9224, 1203.040
650.4045, 1217.245
650.8867, 1226.058
651.3688, 1241.959
651.8509, 1282.671
652.3330, 1329.339
652.8151, 1350.685
653.2972, 1347.967
653.7794, 1352.316
654.2615, 1389.427
654.7436, 1434.804
655.2257, 1469.533
655.7078, 1486.373
656.1899, 1507.432
656.6721, 1536.124
657.1542, 1570.271
657.6363, 1608.144
658.1184, 1650.746
658.6005, 1694.969
659.0826, 1741.878
659.5648, 1787.986
660.0469, 1821.901
660.5290, 1844.771
661.0111, 1881.858
661.4932, 1951.087
661.9753, 2029.363
662.4575, 2078.464
662.9396, 2104.134
663.4217, 2128.650
663.9038, 2170.622
664.3859, 2211.009
664.8680, 2231.860
665.3502, 2232.984
665.8323, 2242.781
666.3144, 2284.250
666.7965, 2323.150
667.2786, 2342.803
667.7607, 2343.181
668.2429, 2321.049
668.7250, 2266.921
669.2071, 2204.943
669.6892, 2163.183
670.1713, 2140.777
670.6534, 2106.196
671.1355, 2053.982
671.6176, 1990.256
672.0997, 1918.880
672.5818, 1843.525
673.0640, 1772.377
673.5461, 1713.091
674.0282, 1654.441
674.5103, 1580.491
674.9924, 1500.116
675.4745, 1437.298
675.9567, 1422.450
676.4388, 1403.969
676.9209, 1356.642
677.4030, 1283.937
677.8851, 1235.446
678.3672, 1219.047
678.8494, 1211.907
679.3315, 1204.714
679.8136, 1197.423
680.2957, 1183.520
680.7778, 1162.966
681.2599, 1137.545
681.7421, 1101.869
682.2242, 1064.001
682.7063, 1043.159
683.1884, 1045.428
683.6705, 1050.603
684.1526, 1043.600
684.6348, 1031.623
685.1169, 1023.085
685.5990, 1027.289
686.0811, 1026.757
686.5632, 1014.616
687.0453, 997.1576
687.5275, 984.1334
688.0096, 974.4975
688.4917, 973.5036
688.9738, 987.8092
689.4559, 1008.640
689.9380, 1001.064
690.4202, 966.1617
690.9023, 939.4055
691.3844, 950.2890
691.8665, 977.3345
692.3486, 986.0182
692.8307, 977.7590
693.3129, 967.7917
693.7950, 963.1664
694.2771, 961.6116
694.7592, 960.9897
695.2413, 960.3201
695.7234, 964.6293
696.2056, 973.6776
696.6877, 988.7676
697.1698, 1013.723
697.6519, 1056.567
698.1340, 1080.565
698.6161, 1081.067
699.0983, 1070.611
699.5804, 1062.302
700.0625, 1056.445
700.5446, 1054.604
701.0267, 1057.669
701.5089, 1063.563
701.9910, 1072.070
702.4731, 1081.466
702.9552, 1088.339
703.4373, 1083.482
703.9194, 1083.881
704.4016, 1101.869
704.8837, 1131.648
705.3658, 1151.957
705.8479, 1155.959
706.3300, 1157.836
706.8121, 1161.743
707.2943, 1166.948
707.7764, 1167.281
708.2585, 1162.342
708.7406, 1155.272
709.2227, 1147.329
709.7048, 1138.849
710.1870, 1130.481
710.6691, 1122.222
711.1512, 1115.317
711.6333, 1109.451
712.1154, 1105.879
712.5975, 1105.904
713.0797, 1109.849
713.5618, 1116.608
714.0439, 1131.129
714.5260, 1144.875
715.0081, 1150.693
715.4902, 1144.983
715.9724, 1139.399
716.4545, 1135.163
716.9366, 1129.697
717.4187, 1117.648
717.9008, 1099.487
718.3829, 1086.387
718.8651, 1081.825
719.3472, 1080.498
719.8293, 1077.089
720.3114, 1071.364
720.7935, 1062.697
721.2756, 1043.409
721.7578, 1028.589
722.2399, 1034.696
722.7220, 1052.316
723.2041, 1051.735
723.6862, 1010.801
724.1683, 973.3492
724.6505, 948.9590
725.1326, 936.7240
725.6147, 932.2604
726.0968, 936.9656
726.5789, 942.0735
727.0610, 945.6255
727.5432, 945.7225
728.0253, 934.1505
728.5074, 911.7245
728.9895, 888.4693
729.4716, 864.0634
729.9537, 847.0938
730.4359, 851.5457
730.9180, 882.5021
731.4001, 900.4150
731.8822, 881.9841
732.3643, 855.8389
732.8464, 841.0805
733.3285, 840.7815
733.8106, 843.8758
734.2927, 852.4676
734.7748, 860.3332
735.2570, 862.4103
735.7391, 858.4050
736.2212, 842.8881
736.7033, 811.7032
737.1854, 782.6656
737.6675, 779.6133
738.1497, 790.9951
738.6318, 797.5598
739.1139, 787.4918
739.5960, 780.2074
740.0781, 785.5404
740.5602, 798.1469
741.0424, 808.3918
741.5245, 816.7867
742.0066, 821.0055
742.4887, 819.5938
742.9708, 814.4126
743.4529, 809.6439
743.9351, 805.2476
744.4172, 802.1740
744.8993, 802.7473
745.3814, 803.0664
745.8635, 791.9982
746.3456, 773.5787
746.8278, 757.3370
747.3099, 762.7034
747.7920, 765.7524
748.2741, 766.6085
748.7562, 758.7037
749.2383, 762.1118
749.7205, 760.9863
750.2026, 759.6748
750.6847, 764.6750
751.1668, 758.0446
751.6489, 762.9448
752.1310, 763.2422
752.6132, 765.6461
753.0953, 763.4885
753.5774, 764.4385
754.0595, 772.7369
754.5416, 789.6292
755.0237, 804.0230
755.5059, 807.0189
755.9880, 804.7651
756.4701, 802.2757
756.9522, 800.2123
757.4343, 798.1340
757.9164, 796.3950
758.3986, 794.2310
758.8807, 792.0432
759.3628, 791.7664
759.8449, 780.1310
760.3270, 751.3231
760.8091, 726.9938
761.2913, 741.8806
761.7734, 783.2258
762.2555, 805.7779
762.7376, 797.7479
763.2197, 782.6398
763.7018, 779.5429
764.1840, 781.9933
764.6661, 781.4034
765.1482, 763.2682
765.6303, 758.2067
766.1124, 784.7309
766.5945, 820.8365
767.0767, 834.6519
767.5588, 818.9828
768.0409, 805.1531
768.5230, 797.3271
769.0051, 795.7236
769.4872, 804.3677
769.9694, 820.6992
770.4515, 832.4858
770.9336, 833.8248
771.4157, 830.2876
771.8978, 825.2755
772.3799, 819.3120
772.8621, 813.7207
773.3442, 810.2588
773.8263, 805.7648
774.3084, 801.7201
774.7905, 796.0664
775.2726, 778.6222
775.7548, 742.4258
776.2369, 718.0635
776.7190, 719.0531
777.2011, 737.8929
777.6832, 755.7978
778.1653, 772.5296
778.6475, 785.9197
779.1296, 789.6979
779.6117, 793.3572
780.0938, 810.7269
780.5759, 838.1118
781.0580, 853.2004
781.5402, 836.4012
782.0223, 818.4567
782.5044, 810.7276
782.9865, 812.9314
783.4686, 819.5875
783.9507, 834.0231
784.4329, 841.5785
784.9150, 823.7527
785.3971, 791.9049
785.8792, 799.4112
786.3613, 843.1680
786.8434, 877.8420
787.3256, 856.1792
787.8077, 821.1013
788.2898, 812.1189
788.7719, 834.5259
789.2540, 851.5922
789.7361, 849.3694
790.2183, 843.7505
790.7004, 841.2012
791.1825, 841.2598
791.6646, 850.6110
792.1467, 872.2856
792.6288, 890.8079
793.1110, 889.2004
793.5930, 874.9443
794.0751, 870.5724
794.5573, 878.1216
795.0394, 886.1866
795.5215, 888.3936
796.0036, 885.8528
796.4857, 876.9493
796.9678, 856.0698
797.4500, 848.7572
797.9321, 866.7545
798.4142, 889.8605
798.8963, 905.0170
799.3784, 912.2396
799.8605, 910.8447
800.3427, 899.5422
800.8248, 885.9852
801.3069, 875.7440
801.7890, 869.4333
802.2711, 870.0117
802.7532, 879.5979
803.2354, 886.6307
803.7175, 882.0224
804.1996, 872.7288
804.6817, 864.9650
805.1638, 857.8160
805.6459, 856.5500
806.1281, 865.1423
806.6102, 874.8705
807.0923, 874.2189
807.5744, 863.2198
808.0565, 862.9581
808.5386, 877.8035
809.0208, 893.0934
809.5029, 889.0486
809.9850, 874.8767
810.4671, 867.0579
810.9492, 873.1906
811.4313, 864.9528
811.9135, 872.6621
812.3956, 878.0533
812.8777, 881.2515
813.3598, 875.6890
813.8419, 881.4394
814.3240, 882.6558
814.8062, 883.6873
815.2883, 891.0299
815.7704, 886.7415
816.2525, 893.9839
816.7346, 896.6237
817.2167, 901.3696
817.6989, 901.5549
818.1810, 903.1485
818.6631, 909.3049
819.1452, 900.6651
819.6273, 892.5137
820.1094, 894.3560
820.5916, 899.7716
821.0737, 901.1268
821.5558, 895.8244
822.0379, 899.2149
822.5200, 915.9822
823.0021, 934.1929
823.4843, 934.9287
823.9664, 923.6786
824.4485, 916.3327
824.9306, 919.0682
825.4127, 921.0594
825.8948, 911.9583
826.3770, 898.8937
826.8591, 890.6782
827.3412, 885.2524
827.8233, 892.1791
828.3054, 921.7361
828.7875, 953.5844
829.2697, 954.7950
829.7518, 924.9148
830.2339, 904.8776
830.7160, 902.1498
831.1981, 907.6443
831.6802, 914.0085
832.1624, 920.0390
832.6445, 923.9836
833.1266, 927.6813
833.6087, 924.8448
834.0908, 901.2217
834.5729, 875.8644
835.0551, 873.7454
835.5372, 910.2264
836.0193, 927.1534
836.5014, 914.4140
836.9835, 892.3295
837.4656, 891.7242
837.9478, 907.1049
838.4299, 916.5206
838.9120, 914.2498
839.3941, 908.9149
839.8762, 907.1417
840.3583, 906.7021
840.8405, 904.8643
841.3226, 899.7865
841.8047, 894.8085
842.2868, 886.4078
842.7689, 881.6453
843.2510, 894.2840
843.7332, 926.8098
844.2153, 933.7708
844.6974, 904.4891
845.1795, 870.3432
845.6616, 873.5718
846.1437, 896.5014
846.6259, 908.3989
847.1080, 897.7203
847.5901, 888.7964
848.0722, 893.9168
848.5543, 904.6870
849.0364, 913.2002
849.5186, 922.0483
850.0007, 920.3610
850.4828, 904.6831
850.9649, 886.0010
851.4470, 874.8945
851.9291, 871.1444
852.4113, 876.4884
852.8934, 892.9462
853.3755, 904.9359
853.8576, 891.5946
854.3397, 872.5201
854.8218, 868.4041
855.3040, 891.8814
855.7860, 906.8289
856.2681, 908.4858
856.7502, 903.8779
857.2324, 895.4685
857.7145, 883.0161
858.1966, 884.0817
858.6787, 900.9709
859.1608, 918.1699
859.6429, 922.7906
860.1251, 918.2229
860.6072, 906.2441
861.0893, 885.4164
861.5714, 871.5041
862.0535, 870.5204
862.5356, 878.5696
863.0178, 894.5732
863.4999, 920.8638
863.9820, 939.9438
864.4641, 951.7990
864.9462, 955.2783
865.4283, 944.9055
865.9105, 926.2183
866.3926, 910.2110
866.8747, 897.8511
867.3568, 893.9836
867.8389, 912.5131
868.3210, 932.0627
868.8032, 936.0696
869.2853, 920.6703
869.7674, 916.9370
870.2495, 932.4730
870.7316, 945.2947
871.2137, 942.2380
871.6959, 926.5729
872.1780, 916.1163
872.6601, 910.7795
873.1422, 909.3154
873.6243, 915.1467
874.1064, 921.2418
874.5886, 919.4827
875.0707, 910.8828
875.5528, 906.0214
876.0349, 910.9550
876.5170, 915.7034
876.9991, 917.4630
877.4813, 916.7303
877.9634, 914.8100
878.4455, 911.5552
878.9276, 912.4900
879.4097, 922.0682
879.8918, 935.8314
880.3740, 953.9694
880.8561, 971.8537
881.3382, 975.5566
881.8203, 936.2128
882.3024, 907.8986
882.7845, 918.9846
883.2667, 951.5719
883.7488, 962.2537
884.2309, 946.3589
884.7130, 932.2593
885.1951, 927.0967
885.6772, 928.1619
886.1594, 934.6094
886.6415, 943.3808
887.1236, 946.6646
887.6057, 936.7637
888.0878, 927.1923
888.5699, 923.4445
889.0521, 924.2025
889.5342, 927.4429
890.0163, 934.3425
890.4984, 941.0355
890.9805, 948.0563
891.4626, 953.0308
891.9448, 948.8400
892.4269, 939.3539
892.9090, 939.4705
893.3911, 955.5104
893.8732, 969.6413
894.3553, 964.3512
894.8375, 952.9545
895.3196, 949.7960
895.8017, 964.8323
896.2838, 971.0449
896.7659, 964.1524
897.2480, 955.6395
897.7302, 958.9701
898.2123, 971.2728
898.6944, 970.8602
899.1765, 955.7916
899.6586, 941.5280
900.1407, 938.9994
900.6229, 944.4452
901.1050, 958.7262
901.5871, 984.9096
902.0692, 994.3857
902.5513, 972.3626
903.0334, 950.8511
903.5156, 947.0392
903.9977, 959.2582
904.4798, 966.1402
904.9619, 967.7134
905.4440, 966.7568
905.9261, 963.0389
906.4083, 959.1965
906.8904, 959.0766
907.3725, 961.8536
907.8546, 961.9874
908.3367, 954.6801
908.8188, 948.2097
909.3010, 945.5016
909.7831, 945.3279
910.2652, 941.0549
910.7473, 932.5710
911.2294, 931.6895
911.7115, 946.8317
912.1937, 966.7884
912.6758, 977.8307
913.1579, 982.4481
913.6400, 986.2674
914.1221, 992.9083
914.6042, 996.7160
915.0864, 996.2014
915.5685, 992.5530
916.0506, 985.6277
916.5327, 974.4382
917.0148, 972.2939
917.4969, 983.4622
917.9790, 996.5363
918.4611, 995.9353
918.9432, 988.4277
919.4254, 985.3715
919.9075, 992.1849
920.3896, 995.7095
920.8717, 988.2245
921.3538, 978.3499
921.8359, 972.3770
922.3181, 970.5456
922.8002, 970.8448
923.2823, 973.1839
923.7644, 977.9924
924.2465, 985.3394
924.7286, 995.3795
925.2108, 1011.012
925.6929, 1032.147
926.1750, 1046.674
926.6571, 1042.416
927.1392, 1037.447
927.6213, 1043.086
928.1035, 1057.756
928.5856, 1057.173
929.0677, 1038.625
929.5498, 1024.952
930.0319, 1031.759
930.5140, 1047.507
930.9962, 1053.914
931.4783, 1052.742
931.9604, 1049.685
932.4425, 1039.992
932.9246, 1037.022
933.4067, 1051.854
933.8889, 1074.226
934.3710, 1082.809
934.8531, 1074.895
935.3352, 1070.911
935.8173, 1076.215
936.2994, 1084.714
936.7816, 1087.231
937.2637, 1086.897
937.7458, 1090.230
938.2279, 1103.050
938.7100, 1110.621
939.1921, 1100.597
939.6743, 1088.251
940.1564, 1087.641
940.6385, 1101.775
941.1206, 1108.578
941.6027, 1105.396
942.0848, 1107.736
942.5670, 1141.451
943.0491, 1184.424
943.5312, 1199.443
944.0133, 1183.215
944.4954, 1174.516
944.9775, 1198.608
945.4597, 1223.769
945.9418, 1235.186
946.4239, 1233.991
946.9060, 1229.092
947.3881, 1219.089
947.8702, 1225.313
948.3524, 1279.605
948.8345, 1338.506
949.3166, 1327.358
949.7987, 1269.530
950.2808, 1228.892
950.7629, 1243.335
951.2451, 1261.727
951.7272, 1273.748
952.2093, 1281.362
952.6914, 1287.658
953.1735, 1292.582
953.6556, 1296.326
954.1378, 1297.948
954.6199, 1301.801
955.1020, 1317.725
955.5841, 1336.910
956.0662, 1346.228
956.5483, 1337.977
957.0305, 1333.883
957.5126, 1340.135
957.9947, 1349.093
958.4768, 1354.601
958.9589, 1356.611
959.4410, 1367.497
959.9232, 1387.589
960.4053, 1406.138
960.8874, 1416.796
961.3695, 1421.018
961.8516, 1419.323
962.3337, 1412.068
962.8159, 1401.236
963.2980, 1377.078
963.7801, 1364.636
964.2622, 1374.933
964.7443, 1399.262
965.2264, 1407.781
965.7086, 1403.110
966.1907, 1405.119
966.6728, 1425.502
967.1549, 1448.395
967.6370, 1459.417
968.1191, 1464.719
968.6013, 1473.742
969.0834, 1497.039
969.5655, 1507.650
970.0476, 1500.651
970.5297, 1488.691
971.0118, 1483.499
971.4940, 1485.286
971.9761, 1499.435
972.4582, 1527.623
972.9403, 1545.967
973.4224, 1528.130
973.9045, 1502.887
974.3867, 1490.207
974.8688, 1491.595
975.3509, 1502.335
975.8330, 1525.376
976.3151, 1548.220
976.7972, 1564.827
977.2794, 1576.586
977.7615, 1589.355
978.2436, 1600.978
978.7257, 1604.121
979.2078, 1584.847
979.6899, 1568.150
980.1720, 1564.292
980.6541, 1569.346
981.1362, 1577.651
981.6183, 1590.623
982.1005, 1598.871
982.5826, 1600.927
983.0647, 1598.507
983.5468, 1589.195
984.0289, 1578.434
984.5110, 1578.470
984.9932, 1596.340
985.4753, 1600.467
985.9574, 1565.048
986.4395, 1528.486
986.9216, 1513.713
987.4037, 1520.023
987.8859, 1508.563
988.3680, 1479.415
988.8501, 1454.371
989.3322, 1447.842
989.8143, 1451.743
990.2964, 1463.539
990.7786, 1479.572
991.2607, 1487.724
991.7428, 1479.762
992.2249, 1472.081
992.7070, 1466.810
993.1891, 1463.487
993.6713, 1462.275
994.1534, 1462.527
994.6355, 1461.080
995.1176, 1457.023
995.5997, 1451.822
996.0818, 1444.107
996.5640, 1437.290
997.0461, 1435.696
997.5282, 1441.865
998.0103, 1442.007
998.4924, 1433.289
998.9745, 1427.243
999.4567, 1436.851
999.9388, 1453.634
1000.421, 1454.409
1000.903, 1442.097
1001.385, 1433.504
1001.867, 1435.026
1002.349, 1444.353
1002.831, 1468.511
1003.314, 1497.590
1003.796, 1505.827
1004.278, 1491.019
1004.760, 1482.785
1005.242, 1490.976
1005.724, 1497.928
1006.206, 1472.392
1006.688, 1436.305
1007.171, 1423.024
1007.653, 1451.712
1008.135, 1466.740
1008.617, 1453.012
1009.099, 1436.359
1009.581, 1435.706
1010.063, 1449.014
1010.545, 1450.925
1011.027, 1442.666
1011.510, 1438.821
1011.992, 1457.146
1012.474, 1475.691
1012.956, 1479.602
1013.438, 1470.453
1013.920, 1456.486
1014.402, 1434.133
1014.884, 1419.865
1015.367, 1419.650
1015.849, 1423.024
1016.331, 1411.688
1016.813, 1391.239
1017.295, 1374.157
1017.777, 1364.221
1018.259, 1355.162
1018.741, 1341.012
1019.223, 1330.168
1019.706, 1329.290
1020.188, 1339.114
1020.670, 1345.061
1021.152, 1347.106
1021.634, 1345.913
1022.116, 1339.489
1022.598, 1331.907
1023.080, 1327.856
1023.563, 1326.410
1024.045, 1324.334
1024.527, 1326.174
1025.009, 1316.647
1025.491, 1285.306
1025.973, 1253.468
1026.455, 1267.288
1026.937, 1312.371
1027.419, 1330.286
1027.901, 1306.063
1028.384, 1275.593
1028.866, 1255.397
1029.348, 1243.162
1029.830, 1238.427
1030.312, 1241.195
1030.794, 1245.824
1031.276, 1253.169
1031.758, 1257.330
1032.241, 1252.898
1032.723, 1244.752
1033.205, 1240.252
1033.687, 1238.166
1034.169, 1235.012
1034.651, 1230.783
1035.133, 1223.159
1035.615, 1207.985
1036.098, 1193.453
1036.580, 1194.422
1037.062, 1208.028
1037.544, 1210.462
1038.026, 1197.493
1038.508, 1188.024
1038.990, 1210.317
1039.472, 1231.335
1039.954, 1218.461
1040.437, 1169.548
1040.919, 1139.215
1041.401, 1130.590
1041.883, 1128.305
1042.365, 1128.873
1042.847, 1128.554
1043.329, 1118.391
1043.811, 1102.163
1044.293, 1088.446
1044.776, 1083.311
1045.258, 1076.576
1045.740, 1063.306
1046.222, 1050.869
1046.704, 1046.976
1047.186, 1051.352
1047.668, 1056.720
1048.150, 1062.691
1048.633, 1068.556
1049.115, 1077.620
1049.597, 1083.029
1050.079, 1076.320
1050.561, 1059.200
1051.043, 1048.780
1051.525, 1045.270
1052.007, 1050.636
1052.490, 1070.063
1052.972, 1089.688
1053.454, 1080.935
1053.936, 1056.465
1054.418, 1041.965
1054.900, 1048.913
1055.382, 1053.517
1055.864, 1047.725
1056.346, 1039.357
1056.828, 1033.079
1057.311, 1028.734
1057.793, 1022.259
1058.275, 1013.961
1058.757, 1009.188
1059.239, 1015.224
1059.721, 1022.092
1060.203, 1019.092
1060.685, 1011.957
1061.168, 1018.264
1061.650, 1046.517
1062.132, 1060.769
1062.614, 1054.239
1063.096, 1038.891
1063.578, 1025.253
1064.060, 1014.530
1064.542, 1008.697
1065.025, 1008.183
1065.507, 1010.767
1065.989, 1023.626
1066.471, 1029.438
1066.953, 1018.118
1067.435, 995.3066
1067.917, 985.9827
1068.399, 988.2451
1068.881, 990.5870
1069.364, 984.7545
1069.846, 983.1219
1070.328, 1001.724
1070.810, 1024.652
1071.292, 1030.152
1071.774, 1011.662
1072.256, 999.2794
1072.738, 993.3530
1073.220, 994.7993
1073.703, 1009.380
1074.185, 1028.666
1074.667, 1043.221
1075.149, 1052.584
1075.631, 1056.242
1076.113, 1049.122
1076.595, 1043.820
1077.077, 1042.663
1077.559, 1044.667
1078.042, 1048.927
1078.524, 1054.837
1079.006, 1061.349
1079.488, 1069.087
1079.970, 1072.580
1080.452, 1067.135
1080.934, 1057.596
1081.416, 1043.762
1081.899, 1026.714
1082.381, 1033.614
1082.863, 1064.758
1083.345, 1091.120
1083.827, 1098.380
1084.309, 1094.202
1084.791, 1079.003
1085.273, 1059.292
1085.755, 1047.041
1086.238, 1045.505
1086.720, 1048.363
1087.202, 1057.867
1087.684, 1064.353
1088.166, 1048.980
1088.648, 1027.744
1089.130, 1040.447
1089.612, 1083.745
1090.094, 1109.590
1090.577, 1082.717
1091.059, 1056.058
1091.541, 1046.099
1092.023, 1043.838
1092.505, 1025.676
1092.987, 995.9456
1093.469, 978.3654
1093.951, 979.4215
1094.434, 987.2481
1094.916, 1003.858
1095.398, 1016.016
1095.880, 1009.983
1096.362, 985.7100
1096.844, 971.8725
1097.326, 969.1064
1097.808, 966.8416
1098.291, 958.3453
1098.773, 949.3354
1099.255, 949.7807
1099.737, 953.7393
1100.219, 950.3748
1100.701, 926.9198
1101.183, 915.5245
1101.665, 917.6559
1102.147, 929.4159
1102.630, 955.3994
1103.112, 985.3231
1103.594, 994.5892
1104.076, 984.7034
1104.558, 975.1589
1105.040, 975.0089
1105.522, 975.2593
1106.004, 974.4554
1106.486, 971.6923
1106.969, 961.6831
1107.451, 947.0658
1107.933, 945.3940
1108.415, 962.2016
1108.897, 975.9958
1109.379, 973.1359
1109.861, 960.6091
1110.343, 935.7637
1110.826, 902.0319
1111.308, 908.6061
1111.790, 958.2014
1112.272, 990.8692
1112.754, 975.8810
1113.236, 944.1479
1113.718, 920.7384
1114.200, 904.7227
1114.682, 894.9996
1115.165, 890.8817
1115.647, 896.2221
1116.129, 915.1799
1116.611, 929.5190
1117.093, 921.6918
1117.575, 901.7200
1118.057, 882.5844
1118.539, 866.5929
1119.021, 860.9707
1119.504, 878.5961
1119.986, 892.6855
1120.468, 898.8995
1120.950, 900.8931
1121.432, 905.0432
1121.914, 909.3051
1122.396, 904.9529
1122.878, 890.9973
1123.361, 878.2000
1123.843, 876.7455
1124.325, 872.6318
1124.807, 855.3917
1125.289, 832.1044
1125.771, 827.9733
1126.253, 841.4775
1126.735, 853.8452
1127.218, 859.6175
1127.700, 863.6064
1128.182, 872.4036
1128.664, 879.1743
1129.146, 876.4243
1129.628, 863.7714
1130.110, 847.9342
1130.592, 827.4324
1131.074, 820.0386
1131.557, 850.4028
1132.039, 881.8328
1132.521, 856.5969
1133.003, 805.8631
1133.485, 787.3942
1133.967, 837.0859
1134.449, 861.2382
1134.931, 852.6866
1135.413, 838.2151
1135.896, 844.3777
1136.378, 858.6731
1136.860, 859.8881
1137.342, 849.1547
1137.824, 835.9490
1138.306, 815.6082
1138.788, 804.5833
1139.270, 808.2507
1139.752, 817.3995
1140.235, 817.9175
1140.717, 812.8485
1141.199, 810.8602
1141.681, 813.1310
1142.163, 815.5291
1142.645, 818.5475
1143.127, 818.1409
1143.609, 811.4656
1144.092, 801.1740
1144.574, 796.3516
1145.056, 795.8856
1145.538, 792.6771
1146.020, 783.2131
1146.502, 776.3405
1146.984, 783.4883
1147.466, 790.4788
1147.948, 783.6215
1148.431, 763.6962
1148.913, 764.7034
1149.395, 786.1076
1149.877, 800.9149
1150.359, 787.6277
1150.841, 773.6571
1151.323, 785.9277
1151.805, 808.3104
1152.287, 817.2051
1152.770, 808.3567
1153.252, 798.3887
1153.734, 786.7770
1154.216, 778.4669
1154.698, 779.4913
1155.180, 783.9880
1155.662, 786.7324
1156.144, 787.8143
1156.627, 787.8576
1157.109, 786.7078
1157.591, 785.1283
1158.073, 782.7324
1158.555, 781.6663
1159.037, 786.3768
1159.519, 792.6597
1160.001, 793.8773
1160.484, 789.9636
1160.966, 787.0256
1161.448, 785.6588
1161.930, 786.5125
1162.412, 790.6269
1162.894, 795.3055
1163.376, 798.4480
1163.858, 798.1549
1164.340, 787.4302
1164.823, 762.5314
1165.305, 748.5535
1165.787, 761.3351
1166.269, 771.9487
1166.751, 767.8037
1167.233, 755.3619
1167.715, 752.1231
1168.197, 755.4356
1168.679, 757.2094
1169.162, 754.7097
1169.644, 750.8923
1170.126, 743.0905
1170.608, 738.3065
1171.090, 742.7653
1171.572, 754.2360
1172.054, 758.1972
1172.536, 755.7570
1173.019, 753.0952
1173.501, 745.4479
1173.983, 747.8469
1174.465, 782.6862
1174.947, 817.9205
1175.429, 820.3736
1175.911, 791.1688
1176.393, 769.7675
1176.875, 757.4819
1177.358, 753.4946
1177.840, 767.8992
1178.322, 779.4068
1178.804, 770.7819
1179.286, 753.9219
1179.768, 748.3414
1180.250, 754.2468
1180.732, 762.3511
1181.214, 771.9461
1181.697, 778.4692
1182.179, 776.1028
1182.661, 771.5287
1183.143, 767.6141
1183.625, 765.6239
1184.107, 770.5831
1184.589, 783.2333
1185.071, 792.3395
1185.554, 796.2862
1186.036, 793.1996
1186.518, 772.4462
1187.000, 750.4717
1187.482, 745.3069
1187.964, 755.6950
1188.446, 756.0309
1188.928, 744.4204
1189.411, 740.6735
1189.893, 753.3394
1190.375, 769.4545
1190.857, 776.6532
1191.339, 778.4575
1191.821, 777.2507
1192.303, 772.5363
1192.785, 775.1162
1193.267, 786.9758
1193.750, 792.2996
1194.232, 778.4741
1194.714, 762.6432
1195.196, 770.1992
1195.678, 786.9346
1196.160, 790.8182
1196.642, 774.0583
1197.124, 759.7750
1197.606, 747.1251
1198.089, 740.8839
1198.571, 746.8278
1199.053, 758.7616
1199.535, 775.9464
1200.017, 791.6838
1200.499, 790.4786
1200.981, 757.1877
1201.463, 737.5858
1201.945, 733.5760
1202.428, 740.5569
1202.910, 766.2434
1203.392, 792.8859
1203.874, 793.8026
1204.356, 775.2744
1204.838, 761.0606
1205.320, 756.7228
1205.802, 751.8691
1206.285, 745.9439
1206.767, 738.0326
1207.249, 719.0071
1207.731, 702.6046
1208.213, 714.7281
1208.695, 751.0703
1209.177, 772.5358
1209.659, 771.7947
1210.141, 761.4958
1210.624, 738.9169
1211.106, 722.6819
1211.588, 745.3220
1212.070, 783.2486
1212.552, 805.1619
1213.034, 807.5340
1213.516, 800.1249
1213.998, 779.5234
1214.480, 763.2904
1214.963, 755.9901
1215.445, 753.9351
1215.927, 750.7449
1216.409, 749.7310
1216.891, 758.8646
1217.373, 780.8776
1217.855, 790.1899
1218.337, 783.3283
1218.820, 768.6743
1219.302, 744.7772
1219.784, 723.0211
1220.266, 723.1992
1220.748, 736.8797
1221.230, 753.7527
1221.712, 774.5527
1222.194, 782.3383
1222.677, 771.3990
1223.159, 764.4037
1223.641, 775.3911
1224.123, 790.3189
1224.605, 784.5810
1225.087, 768.0825
1225.569, 757.0546
1226.051, 756.9183
1226.533, 757.6923
1227.016, 759.0552
1227.498, 762.0260
1227.980, 768.3556
1228.462, 775.4135
1228.944, 780.6375
1229.426, 783.2239
1229.908, 781.3574
1230.390, 771.4576
1230.872, 763.8308
1231.355, 758.1716
1231.837, 756.3173
1232.319, 762.6953
1232.801, 771.3539
1233.283, 773.1984
1233.765, 771.2399
1234.247, 772.7734
1234.729, 783.3069
1235.212, 785.2961
1235.694, 777.2459
1236.176, 765.9482
1236.658, 750.9254
1237.140, 740.4046
1237.622, 750.3851
1238.104, 772.4586
1238.586, 781.7681
1239.068, 772.2275
1239.551, 765.3666
1240.033, 762.6635
1240.515, 762.4532
1240.997, 763.7994
1241.479, 766.4929
1241.961, 774.6700
1242.443, 783.7362
1242.925, 776.6299
1243.407, 745.8814
1243.890, 735.0537
1244.372, 750.4489
1244.854, 772.9733
1245.336, 790.7680
1245.818, 802.5293
1246.300, 804.2227
1246.782, 798.1207
1247.264, 794.2620
1247.747, 792.8538
1248.229, 791.3524
1248.711, 789.0981
1249.193, 789.3463
1249.675, 802.4320
1250.157, 812.5623
1250.639, 801.8975
1251.121, 777.7840
1251.604, 766.9149
1252.086, 769.9005
1252.568, 767.7623
1253.050, 756.3818
1253.532, 746.0677
1254.014, 742.3763
1254.496, 745.6497
1254.978, 761.9808
1255.460, 784.3282
1255.943, 787.4543
1256.425, 772.9822
1256.907, 766.2938
1257.389, 774.0024
1257.871, 780.6118
1258.353, 770.6044
1258.835, 761.5262
1259.317, 766.2684
1259.799, 778.9476
1260.281, 760.5245
1260.764, 776.8344
1261.246, 785.4226
1261.728, 786.7009
1262.210, 758.7767
1262.692, 768.5615
1263.174, 763.2344
1263.656, 757.2874
1264.138, 772.3799
1264.621, 748.7003
1265.103, 763.4588
1265.585, 762.8749
1266.067, 769.3127
1266.549, 760.5453
1267.031, 756.4741
1267.513, 767.6135
1267.995, 770.3306
1268.478, 759.8098
1268.960, 758.5303
1269.442, 754.8046
1269.924, 762.4803
1270.406, 793.6661
1270.888, 807.6403
1271.370, 790.4932
1271.852, 775.2347
1272.334, 779.1983
1272.817, 792.6873
1273.299, 801.6735
1273.781, 804.4788
1274.263, 795.9753
1274.745, 766.9583
1275.227, 755.1390
1275.709, 765.8363
1276.191, 779.3571
1276.673, 789.2269
1277.156, 792.0495
1277.638, 772.7982
1278.120, 747.7933
1278.602, 745.3644
1279.084, 778.7897
1279.566, 785.8059
1280.048, 762.6443
1280.530, 743.2867
1281.013, 750.2393
1281.495, 760.8475
1281.977, 747.2281
1282.459, 726.3980
1282.941, 722.6566
1283.423, 739.0130
1283.905, 742.8593
##END=



