##NAMES=Hubeite
##RRUFFID=R060964
##IDEAL CHEMISTRY=Ca_2_Mn^2+^Fe^3+^Si_4_O_12_(OH)&#183;2H_2_O
##LOCALITY=Fengjiashan mine, Daye, Hubei Province, China
##OWNER=RRUFF
##SOURCE=Michael Scott
##DESCRIPTION=Dark brown thin bladed crystals coated with fluorapophyllite, on quartz
##STATUS=The identification of this mineral is confirmed by single-crystal X-ray diffraction and chemical analysis.
##URL=rruff.info/R060964
##MEASURED CHEMISTRY=Ca_2.00_Mn^2+^_1.00_(Fe^3+^_0.85_Al_0.15_)_Σ=1_Si_4.00_O_12_(OH)·1.90H_2_O; OH estimated by charge balance; H_2_O by difference
137.9200, 1526.890
138.4021, 1530.566
138.8842, 1542.815
139.3664, 1559.985
139.8485, 1583.025
140.3306, 1612.653
140.8127, 1646.465
141.2948, 1693.734
141.7769, 1761.235
142.2591, 1834.952
142.7412, 1904.737
143.2233, 1968.111
143.7054, 2029.962
144.1875, 2097.380
144.6696, 2168.921
145.1517, 2249.801
145.6339, 2353.793
146.1160, 2458.312
146.5981, 2544.234
147.0802, 2605.878
147.5623, 2651.302
148.0444, 2695.894
148.5266, 2743.785
149.0087, 2783.902
149.4908, 2818.147
149.9729, 2844.236
150.4550, 2856.937
150.9371, 2854.657
151.4193, 2844.690
151.9014, 2842.483
152.3835, 2852.039
152.8656, 2864.401
153.3477, 2887.594
153.8298, 2910.746
154.3120, 2918.699
154.7941, 2905.175
155.2762, 2878.324
155.7583, 2857.149
156.2404, 2840.262
156.7225, 2830.260
157.2047, 2833.231
157.6868, 2842.179
158.1689, 2846.594
158.6510, 2842.062
159.1331, 2831.541
159.6152, 2821.783
160.0974, 2808.450
160.5795, 2802.402
161.0616, 2810.941
161.5437, 2828.140
162.0258, 2842.368
162.5079, 2847.927
162.9901, 2849.790
163.4722, 2861.202
163.9543, 2885.616
164.4364, 2910.137
164.9185, 2929.144
165.4007, 2944.975
165.8828, 2963.767
166.3649, 2989.742
166.8470, 3017.476
167.3291, 3034.432
167.8112, 3035.999
168.2933, 3038.472
168.7755, 3055.083
169.2576, 3078.942
169.7397, 3088.900
170.2218, 3073.458
170.7039, 3043.172
171.1860, 3019.510
171.6682, 3002.888
172.1503, 2990.663
172.6324, 2985.411
173.1145, 2984.568
173.5966, 2978.145
174.0787, 2961.058
174.5609, 2937.575
175.0430, 2914.668
175.5251, 2890.152
176.0072, 2871.483
176.4893, 2869.500
176.9714, 2879.324
177.4536, 2877.609
177.9357, 2850.856
178.4178, 2812.999
178.8999, 2787.431
179.3820, 2777.303
179.8641, 2768.755
180.3463, 2753.505
180.8284, 2732.404
181.3105, 2710.399
181.7926, 2689.387
182.2747, 2667.696
182.7568, 2641.208
183.2390, 2607.058
183.7211, 2579.092
184.2032, 2568.212
184.6853, 2572.598
185.1674, 2579.816
185.6495, 2584.136
186.1317, 2592.534
186.6138, 2610.371
187.0959, 2637.433
187.5780, 2675.689
188.0601, 2731.844
188.5422, 2803.014
189.0244, 2871.389
189.5065, 2929.556
189.9886, 2984.978
190.4707, 3043.848
190.9528, 3106.146
191.4349, 3174.357
191.9170, 3259.623
192.3992, 3357.202
192.8813, 3432.175
193.3634, 3466.611
193.8455, 3483.825
194.3276, 3513.329
194.8097, 3556.311
195.2919, 3584.869
195.7740, 3576.898
196.2561, 3536.013
196.7382, 3486.673
197.2203, 3434.147
197.7024, 3372.346
198.1846, 3297.849
198.6667, 3210.573
199.1488, 3115.114
199.6309, 3010.592
200.1130, 2898.085
200.5951, 2787.212
201.0773, 2673.022
201.5594, 2569.399
202.0415, 2487.889
202.5236, 2426.598
203.0057, 2368.532
203.4878, 2302.261
203.9700, 2229.830
204.4521, 2159.902
204.9342, 2090.921
205.4163, 2029.162
205.8984, 1979.256
206.3805, 1940.132
206.8627, 1906.704
207.3448, 1876.204
207.8269, 1849.119
208.3090, 1827.890
208.7911, 1815.820
209.2732, 1804.951
209.7554, 1788.146
210.2375, 1767.300
210.7196, 1748.985
211.2017, 1738.005
211.6838, 1732.269
212.1659, 1724.592
212.6480, 1711.622
213.1302, 1703.086
213.6123, 1707.855
214.0944, 1721.740
214.5765, 1735.155
215.0586, 1741.620
215.5407, 1744.827
216.0229, 1755.934
216.5050, 1780.522
216.9871, 1799.319
217.4692, 1794.415
217.9513, 1776.159
218.4334, 1762.487
218.9156, 1759.583
219.3977, 1765.757
219.8798, 1780.312
220.3619, 1806.223
220.8440, 1830.575
221.3261, 1846.885
221.8083, 1856.927
222.2904, 1861.594
222.7725, 1857.709
223.2546, 1851.668
223.7367, 1852.151
224.2188, 1859.589
224.7010, 1871.233
225.1831, 1891.912
225.6652, 1914.053
226.1473, 1926.691
226.6294, 1923.784
227.1115, 1916.311
227.5937, 1916.897
228.0758, 1926.036
228.5579, 1934.631
229.0400, 1936.183
229.5221, 1936.512
230.0042, 1943.118
230.4864, 1957.938
230.9685, 1976.627
231.4506, 1998.090
231.9327, 2021.879
232.4148, 2039.783
232.8969, 2043.228
233.3791, 2043.750
233.8612, 2057.403
234.3433, 2087.802
234.8254, 2118.405
235.3075, 2137.926
235.7896, 2147.835
236.2717, 2155.037
236.7539, 2158.597
237.2360, 2163.775
237.7181, 2177.547
238.2002, 2200.430
238.6823, 2224.029
239.1644, 2244.893
239.6466, 2263.247
240.1287, 2278.734
240.6108, 2290.070
241.0929, 2301.112
241.5750, 2315.805
242.0571, 2333.755
242.5393, 2355.053
243.0214, 2382.889
243.5035, 2413.336
243.9856, 2437.432
244.4677, 2451.831
244.9498, 2468.430
245.4320, 2502.677
245.9141, 2551.552
246.3962, 2596.729
246.8783, 2633.821
247.3604, 2665.580
247.8425, 2694.266
248.3247, 2720.233
248.8068, 2744.456
249.2889, 2767.479
249.7710, 2789.298
250.2531, 2810.900
250.7352, 2838.998
251.2174, 2861.980
251.6995, 2869.058
252.1816, 2860.944
252.6637, 2847.143
253.1458, 2834.222
253.6279, 2819.916
254.1101, 2795.937
254.5922, 2763.293
255.0743, 2720.707
255.5564, 2662.732
256.0385, 2593.461
256.5206, 2525.007
257.0027, 2464.107
257.4849, 2407.904
257.9670, 2346.476
258.4491, 2274.790
258.9312, 2206.302
259.4133, 2145.127
259.8954, 2089.614
260.3776, 2036.917
260.8597, 1985.496
261.3418, 1937.600
261.8239, 1897.930
262.3060, 1873.425
262.7881, 1843.395
263.2703, 1795.677
263.7524, 1746.086
264.2345, 1714.029
264.7166, 1703.933
265.1987, 1701.735
265.6808, 1688.163
266.1630, 1655.595
266.6451, 1632.308
267.1272, 1622.337
267.6093, 1618.149
268.0914, 1615.495
268.5735, 1613.442
269.0557, 1611.845
269.5378, 1610.238
270.0199, 1608.043
270.5020, 1610.365
270.9841, 1618.618
271.4662, 1628.974
271.9484, 1640.529
272.4305, 1652.906
272.9126, 1665.049
273.3947, 1675.849
273.8768, 1685.772
274.3589, 1701.647
274.8411, 1732.712
275.3232, 1759.625
275.8053, 1775.474
276.2874, 1785.558
276.7695, 1797.512
277.2516, 1815.190
277.7338, 1837.438
278.2159, 1861.180
278.6980, 1892.162
279.1801, 1915.207
279.6622, 1924.543
280.1443, 1928.353
280.6265, 1934.396
281.1086, 1944.960
281.5907, 1955.907
282.0728, 1959.967
282.5549, 1954.016
283.0370, 1950.165
283.5192, 1950.937
284.0013, 1952.645
284.4834, 1955.093
284.9655, 1957.247
285.4476, 1955.586
285.9297, 1944.738
286.4119, 1923.808
286.8940, 1906.719
287.3761, 1897.498
287.8582, 1888.146
288.3403, 1873.888
288.8224, 1856.477
289.3046, 1840.731
289.7867, 1831.057
290.2688, 1825.431
290.7509, 1815.834
291.2330, 1800.359
291.7151, 1784.619
292.1972, 1773.644
292.6794, 1763.508
293.1615, 1748.276
293.6436, 1724.793
294.1257, 1696.617
294.6078, 1665.925
295.0899, 1631.481
295.5721, 1604.501
296.0542, 1592.020
296.5363, 1588.595
297.0184, 1589.269
297.5005, 1595.301
297.9826, 1599.229
298.4648, 1592.873
298.9469, 1578.608
299.4290, 1568.665
299.9111, 1567.679
300.3932, 1570.233
300.8753, 1568.449
301.3575, 1561.964
301.8396, 1558.822
302.3217, 1563.525
302.8038, 1572.940
303.2859, 1582.280
303.7680, 1590.777
304.2502, 1599.677
304.7323, 1610.431
305.2144, 1623.063
305.6965, 1635.418
306.1786, 1650.049
306.6607, 1662.331
307.1429, 1665.875
307.6250, 1662.426
308.1071, 1662.687
308.5892, 1674.493
309.0713, 1695.828
309.5534, 1712.051
310.0356, 1720.559
310.5177, 1728.010
310.9998, 1735.225
311.4819, 1742.963
311.9640, 1753.468
312.4461, 1768.032
312.9283, 1783.171
313.4104, 1791.156
313.8925, 1783.308
314.3746, 1780.574
314.8567, 1788.353
315.3388, 1797.791
315.8210, 1798.598
316.3031, 1790.461
316.7852, 1784.420
317.2673, 1794.658
317.7494, 1826.272
318.2315, 1852.093
318.7137, 1869.483
319.1958, 1883.941
319.6779, 1899.279
320.1600, 1913.609
320.6421, 1920.849
321.1242, 1914.277
321.6064, 1897.732
322.0885, 1896.133
322.5706, 1917.777
323.0527, 1943.052
323.5348, 1972.839
324.0169, 2000.604
324.4991, 2017.046
324.9812, 2017.598
325.4633, 2011.402
325.9454, 2013.456
326.4275, 2025.844
326.9096, 2036.007
327.3918, 2042.956
327.8739, 2044.905
328.3560, 2038.484
328.8381, 2023.641
329.3202, 2008.332
329.8023, 2003.763
330.2845, 2005.213
330.7666, 1989.192
331.2487, 1946.456
331.7308, 1898.112
332.2129, 1861.739
332.6950, 1834.026
333.1772, 1804.622
333.6593, 1766.394
334.1414, 1726.821
334.6235, 1696.798
335.1056, 1676.323
335.5877, 1653.232
336.0698, 1619.068
336.5519, 1577.220
337.0341, 1540.201
337.5162, 1507.234
337.9983, 1479.990
338.4804, 1462.658
338.9625, 1451.242
339.4446, 1437.474
339.9268, 1418.184
340.4089, 1396.473
340.8910, 1377.207
341.3731, 1359.010
341.8552, 1347.291
342.3373, 1346.194
342.8195, 1349.087
343.3016, 1351.729
343.7837, 1353.121
344.2658, 1352.790
344.7479, 1349.731
345.2300, 1343.492
345.7122, 1341.679
346.1943, 1350.215
346.6764, 1356.609
347.1585, 1355.404
347.6406, 1349.761
348.1227, 1344.743
348.6049, 1342.818
349.0870, 1344.044
349.5691, 1348.717
350.0512, 1357.632
350.5333, 1368.645
351.0154, 1380.201
351.4976, 1394.188
351.9797, 1413.771
352.4618, 1438.963
352.9439, 1464.179
353.4260, 1481.574
353.9081, 1491.279
354.3903, 1507.345
354.8724, 1534.339
355.3545, 1563.516
355.8366, 1591.401
356.3187, 1617.159
356.8008, 1638.654
357.2830, 1650.733
357.7651, 1659.990
358.2472, 1678.005
358.7293, 1705.448
359.2114, 1734.667
359.6935, 1762.285
360.1757, 1789.253
360.6578, 1818.185
361.1399, 1853.073
361.6220, 1882.312
362.1041, 1895.155
362.5862, 1898.143
363.0684, 1907.020
363.5505, 1927.183
364.0326, 1949.865
364.5147, 1963.469
364.9968, 1966.521
365.4789, 1965.130
365.9611, 1951.215
366.4432, 1939.218
366.9253, 1940.790
367.4074, 1955.052
367.8895, 1973.826
368.3716, 1991.392
368.8538, 2007.938
369.3359, 2025.241
369.8180, 2042.916
370.3001, 2061.791
370.7822, 2082.426
371.2643, 2104.140
371.7465, 2126.971
372.2286, 2150.748
372.7107, 2173.798
373.1928, 2194.310
373.6749, 2214.111
374.1570, 2225.567
374.6392, 2219.881
375.1213, 2212.595
375.6034, 2209.311
376.0855, 2210.961
376.5676, 2217.615
377.0497, 2229.997
377.5319, 2247.358
378.0140, 2268.206
378.4961, 2295.147
378.9782, 2318.760
379.4603, 2328.185
379.9424, 2333.258
380.4246, 2346.231
380.9066, 2369.188
381.3888, 2401.326
381.8709, 2444.544
382.3530, 2497.211
382.8351, 2552.970
383.3172, 2611.248
383.7993, 2669.948
384.2815, 2722.519
384.7636, 2767.004
385.2457, 2825.451
385.7278, 2904.972
386.2099, 2997.972
386.6920, 3101.508
387.1742, 3213.304
387.6563, 3325.393
388.1384, 3432.781
388.6205, 3534.902
389.1026, 3632.031
389.5847, 3721.670
390.0669, 3809.456
390.5490, 3900.661
391.0311, 3989.132
391.5132, 4066.999
391.9953, 4131.942
392.4774, 4188.202
392.9596, 4242.360
393.4417, 4295.766
393.9238, 4343.199
394.4059, 4398.408
394.8880, 4434.981
395.3701, 4433.677
395.8523, 4402.474
396.3344, 4365.211
396.8165, 4339.824
397.2986, 4316.565
397.7807, 4265.637
398.2628, 4179.042
398.7450, 4092.527
399.2271, 4015.796
399.7092, 3949.188
400.1913, 3897.465
400.6734, 3865.293
401.1555, 3830.587
401.6377, 3769.183
402.1198, 3694.565
402.6019, 3643.766
403.0840, 3627.604
403.5661, 3621.413
404.0482, 3601.100
404.5304, 3566.170
405.0125, 3534.822
405.4946, 3512.303
405.9767, 3489.841
406.4588, 3461.042
406.9409, 3427.927
407.4231, 3398.276
407.9052, 3376.901
408.3873, 3357.285
408.8694, 3321.045
409.3515, 3250.539
409.8336, 3188.602
410.3158, 3144.590
410.7979, 3102.887
411.2800, 3052.043
411.7621, 2990.832
412.2442, 2925.101
412.7263, 2858.728
413.2085, 2791.745
413.6906, 2725.667
414.1727, 2660.027
414.6548, 2595.736
415.1369, 2535.222
415.6190, 2475.144
416.1012, 2409.633
416.5833, 2334.831
417.0654, 2261.888
417.5475, 2204.849
418.0296, 2162.234
418.5117, 2121.089
418.9939, 2077.922
419.4760, 2036.370
419.9581, 2003.010
420.4402, 1976.845
420.9223, 1946.834
421.4044, 1908.018
421.8866, 1865.863
422.3687, 1823.709
422.8508, 1782.464
423.3329, 1744.824
423.8150, 1712.692
424.2971, 1685.191
424.7793, 1658.805
425.2614, 1634.515
425.7435, 1610.026
426.2256, 1580.795
426.7077, 1554.020
427.1898, 1536.884
427.6719, 1529.981
428.1541, 1528.052
428.6362, 1526.982
429.1183, 1526.888
429.6004, 1521.131
430.0825, 1501.850
430.5646, 1487.167
431.0468, 1484.056
431.5289, 1488.107
432.0110, 1493.680
432.4931, 1499.161
432.9752, 1504.079
433.4573, 1506.329
433.9395, 1506.292
434.4216, 1511.589
434.9037, 1526.416
435.3858, 1543.102
435.8679, 1554.603
436.3500, 1561.380
436.8322, 1564.800
437.3143, 1562.498
437.7964, 1558.988
438.2785, 1559.953
438.7606, 1564.041
439.2427, 1564.661
439.7249, 1558.548
440.2070, 1546.237
440.6891, 1529.125
441.1712, 1500.907
441.6533, 1476.517
442.1354, 1454.789
442.6176, 1438.133
443.0997, 1430.285
443.5818, 1430.229
444.0639, 1432.654
444.5460, 1433.588
445.0281, 1432.848
445.5103, 1427.602
445.9924, 1410.895
446.4745, 1401.279
446.9566, 1406.611
447.4387, 1419.618
447.9208, 1433.056
448.4030, 1445.229
448.8851, 1456.977
449.3672, 1467.325
449.8493, 1477.401
450.3314, 1493.178
450.8135, 1517.022
451.2957, 1542.025
451.7778, 1558.271
452.2599, 1569.141
452.7420, 1594.381
453.2241, 1650.889
453.7062, 1707.560
454.1884, 1744.155
454.6705, 1767.840
455.1526, 1793.104
455.6347, 1825.124
456.1168, 1865.999
456.5989, 1919.815
457.0811, 1991.975
457.5632, 2064.378
458.0453, 2142.956
458.5274, 2215.742
459.0095, 2273.369
459.4916, 2320.284
459.9738, 2367.224
460.4559, 2420.024
460.9380, 2477.139
461.4201, 2535.844
461.9022, 2598.206
462.3843, 2654.091
462.8665, 2701.652
463.3486, 2740.729
463.8307, 2769.090
464.3128, 2787.184
464.7949, 2804.862
465.2770, 2833.275
465.7592, 2860.950
466.2413, 2870.387
466.7234, 2861.146
467.2055, 2843.289
467.6876, 2821.885
468.1697, 2796.324
468.6519, 2764.113
469.1340, 2722.449
469.6161, 2679.415
470.0982, 2641.210
470.5803, 2598.751
471.0624, 2540.049
471.5445, 2465.714
472.0266, 2388.721
472.5088, 2320.012
472.9909, 2258.968
473.4730, 2198.451
473.9551, 2134.135
474.4372, 2077.206
474.9193, 2034.543
475.4015, 1997.161
475.8836, 1955.484
476.3657, 1907.244
476.8478, 1859.145
477.3299, 1815.926
477.8120, 1777.393
478.2942, 1744.825
478.7763, 1719.802
479.2584, 1694.372
479.7405, 1659.753
480.2226, 1619.613
480.7047, 1591.132
481.1869, 1583.249
481.6690, 1577.526
482.1511, 1565.220
482.6332, 1551.084
483.1153, 1542.943
483.5974, 1542.647
484.0796, 1545.050
484.5617, 1543.756
485.0438, 1537.809
485.5259, 1535.953
486.0080, 1543.996
486.4901, 1549.978
486.9723, 1546.995
487.4544, 1541.399
487.9365, 1543.038
488.4186, 1555.850
488.9007, 1571.334
489.3828, 1577.552
489.8650, 1575.537
490.3471, 1580.048
490.8292, 1596.351
491.3113, 1613.118
491.7934, 1618.271
492.2755, 1615.641
492.7577, 1618.538
493.2398, 1634.880
493.7219, 1651.429
494.2040, 1660.204
494.6861, 1663.446
495.1682, 1664.587
495.6504, 1664.737
496.1325, 1666.310
496.6146, 1672.512
497.0967, 1683.547
497.5788, 1698.516
498.0609, 1723.576
498.5431, 1745.791
499.0252, 1757.230
499.5073, 1763.521
499.9894, 1775.665
500.4715, 1799.033
500.9536, 1822.176
501.4358, 1824.867
501.9179, 1807.319
502.4000, 1803.213
502.8821, 1825.800
503.3642, 1848.974
503.8463, 1847.566
504.3285, 1828.348
504.8106, 1813.578
505.2927, 1812.566
505.7748, 1812.476
506.2569, 1806.674
506.7390, 1795.474
507.2212, 1778.721
507.7033, 1756.223
508.1854, 1731.574
508.6675, 1709.678
509.1496, 1691.788
509.6317, 1671.116
510.1139, 1649.055
510.5960, 1622.959
511.0781, 1588.050
511.5602, 1549.489
512.0423, 1514.561
512.5244, 1486.053
513.0065, 1462.420
513.4886, 1442.801
513.9708, 1426.932
514.4529, 1411.101
514.9350, 1395.104
515.4171, 1378.605
515.8992, 1359.459
516.3813, 1339.300
516.8635, 1324.136
517.3456, 1319.392
517.8277, 1314.970
518.3098, 1304.568
518.7919, 1291.057
519.2740, 1278.468
519.7562, 1268.071
520.2383, 1262.144
520.7204, 1264.740
521.2025, 1277.564
521.6846, 1281.788
522.1667, 1264.655
522.6489, 1252.843
523.1310, 1257.076
523.6131, 1268.265
524.0952, 1274.248
524.5773, 1271.296
525.0594, 1267.602
525.5416, 1272.953
526.0237, 1284.990
526.5058, 1291.953
526.9879, 1291.281
527.4700, 1291.610
527.9521, 1300.341
528.4343, 1314.916
528.9164, 1324.350
529.3985, 1323.535
529.8806, 1324.736
530.3627, 1331.848
530.8448, 1342.971
531.3270, 1355.930
531.8091, 1370.346
532.2912, 1387.575
532.7733, 1409.944
533.2554, 1436.316
533.7375, 1453.962
534.2197, 1453.590
534.7018, 1460.938
535.1839, 1484.001
535.6660, 1515.610
536.1481, 1554.224
536.6302, 1598.418
537.1124, 1634.145
537.5945, 1647.163
538.0766, 1647.621
538.5587, 1653.716
539.0408, 1665.986
539.5229, 1675.952
540.0051, 1678.200
540.4872, 1676.315
540.9693, 1679.598
541.4514, 1694.156
541.9335, 1702.130
542.4156, 1697.221
542.8978, 1690.051
543.3799, 1689.518
543.8620, 1693.305
544.3441, 1693.135
544.8262, 1683.992
545.3083, 1668.080
545.7905, 1648.429
546.2726, 1623.605
546.7547, 1604.382
547.2368, 1594.020
547.7189, 1588.598
548.2010, 1588.213
548.6832, 1590.896
549.1653, 1585.895
549.6474, 1561.189
550.1295, 1536.220
550.6116, 1528.161
551.0938, 1530.524
551.5759, 1526.951
552.0580, 1512.147
552.5401, 1494.250
553.0222, 1484.275
553.5043, 1483.454
553.9865, 1482.149
554.4686, 1482.925
554.9507, 1480.229
555.4328, 1470.890
555.9149, 1457.989
556.3970, 1444.115
556.8792, 1429.879
557.3613, 1419.542
557.8434, 1420.046
558.3255, 1427.721
558.8076, 1429.971
559.2897, 1425.043
559.7719, 1420.445
560.2540, 1420.921
560.7361, 1425.340
561.2182, 1429.356
561.7003, 1428.941
562.1824, 1434.593
562.6646, 1452.877
563.1467, 1474.237
563.6288, 1490.553
564.1109, 1501.891
564.5930, 1512.914
565.0751, 1526.720
565.5573, 1542.740
566.0394, 1559.774
566.5215, 1578.415
567.0036, 1595.073
567.4857, 1606.655
567.9678, 1618.439
568.4500, 1634.826
568.9321, 1655.423
569.4142, 1677.583
569.8963, 1708.228
570.3784, 1733.187
570.8605, 1736.523
571.3427, 1726.537
571.8248, 1723.268
572.3069, 1733.147
572.7890, 1746.331
573.2711, 1750.391
573.7532, 1744.649
574.2354, 1736.114
574.7175, 1726.956
575.1996, 1711.955
575.6817, 1687.766
576.1638, 1658.311
576.6459, 1626.600
577.1281, 1593.364
577.6102, 1562.497
578.0923, 1539.908
578.5744, 1521.101
579.0565, 1496.177
579.5386, 1464.556
580.0208, 1431.483
580.5029, 1398.586
580.9850, 1367.564
581.4671, 1343.100
581.9492, 1333.688
582.4313, 1316.471
582.9134, 1280.767
583.3955, 1246.644
583.8776, 1229.876
584.3597, 1224.928
584.8419, 1216.524
585.3240, 1196.415
585.8061, 1170.925
586.2882, 1148.494
586.7703, 1129.202
587.2524, 1113.893
587.7346, 1103.053
588.2167, 1095.572
588.6988, 1093.057
589.1809, 1093.927
589.6630, 1088.682
590.1451, 1071.748
590.6273, 1055.205
591.1094, 1041.951
591.5915, 1031.704
592.0736, 1024.050
592.5557, 1018.967
593.0378, 1017.247
593.5200, 1020.565
594.0021, 1026.957
594.4842, 1027.302
594.9663, 1019.989
595.4484, 1012.094
595.9305, 1004.696
596.4127, 998.0873
596.8948, 991.8532
597.3769, 986.1751
597.8590, 983.4755
598.3411, 988.1438
598.8232, 992.6349
599.3054, 990.1572
599.7875, 983.4136
600.2696, 979.3909
600.7517, 980.1966
601.2338, 980.7195
601.7159, 974.2588
602.1981, 960.4203
602.6802, 946.5673
603.1623, 932.0499
603.6444, 918.4366
604.1265, 906.5015
604.6086, 895.5139
605.0908, 883.8564
605.5729, 871.1724
606.0550, 862.1224
606.5371, 863.7090
607.0192, 867.7112
607.5013, 863.1215
607.9835, 850.5712
608.4656, 835.8111
608.9477, 821.2391
609.4298, 807.3647
609.9119, 794.7934
610.3940, 782.4945
610.8762, 774.8457
611.3583, 776.9423
611.8404, 778.3926
612.3225, 774.7953
612.8046, 768.4954
613.2867, 762.8599
613.7689, 758.7346
614.2510, 756.5063
614.7331, 758.0856
615.2152, 761.3982
615.6973, 761.8866
616.1794, 759.1860
616.6616, 755.7422
617.1437, 753.2202
617.6258, 750.6316
618.1079, 744.8841
618.5900, 730.9572
619.0721, 722.7856
619.5543, 721.5224
620.0364, 724.4570
620.5185, 734.3938
621.0006, 746.8065
621.4827, 752.3632
621.9648, 746.2542
622.4470, 736.1440
622.9291, 726.8681
623.4112, 720.2753
623.8933, 726.0886
624.3754, 746.8052
624.8575, 764.0905
625.3397, 762.9368
625.8218, 748.6852
626.3039, 745.1984
626.7860, 768.7305
627.2681, 780.6678
627.7502, 767.3770
628.2324, 753.0599
628.7145, 756.7543
629.1966, 773.7601
629.6787, 786.4583
630.1608, 784.5201
630.6429, 778.0430
631.1251, 780.9941
631.6072, 791.7890
632.0893, 802.3335
632.5714, 811.5723
633.0535, 817.5664
633.5356, 816.7766
634.0178, 811.0874
634.4999, 814.6876
634.9820, 839.2866
635.4641, 856.6208
635.9462, 857.8621
636.4283, 855.6044
636.9105, 857.4645
637.3926, 864.8851
637.8747, 878.6253
638.3568, 901.4837
638.8389, 926.2720
639.3210, 939.9766
639.8032, 944.4979
640.2853, 954.3958
640.7674, 972.6910
641.2495, 996.0972
641.7316, 1022.873
642.2137, 1052.414
642.6959, 1078.927
643.1780, 1094.343
643.6601, 1117.750
644.1422, 1157.077
644.6243, 1201.123
645.1064, 1242.661
645.5886, 1280.360
646.0707, 1313.995
646.5528, 1340.713
647.0349, 1367.857
647.5170, 1407.095
647.9991, 1457.446
648.4813, 1511.247
648.9634, 1567.262
649.4455, 1626.936
649.9276, 1691.482
650.4097, 1760.941
650.8918, 1832.690
651.3740, 1903.425
651.8561, 1981.805
652.3382, 2073.356
652.8203, 2169.760
653.3024, 2265.089
653.7845, 2359.598
654.2667, 2454.869
654.7488, 2553.006
655.2309, 2650.479
655.7130, 2739.315
656.1951, 2822.253
656.6772, 2917.551
657.1594, 3030.827
657.6415, 3137.100
658.1236, 3215.392
658.6057, 3267.788
659.0878, 3310.851
659.5699, 3345.096
660.0521, 3368.501
660.5342, 3382.698
661.0163, 3384.574
661.4984, 3374.329
661.9805, 3349.977
662.4626, 3305.433
662.9448, 3233.881
663.4269, 3149.395
663.9090, 3069.182
664.3911, 2987.886
664.8732, 2884.701
665.3553, 2756.312
665.8375, 2624.337
666.3196, 2504.798
666.8017, 2396.226
667.2838, 2290.875
667.7659, 2193.426
668.2480, 2090.803
668.7302, 1966.599
669.2123, 1851.685
669.6944, 1770.154
670.1765, 1711.901
670.6586, 1648.593
671.1407, 1566.465
671.6229, 1485.865
672.1050, 1423.208
672.5870, 1373.507
673.0692, 1330.324
673.5513, 1291.897
674.0334, 1254.346
674.5155, 1214.730
674.9976, 1175.008
675.4797, 1141.155
675.9619, 1115.695
676.4440, 1088.754
676.9261, 1056.358
677.4082, 1026.522
677.8903, 1004.952
678.3724, 988.3480
678.8546, 970.0300
679.3367, 948.0854
679.8188, 926.2809
680.3009, 906.4175
680.7830, 887.9058
681.2651, 869.1234
681.7473, 850.8354
682.2294, 835.8661
682.7115, 825.5850
683.1936, 819.5553
683.6757, 818.4513
684.1578, 823.1754
684.6400, 822.4774
685.1221, 812.9669
685.6042, 804.3397
686.0863, 803.1368
686.5684, 805.3136
687.0505, 803.9306
687.5327, 798.8993
688.0148, 790.2200
688.4969, 769.7932
688.9790, 753.2531
689.4611, 755.9128
689.9432, 769.7196
690.4254, 778.9434
690.9075, 777.8801
691.3896, 770.7194
691.8717, 759.7432
692.3538, 746.3401
692.8359, 737.2543
693.3181, 732.5712
693.8002, 732.7589
694.2823, 739.8564
694.7644, 749.0626
695.2465, 753.1071
695.7286, 750.6899
696.2108, 749.1508
696.6929, 746.9143
697.1750, 747.3453
697.6571, 755.2872
698.1392, 764.3484
698.6213, 766.2990
699.1035, 760.5361
699.5856, 754.9058
700.0677, 756.4449
700.5498, 760.3188
701.0319, 757.8489
701.5140, 750.7685
701.9962, 748.4109
702.4783, 753.7776
702.9604, 757.4976
703.4425, 748.5436
703.9246, 728.3256
704.4067, 720.2098
704.8889, 732.7759
705.3710, 742.3452
705.8531, 742.7932
706.3352, 741.1738
706.8173, 742.2089
707.2994, 745.3682
707.7816, 747.5717
708.2637, 747.5284
708.7458, 746.7823
709.2279, 744.0726
709.7100, 742.3467
710.1921, 747.1537
710.6743, 757.9900
711.1564, 768.9789
711.6385, 776.4491
712.1206, 781.0652
712.6027, 784.5458
713.0848, 787.0507
713.5670, 785.7903
714.0491, 777.6177
714.5312, 772.1431
715.0133, 777.1277
715.4954, 788.5986
715.9775, 795.7865
716.4597, 797.2315
716.9418, 798.1725
717.4239, 794.5161
717.9060, 795.2564
718.3881, 810.7557
718.8702, 833.5006
719.3524, 849.5494
719.8345, 854.1960
720.3166, 854.2720
720.7987, 853.5746
721.2808, 853.9361
721.7629, 860.9566
722.2451, 874.3090
722.7272, 888.4565
723.2093, 901.7278
723.6914, 912.2032
724.1735, 916.1721
724.6556, 912.3369
725.1378, 915.8773
725.6199, 932.8546
726.1020, 948.5065
726.5841, 961.1026
727.0662, 970.1286
727.5483, 973.7045
728.0305, 972.6022
728.5126, 972.7349
728.9947, 976.7498
729.4768, 982.2304
729.9589, 988.0695
730.4410, 994.0681
730.9232, 999.7230
731.4053, 1005.130
731.8874, 1011.732
732.3695, 1021.396
732.8516, 1030.861
733.3337, 1030.849
733.8159, 1020.789
734.2980, 1013.808
734.7801, 1013.484
735.2622, 1011.447
735.7443, 1002.041
736.2264, 986.4988
736.7086, 968.6616
737.1907, 941.5005
737.6728, 925.6017
738.1549, 935.6266
738.6370, 943.4539
739.1191, 929.3026
739.6013, 903.5633
740.0834, 886.1943
740.5655, 883.2696
741.0476, 881.1281
741.5297, 869.7566
742.0118, 852.4092
742.4940, 830.7432
742.9761, 807.1094
743.4582, 792.0054
743.9403, 789.3054
744.4224, 788.3073
744.9045, 775.1382
745.3867, 750.5347
745.8688, 730.8749
746.3509, 717.1700
746.8330, 705.6769
747.3151, 695.2909
747.7972, 686.9539
748.2794, 682.4224
748.7615, 681.0430
749.2436, 678.6804
749.7257, 672.4969
750.2078, 668.3101
750.6899, 672.8894
751.1721, 676.5529
751.6542, 667.1200
752.1363, 648.0861
752.6184, 633.4725
753.1005, 630.8545
753.5826, 632.8640
754.0648, 631.9562
754.5469, 628.3646
755.0290, 621.6591
755.5111, 612.0607
755.9932, 604.2443
756.4753, 600.7187
756.9575, 599.8083
757.4396, 598.3820
757.9217, 596.1680
758.4038, 594.8506
758.8859, 594.1672
759.3680, 594.7943
759.8502, 599.7361
760.3323, 604.3905
760.8144, 603.2020
761.2965, 595.9742
761.7786, 589.6661
762.2607, 586.2912
762.7428, 583.8665
763.2249, 581.4501
763.7070, 579.3396
764.1891, 579.2819
764.6713, 580.3942
765.1534, 577.7552
765.6355, 566.5593
766.1176, 553.2975
766.5997, 549.3268
767.0818, 552.6798
767.5640, 553.6446
768.0461, 550.7314
768.5282, 550.0139
769.0103, 555.8023
769.4924, 565.6078
769.9745, 573.5148
770.4567, 579.8914
770.9388, 582.9730
771.4209, 579.5078
771.9030, 577.1500
772.3851, 581.0298
772.8672, 586.6848
773.3494, 588.5560
773.8315, 586.0325
774.3136, 582.2473
774.7957, 577.3824
775.2778, 572.2060
775.7599, 564.2649
776.2421, 557.7056
776.7242, 559.7351
777.2063, 570.1692
777.6884, 581.1411
778.1705, 588.4018
778.6526, 591.1219
779.1348, 584.4836
779.6169, 571.6740
780.0990, 566.7960
780.5811, 572.1984
781.0632, 580.8157
781.5453, 588.3207
782.0275, 594.2115
782.5096, 597.1659
782.9917, 597.0573
783.4738, 593.8560
783.9559, 582.9687
784.4380, 576.1932
784.9202, 584.4329
785.4023, 597.2736
785.8844, 598.8634
786.3665, 586.7971
786.8486, 578.3890
787.3307, 578.0593
787.8129, 580.6431
788.2950, 585.7410
788.7771, 591.1469
789.2592, 594.5234
789.7413, 595.5339
790.2234, 594.9766
790.7056, 592.3351
791.1877, 589.8937
791.6698, 591.4067
792.1519, 595.2572
792.6340, 597.4261
793.1161, 597.3531
793.5983, 596.1089
794.0804, 594.2407
794.5625, 592.2722
795.0446, 590.7543
795.5267, 589.2862
796.0089, 592.3610
796.4910, 601.6100
796.9731, 611.5045
797.4552, 621.3005
797.9373, 628.8276
798.4194, 629.5173
798.9016, 621.5328
799.3837, 617.5806
799.8658, 618.2260
800.3479, 622.2337
800.8300, 630.7181
801.3121, 641.3462
801.7943, 652.2674
802.2764, 663.2925
802.7585, 675.0995
803.2406, 687.8979
803.7227, 701.5244
804.2048, 713.2601
804.6870, 727.1849
805.1691, 750.9203
805.6512, 782.8224
806.1333, 814.9594
806.6154, 843.4796
807.0975, 869.7450
807.5797, 894.1022
808.0618, 917.5334
808.5439, 945.6028
809.0260, 978.6064
809.5081, 1012.321
809.9902, 1046.598
810.4724, 1075.063
810.9545, 1088.654
811.4366, 1087.811
811.9187, 1089.523
812.4008, 1103.763
812.8829, 1101.566
813.3651, 1072.935
813.8472, 1031.373
814.3293, 979.7679
814.8114, 922.6599
815.2935, 871.2517
815.7756, 826.3361
816.2578, 789.0803
816.7399, 762.4086
817.2220, 741.2485
817.7041, 722.7128
818.1862, 706.9082
818.6683, 695.4570
819.1505, 688.4962
819.6326, 681.8763
820.1147, 672.0502
820.5968, 661.0363
821.0789, 649.9213
821.5610, 640.0829
822.0432, 635.8884
822.5253, 637.8543
823.0074, 641.3671
823.4895, 642.7336
823.9716, 643.3758
824.4537, 647.7487
824.9359, 656.0484
825.4180, 661.8802
825.9001, 665.2570
826.3822, 662.4095
826.8643, 648.2887
827.3464, 631.0679
827.8286, 627.2803
828.3107, 641.6787
828.7928, 646.8325
829.2749, 631.2635
829.7570, 621.8726
830.2391, 630.8084
830.7213, 643.9969
831.2034, 648.3694
831.6855, 644.9606
832.1676, 644.0064
832.6497, 648.8284
833.1318, 655.1379
833.6140, 663.3092
834.0961, 670.5873
834.5782, 673.9670
835.0603, 674.5002
835.5424, 674.0447
836.0245, 673.0924
836.5067, 676.4342
836.9888, 691.1885
837.4709, 711.1740
837.9530, 729.4218
838.4351, 744.2489
838.9172, 749.6998
839.3994, 744.8985
839.8815, 739.8795
840.3636, 744.4005
840.8457, 754.8550
841.3278, 760.2459
841.8099, 760.5248
842.2921, 759.3436
842.7742, 756.4280
843.2563, 756.1948
843.7384, 761.6848
844.2205, 771.1577
844.7026, 781.2194
845.1848, 792.8002
845.6669, 801.2805
846.1490, 805.2953
846.6311, 808.2237
847.1132, 807.2403
847.5953, 808.4241
848.0775, 820.6540
848.5596, 842.3900
849.0417, 856.5812
849.5238, 854.2089
850.0059, 853.1227
850.4880, 857.9310
850.9702, 866.0236
851.4523, 877.9626
851.9343, 890.9772
852.4164, 898.3968
852.8986, 897.3851
853.3807, 898.9760
853.8628, 915.9706
854.3449, 934.9243
854.8270, 938.5065
855.3091, 933.2940
855.7913, 934.8091
856.2734, 946.1659
856.7555, 959.1335
857.2376, 967.0093
857.7197, 972.8675
858.2018, 985.3182
858.6840, 1001.427
859.1661, 1005.233
859.6482, 995.0997
860.1303, 985.5966
860.6124, 984.7363
861.0945, 988.3214
861.5767, 989.2860
862.0588, 987.4814
862.5409, 986.7086
863.0230, 987.1522
863.5051, 988.0689
863.9872, 989.7786
864.4694, 990.9190
864.9515, 989.5801
865.4336, 986.3229
865.9157, 985.6216
866.3978, 989.5784
866.8799, 992.6976
867.3621, 994.2443
867.8442, 995.5437
868.3263, 997.3353
868.8084, 999.2296
869.2905, 1000.611
869.7726, 1001.405
870.2548, 1001.822
870.7369, 995.7777
871.2190, 996.6185
871.7011, 1015.290
872.1832, 1041.063
872.6653, 1064.561
873.1475, 1083.694
873.6296, 1097.309
874.1117, 1103.270
874.5938, 1108.088
875.0759, 1116.433
875.5580, 1126.899
876.0402, 1140.404
876.5223, 1154.231
877.0044, 1159.886
877.4865, 1155.487
877.9686, 1152.510
878.4507, 1163.145
878.9329, 1181.373
879.4150, 1193.901
879.8971, 1202.366
880.3792, 1215.611
880.8613, 1234.696
881.3434, 1250.441
881.8256, 1256.645
882.3077, 1257.220
882.7898, 1259.185
883.2719, 1262.547
883.7540, 1268.677
884.2361, 1278.135
884.7183, 1287.329
885.2004, 1294.729
885.6825, 1302.348
886.1646, 1312.497
886.6467, 1324.912
887.1288, 1336.583
887.6110, 1347.321
888.0931, 1357.667
888.5752, 1367.092
889.0573, 1376.855
889.5394, 1389.145
890.0215, 1401.547
890.5037, 1410.418
890.9858, 1416.202
891.4679, 1415.858
891.9500, 1408.563
892.4321, 1395.889
892.9142, 1375.273
893.3964, 1351.781
893.8785, 1331.236
894.3606, 1311.941
894.8427, 1286.701
895.3248, 1250.966
895.8069, 1215.160
896.2891, 1178.885
896.7712, 1148.787
897.2533, 1135.315
897.7354, 1129.674
898.2175, 1118.493
898.6996, 1098.557
899.1818, 1072.728
899.6639, 1036.636
900.1460, 1002.955
900.6281, 987.4116
901.1102, 980.9750
901.5923, 969.2368
902.0745, 952.1749
902.5566, 937.2679
903.0387, 928.1367
903.5208, 920.8765
904.0029, 910.5831
904.4850, 899.0177
904.9672, 890.9576
905.4493, 885.4609
905.9314, 878.0897
906.4135, 867.7774
906.8956, 855.5084
907.3777, 841.2771
907.8599, 828.3336
908.3420, 826.9833
908.8241, 836.1402
909.3062, 836.6688
909.7883, 826.8657
910.2704, 817.5094
910.7526, 813.5566
911.2347, 809.1708
911.7168, 796.3094
912.1989, 776.3542
912.6810, 763.3743
913.1631, 759.2548
913.6453, 753.8428
914.1274, 743.7422
914.6095, 737.3937
915.0916, 742.9258
915.5737, 752.8365
916.0558, 750.7545
916.5380, 733.3005
917.0201, 720.8710
917.5022, 715.5760
917.9843, 712.1241
918.4664, 710.8033
918.9485, 709.5029
919.4307, 704.2775
919.9128, 697.4021
920.3949, 698.0082
920.8770, 712.0161
921.3591, 722.1891
921.8412, 729.6704
922.3234, 730.0557
922.8055, 709.5770
923.2876, 688.3134
923.7697, 694.8557
924.2518, 728.1731
924.7339, 752.6867
925.2161, 753.1990
925.6982, 751.1149
926.1803, 751.0623
926.6624, 753.7448
927.1445, 759.7781
927.6266, 768.9536
928.1088, 780.2095
928.5909, 793.2911
929.0730, 811.5671
929.5551, 843.5161
930.0372, 873.9739
930.5193, 890.1526
931.0015, 899.1479
931.4836, 907.9605
931.9657, 918.5147
932.4478, 931.3022
932.9299, 946.1146
933.4120, 967.1062
933.8942, 1004.851
934.3763, 1045.637
934.8584, 1074.178
935.3405, 1091.235
935.8226, 1095.655
936.3047, 1090.364
936.7869, 1089.481
937.2690, 1103.409
937.7511, 1121.766
938.2332, 1132.406
938.7153, 1136.349
939.1974, 1133.605
939.6796, 1126.024
940.1617, 1119.999
940.6438, 1117.718
941.1259, 1117.929
941.6080, 1119.255
942.0901, 1122.600
942.5722, 1131.295
943.0543, 1144.077
943.5364, 1153.945
944.0186, 1160.481
944.5007, 1169.346
944.9828, 1183.185
945.4649, 1200.579
945.9470, 1220.543
946.4291, 1242.225
946.9113, 1258.627
947.3934, 1269.924
947.8755, 1290.886
948.3576, 1324.723
948.8397, 1363.642
949.3218, 1403.659
949.8040, 1442.518
950.2861, 1475.281
950.7682, 1501.830
951.2503, 1530.479
951.7324, 1560.513
952.2145, 1599.356
952.6967, 1652.086
953.1788, 1702.393
953.6609, 1736.962
954.1430, 1758.635
954.6251, 1775.540
955.1072, 1786.048
955.5894, 1799.507
956.0715, 1818.348
956.5536, 1832.897
957.0357, 1838.764
957.5178, 1841.336
957.9999, 1847.738
958.4821, 1855.678
958.9642, 1849.693
959.4463, 1822.590
959.9284, 1799.807
960.4105, 1781.027
960.8926, 1769.192
961.3748, 1767.528
961.8569, 1771.578
962.3390, 1777.288
962.8211, 1784.566
963.3032, 1785.984
963.7853, 1777.177
964.2675, 1770.036
964.7496, 1765.323
965.2317, 1762.657
965.7138, 1767.882
966.1959, 1772.064
966.6780, 1758.279
967.1602, 1724.073
967.6423, 1697.099
968.1244, 1684.944
968.6065, 1669.910
969.0886, 1652.567
969.5707, 1628.578
970.0529, 1591.454
970.5350, 1546.890
971.0171, 1505.186
971.4992, 1466.701
971.9813, 1432.464
972.4634, 1409.989
972.9456, 1381.883
973.4277, 1335.235
973.9098, 1288.674
974.3919, 1256.754
974.8740, 1236.365
975.3561, 1218.991
975.8383, 1205.129
976.3204, 1187.811
976.8025, 1159.616
977.2846, 1135.204
977.7667, 1125.072
978.2488, 1117.280
978.7310, 1097.497
979.2131, 1070.016
979.6952, 1052.390
980.1773, 1051.201
980.6594, 1050.276
981.1415, 1042.187
981.6237, 1037.095
982.1058, 1047.051
982.5879, 1057.714
983.0700, 1050.148
983.5521, 1027.609
984.0342, 1010.960
984.5164, 1006.481
984.9985, 1006.082
985.4806, 1011.258
985.9627, 1015.117
986.4448, 1012.920
986.9269, 1007.362
987.4091, 999.2074
987.8912, 990.5568
988.3733, 990.8908
988.8554, 1012.290
989.3375, 1024.952
989.8196, 1007.673
990.3018, 987.3571
990.7839, 979.5692
991.2660, 982.3105
991.7481, 994.7040
992.2302, 1014.379
992.7123, 1028.764
993.1945, 1028.992
993.6766, 1030.242
994.1587, 1036.637
994.6408, 1049.136
995.1229, 1075.183
995.6050, 1104.528
996.0872, 1119.324
996.5693, 1118.356
997.0514, 1120.458
997.5335, 1135.516
998.0156, 1152.035
998.4977, 1169.041
998.9799, 1181.149
999.4620, 1181.796
999.9441, 1175.309
1000.426, 1167.854
1000.908, 1161.069
1001.390, 1157.953
1001.873, 1165.678
1002.355, 1169.723
1002.837, 1160.622
1003.319, 1147.023
1003.801, 1138.047
1004.283, 1129.480
1004.765, 1110.001
1005.247, 1078.249
1005.729, 1053.006
1006.212, 1051.420
1006.694, 1046.658
1007.176, 1018.241
1007.658, 987.3960
1008.140, 971.4036
1008.622, 967.8269
1009.104, 972.4556
1009.586, 983.7092
1010.069, 988.1569
1010.551, 977.0891
1011.033, 961.6276
1011.515, 941.0677
1011.997, 923.9293
1012.479, 918.9305
1012.961, 922.3970
1013.443, 927.5390
1013.925, 932.8246
1014.408, 935.4809
1014.890, 926.8220
1015.372, 925.1035
1015.854, 945.3807
1016.336, 969.9748
1016.818, 982.0661
1017.300, 987.8204
1017.782, 1002.073
1018.265, 1027.620
1018.747, 1049.340
1019.229, 1057.383
1019.711, 1066.334
1020.193, 1079.099
1020.675, 1097.981
1021.157, 1130.933
1021.639, 1168.834
1022.121, 1193.814
1022.604, 1202.664
1023.086, 1215.441
1023.568, 1243.953
1024.050, 1269.510
1024.532, 1285.770
1025.014, 1269.601
1025.496, 1300.985
1025.978, 1321.820
1026.460, 1332.271
1026.943, 1323.215
1027.425, 1322.527
1027.907, 1308.208
1028.389, 1286.292
1028.871, 1265.816
1029.353, 1273.779
1029.835, 1255.388
1030.317, 1229.496
1030.800, 1204.897
1031.282, 1182.422
1031.764, 1156.265
1032.246, 1118.953
1032.728, 1087.281
1033.210, 1068.236
1033.692, 1051.828
1034.174, 1032.189
1034.656, 1011.721
1035.139, 994.9854
1035.621, 982.4225
1036.103, 967.9615
1036.585, 950.8911
1037.067, 932.4962
1037.549, 908.4173
1038.031, 888.0314
1038.513, 881.3184
1038.995, 877.8703
1039.478, 861.3665
1039.960, 831.8242
1040.442, 808.5424
1040.924, 793.2251
1041.406, 781.2671
1041.888, 777.0959
1042.370, 769.3701
1042.852, 749.9526
1043.335, 727.3200
1043.817, 711.1071
1044.299, 701.3429
1044.781, 698.3750
1045.263, 707.1353
1045.745, 710.8452
1046.227, 708.4431
1046.709, 700.5762
1047.192, 683.3377
1047.674, 667.6057
1048.156, 667.6180
1048.638, 679.7320
1049.120, 681.3024
1049.602, 669.7575
1050.084, 657.1140
1050.566, 641.8109
1051.048, 633.0472
1051.531, 635.8865
1052.013, 641.1957
1052.495, 639.8425
1052.977, 634.0828
1053.459, 632.8600
1053.941, 636.9888
1054.423, 636.0870
1054.905, 629.0963
1055.387, 622.8195
1055.870, 618.8934
1056.352, 620.5408
1056.834, 632.3190
1057.316, 646.4324
1057.798, 640.3434
1058.280, 616.0695
1058.762, 607.8942
1059.244, 615.7859
1059.727, 618.2528
1060.209, 609.9742
1060.691, 600.9980
1061.173, 598.4111
1061.655, 598.3228
1062.137, 591.8893
1062.619, 582.5441
1063.101, 587.0825
1063.583, 601.9102
1064.066, 606.4457
1064.548, 598.4580
1065.030, 594.6071
1065.512, 604.4587
1065.994, 616.0087
1066.476, 612.2559
1066.958, 601.0944
1067.440, 598.2568
1067.922, 600.7963
1068.405, 601.5742
1068.887, 600.0720
1069.369, 599.8698
1069.851, 602.3870
1070.333, 602.8702
1070.815, 592.4837
1071.297, 582.3311
1071.779, 589.2866
1072.262, 602.3902
1072.744, 603.0710
1073.226, 595.6966
1073.708, 597.0058
1074.190, 611.2650
1074.672, 625.2654
1075.154, 630.2628
1075.636, 633.4176
1076.118, 639.9210
1076.601, 646.7274
1077.083, 650.6811
1077.565, 652.8985
1078.047, 654.5091
1078.529, 656.3197
1079.011, 661.9995
1079.493, 674.8083
1079.975, 688.1159
1080.458, 704.2493
1080.940, 714.8726
1081.422, 710.5293
1081.904, 700.8075
1082.386, 696.6755
1082.868, 698.3176
1083.350, 701.3690
1083.832, 707.9153
1084.314, 709.7899
1084.797, 703.5440
1085.279, 695.8488
1085.761, 688.2280
1086.243, 680.5519
1086.725, 671.9691
1087.207, 663.3330
1087.689, 657.3250
1088.171, 654.9511
1088.653, 650.7715
1089.136, 644.1626
1089.618, 636.9559
1090.100, 628.8018
1090.582, 622.0623
1091.064, 620.4360
1091.546, 617.3281
1092.028, 598.2754
1092.510, 564.1229
1092.993, 553.5914
1093.475, 570.7292
1093.957, 576.3516
1094.439, 563.5929
1094.921, 553.7861
1095.403, 557.5895
1095.885, 564.7043
1096.367, 563.0646
1096.849, 554.8127
1097.332, 545.1204
1097.814, 534.7416
1098.296, 528.8083
1098.778, 527.2347
1099.260, 526.6469
1099.742, 525.8015
1100.224, 523.4532
1100.706, 518.0822
1101.188, 512.6552
1101.671, 512.2445
1102.153, 514.5351
1102.635, 516.8907
1103.117, 517.6268
1103.599, 510.3211
1104.081, 496.8179
1104.563, 491.0736
1105.045, 501.1720
1105.528, 511.6890
1106.010, 506.3581
1106.492, 500.0185
1106.974, 509.8327
1107.456, 524.0884
1107.938, 529.1041
1108.420, 524.7324
1108.902, 513.4069
1109.385, 495.3641
1109.867, 482.6721
1110.349, 481.1858
1110.831, 484.3195
1111.313, 496.5829
1111.795, 505.3172
1112.277, 497.6129
1112.759, 482.8819
1113.241, 474.3139
1113.724, 472.8160
1114.206, 478.4342
1114.688, 499.0739
1115.170, 513.8774
1115.652, 522.2072
1116.134, 524.8597
1116.616, 519.4316
1117.098, 512.0991
1117.580, 508.7326
1118.063, 508.0054
1118.545, 504.9609
1119.027, 498.4167
1119.509, 498.4063
1119.991, 506.7405
1120.473, 509.9264
1120.955, 504.1971
1121.437, 497.9607
1121.920, 496.3932
1122.402, 497.4743
1122.884, 498.5330
1123.366, 499.3413
1123.848, 498.9805
1124.330, 497.4875
1124.812, 494.7978
1125.294, 491.0895
1125.776, 487.1060
1126.259, 483.2555
1126.741, 480.9688
1127.223, 481.6941
1127.705, 484.1720
1128.187, 488.7412
1128.669, 492.5611
1129.151, 491.0782
1129.633, 485.5408
1130.115, 476.5784
1130.598, 466.4021
1131.080, 463.8644
1131.562, 475.4281
1132.044, 483.7475
1132.526, 474.5766
1133.008, 464.5315
1133.490, 462.8158
1133.972, 466.1413
1134.455, 475.4898
1134.937, 485.6886
1135.419, 483.6604
1135.901, 465.7478
1136.383, 454.5712
1136.865, 458.3804
1137.347, 460.3536
1137.829, 456.1376
1138.312, 452.7465
1138.794, 453.4260
1139.276, 456.5136
1139.758, 460.7420
1140.240, 465.4878
1140.722, 466.8278
1141.204, 464.0273
1141.686, 462.4256
1142.168, 462.3936
1142.651, 461.4556
1143.133, 458.5742
1143.615, 458.7157
1144.097, 465.8820
1144.579, 475.7827
1145.061, 482.7584
1145.543, 485.9605
1146.025, 479.0880
1146.507, 465.9568
1146.990, 460.7683
1147.472, 463.7186
1147.954, 465.9696
1148.436, 464.2060
1148.918, 462.4019
1149.400, 463.9280
1149.882, 466.3330
1150.364, 467.2397
1150.847, 467.7713
1151.329, 469.7154
1151.811, 471.9047
1152.293, 471.2352
1152.775, 468.4835
1153.257, 469.4688
1153.739, 478.0837
1154.221, 483.2928
1154.703, 476.8305
1155.186, 473.1934
1155.668, 484.5747
1156.150, 494.2580
1156.632, 483.3171
1157.114, 464.8528
1157.596, 464.4935
1158.078, 482.9971
1158.560, 486.0835
1159.042, 466.4903
1159.525, 457.6621
1160.007, 465.8872
1160.489, 470.2083
1160.971, 461.0354
1161.453, 453.6157
1161.935, 463.4551
1162.417, 481.7606
1162.899, 487.8415
1163.382, 483.7791
1163.864, 477.1813
1164.346, 469.7652
1164.828, 471.0040
1165.310, 479.8330
1165.792, 478.3945
1166.274, 458.5077
1166.756, 441.9280
1167.238, 455.8520
1167.721, 474.3528
1168.203, 469.2074
1168.685, 447.3290
1169.167, 458.1903
1169.649, 464.5448
1170.131, 466.6344
1170.613, 451.6862
1171.095, 458.7389
1171.578, 456.9759
1172.060, 454.8502
1172.542, 464.9994
1173.024, 452.5293
1173.506, 462.4839
1173.988, 463.4871
1174.470, 468.5870
1174.952, 464.8156
1175.434, 463.7841
1175.917, 471.6283
1176.399, 474.5576
1176.881, 469.7648
1177.363, 475.1252
1177.845, 462.3452
1178.327, 474.2126
1178.809, 471.4086
1179.291, 469.1471
1179.773, 478.1925
1180.256, 490.8359
1180.738, 493.8682
1181.220, 489.1683
1181.702, 477.6607
1182.184, 463.6858
1182.666, 458.5262
1183.148, 461.6291
1183.630, 463.0312
1184.113, 459.1143
1184.595, 458.1899
1185.077, 470.8025
1185.559, 481.1732
1186.041, 478.7680
1186.523, 471.7797
1187.005, 464.0366
1187.487, 457.2607
1187.969, 453.1300
1188.452, 451.6117
1188.934, 452.1497
1189.416, 456.7454
1189.898, 456.9024
1190.380, 448.3630
1190.862, 445.4510
1191.344, 452.9887
1191.826, 461.2832
1192.308, 465.1270
1192.791, 466.3018
1193.273, 467.5136
1193.755, 467.7567
1194.237, 461.2761
1194.719, 449.9986
1195.201, 446.4465
1195.683, 449.7947
1196.165, 451.9036
1196.648, 450.7547
1197.130, 447.7748
1197.612, 443.4486
1198.094, 440.6899
1198.576, 444.2654
1199.058, 448.2231
1199.540, 447.4744
1200.022, 443.8847
1200.505, 437.5159
1200.987, 430.9002
1201.469, 427.8978
1201.951, 429.0216
1202.433, 433.2331
1202.915, 446.3954
1203.397, 451.2696
1203.879, 441.1438
1204.361, 433.0500
1204.844, 432.8471
1205.326, 433.0157
1205.808, 427.5567
1206.290, 420.5664
1206.772, 418.8393
1207.254, 422.3144
1207.736, 433.6910
1208.218, 451.1202
1208.700, 455.2869
1209.183, 446.3640
1209.665, 436.9127
1210.147, 431.3019
1210.629, 431.8950
1211.111, 441.9159
1211.593, 449.5754
1212.075, 438.2599
1212.557, 424.1949
1213.040, 423.2878
1213.522, 428.7367
1214.004, 434.4465
1214.486, 438.4776
1214.968, 437.6790
1215.450, 431.8391
1215.932, 429.8056
1216.414, 436.7145
1216.896, 441.3680
1217.379, 444.7108
1217.861, 442.5067
1218.343, 429.4918
1218.825, 419.9609
1219.307, 425.9443
1219.789, 437.9096
1220.271, 437.6179
1220.753, 428.1170
1221.235, 426.6803
1221.718, 432.0839
1222.200, 439.6228
1222.682, 447.3928
1223.164, 447.6259
1223.646, 439.7933
1224.128, 436.9549
1224.610, 448.5168
1225.092, 459.5362
1225.575, 457.0421
1226.057, 450.1744
1226.539, 443.3065
1227.021, 437.9712
1227.503, 433.4855
1227.985, 432.3432
1228.467, 441.8344
1228.949, 462.0471
1229.432, 472.4613
1229.914, 468.8527
1230.396, 464.3245
1230.878, 458.6831
1231.360, 453.3026
1231.842, 448.6035
1232.324, 443.9160
1232.806, 438.7021
1233.288, 433.7253
1233.771, 429.8398
1234.253, 427.2303
1234.735, 425.9794
1235.217, 426.5354
1235.699, 432.1217
1236.181, 440.0063
1236.663, 442.7698
1237.145, 439.4995
1237.627, 433.3156
1238.110, 424.1459
1238.592, 420.7611
1239.074, 437.2458
1239.556, 446.9153
1240.038, 429.6002
1240.520, 411.3339
1241.002, 409.6809
1241.484, 417.4000
1241.967, 428.0033
1242.449, 439.9652
1242.931, 446.0018
1243.413, 445.4410
1243.895, 445.1531
1244.377, 445.1883
1244.859, 442.9406
1245.341, 438.1513
1245.823, 434.8453
1246.306, 434.7746
1246.788, 435.4188
1247.270, 434.2250
1247.752, 433.3156
1248.234, 435.7238
1248.716, 439.2147
1249.198, 442.7605
1249.680, 444.7572
1250.162, 441.4594
1250.645, 435.1978
1251.127, 434.1372
1251.609, 440.5277
1252.091, 439.9373
1252.573, 424.5404
1253.055, 415.1560
1253.537, 413.4182
1254.019, 417.5931
1254.502, 428.9598
1254.984, 439.2091
1255.466, 442.0928
1255.948, 439.5693
1256.430, 433.2629
1256.912, 425.2111
1257.394, 420.9448
1257.876, 419.9274
1258.358, 422.2221
1258.841, 426.1696
1259.323, 428.5504
1259.805, 428.3127
1260.287, 423.8242
1260.769, 412.2468
1261.251, 405.7483
1261.733, 414.8584
1262.215, 421.9234
1262.698, 418.2022
1263.180, 413.4697
1263.662, 413.1873
1264.144, 414.6102
1264.626, 413.9690
1265.108, 413.0445
1265.590, 419.9089
1266.072, 434.0254
1266.554, 438.4740
1267.036, 434.4406
1267.519, 432.5361
##END=



