##NAMES=Hubeite
##RRUFFID=R060964
##IDEAL CHEMISTRY=Ca_2_Mn^2+^Fe^3+^Si_4_O_12_(OH)&#183;2H_2_O
##LOCALITY=Fengjiashan mine, Daye, Hubei Province, China
##OWNER=RRUFF
##SOURCE=Michael Scott
##DESCRIPTION=Dark brown thin bladed crystals coated with fluorapophyllite, on quartz
##STATUS=The identification of this mineral is confirmed by single-crystal X-ray diffraction and chemical analysis.
##URL=rruff.info/R060964
##MEASURED CHEMISTRY=Ca_2.00_Mn^2+^_1.00_(Fe^3+^_0.85_Al_0.15_)_Σ=1_Si_4.00_O_12_(OH)·1.90H_2_O; OH estimated by charge balance; H_2_O by difference
124.4157, 1187.133
124.8979, 1236.386
125.3800, 1276.758
125.8621, 1305.534
126.3442, 1329.023
126.8263, 1356.626
127.3084, 1387.130
127.7905, 1412.800
128.2727, 1426.701
128.7548, 1430.873
129.2369, 1430.500
129.7190, 1426.531
130.2011, 1419.087
130.6832, 1406.209
131.1654, 1387.167
131.6475, 1369.571
132.1296, 1365.262
132.6117, 1372.531
133.0938, 1373.277
133.5759, 1358.322
134.0581, 1329.822
134.5402, 1303.857
135.0223, 1279.792
135.5044, 1259.234
135.9865, 1243.211
136.4686, 1231.023
136.9508, 1228.799
137.4329, 1244.252
137.9150, 1280.013
138.3971, 1304.932
138.8792, 1315.480
139.3613, 1316.926
139.8434, 1323.500
140.3256, 1338.586
140.8077, 1350.889
141.2898, 1352.384
141.7719, 1337.889
142.2540, 1328.749
142.7361, 1327.890
143.2183, 1334.157
143.7004, 1340.785
144.1825, 1350.257
144.6646, 1357.068
145.1467, 1356.219
145.6288, 1340.527
146.1110, 1329.064
146.5931, 1326.402
147.0752, 1333.266
147.5573, 1334.771
148.0394, 1325.824
148.5215, 1314.394
149.0037, 1308.369
149.4858, 1311.706
149.9679, 1316.264
150.4500, 1320.577
150.9321, 1324.305
151.4142, 1328.956
151.8964, 1334.439
152.3785, 1340.974
152.8606, 1348.821
153.3427, 1357.044
153.8248, 1367.647
154.3069, 1381.865
154.7890, 1402.576
155.2712, 1421.437
155.7533, 1436.699
156.2354, 1449.334
156.7175, 1461.762
157.1996, 1473.757
157.6817, 1486.284
158.1639, 1500.098
158.6460, 1518.164
159.1281, 1533.454
159.6102, 1541.954
160.0923, 1545.365
160.5744, 1550.385
161.0566, 1559.316
161.5387, 1570.563
162.0208, 1582.978
162.5029, 1598.674
162.9850, 1613.079
163.4671, 1620.741
163.9493, 1622.909
164.4314, 1632.023
164.9135, 1666.573
165.3956, 1706.611
165.8777, 1731.651
166.3598, 1715.991
166.8420, 1697.037
167.3241, 1699.826
167.8062, 1725.291
168.2883, 1752.849
168.7704, 1775.896
169.2525, 1792.252
169.7346, 1798.610
170.2168, 1787.277
170.6989, 1768.955
171.1810, 1751.938
171.6631, 1736.629
172.1452, 1723.378
172.6273, 1712.860
173.1095, 1704.548
173.5916, 1697.015
174.0737, 1694.344
174.5558, 1690.254
175.0379, 1675.327
175.5201, 1646.346
176.0022, 1613.930
176.4843, 1587.343
176.9664, 1566.342
177.4485, 1549.703
177.9306, 1540.194
178.4128, 1534.107
178.8949, 1524.301
179.3770, 1508.604
179.8591, 1490.780
180.3412, 1474.205
180.8233, 1459.031
181.3055, 1447.518
181.7876, 1444.049
182.2697, 1445.599
182.7518, 1443.317
183.2339, 1433.211
183.7160, 1420.869
184.1982, 1415.499
184.6803, 1417.064
185.1624, 1424.171
185.6445, 1438.559
186.1266, 1458.439
186.6087, 1475.937
187.0908, 1485.326
187.5730, 1492.774
188.0551, 1516.340
188.5372, 1557.657
189.0193, 1601.511
189.5014, 1631.753
189.9835, 1650.249
190.4657, 1672.465
190.9478, 1705.763
191.4299, 1746.522
191.9120, 1778.549
192.3941, 1801.054
192.8762, 1818.694
193.3584, 1838.286
193.8405, 1859.698
194.3226, 1874.180
194.8047, 1877.338
195.2868, 1870.139
195.7689, 1861.178
196.2511, 1851.152
196.7332, 1837.282
197.2153, 1815.686
197.6974, 1786.107
198.1795, 1751.510
198.6616, 1710.990
199.1438, 1664.173
199.6259, 1621.998
200.1080, 1585.188
200.5901, 1551.624
201.0722, 1517.410
201.5543, 1481.453
202.0364, 1449.829
202.5186, 1426.524
203.0007, 1412.364
203.4828, 1397.085
203.9649, 1379.722
204.4470, 1361.945
204.9291, 1348.174
205.4113, 1339.452
205.8934, 1330.379
206.3755, 1316.829
206.8576, 1297.026
207.3397, 1283.949
207.8218, 1280.310
208.3040, 1282.207
208.7861, 1279.916
209.2682, 1273.063
209.7503, 1263.250
210.2324, 1248.162
210.7145, 1223.380
211.1967, 1214.516
211.6788, 1229.167
212.1609, 1258.919
212.6430, 1274.785
213.1251, 1271.674
213.6072, 1265.108
214.0894, 1265.710
214.5715, 1278.029
215.0536, 1282.021
215.5357, 1272.744
216.0178, 1253.795
216.4999, 1241.775
216.9820, 1238.664
217.4642, 1239.180
217.9463, 1240.641
218.4284, 1244.458
218.9105, 1244.789
219.3926, 1239.206
219.8747, 1229.143
220.3569, 1223.254
220.8390, 1221.006
221.3211, 1223.761
221.8032, 1234.340
222.2853, 1258.827
222.7674, 1276.032
223.2496, 1281.009
223.7317, 1275.129
224.2138, 1271.789
224.6959, 1270.272
225.1780, 1272.232
225.6601, 1279.966
226.1423, 1297.535
226.6244, 1311.898
227.1065, 1320.580
227.5886, 1323.819
228.0707, 1325.645
228.5528, 1323.536
229.0350, 1322.757
229.5171, 1328.410
229.9992, 1344.460
230.4813, 1359.151
230.9634, 1370.403
231.4455, 1378.303
231.9276, 1385.444
232.4098, 1391.855
232.8919, 1397.506
233.3740, 1401.798
233.8561, 1402.639
234.3382, 1406.380
234.8203, 1415.937
235.3025, 1431.653
235.7846, 1441.443
236.2667, 1442.771
236.7488, 1440.641
237.2309, 1439.541
237.7130, 1438.129
238.1952, 1440.323
238.6773, 1447.549
239.1594, 1460.096
239.6415, 1473.074
240.1236, 1488.217
240.6057, 1502.424
241.0879, 1512.198
241.5700, 1514.835
242.0521, 1517.720
242.5342, 1521.812
243.0163, 1526.967
243.4984, 1535.353
243.9806, 1548.845
244.4627, 1563.833
244.9448, 1576.283
245.4269, 1584.635
245.9090, 1593.257
246.3911, 1604.339
246.8732, 1618.551
247.3554, 1625.697
247.8375, 1622.056
248.3196, 1614.605
248.8017, 1610.891
249.2838, 1611.909
249.7659, 1615.095
250.2481, 1621.849
250.7302, 1633.229
251.2123, 1635.645
251.6944, 1625.177
252.1765, 1609.641
252.6586, 1597.796
253.1408, 1592.040
253.6229, 1585.450
254.1050, 1576.951
254.5871, 1566.786
255.0692, 1553.041
255.5513, 1536.077
256.0334, 1515.191
256.5156, 1488.304
256.9977, 1451.307
257.4798, 1416.603
257.9619, 1386.341
258.4440, 1360.143
258.9261, 1341.305
259.4083, 1333.982
259.8904, 1328.882
260.3725, 1314.520
260.8546, 1285.611
261.3367, 1259.660
261.8188, 1240.919
262.3010, 1229.383
262.7831, 1220.109
263.2652, 1214.562
263.7473, 1209.208
264.2294, 1198.735
264.7115, 1179.606
265.1937, 1165.662
265.6758, 1161.080
266.1579, 1165.741
266.6400, 1171.521
267.1221, 1179.291
267.6042, 1186.754
268.0864, 1190.810
268.5685, 1190.149
269.0506, 1190.866
269.5327, 1194.853
270.0148, 1201.886
270.4969, 1206.612
270.9791, 1206.654
271.4612, 1209.095
271.9433, 1224.030
272.4254, 1255.469
272.9075, 1279.684
273.3896, 1287.633
273.8718, 1282.110
274.3539, 1288.991
274.8360, 1310.900
275.3181, 1338.941
275.8002, 1367.266
276.2823, 1397.089
276.7645, 1417.862
277.2466, 1424.690
277.7287, 1420.244
278.2108, 1421.639
278.6929, 1429.761
279.1750, 1440.529
279.6572, 1449.930
280.1393, 1457.720
280.6214, 1468.022
281.1035, 1482.787
281.5856, 1500.385
282.0677, 1514.712
282.5499, 1525.721
283.0320, 1533.620
283.5141, 1537.475
283.9962, 1537.347
284.4783, 1538.537
284.9604, 1544.035
285.4425, 1550.391
285.9247, 1544.752
286.4068, 1526.137
286.8889, 1507.035
287.3710, 1499.308
287.8531, 1501.506
288.3352, 1500.612
288.8174, 1495.482
289.2995, 1484.718
289.7816, 1459.995
290.2637, 1421.554
290.7458, 1387.610
291.2279, 1378.747
291.7101, 1388.273
292.1922, 1383.116
292.6743, 1353.713
293.1564, 1314.406
293.6385, 1289.639
294.1206, 1278.886
294.6028, 1272.878
295.0849, 1267.980
295.5670, 1263.188
296.0491, 1254.840
296.5312, 1241.392
297.0133, 1226.928
297.4955, 1217.893
297.9776, 1213.627
298.4597, 1209.274
298.9418, 1198.645
299.4239, 1186.438
299.9060, 1182.829
300.3882, 1190.507
300.8703, 1202.113
301.3524, 1210.194
301.8345, 1215.232
302.3166, 1218.949
302.7987, 1219.142
303.2809, 1219.627
303.7630, 1226.663
304.2451, 1241.626
304.7272, 1258.586
305.2093, 1274.086
305.6914, 1287.468
306.1736, 1296.583
306.6557, 1294.527
307.1378, 1291.028
307.6199, 1297.702
308.1020, 1316.442
308.5841, 1335.666
309.0663, 1347.229
309.5484, 1353.553
310.0305, 1358.329
310.5126, 1364.504
310.9947, 1368.951
311.4768, 1367.864
311.9590, 1360.962
312.4411, 1355.178
312.9232, 1353.783
313.4053, 1356.120
313.8874, 1361.329
314.3695, 1373.590
314.8517, 1384.962
315.3337, 1388.658
315.8159, 1385.121
316.2980, 1386.534
316.7801, 1405.177
317.2622, 1428.165
317.7443, 1443.663
318.2264, 1437.500
318.7086, 1433.628
319.1907, 1441.875
319.6728, 1460.734
320.1549, 1478.746
320.6370, 1496.073
321.1191, 1509.267
321.6013, 1516.005
322.0834, 1508.423
322.5655, 1502.421
323.0476, 1502.764
323.5297, 1507.539
324.0118, 1509.023
324.4940, 1499.014
324.9761, 1490.446
325.4582, 1490.348
325.9403, 1513.058
326.4224, 1524.517
326.9045, 1516.368
327.3867, 1494.957
327.8688, 1477.568
328.3509, 1466.512
328.8330, 1457.822
329.3151, 1449.839
329.7972, 1440.669
330.2794, 1436.703
330.7615, 1446.142
331.2436, 1458.190
331.7257, 1452.840
332.2078, 1417.106
332.6899, 1382.159
333.1721, 1358.042
333.6542, 1348.102
334.1363, 1333.961
334.6184, 1314.099
335.1005, 1291.328
335.5826, 1268.695
336.0648, 1245.898
336.5469, 1223.710
337.0290, 1201.362
337.5111, 1178.747
337.9932, 1161.577
338.4753, 1151.351
338.9575, 1143.730
339.4396, 1133.466
339.9217, 1119.163
340.4038, 1110.090
340.8859, 1110.679
341.3680, 1117.702
341.8502, 1114.391
342.3323, 1099.093
342.8144, 1081.399
343.2965, 1069.842
343.7786, 1064.170
344.2607, 1056.305
344.7429, 1044.067
345.2250, 1029.909
345.7071, 1018.224
346.1892, 1008.879
346.6713, 1004.002
347.1534, 1006.681
347.6355, 1015.300
348.1176, 1024.174
348.5998, 1033.830
349.0819, 1040.595
349.5640, 1034.996
350.0461, 1019.675
350.5282, 1009.517
351.0103, 1016.252
351.4925, 1032.373
351.9746, 1044.653
352.4567, 1051.685
352.9388, 1057.914
353.4209, 1068.226
353.9030, 1081.048
354.3852, 1092.893
354.8673, 1102.818
355.3494, 1110.723
355.8315, 1114.333
356.3136, 1113.771
356.7957, 1116.906
357.2779, 1131.820
357.7600, 1152.961
358.2421, 1173.017
358.7242, 1193.037
359.2063, 1208.357
359.6884, 1214.824
360.1706, 1213.427
360.6527, 1210.248
361.1348, 1200.961
361.6169, 1194.925
362.0990, 1200.392
362.5811, 1230.353
363.0633, 1255.740
363.5454, 1265.872
364.0275, 1264.324
364.5096, 1261.289
364.9917, 1257.759
365.4738, 1254.534
365.9560, 1251.734
366.4381, 1248.471
366.9202, 1247.741
367.4023, 1253.975
367.8844, 1262.196
368.3665, 1264.311
368.8487, 1251.055
369.3308, 1240.424
369.8129, 1236.836
370.2950, 1241.101
370.7771, 1248.003
371.2592, 1258.908
371.7414, 1271.458
372.2235, 1283.583
372.7056, 1295.762
373.1877, 1306.521
373.6698, 1314.861
374.1519, 1321.042
374.6341, 1328.828
375.1162, 1338.168
375.5983, 1348.952
376.0804, 1361.679
376.5625, 1376.877
377.0446, 1390.156
377.5267, 1399.241
378.0089, 1407.245
378.4910, 1423.731
378.9731, 1449.676
379.4552, 1477.000
379.9373, 1500.235
380.4194, 1520.036
380.9016, 1540.989
381.3837, 1562.647
381.8658, 1588.275
382.3479, 1627.024
382.8300, 1676.706
383.3121, 1721.782
383.7943, 1748.405
384.2764, 1765.784
384.7585, 1796.560
385.2406, 1840.996
385.7227, 1891.714
386.2048, 1942.817
386.6870, 1993.847
387.1691, 2044.221
387.6512, 2092.471
388.1333, 2140.175
388.6154, 2190.846
389.0975, 2243.507
389.5797, 2293.757
390.0618, 2336.132
390.5439, 2375.390
391.0260, 2416.548
391.5081, 2464.725
391.9902, 2507.312
392.4724, 2535.958
392.9545, 2554.003
393.4366, 2569.638
393.9187, 2583.765
394.4008, 2598.258
394.8829, 2616.114
395.3651, 2640.103
395.8472, 2657.124
396.3293, 2662.938
396.8114, 2660.281
397.2935, 2652.426
397.7756, 2635.069
398.2578, 2617.368
398.7399, 2600.214
399.2220, 2583.461
399.7041, 2570.632
400.1862, 2570.884
400.6683, 2568.122
401.1505, 2549.834
401.6326, 2497.626
402.1147, 2462.310
402.5968, 2454.986
403.0789, 2466.668
403.5610, 2464.173
404.0432, 2440.964
404.5253, 2416.642
405.0074, 2402.405
405.4895, 2401.776
405.9716, 2392.147
406.4537, 2371.567
406.9359, 2345.008
407.4180, 2321.024
407.9001, 2300.061
408.3822, 2274.954
408.8643, 2241.398
409.3464, 2201.189
409.8285, 2162.997
410.3106, 2127.205
410.7928, 2091.832
411.2749, 2053.504
411.7570, 2013.298
412.2391, 1976.492
412.7212, 1945.206
413.2033, 1916.187
413.6855, 1886.167
414.1676, 1855.024
414.6497, 1821.189
415.1318, 1778.783
415.6139, 1735.227
416.0960, 1702.234
416.5782, 1683.620
417.0603, 1666.042
417.5424, 1639.408
418.0245, 1607.052
418.5066, 1574.987
418.9887, 1542.322
419.4709, 1513.111
419.9530, 1488.961
420.4351, 1470.209
420.9172, 1456.392
421.3993, 1456.259
421.8814, 1456.627
422.3636, 1446.587
422.8457, 1408.541
423.3278, 1377.409
423.8099, 1362.397
424.2920, 1360.269
424.7741, 1356.366
425.2563, 1347.907
425.7384, 1339.425
426.2205, 1333.237
426.7026, 1331.591
427.1847, 1326.073
427.6668, 1312.921
428.1490, 1298.407
428.6311, 1293.065
429.1132, 1300.912
429.5953, 1307.546
430.0774, 1308.160
430.5595, 1303.361
431.0417, 1301.320
431.5238, 1302.237
432.0059, 1305.337
432.4880, 1308.441
432.9701, 1311.734
433.4522, 1323.300
433.9344, 1347.436
434.4165, 1376.750
434.8986, 1397.467
435.3807, 1410.075
435.8628, 1419.878
436.3449, 1428.531
436.8271, 1436.921
437.3092, 1447.672
437.7913, 1461.315
438.2734, 1473.990
438.7555, 1479.918
439.2376, 1482.467
439.7197, 1487.878
440.2018, 1506.335
440.6840, 1522.739
441.1661, 1521.687
441.6482, 1505.660
442.1303, 1493.853
442.6124, 1498.325
443.0945, 1509.246
443.5767, 1519.026
444.0588, 1525.423
444.5409, 1531.985
445.0230, 1538.208
445.5051, 1545.363
445.9872, 1555.984
446.4694, 1571.769
446.9515, 1589.801
447.4336, 1608.576
447.9157, 1627.130
448.3978, 1651.729
448.8799, 1684.963
449.3621, 1721.991
449.8442, 1757.697
450.3263, 1789.595
450.8084, 1826.149
451.2905, 1870.684
451.7726, 1920.143
452.2548, 1961.885
452.7369, 1992.283
453.2190, 2028.312
453.7011, 2083.626
454.1832, 2157.434
454.6653, 2225.862
455.1475, 2288.487
455.6296, 2345.777
456.1117, 2396.951
456.5938, 2442.861
457.0759, 2491.434
457.5580, 2547.051
458.0402, 2605.884
458.5223, 2662.769
459.0044, 2717.988
459.4865, 2768.593
459.9686, 2807.457
460.4507, 2842.771
460.9329, 2887.951
461.4150, 2951.024
461.8971, 3010.148
462.3792, 3054.184
462.8613, 3084.244
463.3434, 3103.587
463.8256, 3104.049
464.3077, 3101.716
464.7898, 3107.802
465.2719, 3125.106
465.7540, 3128.224
466.2361, 3104.150
466.7183, 3068.215
467.2004, 3032.898
467.6825, 3010.391
468.1646, 2973.669
468.6467, 2912.352
469.1288, 2834.824
469.6110, 2771.250
470.0930, 2727.239
470.5752, 2686.757
471.0573, 2646.122
471.5394, 2607.929
472.0215, 2546.770
472.5036, 2453.888
472.9857, 2356.144
473.4679, 2289.764
473.9500, 2255.455
474.4321, 2217.818
474.9142, 2165.888
475.3963, 2106.815
475.8784, 2056.510
476.3606, 2014.757
476.8427, 1977.768
477.3248, 1945.023
477.8069, 1915.165
478.2890, 1885.948
478.7711, 1857.001
479.2533, 1829.437
479.7354, 1803.260
480.2175, 1779.252
480.6996, 1758.655
481.1817, 1743.772
481.6638, 1731.116
482.1460, 1717.811
482.6281, 1704.368
483.1102, 1694.916
483.5923, 1690.190
484.0744, 1690.282
484.5565, 1695.802
485.0387, 1711.611
485.5208, 1724.427
486.0029, 1732.352
486.4850, 1736.832
486.9671, 1739.728
487.4492, 1738.556
487.9314, 1739.392
488.4135, 1742.267
488.8956, 1747.417
489.3777, 1763.893
489.8598, 1796.279
490.3419, 1830.088
490.8241, 1855.058
491.3062, 1871.083
491.7883, 1881.818
492.2704, 1886.215
492.7525, 1888.641
493.2346, 1895.076
493.7168, 1905.632
494.1989, 1922.236
494.6810, 1952.262
495.1631, 1986.760
495.6452, 2008.348
496.1273, 2017.118
496.6095, 2024.834
497.0916, 2039.800
497.5737, 2058.961
498.0558, 2079.104
498.5379, 2100.259
499.0201, 2120.399
499.5022, 2138.647
499.9843, 2155.012
500.4664, 2169.135
500.9485, 2178.242
501.4306, 2187.416
501.9127, 2199.542
502.3948, 2215.427
502.8770, 2227.748
503.3591, 2233.386
503.8412, 2236.922
504.3233, 2241.986
504.8054, 2253.495
505.2875, 2256.409
505.7697, 2247.296
506.2518, 2230.347
506.7339, 2217.379
507.2160, 2211.016
507.6981, 2197.866
508.1802, 2170.129
508.6624, 2129.841
509.1445, 2093.852
509.6266, 2062.712
510.1087, 2031.905
510.5908, 1996.146
511.0729, 1957.135
511.5551, 1921.037
512.0372, 1891.054
512.5193, 1860.110
513.0014, 1816.865
513.4835, 1765.986
513.9656, 1720.122
514.4478, 1689.208
514.9299, 1663.001
515.4120, 1633.117
515.8941, 1599.096
516.3762, 1569.105
516.8583, 1549.993
517.3405, 1534.455
517.8226, 1517.050
518.3047, 1495.015
518.7868, 1473.478
519.2689, 1451.719
519.7510, 1430.937
520.2332, 1413.671
520.7153, 1401.757
521.1974, 1390.891
521.6795, 1378.898
522.1616, 1365.819
522.6437, 1361.382
523.1259, 1369.534
523.6080, 1375.930
524.0901, 1364.219
524.5722, 1334.889
525.0543, 1317.902
525.5364, 1317.714
526.0186, 1327.633
526.5007, 1340.939
526.9828, 1356.440
527.4649, 1369.480
527.9470, 1378.767
528.4291, 1383.828
528.9113, 1381.508
529.3934, 1372.795
529.8755, 1367.144
530.3576, 1374.594
530.8397, 1385.382
531.3218, 1390.277
531.8040, 1384.083
532.2861, 1379.927
532.7682, 1380.839
533.2503, 1386.788
533.7324, 1397.758
534.2145, 1420.536
534.6967, 1440.964
535.1788, 1457.030
535.6609, 1468.707
536.1430, 1475.984
536.6251, 1474.976
537.1072, 1475.892
537.5894, 1485.711
538.0715, 1506.043
538.5536, 1523.570
539.0357, 1538.253
539.5178, 1549.218
539.9999, 1554.713
540.4821, 1554.994
540.9642, 1553.235
541.4463, 1550.082
541.9284, 1545.599
542.4105, 1537.844
542.8926, 1527.988
543.3748, 1521.757
543.8569, 1527.024
544.3390, 1535.288
544.8211, 1539.262
545.3032, 1538.397
545.7853, 1531.592
546.2675, 1512.109
546.7495, 1489.272
547.2316, 1472.273
547.7137, 1466.788
548.1959, 1463.161
548.6780, 1460.552
549.1601, 1458.710
549.6422, 1456.737
550.1243, 1453.561
550.6064, 1451.860
551.0886, 1452.644
551.5707, 1455.970
552.0528, 1459.783
552.5349, 1463.801
553.0170, 1468.981
553.4991, 1476.913
553.9813, 1487.349
554.4634, 1495.546
554.9455, 1499.623
555.4276, 1504.622
555.9097, 1519.692
556.3918, 1542.155
556.8740, 1563.557
557.3561, 1575.135
557.8382, 1587.191
558.3203, 1613.435
558.8024, 1651.628
559.2845, 1685.503
559.7667, 1699.653
560.2488, 1711.589
560.7309, 1733.741
561.2130, 1770.174
561.6951, 1810.349
562.1772, 1858.411
562.6594, 1906.777
563.1415, 1946.571
563.6236, 1969.682
564.1057, 1996.442
564.5878, 2030.392
565.0699, 2069.633
565.5521, 2108.362
566.0342, 2146.049
566.5163, 2185.602
566.9984, 2231.726
567.4805, 2282.557
567.9626, 2324.065
568.4448, 2356.465
568.9269, 2380.839
569.4090, 2392.499
569.8911, 2397.655
570.3732, 2413.814
570.8553, 2451.938
571.3375, 2483.316
571.8196, 2472.344
572.3017, 2436.672
572.7838, 2409.953
573.2659, 2423.087
573.7480, 2431.630
574.2302, 2412.863
574.7123, 2368.029
575.1944, 2322.668
575.6765, 2284.297
576.1586, 2243.628
576.6407, 2195.536
577.1229, 2134.667
577.6050, 2082.074
578.0871, 2041.536
578.5692, 2004.558
579.0513, 1962.223
579.5334, 1914.315
580.0156, 1862.427
580.4977, 1805.076
580.9798, 1746.259
581.4619, 1691.569
581.9440, 1641.865
582.4261, 1601.839
582.9083, 1586.083
583.3904, 1576.311
583.8725, 1543.361
584.3546, 1487.853
584.8367, 1433.562
585.3188, 1392.061
585.8010, 1359.667
586.2831, 1333.881
586.7652, 1317.384
587.2473, 1300.174
587.7294, 1279.632
588.2115, 1256.793
588.6937, 1232.982
589.1758, 1207.516
589.6579, 1182.233
590.1400, 1157.067
590.6221, 1132.303
591.1042, 1108.552
591.5864, 1085.312
592.0685, 1065.667
592.5506, 1053.415
593.0327, 1047.275
593.5148, 1034.768
593.9969, 1015.281
594.4791, 995.2452
594.9612, 981.1837
595.4433, 970.7583
595.9254, 959.3115
596.4075, 945.4863
596.8896, 931.6356
597.3718, 917.5060
597.8539, 905.1194
598.3360, 897.9523
598.8181, 907.3791
599.3002, 912.0745
599.7823, 899.4900
600.2645, 872.8555
600.7466, 855.2834
601.2287, 856.8129
601.7108, 858.5477
602.1929, 852.6226
602.6750, 837.4262
603.1572, 826.5419
603.6393, 820.9719
604.1214, 817.3009
604.6035, 812.1980
605.0856, 805.7302
605.5677, 800.1580
606.0499, 795.7450
606.5320, 792.3236
607.0141, 790.2801
607.4962, 789.0915
607.9783, 787.2147
608.4604, 782.8758
608.9425, 778.4511
609.4246, 776.3612
609.9067, 776.0652
610.3889, 775.3448
610.8710, 773.5496
611.3531, 770.8454
611.8352, 766.8848
612.3173, 761.0080
612.7994, 756.8545
613.2816, 755.7231
613.7637, 755.2867
614.2458, 753.4854
614.7279, 749.2656
615.2100, 748.0679
615.6921, 752.1954
616.1743, 756.4828
616.6564, 750.0084
617.1385, 733.4770
617.6206, 719.9575
618.1027, 714.1335
618.5848, 713.3154
619.0670, 713.6186
619.5491, 714.9553
620.0312, 716.9335
620.5133, 720.2878
620.9954, 723.5316
621.4775, 725.4896
621.9597, 726.0418
622.4418, 725.6669
622.9239, 722.7447
623.4060, 720.1320
623.8881, 720.0065
624.3702, 725.6738
624.8524, 728.1641
625.3345, 725.2458
625.8166, 720.8572
626.2987, 720.6676
626.7808, 725.3927
627.2629, 730.7463
627.7451, 735.8374
628.2272, 740.9955
628.7093, 748.9477
629.1914, 759.0170
629.6735, 764.2142
630.1556, 751.1744
630.6378, 735.8181
631.1199, 746.1575
631.6020, 779.8596
632.0841, 805.8511
632.5662, 798.6353
633.0483, 780.9290
633.5305, 769.9265
634.0126, 770.2720
634.4947, 771.6909
634.9768, 768.6624
635.4589, 767.9832
635.9410, 777.2118
636.4232, 805.5799
636.9053, 823.6225
637.3874, 824.9179
637.8695, 817.5112
638.3516, 817.4655
638.8337, 824.9529
639.3159, 836.8264
639.7980, 854.3845
640.2801, 874.1526
640.7622, 887.5895
641.2443, 895.4871
641.7264, 902.4553
642.2086, 910.1194
642.6907, 919.1776
643.1728, 928.8787
643.6549, 939.0128
644.1370, 955.4139
644.6191, 984.1721
645.1013, 1018.054
645.5834, 1052.029
646.0655, 1089.295
646.5476, 1119.734
647.0297, 1138.016
647.5118, 1153.299
647.9940, 1178.530
648.4761, 1216.933
648.9582, 1250.687
649.4403, 1274.618
649.9224, 1294.254
650.4045, 1322.135
650.8867, 1357.945
651.3688, 1397.406
651.8509, 1441.705
652.3330, 1486.708
652.8151, 1524.874
653.2972, 1556.910
653.7794, 1591.371
654.2615, 1635.535
654.7436, 1681.314
655.2257, 1722.889
655.7078, 1758.962
656.1899, 1796.090
656.6721, 1840.417
657.1542, 1882.425
657.6363, 1914.760
658.1184, 1935.356
658.6005, 1952.447
659.0826, 1965.243
659.5648, 1976.261
660.0469, 1995.298
660.5290, 2020.539
661.0111, 2023.580
661.4932, 1989.259
661.9753, 1939.924
662.4575, 1909.252
662.9396, 1890.957
663.4217, 1865.658
663.9038, 1820.348
664.3859, 1767.429
664.8680, 1713.396
665.3502, 1658.559
665.8323, 1605.023
666.3144, 1552.241
666.7965, 1501.870
667.2786, 1455.070
667.7607, 1412.800
668.2429, 1368.387
668.7250, 1320.430
669.2071, 1272.316
669.6892, 1226.918
670.1713, 1183.967
670.6534, 1141.363
671.1355, 1098.198
671.6176, 1057.956
672.0997, 1026.336
672.5818, 1001.352
673.0640, 978.3424
673.5461, 956.5930
674.0282, 935.3593
674.5103, 913.9782
674.9924, 892.6271
675.4745, 871.5484
675.9567, 845.9082
676.4388, 826.0991
676.9209, 818.9538
677.4030, 821.6973
677.8851, 817.8632
678.3672, 805.4339
678.8494, 790.7687
679.3315, 775.1031
679.8136, 759.0128
680.2957, 749.1273
680.7778, 745.8556
681.2599, 745.2058
681.7421, 744.6535
682.2242, 744.2487
682.7063, 744.9180
683.1884, 747.2307
683.6705, 746.9000
684.1526, 737.4769
684.6348, 725.5657
685.1169, 717.8290
685.5990, 716.0732
686.0811, 718.3688
686.5632, 730.1641
687.0453, 743.6246
687.5275, 747.4534
688.0096, 737.1149
688.4917, 728.7615
688.9738, 726.0145
689.4559, 726.3328
689.9380, 721.0048
690.4202, 710.5990
690.9023, 705.9245
691.3844, 718.4764
691.8665, 736.1290
692.3486, 737.7886
692.8307, 726.5090
693.3129, 718.7145
693.7950, 730.9121
694.2771, 743.9998
694.7592, 742.5244
695.2413, 723.2179
695.7234, 712.6861
696.2056, 723.6283
696.6877, 736.8895
697.1698, 741.8591
697.6519, 735.6984
698.1340, 732.4414
698.6161, 732.9515
699.0983, 734.2527
699.5804, 731.8735
700.0625, 726.9821
700.5446, 726.7506
701.0267, 733.8959
701.5089, 740.8843
701.9910, 736.7539
702.4731, 727.4318
702.9552, 723.1689
703.4373, 735.6317
703.9194, 744.8369
704.4016, 738.4855
704.8837, 723.4042
705.3658, 717.2641
705.8479, 728.5668
706.3300, 738.3689
706.8121, 743.0781
707.2943, 743.1327
707.7764, 738.5933
708.2585, 728.2068
708.7406, 722.6652
709.2227, 732.9206
709.7048, 751.2845
710.1870, 754.5595
710.6691, 743.8841
711.1512, 734.5539
711.6333, 738.2275
712.1154, 747.0023
712.5975, 753.5618
713.0797, 756.7082
713.5618, 761.7333
714.0439, 773.6644
714.5260, 785.4399
715.0081, 792.1133
715.4902, 791.5639
715.9724, 790.6060
716.4545, 788.0756
716.9366, 787.1260
717.4187, 792.7586
717.9008, 804.4570
718.3829, 813.9848
718.8651, 819.9220
719.3472, 823.7014
719.8293, 826.1751
720.3114, 828.0414
720.7935, 830.7295
721.2756, 834.8096
721.7578, 839.7599
722.2399, 845.7858
722.7220, 852.5055
723.2041, 858.7744
723.6862, 864.1891
724.1683, 869.3323
724.6505, 872.7645
725.1326, 876.0470
725.6147, 887.5242
726.0968, 908.8945
726.5789, 927.7552
727.0610, 938.4353
727.5432, 942.4185
728.0253, 941.3281
728.5074, 935.9659
728.9895, 932.5869
729.4716, 937.2515
729.9537, 944.4672
730.4359, 950.6829
730.9180, 955.7090
731.4001, 956.3541
731.8822, 945.7657
732.3643, 935.4841
732.8464, 933.5179
733.3285, 944.5391
733.8106, 942.7770
734.2927, 922.4361
734.7748, 901.9167
735.2570, 900.2036
735.7391, 914.6379
736.2212, 926.9492
736.7033, 935.5987
737.1854, 939.2687
737.6675, 935.0073
738.1497, 925.3957
738.6318, 914.5721
739.1139, 905.8032
739.5960, 891.7718
740.0781, 861.0054
740.5602, 826.1229
741.0424, 806.4249
741.5245, 814.3887
742.0066, 816.7378
742.4887, 808.8581
742.9708, 794.2923
743.4529, 778.0785
743.9351, 760.1127
744.4172, 747.4283
744.8993, 744.5906
745.3814, 745.3147
745.8635, 739.3517
746.3456, 728.3718
746.8278, 717.4827
747.3099, 708.9122
747.7920, 701.5359
748.2741, 696.6257
748.7562, 693.1257
749.2383, 684.9295
749.7205, 667.9528
750.2026, 650.5375
750.6847, 635.5799
751.1668, 622.6501
751.6489, 606.0644
752.1310, 584.2525
752.6132, 569.1926
753.0953, 573.1482
753.5774, 588.7663
754.0595, 596.6281
754.5416, 596.9327
755.0237, 598.0642
755.5059, 608.7104
755.9880, 620.3911
756.4701, 625.9080
756.9522, 623.3662
757.4343, 620.7557
757.9164, 618.7656
758.3986, 617.6932
758.8807, 618.5891
759.3628, 623.1411
759.8449, 621.0514
760.3270, 610.6232
760.8091, 599.2412
761.2913, 594.6769
761.7734, 595.4021
762.2555, 597.3323
762.7376, 600.6979
763.2197, 600.6276
763.7018, 587.9194
764.1840, 571.8628
764.6661, 563.3547
765.1482, 570.6536
765.6303, 576.7072
766.1124, 576.5938
766.5945, 575.0209
767.0767, 578.1485
767.5588, 588.5537
768.0409, 593.5009
768.5230, 589.8086
769.0051, 582.8356
769.4872, 582.6160
769.9694, 587.0132
770.4515, 586.6339
770.9336, 574.9773
771.4157, 563.4702
771.8978, 563.2847
772.3799, 570.4241
772.8621, 577.1870
773.3442, 585.9895
773.8263, 588.4851
774.3084, 577.5226
774.7905, 560.0166
775.2726, 553.2628
775.7548, 560.0586
776.2369, 568.0043
776.7190, 574.1109
777.2011, 578.4359
777.6832, 580.4707
778.1653, 580.5254
778.6475, 580.1044
779.1296, 579.4093
779.6117, 579.0167
780.0938, 579.7917
780.5759, 581.3822
781.0580, 582.3984
781.5402, 581.8439
782.0223, 581.1953
782.5044, 580.3883
782.9865, 579.6796
783.4686, 582.1442
783.9507, 589.4151
784.4329, 593.7096
784.9150, 588.8854
785.3971, 578.6565
785.8792, 575.7178
786.3613, 579.4415
786.8434, 584.5269
787.3256, 590.5732
787.8077, 594.1685
788.2898, 590.2405
788.7719, 578.8784
789.2540, 571.8847
789.7361, 574.3685
790.2183, 579.9859
790.7004, 586.9876
791.1825, 595.6388
791.6646, 601.2586
792.1467, 603.8312
792.6288, 603.3555
793.1110, 597.4193
793.5930, 588.7109
794.0751, 584.4216
794.5573, 584.8727
795.0394, 587.7249
795.5215, 594.7725
796.0036, 601.1186
796.4857, 602.0275
796.9678, 595.4792
797.4500, 591.0250
797.9321, 589.7957
798.4142, 590.7949
798.8963, 593.8581
799.3784, 599.4279
799.8605, 604.7254
800.3427, 610.0922
800.8248, 613.4314
801.3069, 612.6014
801.7890, 608.3939
802.2711, 601.0554
802.7532, 589.9718
803.2354, 582.0598
803.7175, 581.2883
804.1996, 585.3925
804.6817, 593.2545
805.1638, 608.5591
805.6459, 617.9662
806.1281, 618.3437
806.6102, 616.8712
807.0923, 621.5405
807.5744, 632.2288
808.0565, 634.5163
808.5386, 626.3971
809.0208, 616.3872
809.5029, 610.6112
809.9850, 609.7707
810.4671, 616.8110
810.9492, 635.2894
811.4313, 649.8156
811.9135, 653.2090
812.3956, 650.1083
812.8777, 644.3551
813.3598, 632.9300
813.8419, 626.3903
814.3240, 625.7734
814.8062, 628.2341
815.2883, 630.2063
815.7704, 632.2061
816.2525, 638.6293
816.7346, 651.2626
817.2167, 662.2048
817.6989, 659.8759
818.1810, 653.2179
818.6631, 654.2653
819.1452, 671.6209
819.6273, 684.3749
820.1094, 685.9161
820.5916, 682.2403
821.0737, 677.4532
821.5558, 670.4830
822.0379, 668.0585
822.5200, 671.7802
823.0021, 676.9636
823.4843, 676.3756
823.9664, 672.7327
824.4485, 673.3975
824.9306, 680.7858
825.4127, 689.7337
825.8948, 697.9919
826.3770, 705.2915
826.8591, 711.3871
827.3412, 713.3156
827.8233, 718.5071
828.3054, 728.2640
828.7875, 739.7866
829.2697, 751.4523
829.7518, 763.3726
830.2339, 766.0266
830.7160, 756.5316
831.1981, 745.3942
831.6802, 743.8835
832.1624, 748.7949
832.6445, 755.1006
833.1266, 760.8012
833.6087, 769.7364
834.0908, 788.0730
834.5729, 807.5294
835.0551, 819.0617
835.5372, 817.6266
836.0193, 822.6386
836.5014, 836.7163
836.9835, 853.1957
837.4656, 864.5529
837.9478, 871.1797
838.4299, 873.6720
838.9120, 870.9613
839.3941, 870.0526
839.8762, 877.3256
840.3583, 889.0779
840.8405, 901.7362
841.3226, 917.5754
841.8047, 927.5697
842.2868, 926.1998
842.7689, 924.2814
843.2510, 933.6631
843.7332, 955.1102
844.2153, 974.0137
844.6974, 989.0520
845.1795, 1001.821
845.6616, 1013.225
846.1437, 1023.649
846.6259, 1033.112
847.1080, 1040.849
847.5901, 1050.741
848.0722, 1066.417
848.5543, 1083.722
849.0364, 1099.272
849.5186, 1113.441
850.0007, 1124.214
850.4828, 1130.150
850.9649, 1136.477
851.4470, 1150.433
851.9291, 1169.279
852.4113, 1183.161
852.8934, 1191.042
853.3755, 1195.926
853.8576, 1194.171
854.3397, 1194.188
854.8218, 1205.256
855.3040, 1233.810
855.7860, 1255.493
856.2681, 1267.353
856.7502, 1273.724
857.2324, 1274.408
857.7145, 1269.175
858.1966, 1278.738
858.6787, 1304.844
859.1608, 1329.373
859.6429, 1331.528
860.1251, 1325.705
860.6072, 1332.679
861.0893, 1355.409
861.5714, 1373.233
862.0535, 1373.906
862.5356, 1371.629
863.0178, 1375.270
863.4999, 1385.781
863.9820, 1389.470
864.4641, 1384.385
864.9462, 1380.976
865.4283, 1387.885
865.9105, 1401.516
866.3926, 1415.566
866.8747, 1429.272
867.3568, 1438.263
867.8389, 1431.629
868.3210, 1426.267
868.8032, 1434.974
869.2853, 1459.025
869.7674, 1475.227
870.2495, 1478.426
870.7316, 1484.370
871.2137, 1500.871
871.6959, 1525.802
872.1780, 1551.790
872.6601, 1578.297
873.1422, 1600.040
873.6243, 1609.592
874.1064, 1616.659
874.5886, 1630.430
875.0707, 1649.692
875.5528, 1666.580
876.0349, 1678.845
876.5170, 1688.849
876.9991, 1695.173
877.4813, 1699.945
877.9634, 1714.104
878.4455, 1737.814
878.9276, 1755.102
879.4097, 1756.625
879.8918, 1751.138
880.3740, 1749.043
880.8561, 1749.025
881.3382, 1747.823
881.8203, 1740.515
882.3024, 1736.208
882.7845, 1740.060
883.2667, 1747.761
883.7488, 1751.134
884.2309, 1749.547
884.7130, 1747.223
885.1951, 1745.598
885.6772, 1742.573
886.1594, 1734.297
886.6415, 1722.079
887.1236, 1708.439
887.6057, 1692.096
888.0878, 1678.162
888.5699, 1671.324
889.0521, 1667.399
889.5342, 1660.750
890.0163, 1650.311
890.4984, 1639.570
890.9805, 1628.763
891.4626, 1617.436
891.9448, 1603.823
892.4269, 1589.188
892.9090, 1577.904
893.3911, 1571.462
893.8732, 1564.216
894.3553, 1551.987
894.8375, 1537.053
895.3196, 1522.157
895.8017, 1509.738
896.2838, 1490.195
896.7659, 1459.864
897.2480, 1428.709
897.7302, 1403.419
898.2123, 1384.185
898.6944, 1370.823
899.1765, 1363.475
899.6586, 1356.344
900.1407, 1344.966
900.6229, 1332.018
901.1050, 1318.763
901.5871, 1304.941
902.0692, 1296.664
902.5513, 1297.726
903.0334, 1299.105
903.5156, 1296.818
903.9977, 1291.349
904.4798, 1286.434
904.9619, 1282.034
905.4440, 1277.695
905.9261, 1270.970
906.4083, 1265.790
906.8904, 1271.377
907.3725, 1283.335
907.8546, 1282.859
908.3367, 1252.523
908.8188, 1222.941
909.3010, 1199.781
909.7831, 1183.478
910.2652, 1179.241
910.7473, 1187.021
911.2294, 1188.877
911.7115, 1177.568
912.1937, 1159.642
912.6758, 1139.138
913.1579, 1118.746
913.6400, 1103.120
914.1221, 1098.204
914.6042, 1092.598
915.0864, 1084.104
915.5685, 1074.125
916.0506, 1065.249
916.5327, 1057.919
917.0148, 1044.120
917.4969, 1020.892
917.9790, 999.5329
918.4611, 996.4249
918.9432, 1002.225
919.4254, 1002.072
919.9075, 990.3857
920.3896, 982.6529
920.8717, 989.3589
921.3538, 997.2596
921.8359, 995.0893
922.3181, 979.4970
922.8002, 982.6433
923.2823, 1006.859
923.7644, 1032.597
924.2465, 1039.304
924.7286, 1039.118
925.2108, 1051.806
925.6929, 1077.357
926.1750, 1099.204
926.6571, 1109.283
927.1392, 1115.337
927.6213, 1116.728
928.1035, 1115.959
928.5856, 1136.042
929.0677, 1180.555
929.5498, 1216.454
930.0319, 1224.613
930.5140, 1220.568
930.9962, 1226.890
931.4783, 1241.719
931.9604, 1259.420
932.4425, 1282.088
932.9246, 1302.523
933.4067, 1316.205
933.8889, 1327.511
934.3710, 1345.064
934.8531, 1370.250
935.3352, 1390.593
935.8173, 1402.951
936.2994, 1411.540
936.7816, 1422.157
937.2637, 1432.440
937.7458, 1437.693
938.2279, 1435.172
938.7100, 1432.294
939.1921, 1434.266
939.6743, 1434.648
940.1564, 1428.218
940.6385, 1413.830
941.1206, 1397.774
941.6027, 1378.978
942.0848, 1365.317
942.5670, 1368.498
943.0491, 1378.417
943.5312, 1379.207
944.0133, 1370.478
944.4954, 1365.102
944.9775, 1369.470
945.4597, 1376.880
945.9418, 1384.431
946.4239, 1392.446
946.9060, 1403.613
947.3881, 1418.261
947.8702, 1430.589
948.3524, 1432.347
948.8345, 1436.595
949.3166, 1468.506
949.7987, 1516.708
950.2808, 1553.790
950.7629, 1557.697
951.2451, 1564.290
951.7272, 1581.303
952.2093, 1604.105
952.6914, 1627.733
953.1735, 1652.428
953.6556, 1668.505
954.1378, 1672.339
954.6199, 1676.224
955.1020, 1697.560
955.5841, 1724.711
956.0662, 1742.367
956.5483, 1745.185
957.0305, 1748.227
957.5126, 1760.012
957.9947, 1766.025
958.4768, 1752.202
958.9589, 1719.476
959.4410, 1711.572
959.9232, 1728.452
960.4053, 1745.884
960.8874, 1748.747
961.3695, 1742.894
961.8516, 1726.285
962.3337, 1703.156
962.8159, 1698.245
963.2980, 1736.114
963.7801, 1762.151
964.2622, 1760.373
964.7443, 1741.102
965.2264, 1731.999
965.7086, 1731.306
966.1907, 1728.000
966.6728, 1719.547
967.1549, 1705.107
967.6370, 1678.145
968.1191, 1647.133
968.6013, 1624.513
969.0834, 1625.262
969.5655, 1609.246
970.0476, 1569.664
970.5297, 1525.925
971.0118, 1498.469
971.4940, 1483.033
971.9761, 1462.317
972.4582, 1434.632
972.9403, 1408.136
973.4224, 1391.430
973.9045, 1374.336
974.3867, 1348.021
974.8688, 1312.120
975.3509, 1281.570
975.8330, 1256.032
976.3151, 1237.402
976.7972, 1228.520
977.2794, 1225.684
977.7615, 1221.213
978.2436, 1215.732
978.7257, 1211.155
979.2078, 1211.768
979.6899, 1209.435
980.1720, 1197.001
980.6541, 1181.677
981.1362, 1174.398
981.6183, 1176.621
982.1005, 1177.716
982.5826, 1175.732
983.0647, 1175.757
983.5468, 1187.306
984.0289, 1203.163
984.5110, 1211.220
984.9932, 1208.534
985.4753, 1207.769
985.9574, 1213.307
986.4395, 1221.255
986.9216, 1229.537
987.4037, 1238.410
987.8859, 1251.521
988.3680, 1268.736
988.8501, 1288.872
989.3322, 1316.666
989.8143, 1342.542
990.2964, 1350.604
990.7786, 1349.113
991.2607, 1362.092
991.7428, 1410.042
992.2249, 1447.119
992.7070, 1462.473
993.1891, 1471.431
993.6713, 1504.577
994.1534, 1554.678
994.6355, 1585.072
995.1176, 1584.298
995.5997, 1585.879
996.0818, 1619.320
996.5640, 1662.270
997.0461, 1693.618
997.5282, 1708.182
998.0103, 1734.994
998.4924, 1779.006
998.9745, 1819.358
999.4567, 1841.422
999.9388, 1850.810
1000.421, 1860.963
1000.903, 1870.123
1001.385, 1870.564
1001.867, 1850.949
1002.349, 1830.407
1002.831, 1818.478
1003.314, 1809.473
1003.796, 1791.945
1004.278, 1765.251
1004.760, 1734.681
1005.242, 1698.829
1005.724, 1667.693
1006.206, 1659.725
1006.688, 1659.735
1007.171, 1646.184
1007.653, 1610.344
1008.135, 1578.105
1008.617, 1551.864
1009.099, 1530.362
1009.581, 1514.345
1010.063, 1502.675
1010.545, 1487.164
1011.027, 1468.450
1011.510, 1451.932
1011.992, 1439.419
1012.474, 1431.830
1012.956, 1431.198
1013.438, 1436.114
1013.920, 1441.888
1014.402, 1448.041
1014.884, 1455.361
1015.367, 1463.756
1015.849, 1474.084
1016.331, 1489.048
1016.813, 1506.629
1017.295, 1522.385
1017.777, 1534.824
1018.259, 1547.822
1018.741, 1557.859
1019.223, 1573.903
1019.706, 1603.418
1020.188, 1646.354
1020.670, 1683.684
1021.152, 1715.470
1021.634, 1739.774
1022.116, 1748.413
1022.598, 1754.231
1023.080, 1775.012
1023.563, 1803.914
1024.045, 1820.618
1024.527, 1810.140
1025.009, 1805.052
1025.491, 1811.257
1025.973, 1820.788
1026.455, 1826.465
1026.937, 1825.842
1027.419, 1807.514
1027.901, 1768.143
1028.384, 1724.835
1028.866, 1688.647
1029.348, 1652.748
1029.830, 1610.006
1030.312, 1560.801
1030.794, 1522.443
1031.276, 1496.319
1031.758, 1471.748
1032.241, 1442.563
1032.723, 1412.860
1033.205, 1389.797
1033.687, 1370.732
1034.169, 1348.861
1034.651, 1315.039
1035.133, 1288.805
1035.615, 1276.613
1036.098, 1267.750
1036.580, 1247.098
1037.062, 1216.865
1037.544, 1193.243
1038.026, 1178.091
1038.508, 1161.659
1038.990, 1129.225
1039.472, 1098.504
1039.954, 1087.509
1040.437, 1095.341
1040.919, 1086.915
1041.401, 1057.438
1041.883, 1031.195
1042.365, 1017.986
1042.847, 1011.406
1043.329, 1000.192
1043.811, 987.1296
1044.293, 978.3300
1044.776, 982.3605
1045.258, 979.2269
1045.740, 957.7316
1046.222, 936.0630
1046.704, 933.0979
1047.186, 947.5338
1047.668, 949.9516
1048.150, 939.6727
1048.633, 926.6786
1049.115, 916.9970
1049.597, 908.3656
1050.079, 898.9042
1050.561, 888.9685
1051.043, 879.9905
1051.525, 870.6750
1052.007, 868.1566
1052.490, 876.6760
1052.972, 886.9322
1053.454, 883.4142
1053.936, 871.5949
1054.418, 860.8740
1054.900, 852.6603
1055.382, 848.6302
1055.864, 851.7632
1056.346, 856.5322
1056.828, 860.8260
1057.311, 864.3564
1057.793, 863.1722
1058.275, 857.5812
1058.757, 851.3915
1059.239, 844.6464
1059.721, 840.1869
1060.203, 842.1253
1060.685, 847.4213
1061.168, 848.5380
1061.650, 843.2656
1062.132, 840.8795
1062.614, 842.8088
1063.096, 846.3727
1063.578, 849.2347
1064.060, 851.3748
1064.542, 851.9037
1065.025, 850.6112
1065.507, 852.4263
1065.989, 864.2927
1066.471, 872.2807
1066.953, 869.5558
1067.435, 860.4228
1067.917, 861.5580
1068.399, 870.9036
1068.881, 876.5629
1069.364, 870.4554
1069.846, 866.6618
1070.328, 878.7570
1070.810, 895.0784
1071.292, 901.3699
1071.774, 893.2562
1072.256, 890.7785
1072.738, 893.5020
1073.220, 904.9727
1073.703, 936.6260
1074.185, 972.6427
1074.667, 989.2888
1075.149, 990.7706
1075.631, 998.8177
1076.113, 1026.619
1076.595, 1048.717
1077.077, 1060.159
1077.559, 1065.089
1078.042, 1069.634
1078.524, 1073.418
1079.006, 1074.531
1079.488, 1072.055
1079.970, 1071.328
1080.452, 1079.602
1080.934, 1086.204
1081.416, 1083.986
1081.899, 1073.987
1082.381, 1066.594
1082.863, 1061.835
1083.345, 1061.182
1083.827, 1072.297
1084.309, 1077.753
1084.791, 1053.284
1085.273, 1015.222
1085.755, 990.9162
1086.238, 993.9967
1086.720, 986.4940
1087.202, 966.2585
1087.684, 940.9874
1088.166, 912.8748
1088.648, 886.2071
1089.130, 869.4959
1089.612, 861.9684
1090.094, 856.1351
1090.577, 853.8411
1091.059, 846.7292
1091.541, 831.8510
1092.023, 812.2008
1092.505, 791.1571
1092.987, 769.8747
1093.469, 754.2133
1093.951, 746.0775
1094.434, 738.7468
1094.916, 725.0842
1095.398, 712.8107
1095.880, 709.7702
1096.362, 715.2704
1096.844, 713.1018
1097.326, 703.0091
1097.808, 689.1279
1098.291, 669.9214
1098.773, 652.5101
1099.255, 647.6541
1099.737, 649.5292
1100.219, 649.0585
1100.701, 643.2906
1101.183, 637.0280
1101.665, 629.5264
1102.147, 623.4620
1102.630, 623.8917
1103.112, 626.4615
1103.594, 619.9989
1104.076, 606.1477
1104.558, 595.6528
1105.040, 593.9313
1105.522, 595.5236
1106.004, 601.5490
1106.486, 607.4110
1106.969, 602.8548
1107.451, 590.2393
1107.933, 582.4181
1108.415, 581.9205
1108.897, 582.0966
1109.379, 578.6228
1109.861, 574.2902
1110.343, 570.9429
1110.826, 568.4886
1111.308, 566.1570
1111.790, 564.0225
1112.272, 560.3945
1112.754, 554.3886
1113.236, 547.0594
1113.718, 536.2373
1114.200, 526.2164
1114.682, 523.4427
1115.165, 531.9034
1115.647, 538.3026
1116.129, 542.9852
1116.611, 544.1618
1117.093, 538.6504
1117.575, 529.8177
1118.057, 521.9067
1118.539, 515.6541
1119.021, 513.2308
1119.504, 516.6016
1119.986, 523.1617
1120.468, 535.8929
1120.950, 546.5932
1121.432, 541.6406
1121.914, 526.2010
1122.396, 517.5883
1122.878, 517.2783
1123.361, 518.3104
1123.843, 517.8743
1124.325, 517.0392
1124.807, 515.6570
1125.289, 514.5060
1125.771, 517.5363
1126.253, 523.9336
1126.735, 523.4042
1127.218, 511.1241
1127.700, 500.5826
1128.182, 504.0677
1128.664, 512.6318
1129.146, 519.6730
1129.628, 524.9733
1130.110, 522.9258
1130.592, 512.7003
1131.074, 504.8932
1131.557, 505.8978
1132.039, 510.1168
1132.521, 514.4149
1133.003, 516.4924
1133.485, 511.9939
1133.967, 495.1595
1134.449, 481.6660
1134.931, 469.7146
1135.413, 467.0690
1135.896, 490.4638
1136.378, 521.6075
1136.860, 527.4216
1137.342, 512.8159
1137.824, 500.5315
1138.306, 497.2344
1138.788, 498.2711
1139.270, 505.4700
1139.752, 512.6663
1140.235, 509.4337
1140.717, 499.8707
1141.199, 494.8092
1141.681, 495.4361
1142.163, 498.0377
1142.645, 504.6610
1143.127, 508.3412
1143.609, 505.6317
1144.092, 499.0649
1144.574, 495.9819
1145.056, 495.4312
1145.538, 491.7857
1146.020, 482.8030
1146.502, 474.4812
1146.984, 467.1469
1147.466, 465.5792
1147.948, 475.9903
1148.431, 496.6665
1148.913, 499.0317
1149.395, 483.9404
1149.877, 477.1740
1150.359, 497.7898
1150.841, 519.1461
1151.323, 520.3712
1151.805, 510.2289
1152.287, 499.6804
1152.770, 488.0143
1153.252, 482.0558
1153.734, 482.0851
1154.216, 484.7964
1154.698, 490.1930
1155.180, 495.0782
1155.662, 494.8211
1156.144, 491.4579
1156.627, 490.9202
1157.109, 495.2787
1157.591, 498.1038
1158.073, 498.9854
1158.555, 497.7851
1159.037, 492.9102
1159.519, 486.7363
1160.001, 481.4661
1160.484, 477.6264
1160.966, 478.4000
1161.448, 488.1145
1161.930, 494.4267
1162.412, 494.0516
1162.894, 491.0536
1163.376, 491.5872
1163.858, 494.1036
1164.340, 495.6305
1164.823, 495.6837
1165.305, 495.3907
1165.787, 496.0669
1166.269, 494.5523
1166.751, 487.8157
1167.233, 480.0964
1167.715, 485.8295
1168.197, 499.3779
1168.679, 503.5351
1169.162, 490.0158
1169.644, 477.2918
1170.126, 470.8226
1170.608, 468.0258
1171.090, 468.2014
1171.572, 470.9964
1172.054, 476.7231
1172.536, 483.9813
1173.019, 486.0038
1173.501, 472.4638
1173.983, 463.6544
1174.465, 474.8246
1174.947, 488.5545
1175.429, 487.8741
1175.911, 473.5575
1176.393, 471.8339
1176.875, 481.6735
1177.358, 487.4498
1177.840, 470.7866
1178.322, 457.3440
1178.804, 467.6731
1179.286, 486.0483
1179.768, 487.2291
1180.250, 470.9371
1180.732, 463.6092
1181.214, 467.5644
1181.697, 472.6989
1182.179, 469.2363
1182.661, 466.5218
1183.143, 475.5697
1183.625, 489.7859
1184.107, 488.1938
1184.589, 469.3448
1185.071, 460.1625
1185.554, 466.4734
1186.036, 473.3629
1186.518, 462.4841
1187.000, 450.1112
1187.482, 452.4510
1187.964, 467.8459
1188.446, 480.1568
1188.928, 490.0143
1189.411, 489.9238
1189.893, 474.3022
1190.375, 459.3413
1190.857, 468.6638
1191.339, 483.5890
1191.821, 481.4133
1192.303, 458.8780
1192.785, 449.5240
1193.267, 455.3700
1193.750, 459.5215
1194.232, 452.0727
1194.714, 444.7605
1195.196, 455.6479
1195.678, 473.0351
1196.160, 479.8587
1196.642, 470.4472
1197.124, 465.6305
1197.606, 465.7406
1198.089, 468.4742
1198.571, 475.4181
1199.053, 481.3148
1199.535, 478.7159
1200.017, 470.4993
1200.499, 461.5993
1200.981, 449.1873
1201.463, 445.9006
1201.945, 453.7349
1202.428, 462.0104
1202.910, 460.2238
1203.392, 455.7005
1203.874, 459.6271
1204.356, 468.7556
1204.838, 472.6385
1205.320, 467.3938
1205.802, 463.1049
1206.285, 460.5456
1206.767, 458.8224
1207.249, 457.7677
1207.731, 456.6125
1208.213, 452.2669
1208.695, 446.2072
1209.177, 447.9440
1209.659, 464.2447
1210.141, 471.4540
1210.624, 463.4884
1211.106, 454.5183
1211.588, 465.7894
1212.070, 483.4180
1212.552, 486.2763
1213.034, 473.7870
1213.516, 470.0630
1213.998, 484.2402
1214.480, 486.3344
1214.963, 465.2780
1215.445, 441.8802
1215.927, 450.2211
1216.409, 471.2446
1216.891, 476.6531
1217.373, 461.7824
1217.855, 452.8233
1218.337, 452.8861
1218.820, 455.3557
1219.302, 459.0202
1219.784, 462.2167
1220.266, 460.9292
1220.748, 458.2162
1221.230, 459.2498
1221.712, 466.1008
1222.194, 468.7445
1222.677, 465.7241
1223.159, 462.0016
1223.641, 459.7492
1224.123, 457.6589
1224.605, 452.1293
1225.087, 445.9694
1225.569, 443.9486
1226.051, 448.7993
1226.533, 452.4811
1227.016, 454.8790
1227.498, 456.0398
1227.980, 454.8418
1228.462, 453.7836
1228.944, 458.1373
1229.426, 464.7589
1229.908, 468.0770
1230.390, 465.2579
1230.872, 463.2468
1231.355, 461.7677
1231.837, 462.4040
1232.319, 467.4874
1232.801, 474.1801
1233.283, 481.9880
1233.765, 487.8178
1234.247, 484.0427
1234.729, 461.6766
1235.212, 451.7733
1235.694, 456.1478
1236.176, 464.9283
1236.658, 475.1266
1237.140, 481.9128
1237.622, 476.4617
1238.104, 463.5540
1238.586, 455.2759
1239.068, 453.3995
1239.551, 452.5412
1240.033, 452.1801
1240.515, 454.6837
1240.997, 466.0773
1241.479, 477.9325
1241.961, 481.4104
1242.443, 478.3221
1242.925, 475.2763
1243.407, 473.0426
1243.890, 467.2815
1244.372, 456.8821
1244.854, 450.2787
1245.336, 461.8360
1245.818, 474.4789
1246.300, 470.0472
1246.782, 454.2315
1247.264, 448.8875
1247.747, 455.0742
1248.229, 463.3797
1248.711, 472.9778
1249.193, 480.5780
1249.675, 483.5773
1250.157, 483.6072
1250.639, 480.5828
1251.121, 475.8077
1251.604, 472.8769
1252.086, 471.8829
1252.568, 469.5068
1253.050, 464.9417
1253.532, 462.4824
1254.014, 465.3115
1254.496, 471.7795
1254.978, 483.9941
1255.460, 498.0634
1255.943, 503.0149
1256.425, 499.2429
1256.907, 490.4452
1257.389, 476.1228
1257.871, 466.7308
1258.353, 471.3560
1258.835, 481.3962
1259.317, 495.5497
1259.799, 509.2841
1260.281, 503.7103
1260.764, 483.7237
1261.246, 476.3844
1261.728, 489.9563
1262.210, 500.8432
1262.692, 493.1309
1263.174, 484.1110
1263.656, 481.5278
1264.138, 483.2645
1264.621, 482.6258
1265.103, 481.2589
1265.585, 485.9679
1266.067, 500.5191
1266.549, 509.3033
1267.031, 503.4543
1267.513, 494.8930
1267.995, 485.9614
1268.478, 479.4050
1268.960, 484.9120
1269.442, 497.2593
1269.924, 504.4181
1270.406, 503.0886
1270.888, 497.8405
1271.370, 486.5451
1271.852, 478.8380
1272.334, 480.9314
1272.817, 486.4199
1273.299, 479.6907
1273.781, 468.9800
1274.263, 470.0972
1274.745, 491.8453
1275.227, 504.1333
1275.709, 503.9524
1276.191, 501.9540
1276.673, 502.8440
1277.156, 504.9255
1277.638, 506.7076
1278.120, 507.7234
1278.602, 507.3677
1279.084, 505.6508
1279.566, 501.4969
1280.048, 494.4264
1280.530, 488.2963
1281.013, 482.4530
1281.495, 482.3489
1281.977, 500.1910
1282.459, 522.7169
1282.941, 533.7808
1283.423, 532.8297
1283.905, 523.5311
1284.387, 506.0345
1284.870, 493.9818
1285.352, 495.8610
1285.834, 502.0925
1286.316, 510.8940
1286.798, 517.4562
1287.280, 517.8912
1287.762, 512.2842
1288.244, 498.6848
1288.726, 479.2682
1289.208, 466.5413
1289.691, 469.3683
1290.173, 474.8387
1290.655, 478.2009
1291.137, 482.0982
1291.619, 490.5084
1292.101, 500.7462
1292.583, 496.6548
1293.065, 482.9469
1293.548, 475.3913
1294.030, 485.3909
1294.512, 492.6420
##END=



