##NAMES=Hubnerite
##RRUFFID=R050556
##IDEAL CHEMISTRY=Mn^2+^W^6+^O_4_
##LOCALITY=Pasto Bueno, Ancash Department, Peru
##OWNER=RRUFF
##SOURCE=Dave Bunk Minerals
##DESCRIPTION=Blackish brown bladed crystal associated with quartz
##STATUS=The identification of this mineral has been confirmed by X-ray diffraction and chemical analysis
##URL=rruff.info/R050556
##MEASURED CHEMISTRY=Mn^2+^_0.98_W_1.00_O_4_
91.11523, 5.121680
91.59735, 6.231688
92.07947, 5.024675
92.56158, 2.309619
93.04370, 0.6403908
93.52582, 2.193513
94.00793, 5.756127
94.49006, 8.647281
94.97218, 10.45340
95.45429, 11.86236
95.93641, 14.47201
96.41853, 18.23194
96.90064, 21.08382
97.38276, 21.44571
97.86488, 19.45886
98.34699, 16.27188
98.82911, 11.24541
99.31123, 5.577235
99.79334, 3.952079
100.2755, 7.263409
100.7576, 11.57098
101.2397, 13.16524
101.7218, 11.43168
102.2039, 9.969338
102.6861, 9.495234
103.1682, 10.00067
103.6503, 11.07827
104.1324, 13.49637
104.6145, 15.65148
105.0966, 15.13146
105.5788, 9.120103
106.0609, 5.379306
106.5430, 6.697087
107.0251, 15.35850
107.5072, 20.80969
107.9893, 20.18137
108.4715, 17.08191
108.9536, 17.99710
109.4357, 26.43280
109.9178, 35.77503
110.3999, 44.09319
110.8820, 50.64242
111.3642, 57.27830
111.8463, 63.93458
112.3284, 70.72742
112.8105, 78.01817
113.2926, 86.69788
113.7747, 95.42751
114.2569, 103.4196
114.7390, 108.8853
115.2211, 115.5968
115.7032, 124.4800
116.1853, 135.3453
116.6674, 147.1771
117.1496, 159.7482
117.6317, 173.2651
118.1138, 187.7737
118.5959, 204.0856
119.0780, 220.8582
119.5602, 237.1713
120.0423, 253.2183
120.5244, 270.0364
121.0065, 288.7345
121.4886, 308.4719
121.9707, 328.2239
122.4529, 345.4094
122.9350, 363.5011
123.4171, 385.0101
123.8992, 410.0338
124.3813, 438.6135
124.8634, 466.4906
125.3456, 497.5595
125.8277, 540.8719
126.3098, 601.7430
126.7919, 676.9513
127.2740, 766.8412
127.7561, 875.5959
128.2383, 982.0981
128.7204, 1080.425
129.2025, 1163.425
129.6846, 1193.583
130.1667, 1126.247
130.6488, 985.9951
131.1310, 838.8644
131.6131, 686.0551
132.0952, 541.3269
132.5773, 430.1235
133.0594, 352.3697
133.5415, 295.1750
134.0237, 252.4329
134.5058, 223.5254
134.9879, 201.5338
135.4700, 186.5541
135.9521, 176.8860
136.4343, 166.6066
136.9164, 155.2398
137.3985, 145.1070
137.8806, 138.5866
138.3627, 136.2022
138.8448, 133.5596
139.3270, 129.6772
139.8091, 124.7094
140.2912, 120.4246
140.7733, 117.1305
141.2554, 113.9080
141.7375, 109.3104
142.2197, 101.8120
142.7018, 97.08616
143.1839, 97.68605
143.6660, 104.2470
144.1481, 105.9758
144.6302, 99.86112
145.1124, 91.43808
145.5945, 87.93929
146.0766, 92.77164
146.5587, 97.29039
147.0408, 99.17096
147.5230, 97.68327
148.0051, 96.27708
148.4872, 93.96375
148.9693, 91.41308
149.4514, 90.50797
149.9335, 93.24407
150.4157, 95.48663
150.8978, 95.93449
151.3799, 93.39454
151.8620, 91.69234
152.3441, 91.09043
152.8262, 91.25939
153.3084, 91.60987
153.7905, 91.83411
154.2726, 92.44312
154.7547, 93.79173
155.2368, 97.21006
155.7189, 99.13258
156.2011, 97.95105
156.6832, 94.91861
157.1653, 93.15089
157.6474, 94.17540
158.1295, 95.92155
158.6116, 97.37316
159.0938, 98.40350
159.5759, 99.07781
160.0580, 99.24033
160.5401, 99.01928
161.0222, 98.85179
161.5044, 98.26896
161.9865, 98.13128
162.4686, 99.07533
162.9507, 102.5586
163.4328, 105.6693
163.9149, 107.2404
164.3971, 107.4686
164.8792, 107.2046
165.3613, 106.1370
165.8434, 105.0706
166.3255, 104.7390
166.8076, 105.5463
167.2898, 106.9878
167.7719, 109.1524
168.2540, 111.9317
168.7361, 114.3567
169.2182, 115.8871
169.7003, 116.7441
170.1825, 117.1903
170.6646, 116.6472
171.1467, 116.1832
171.6288, 116.7108
172.1109, 118.2003
172.5931, 120.0376
173.0752, 122.1703
173.5573, 124.3086
174.0394, 125.9885
174.5215, 125.7827
175.0036, 125.6387
175.4858, 127.9328
175.9679, 132.7389
176.4500, 138.3637
176.9321, 144.5208
177.4142, 150.5395
177.8963, 154.7928
178.3785, 154.4754
178.8606, 152.7119
179.3427, 154.8838
179.8248, 161.3556
180.3069, 168.6422
180.7890, 171.3786
181.2712, 171.4688
181.7533, 175.0352
182.2354, 187.2414
182.7175, 204.6211
183.1996, 218.5434
183.6818, 228.2057
184.1639, 238.4506
184.6460, 255.4181
185.1281, 278.2976
185.6102, 303.8428
186.0923, 330.9960
186.5745, 359.5924
187.0566, 388.3805
187.5387, 417.8696
188.0208, 446.7915
188.5029, 475.0702
188.9850, 502.4752
189.4672, 527.5264
189.9493, 549.5403
190.4314, 568.5844
190.9135, 585.7767
191.3956, 600.8449
191.8777, 614.6805
192.3599, 627.8226
192.8420, 640.2020
193.3241, 655.8432
193.8062, 678.2658
194.2883, 706.9801
194.7704, 733.6718
195.2526, 757.0365
195.7347, 779.8691
196.2168, 807.6508
196.6989, 840.6650
197.1810, 874.9204
197.6632, 906.1652
198.1453, 934.6793
198.6274, 971.4857
199.1095, 1017.826
199.5916, 1071.932
200.0737, 1128.380
200.5559, 1186.577
201.0380, 1252.259
201.5201, 1329.633
202.0022, 1420.064
202.4843, 1513.918
202.9664, 1613.288
203.4486, 1713.214
203.9307, 1806.809
204.4128, 1897.097
204.8949, 1965.988
205.3770, 2007.493
205.8591, 2023.862
206.3413, 1995.482
206.8234, 1915.576
207.3055, 1794.749
207.7876, 1653.944
208.2697, 1487.366
208.7519, 1321.041
209.2340, 1165.394
209.7161, 1019.393
210.1982, 888.8846
210.6803, 773.7713
211.1624, 674.5094
211.6446, 593.7830
212.1267, 535.5604
212.6088, 487.6581
213.0909, 443.9742
213.5730, 404.5045
214.0551, 369.1306
214.5373, 337.3292
215.0194, 309.9030
215.5015, 289.0861
215.9836, 277.0480
216.4657, 267.0425
216.9478, 255.0130
217.4300, 239.3722
217.9121, 226.9107
218.3942, 218.8492
218.8763, 213.8820
219.3584, 208.2927
219.8405, 201.6293
220.3227, 195.2314
220.8048, 189.9125
221.2869, 186.1537
221.7690, 181.9444
222.2511, 177.0600
222.7333, 171.7419
223.2154, 166.7686
223.6975, 161.8728
224.1796, 157.6904
224.6617, 154.5799
225.1438, 152.8314
225.6260, 151.4057
226.1081, 150.2704
226.5902, 149.4561
227.0723, 149.1595
227.5544, 149.7634
228.0365, 150.2789
228.5187, 149.9069
229.0008, 147.1744
229.4829, 147.4323
229.9650, 152.6342
230.4471, 160.3293
230.9292, 163.8723
231.4114, 161.3090
231.8935, 157.6094
232.3756, 154.7733
232.8577, 152.4763
233.3398, 151.7078
233.8220, 152.6463
234.3041, 155.0496
234.7862, 158.2486
235.2683, 161.9108
235.7504, 166.8446
236.2325, 173.3597
236.7147, 181.0463
237.1968, 191.0121
237.6789, 202.7710
238.1610, 216.9949
238.6431, 235.8211
239.1252, 263.6422
239.6074, 289.6332
240.0895, 309.1377
240.5716, 318.8721
241.0537, 331.3311
241.5358, 348.5245
242.0179, 367.4838
242.5001, 382.2242
242.9822, 390.9350
243.4643, 398.3302
243.9464, 405.6657
244.4285, 412.3617
244.9106, 421.0823
245.3928, 432.6386
245.8749, 445.7650
246.3570, 457.9766
246.8391, 467.5094
247.3212, 479.1622
247.8034, 495.0056
248.2855, 516.3942
248.7676, 536.2776
249.2497, 553.2445
249.7318, 569.8798
250.2139, 589.9364
250.6961, 613.5262
251.1782, 640.3431
251.6603, 669.4913
252.1424, 699.9689
252.6245, 739.8891
253.1066, 791.3551
253.5888, 850.6317
254.0709, 914.2596
254.5530, 983.8057
255.0351, 1055.060
255.5172, 1128.109
255.9993, 1204.350
256.4815, 1273.535
256.9636, 1342.656
257.4457, 1396.389
257.9278, 1419.072
258.4099, 1412.049
258.8921, 1369.533
259.3742, 1282.056
259.8563, 1149.673
260.3384, 1019.910
260.8205, 889.9930
261.3026, 768.1992
261.7848, 660.9366
262.2669, 569.4290
262.7490, 491.8296
263.2311, 430.0580
263.7132, 383.2559
264.1953, 343.0316
264.6775, 310.0213
265.1596, 283.0653
265.6417, 261.7868
266.1238, 247.2784
266.6059, 234.8928
267.0880, 224.3366
267.5702, 215.3650
268.0523, 206.8435
268.5344, 198.2888
269.0165, 190.9781
269.4986, 186.4068
269.9807, 185.5114
270.4629, 182.7960
270.9450, 176.7894
271.4271, 168.6089
271.9092, 162.9300
272.3913, 160.0452
272.8734, 158.8272
273.3556, 159.1685
273.8377, 161.5224
274.3198, 162.0778
274.8019, 159.7881
275.2840, 155.9832
275.7661, 154.6222
276.2483, 156.2718
276.7304, 158.0058
277.2125, 157.9453
277.6946, 155.9523
278.1768, 154.1618
278.6589, 152.5240
279.1410, 151.3846
279.6231, 151.5536
280.1052, 153.1402
280.5873, 155.3274
281.0695, 158.1598
281.5516, 161.6281
282.0337, 163.3725
282.5158, 162.7596
282.9979, 161.6456
283.4800, 163.5071
283.9622, 168.5066
284.4443, 172.9818
284.9264, 175.0426
285.4085, 174.9566
285.8906, 175.1661
286.3727, 175.6281
286.8549, 176.5301
287.3370, 178.1835
287.8191, 180.5679
288.3012, 183.2940
288.7833, 186.1170
289.2654, 189.1438
289.7476, 193.0204
290.2297, 197.8372
290.7118, 202.8033
291.1939, 207.0901
291.6760, 210.7536
292.1581, 214.2997
292.6403, 217.5616
293.1224, 220.9736
293.6045, 226.0026
294.0866, 232.6187
294.5687, 239.2876
295.0508, 244.0310
295.5330, 247.6144
296.0151, 252.6079
296.4972, 259.8892
296.9793, 268.6620
297.4614, 277.5603
297.9435, 286.6466
298.4257, 295.8645
298.9078, 304.4971
299.3899, 313.2505
299.8720, 323.2709
300.3541, 334.6677
300.8362, 347.8730
301.3184, 363.2150
301.8005, 380.8667
302.2826, 400.8613
302.7647, 423.5800
303.2469, 448.6569
303.7290, 475.9504
304.2111, 505.0902
304.6932, 537.0133
305.1753, 571.3013
305.6574, 608.6249
306.1396, 649.2857
306.6217, 696.3630
307.1038, 745.8394
307.5859, 792.6405
308.0680, 836.4207
308.5501, 882.2930
309.0323, 935.9442
309.5144, 994.0760
309.9965, 1051.206
310.4786, 1103.852
310.9607, 1156.222
311.4428, 1212.829
311.9250, 1273.288
312.4071, 1332.296
312.8892, 1380.984
313.3713, 1427.362
313.8534, 1480.316
314.3355, 1546.356
314.8177, 1615.888
315.2998, 1683.340
315.7819, 1749.375
316.2640, 1819.709
316.7461, 1896.111
317.2282, 1977.424
317.7104, 2063.369
318.1925, 2152.231
318.6746, 2248.027
319.1567, 2353.730
319.6388, 2468.038
320.1209, 2584.712
320.6031, 2702.704
321.0852, 2821.894
321.5673, 2945.413
322.0494, 3081.179
322.5315, 3203.478
323.0136, 3312.197
323.4958, 3403.412
323.9779, 3470.720
324.4600, 3513.108
324.9421, 3531.608
325.4242, 3527.729
325.9064, 3503.664
326.3885, 3448.980
326.8706, 3353.596
327.3527, 3231.128
327.8348, 3094.853
328.3170, 2935.935
328.7991, 2772.201
329.2812, 2604.451
329.7633, 2431.577
330.2454, 2267.092
330.7275, 2113.701
331.2097, 1968.169
331.6918, 1828.366
332.1739, 1690.267
332.6560, 1563.606
333.1381, 1453.140
333.6202, 1356.167
334.1024, 1264.412
334.5845, 1178.380
335.0666, 1098.350
335.5487, 1024.754
336.0308, 959.3783
336.5129, 897.2179
336.9951, 836.8661
337.4772, 780.8030
337.9593, 732.2065
338.4414, 692.4362
338.9235, 655.9423
339.4056, 620.0934
339.8878, 585.0656
340.3699, 552.3188
340.8520, 521.2312
341.3341, 493.3980
341.8162, 470.6645
342.2983, 453.6112
342.7805, 437.3919
343.2626, 420.7879
343.7447, 403.8381
344.2268, 387.2832
344.7089, 370.7815
345.1910, 355.7044
345.6732, 344.4299
346.1553, 336.2919
346.6374, 326.9901
347.1195, 314.9847
347.6016, 301.9715
348.0837, 291.2102
348.5659, 282.5592
349.0480, 275.1319
349.5301, 269.2936
350.0122, 264.2130
350.4944, 257.6459
350.9765, 248.9398
351.4586, 240.0747
351.9407, 233.6670
352.4228, 229.2677
352.9049, 225.3860
353.3871, 221.4232
353.8692, 217.4696
354.3513, 213.6536
354.8334, 209.9828
355.3155, 206.3844
355.7976, 202.3632
356.2798, 198.4130
356.7619, 195.2920
357.2440, 194.3561
357.7261, 193.5499
358.2082, 191.1266
358.6903, 187.3128
359.1725, 183.6909
359.6546, 181.2122
360.1367, 179.2597
360.6188, 177.3532
361.1009, 175.5683
361.5830, 173.5425
362.0652, 170.7191
362.5473, 167.5139
363.0294, 164.9512
363.5115, 163.5406
363.9936, 162.7306
364.4757, 162.3273
364.9579, 162.4005
365.4400, 162.5582
365.9221, 163.1228
366.4042, 163.6082
366.8863, 163.3978
367.3684, 161.0690
367.8506, 159.3933
368.3327, 159.4407
368.8148, 161.4402
369.2969, 162.3993
369.7790, 160.2572
370.2611, 158.5071
370.7433, 159.6780
371.2254, 165.8993
371.7075, 171.6732
372.1896, 176.5797
372.6717, 180.7409
373.1538, 184.3642
373.6360, 186.4986
374.1181, 189.6185
374.6002, 194.8149
375.0823, 202.2629
375.5645, 211.0760
376.0466, 220.6234
376.5287, 232.0979
377.0108, 247.6789
377.4929, 267.3649
377.9750, 289.7819
378.4572, 314.0375
378.9393, 340.3631
379.4214, 371.1636
379.9035, 407.0176
380.3856, 443.8623
380.8677, 477.0470
381.3499, 506.8298
381.8320, 536.6638
382.3141, 568.2604
382.7962, 599.5648
383.2783, 626.4526
383.7604, 649.0050
384.2426, 670.5980
384.7247, 692.4812
385.2068, 715.1091
385.6889, 740.8917
386.1710, 770.1964
386.6531, 801.4301
387.1353, 832.1929
387.6174, 863.6543
388.0995, 898.9946
388.5816, 938.2821
389.0637, 983.3657
389.5458, 1036.753
390.0280, 1098.887
390.5101, 1167.672
390.9922, 1240.354
391.4743, 1319.244
391.9564, 1408.386
392.4385, 1514.246
392.9207, 1623.558
393.4028, 1728.782
393.8849, 1830.998
394.3670, 1934.304
394.8491, 2052.754
395.3312, 2162.440
395.8134, 2253.322
396.2955, 2330.107
396.7776, 2370.896
397.2597, 2376.271
397.7418, 2341.402
398.2239, 2259.088
398.7061, 2096.835
399.1882, 1919.416
399.6703, 1733.639
400.1524, 1538.526
400.6346, 1358.362
401.1167, 1192.042
401.5988, 1043.515
402.0809, 916.3400
402.5630, 814.2713
403.0451, 726.1908
403.5273, 653.7735
404.0094, 594.6920
404.4915, 544.2996
404.9736, 504.2201
405.4557, 468.6502
405.9378, 434.5627
406.4200, 401.6673
406.9021, 373.9709
407.3842, 352.4885
407.8663, 334.4730
408.3484, 316.5833
408.8305, 298.7227
409.3127, 282.9831
409.7948, 270.2975
410.2769, 259.9172
410.7590, 250.2039
411.2411, 241.1237
411.7232, 232.4542
412.2054, 223.3208
412.6875, 214.2990
413.1696, 207.6174
413.6517, 203.9425
414.1338, 201.1251
414.6159, 196.6951
415.0981, 191.1234
415.5802, 185.7219
416.0623, 180.9060
416.5444, 176.7425
417.0265, 173.7639
417.5086, 171.9281
417.9908, 169.8948
418.4729, 166.7183
418.9550, 162.9473
419.4371, 159.2003
419.9192, 155.3935
420.4013, 151.9016
420.8835, 148.8852
421.3656, 146.3167
421.8477, 144.0549
422.3298, 142.4855
422.8119, 140.9057
423.2940, 138.9066
423.7762, 136.2490
424.2583, 133.8544
424.7404, 131.7570
425.2225, 130.0361
425.7047, 128.7210
426.1868, 128.0354
426.6689, 127.4925
427.1510, 127.1562
427.6331, 126.9755
428.1152, 126.3556
428.5974, 125.2339
429.0795, 123.7497
429.5616, 121.8410
430.0437, 119.3008
430.5258, 117.2198
431.0079, 115.6422
431.4901, 114.5668
431.9722, 114.1708
432.4543, 114.5348
432.9364, 114.7658
433.4185, 114.5430
433.9006, 113.9075
434.3828, 112.8913
434.8649, 111.4524
435.3470, 110.1483
435.8291, 109.5689
436.3112, 109.5490
436.7933, 109.6119
437.2755, 109.7529
437.7576, 109.7537
438.2397, 109.4031
438.7218, 108.6943
439.2039, 107.6010
439.6860, 105.3255
440.1682, 103.0845
440.6503, 102.2663
441.1324, 102.9719
441.6145, 104.2088
442.0966, 106.4784
442.5787, 108.5293
443.0609, 108.9965
443.5430, 105.3650
444.0251, 102.3088
444.5072, 102.0536
444.9893, 103.8377
445.4714, 104.8919
445.9536, 103.3969
446.4357, 102.0470
446.9178, 102.3420
447.3999, 105.6901
447.8820, 107.0161
448.3641, 104.4709
448.8463, 100.8742
449.3284, 99.32083
449.8105, 101.2319
450.2926, 102.6303
450.7747, 102.8147
451.2569, 101.9289
451.7390, 100.7640
452.2211, 99.11872
452.7032, 97.66948
453.1853, 96.89052
453.6674, 96.81483
454.1496, 96.75816
454.6317, 96.78420
455.1138, 96.58208
455.5959, 95.13796
456.0780, 92.64735
456.5602, 91.53407
457.0423, 93.41466
457.5244, 96.70918
458.0065, 98.42195
458.4886, 98.60276
458.9707, 97.94930
459.4529, 96.54214
459.9350, 94.74881
460.4171, 93.07733
460.8992, 91.49110
461.3813, 90.37164
461.8634, 90.26682
462.3456, 90.78554
462.8277, 91.26935
463.3098, 91.85737
463.7919, 91.99240
464.2740, 90.67539
464.7561, 88.10628
465.2383, 87.11215
465.7204, 90.43838
466.2025, 94.30887
466.6846, 96.30482
467.1667, 94.66600
467.6488, 93.54587
468.1310, 93.67254
468.6131, 94.30855
469.0952, 94.24426
469.5773, 92.97102
470.0594, 91.82771
470.5415, 91.27483
471.0237, 91.27388
471.5058, 90.47434
471.9879, 88.43236
472.4700, 86.58136
472.9521, 86.17632
473.4342, 87.29305
473.9164, 88.24218
474.3985, 88.87987
474.8806, 89.29073
475.3627, 89.64418
475.8448, 89.92614
476.3270, 89.97867
476.8091, 89.51527
477.2912, 88.86595
477.7733, 88.95773
478.2554, 89.71669
478.7375, 90.01710
479.2197, 88.17857
479.7018, 85.63910
480.1839, 84.49196
480.6660, 85.47919
481.1481, 86.96532
481.6302, 88.02464
482.1124, 88.84001
482.5945, 89.72083
483.0766, 91.51192
483.5587, 92.72498
484.0408, 92.47684
484.5229, 90.79568
485.0051, 89.12758
485.4872, 87.29244
485.9693, 85.85720
486.4514, 85.20493
486.9335, 85.81174
487.4156, 86.35326
487.8978, 86.84543
488.3799, 87.26285
488.8620, 87.47078
489.3441, 87.12399
489.8262, 87.52621
490.3083, 89.52281
490.7905, 92.68840
491.2726, 93.51432
491.7547, 91.62224
492.2368, 89.28645
492.7189, 87.99782
493.2010, 87.69936
493.6832, 88.22337
494.1653, 89.62951
494.6474, 91.56870
495.1295, 94.21607
495.6116, 97.13953
496.0938, 99.03571
496.5759, 99.12402
497.0580, 98.16615
497.5401, 96.34610
498.0222, 93.93315
498.5044, 92.39205
498.9865, 92.88263
499.4686, 94.36179
499.9507, 96.14868
500.4328, 98.29206
500.9149, 100.1402
501.3971, 101.9123
501.8792, 103.1206
502.3613, 103.2159
502.8434, 100.2459
503.3255, 98.27303
503.8076, 98.34632
504.2898, 100.0484
504.7719, 101.4729
505.2540, 102.3208
505.7361, 103.3263
506.2182, 104.9144
506.7003, 107.2365
507.1825, 109.0657
507.6646, 110.2954
508.1467, 111.2616
508.6288, 112.2810
509.1109, 113.3543
509.5930, 114.5745
510.0752, 116.0899
510.5573, 117.5735
511.0394, 117.9682
511.5215, 117.5302
512.0037, 117.8739
512.4858, 120.9217
512.9679, 124.8422
513.4500, 126.3095
513.9321, 125.2732
514.4142, 125.4429
514.8964, 130.9218
515.3785, 138.3097
515.8606, 143.7997
516.3427, 145.4268
516.8248, 147.0165
517.3069, 150.2109
517.7891, 154.3574
518.2712, 158.2625
518.7533, 160.4825
519.2354, 163.5977
519.7175, 168.7696
520.1996, 175.9554
520.6818, 182.2928
521.1639, 187.1314
521.6460, 191.9471
522.1281, 197.2746
522.6102, 202.7292
523.0923, 210.4978
523.5745, 221.2651
524.0566, 233.3714
524.5387, 244.1776
525.0208, 253.7281
525.5029, 264.4540
525.9850, 277.6099
526.4672, 291.8884
526.9493, 304.3871
527.4314, 315.4527
527.9135, 327.0301
528.3956, 340.1094
528.8777, 354.8414
529.3599, 371.8938
529.8420, 391.6478
530.3241, 410.8939
530.8062, 427.2055
531.2883, 442.3026
531.7704, 457.6322
532.2526, 472.9177
532.7347, 489.7760
533.2168, 509.9648
533.6989, 532.0870
534.1810, 553.4196
534.6631, 572.2075
535.1453, 591.4473
535.6274, 611.5287
536.1095, 632.7234
536.5916, 654.2163
537.0737, 676.5587
537.5558, 698.7220
538.0380, 720.1305
538.5201, 741.0334
539.0022, 760.9351
539.4843, 779.7198
539.9664, 797.1495
540.4485, 812.3670
540.9307, 825.3912
541.4128, 837.2484
541.8949, 849.6810
542.3770, 859.5062
542.8591, 861.0415
543.3412, 854.9803
543.8234, 845.3093
544.3055, 833.7274
544.7876, 820.1100
545.2697, 804.9193
545.7518, 788.3353
546.2339, 768.2015
546.7161, 740.5334
547.1982, 710.5527
547.6803, 682.2834
548.1624, 659.8904
548.6445, 635.4211
549.1266, 606.4581
549.6088, 574.9318
550.0909, 544.6473
550.5730, 515.2142
551.0551, 487.5789
551.5372, 462.3708
552.0193, 439.3698
552.5015, 417.6175
552.9836, 397.2072
553.4657, 377.6864
553.9478, 358.3554
554.4299, 339.3876
554.9120, 322.9605
555.3942, 309.5919
555.8763, 297.3622
556.3584, 283.4171
556.8405, 268.9307
557.3226, 257.1404
557.8047, 250.2781
558.2869, 244.5164
558.7690, 236.4191
559.2511, 226.5897
559.7332, 216.6252
560.2154, 205.2317
560.6975, 195.6366
561.1796, 190.5265
561.6617, 190.1072
562.1439, 188.0381
562.6260, 180.9729
563.1081, 173.4866
563.5902, 168.2663
564.0723, 167.1641
564.5544, 164.2547
565.0366, 158.5713
565.5187, 151.9851
566.0008, 147.2220
566.4829, 144.5823
566.9650, 141.8272
567.4471, 138.3797
567.9293, 134.6017
568.4114, 131.1404
568.8935, 128.0390
569.3756, 126.1893
569.8577, 127.5150
570.3398, 129.9571
570.8220, 129.5078
571.3041, 126.2002
571.7862, 122.6360
572.2683, 120.6165
572.7504, 119.2400
573.2325, 117.5134
573.7147, 115.0059
574.1968, 112.8135
574.6789, 111.5831
575.1610, 110.8238
575.6431, 109.8858
576.1252, 107.9202
576.6074, 106.7132
577.0895, 106.9281
577.5716, 108.0962
578.0537, 108.4192
578.5358, 107.7067
579.0179, 106.5781
579.5001, 105.1339
579.9822, 103.4028
580.4643, 102.0515
580.9464, 101.0886
581.4285, 100.4422
581.9106, 99.97112
582.3928, 99.75676
582.8749, 100.2246
583.3570, 101.5828
583.8391, 102.8753
584.3212, 103.2337
584.8033, 102.8725
585.2855, 102.1615
585.7676, 101.1118
586.2497, 99.87819
586.7318, 98.03631
587.2139, 96.01322
587.6960, 95.03075
588.1782, 96.13680
588.6603, 97.61522
589.1424, 99.03305
589.6245, 100.4097
590.1066, 101.3524
590.5887, 101.8170
591.0709, 101.8957
591.5530, 101.2668
592.0351, 99.59750
592.5172, 100.0804
592.9993, 103.3932
593.4814, 107.1744
593.9636, 108.4178
594.4457, 107.4536
594.9278, 105.8753
595.4099, 103.5633
595.8920, 101.7767
596.3741, 102.5585
596.8563, 105.2068
597.3384, 107.9068
597.8205, 110.5011
598.3026, 112.2274
598.7847, 111.7773
599.2668, 109.4994
599.7490, 108.5398
600.2311, 111.4488
600.7132, 114.6116
601.1953, 115.9937
601.6774, 114.8132
602.1595, 114.3982
602.6417, 114.9849
603.1238, 116.0473
603.6059, 117.2358
604.0880, 118.6713
604.5701, 119.5326
605.0522, 119.6478
605.5344, 119.2910
606.0165, 118.7959
606.4986, 118.1954
606.9807, 117.7308
607.4628, 117.5706
607.9449, 117.5262
608.4271, 117.2128
608.9092, 116.7501
609.3913, 116.6149
609.8735, 116.5947
610.3556, 117.3589
610.8377, 120.1247
611.3198, 125.0449
611.8019, 128.2404
612.2841, 127.1972
612.7662, 125.1794
613.2483, 124.3243
613.7304, 125.5169
614.2125, 125.9280
614.6946, 125.2053
615.1768, 124.0787
615.6589, 123.6192
616.1410, 124.0470
616.6231, 123.3143
617.1052, 120.6056
617.5873, 117.2658
618.0695, 116.0298
618.5516, 116.6656
619.0337, 117.9428
619.5158, 119.7673
619.9979, 121.6258
620.4800, 122.8072
620.9622, 123.4069
621.4443, 123.8857
621.9264, 125.0020
622.4085, 125.6885
622.8906, 124.9227
623.3727, 122.2982
623.8549, 120.5486
624.3370, 120.4495
624.8191, 121.2129
625.3012, 122.4309
625.7833, 124.6978
626.2654, 125.9805
626.7476, 126.0104
627.2297, 125.3890
627.7118, 124.8639
628.1939, 124.4361
628.6760, 124.0588
629.1581, 123.6907
629.6403, 123.4233
630.1224, 123.2766
630.6045, 123.3287
631.0866, 123.8689
631.5687, 125.6444
632.0508, 127.5375
632.5330, 128.6136
633.0151, 128.9105
633.4972, 128.6980
633.9793, 127.2571
634.4614, 126.0221
634.9435, 125.7561
635.4257, 126.6474
635.9078, 127.9522
636.3899, 130.0122
636.8720, 132.1030
637.3541, 133.7520
637.8362, 135.0172
638.3184, 135.4591
638.8005, 134.6963
639.2826, 133.9648
639.7647, 135.0696
640.2468, 137.7858
640.7289, 140.6323
641.2111, 143.5359
641.6932, 145.8272
642.1753, 146.3615
642.6574, 145.6465
643.1395, 144.9102
643.6216, 143.5775
644.1038, 143.4168
644.5859, 146.2861
645.0680, 151.4602
645.5501, 155.6058
646.0322, 156.5833
646.5143, 157.7380
646.9965, 160.5201
647.4786, 165.1151
647.9607, 168.3246
648.4428, 169.7916
648.9249, 170.6640
649.4070, 171.4784
649.8892, 172.2516
650.3713, 173.8346
650.8534, 176.3113
651.3355, 179.3875
651.8176, 182.7564
652.2997, 186.4938
652.7819, 191.0085
653.2640, 196.8799
653.7461, 202.1306
654.2282, 204.0294
654.7103, 204.6138
655.1924, 206.9043
655.6746, 214.6211
656.1567, 221.0699
656.6388, 223.0899
657.1209, 222.5148
657.6030, 224.5296
658.0851, 230.7938
658.5673, 236.6721
659.0494, 240.5711
659.5316, 242.9437
660.0137, 246.4932
660.4958, 251.2201
660.9779, 256.7547
661.4600, 263.6819
661.9421, 271.1685
662.4243, 276.6721
662.9064, 280.1876
663.3885, 284.1161
663.8706, 290.1128
664.3527, 297.4580
664.8348, 305.4510
665.3170, 313.9631
665.7991, 323.1845
666.2812, 333.7973
666.7633, 344.8170
667.2454, 355.2640
667.7275, 363.5480
668.2097, 373.8687
668.6918, 386.8477
669.1739, 401.5120
669.6560, 417.0188
670.1381, 433.6381
670.6202, 447.6742
671.1024, 456.6371
671.5845, 464.8319
672.0666, 479.4429
672.5487, 499.9708
673.0308, 524.4522
673.5129, 556.0635
673.9951, 587.6892
674.4772, 610.3819
674.9593, 626.8590
675.4414, 648.5045
675.9235, 680.7303
676.4056, 718.2359
676.8878, 759.2848
677.3699, 804.1721
677.8520, 849.2715
678.3341, 892.9246
678.8162, 938.7191
679.2983, 986.8490
679.7805, 1036.546
680.2626, 1098.172
680.7447, 1172.521
681.2268, 1251.764
681.7089, 1325.359
682.1910, 1397.550
682.6732, 1477.932
683.1553, 1568.645
683.6374, 1663.824
684.1195, 1762.421
684.6016, 1861.893
685.0837, 1960.668
685.5659, 2053.577
686.0480, 2150.761
686.5301, 2255.425
687.0122, 2366.608
687.4943, 2482.785
687.9764, 2605.487
688.4586, 2729.706
688.9407, 2855.970
689.4228, 2983.633
689.9049, 3110.858
690.3870, 3238.593
690.8691, 3371.471
691.3513, 3512.707
691.8334, 3657.286
692.3155, 3801.485
692.7976, 3942.991
693.2797, 4073.965
693.7618, 4192.868
694.2440, 4296.848
694.7261, 4387.256
695.2082, 4462.525
695.6903, 4516.668
696.1724, 4550.095
696.6545, 4559.612
697.1367, 4546.726
697.6188, 4513.814
698.1009, 4442.400
698.5830, 4327.343
699.0651, 4185.458
699.5472, 4023.594
700.0294, 3843.452
700.5115, 3659.204
700.9936, 3471.585
701.4757, 3281.393
701.9578, 3083.779
702.4399, 2886.328
702.9221, 2696.833
703.4042, 2516.050
703.8863, 2346.020
704.3684, 2191.421
704.8505, 2048.271
705.3326, 1912.708
705.8148, 1782.578
706.2969, 1662.226
706.7790, 1552.931
707.2611, 1453.750
707.7432, 1366.067
708.2253, 1290.203
708.7075, 1221.193
709.1896, 1158.579
709.6718, 1100.885
710.1539, 1045.630
710.6360, 993.4120
711.1181, 945.6179
711.6002, 904.0163
712.0823, 866.4217
712.5645, 831.0397
713.0466, 797.6310
713.5287, 766.1060
714.0108, 735.8130
714.4929, 707.4815
714.9750, 681.3461
715.4572, 657.1221
715.9393, 636.0341
716.4214, 619.0409
716.9035, 602.7776
717.3856, 585.3763
717.8677, 566.9446
718.3499, 551.5948
718.8320, 539.1970
719.3141, 527.6823
719.7962, 515.1269
720.2783, 502.4401
720.7604, 491.2773
721.2426, 481.9182
721.7247, 471.5405
722.2068, 456.0781
722.6889, 440.6523
723.1710, 429.2504
723.6531, 424.0859
724.1353, 418.9063
724.6174, 413.5419
725.0995, 408.0123
725.5816, 402.1777
726.0637, 396.0394
726.5458, 390.2898
727.0280, 385.1439
727.5101, 379.6478
727.9922, 371.8904
728.4743, 362.7976
728.9564, 354.8488
729.4385, 348.8124
729.9207, 343.9452
730.4028, 340.1133
730.8849, 336.9405
731.3670, 333.9661
731.8491, 332.2074
732.3312, 329.2396
732.8134, 323.4729
733.2955, 316.5796
733.7776, 311.3886
734.2597, 308.4661
734.7418, 305.3680
735.2239, 301.3925
735.7061, 297.2307
736.1882, 294.8947
736.6703, 294.0730
737.1524, 292.4614
737.6345, 288.6636
738.1166, 284.0681
738.5988, 279.6834
739.0809, 275.7216
739.5630, 272.7885
740.0451, 273.1860
740.5272, 272.6031
741.0093, 268.2124
741.4915, 260.8200
741.9736, 255.8369
742.4557, 253.9924
742.9378, 253.2144
743.4199, 253.1711
743.9020, 253.5924
744.3842, 252.8360
744.8663, 250.8931
745.3484, 248.6050
745.8305, 245.6998
746.3126, 243.1242
746.7947, 243.0459
747.2769, 245.1281
747.7590, 246.3192
748.2411, 244.6131
748.7232, 241.8148
749.2053, 238.4461
749.6874, 234.3149
750.1696, 232.2607
750.6517, 233.7650
751.1338, 235.3332
751.6159, 234.7481
752.0980, 231.8657
752.5801, 230.7136
753.0623, 231.5524
753.5444, 231.9545
754.0265, 228.8125
754.5086, 224.0568
754.9907, 221.6964
755.4728, 222.1986
755.9550, 223.0511
756.4371, 223.2973
756.9192, 222.8044
757.4013, 221.1518
757.8835, 217.2312
758.3656, 215.2963
758.8477, 216.9571
759.3298, 219.0949
759.8120, 219.0788
760.2941, 216.6269
760.7762, 214.3551
761.2583, 212.3069
761.7404, 210.7663
762.2225, 210.0680
762.7047, 210.1044
763.1868, 210.7347
763.6689, 212.0298
764.1510, 213.4766
764.6331, 215.5504
765.1152, 217.1989
765.5974, 217.2017
766.0795, 213.0197
766.5616, 210.9231
767.0437, 212.3995
767.5258, 215.0791
768.0079, 216.1934
768.4901, 215.5557
768.9722, 214.7020
769.4543, 213.5556
769.9364, 213.0526
770.4185, 215.4427
770.9006, 219.4764
771.3828, 221.7350
771.8649, 220.3658
772.3470, 218.9727
772.8291, 220.9570
773.3112, 224.0494
773.7933, 225.1121
774.2755, 220.3962
774.7576, 217.7738
775.2397, 218.8221
775.7218, 221.6018
776.2039, 222.7915
776.6860, 222.0783
777.1682, 222.9730
777.6503, 226.9369
778.1324, 231.1337
778.6145, 229.9491
779.0966, 225.3462
779.5787, 222.7017
780.0609, 225.4111
780.5430, 228.3742
781.0251, 228.0313
781.5072, 225.9386
781.9893, 224.9387
782.4714, 226.5889
782.9536, 228.0241
783.4357, 228.7730
783.9178, 229.2337
784.3999, 230.3353
784.8820, 232.1448
785.3641, 233.7627
785.8463, 235.0249
786.3284, 235.8601
786.8105, 235.6726
787.2926, 234.9444
787.7747, 234.8787
788.2568, 237.4462
788.7390, 239.2729
789.2211, 237.3262
789.7032, 233.5116
790.1853, 232.5005
790.6674, 236.8815
791.1495, 240.6827
791.6317, 243.1721
792.1138, 244.3132
792.5959, 243.2384
793.0780, 239.9590
793.5601, 238.0263
794.0422, 238.9891
794.5244, 241.4210
795.0065, 244.0835
795.4886, 246.6206
795.9707, 248.1036
796.4528, 247.5280
796.9349, 246.5107
797.4171, 245.4103
797.8992, 244.3595
798.3813, 243.6301
798.8634, 242.8236
799.3455, 243.2815
799.8276, 245.7355
800.3098, 249.2148
800.7919, 251.3675
801.2740, 252.3018
801.7561, 252.8395
802.2382, 252.9552
802.7203, 253.2591
803.2025, 254.6445
803.6846, 256.7211
804.1667, 258.6083
804.6488, 259.9223
805.1309, 261.0748
805.6130, 261.7272
806.0952, 262.3770
806.5773, 264.4140
807.0594, 268.5107
807.5416, 271.6494
808.0237, 272.8716
808.5058, 272.9763
808.9879, 273.2186
809.4700, 273.7517
809.9521, 275.2387
810.4343, 278.4481
810.9164, 282.1015
811.3985, 285.6267
811.8806, 288.8300
812.3627, 291.3062
812.8448, 292.7265
813.3270, 293.6275
813.8091, 293.8123
814.2912, 293.6883
814.7733, 293.9698
815.2554, 294.6017
815.7375, 296.3185
816.2197, 299.6236
816.7018, 303.5858
817.1839, 306.4329
817.6660, 308.6727
818.1481, 311.4969
818.6302, 316.7551
819.1124, 320.9753
819.5945, 321.3659
820.0766, 319.8863
820.5587, 320.4142
821.0408, 324.0792
821.5229, 327.9602
822.0051, 331.8475
822.4872, 335.6287
822.9693, 339.1397
823.4514, 342.4118
823.9335, 345.6529
824.4156, 349.0636
824.8978, 352.2117
825.3799, 354.1503
825.8620, 355.7195
826.3441, 358.2627
826.8262, 362.6721
827.3083, 367.5047
827.7905, 372.9800
828.2726, 378.4653
828.7547, 383.1184
829.2368, 386.4967
829.7189, 390.3280
830.2010, 394.4263
830.6832, 400.0079
831.1653, 411.4249
831.6474, 425.6967
832.1295, 434.1442
832.6116, 432.3659
833.0938, 430.6730
833.5759, 435.3406
834.0580, 443.9932
834.5401, 453.9743
835.0222, 467.1562
835.5043, 478.1058
835.9865, 485.6104
836.4686, 492.4142
836.9507, 501.0695
837.4328, 511.5972
837.9149, 525.2310
838.3970, 542.7325
838.8792, 560.0397
839.3613, 572.1735
839.8434, 581.9882
840.3255, 592.9603
840.8076, 605.5717
841.2897, 620.1356
841.7719, 637.6542
842.2540, 656.4396
842.7361, 675.0447
843.2182, 692.9824
843.7003, 712.9675
844.1824, 735.1899
844.6646, 758.0665
845.1467, 779.1793
845.6288, 799.8961
846.1109, 823.6155
846.5930, 850.6185
847.0751, 880.4229
847.5573, 914.9724
848.0394, 950.4982
848.5215, 984.3839
849.0036, 1015.943
849.4857, 1048.142
849.9678, 1080.066
850.4500, 1114.296
850.9321, 1152.469
851.4142, 1194.681
851.8963, 1240.304
852.3784, 1289.461
852.8605, 1340.056
853.3427, 1390.377
853.8248, 1440.920
854.3069, 1490.530
854.7890, 1539.809
855.2711, 1594.485
855.7532, 1657.959
856.2354, 1724.164
856.7175, 1790.208
857.1996, 1856.301
857.6818, 1927.727
858.1639, 2004.663
858.6460, 2087.679
859.1281, 2179.245
859.6102, 2276.611
860.0923, 2373.104
860.5745, 2471.497
861.0566, 2577.900
861.5387, 2694.836
862.0208, 2822.127
862.5029, 2960.584
862.9850, 3110.941
863.4672, 3271.884
863.9493, 3440.584
864.4314, 3630.557
864.9135, 3846.800
865.3956, 4087.046
865.8777, 4340.574
866.3599, 4615.866
866.8420, 4930.326
867.3241, 5295.677
867.8062, 5703.594
868.2883, 6140.754
868.7704, 6620.560
869.2526, 7156.243
869.7347, 7760.302
870.2168, 8413.221
870.6989, 9108.745
871.1810, 9840.673
871.6631, 10615.90
872.1453, 11429.29
872.6274, 12243.67
873.1095, 13049.33
873.5916, 13863.05
874.0737, 14678.84
874.5558, 15510.25
875.0380, 16382.27
875.5201, 17290.50
876.0022, 18259.38
876.4843, 19268.48
876.9664, 20358.75
877.4485, 21563.74
877.9307, 22896.11
878.4128, 24291.38
878.8949, 25756.57
879.3770, 27277.84
879.8591, 28886.41
880.3412, 30525.03
880.8234, 32148.04
881.3055, 33749.99
881.7876, 35167.70
882.2697, 36423.55
882.7518, 37401.21
883.2339, 38096.16
883.7161, 38507.14
884.1982, 38362.71
884.6803, 37647.86
885.1624, 36428.74
885.6445, 34639.10
886.1266, 32424.52
886.6088, 29979.88
887.0909, 27346.80
887.5730, 24756.60
888.0551, 22203.34
888.5372, 19815.25
889.0193, 17633.21
889.5015, 15680.52
889.9836, 13960.63
890.4657, 12485.51
890.9478, 11182.02
891.4299, 10042.24
891.9120, 9054.831
892.3942, 8194.076
892.8763, 7445.022
893.3584, 6784.780
893.8405, 6203.933
894.3226, 5684.249
894.8047, 5228.995
895.2869, 4825.473
895.7690, 4460.237
896.2511, 4145.511
896.7332, 3850.598
897.2153, 3578.279
897.6974, 3329.823
898.1796, 3116.336
898.6617, 2933.082
899.1438, 2759.690
899.6259, 2592.558
900.1080, 2438.510
900.5901, 2307.632
901.0723, 2189.438
901.5544, 2071.328
902.0365, 1951.117
902.5186, 1846.165
903.0007, 1764.477
903.4828, 1689.333
903.9650, 1611.421
904.4471, 1531.825
904.9292, 1461.533
905.4113, 1399.509
905.8935, 1342.428
906.3756, 1288.509
906.8577, 1238.008
907.3398, 1192.885
907.8220, 1152.047
908.3041, 1112.410
908.7862, 1070.508
909.2683, 1032.191
909.7504, 999.6863
910.2325, 970.8719
910.7147, 940.0638
911.1968, 907.1009
911.6789, 877.0629
912.1610, 852.3597
912.6431, 829.5515
913.1252, 804.6922
913.6074, 779.2692
914.0895, 755.5221
914.5716, 733.8323
915.0537, 714.4589
915.5358, 698.0349
916.0179, 683.0220
916.5001, 667.7411
916.9822, 652.1398
917.4643, 637.5403
917.9464, 624.1052
918.4285, 610.8464
918.9106, 596.8537
919.3928, 582.6981
919.8749, 568.7057
920.3570, 554.9065
920.8391, 542.2232
921.3212, 532.2098
921.8033, 522.0271
922.2855, 509.9814
922.7676, 496.4332
923.2497, 485.7347
923.7318, 477.9460
924.2139, 471.8111
924.6960, 468.4809
925.1782, 464.9636
925.6603, 456.4871
926.1424, 444.6587
926.6245, 433.8004
927.1066, 424.7435
927.5887, 418.0807
928.0709, 415.6600
928.5530, 414.3148
929.0351, 407.2585
929.5172, 394.1092
929.9993, 384.8643
930.4814, 382.3335
930.9636, 380.8796
931.4457, 373.1633
931.9278, 362.8832
932.4099, 355.2414
932.8920, 352.2234
933.3741, 349.2480
933.8563, 344.1318
934.3384, 339.8931
934.8205, 339.2913
935.3026, 342.6131
935.7847, 342.3168
936.2668, 338.2823
936.7490, 333.2266
937.2311, 328.9319
937.7132, 324.8208
938.1953, 319.9576
938.6774, 314.5420
939.1595, 310.2833
939.6417, 308.8021
940.1238, 307.2469
940.6059, 304.8860
941.0880, 301.9625
941.5701, 299.3047
942.0522, 296.8853
942.5344, 293.5102
943.0165, 288.1509
943.4986, 282.9954
943.9807, 281.0032
944.4628, 280.5628
944.9449, 279.2420
945.4271, 274.9751
945.9092, 272.3424
946.3913, 272.5534
946.8734, 273.3311
947.3555, 272.4131
947.8376, 269.9259
948.3198, 268.0356
948.8019, 266.8997
949.2840, 265.3050
949.7661, 261.4173
950.2482, 257.2438
950.7303, 255.0611
951.2125, 254.9685
951.6946, 253.4196
952.1767, 248.5931
952.6588, 244.7401
953.1409, 243.8422
953.6230, 244.6828
954.1052, 242.8683
954.5873, 238.8122
955.0695, 235.0883
955.5516, 232.8494
956.0337, 231.2042
956.5158, 230.0018
956.9979, 228.8066
957.4800, 226.8555
957.9622, 223.6175
958.4443, 220.3414
958.9264, 216.6800
959.4085, 213.7729
959.8906, 213.5207
960.3727, 215.1018
960.8549, 215.5942
961.3370, 214.7036
961.8191, 212.8964
962.3012, 209.3507
962.7833, 205.8977
963.2654, 203.9731
963.7476, 203.6370
964.2297, 203.4597
964.7118, 203.6443
965.1939, 203.3078
965.6760, 201.9481
966.1581, 199.9362
966.6403, 197.8156
967.1224, 195.7013
967.6045, 193.8662
968.0866, 192.8567
968.5687, 191.6858
969.0508, 189.6763
969.5330, 187.4468
970.0151, 185.8007
970.4972, 184.8192
970.9793, 184.1667
971.4614, 183.8998
971.9435, 183.5703
972.4257, 182.4215
972.9078, 181.0214
973.3899, 180.4027
973.8720, 180.7321
974.3541, 180.6003
974.8362, 179.0552
975.3184, 177.3783
975.8005, 176.0556
976.2826, 175.0759
976.7647, 174.7239
977.2468, 174.9896
977.7289, 174.6663
978.2111, 172.3399
978.6932, 170.2265
979.1753, 171.8711
979.6574, 175.2792
980.1395, 176.6706
980.6216, 173.2048
981.1038, 170.2498
981.5859, 168.2516
982.0680, 166.7613
982.5501, 165.3957
983.0322, 164.1227
983.5143, 162.7925
983.9965, 161.3878
984.4786, 159.8208
984.9607, 157.6112
985.4428, 155.5379
985.9249, 154.3331
986.4070, 154.0711
986.8892, 153.5533
987.3713, 152.8719
987.8534, 151.6333
988.3355, 149.4884
988.8176, 146.8967
989.2997, 145.0593
989.7819, 143.6656
990.2640, 141.7555
990.7461, 138.3424
991.2282, 135.3000
991.7103, 133.6820
992.1924, 132.6845
992.6746, 131.3120
993.1567, 129.3578
993.6388, 128.2951
994.1209, 128.3598
994.6030, 128.1920
995.0851, 125.9327
995.5673, 123.0434
996.0494, 121.4881
996.5315, 121.3320
997.0136, 121.5845
997.4957, 123.1456
997.9778, 123.5242
998.4600, 121.5095
998.9421, 118.0729
999.4242, 116.3070
999.9063, 116.0535
1000.388, 115.6010
1000.871, 114.3024
1001.353, 112.8766
1001.835, 111.5308
1002.317, 110.6272
1002.799, 110.6707
1003.281, 112.2393
1003.763, 113.6177
1004.245, 114.9217
1004.728, 115.7896
1005.210, 115.8291
1005.692, 115.2350
1006.174, 114.7193
1006.656, 114.2122
1007.138, 113.1409
1007.620, 110.0459
1008.102, 107.5241
1008.584, 106.9384
1009.067, 107.7801
1009.549, 109.0328
1010.031, 110.7506
1010.513, 112.8382
1010.995, 115.6416
1011.477, 117.4630
1011.959, 114.6121
1012.441, 110.1705
1012.924, 108.7541
1013.406, 112.0493
1013.888, 114.3305
1014.370, 114.1962
1014.852, 113.5453
1015.334, 113.2976
1015.816, 113.3596
1016.298, 113.2155
1016.780, 112.8587
1017.263, 112.2290
1017.745, 110.6883
1018.227, 109.4842
1018.709, 109.9145
1019.191, 111.1256
1019.673, 111.2676
1020.155, 109.2882
1020.637, 109.4182
1021.120, 112.5397
1021.602, 115.9418
1022.084, 116.7268
1022.566, 115.6352
1023.048, 113.4846
1023.530, 110.3985
1024.012, 108.3480
1024.494, 109.4262
1024.976, 110.2962
1025.458, 109.2553
1025.941, 107.0323
1026.423, 106.9349
1026.905, 108.8357
1027.387, 110.4324
1027.869, 110.8595
1028.351, 110.7974
1028.833, 111.0886
1029.316, 111.1650
1029.798, 110.1277
1030.280, 106.4867
1030.762, 105.1631
1031.244, 106.8835
1031.726, 109.1137
1032.208, 110.0467
1032.690, 110.0127
1033.172, 109.6148
1033.655, 108.9931
1034.137, 108.7919
1034.619, 109.4007
1035.101, 110.4573
1035.583, 112.6076
1036.065, 114.7137
1036.547, 114.2885
1037.029, 111.2371
1037.511, 108.4989
1037.994, 106.4501
1038.476, 105.5567
1038.958, 107.1721
1039.440, 109.6630
1039.922, 111.4598
1040.404, 112.3612
1040.886, 112.3833
1041.368, 111.0081
1041.851, 110.0061
1042.333, 110.2661
1042.815, 111.2851
1043.297, 112.0192
1043.779, 112.3996
1044.261, 112.1226
1044.743, 110.2993
1045.225, 109.0308
1045.708, 109.3007
1046.190, 110.4271
1046.672, 111.9478
1047.154, 113.9547
1047.636, 115.2033
1048.118, 115.6375
1048.600, 116.1394
1049.082, 118.1484
1049.564, 119.9596
1050.047, 119.3808
1050.529, 116.9645
1051.011, 115.6309
1051.493, 116.4641
1051.975, 116.5448
1052.457, 115.0257
1052.939, 113.2151
1053.421, 113.4544
1053.903, 114.9307
1054.386, 115.7160
1054.868, 115.3909
1055.350, 114.9912
1055.832, 114.8746
1056.314, 114.9644
1056.796, 115.5930
1057.278, 116.4854
1057.760, 114.4674
1058.243, 109.7287
1058.725, 107.4550
1059.207, 111.5015
1059.689, 116.3448
1060.171, 116.5194
1060.653, 114.5775
1061.135, 114.3389
1061.617, 117.9068
1062.099, 119.1693
1062.582, 117.6121
1063.064, 115.3597
1063.546, 113.8342
1064.028, 112.9473
1064.510, 112.6785
1064.992, 112.9368
1065.474, 113.2663
1065.956, 113.0633
1066.438, 113.5150
1066.921, 115.2433
1067.403, 117.4224
1067.885, 118.6658
1068.367, 119.0577
1068.849, 119.3504
1069.331, 119.6867
1069.813, 119.6660
1070.295, 118.1590
1070.778, 116.8473
1071.260, 117.4817
1071.742, 119.9074
1072.224, 120.9925
1072.706, 120.4945
1073.188, 120.1348
1073.670, 120.6466
1074.152, 121.3730
1074.635, 121.2970
1075.117, 120.8481
1075.599, 120.8056
1076.081, 121.9941
1076.563, 121.8975
1077.045, 119.4989
1077.527, 117.3837
1078.009, 118.0647
1078.491, 120.4565
1078.974, 119.7049
1079.456, 116.4529
1079.938, 113.9872
1080.420, 114.4401
1080.902, 115.3538
1081.384, 115.8407
1081.866, 116.2154
1082.348, 117.1123
1082.831, 118.5927
1083.313, 118.7571
1083.795, 117.4135
1084.277, 115.5871
1084.759, 113.7547
1085.241, 112.1320
1085.723, 111.2284
1086.205, 110.8554
1086.688, 109.2783
1087.170, 105.7633
1087.652, 103.5401
1088.134, 103.7388
1088.616, 104.6092
1089.098, 103.3333
1089.580, 101.0725
1090.062, 99.59454
1090.544, 99.16061
1091.026, 100.0797
1091.509, 104.2554
1091.991, 106.8936
1092.473, 105.0700
1092.955, 100.4043
1093.437, 98.96486
1093.919, 100.0335
1094.401, 100.5681
1094.883, 98.55066
1095.366, 97.13698
1095.848, 99.18755
1096.330, 101.4452
1096.812, 100.5641
1097.294, 96.07617
1097.776, 93.22768
1098.258, 92.04760
1098.740, 91.63170
1099.223, 91.85951
1099.705, 92.14085
1100.187, 91.55687
1100.669, 90.69391
1101.151, 91.30283
1101.633, 94.50587
1102.115, 95.87467
1102.597, 94.84361
1103.079, 92.64195
1103.562, 90.07244
1104.044, 87.45967
1104.526, 85.03313
1105.008, 82.88705
1105.490, 82.10618
1105.972, 84.29707
1106.454, 85.66895
1106.936, 85.06572
1107.418, 83.56208
1107.901, 83.05295
1108.383, 83.35873
1108.865, 84.19502
1109.347, 85.68536
1109.829, 86.53230
1110.311, 84.87580
1110.793, 83.82225
1111.275, 85.62126
1111.758, 89.37180
1112.240, 89.18629
1112.722, 85.53300
1113.204, 82.68706
1113.686, 81.34017
1114.168, 83.09834
1114.650, 94.81328
1115.132, 106.5284
1115.615, 106.4372
1116.097, 91.81586
1116.579, 82.76118
1117.061, 79.57856
1117.543, 78.96173
1118.025, 80.13573
1118.507, 81.74070
1118.989, 82.66078
1119.471, 82.86858
1119.953, 82.10815
1120.436, 78.98627
1120.918, 78.47028
1121.400, 81.57146
1121.882, 84.73347
1122.364, 84.11095
1122.846, 81.48708
1123.328, 79.52629
1123.810, 78.36467
1124.293, 77.87519
1124.775, 78.81260
1125.257, 79.28574
1125.739, 78.82775
1126.221, 78.01305
1126.703, 77.90050
1127.185, 78.13694
1127.667, 77.50197
1128.150, 75.81631
1128.632, 74.35534
1129.114, 73.71733
1129.596, 73.52031
1130.078, 73.95641
1130.560, 74.50410
1131.042, 73.12422
1131.524, 70.19420
1132.006, 68.21605
1132.489, 67.99010
1132.971, 68.12656
1133.453, 67.92705
1133.935, 67.50861
1134.417, 66.76540
1134.899, 65.75523
1135.381, 66.15851
1135.863, 67.97669
1136.346, 68.51031
1136.828, 65.68874
1137.310, 62.81636
1137.792, 63.77687
1138.274, 66.05981
1138.756, 66.04750
1139.238, 62.71165
1139.720, 61.41474
1140.203, 62.46715
1140.685, 63.50615
1141.167, 62.85749
1141.649, 61.51258
1142.131, 60.24326
1142.613, 59.32632
1143.095, 59.38112
1143.577, 61.80151
1144.059, 62.36942
1144.542, 60.26871
1145.024, 58.38162
1145.506, 60.47903
1145.988, 63.97325
1146.470, 63.86788
1146.952, 60.84728
1147.434, 58.64250
1147.916, 58.38771
1148.398, 59.37114
1148.881, 62.19934
1149.363, 64.94942
1149.845, 64.30021
1150.327, 61.76537
1150.809, 61.55635
1151.291, 63.84736
1151.773, 65.24957
1152.255, 63.43390
1152.738, 61.55865
1153.220, 60.47952
1153.702, 59.94123
1154.184, 59.32312
1154.666, 58.76744
1155.148, 58.97391
1155.630, 60.11483
1156.112, 61.23849
1156.594, 62.56047
1157.077, 62.85271
1157.559, 61.07862
1158.041, 58.09617
1158.523, 56.98323
1159.005, 57.58772
1159.487, 59.01034
1159.969, 61.42309
1160.451, 62.94312
1160.933, 60.75011
1161.416, 58.53109
1161.898, 59.68290
1162.380, 63.66157
1162.862, 63.63536
1163.344, 59.80120
1163.826, 57.45247
1164.308, 59.45422
1164.790, 62.01511
1165.273, 62.27066
1165.755, 61.43032
1166.237, 60.71358
1166.719, 60.14686
1167.201, 59.99621
1167.683, 60.28294
1168.165, 60.61814
1168.647, 60.96161
1169.130, 61.06165
1169.612, 60.12354
1170.094, 59.01783
1170.576, 59.24096
1171.058, 61.40752
1171.540, 62.88443
1172.022, 63.65619
1172.504, 63.78402
1172.986, 62.29250
1173.469, 61.02201
1173.951, 63.07690
1174.433, 66.79642
1174.915, 67.97460
1175.397, 65.37785
1175.879, 62.73037
1176.361, 60.01823
1176.843, 58.11855
1177.326, 58.63227
1177.808, 59.78833
1178.290, 58.82239
1178.772, 56.39741
1179.254, 55.55626
1179.736, 57.52787
1180.218, 58.88923
1180.700, 59.21515
1181.182, 59.13087
1181.665, 59.72934
1182.147, 60.11588
1182.629, 58.13244
1183.111, 54.26147
1183.593, 52.58116
1184.075, 54.73091
1184.557, 57.17357
1185.039, 59.63497
1185.521, 61.35845
1186.004, 60.65271
1186.486, 58.78524
1186.968, 58.02197
1187.450, 58.51817
1187.932, 58.02124
1188.414, 54.64119
1188.896, 53.25296
1189.378, 55.75140
1189.861, 59.27372
1190.343, 58.85364
1190.825, 56.21858
1191.307, 54.25846
1191.789, 53.39468
1192.271, 53.65308
1192.753, 56.29064
1193.235, 57.63234
1193.718, 56.13065
1194.200, 53.33494
1194.682, 51.41313
1195.164, 50.61509
1195.646, 51.91184
1196.128, 56.03253
1196.610, 58.87411
1197.092, 59.37278
1197.574, 58.78371
1198.057, 57.20769
1198.539, 55.28196
1199.021, 54.22958
1199.503, 53.96660
1199.985, 54.40152
1200.467, 55.73854
1200.949, 56.99463
1201.431, 58.35891
1201.913, 58.95852
1202.396, 58.03002
1202.878, 56.32697
1203.360, 55.65857
1203.842, 55.81339
1204.324, 56.27510
1204.806, 56.94720
1205.288, 57.83489
1205.770, 59.29527
1206.253, 60.33370
1206.735, 60.34879
1207.217, 59.53802
1207.699, 57.97955
1208.181, 56.10641
1208.663, 55.02889
1209.145, 55.54610
1209.627, 56.14204
1210.109, 56.82413
1210.592, 57.10491
1211.074, 56.35632
1211.556, 55.05804
1212.038, 54.77491
1212.520, 55.22275
1213.002, 55.61575
1213.484, 55.55146
1213.966, 55.60960
1214.448, 55.88974
1214.931, 56.23480
1215.413, 56.29817
1215.895, 56.39031
1216.377, 58.18663
1216.859, 60.84595
1217.341, 61.72324
1217.823, 57.28471
1218.305, 54.91190
1218.788, 55.89724
1219.270, 57.87867
1219.752, 59.28085
1220.234, 60.00449
1220.716, 59.28141
1221.198, 57.57546
1221.680, 56.48637
1222.162, 57.05781
1222.645, 57.61446
1223.127, 57.99778
1223.609, 58.34801
1224.091, 58.86043
1224.573, 59.41382
1225.055, 59.92060
1225.537, 60.25711
1226.019, 59.98426
1226.501, 58.12934
1226.984, 56.93763
1227.466, 56.69056
1227.948, 56.86438
1228.430, 56.97437
1228.912, 57.11727
1229.394, 57.39280
1229.876, 57.85199
1230.358, 58.70104
1230.841, 60.48540
1231.323, 61.72271
1231.805, 62.23732
1232.287, 62.30000
1232.769, 62.43322
1233.251, 62.15204
1233.733, 59.69343
1234.215, 55.87964
1234.698, 55.08898
1235.180, 60.39926
1235.662, 62.39143
1236.144, 59.23854
1236.626, 55.78731
1237.108, 58.43639
1237.590, 62.90895
1238.072, 63.30370
1238.554, 60.33048
1239.036, 59.23094
1239.519, 60.89842
1240.001, 63.01812
1240.483, 65.55725
1240.965, 67.28963
1241.447, 66.60358
1241.929, 64.75478
1242.411, 62.54912
1242.893, 60.34045
1243.376, 59.41557
1243.858, 60.02658
1244.340, 60.96708
1244.822, 62.18414
1245.304, 62.90290
1245.786, 61.93806
1246.268, 60.53322
1246.750, 59.86646
1247.233, 59.77740
1247.715, 59.10015
1248.197, 57.60246
1248.679, 57.95488
1249.161, 60.69863
1249.643, 63.28411
1250.125, 63.74114
1250.607, 62.94585
1251.089, 60.64690
1251.572, 57.77765
1252.054, 57.08106
1252.536, 58.55184
1253.018, 59.26875
1253.500, 58.77784
1253.982, 58.59368
1254.464, 61.08724
1254.946, 62.92278
1255.428, 61.29433
1255.911, 57.99844
1256.393, 56.59019
1256.875, 56.94523
1257.357, 58.05492
1257.839, 59.79281
1258.321, 61.12059
1258.803, 61.32609
1259.285, 60.98516
1259.768, 60.12988
1260.250, 59.16030
1260.732, 58.93565
1261.214, 59.27190
1261.696, 59.38302
1262.178, 59.17384
1262.660, 59.07804
1263.142, 58.93582
1263.625, 59.58104
1264.107, 61.82128
1264.589, 64.07961
1265.071, 62.83659
1265.553, 59.83107
1266.035, 59.90153
1266.517, 63.37517
1266.999, 65.81480
1267.481, 65.44288
1267.964, 64.42732
1268.446, 62.87312
1268.928, 61.54845
1269.410, 61.61728
1269.892, 62.62579
1270.374, 64.12077
1270.856, 65.97206
1271.338, 67.34087
1271.820, 68.35615
1272.303, 68.23878
1272.785, 66.57573
1273.267, 64.79156
1273.749, 64.68376
1274.231, 65.33640
1274.713, 65.55593
1275.195, 65.48784
1275.677, 66.68368
1276.160, 69.58434
1276.642, 71.54202
1277.124, 72.08279
1277.606, 71.71573
1278.088, 70.08931
1278.570, 68.47508
1279.052, 68.10513
1279.534, 68.61470
1280.016, 68.67499
1280.499, 68.26482
1280.981, 68.51121
1281.463, 69.61388
1281.945, 70.19708
1282.427, 68.63711
1282.909, 66.93411
1283.391, 66.14503
1283.873, 66.01985
1284.356, 66.21427
1284.838, 66.69566
1285.320, 67.75775
1285.802, 69.33337
1286.284, 69.19020
1286.766, 63.39863
1287.248, 59.37496
1287.730, 60.02620
1288.213, 62.40819
1288.695, 62.16106
1289.177, 60.25542
1289.659, 59.07917
1290.141, 58.83660
1290.623, 59.33125
1291.105, 61.94542
1291.587, 62.78890
1292.069, 60.88120
1292.552, 58.28892
1293.034, 57.18431
1293.516, 57.06915
1293.998, 57.97741
1294.480, 59.37398
1294.962, 58.34454
1295.444, 53.45470
1295.926, 50.77277
1296.408, 51.22103
1296.891, 52.15540
1297.373, 51.23449
1297.855, 49.58432
1298.337, 47.76720
1298.819, 46.21862
1299.301, 46.08511
1299.783, 47.66661
1300.265, 46.82464
1300.748, 43.23266
1301.230, 40.06422
1301.712, 39.07401
1302.194, 39.65314
1302.676, 41.68872
##END=



