##NAMES=Hubnerite
##RRUFFID=R050139
##IDEAL CHEMISTRY=Mn^2+^W^6+^O_4_
##LOCALITY=Pasto Bueno District, Pallasca Province, Ancash Department, Peru
##OWNER=RRUFF
##SOURCE=Dave Bunk Minerals
##DESCRIPTION=Black tabular crystals associated with quartz
##STATUS=The identification of this mineral has been confirmed by X-ray diffraction and chemical analysis
##URL=rruff.info/R050139
##MEASURED CHEMISTRY=(Mn^2+^_0.79_Fe^2+^_0.20_)W_1.00_O4
93.08527, 0.0000000E+00
93.56738, 314.8896
94.04950, 324.1943
94.53162, 331.1133
95.01373, 330.9769
95.49585, 325.9260
95.97797, 319.1641
96.46008, 313.3811
96.94220, 309.6147
97.42432, 305.1826
97.90643, 299.0694
98.38855, 292.8369
98.87067, 287.1979
99.35278, 282.4384
99.83490, 278.6723
100.3170, 276.1031
100.7991, 274.5002
101.2813, 273.7229
101.7634, 273.4844
102.2455, 274.0488
102.7276, 275.4528
103.2097, 277.5805
103.6918, 280.7124
104.1740, 287.6130
104.6561, 297.3058
105.1382, 310.1989
105.6203, 326.0728
106.1024, 345.0688
106.5845, 367.7564
107.0667, 394.1674
107.5488, 425.5073
108.0309, 463.9301
108.5130, 513.9019
108.9951, 569.0338
109.4772, 622.3607
109.9594, 673.8323
110.4415, 723.7767
110.9236, 775.8610
111.4057, 827.2149
111.8878, 871.0248
112.3699, 903.6009
112.8521, 925.5892
113.3342, 939.7906
113.8163, 939.5001
114.2984, 937.7424
114.7805, 938.8947
115.2626, 943.3106
115.7448, 950.4506
116.2269, 959.8483
116.7090, 971.7909
117.1911, 985.7207
117.6732, 1002.959
118.1553, 1022.262
118.6375, 1043.793
119.1196, 1067.232
119.6017, 1091.484
120.0838, 1114.576
120.5659, 1135.502
121.0480, 1156.617
121.5302, 1179.247
122.0123, 1201.515
122.4944, 1221.209
122.9765, 1237.337
123.4586, 1250.970
123.9407, 1264.495
124.4228, 1278.203
124.9050, 1291.387
125.3871, 1302.670
125.8692, 1312.882
126.3513, 1324.594
126.8334, 1337.315
127.3155, 1354.118
127.7977, 1380.258
128.2798, 1422.118
128.7619, 1463.614
129.2440, 1496.051
129.7261, 1521.976
130.2083, 1521.278
130.6904, 1476.270
131.1725, 1402.323
131.6546, 1306.172
132.1367, 1185.695
132.6188, 1050.514
133.1010, 921.9899
133.5831, 795.5438
134.0652, 686.2145
134.5473, 595.5583
135.0294, 521.3986
135.5115, 460.6460
135.9937, 412.3774
136.4758, 376.0635
136.9579, 345.7260
137.4400, 324.4374
137.9221, 306.3274
138.4042, 290.7192
138.8864, 277.2878
139.3685, 265.6799
139.8506, 255.6867
140.3327, 247.4597
140.8148, 240.2539
141.2969, 234.1057
141.7791, 228.7310
142.2612, 224.0770
142.7433, 220.0986
143.2254, 216.7217
143.7075, 213.9382
144.1896, 211.8559
144.6718, 209.9631
145.1539, 208.4561
145.6360, 207.0318
146.1181, 205.2278
146.6002, 202.8426
147.0823, 200.5501
147.5645, 199.3687
148.0466, 199.1364
148.5287, 198.8570
149.0108, 198.0503
149.4929, 196.8736
149.9750, 195.7821
150.4572, 194.6473
150.9393, 193.9561
151.4214, 194.2278
151.9035, 195.3913
152.3856, 196.5386
152.8677, 196.9169
153.3499, 196.4807
153.8320, 195.9574
154.3141, 195.1396
154.7962, 194.4842
155.2783, 194.3154
155.7604, 194.6483
156.2425, 195.1760
156.7247, 195.4933
157.2068, 195.5078
157.6889, 195.5365
158.1710, 195.2664
158.6531, 195.2134
159.1352, 195.9333
159.6174, 197.5293
160.0995, 199.4707
160.5816, 200.6646
161.0637, 200.4173
161.5458, 200.2731
162.0279, 199.9913
162.5101, 199.9229
162.9922, 200.6045
163.4743, 202.2893
163.9564, 204.4986
164.4385, 205.8239
164.9206, 205.0802
165.4028, 205.0357
165.8849, 206.8526
166.3670, 209.6393
166.8491, 211.7788
167.3312, 212.4404
167.8133, 211.9772
168.2955, 211.5033
168.7776, 210.7458
169.2597, 210.3433
169.7418, 210.8501
170.2239, 212.0999
170.7060, 213.1894
171.1882, 213.5092
171.6703, 213.4910
172.1524, 214.0024
172.6345, 215.2844
173.1166, 216.8058
173.5987, 218.1001
174.0809, 219.1528
174.5630, 220.1626
175.0451, 220.9122
175.5272, 221.7903
176.0093, 223.3047
176.4914, 225.7787
176.9736, 228.6215
177.4557, 230.7458
177.9378, 231.6568
178.4199, 233.1010
178.9020, 235.4544
179.3841, 238.6322
179.8663, 242.4284
180.3484, 246.5640
180.8305, 251.6164
181.3126, 259.6312
181.7947, 274.2117
182.2768, 286.6220
182.7590, 293.4680
183.2411, 297.7804
183.7232, 303.2321
184.2053, 311.8798
184.6874, 323.4276
185.1695, 335.8276
185.6517, 349.6620
186.1338, 363.8579
186.6159, 378.5763
187.0980, 393.5467
187.5801, 408.2563
188.0622, 422.4049
188.5444, 435.9777
189.0265, 449.5365
189.5086, 463.9713
189.9907, 477.5164
190.4728, 489.4565
190.9549, 500.0485
191.4371, 509.8492
191.9192, 519.1979
192.4013, 528.0973
192.8834, 537.2471
193.3655, 547.0048
193.8476, 556.6660
194.3298, 565.8380
194.8119, 574.5932
195.2940, 583.1757
195.7761, 591.8251
196.2582, 600.4659
196.7403, 608.8708
197.2225, 616.4231
197.7046, 624.1744
198.1867, 633.2548
198.6688, 643.7357
199.1509, 654.0088
199.6330, 662.7582
200.1152, 670.5358
200.5973, 678.5798
201.0794, 687.4657
201.5615, 696.4672
202.0436, 704.5782
202.5257, 711.5711
203.0079, 718.5067
203.4900, 726.2756
203.9721, 734.3096
204.4542, 742.0817
204.9363, 750.2087
205.4184, 757.3171
205.9006, 761.3146
206.3827, 763.0641
206.8648, 759.1192
207.3469, 747.9832
207.8290, 731.1850
208.3111, 709.9526
208.7933, 684.3770
209.2754, 655.2918
209.7575, 624.5071
210.2396, 590.4402
210.7217, 557.3983
211.2038, 525.9229
211.6860, 496.2610
212.1681, 468.4329
212.6502, 442.5209
213.1323, 418.5972
213.6144, 397.3160
214.0965, 379.7137
214.5787, 363.7767
215.0608, 349.2307
215.5429, 335.9604
216.0250, 323.9936
216.5071, 313.2929
216.9892, 303.8194
217.4714, 295.1112
217.9535, 286.8064
218.4356, 279.7650
218.9177, 274.4288
219.3998, 270.4278
219.8819, 267.3549
220.3641, 265.0173
220.8462, 263.2710
221.3283, 261.2051
221.8104, 258.3312
222.2925, 255.6975
222.7746, 253.4695
223.2568, 251.6314
223.7389, 250.1505
224.2210, 249.0061
224.7031, 248.2006
225.1852, 247.8079
225.6673, 248.4187
226.1495, 248.7030
226.6316, 247.8317
227.1137, 246.3408
227.5958, 245.4835
228.0779, 246.0453
228.5600, 247.5882
229.0422, 248.3489
229.5243, 247.7310
230.0064, 247.2395
230.4885, 247.4675
230.9706, 248.2778
231.4527, 249.2552
231.9349, 250.1452
232.4170, 251.1657
232.8991, 252.8565
233.3812, 255.5395
233.8633, 258.2179
234.3454, 260.1874
234.8276, 261.6459
235.3097, 263.3847
235.7918, 265.5982
236.2739, 268.4414
236.7560, 272.0749
237.2381, 276.6563
237.7203, 281.4953
238.2024, 286.1708
238.6845, 290.7145
239.1666, 295.2913
239.6487, 300.0185
240.1308, 304.7463
240.6130, 309.3029
241.0951, 313.7050
241.5772, 317.9134
242.0593, 321.6843
242.5414, 325.0756
243.0235, 328.9556
243.5057, 333.2956
243.9878, 338.5126
244.4699, 345.2652
244.9520, 353.6075
245.4341, 361.7982
245.9162, 368.2160
246.3984, 372.8722
246.8805, 377.6513
247.3626, 382.6040
247.8447, 388.0291
248.3268, 394.1844
248.8089, 401.0206
249.2911, 408.1277
249.7732, 415.3456
250.2553, 422.7108
250.7374, 429.3531
251.2195, 434.6941
251.7016, 439.6613
252.1838, 444.4688
252.6659, 449.2246
253.1480, 454.2739
253.6301, 459.8073
254.1122, 465.8426
254.5943, 472.4348
255.0765, 480.8282
255.5586, 488.6611
256.0407, 494.5459
256.5228, 499.0552
257.0049, 503.8817
257.4870, 510.8116
257.9691, 519.9340
258.4513, 526.9167
258.9334, 531.8891
259.4155, 534.2648
259.8976, 533.2335
260.3797, 529.3805
260.8618, 523.8740
261.3440, 517.5917
261.8261, 509.6369
262.3082, 501.6752
262.7903, 489.9951
263.2724, 477.6880
263.7545, 464.5199
264.2367, 451.1166
264.7188, 438.3623
265.2009, 426.9039
265.6830, 416.6113
266.1651, 406.8368
266.6472, 397.6120
267.1294, 388.8820
267.6115, 380.8812
268.0936, 373.3310
268.5757, 365.6675
269.0578, 357.5469
269.5399, 349.3058
270.0221, 342.5064
270.5042, 338.7664
270.9863, 334.7547
271.4684, 329.6726
271.9505, 324.2733
272.4326, 319.5615
272.9148, 315.9786
273.3969, 313.2166
273.8790, 310.4263
274.3611, 306.8734
274.8432, 304.2121
275.3253, 302.9360
275.8075, 302.3931
276.2896, 301.7964
276.7717, 300.8684
277.2538, 299.9980
277.7359, 299.9267
278.2180, 301.2439
278.7002, 302.5532
279.1823, 303.6837
279.6644, 304.8827
280.1465, 306.3432
280.6286, 308.1173
281.1107, 310.2544
281.5929, 312.8549
282.0750, 316.2691
282.5571, 319.3106
283.0392, 321.5109
283.5213, 323.6500
284.0034, 326.4645
284.4856, 330.0324
284.9677, 333.7901
285.4498, 337.0941
285.9319, 339.7809
286.4140, 342.9170
286.8961, 346.4352
287.3783, 350.4308
287.8604, 355.0673
288.3425, 360.2915
288.8246, 365.7647
289.3067, 371.0711
289.7888, 376.2558
290.2710, 382.2771
290.7531, 389.9687
291.2352, 397.6898
291.7173, 404.0139
292.1994, 409.3433
292.6815, 415.5780
293.1637, 424.0130
293.6458, 434.4255
294.1279, 444.9684
294.6100, 455.6060
295.0921, 466.3420
295.5742, 476.6450
296.0564, 486.9824
296.5385, 498.5550
297.0206, 512.0218
297.5027, 527.1542
297.9848, 543.3279
298.4669, 559.7971
298.9491, 578.1339
299.4312, 599.3797
299.9133, 622.9285
300.3954, 647.3920
300.8775, 672.2488
301.3596, 698.2518
301.8418, 726.5761
302.3239, 756.9371
302.8060, 790.3176
303.2881, 826.7239
303.7702, 866.4314
304.2523, 909.8611
304.7345, 957.0403
305.2166, 1007.249
305.6987, 1059.466
306.1808, 1113.822
306.6629, 1168.699
307.1451, 1224.499
307.6272, 1280.443
308.1093, 1335.148
308.5914, 1388.462
309.0735, 1441.732
309.5556, 1496.585
310.0378, 1552.738
310.5199, 1606.815
311.0020, 1657.461
311.4841, 1706.664
311.9662, 1756.730
312.4483, 1807.543
312.9305, 1856.165
313.4126, 1900.736
313.8947, 1941.728
314.3768, 1983.748
314.8589, 2027.271
315.3410, 2071.004
315.8232, 2115.148
316.3053, 2159.220
316.7874, 2200.808
317.2695, 2238.156
317.7516, 2273.067
318.2337, 2310.712
318.7159, 2353.263
319.1980, 2393.363
319.6801, 2426.945
320.1622, 2456.328
320.6443, 2486.522
321.1264, 2519.424
321.6086, 2552.291
322.0907, 2580.627
322.5728, 2605.114
323.0549, 2624.598
323.5370, 2640.431
324.0191, 2650.496
324.5013, 2652.316
324.9834, 2645.520
325.4655, 2629.949
325.9476, 2605.190
326.4297, 2570.869
326.9118, 2526.379
327.3940, 2470.449
327.8761, 2405.336
328.3582, 2331.214
328.8403, 2248.902
329.3224, 2162.929
329.8045, 2075.543
330.2867, 1987.168
330.7688, 1899.379
331.2509, 1810.336
331.7330, 1723.798
332.2151, 1640.571
332.6972, 1561.034
333.1794, 1485.889
333.6615, 1415.612
334.1436, 1349.953
334.6257, 1287.631
335.1078, 1227.594
335.5899, 1172.009
336.0721, 1122.348
336.5542, 1077.074
337.0363, 1034.128
337.5184, 992.4806
338.0005, 952.9131
338.4826, 916.4425
338.9648, 883.6154
339.4469, 851.9045
339.9290, 820.4778
340.4111, 790.4096
340.8932, 762.6497
341.3753, 737.3727
341.8575, 713.7432
342.3396, 691.0129
342.8217, 669.1227
343.3038, 649.2532
343.7859, 632.1229
344.2680, 616.2912
344.7502, 601.0917
345.2323, 586.4743
345.7144, 572.5301
346.1965, 559.3775
346.6786, 546.9211
347.1607, 534.5951
347.6429, 522.0960
348.1250, 510.0441
348.6071, 498.3119
349.0892, 487.1711
349.5713, 477.3260
350.0534, 469.0605
350.5356, 461.7338
351.0177, 453.8782
351.4998, 444.7775
351.9819, 436.6341
352.4640, 430.0118
352.9461, 424.1222
353.4283, 418.2642
353.9104, 412.2753
354.3925, 406.3151
354.8746, 400.5442
355.3567, 394.9833
355.8388, 389.5711
356.3210, 383.9645
356.8031, 378.7563
357.2852, 374.4155
357.7673, 370.7796
358.2494, 367.3447
358.7315, 363.8207
359.2137, 360.1651
359.6958, 356.1504
360.1779, 351.1849
360.6600, 346.5616
361.1421, 342.6499
361.6242, 339.1916
362.1064, 335.7303
362.5885, 332.0877
363.0706, 328.5633
363.5527, 325.8906
364.0348, 324.9843
364.5169, 323.5623
364.9991, 321.3494
365.4812, 318.8601
365.9633, 316.3876
366.4454, 314.0290
366.9275, 311.7952
367.4096, 309.6557
367.8918, 307.5545
368.3739, 305.9097
368.8560, 304.8144
369.3381, 304.0398
369.8202, 303.3149
370.3023, 302.8413
370.7845, 303.1412
371.2666, 304.6533
371.7487, 307.1112
372.2308, 308.9578
372.7129, 309.3358
373.1950, 310.2506
373.6772, 311.7192
374.1593, 313.9787
374.6414, 317.2762
375.1235, 321.7011
375.6056, 327.0913
376.0877, 333.1024
376.5699, 339.6237
377.0520, 347.2154
377.5341, 355.9376
378.0162, 365.6609
378.4983, 376.7588
378.9804, 388.9829
379.4626, 401.4438
379.9447, 413.6554
380.4268, 425.5699
380.9089, 436.0123
381.3910, 443.9369
381.8731, 451.5919
382.3553, 459.9844
382.8374, 468.6476
383.3195, 476.8384
383.8016, 484.1705
384.2837, 490.8106
384.7658, 496.9227
385.2480, 502.0482
385.7301, 508.0751
386.2122, 515.4756
386.6943, 524.1016
387.1764, 534.7474
387.6585, 547.6215
388.1407, 559.5438
388.6228, 566.3767
389.1049, 568.6279
389.5870, 573.1014
390.0691, 581.5933
390.5512, 591.4814
391.0334, 600.7774
391.5155, 609.6809
391.9976, 619.0291
392.4797, 629.3636
392.9618, 640.3447
393.4439, 651.6641
393.9261, 663.5986
394.4082, 674.6097
394.8903, 683.8868
395.3724, 691.5538
395.8545, 698.1827
396.3366, 704.8871
396.8188, 708.6368
397.3009, 708.1850
397.7830, 703.1777
398.2651, 691.6686
398.7472, 672.4324
399.2293, 647.4879
399.7115, 618.9932
400.1936, 587.0593
400.6757, 554.5519
401.1578, 520.7990
401.6399, 487.7099
402.1220, 457.8290
402.6042, 431.4554
403.0863, 407.7838
403.5684, 386.2481
404.0505, 367.1356
404.5326, 350.3118
405.0147, 336.5605
405.4969, 324.2926
405.9790, 312.6353
406.4611, 301.8424
406.9432, 292.8918
407.4253, 286.2926
407.9074, 281.1205
408.3896, 275.2740
408.8717, 267.7904
409.3538, 261.4444
409.8359, 256.8900
410.3180, 253.2587
410.8001, 249.8318
411.2823, 246.4941
411.7644, 243.5098
412.2465, 241.2376
412.7286, 239.7725
413.2107, 237.8576
413.6928, 235.1837
414.1750, 232.4449
414.6571, 229.6387
415.1392, 226.9640
415.6213, 224.7926
416.1034, 223.3253
416.5855, 222.3138
417.0677, 221.0924
417.5498, 219.4674
418.0319, 217.9662
418.5140, 216.5400
418.9961, 215.2875
419.4782, 214.3404
419.9604, 213.6808
420.4425, 213.1093
420.9246, 212.3883
421.4067, 211.4982
421.8888, 210.9028
422.3709, 210.9517
422.8531, 210.8878
423.3352, 210.3522
423.8173, 209.5611
424.2994, 208.8866
424.7815, 208.5290
425.2636, 208.2963
425.7458, 207.7723
426.2279, 206.8391
426.7100, 206.1246
427.1921, 205.9779
427.6742, 205.9954
428.1563, 205.8785
428.6385, 205.6074
429.1206, 205.3701
429.6027, 205.5234
430.0848, 205.8472
430.5669, 205.3948
431.0490, 203.7630
431.5312, 202.1994
432.0133, 201.6983
432.4954, 201.9057
432.9775, 202.2462
433.4596, 202.6795
433.9417, 203.1064
434.4239, 203.4882
434.9060, 203.8069
435.3881, 203.9437
435.8702, 203.8587
436.3523, 203.5623
436.8344, 202.8692
437.3166, 201.5798
437.7987, 201.0254
438.2808, 202.3280
438.7629, 204.1332
439.2450, 204.7622
439.7271, 204.0668
440.2093, 203.1548
440.6914, 202.9165
441.1735, 203.3219
441.6556, 203.6159
442.1377, 203.7361
442.6198, 203.8318
443.1020, 203.8362
443.5841, 203.8784
444.0662, 204.3135
444.5483, 205.2769
445.0304, 206.2251
445.5125, 206.1290
445.9947, 204.1168
446.4768, 203.0667
446.9589, 203.7379
447.4410, 204.5628
447.9231, 204.5134
448.4052, 203.7637
448.8874, 203.1706
449.3695, 203.4170
449.8516, 204.3064
450.3337, 204.6303
450.8158, 204.0028
451.2979, 203.3838
451.7801, 202.8591
452.2622, 202.4792
452.7443, 202.3399
453.2264, 202.4527
453.7085, 202.6407
454.1906, 202.6613
454.6728, 202.5038
455.1549, 202.5487
455.6370, 202.9778
456.1191, 203.4159
456.6012, 203.6339
457.0833, 203.7048
457.5655, 203.8070
458.0476, 204.1012
458.5297, 204.3688
459.0118, 204.2121
459.4939, 203.6178
459.9760, 203.1283
460.4582, 203.0520
460.9403, 203.0781
461.4224, 202.6142
461.9045, 201.5439
462.3866, 201.0110
462.8687, 202.1210
463.3508, 203.8090
463.8329, 204.3111
464.3151, 203.4080
464.7972, 202.3680
465.2793, 202.1701
465.7614, 202.7130
466.2435, 203.0292
466.7256, 202.1279
467.2078, 202.1211
467.6899, 205.0468
468.1720, 209.0459
468.6541, 210.9118
469.1362, 209.5764
469.6183, 206.7202
470.1005, 204.6749
470.5826, 203.5412
471.0647, 203.0335
471.5468, 203.7313
472.0289, 204.4120
472.5110, 204.3286
472.9932, 203.7394
473.4753, 203.3294
473.9574, 203.5108
474.4395, 204.1167
474.9216, 204.6827
475.4037, 205.4514
475.8859, 205.6598
476.3680, 204.4991
476.8501, 203.3333
477.3322, 203.2206
477.8143, 204.1788
478.2964, 205.4254
478.7786, 206.4852
479.2607, 207.3140
479.7428, 207.4594
480.2249, 206.5287
480.7070, 205.7666
481.1891, 205.9870
481.6713, 206.6452
482.1534, 207.0329
482.6355, 206.8987
483.1176, 206.8258
483.5997, 207.4755
484.0818, 208.6324
484.5640, 209.3465
485.0461, 209.2373
485.5282, 209.1542
486.0103, 210.2244
486.4924, 212.2744
486.9745, 213.7314
487.4567, 214.0013
487.9388, 213.9543
488.4209, 213.9725
488.9030, 214.1559
489.3851, 214.8036
489.8672, 216.1037
490.3494, 217.7378
490.8315, 219.0878
491.3136, 220.1615
491.7957, 220.8651
492.2778, 220.7964
492.7599, 220.6771
493.2421, 220.9623
493.7242, 221.6705
494.2063, 222.6395
494.6884, 223.7757
495.1705, 225.0547
495.6526, 226.3374
496.1348, 227.4493
496.6169, 228.8755
497.0990, 231.1334
497.5811, 233.4100
498.0632, 234.8694
498.5453, 235.4675
499.0275, 236.0252
499.5096, 237.3691
499.9917, 239.4265
500.4738, 241.4264
500.9559, 243.4502
501.4380, 245.2239
501.9202, 246.3379
502.4023, 247.2104
502.8844, 248.3960
503.3665, 250.0147
503.8486, 251.9538
504.3307, 254.3350
504.8129, 256.9856
505.2950, 259.1484
505.7771, 260.4825
506.2592, 261.9115
506.7413, 264.4864
507.2234, 268.1481
507.7056, 271.7061
508.1877, 275.2865
508.6698, 278.5304
509.1519, 280.9501
509.6340, 282.8885
510.1161, 285.1297
510.5983, 288.0162
511.0804, 291.2560
511.5625, 294.3961
512.0446, 297.4778
512.5267, 300.3271
513.0089, 302.2993
513.4910, 304.6641
513.9731, 308.4460
514.4552, 313.1571
514.9373, 317.5576
515.4194, 320.8375
515.9016, 323.5844
516.3837, 327.4182
516.8658, 332.7730
517.3479, 337.9925
517.8300, 342.1719
518.3121, 346.6717
518.7943, 352.5195
519.2764, 359.5685
519.7585, 366.7399
520.2406, 373.2728
520.7227, 379.4837
521.2048, 386.1539
521.6870, 393.3223
522.1691, 400.4933
522.6512, 407.2357
523.1333, 414.0104
523.6154, 421.6740
524.0975, 430.3659
524.5797, 439.2460
525.0618, 448.2973
525.5439, 457.2665
526.0260, 465.6092
526.5081, 473.4042
526.9902, 481.3302
527.4724, 489.9567
527.9545, 499.1298
528.4366, 507.6730
528.9187, 515.4583
529.4008, 522.8876
529.8829, 529.7703
530.3651, 536.4340
530.8472, 543.1522
531.3293, 550.0035
531.8114, 556.8961
532.2935, 563.7856
532.7756, 570.6601
533.2578, 577.2894
533.7399, 583.6703
534.2220, 589.7852
534.7041, 595.5647
535.1862, 601.0957
535.6683, 606.4999
536.1505, 611.7687
536.6326, 616.7705
537.1147, 621.6816
537.5968, 626.2684
538.0789, 629.0700
538.5610, 629.5075
539.0432, 629.6934
539.5253, 631.4762
540.0074, 633.9254
540.4895, 634.9260
540.9716, 634.0810
541.4537, 632.1708
541.9359, 629.3463
542.4180, 625.8002
542.9001, 622.0298
543.3822, 618.1256
543.8643, 613.3837
544.3464, 607.0510
544.8286, 599.0961
545.3107, 590.4393
545.7928, 581.2897
546.2749, 571.2745
546.7570, 559.8651
547.2391, 547.6960
547.7213, 535.3665
548.2034, 523.0455
548.6855, 510.6700
549.1676, 497.9873
549.6497, 484.9236
550.1318, 472.3962
550.6140, 460.6732
551.0961, 449.0350
551.5782, 436.8614
552.0603, 424.6990
552.5424, 413.5255
553.0245, 403.6826
553.5067, 394.2973
553.9888, 384.4931
554.4709, 374.4901
554.9530, 364.9748
555.4351, 356.0416
555.9172, 347.7664
556.3994, 340.4447
556.8815, 333.9186
557.3636, 327.1044
557.8457, 319.2411
558.3278, 312.0229
558.8099, 306.2601
559.2921, 301.5192
559.7742, 297.3172
560.2563, 293.4800
560.7384, 289.6451
561.2205, 285.4035
561.7026, 280.7065
562.1848, 276.4382
562.6669, 272.7720
563.1490, 269.3344
563.6311, 266.0979
564.1132, 263.0524
564.5953, 259.9815
565.0775, 256.8978
565.5596, 254.5134
566.0417, 254.3825
566.5238, 256.1139
567.0059, 255.2562
567.4880, 250.7357
567.9702, 245.9412
568.4523, 242.5267
568.9344, 240.0329
569.4165, 238.0070
569.8986, 236.4949
570.3807, 235.0740
570.8629, 233.4995
571.3450, 231.8709
571.8271, 230.2619
572.3092, 228.6938
572.7913, 227.5914
573.2734, 227.4469
573.7556, 228.0215
574.2377, 227.5973
574.7198, 224.8757
575.2019, 222.9373
575.6840, 222.7223
576.1661, 223.0933
576.6483, 223.0273
577.1304, 222.4162
577.6125, 221.7501
578.0946, 221.4595
578.5767, 221.4573
579.0588, 221.2597
579.5410, 220.8177
580.0231, 220.2925
580.5052, 219.5250
580.9873, 218.8291
581.4694, 218.5739
581.9515, 218.7512
582.4337, 218.7962
582.9158, 218.2922
583.3979, 217.5033
583.8800, 216.7153
584.3621, 215.9578
584.8442, 215.7028
585.3264, 216.3452
585.8085, 217.3679
586.2906, 217.6744
586.7727, 216.9741
587.2548, 216.4958
587.7369, 216.4509
588.2191, 216.5730
588.7012, 216.6615
589.1833, 216.7601
589.6654, 217.0756
590.1475, 217.7329
590.6296, 218.5078
591.1118, 218.9146
591.5939, 218.8810
592.0760, 218.6875
592.5581, 217.9088
593.0402, 217.4062
593.5223, 217.8177
594.0045, 218.7949
594.4866, 219.4956
594.9687, 219.4890
595.4508, 219.2804
595.9329, 219.4614
596.4150, 219.9607
596.8972, 220.4357
597.3793, 220.8607
597.8614, 221.0480
598.3435, 220.6115
598.8256, 219.6022
599.3077, 219.4152
599.7899, 221.0642
600.2720, 222.3723
600.7541, 222.2266
601.2362, 221.3875
601.7183, 220.8440
602.2004, 220.8452
602.6826, 221.0881
603.1647, 221.2632
603.6468, 221.3750
604.1289, 221.6169
604.6110, 222.1261
605.0931, 222.5415
605.5753, 222.6945
606.0574, 222.7695
606.5395, 222.8596
607.0216, 222.9992
607.5037, 223.3954
607.9858, 224.6779
608.4680, 226.1589
608.9501, 226.1979
609.4322, 224.7322
609.9143, 223.4650
610.3964, 223.2509
610.8785, 223.6563
611.3607, 223.7767
611.8428, 223.4179
612.3249, 223.4706
612.8070, 224.5626
613.2891, 225.6258
613.7712, 225.9375
614.2534, 225.6301
614.7355, 225.0703
615.2176, 224.4331
615.6997, 223.8679
616.1818, 223.6372
616.6639, 223.7407
617.1461, 224.2123
617.6282, 225.5979
618.1103, 226.7014
618.5924, 226.9149
619.0745, 226.5035
619.5566, 225.8803
620.0388, 225.0465
620.5209, 224.3955
621.0030, 224.3242
621.4851, 224.6831
621.9672, 225.1216
622.4493, 225.5896
622.9315, 226.0744
623.4136, 226.5980
623.8957, 227.1286
624.3778, 227.4631
624.8599, 227.4210
625.3420, 227.4523
625.8242, 227.8064
626.3063, 228.1171
626.7884, 227.8756
627.2705, 227.2324
627.7526, 226.9115
628.2347, 227.4758
628.7169, 228.6026
629.1990, 229.3762
629.6811, 229.7048
630.1632, 230.1104
630.6453, 230.8641
631.1274, 231.5448
631.6096, 231.6966
632.0917, 231.4638
632.5738, 231.4619
633.0559, 231.8336
633.5380, 232.5432
634.0201, 233.8944
634.5023, 235.5288
634.9844, 236.5504
635.4665, 236.7299
635.9486, 236.5061
636.4307, 236.2439
636.9128, 235.9348
637.3950, 236.3132
637.8771, 238.4038
638.3592, 239.9383
638.8413, 239.9077
639.3234, 239.5981
639.8055, 240.2717
640.2877, 242.0273
640.7698, 244.0204
641.2519, 245.6425
641.7340, 247.0198
642.2161, 248.4289
642.6982, 249.8744
643.1804, 251.3996
643.6625, 253.1062
644.1446, 254.7905
644.6267, 256.0434
645.1088, 256.8614
645.5909, 258.0666
646.0731, 259.9295
646.5552, 262.0455
647.0373, 264.3138
647.5194, 266.6445
648.0015, 268.7870
648.4836, 270.6995
648.9658, 272.7382
649.4479, 275.3872
649.9300, 278.6621
650.4121, 281.6557
650.8942, 284.1635
651.3763, 286.7346
651.8585, 289.6978
652.3406, 292.7153
652.8227, 295.3418
653.3048, 297.5500
653.7869, 300.0840
654.2690, 303.2441
654.7512, 307.0279
655.2333, 311.7289
655.7154, 317.1818
656.1975, 322.3456
656.6796, 326.7752
657.1617, 330.7806
657.6439, 334.8026
658.1260, 338.8048
658.6081, 343.0594
659.0902, 347.2859
659.5723, 352.0197
660.0544, 357.4771
660.5366, 363.5365
661.0187, 370.2961
661.5008, 377.6693
661.9829, 384.8509
662.4650, 390.3426
662.9471, 394.8706
663.4293, 401.6483
663.9114, 410.9890
664.3935, 420.8082
664.8756, 430.4312
665.3577, 439.8504
665.8398, 449.0400
666.3220, 457.8736
666.8041, 467.1684
667.2862, 476.7753
667.7683, 487.1270
668.2504, 498.6803
668.7325, 511.1913
669.2147, 524.3701
669.6968, 538.0186
670.1789, 551.8240
670.6610, 565.2770
671.1431, 578.4308
671.6252, 591.7305
672.1074, 604.8322
672.5895, 618.8165
673.0716, 634.8597
673.5537, 651.7064
674.0358, 668.0079
674.5179, 683.6774
675.0001, 699.3592
675.4822, 714.6425
675.9643, 730.6080
676.4464, 748.8170
676.9285, 768.6705
677.4106, 787.9844
677.8928, 805.8717
678.3749, 822.7897
678.8570, 839.3852
679.3391, 855.4374
679.8212, 872.3215
680.3033, 891.4404
680.7855, 909.6879
681.2676, 926.4316
681.7497, 942.0279
682.2318, 956.4951
682.7139, 969.9805
683.1960, 983.6120
683.6782, 998.6101
684.1603, 1014.105
684.6424, 1028.789
685.1245, 1042.547
685.6066, 1054.928
686.0887, 1065.761
686.5709, 1074.863
687.0530, 1081.601
687.5351, 1085.396
688.0172, 1090.093
688.4993, 1096.936
688.9814, 1103.108
689.4636, 1108.039
689.9457, 1111.623
690.4278, 1113.785
690.9099, 1114.534
691.3920, 1113.929
691.8741, 1111.674
692.3563, 1108.241
692.8384, 1105.197
693.3205, 1102.646
693.8026, 1098.967
694.2847, 1094.041
694.7668, 1087.094
695.2490, 1076.810
695.7311, 1063.008
696.2132, 1048.837
696.6953, 1035.649
697.1774, 1020.745
697.6595, 1003.111
698.1417, 983.2366
698.6238, 961.4100
699.1059, 937.9214
699.5880, 913.0679
700.0701, 887.0684
700.5522, 860.0681
701.0344, 832.9193
701.5165, 805.5226
701.9986, 777.4199
702.4807, 747.6426
702.9628, 718.1552
703.4449, 691.3818
703.9271, 666.7122
704.4092, 642.0955
704.8913, 616.2286
705.3734, 591.6642
705.8555, 569.9225
706.3376, 549.9731
706.8198, 530.8991
707.3019, 512.4694
707.7840, 495.0415
708.2661, 478.8733
708.7482, 463.9122
709.2303, 450.1839
709.7125, 437.8955
710.1946, 426.0416
710.6767, 414.2304
711.1588, 403.1641
711.6409, 393.3544
712.1230, 384.5789
712.6052, 376.2622
713.0873, 368.2621
713.5694, 360.7820
714.0515, 353.9251
714.5336, 347.5621
715.0157, 341.4556
715.4979, 335.6567
715.9800, 330.4765
716.4621, 326.1917
716.9442, 322.3518
717.4263, 317.8808
717.9084, 312.4279
718.3906, 307.8225
718.8727, 304.5346
719.3548, 301.6203
719.8369, 298.8747
720.3190, 296.1068
720.8011, 292.9036
721.2833, 289.0564
721.7654, 285.5120
722.2475, 282.9278
722.7296, 280.7589
723.2117, 278.3163
723.6938, 275.7129
724.1760, 273.6055
724.6581, 272.2920
725.1402, 271.2142
725.6223, 269.4345
726.1044, 266.8391
726.5865, 264.4222
727.0687, 261.9875
727.5508, 260.0236
728.0329, 258.9008
728.5150, 258.1785
728.9971, 257.5272
729.4792, 256.9037
729.9614, 256.0348
730.4435, 254.6793
730.9256, 253.1338
731.4077, 251.3980
731.8898, 249.7171
732.3719, 248.8420
732.8541, 248.9402
733.3362, 249.1072
733.8183, 248.3356
734.3004, 246.7414
734.7825, 245.6044
735.2646, 245.2221
735.7468, 244.6644
736.2289, 243.4697
736.7110, 242.2542
737.1931, 241.6269
737.6752, 241.3908
738.1573, 240.6574
738.6395, 238.5696
739.1216, 236.7475
739.6037, 236.5590
740.0858, 237.2325
740.5679, 237.5671
741.0500, 237.4205
741.5322, 237.3424
742.0143, 237.7423
742.4964, 238.3660
742.9785, 238.4213
743.4606, 237.6661
743.9427, 237.2635
744.4249, 237.7225
744.9070, 237.9868
745.3891, 237.1965
745.8712, 235.9554
746.3533, 235.2826
746.8354, 235.4041
747.3176, 235.7463
747.7997, 235.9769
748.2818, 236.3575
748.7639, 237.2697
749.2460, 238.5722
749.7281, 239.8893
750.2103, 241.0633
750.6924, 241.8749
751.1745, 241.8401
751.6566, 240.9449
752.1387, 240.9724
752.6208, 242.3302
753.1030, 243.6408
753.5851, 244.2764
754.0672, 244.7652
754.5493, 245.6972
755.0314, 247.0565
755.5135, 248.3830
755.9957, 249.7962
756.4778, 250.8970
756.9599, 250.8955
757.4420, 250.6977
757.9241, 251.8625
758.4063, 254.4425
758.8884, 256.9545
759.3705, 258.2117
759.8526, 258.6942
760.3347, 259.7324
760.8168, 261.3668
761.2990, 263.1727
761.7811, 265.1085
762.2632, 267.1533
762.7453, 269.5797
763.2274, 272.0667
763.7095, 273.5643
764.1917, 273.1765
764.6738, 273.6777
765.1559, 276.7593
765.6380, 280.0268
766.1201, 281.6007
766.6022, 281.9098
767.0844, 282.0980
767.5665, 282.6278
768.0486, 283.4276
768.5307, 284.4914
769.0128, 285.7646
769.4949, 287.0103
769.9771, 288.2431
770.4592, 289.3488
770.9413, 290.3115
771.4234, 291.0964
771.9055, 291.7024
772.3876, 292.1473
772.8698, 292.1258
773.3519, 290.8847
773.8340, 290.1432
774.3161, 290.9775
774.7982, 292.1017
775.2803, 292.0956
775.7625, 291.0732
776.2446, 290.3314
776.7267, 290.8407
777.2088, 291.5244
777.6909, 290.4345
778.1730, 288.2173
778.6552, 287.4923
779.1373, 288.6985
779.6194, 290.4724
780.1015, 292.0518
780.5836, 293.3489
781.0657, 294.1753
781.5479, 295.0001
782.0300, 294.2692
782.5121, 290.1887
782.9942, 286.5737
783.4763, 284.9557
783.9584, 284.5917
784.4406, 284.5615
784.9227, 284.6806
785.4048, 284.6814
785.8869, 284.3745
786.3690, 283.8974
786.8511, 283.2633
787.3333, 282.5956
787.8154, 282.2002
788.2975, 282.1677
788.7796, 282.4637
789.2617, 283.1230
789.7438, 284.0384
790.2260, 284.4775
790.7081, 284.2767
791.1902, 284.0821
791.6723, 283.8978
792.1544, 283.8712
792.6365, 284.3957
793.1187, 285.1337
793.6008, 285.0875
794.0829, 283.4660
794.5650, 282.5409
795.0471, 283.8474
795.5292, 285.6270
796.0114, 286.2276
796.4935, 285.9759
796.9756, 286.0152
797.4577, 286.8007
797.9398, 287.7839
798.4219, 288.1406
798.9041, 288.0626
799.3862, 288.8634
799.8683, 290.6877
800.3504, 291.8988
800.8325, 291.8087
801.3146, 291.1072
801.7968, 290.3434
802.2789, 289.4891
802.7610, 289.8720
803.2431, 292.5753
803.7252, 294.9168
804.2073, 296.2723
804.6895, 297.2582
805.1716, 298.3354
805.6537, 299.4761
806.1358, 300.4349
806.6179, 301.0996
807.1000, 301.5973
807.5822, 301.7822
808.0643, 301.9760
808.5464, 302.9126
809.0285, 304.5753
809.5106, 306.3460
809.9927, 307.9407
810.4749, 309.5747
810.9570, 311.6943
811.4391, 314.4031
811.9212, 316.2494
812.4033, 316.7308
812.8854, 317.3210
813.3676, 318.2521
813.8497, 319.6223
814.3318, 321.6843
814.8139, 324.3368
815.2960, 326.8443
815.7781, 329.0659
816.2603, 331.0924
816.7424, 332.8479
817.2245, 334.5118
817.7066, 336.1545
818.1887, 337.8827
818.6708, 339.9441
819.1530, 342.4825
819.6351, 345.2240
820.1172, 347.7050
820.5993, 350.0218
821.0814, 352.9513
821.5635, 356.6248
822.0457, 359.7160
822.5278, 361.3380
823.0099, 362.8324
823.4920, 366.3104
823.9741, 372.0917
824.4562, 376.8373
824.9384, 379.7006
825.4205, 382.7296
825.9026, 386.0410
826.3847, 389.8381
826.8668, 394.3580
827.3489, 399.4929
827.8311, 404.8827
828.3132, 410.4415
828.7953, 416.0586
829.2774, 421.3926
829.7595, 426.8766
830.2416, 433.3323
830.7238, 440.5810
831.2059, 447.5367
831.6880, 453.6878
832.1701, 459.8069
832.6522, 467.0840
833.1343, 475.4724
833.6165, 483.7686
834.0985, 491.9695
834.5806, 499.8363
835.0627, 506.6377
835.5449, 513.9850
836.0270, 523.7796
836.5091, 535.9059
836.9912, 547.8190
837.4733, 558.7234
837.9554, 570.4305
838.4376, 583.4020
838.9197, 597.0999
839.4018, 611.1940
839.8839, 625.7285
840.3660, 640.9191
840.8481, 656.8404
841.3303, 673.4351
841.8124, 690.4268
842.2945, 708.2699
842.7766, 728.0799
843.2587, 749.6155
843.7408, 771.2345
844.2230, 792.4252
844.7051, 814.5298
845.1872, 838.6844
845.6693, 864.9298
846.1514, 892.8864
846.6335, 922.7094
847.1157, 953.9095
847.5978, 986.3289
848.0799, 1020.309
848.5620, 1055.955
849.0441, 1093.307
849.5262, 1132.804
850.0084, 1173.825
850.4905, 1218.263
850.9726, 1266.956
851.4547, 1318.550
851.9368, 1371.773
852.4189, 1427.835
852.9011, 1488.984
853.3832, 1555.280
853.8653, 1624.769
854.3474, 1695.212
854.8295, 1769.528
855.3116, 1851.867
855.7938, 1941.669
856.2759, 2035.335
856.7580, 2132.641
857.2401, 2236.710
857.7222, 2349.746
858.2043, 2471.479
858.6865, 2601.190
859.1686, 2738.686
859.6507, 2886.618
860.1328, 3043.984
860.6149, 3213.198
861.0970, 3396.045
861.5792, 3590.454
862.0613, 3794.002
862.5434, 4006.156
863.0255, 4231.877
863.5076, 4472.977
863.9897, 4725.592
864.4719, 4990.824
864.9540, 5266.428
865.4361, 5552.465
865.9182, 5849.132
866.4003, 6154.650
866.8824, 6471.365
867.3646, 6795.650
867.8467, 7130.753
868.3288, 7470.897
868.8109, 7808.576
869.2930, 8142.837
869.7751, 8471.398
870.2573, 8792.592
870.7394, 9102.226
871.2215, 9396.186
871.7036, 9673.337
872.1857, 9934.719
872.6678, 10180.17
873.1500, 10405.71
873.6321, 10608.95
874.1142, 10796.56
874.5963, 10973.79
875.0784, 11139.45
875.5605, 11290.08
876.0427, 11427.20
876.5248, 11547.67
877.0069, 11649.65
877.4890, 11736.91
877.9711, 11812.35
878.4532, 11872.81
878.9354, 11915.50
879.4175, 11939.56
879.8996, 11941.97
880.3817, 11922.48
880.8638, 11879.06
881.3459, 11816.34
881.8281, 11725.41
882.3102, 11599.59
882.7923, 11433.06
883.2744, 11210.64
883.7565, 10924.76
884.2386, 10579.86
884.7208, 10179.61
885.2029, 9725.278
885.6850, 9219.706
886.1671, 8659.458
886.6492, 8084.221
887.1313, 7497.827
887.6135, 6921.055
888.0956, 6365.471
888.5777, 5836.425
889.0598, 5347.843
889.5419, 4906.944
890.0240, 4500.017
890.5062, 4126.255
890.9883, 3787.952
891.4704, 3489.124
891.9525, 3223.681
892.4346, 2984.102
892.9167, 2768.647
893.3989, 2574.126
893.8810, 2400.576
894.3631, 2244.911
894.8452, 2107.775
895.3273, 1984.749
895.8094, 1871.946
896.2916, 1767.563
896.7737, 1671.607
897.2558, 1583.771
897.7379, 1502.833
898.2200, 1428.086
898.7021, 1359.274
899.1843, 1296.581
899.6664, 1239.662
900.1485, 1187.150
900.6306, 1138.611
901.1127, 1093.569
901.5948, 1051.770
902.0770, 1012.983
902.5591, 974.9900
903.0412, 937.2505
903.5233, 902.9050
904.0054, 872.7851
904.4875, 845.1125
904.9697, 819.2244
905.4518, 794.7513
905.9339, 770.7532
906.4160, 746.5515
906.8981, 724.7568
907.3802, 706.8384
907.8624, 689.4396
908.3445, 671.4706
908.8266, 653.6221
909.3087, 636.5949
909.7908, 620.4689
910.2729, 605.4279
910.7551, 591.6083
911.2372, 578.7473
911.7193, 567.5264
912.2014, 556.6982
912.6835, 544.4313
913.1656, 531.5530
913.6478, 520.1249
914.1299, 510.7990
914.6120, 502.0958
915.0941, 492.5839
915.5762, 484.1854
916.0583, 475.8478
916.5405, 467.4396
917.0226, 459.9715
917.5047, 452.0185
917.9868, 444.5508
918.4689, 438.2458
918.9510, 432.5300
919.4332, 426.1904
919.9153, 419.1505
920.3974, 412.6243
920.8795, 406.7370
921.3616, 401.0443
921.8438, 395.1787
922.3259, 389.8023
922.8080, 385.9079
923.2901, 383.1921
923.7722, 379.3856
924.2543, 373.5524
924.7365, 368.1797
925.2186, 363.0982
925.7007, 358.8005
926.1828, 356.3704
926.6649, 354.3971
927.1470, 350.8050
927.6292, 345.3950
928.1113, 340.1474
928.5934, 335.2795
929.0755, 331.4012
929.5576, 329.6328
930.0397, 328.4983
930.5219, 326.1200
931.0040, 322.7689
931.4861, 319.9351
931.9682, 318.2647
932.4503, 316.6739
932.9324, 313.8698
933.4146, 310.4804
933.8967, 307.5167
934.3788, 305.0344
934.8609, 303.4526
935.3430, 302.7622
935.8251, 301.5675
936.3073, 298.7168
936.7894, 295.0117
937.2715, 292.3632
937.7536, 290.7788
938.2357, 289.2367
938.7178, 287.7309
939.2000, 285.9619
939.6821, 283.6027
940.1642, 281.4520
940.6463, 280.6601
941.1284, 281.0551
941.6105, 279.9872
942.0927, 276.0689
942.5748, 273.4480
943.0569, 273.5477
943.5390, 273.7318
944.0211, 272.8357
944.5032, 271.1487
944.9854, 268.8811
945.4675, 265.9465
945.9496, 263.6096
946.4317, 262.3120
946.9138, 261.3493
947.3959, 260.7895
947.8781, 260.1996
948.3602, 259.1596
948.8423, 257.7746
949.3244, 256.3806
949.8065, 255.0684
950.2886, 253.8595
950.7708, 252.9228
951.2529, 251.9717
951.7350, 250.6506
952.2171, 249.1427
952.6992, 247.6588
953.1813, 246.3177
953.6635, 245.3880
954.1456, 245.1218
954.6277, 244.9564
955.1098, 244.1290
955.5919, 242.7962
956.0740, 241.1016
956.5562, 239.2276
957.0383, 238.3005
957.5204, 238.6879
958.0025, 239.1884
958.4846, 238.5944
958.9667, 237.1762
959.4489, 235.7698
959.9310, 234.3683
960.4131, 233.1073
960.8952, 231.9441
961.3773, 231.3387
961.8594, 231.7957
962.3416, 232.2717
962.8237, 231.0904
963.3058, 228.2158
963.7879, 226.2308
964.2700, 225.3972
964.7521, 224.9127
965.2343, 225.1885
965.7164, 225.0947
966.1985, 223.3814
966.6806, 221.0140
967.1627, 220.1292
967.6448, 221.1505
968.1270, 221.4580
968.6091, 220.3367
969.0912, 219.1806
969.5733, 218.2170
970.0554, 217.5173
970.5375, 217.4217
971.0197, 217.6054
971.5018, 217.1965
971.9839, 215.8881
972.4660, 214.4639
972.9481, 212.9104
973.4302, 211.7179
973.9124, 211.6041
974.3945, 211.8437
974.8766, 211.4269
975.3587, 210.3406
975.8408, 209.2583
976.3229, 208.5051
976.8051, 207.8563
977.2872, 206.9815
977.7693, 206.1820
978.2514, 206.1527
978.7335, 206.4964
979.2156, 205.9872
979.6978, 204.4601
980.1799, 203.1684
980.6620, 203.1274
981.1441, 203.6814
981.6262, 203.8871
982.1083, 203.7579
982.5905, 203.2805
983.0726, 202.4869
983.5547, 201.6064
984.0368, 200.7291
984.5189, 199.8183
985.0010, 198.8188
985.4832, 197.7978
985.9653, 197.0811
986.4474, 196.6756
986.9295, 195.8714
987.4116, 194.5128
987.8937, 193.4136
988.3759, 193.0491
988.8580, 192.8815
989.3401, 192.1222
989.8222, 190.8069
990.3043, 189.7995
990.7864, 189.2668
991.2686, 188.4238
991.7507, 186.8171
992.2328, 185.6143
992.7149, 185.8582
993.1970, 186.6014
993.6791, 186.0497
994.1613, 183.9373
994.6434, 182.5508
995.1255, 182.4607
995.6076, 182.2309
996.0897, 181.4536
996.5718, 180.6809
997.0540, 180.2766
997.5361, 180.1007
998.0182, 179.8781
998.5003, 179.5848
998.9824, 179.2843
999.4645, 178.9680
999.9467, 178.6688
1000.429, 178.5663
1000.911, 178.3391
1001.393, 177.3996
1001.875, 176.1768
1002.357, 175.8729
1002.839, 176.9450
1003.321, 177.6245
1003.804, 176.8308
1004.286, 175.8962
1004.768, 175.6295
1005.250, 175.6562
1005.732, 175.6071
1006.214, 175.4118
1006.696, 175.0363
1007.178, 174.4393
1007.661, 173.8962
1008.143, 173.6212
1008.625, 173.4616
1009.107, 173.2633
1009.589, 173.0831
1010.071, 173.0620
1010.553, 173.1743
1011.035, 173.2259
1011.517, 173.1031
1012.000, 172.9932
1012.482, 173.1089
1012.964, 173.3421
1013.446, 173.6948
1013.928, 173.9894
1014.410, 173.6302
1014.892, 172.6419
1015.374, 171.8969
1015.857, 171.9648
1016.339, 172.3931
1016.821, 172.7540
1017.303, 172.9110
1017.785, 172.2071
1018.267, 170.8952
1018.749, 170.3091
1019.231, 170.7439
1019.713, 171.3897
1020.196, 171.7005
1020.678, 171.5919
1021.160, 170.5110
1021.642, 168.7608
1022.124, 168.5591
1022.606, 169.8844
1023.088, 170.7411
1023.570, 170.5398
1024.052, 170.1543
1024.535, 170.3365
1025.017, 170.7208
1025.499, 170.2303
1025.981, 168.8396
1026.463, 168.3151
1026.945, 168.7989
1027.427, 169.1632
1027.909, 169.0061
1028.392, 168.9513
1028.874, 169.6541
1029.356, 170.7086
1029.838, 170.7672
1030.320, 169.6081
1030.802, 168.6956
1031.284, 167.9946
1031.766, 167.7472
1032.249, 168.1706
1032.731, 168.7437
1033.213, 169.0223
1033.695, 169.0547
1034.177, 168.9885
1034.659, 168.7157
1035.141, 168.7611
1035.623, 169.4192
1036.105, 169.7177
1036.588, 169.0974
1037.070, 168.4008
1037.552, 168.4460
1038.034, 169.0265
1038.516, 169.3209
1038.998, 169.2312
1039.480, 169.1208
1039.962, 168.9185
1040.444, 168.8098
1040.927, 168.9596
1041.409, 169.1082
1041.891, 168.8955
1042.373, 168.4874
1042.855, 168.5886
1043.337, 169.6481
1043.819, 170.1507
1044.301, 169.5623
1044.784, 169.1194
1045.266, 169.1459
1045.748, 169.4565
1046.230, 170.0558
1046.712, 170.8057
1047.194, 171.2290
1047.676, 171.0381
1048.158, 171.2819
1048.641, 173.1476
1049.123, 174.0434
1049.605, 172.1930
1050.087, 169.8848
1050.569, 168.8031
1051.051, 168.8888
1051.533, 169.8206
1052.015, 171.9190
1052.497, 173.4654
1052.979, 174.2446
1053.462, 174.3020
1053.944, 172.9253
1054.426, 171.4632
1054.908, 171.1690
1055.390, 171.7072
1055.872, 172.0706
1056.354, 172.0672
1056.836, 172.0652
1057.319, 172.1341
1057.801, 172.2490
1058.283, 172.4997
1058.765, 172.7029
1059.247, 172.5723
1059.729, 172.3044
1060.211, 172.4615
1060.693, 173.2216
1061.176, 173.5608
1061.658, 172.3445
1062.140, 171.6907
1062.622, 173.1729
1063.104, 174.9983
1063.586, 175.8328
1064.068, 175.7508
1064.550, 174.9749
1065.032, 173.5378
1065.515, 172.4864
1065.997, 172.4992
1066.479, 172.5970
1066.961, 172.2182
1067.443, 171.8618
1067.925, 172.1393
1068.407, 172.6758
1068.889, 172.6342
1069.371, 171.9038
1069.854, 171.4825
1070.336, 172.1137
1070.818, 172.6844
1071.300, 172.7930
1071.782, 172.5533
1072.264, 171.6832
1072.746, 170.7139
1073.228, 170.6800
1073.711, 171.5873
1074.193, 171.9498
1074.675, 170.7858
1075.157, 169.6421
1075.639, 169.4442
1076.121, 169.3378
1076.603, 168.5106
1077.085, 167.4235
1077.568, 166.8697
1078.050, 166.8553
1078.532, 166.6870
1079.014, 165.9207
1079.496, 165.4157
1079.978, 166.0816
1080.460, 166.6165
1080.942, 165.8837
1081.424, 164.5817
1081.906, 163.5715
1082.389, 162.9449
1082.871, 162.4012
1083.353, 161.7367
1083.835, 161.5608
1084.317, 162.9622
1084.799, 164.0296
1085.281, 163.1881
1085.763, 161.6105
1086.245, 160.4917
1086.728, 159.9366
1087.210, 159.8103
1087.692, 160.1782
1088.174, 160.2229
1088.656, 159.0557
1089.138, 158.1182
1089.620, 158.7200
1090.102, 159.5041
1090.585, 158.9120
1091.067, 157.4451
1091.549, 156.5271
1092.031, 156.4821
1092.513, 156.4908
1092.995, 156.1068
1093.477, 155.8794
1093.959, 156.5491
1094.442, 157.0068
1094.924, 155.8834
1095.406, 154.0932
1095.888, 153.4444
1096.370, 154.1459
1096.852, 154.5643
1097.334, 154.1303
1097.816, 153.3863
1098.298, 151.8687
1098.781, 150.7926
1099.263, 151.6162
1099.745, 152.9874
1100.227, 152.8645
1100.709, 151.3111
1101.191, 150.2232
1101.673, 150.2429
1102.155, 150.3837
1102.637, 150.5692
1103.120, 150.5873
1103.602, 150.1390
1104.084, 149.6117
1104.566, 149.4856
1105.048, 149.6470
1105.530, 149.5533
1106.012, 149.0137
1106.494, 148.5799
1106.977, 148.3293
1107.459, 148.2297
1107.941, 148.3787
1108.423, 148.5737
1108.905, 148.8538
1109.387, 149.0042
1109.869, 148.4246
1110.351, 146.8844
1110.833, 145.9102
1111.316, 145.9516
1111.798, 146.1537
1112.280, 146.7191
1112.762, 147.0052
1113.244, 146.3286
1113.726, 145.3001
1114.208, 144.9241
1114.690, 145.2346
1115.172, 145.1788
1115.655, 144.3019
1116.137, 143.7575
1116.619, 143.8711
1117.101, 143.9568
1117.583, 143.6062
1118.065, 143.2332
1118.547, 143.3809
1119.029, 143.9084
1119.512, 144.0620
1119.994, 143.8475
1120.476, 143.1912
1120.958, 141.5553
1121.440, 140.5316
1121.922, 140.8028
1122.404, 141.4568
1122.886, 141.8602
1123.369, 142.0788
1123.851, 142.2849
1124.333, 142.5053
1124.815, 142.5066
1125.297, 142.2898
1125.779, 141.7928
1126.261, 140.8077
1126.743, 140.1097
1127.225, 140.2119
1127.708, 140.6955
1128.190, 141.0072
1128.672, 141.1233
1129.154, 140.7272
1129.636, 139.7149
1130.118, 138.9203
1130.600, 138.4153
1131.082, 138.1673
1131.564, 138.1806
1132.047, 138.4068
1132.529, 138.8869
1133.011, 139.3569
1133.493, 138.7922
1133.975, 137.2445
1134.457, 136.7293
1134.939, 137.2935
1135.421, 137.8358
1135.904, 138.0784
1136.386, 138.0438
1136.868, 137.7242
1137.350, 137.3111
1137.832, 137.1833
1138.314, 137.2079
1138.796, 136.6171
1139.278, 135.6355
1139.760, 135.6156
1140.243, 136.6030
1140.725, 137.3911
1141.207, 137.4553
1141.689, 137.1264
1142.171, 136.6742
1142.653, 136.1456
1143.135, 135.6366
1143.617, 135.1113
1144.099, 134.3358
1144.582, 133.4716
1145.064, 133.0534
1145.546, 133.2080
1146.028, 133.8187
1146.510, 134.9282
1146.992, 135.8571
1147.474, 135.7769
1147.956, 135.1904
1148.439, 134.4521
1148.921, 133.8319
1149.403, 133.9340
1149.885, 134.5494
1150.367, 134.7695
1150.849, 134.2635
1151.331, 133.7009
1151.813, 133.4806
1152.296, 133.3981
1152.778, 133.3428
1153.260, 133.3192
1153.742, 133.4563
1154.224, 133.5736
1154.706, 133.2684
1155.188, 132.5507
1155.670, 132.0076
1156.152, 131.8530
1156.635, 131.8716
1157.117, 132.1437
1157.599, 132.3828
1158.081, 132.2570
1158.563, 132.1585
1159.045, 132.7245
1159.527, 133.6469
1160.009, 133.8326
1160.491, 132.8964
1160.974, 132.4553
1161.456, 133.2346
1161.938, 133.7220
1162.420, 133.1954
1162.902, 132.7737
1163.384, 133.4630
1163.866, 134.3323
1164.348, 133.8692
1164.831, 132.1952
1165.313, 131.3501
1165.795, 131.5925
1166.277, 132.0390
1166.759, 132.9382
1167.241, 133.2523
1167.723, 132.3786
1168.205, 131.4691
1168.688, 131.5622
1169.170, 132.2319
1169.652, 132.4141
1170.134, 132.0975
1170.616, 132.0802
1171.098, 132.4008
1171.580, 132.4507
1172.062, 132.1249
1172.544, 131.4189
1173.026, 130.2647
1173.509, 129.5199
1173.991, 130.4015
1174.473, 132.0700
1174.955, 132.1086
1175.437, 130.9105
1175.919, 130.0734
1176.401, 129.6632
1176.883, 129.3773
1177.366, 129.1295
1177.848, 128.9257
1178.330, 128.7558
1178.812, 128.7749
1179.294, 129.3446
1179.776, 130.0739
1180.258, 130.6439
1180.740, 130.7957
1181.223, 129.6165
1181.705, 127.6704
1182.187, 126.7882
1182.669, 127.4337
1183.151, 128.0561
1183.633, 127.5965
1184.115, 127.0976
1184.597, 127.2197
1185.079, 127.6141
1185.562, 128.2784
1186.044, 128.8370
1186.526, 128.6026
1187.008, 127.8147
1187.490, 127.5547
1187.972, 128.1649
1188.454, 128.8302
1188.936, 129.8950
1189.418, 130.2412
1189.901, 128.7751
1190.383, 127.2672
1190.865, 127.0756
1191.347, 127.4599
1191.829, 127.2275
1192.311, 126.4269
1192.793, 125.8401
1193.275, 125.3559
1193.758, 125.4307
1194.240, 126.4507
1194.722, 127.0648
1195.204, 126.7530
1195.686, 126.2055
1196.168, 125.8836
1196.650, 125.8102
1197.132, 126.0753
1197.615, 126.6515
1198.097, 127.3248
1198.579, 128.0840
1199.061, 127.5139
1199.543, 125.4969
1200.025, 124.2076
1200.507, 124.5009
1200.989, 125.5897
1201.471, 126.9493
1201.953, 128.0422
1202.436, 127.5699
1202.918, 126.2893
1203.400, 125.9562
1203.882, 126.2811
1204.364, 126.2988
1204.846, 125.9408
1205.328, 125.7261
1205.810, 125.8591
1206.293, 125.9640
1206.775, 125.6136
1207.257, 125.3130
1207.739, 125.6615
1208.221, 126.0780
1208.703, 125.8577
1209.185, 125.3854
1209.667, 125.2845
1210.150, 125.5903
1210.632, 126.0579
1211.114, 126.7721
1211.596, 127.1147
1212.078, 126.6640
1212.560, 126.1924
1213.042, 125.9352
1213.524, 125.7491
1214.006, 125.5609
1214.489, 125.3642
1214.971, 125.1289
1215.453, 124.8663
1215.935, 124.7064
1216.417, 124.6105
1216.899, 124.7502
1217.381, 125.1654
1217.863, 125.7628
1218.345, 126.6310
1218.828, 127.1547
1219.310, 126.8675
1219.792, 126.1019
1220.274, 125.2873
1220.756, 124.5502
1221.238, 124.6960
1221.720, 125.5151
1222.202, 125.7505
1222.685, 125.3888
1223.167, 125.2045
1223.649, 125.4125
1224.131, 125.6068
1224.613, 125.5001
1225.095, 125.3411
1225.577, 125.4966
1226.059, 125.6746
1226.542, 125.5546
1227.024, 125.1894
1227.506, 124.3368
1227.988, 123.4175
1228.470, 123.5731
1228.952, 124.9398
1229.434, 125.8865
1229.916, 125.3799
1230.398, 125.0769
1230.880, 125.9591
1231.363, 126.6776
1231.845, 126.4346
1232.327, 125.8112
1232.809, 125.1836
1233.291, 124.6716
1233.773, 124.5252
1234.255, 124.7726
1234.737, 125.0451
1235.220, 125.4745
1235.702, 125.4942
1236.184, 124.8898
1236.666, 124.4208
1237.148, 124.3355
1237.630, 124.6425
1238.112, 125.4193
1238.594, 126.3615
1239.077, 126.8671
1239.559, 126.9717
1240.041, 126.7688
1240.523, 126.3450
1241.005, 126.0926
1241.487, 126.0548
1241.969, 126.2663
1242.451, 126.6657
1242.933, 126.6113
1243.416, 125.4907
1243.898, 124.2887
1244.380, 123.9847
1244.862, 124.1048
1245.344, 124.2833
1245.826, 124.4864
1246.308, 124.9173
1246.790, 125.3030
1247.272, 124.8039
1247.755, 123.3077
1248.237, 122.4694
1248.719, 123.1272
1249.201, 123.8741
1249.683, 124.7532
1250.165, 125.3027
1250.647, 125.0703
1251.129, 124.7828
1251.612, 125.0974
1252.094, 124.9013
1252.576, 125.6272
1253.058, 125.0667
1253.540, 124.9099
1254.022, 125.2463
1254.504, 124.8865
1254.986, 123.6799
1255.469, 122.9644
1255.951, 123.1708
1256.433, 123.6536
1256.915, 123.9779
1257.397, 124.0620
1257.879, 123.5865
1258.361, 122.9302
1258.843, 122.7342
1259.325, 122.9464
1259.807, 123.7255
1260.290, 124.7436
1260.772, 125.1998
1261.254, 125.0095
1261.736, 124.8885
1262.218, 125.2521
1262.700, 125.3145
1263.182, 124.2256
1263.664, 123.3837
1264.147, 123.6654
1264.629, 124.2497
1265.111, 124.4667
1265.593, 124.5849
1266.075, 125.3019
1266.557, 125.0816
1267.039, 124.7026
1267.521, 124.7766
1268.004, 123.6620
1268.486, 123.0876
1268.968, 123.1944
1269.450, 124.1400
1269.932, 124.8327
1270.414, 124.6599
1270.896, 124.2018
1271.378, 124.1580
1271.860, 124.2559
1272.343, 123.7175
1272.825, 122.9150
1273.307, 122.7903
1273.789, 123.2091
1274.271, 123.9920
1274.753, 124.8091
1275.235, 124.5816
1275.717, 122.9637
1276.199, 121.8229
1276.682, 122.7272
1277.164, 123.6010
1277.646, 123.3393
1278.128, 122.8266
1278.610, 122.6080
1279.092, 122.4363
1279.574, 121.8182
1280.056, 121.0777
1280.539, 121.2461
1281.021, 122.4176
1281.503, 122.5663
1281.985, 121.3614
1282.467, 120.3402
1282.949, 119.5834
1283.431, 119.2931
1283.913, 119.5906
1284.396, 119.7297
1284.878, 119.1597
1285.360, 118.3134
1285.842, 117.8368
1286.324, 117.5556
1286.806, 117.2005
##END=



