##NAMES=Hubnerite
##RRUFFID=R050556
##IDEAL CHEMISTRY=Mn^2+^W^6+^O_4_
##LOCALITY=Pasto Bueno, Ancash Department, Peru
##OWNER=RRUFF
##SOURCE=Dave Bunk Minerals
##DESCRIPTION=Blackish brown bladed crystal associated with quartz
##STATUS=The identification of this mineral has been confirmed by X-ray diffraction and chemical analysis
##URL=rruff.info/R050556
##MEASURED CHEMISTRY=Mn^2+^_0.98_W_1.00_O_4_
92.06543, 605.1796
92.54755, 595.5157
93.02966, 596.0795
93.51178, 612.5290
93.99390, 622.5209
94.47601, 621.2201
94.95813, 612.2817
95.44025, 602.6121
95.92236, 597.6447
96.40448, 597.5527
96.88660, 597.0098
97.36871, 595.7670
97.85082, 594.8309
98.33294, 595.9722
98.81506, 599.0868
99.29717, 599.6580
99.77929, 593.2564
100.2614, 580.7855
100.7435, 571.9981
101.2256, 569.4638
101.7078, 571.9702
102.1899, 576.8728
102.6720, 582.5309
103.1541, 592.4452
103.6362, 607.5250
104.1183, 627.6389
104.6005, 653.6873
105.0826, 685.2446
105.5647, 721.7345
106.0468, 768.2818
106.5289, 829.5333
107.0110, 898.6725
107.4931, 977.4688
107.9753, 1066.275
108.4574, 1154.105
108.9395, 1219.527
109.4216, 1254.342
109.9037, 1275.871
110.3858, 1280.461
110.8680, 1276.638
111.3501, 1271.773
111.8322, 1269.636
112.3143, 1270.617
112.7964, 1277.890
113.2785, 1288.100
113.7607, 1307.135
114.2428, 1339.661
114.7249, 1382.854
115.2070, 1430.163
115.6891, 1476.823
116.1712, 1523.358
116.6534, 1571.460
117.1355, 1620.305
117.6176, 1671.306
118.0997, 1725.227
118.5818, 1782.213
119.0639, 1842.678
119.5461, 1905.803
120.0282, 1972.203
120.5103, 2046.023
120.9924, 2125.449
121.4745, 2213.076
121.9566, 2313.607
122.4388, 2420.055
122.9209, 2554.548
123.4030, 2706.842
123.8851, 2885.562
124.3672, 3125.420
124.8493, 3417.477
125.3315, 3752.630
125.8136, 4278.078
126.2957, 5038.803
126.7778, 5982.848
127.2599, 7290.160
127.7420, 8882.498
128.2242, 10398.43
128.7063, 11388.94
129.1884, 11915.26
129.6705, 11661.49
130.1526, 10269.73
130.6347, 8477.648
131.1169, 6728.395
131.5990, 5193.691
132.0811, 3896.792
132.5632, 2900.073
133.0453, 2381.053
133.5274, 1965.663
134.0096, 1669.404
134.4917, 1462.095
134.9738, 1309.689
135.4559, 1200.172
135.9380, 1126.268
136.4201, 1064.958
136.9023, 1016.882
137.3844, 976.7001
137.8665, 944.0062
138.3486, 918.1232
138.8307, 896.0485
139.3128, 876.7438
139.7950, 860.6810
140.2771, 848.0565
140.7592, 839.9694
141.2413, 834.1556
141.7234, 828.2671
142.2055, 822.0759
142.6877, 817.1237
143.1698, 814.9976
143.6519, 814.4163
144.1340, 814.1047
144.6161, 813.5931
145.0982, 813.0277
145.5803, 812.4575
146.0625, 810.3123
146.5446, 811.0236
147.0267, 817.0830
147.5088, 826.4036
147.9909, 835.9415
148.4730, 843.8580
148.9552, 850.2012
149.4373, 855.6884
149.9194, 858.6317
150.4015, 862.2991
150.8836, 867.5916
151.3657, 874.3260
151.8479, 882.0225
152.3300, 890.3571
152.8121, 899.7220
153.2942, 907.5699
153.7763, 912.4949
154.2584, 917.4811
154.7406, 924.1827
155.2227, 932.6055
155.7048, 941.6743
156.1869, 950.2692
156.6690, 958.2287
157.1511, 966.0137
157.6333, 971.6540
158.1154, 978.1823
158.5975, 989.4959
159.0796, 1006.568
159.5617, 1024.511
160.0438, 1036.340
160.5260, 1041.900
161.0081, 1047.462
161.4902, 1054.029
161.9723, 1061.528
162.4544, 1069.697
162.9365, 1078.149
163.4187, 1087.935
163.9008, 1100.817
164.3829, 1116.587
164.8650, 1131.853
165.3471, 1144.662
165.8292, 1155.252
166.3113, 1164.851
166.7935, 1172.700
167.2756, 1180.571
167.7577, 1189.753
168.2398, 1200.306
168.7219, 1211.571
169.2040, 1222.904
169.6862, 1234.233
170.1683, 1245.954
170.6504, 1260.499
171.1325, 1273.767
171.6146, 1282.201
172.0967, 1285.472
172.5789, 1287.726
173.0610, 1295.519
173.5431, 1312.531
174.0252, 1326.735
174.5073, 1336.620
174.9894, 1344.498
175.4716, 1351.260
175.9537, 1357.385
176.4358, 1363.977
176.9179, 1373.321
177.4000, 1387.659
177.8821, 1402.024
178.3643, 1417.268
178.8464, 1432.054
179.3285, 1444.691
179.8106, 1454.542
180.2927, 1462.571
180.7748, 1471.274
181.2570, 1479.333
181.7391, 1489.701
182.2212, 1501.899
182.7033, 1516.744
183.1854, 1535.770
183.6675, 1559.996
184.1497, 1588.171
184.6318, 1616.728
185.1139, 1646.390
185.5960, 1675.257
186.0781, 1704.080
186.5602, 1731.775
187.0423, 1754.761
187.5245, 1769.946
188.0066, 1780.186
188.4887, 1793.339
188.9708, 1811.770
189.4529, 1828.802
189.9350, 1837.757
190.4172, 1839.571
190.8993, 1844.944
191.3814, 1859.341
191.8635, 1880.172
192.3456, 1903.455
192.8277, 1929.317
193.3099, 1956.450
193.7920, 1983.299
194.2741, 2009.623
194.7562, 2037.875
195.2383, 2065.509
195.7204, 2097.440
196.2026, 2138.874
196.6847, 2191.960
197.1668, 2253.208
197.6489, 2316.311
198.1310, 2378.123
198.6131, 2451.659
199.0953, 2536.728
199.5774, 2635.821
200.0595, 2749.804
200.5416, 2878.861
201.0237, 3026.534
201.5058, 3198.068
201.9880, 3388.907
202.4701, 3618.433
202.9522, 3904.616
203.4343, 4216.470
203.9164, 4534.891
204.3985, 4852.479
204.8807, 5149.642
205.3628, 5368.317
205.8449, 5527.246
206.3270, 5560.302
206.8091, 5435.149
207.2912, 5197.634
207.7733, 4881.052
208.2555, 4500.905
208.7376, 4078.147
209.2197, 3690.823
209.7018, 3339.650
210.1839, 3026.986
210.6660, 2757.647
211.1482, 2527.471
211.6303, 2333.162
212.1124, 2173.616
212.5945, 2045.958
213.0766, 1936.806
213.5587, 1852.505
214.0409, 1777.168
214.5230, 1707.547
215.0051, 1644.746
215.4872, 1590.415
215.9693, 1545.641
216.4514, 1509.696
216.9336, 1481.100
217.4157, 1463.633
217.8978, 1446.543
218.3799, 1424.923
218.8620, 1400.860
219.3441, 1379.106
219.8263, 1361.751
220.3084, 1348.744
220.7905, 1339.574
221.2726, 1336.181
221.7547, 1332.695
222.2368, 1325.266
222.7190, 1314.978
223.2011, 1306.357
223.6832, 1301.802
224.1653, 1299.763
224.6474, 1296.643
225.1295, 1291.591
225.6117, 1287.458
226.0938, 1286.711
226.5759, 1288.978
227.0580, 1291.086
227.5401, 1291.294
228.0222, 1291.286
228.5043, 1293.377
228.9865, 1298.136
229.4686, 1303.104
229.9507, 1305.109
230.4328, 1304.189
230.9149, 1306.343
231.3970, 1315.855
231.8792, 1327.556
232.3613, 1336.828
232.8434, 1342.974
233.3255, 1348.848
233.8076, 1356.464
234.2897, 1365.682
234.7719, 1378.296
235.2540, 1397.259
235.7361, 1418.386
236.2182, 1439.080
236.7003, 1459.052
237.1824, 1479.713
237.6646, 1503.270
238.1467, 1530.618
238.6288, 1556.576
239.1109, 1582.751
239.5930, 1605.651
240.0751, 1621.997
240.5573, 1631.951
241.0394, 1639.776
241.5215, 1649.969
242.0036, 1662.801
242.4857, 1677.140
242.9678, 1694.004
243.4500, 1711.462
243.9321, 1727.901
244.4142, 1743.548
244.8963, 1760.488
245.3784, 1781.419
245.8605, 1807.438
246.3427, 1833.416
246.8248, 1856.666
247.3069, 1882.020
247.7890, 1912.000
248.2711, 1946.705
248.7532, 1984.364
249.2354, 2023.555
249.7175, 2063.994
250.1996, 2107.193
250.6817, 2147.854
251.1638, 2195.130
251.6459, 2251.789
252.1281, 2318.991
252.6102, 2396.867
253.0923, 2485.426
253.5744, 2582.896
254.0565, 2701.782
254.5386, 2842.163
255.0208, 2999.134
255.5029, 3187.429
255.9850, 3395.113
256.4671, 3593.426
256.9492, 3763.473
257.4313, 3908.676
257.9135, 3969.997
258.3956, 3955.105
258.8777, 3872.040
259.3598, 3695.975
259.8419, 3448.798
260.3240, 3182.563
260.8062, 2931.429
261.2883, 2695.441
261.7704, 2504.310
262.2525, 2360.791
262.7346, 2245.160
263.2167, 2155.468
263.6989, 2087.956
264.1810, 2037.029
264.6631, 1999.786
265.1452, 1975.640
265.6273, 1959.144
266.1094, 1953.334
266.5916, 1950.121
267.0737, 1946.232
267.5558, 1942.733
268.0379, 1942.494
268.5200, 1947.344
269.0021, 1956.391
269.4843, 1966.013
269.9664, 1974.085
270.4485, 1984.996
270.9306, 2002.333
271.4127, 2023.455
271.8948, 2042.472
272.3770, 2056.410
272.8591, 2067.408
273.3412, 2081.356
273.8233, 2098.383
274.3054, 2116.960
274.7875, 2138.410
275.2697, 2160.848
275.7518, 2180.180
276.2339, 2194.458
276.7160, 2206.448
277.1981, 2221.008
277.6802, 2237.865
278.1623, 2256.780
278.6444, 2279.891
279.1266, 2304.672
279.6087, 2326.019
280.0908, 2341.966
280.5729, 2356.803
281.0550, 2376.652
281.5371, 2401.274
282.0193, 2427.528
282.5014, 2456.401
282.9835, 2485.887
283.4656, 2512.155
283.9477, 2533.880
284.4298, 2556.122
284.9120, 2585.653
285.3941, 2621.346
285.8762, 2654.004
286.3583, 2678.371
286.8404, 2700.264
287.3225, 2726.816
287.8047, 2758.939
288.2868, 2793.485
288.7689, 2829.442
289.2510, 2866.002
289.7331, 2901.126
290.2152, 2932.229
290.6974, 2962.874
291.1795, 2997.291
291.6616, 3035.685
292.1437, 3073.005
292.6258, 3103.907
293.1079, 3132.407
293.5901, 3168.209
294.0722, 3216.425
294.5543, 3267.584
295.0364, 3313.438
295.5185, 3354.464
296.0006, 3395.694
296.4828, 3438.025
296.9649, 3483.190
297.4470, 3532.954
297.9291, 3587.445
298.4112, 3646.364
298.8933, 3710.822
299.3755, 3779.963
299.8576, 3849.650
300.3397, 3916.044
300.8218, 3985.473
301.3039, 4064.439
301.7860, 4152.550
302.2682, 4249.721
302.7503, 4358.670
303.2324, 4477.527
303.7145, 4601.122
304.1966, 4729.450
304.6787, 4861.853
305.1609, 4996.818
305.6430, 5134.764
306.1251, 5277.995
306.6072, 5428.068
307.0893, 5584.161
307.5714, 5746.071
308.0536, 5915.701
308.5357, 6085.161
309.0178, 6244.465
309.4999, 6397.209
309.9820, 6553.540
310.4641, 6714.052
310.9463, 6880.607
311.4284, 7055.306
311.9105, 7238.060
312.3926, 7425.618
312.8747, 7607.710
313.3568, 7794.213
313.8390, 8003.675
314.3211, 8245.744
314.8032, 8505.880
315.2853, 8765.006
315.7674, 9022.096
316.2495, 9307.986
316.7317, 9637.518
317.2138, 10009.57
317.6959, 10411.76
318.1780, 10839.23
318.6601, 11308.00
319.1422, 11832.68
319.6243, 12412.33
320.1064, 13026.40
320.5886, 13673.10
321.0707, 14350.71
321.5528, 15067.31
322.0349, 15829.34
322.5170, 16574.95
322.9991, 17307.24
323.4813, 17999.08
323.9634, 18592.61
324.4455, 19089.00
324.9276, 19448.54
325.4097, 19629.70
325.8918, 19650.71
326.3740, 19513.85
326.8561, 19194.86
327.3382, 18727.84
327.8203, 18147.22
328.3024, 17443.23
328.7845, 16679.91
329.2667, 15866.98
329.7488, 15030.51
330.2309, 14232.10
330.7130, 13487.64
331.1951, 12786.20
331.6772, 12116.57
332.1594, 11478.79
332.6415, 10880.84
333.1236, 10325.70
333.6057, 9816.049
334.0878, 9340.625
334.5699, 8897.935
335.0521, 8496.850
335.5342, 8146.815
336.0163, 7845.156
336.4984, 7571.663
336.9805, 7324.300
337.4626, 7099.187
337.9448, 6891.917
338.4269, 6700.060
338.9090, 6522.054
339.3911, 6355.220
339.8732, 6201.622
340.3553, 6068.710
340.8375, 5959.876
341.3196, 5864.409
341.8017, 5771.718
342.2838, 5681.921
342.7659, 5601.374
343.2480, 5533.459
343.7302, 5474.083
344.2123, 5419.442
344.6944, 5369.437
345.1765, 5325.338
345.6586, 5289.507
346.1407, 5261.315
346.6229, 5232.618
347.1050, 5199.011
347.5871, 5169.054
348.0692, 5148.813
348.5513, 5136.988
349.0334, 5127.909
349.5156, 5118.695
349.9977, 5110.894
350.4798, 5109.477
350.9619, 5118.138
351.4440, 5124.567
351.9261, 5122.024
352.4083, 5115.365
352.8904, 5112.170
353.3725, 5114.655
353.8546, 5121.639
354.3367, 5131.873
354.8188, 5145.605
355.3010, 5161.708
355.7831, 5181.108
356.2652, 5202.179
356.7473, 5223.911
357.2294, 5246.075
357.7115, 5268.613
358.1937, 5292.376
358.6758, 5317.372
359.1579, 5336.087
359.6400, 5337.959
360.1221, 5344.376
360.6042, 5368.436
361.0863, 5405.855
361.5685, 5444.394
362.0506, 5477.567
362.5327, 5506.332
363.0148, 5534.500
363.4969, 5560.557
363.9790, 5587.904
364.4612, 5615.838
364.9433, 5645.857
365.4254, 5680.739
365.9075, 5721.241
366.3896, 5763.217
366.8717, 5800.187
367.3539, 5831.146
367.8360, 5858.309
368.3181, 5870.659
368.8002, 5887.735
369.2823, 5926.001
369.7644, 5983.856
370.2466, 6046.781
370.7287, 6102.415
371.2108, 6150.520
371.6929, 6193.987
372.1750, 6228.185
372.6571, 6263.123
373.1393, 6301.928
373.6214, 6343.636
374.1035, 6386.638
374.5856, 6429.858
375.0677, 6473.689
375.5498, 6519.892
376.0320, 6570.116
376.5141, 6620.554
376.9962, 6669.521
377.4783, 6719.306
377.9604, 6772.846
378.4425, 6830.573
378.9247, 6888.190
379.4068, 6939.417
379.8889, 6981.964
380.3710, 7026.098
380.8531, 7077.846
381.3352, 7125.822
381.8174, 7163.375
382.2995, 7192.395
382.7816, 7219.176
383.2637, 7247.426
383.7458, 7277.413
384.2279, 7311.805
384.7101, 7359.282
385.1922, 7397.286
385.6743, 7409.323
386.1564, 7413.085
386.6385, 7431.848
387.1206, 7475.938
387.6028, 7530.612
388.0849, 7571.538
388.5670, 7594.834
389.0491, 7622.341
389.5312, 7657.524
390.0133, 7700.251
390.4955, 7749.688
390.9776, 7806.151
391.4597, 7872.909
391.9418, 7948.742
392.4239, 8035.829
392.9060, 8146.250
393.3882, 8285.165
393.8703, 8440.974
394.3524, 8612.152
394.8345, 8793.126
395.3166, 8974.420
395.7987, 9169.218
396.2809, 9348.632
396.7630, 9484.347
397.2451, 9579.736
397.7272, 9593.122
398.2093, 9490.454
398.6914, 9295.854
399.1736, 9053.266
399.6557, 8749.841
400.1378, 8438.722
400.6199, 8139.527
401.1020, 7856.009
401.5841, 7598.942
402.0662, 7372.150
402.5483, 7168.937
403.0305, 6986.795
403.5126, 6824.086
403.9947, 6676.909
404.4768, 6548.061
404.9589, 6432.070
405.4410, 6327.559
405.9232, 6233.691
406.4053, 6142.933
406.8874, 6050.760
407.3695, 5958.119
407.8516, 5866.423
408.3337, 5773.946
408.8159, 5684.617
409.2980, 5599.884
409.7801, 5518.701
410.2622, 5439.146
410.7443, 5359.817
411.2264, 5282.579
411.7086, 5210.279
412.1907, 5146.256
412.6728, 5079.433
413.1549, 5006.111
413.6370, 4932.945
414.1191, 4863.628
414.6013, 4798.586
415.0834, 4737.413
415.5655, 4680.439
416.0476, 4627.054
416.5297, 4570.443
417.0118, 4503.890
417.4940, 4442.093
417.9761, 4392.191
418.4582, 4346.544
418.9403, 4295.156
419.4224, 4234.097
419.9045, 4170.224
420.3867, 4115.299
420.8688, 4072.992
421.3509, 4030.800
421.8330, 3988.805
422.3151, 3946.580
422.7972, 3904.716
423.2794, 3862.805
423.7615, 3819.194
424.2436, 3771.917
424.7257, 3721.777
425.2078, 3672.820
425.6899, 3621.637
426.1721, 3578.231
426.6542, 3549.797
427.1363, 3528.402
427.6184, 3504.852
428.1005, 3476.202
428.5826, 3445.086
429.0648, 3414.402
429.5469, 3383.962
430.0290, 3354.327
430.5111, 3326.407
430.9932, 3298.646
431.4753, 3268.568
431.9575, 3236.755
432.4396, 3207.916
432.9217, 3187.670
433.4038, 3170.826
433.8859, 3146.981
434.3680, 3114.902
434.8502, 3084.168
435.3323, 3061.360
435.8144, 3044.393
436.2965, 3026.342
436.7786, 3005.028
437.2607, 2985.583
437.7429, 2972.627
438.2250, 2963.560
438.7071, 2952.880
439.1892, 2939.159
439.6713, 2921.997
440.1534, 2899.035
440.6356, 2866.976
441.1177, 2845.233
441.5998, 2844.863
442.0819, 2847.294
442.5640, 2838.569
443.0461, 2819.842
443.5282, 2800.323
444.0103, 2786.312
444.4925, 2776.647
444.9746, 2764.922
445.4567, 2748.346
445.9388, 2733.208
446.4209, 2719.519
446.9030, 2708.003
447.3852, 2700.779
447.8673, 2697.765
448.3494, 2694.322
448.8315, 2683.505
449.3136, 2662.619
449.7957, 2647.925
450.2779, 2647.014
450.7600, 2644.791
451.2421, 2634.739
451.7242, 2619.704
452.2063, 2605.773
452.6884, 2596.553
453.1706, 2589.779
453.6527, 2579.914
454.1348, 2565.683
454.6169, 2552.567
455.0990, 2542.796
455.5811, 2534.102
456.0633, 2524.602
456.5454, 2514.279
457.0275, 2505.283
457.5096, 2501.092
457.9917, 2499.706
458.4738, 2493.760
458.9560, 2482.283
459.4381, 2467.650
459.9202, 2448.296
460.4023, 2427.316
460.8844, 2410.689
461.3665, 2400.703
461.8487, 2393.563
462.3308, 2387.978
462.8129, 2383.151
463.2950, 2376.485
463.7771, 2367.237
464.2592, 2355.350
464.7414, 2339.090
465.2235, 2317.051
465.7056, 2300.444
466.1877, 2295.288
466.6698, 2292.241
467.1519, 2284.705
467.6341, 2272.403
468.1162, 2256.736
468.5983, 2238.040
469.0804, 2217.507
469.5625, 2201.340
470.0446, 2194.153
470.5268, 2185.593
471.0089, 2175.496
471.4910, 2163.390
471.9731, 2147.779
472.4552, 2129.008
472.9373, 2110.284
473.4195, 2095.165
473.9016, 2083.895
474.3837, 2073.172
474.8658, 2065.923
475.3479, 2055.815
475.8300, 2038.590
476.3122, 2018.233
476.7943, 2000.270
477.2764, 1987.139
477.7585, 1976.440
478.2406, 1964.226
478.7227, 1950.238
479.2049, 1937.582
479.6870, 1927.880
480.1691, 1918.599
480.6512, 1908.368
481.1333, 1897.128
481.6154, 1884.684
482.0976, 1868.600
482.5797, 1852.299
483.0618, 1842.934
483.5439, 1840.814
484.0260, 1835.636
484.5081, 1821.129
484.9902, 1801.148
485.4724, 1783.649
485.9545, 1768.163
486.4366, 1756.134
486.9187, 1750.857
487.4008, 1748.021
487.8829, 1740.968
488.3651, 1728.932
488.8472, 1717.586
489.3293, 1712.469
489.8114, 1713.475
490.2935, 1710.788
490.7756, 1701.866
491.2578, 1692.955
491.7399, 1686.184
492.2220, 1680.333
492.7041, 1673.294
493.1862, 1664.494
493.6683, 1655.745
494.1505, 1649.578
494.6326, 1646.142
495.1147, 1644.772
495.5968, 1649.719
496.0789, 1652.572
496.5610, 1648.749
497.0432, 1640.725
497.5253, 1633.249
498.0074, 1628.684
498.4895, 1626.219
498.9716, 1624.744
499.4537, 1624.474
499.9359, 1623.746
500.4180, 1621.244
500.9001, 1619.012
501.3822, 1619.240
501.8643, 1621.651
502.3464, 1623.361
502.8286, 1622.578
503.3107, 1620.483
503.7928, 1618.099
504.2749, 1615.489
504.7570, 1615.166
505.2391, 1618.996
505.7213, 1625.675
506.2034, 1631.694
506.6855, 1637.045
507.1676, 1641.887
507.6497, 1645.722
508.1318, 1649.360
508.6140, 1653.630
509.0961, 1658.660
509.5782, 1664.076
510.0603, 1669.285
510.5424, 1674.418
511.0245, 1682.544
511.5067, 1697.802
511.9888, 1711.026
512.4709, 1719.664
512.9530, 1726.074
513.4351, 1731.862
513.9172, 1737.880
514.3994, 1745.930
514.8815, 1759.126
515.3636, 1778.102
515.8457, 1794.238
516.3278, 1804.644
516.8099, 1816.177
517.2921, 1832.782
517.7742, 1851.827
518.2563, 1868.421
518.7384, 1879.815
519.2205, 1892.495
519.7026, 1915.633
520.1848, 1947.677
520.6669, 1976.029
521.1490, 1996.567
521.6311, 2015.803
522.1132, 2038.907
522.5953, 2065.740
523.0775, 2097.398
523.5596, 2137.330
524.0417, 2179.049
524.5238, 2216.974
525.0059, 2252.641
525.4880, 2291.266
525.9702, 2334.923
526.4523, 2381.689
526.9344, 2428.951
527.4165, 2476.092
527.8986, 2524.844
528.3807, 2575.749
528.8629, 2627.875
529.3450, 2679.495
529.8271, 2731.844
530.3092, 2788.239
530.7913, 2850.854
531.2734, 2916.788
531.7556, 2978.247
532.2377, 3030.853
532.7198, 3091.027
533.2019, 3165.333
533.6840, 3244.506
534.1661, 3324.794
534.6483, 3406.186
535.1304, 3490.100
535.6125, 3579.439
536.0946, 3670.869
536.5767, 3756.627
537.0588, 3836.063
537.5410, 3924.187
538.0231, 4030.067
538.5052, 4144.248
538.9873, 4251.248
539.4694, 4350.987
539.9515, 4448.827
540.4337, 4551.090
540.9158, 4649.476
541.3979, 4737.063
541.8800, 4813.105
542.3621, 4879.673
542.8442, 4938.581
543.3264, 4987.000
543.8085, 5015.245
544.2906, 5017.426
544.7726, 5005.253
545.2548, 4984.795
545.7369, 4945.817
546.2190, 4876.998
546.7011, 4781.650
547.1832, 4672.872
547.6653, 4560.614
548.1475, 4443.893
548.6296, 4320.373
549.1117, 4189.196
549.5938, 4054.162
550.0759, 3906.479
550.5580, 3761.885
551.0402, 3633.152
551.5223, 3521.000
552.0044, 3413.248
552.4865, 3301.689
552.9686, 3189.882
553.4507, 3083.307
553.9329, 2982.193
554.4150, 2885.949
554.8971, 2793.765
555.3792, 2706.700
555.8613, 2629.504
556.3434, 2565.264
556.8256, 2500.798
557.3077, 2430.580
557.7898, 2360.710
558.2719, 2297.603
558.7540, 2240.991
559.2361, 2187.272
559.7183, 2133.325
560.2004, 2080.771
560.6825, 2035.546
561.1646, 2004.939
561.6467, 1969.772
562.1288, 1922.326
562.6110, 1874.790
563.0931, 1835.808
563.5752, 1805.297
564.0573, 1777.427
564.5394, 1749.027
565.0215, 1719.913
565.5037, 1688.638
565.9858, 1654.243
566.4679, 1623.238
566.9500, 1598.736
567.4321, 1578.400
567.9142, 1559.305
568.3964, 1541.595
568.8785, 1523.171
569.3606, 1503.547
569.8427, 1482.736
570.3248, 1459.800
570.8069, 1435.391
571.2891, 1411.586
571.7712, 1389.645
572.2533, 1369.362
572.7354, 1350.478
573.2175, 1332.614
573.6996, 1316.937
574.1818, 1304.582
574.6639, 1293.193
575.1460, 1281.619
575.6281, 1269.739
576.1102, 1258.084
576.5923, 1247.166
577.0745, 1235.930
577.5566, 1221.499
578.0387, 1203.102
578.5208, 1185.718
579.0029, 1169.555
579.4850, 1155.806
579.9672, 1146.013
580.4493, 1139.420
580.9314, 1132.801
581.4135, 1125.004
581.8956, 1116.663
582.3777, 1108.494
582.8599, 1100.328
583.3420, 1091.345
583.8241, 1081.223
584.3062, 1070.268
584.7883, 1058.508
585.2704, 1045.238
585.7526, 1034.907
586.2347, 1028.146
586.7168, 1023.368
587.1989, 1021.511
587.6810, 1020.692
588.1631, 1018.402
588.6453, 1013.683
589.1274, 1006.810
589.6095, 997.0372
590.0916, 983.5834
590.5737, 974.5643
591.0558, 971.8558
591.5380, 971.0995
592.0201, 971.9657
592.5022, 972.7687
592.9843, 970.5329
593.4664, 963.8630
593.9485, 956.7204
594.4307, 952.5075
594.9128, 950.0775
595.3949, 946.5521
595.8770, 941.4515
596.3591, 936.3141
596.8412, 932.0609
597.3234, 928.7621
597.8055, 927.0607
598.2876, 929.7682
598.7697, 930.1244
599.2518, 925.1950
599.7339, 918.6118
600.2161, 913.9090
600.6982, 911.2902
601.1803, 908.4479
601.6624, 903.0583
602.1445, 896.3018
602.6266, 894.6710
603.1088, 901.6052
603.5909, 904.6539
604.0730, 895.9876
604.5551, 885.5928
605.0372, 881.3957
605.5193, 883.1088
606.0015, 884.3737
606.4836, 881.7477
606.9657, 877.3117
607.4478, 873.3856
607.9299, 869.9680
608.4120, 866.7599
608.8942, 863.6559
609.3763, 860.7078
609.8584, 857.8005
610.3405, 854.4955
610.8226, 853.2257
611.3047, 856.4857
611.7869, 859.1116
612.2690, 858.9362
612.7511, 856.4484
613.2332, 852.4655
613.7153, 847.3309
614.1974, 841.5636
614.6796, 835.4899
615.1617, 828.9979
615.6438, 823.8978
616.1259, 820.4393
616.6080, 818.0076
617.0901, 817.0728
617.5723, 816.6526
618.0544, 815.1129
618.5365, 811.7304
619.0186, 808.9128
619.5007, 809.0797
619.9828, 810.2789
620.4650, 809.1332
620.9471, 805.4063
621.4292, 801.2991
621.9113, 798.2704
622.3934, 796.0260
622.8755, 793.4772
623.3577, 789.7175
623.8398, 786.9992
624.3219, 787.2034
624.8040, 786.8813
625.2861, 782.8082
625.7682, 776.1393
626.2504, 770.6420
626.7325, 768.6984
627.2145, 768.6274
627.6967, 767.5345
628.1788, 765.3967
628.6609, 762.5566
629.1430, 758.3505
629.6251, 754.6008
630.1072, 754.0112
630.5894, 755.4919
631.0715, 754.8991
631.5536, 750.0526
632.0357, 744.7081
632.5178, 739.9918
632.9999, 736.2638
633.4821, 734.4850
633.9642, 734.6927
634.4463, 735.3297
634.9284, 734.9037
635.4105, 733.5007
635.8926, 732.4723
636.3748, 732.7538
636.8569, 731.8871
637.3390, 728.6903
637.8211, 724.8793
638.3032, 721.3389
638.7853, 718.4063
639.2675, 716.8434
639.7496, 718.9226
640.2317, 721.5776
640.7138, 718.7756
641.1959, 711.0145
641.6780, 704.5844
642.1602, 701.5036
642.6423, 700.9894
643.1244, 702.6115
643.6065, 706.9869
644.0886, 709.3478
644.5707, 708.4783
645.0529, 706.9568
645.5350, 705.6033
646.0171, 704.3463
646.4992, 702.8995
646.9813, 701.2300
647.4634, 699.6937
647.9456, 698.6732
648.4277, 698.1484
648.9098, 697.7695
649.3919, 697.1954
649.8740, 697.6589
650.3561, 699.9338
650.8383, 703.3480
651.3204, 707.8231
651.8025, 713.4891
652.2846, 717.1094
652.7667, 715.3785
653.2488, 712.5947
653.7310, 713.6517
654.2131, 717.4583
654.6952, 719.5711
655.1773, 718.0695
655.6594, 715.1226
656.1415, 714.1738
656.6237, 715.7299
657.1058, 716.9466
657.5879, 716.7538
658.0700, 717.4332
658.5521, 720.1319
659.0342, 723.8140
659.5164, 727.4468
659.9985, 730.7672
660.4806, 733.2049
660.9627, 733.2025
661.4448, 732.2201
661.9269, 734.2881
662.4091, 739.6115
662.8912, 744.1085
663.3733, 745.4589
663.8554, 745.3857
664.3375, 747.3236
664.8196, 752.1223
665.3018, 756.5424
665.7839, 759.9152
666.2660, 763.5223
666.7481, 767.3773
667.2302, 772.1394
667.7123, 779.3917
668.1945, 789.6656
668.6766, 800.2238
669.1587, 807.7394
669.6408, 812.3464
670.1229, 815.2591
670.6050, 814.7759
671.0872, 817.8038
671.5693, 829.8400
672.0514, 846.4695
672.5335, 859.8602
673.0156, 869.2119
673.4977, 878.6335
673.9799, 888.4415
674.4620, 899.3832
674.9441, 913.0123
675.4262, 928.3424
675.9083, 942.3340
676.3904, 953.6903
676.8726, 964.8221
677.3547, 979.5668
677.8368, 998.1534
678.3189, 1018.768
678.8010, 1041.136
679.2831, 1066.275
679.7653, 1095.788
680.2474, 1127.394
680.7295, 1158.025
681.2116, 1187.042
681.6937, 1217.225
682.1758, 1249.554
682.6580, 1284.220
683.1401, 1322.960
683.6222, 1364.814
684.1043, 1405.271
684.5864, 1441.983
685.0685, 1478.168
685.5507, 1519.410
686.0328, 1565.954
686.5149, 1616.021
686.9970, 1672.405
687.4791, 1728.879
687.9612, 1780.975
688.4434, 1833.313
688.9255, 1892.142
689.4076, 1958.715
689.8897, 2029.322
690.3718, 2101.079
690.8539, 2174.580
691.3361, 2249.331
691.8182, 2326.064
692.3003, 2410.152
692.7824, 2505.701
693.2645, 2606.531
693.7466, 2704.413
694.2288, 2800.319
694.7109, 2888.541
695.1930, 2968.684
695.6751, 3041.806
696.1572, 3113.727
696.6393, 3176.620
697.1215, 3223.534
697.6036, 3251.671
698.0857, 3255.667
698.5678, 3227.632
699.0499, 3172.354
699.5320, 3101.608
700.0142, 3015.570
700.4963, 2917.571
700.9784, 2807.105
701.4605, 2688.376
701.9426, 2566.247
702.4247, 2440.361
702.9069, 2317.173
703.3890, 2193.306
703.8711, 2076.151
704.3532, 1967.868
704.8353, 1868.359
705.3174, 1777.356
705.7996, 1694.810
706.2817, 1617.602
706.7638, 1543.061
707.2459, 1473.062
707.7280, 1414.473
708.2101, 1368.467
708.6923, 1323.943
709.1743, 1276.552
709.6564, 1231.052
710.1385, 1193.120
710.6207, 1162.245
711.1028, 1132.939
711.5849, 1103.755
712.0670, 1077.116
712.5491, 1055.016
713.0313, 1035.414
713.5134, 1016.561
713.9955, 997.7979
714.4776, 978.7775
714.9597, 958.8417
715.4418, 938.8752
715.9240, 920.7753
716.4061, 904.5633
716.8882, 890.9082
717.3703, 880.5260
717.8524, 872.0287
718.3345, 865.9997
718.8167, 861.0983
719.2988, 852.2109
719.7809, 835.0112
720.2630, 819.8395
720.7451, 811.7052
721.2272, 806.2448
721.7094, 799.0138
722.1915, 790.0504
722.6736, 781.9442
723.1557, 776.3563
723.6378, 771.7325
724.1199, 764.6291
724.6021, 754.6945
725.0842, 746.3238
725.5663, 740.7252
726.0484, 735.1251
726.5305, 726.8702
727.0126, 717.7676
727.4948, 712.1064
727.9769, 711.7813
728.4590, 709.5697
728.9411, 701.2018
729.4232, 691.8766
729.9053, 686.1296
730.3875, 683.1672
730.8696, 680.4411
731.3517, 676.8423
731.8338, 672.2890
732.3159, 666.0077
732.7980, 658.0206
733.2802, 652.3215
733.7623, 649.5499
734.2444, 647.3395
734.7265, 645.4894
735.2086, 643.0979
735.6907, 638.4550
736.1729, 631.3295
736.6550, 625.5532
737.1371, 623.5826
737.6192, 621.4186
738.1013, 615.8533
738.5834, 608.7570
739.0656, 603.3312
739.5477, 600.2238
740.0298, 597.7932
740.5119, 594.5746
740.9940, 590.6657
741.4761, 586.0626
741.9583, 580.3806
742.4404, 576.4430
742.9225, 575.8131
743.4046, 576.0317
743.8867, 574.6058
744.3688, 571.8506
744.8510, 569.5472
745.3331, 568.2787
745.8152, 566.9368
746.2973, 565.6187
746.7794, 563.7532
747.2615, 560.1404
747.7437, 555.3021
748.2258, 551.1234
748.7079, 548.7038
749.1900, 547.8912
749.6721, 549.4077
750.1542, 553.1730
750.6364, 553.8505
751.1185, 550.2939
751.6006, 545.2078
752.0827, 538.9968
752.5648, 532.9076
753.0469, 530.7189
753.5291, 534.5818
754.0112, 536.2472
754.4933, 532.5919
754.9754, 528.4701
755.4575, 526.8184
755.9396, 526.8786
756.4218, 526.9548
756.9039, 526.4838
757.3860, 526.0170
757.8681, 526.7578
758.3502, 527.9664
758.8323, 526.2648
759.3145, 521.4658
759.7966, 518.2660
760.2787, 518.5949
760.7608, 520.8832
761.2429, 523.7684
761.7250, 527.5621
762.2072, 528.0328
762.6893, 519.9359
763.1714, 515.5198
763.6535, 520.8439
764.1356, 528.7706
764.6177, 533.3985
765.0999, 534.1566
765.5820, 532.7660
766.0641, 529.1858
766.5462, 525.8010
767.0283, 526.2607
767.5104, 529.6434
767.9926, 532.5624
768.4747, 534.4535
768.9568, 535.8985
769.4389, 537.2070
769.9210, 538.4906
770.4031, 540.1136
770.8853, 542.5059
771.3674, 544.4045
771.8495, 546.8500
772.3316, 547.7175
772.8137, 543.5792
773.2958, 538.2429
773.7780, 538.1605
774.2601, 545.0499
774.7422, 552.0007
775.2243, 554.9243
775.7064, 555.2815
776.1885, 553.8976
776.6707, 551.5318
777.1528, 550.5226
777.6349, 551.6844
778.1170, 553.8311
778.5991, 555.7521
779.0812, 557.3954
779.5634, 557.2067
780.0455, 553.1513
780.5276, 551.9055
781.0097, 558.0277
781.4918, 564.7872
781.9739, 566.2057
782.4561, 563.6210
782.9382, 562.8885
783.4203, 566.8112
783.9024, 570.6056
784.3845, 571.9938
784.8666, 572.0363
785.3488, 571.2826
785.8309, 570.3096
786.3130, 570.7176
786.7951, 573.4932
787.2772, 576.7931
787.7593, 576.8005
788.2415, 573.6464
788.7236, 573.3168
789.2057, 576.9766
789.6878, 580.0834
790.1699, 579.9050
790.6520, 578.4019
791.1342, 579.1831
791.6162, 582.8186
792.0983, 585.1256
792.5804, 585.5063
793.0626, 584.9524
793.5447, 583.4905
794.0268, 581.5195
794.5089, 579.1216
794.9910, 576.5410
795.4731, 574.5844
795.9553, 573.7699
796.4374, 573.8895
796.9195, 575.0668
797.4016, 576.9918
797.8837, 578.1080
798.3658, 578.1076
798.8480, 578.1315
799.3301, 579.0782
799.8122, 580.5884
800.2943, 581.3298
800.7764, 580.1856
801.2585, 580.6806
801.7407, 585.9918
802.2228, 589.5233
802.7049, 586.8561
803.1870, 581.7171
803.6691, 579.7363
804.1512, 582.0148
804.6334, 583.9617
805.1155, 582.1613
805.5976, 580.0430
806.0797, 581.1602
806.5618, 584.3934
807.0439, 587.3744
807.5261, 589.3709
808.0082, 590.5933
808.4903, 591.1259
808.9724, 591.1599
809.4545, 591.5669
809.9366, 592.5275
810.4188, 592.3087
810.9009, 589.3623
811.3830, 587.7159
811.8651, 591.8107
812.3472, 599.4777
812.8293, 602.8610
813.3115, 600.1874
813.7936, 597.0853
814.2757, 592.7917
814.7578, 589.8226
815.2399, 590.5311
815.7220, 593.4038
816.2042, 595.8190
816.6863, 597.0403
817.1684, 598.2745
817.6505, 600.7255
818.1326, 603.7759
818.6147, 606.9188
819.0969, 609.7937
819.5790, 609.9127
820.0611, 606.4388
820.5432, 602.7631
821.0253, 602.0319
821.5074, 604.0340
821.9896, 607.6517
822.4717, 614.6384
822.9538, 619.2709
823.4359, 619.5643
823.9180, 618.7927
824.4001, 618.2780
824.8823, 618.0927
825.3644, 618.1398
825.8465, 618.0803
826.3286, 619.6051
826.8107, 624.1863
827.2928, 629.8715
827.7750, 635.7666
828.2571, 641.3325
828.7392, 645.3789
829.2213, 647.7987
829.7034, 650.4908
830.1855, 655.4833
830.6677, 661.9489
831.1498, 667.3112
831.6319, 671.5953
832.1140, 676.9817
832.5961, 684.1444
833.0782, 691.6066
833.5604, 698.1525
834.0425, 704.0436
834.5246, 710.5733
835.0067, 716.9343
835.4888, 725.2963
835.9709, 737.3244
836.4531, 749.3141
836.9352, 760.2088
837.4173, 769.8898
837.8994, 777.6714
838.3815, 783.3939
838.8636, 790.7274
839.3458, 802.0599
839.8279, 815.3867
840.3100, 829.1495
840.7921, 843.4675
841.2742, 858.5700
841.7563, 874.5467
842.2385, 891.9001
842.7206, 911.1032
843.2027, 931.2947
843.6848, 949.1725
844.1669, 964.4994
844.6490, 985.0784
845.1312, 1012.387
845.6133, 1042.793
846.0954, 1074.844
846.5775, 1107.737
847.0596, 1139.379
847.5417, 1168.309
848.0239, 1200.331
848.5060, 1239.263
848.9881, 1276.633
849.4702, 1305.546
849.9523, 1334.437
850.4344, 1372.926
850.9166, 1421.022
851.3987, 1471.049
851.8808, 1519.583
852.3629, 1569.014
852.8450, 1621.933
853.3271, 1677.167
853.8093, 1732.032
854.2914, 1786.775
854.7735, 1845.276
855.2556, 1909.095
855.7377, 1978.271
856.2198, 2052.937
856.7020, 2133.079
857.1841, 2214.552
857.6662, 2296.314
858.1483, 2383.276
858.6304, 2477.171
859.1125, 2576.204
859.5947, 2677.835
860.0768, 2781.851
860.5589, 2896.934
861.0410, 3024.593
861.5231, 3160.694
862.0052, 3300.132
862.4874, 3452.852
862.9695, 3625.388
863.4516, 3816.936
863.9337, 4021.077
864.4158, 4235.493
864.8979, 4474.352
865.3801, 4743.448
865.8622, 5042.950
866.3443, 5367.771
866.8264, 5723.417
867.3085, 6113.566
867.7906, 6540.035
868.2728, 7011.972
868.7549, 7538.537
869.2370, 8110.648
869.7191, 8710.484
870.2012, 9336.999
870.6833, 9981.736
871.1655, 10647.01
871.6476, 11322.11
872.1297, 11994.03
872.6118, 12667.91
873.0939, 13351.52
873.5760, 14033.71
874.0581, 14757.18
874.5402, 15503.54
875.0223, 16308.99
875.5045, 17167.63
875.9866, 18098.93
876.4687, 19126.50
876.9508, 20249.09
877.4329, 21481.08
877.9150, 22806.37
878.3972, 24259.70
878.8793, 25834.84
879.3614, 27566.14
879.8435, 29493.96
880.3256, 31613.07
880.8077, 33930.78
881.2899, 36455.18
881.7720, 39077.78
882.2541, 41797.12
882.7362, 44499.25
883.2183, 46963.26
883.7004, 49138.26
884.1826, 50624.82
884.6647, 51308.11
885.1468, 51078.67
885.6289, 49794.56
886.1110, 47536.42
886.5931, 44676.69
887.0753, 41017.70
887.5574, 37320.68
888.0395, 33495.32
888.5216, 29856.84
889.0037, 26483.60
889.4858, 23418.59
889.9680, 20723.02
890.4501, 18414.27
890.9322, 16375.56
891.4143, 14620.93
891.8964, 13083.41
892.3785, 11785.30
892.8607, 10661.01
893.3428, 9670.896
893.8249, 8793.107
894.3070, 8012.866
894.7891, 7326.944
895.2712, 6721.562
895.7534, 6206.616
896.2355, 5755.015
896.7176, 5333.555
897.1997, 4941.062
897.6818, 4579.420
898.1639, 4251.292
898.6461, 3958.471
899.1282, 3707.173
899.6103, 3492.083
900.0924, 3285.005
900.5745, 3085.834
901.0566, 2908.007
901.5388, 2755.388
902.0209, 2616.829
902.5030, 2485.022
902.9851, 2360.315
903.4672, 2243.856
903.9493, 2135.169
904.4315, 2034.770
904.9136, 1944.657
905.3957, 1860.320
905.8778, 1781.143
906.3599, 1706.818
906.8420, 1637.656
907.3242, 1573.837
907.8063, 1514.508
908.2884, 1461.344
908.7705, 1410.523
909.2526, 1360.763
909.7347, 1313.251
910.2169, 1268.918
910.6990, 1227.614
911.1811, 1188.512
911.6632, 1151.441
912.1453, 1115.960
912.6274, 1081.475
913.1096, 1048.281
913.5917, 1017.016
914.0738, 987.5934
914.5559, 958.8438
915.0380, 930.8073
915.5201, 906.1665
916.0023, 887.0404
916.4844, 870.9962
916.9665, 852.4730
917.4486, 831.4585
917.9307, 810.8529
918.4128, 790.4645
918.8950, 771.4384
919.3771, 753.9300
919.8592, 738.5111
920.3413, 726.5636
920.8234, 717.8610
921.3055, 705.9159
921.7877, 686.9035
922.2698, 671.4315
922.7519, 663.7550
923.2340, 656.6699
923.7161, 646.4076
924.1982, 634.2856
924.6804, 622.5930
925.1625, 611.5382
925.6446, 601.0772
926.1267, 591.6344
926.6088, 582.3114
927.0909, 572.1376
927.5731, 562.2428
928.0552, 554.1049
928.5373, 547.5374
929.0194, 541.3792
929.5015, 535.4351
929.9836, 528.5978
930.4658, 518.3848
930.9479, 507.5808
931.4300, 500.4070
931.9121, 496.1942
932.3942, 492.6400
932.8763, 488.8798
933.3585, 484.4210
933.8406, 478.6701
934.3227, 472.1596
934.8048, 466.1900
935.2869, 460.7154
935.7690, 455.0189
936.2512, 448.9988
936.7333, 443.8350
937.2154, 440.3372
937.6975, 437.4503
938.1796, 433.3762
938.6617, 428.0443
939.1439, 422.8104
939.6260, 417.2565
940.1081, 412.9536
940.5902, 410.7541
941.0723, 409.1366
941.5544, 407.1844
942.0366, 404.8449
942.5187, 401.8997
943.0008, 398.2868
943.4829, 394.2394
943.9650, 389.6996
944.4471, 384.8105
944.9293, 378.4214
945.4114, 372.5383
945.8935, 370.3246
946.3756, 371.0721
946.8577, 369.5044
947.3398, 361.7128
947.8220, 355.4162
948.3041, 355.8116
948.7862, 358.0508
949.2683, 358.6068
949.7504, 357.3161
950.2325, 354.5679
950.7147, 350.5362
951.1968, 345.6342
951.6789, 339.2198
952.1610, 333.1025
952.6431, 329.7980
953.1252, 328.4000
953.6074, 327.2237
954.0895, 325.9405
954.5716, 324.5250
955.0537, 322.9594
955.5358, 321.1152
956.0179, 318.7944
956.5000, 316.0406
956.9821, 313.0767
957.4642, 309.8803
957.9464, 306.2368
958.4285, 302.0368
958.9106, 297.9120
959.3927, 294.3102
959.8748, 291.2487
960.3569, 288.9299
960.8391, 287.4846
961.3212, 286.1330
961.8033, 285.1915
962.2854, 283.3671
962.7675, 279.6128
963.2496, 275.7690
963.7318, 274.2077
964.2139, 274.4023
964.6960, 272.2480
965.1781, 264.5089
965.6602, 259.7611
966.1423, 261.0078
966.6245, 261.7949
967.1066, 258.3033
967.5887, 253.6087
968.0708, 251.8863
968.5529, 253.2200
969.0350, 253.8741
969.5172, 253.4827
969.9993, 251.7429
970.4814, 245.9495
970.9635, 241.1772
971.4456, 242.9516
971.9277, 248.2119
972.4099, 250.9559
972.8920, 249.7074
973.3741, 247.1060
973.8562, 243.6873
974.3383, 240.4846
974.8204, 238.6417
975.3026, 237.3529
975.7847, 235.1932
976.2668, 232.4810
976.7489, 230.8247
977.2310, 230.9603
977.7131, 231.6282
978.1953, 232.2478
978.6774, 232.1491
979.1595, 229.2066
979.6416, 224.6301
980.1237, 222.4854
980.6058, 223.2672
981.0880, 224.1354
981.5701, 223.2855
982.0522, 221.3438
982.5343, 219.0665
983.0164, 216.6013
983.4985, 214.9389
983.9807, 214.0613
984.4628, 212.6471
984.9449, 210.2644
985.4270, 207.9833
985.9091, 206.8818
986.3912, 206.2605
986.8734, 203.8031
987.3555, 199.2343
987.8376, 194.9038
988.3197, 190.4813
988.8018, 188.1634
989.2839, 189.5293
989.7661, 191.7030
990.2482, 191.5786
990.7303, 189.4363
991.2124, 187.2818
991.6945, 185.0080
992.1766, 182.9698
992.6588, 181.2063
993.1409, 179.6170
993.6230, 177.8280
994.1051, 176.4293
994.5872, 176.7780
995.0693, 178.8247
995.5515, 178.8794
996.0336, 174.8252
996.5157, 171.8284
996.9978, 171.8461
997.4799, 171.5872
997.9620, 168.8993
998.4442, 165.0178
998.9263, 161.3294
999.4084, 158.0291
999.8905, 156.8427
1000.373, 160.1845
1000.855, 163.0685
1001.337, 163.7126
1001.819, 163.2304
1002.301, 162.1505
1002.783, 160.7628
1003.265, 159.4206
1003.747, 158.2072
1004.230, 156.9075
1004.712, 154.7946
1005.194, 153.2763
1005.676, 153.7914
1006.158, 155.0272
1006.640, 155.5509
1007.122, 155.3836
1007.604, 155.2177
1008.086, 155.2901
1008.569, 154.8078
1009.051, 152.6102
1009.533, 150.0511
1010.015, 148.6125
1010.497, 147.8703
1010.979, 147.0726
1011.461, 146.1813
1011.943, 145.4025
1012.426, 144.8304
1012.908, 144.9812
1013.390, 147.5980
1013.872, 150.6232
1014.354, 149.2043
1014.836, 145.1006
1015.318, 144.0212
1015.800, 146.3753
1016.282, 147.6219
1016.765, 145.1099
1017.247, 141.6704
1017.729, 141.4697
1018.211, 143.6173
1018.693, 145.1311
1019.175, 146.0464
1019.657, 146.9442
1020.139, 147.9002
1020.622, 147.6138
1021.104, 145.0549
1021.586, 141.8760
1022.068, 141.2722
1022.550, 142.9595
1023.032, 143.8486
1023.514, 143.9335
1023.996, 143.3413
1024.478, 141.9582
1024.961, 141.5833
1025.443, 143.7961
1025.925, 147.0492
1026.407, 147.7665
1026.889, 145.8223
1027.371, 143.7734
1027.853, 141.4234
1028.335, 140.2867
1028.818, 141.1768
1029.300, 141.7618
1029.782, 139.9212
1030.264, 136.9255
1030.746, 136.2784
1031.228, 138.4705
1031.710, 139.9650
1032.192, 140.4739
1032.674, 141.2170
1033.156, 142.8707
1033.639, 144.1459
1034.121, 143.9052
1034.603, 142.5825
1035.085, 141.4949
1035.567, 140.9851
1036.049, 139.2534
1036.531, 134.7819
1037.013, 132.0628
1037.496, 132.9104
1037.978, 135.1118
1038.460, 137.3689
1038.942, 139.4875
1039.424, 140.9241
1039.906, 141.8454
1040.388, 141.5237
1040.870, 138.8854
1041.353, 136.5604
1041.835, 135.3957
1042.317, 134.5736
1042.799, 133.3318
1043.281, 131.9419
1043.763, 131.1534
1044.245, 130.8173
1044.727, 131.5645
1045.209, 135.4574
1045.692, 137.7313
1046.174, 136.1514
1046.656, 133.3427
1047.138, 130.7038
1047.620, 128.5907
1048.102, 127.7822
1048.584, 128.6279
1049.066, 129.6737
1049.548, 131.4546
1050.031, 132.4672
1050.513, 131.1619
1050.995, 129.8585
1051.477, 131.2102
1051.959, 133.9336
1052.441, 134.2548
1052.923, 130.8675
1053.405, 129.1301
1053.888, 132.1095
1054.370, 134.4137
1054.852, 133.6026
1055.334, 131.6791
1055.816, 129.1235
1056.298, 127.1257
1056.780, 128.7893
1057.262, 135.4424
1057.745, 139.5353
1058.227, 137.0633
1058.709, 134.0628
1059.191, 132.2178
1059.673, 131.5888
1060.155, 132.8594
1060.637, 135.1138
1061.119, 136.5343
1061.601, 136.7416
1062.083, 136.5620
1062.566, 135.8944
1063.048, 135.3944
1063.530, 135.6138
1064.012, 135.8830
1064.494, 135.4302
1064.976, 134.6418
1065.458, 134.7865
1065.940, 136.1013
1066.423, 135.7258
1066.905, 129.5547
1067.387, 125.3521
1067.869, 129.2699
1068.351, 134.2436
1068.833, 133.6460
1069.315, 129.8439
1069.797, 127.7458
1070.280, 128.2832
1070.762, 129.7722
1071.244, 132.0550
1071.726, 134.4321
1072.208, 137.8596
1072.690, 140.0425
1073.172, 137.4576
1073.654, 133.0869
1074.136, 132.5582
1074.619, 136.2722
1075.101, 138.7373
1075.583, 137.0456
1076.065, 134.8728
1076.547, 133.8054
1077.029, 133.1175
1077.511, 132.1154
1077.993, 131.1799
1078.475, 131.4394
1078.958, 132.6139
1079.440, 132.1544
1079.922, 127.5309
1080.404, 124.7451
1080.886, 129.1880
1081.368, 133.8038
1081.850, 131.7037
1082.332, 127.8104
1082.814, 129.8355
1083.297, 137.1095
1083.779, 142.6637
1084.261, 144.7454
1084.743, 143.1389
1085.225, 134.0925
1085.707, 125.4008
1086.189, 122.8976
1086.671, 122.9845
1087.154, 121.1154
1087.636, 117.7171
1088.118, 116.1180
1088.600, 117.6458
1089.082, 118.8170
1089.564, 117.2715
1090.046, 116.0798
1090.528, 117.9585
1091.010, 120.2124
1091.493, 119.8636
1091.975, 117.6319
1092.457, 115.8501
1092.939, 115.0762
1093.421, 114.2327
1093.903, 112.4866
1094.385, 111.1456
1094.867, 111.2573
1095.349, 111.6103
1095.832, 111.0469
1096.314, 110.0115
1096.796, 109.5663
1097.278, 109.8702
1097.760, 109.8114
1098.242, 108.4341
1098.724, 107.4986
1099.206, 107.7176
1099.689, 108.4260
1100.171, 110.1595
1100.653, 111.5366
1101.135, 109.8446
1101.617, 105.3415
1102.099, 102.9085
1102.581, 105.5056
1103.063, 107.1351
1103.546, 105.2619
1104.028, 103.3938
1104.510, 104.0766
1104.992, 105.2318
1105.474, 103.7634
1105.956, 100.3934
1106.438, 99.29322
1106.920, 102.1516
1107.402, 104.5569
1107.885, 106.7325
1108.367, 107.1872
1108.849, 103.1958
1109.331, 99.16197
1109.813, 99.73869
1110.295, 103.2393
1110.777, 104.6650
1111.259, 103.2710
1111.741, 101.5961
1112.224, 98.70978
1112.706, 97.12665
1113.188, 98.03486
1113.670, 99.70480
1114.152, 101.6848
1114.634, 103.4175
1115.116, 103.7229
1115.598, 102.4307
1116.081, 101.7945
1116.563, 102.5709
1117.045, 102.6831
1117.527, 101.3725
1118.009, 100.1912
1118.491, 100.0136
1118.973, 100.1707
1119.455, 99.72301
1119.938, 98.79453
1120.420, 98.64641
1120.902, 100.1233
1121.384, 100.1469
1121.866, 97.68784
1122.348, 95.86029
1122.830, 95.99098
1123.312, 96.69538
1123.794, 97.04185
1124.276, 96.69885
1124.759, 94.18356
1125.241, 88.49788
1125.723, 86.78816
1126.205, 90.45815
1126.687, 92.41376
1127.169, 90.36690
1127.651, 88.77486
1128.133, 90.99326
1128.616, 94.53994
1129.098, 94.83539
1129.580, 92.08516
1130.062, 89.45747
1130.544, 86.81509
1131.026, 86.66176
1131.508, 89.68096
1131.990, 91.58534
1132.473, 90.24026
1132.955, 87.83341
1133.437, 86.94159
1133.919, 87.04655
1134.401, 85.97110
1134.883, 83.96797
1135.365, 84.48396
1135.847, 87.58079
1136.329, 90.55415
1136.812, 92.51808
1137.294, 92.35044
1137.776, 88.84057
1138.258, 84.35978
1138.740, 83.52663
1139.222, 85.13116
1139.704, 85.02689
1140.186, 83.61173
1140.668, 83.06169
1141.151, 83.63716
1141.633, 84.01768
1142.115, 83.52428
1142.597, 83.10439
1143.079, 84.01775
1143.561, 85.48898
1144.043, 87.21156
1144.525, 88.07001
1145.008, 84.40370
1145.490, 77.82746
1145.972, 73.86381
1146.454, 74.16000
1146.936, 76.70006
1147.418, 80.61742
1147.900, 85.06090
1148.382, 91.21907
1148.865, 95.75195
1149.347, 93.15742
1149.829, 86.85488
1150.311, 82.60704
1150.793, 81.18481
1151.275, 80.90854
1151.757, 81.35091
1152.239, 81.56367
1152.721, 80.60059
1153.203, 79.71446
1153.686, 79.82917
1154.168, 80.34533
1154.650, 80.72588
1155.132, 80.94817
1155.614, 81.34270
1156.096, 81.97975
1156.578, 81.45606
1157.060, 77.29474
1157.543, 74.93562
1158.025, 77.42975
1158.507, 80.39708
1158.989, 81.70269
1159.471, 81.76157
1159.953, 80.53065
1160.435, 78.42673
1160.917, 78.14510
1161.400, 81.03743
1161.882, 83.18627
1162.364, 85.03923
1162.846, 85.32080
1163.328, 82.19796
1163.810, 79.45491
1164.292, 80.50257
1164.774, 83.23574
1165.256, 82.98921
1165.739, 79.49283
1166.221, 77.87550
1166.703, 78.58865
1167.185, 79.59923
1167.667, 80.82564
1168.149, 81.63808
1168.631, 81.60167
1169.113, 81.63844
1169.595, 83.01693
1170.078, 84.95019
1170.560, 83.99176
1171.042, 80.29567
1171.524, 80.23588
1172.006, 83.90938
1172.488, 85.73961
1172.970, 84.33199
1173.452, 82.10591
1173.934, 80.55799
1174.417, 79.73756
1174.899, 79.78699
1175.381, 80.57710
1175.863, 82.38918
1176.345, 84.51552
1176.827, 84.77087
1177.309, 83.16655
1177.791, 80.36490
1178.274, 76.88853
1178.756, 75.13969
1179.238, 77.58397
1179.720, 80.86449
1180.202, 81.58921
1180.684, 80.86540
1181.166, 79.08215
1181.648, 77.39803
1182.130, 78.37463
1182.613, 81.31415
1183.095, 82.45512
1183.577, 80.28992
1184.059, 77.71311
1184.541, 75.28287
1185.023, 74.05314
1185.505, 75.31702
1185.987, 77.32407
1186.469, 78.99934
1186.952, 80.18961
1187.434, 81.02257
1187.916, 81.44746
1188.398, 80.61491
1188.880, 76.82182
1189.362, 74.45663
1189.844, 75.24507
1190.326, 75.80785
1190.809, 74.19513
1191.291, 72.91389
1191.773, 74.64716
1192.255, 77.79982
1192.737, 78.38232
1193.219, 76.05708
1193.701, 74.94867
1194.183, 75.43211
1194.666, 75.67863
1195.148, 75.33437
1195.630, 75.24290
1196.112, 75.86043
1196.594, 76.58704
1197.076, 76.80348
1197.558, 76.55504
1198.040, 75.75468
1198.522, 74.53304
1199.005, 74.02050
1199.487, 74.20516
1199.969, 74.58534
1200.451, 75.08508
1200.933, 76.19350
1201.415, 78.18802
1201.897, 80.33222
1202.379, 82.54417
1202.861, 83.63058
1203.344, 80.04736
1203.826, 74.96953
1204.308, 74.38163
1204.790, 77.07072
1205.272, 79.20662
1205.754, 79.78976
1206.236, 79.25002
1206.718, 77.41756
1207.201, 75.93132
1207.683, 75.88164
1208.165, 76.43204
1208.647, 77.21687
1209.129, 78.14434
1209.611, 79.76452
1210.093, 81.26733
1210.575, 80.72459
1211.057, 77.82707
1211.540, 75.42020
1212.022, 73.47906
1212.504, 72.72560
1212.986, 74.23866
1213.468, 75.63765
1213.950, 76.21768
1214.432, 76.17509
1214.914, 75.28596
1215.396, 74.18636
1215.879, 74.73405
1216.361, 77.08783
1216.843, 79.21017
1217.325, 81.30150
1217.807, 81.55550
1218.289, 79.53342
1218.771, 77.09505
1219.253, 74.97936
1219.736, 74.02237
1220.218, 75.45180
1220.700, 77.61183
1221.182, 76.26003
1221.664, 72.73886
1222.146, 71.58602
1222.628, 72.31255
1223.110, 72.64854
1223.593, 72.26962
1224.075, 71.78596
1224.557, 71.48952
1225.039, 72.28584
1225.521, 75.93608
1226.003, 79.65250
1226.485, 81.45226
1226.967, 81.53921
1227.449, 78.90334
1227.932, 75.40199
1228.414, 74.01014
1228.896, 74.57616
1229.378, 74.42059
1229.860, 72.56713
1230.342, 71.30858
1230.824, 71.37975
1231.306, 71.81309
1231.788, 72.21066
1232.271, 73.04898
1232.753, 74.88130
1233.235, 77.05910
1233.717, 78.86357
1234.199, 80.23715
1234.681, 80.80523
1235.163, 80.55910
1235.645, 79.23920
1236.128, 76.43349
1236.610, 75.41508
1237.092, 77.14806
1237.574, 78.62157
1238.056, 77.93434
1238.538, 77.12727
1239.020, 79.26115
1239.502, 82.75685
1239.984, 83.70593
1240.467, 82.69473
1240.949, 80.68831
1241.431, 78.43848
1241.913, 78.21049
1242.395, 79.99021
1242.877, 80.98204
1243.359, 79.74214
1243.841, 78.13657
1244.323, 76.83507
1244.806, 76.53587
1245.288, 78.83084
1245.770, 81.35546
1246.252, 81.64998
1246.734, 80.73090
1247.216, 80.42358
1247.698, 80.82689
1248.180, 81.01079
1248.662, 80.86584
1249.145, 80.44358
1249.627, 79.38751
1250.109, 78.65359
1250.591, 78.42241
1251.073, 78.63369
1251.555, 79.55575
1252.037, 80.31364
1252.519, 79.53761
1253.002, 77.70872
1253.484, 77.02661
1253.966, 77.47762
1254.448, 78.91355
1254.930, 81.18891
1255.412, 82.56130
1255.894, 82.62657
1256.376, 81.34731
1256.859, 78.70418
1257.341, 76.61659
1257.823, 77.71733
1258.305, 79.54100
1258.787, 78.18171
1259.269, 76.04677
1259.751, 76.71564
1260.233, 78.90453
1260.715, 80.19717
1261.198, 80.26688
1261.680, 79.60521
1262.162, 78.19314
1262.644, 77.18075
1263.126, 76.56397
1263.608, 76.91716
1264.090, 79.39310
1264.572, 81.71432
1265.054, 82.49269
1265.537, 82.69289
1266.019, 83.27953
1266.501, 84.10194
1266.983, 84.51569
1267.465, 84.36241
1267.947, 85.79385
1268.429, 89.02380
1268.911, 91.43401
1269.394, 92.62843
1269.876, 92.52744
1270.358, 91.09951
1270.840, 89.83080
1271.322, 90.02126
1271.804, 91.19969
1272.286, 93.31605
1272.768, 95.45460
1273.250, 95.54374
1273.733, 94.77171
1274.215, 95.48800
1274.697, 97.35255
1275.179, 98.57172
1275.661, 98.75456
1276.143, 99.02791
1276.625, 99.76656
1277.107, 100.8086
1277.589, 103.4968
1278.072, 104.6745
1278.554, 101.1927
1279.036, 97.45110
1279.518, 97.15871
1280.000, 98.60879
1280.482, 99.04198
1280.964, 98.51775
1281.446, 97.48166
1281.929, 95.69480
1282.411, 95.64928
1282.893, 97.59592
1283.375, 98.29239
1283.857, 96.95103
1284.339, 95.24184
1284.821, 94.11948
1285.303, 93.81393
1285.786, 94.55942
1286.268, 96.34630
##END=



