##NAMES=Humberstonite
##RRUFFID=R060718
##IDEAL CHEMISTRY=K_3_Na_7_Mg_2_(S^6+^O_4_)_6_(N^5+^O_3_)_2_&#183;6H_2_O
##LOCALITY=Officina Alemania, Antofagasta Province, Chile
##OWNER=RRUFF
##SOURCE=Bob Jenkins
##DESCRIPTION=Mass of colorless grains
##STATUS=The identification of this mineral has been confirmed by X-ray diffraction.
##URL=rruff.info/R060718
122.492, 247.062
122.974, 260.495
123.456, 274.818
123.938, 291.596
124.420, 311.252
124.902, 331.997
125.384, 352.434
125.867, 372.677
126.349, 391.450
126.831, 408.830
127.313, 424.339
127.795, 436.491
128.277, 444.485
128.759, 451.427
129.241, 463.315
129.723, 483.709
130.206, 499.796
130.688, 507.223
131.170, 509.941
131.652, 510.878
132.134, 511.077
132.616, 510.686
133.098, 509.982
133.580, 508.519
134.062, 507.513
134.545, 507.786
135.027, 508.414
135.509, 508.580
135.991, 508.011
136.473, 506.375
136.955, 502.100
137.437, 491.587
137.919, 482.763
138.402, 476.723
138.884, 473.336
139.366, 472.637
139.848, 474.964
140.330, 479.839
140.812, 483.059
141.294, 479.512
141.776, 479.386
142.258, 485.649
142.741, 496.855
143.223, 510.228
143.705, 524.013
144.187, 538.152
144.669, 552.541
145.151, 566.609
145.633, 581.391
146.115, 597.890
146.598, 615.508
147.080, 633.147
147.562, 650.109
148.044, 666.679
148.526, 679.136
149.008, 688.534
149.490, 693.979
149.972, 693.623
150.454, 688.519
150.936, 681.860
151.419, 676.547
151.901, 672.952
152.383, 667.595
152.865, 658.193
153.347, 649.237
153.829, 644.296
154.311, 642.815
154.794, 640.604
155.276, 633.012
155.758, 618.156
156.240, 608.962
156.722, 607.612
157.204, 609.701
157.686, 612.945
158.168, 616.897
158.650, 621.534
159.133, 626.759
159.615, 632.585
160.097, 639.686
160.579, 650.148
161.061, 660.472
161.543, 667.264
162.025, 670.182
162.507, 672.183
162.990, 676.189
163.472, 682.449
163.954, 690.811
164.436, 705.304
164.918, 719.718
165.400, 727.089
165.882, 726.186
166.364, 723.185
166.846, 725.055
167.329, 732.542
167.811, 740.286
168.293, 746.732
168.775, 753.685
169.257, 763.960
169.739, 778.261
170.221, 793.018
170.703, 804.057
171.185, 811.211
171.668, 817.302
172.150, 819.979
172.632, 822.902
173.114, 831.766
173.596, 848.344
174.078, 866.344
174.560, 876.557
175.042, 878.617
175.525, 885.532
176.007, 905.462
176.489, 930.003
176.971, 945.888
177.453, 949.425
177.935, 950.401
178.417, 961.011
178.899, 980.720
179.381, 1001.336
179.863, 1020.890
180.346, 1040.081
180.828, 1061.325
181.310, 1086.027
181.792, 1108.812
182.274, 1121.407
182.756, 1124.983
183.238, 1127.297
183.721, 1131.466
184.203, 1135.479
184.685, 1135.794
185.167, 1131.362
185.649, 1124.581
186.131, 1117.679
186.613, 1110.673
187.095, 1103.151
187.577, 1095.877
188.059, 1087.798
188.542, 1077.146
189.024, 1063.497
189.506, 1047.594
189.988, 1028.986
190.470, 1008.105
190.952, 987.840
191.434, 969.026
191.917, 951.360
192.399, 933.891
192.881, 915.947
193.363, 899.667
193.845, 889.302
194.327, 883.523
194.809, 875.177
195.291, 859.015
195.773, 839.521
196.255, 825.311
196.738, 818.688
197.220, 812.983
197.702, 800.468
198.184, 782.754
198.666, 766.881
199.148, 754.062
199.630, 744.577
200.112, 740.443
200.595, 743.348
201.077, 746.050
201.559, 739.378
202.041, 726.143
202.523, 716.021
203.005, 712.845
203.487, 714.044
203.969, 716.571
204.452, 720.582
204.934, 724.171
205.416, 725.491
205.898, 725.027
206.380, 723.950
206.862, 722.818
207.344, 721.104
207.826, 716.532
208.308, 707.991
208.790, 702.551
209.273, 706.981
209.755, 719.257
210.237, 734.147
210.719, 754.758
211.201, 775.318
211.683, 788.111
212.165, 792.257
212.648, 793.964
213.130, 797.080
213.612, 801.092
214.094, 804.413
214.576, 806.223
215.058, 807.589
215.540, 809.814
216.022, 812.966
216.504, 815.831
216.986, 818.403
217.469, 819.938
217.951, 818.634
218.433, 815.534
218.915, 808.621
219.397, 793.564
219.879, 770.690
220.361, 750.295
220.844, 739.979
221.326, 736.302
221.808, 728.106
222.290, 712.094
222.772, 694.341
223.254, 678.896
223.736, 665.525
224.218, 652.761
224.700, 639.870
225.182, 627.181
225.665, 615.828
226.147, 607.385
226.629, 598.038
227.111, 584.333
227.593, 567.446
228.075, 552.096
228.557, 540.367
229.040, 531.654
229.522, 524.296
230.004, 518.498
230.486, 513.467
230.968, 509.110
231.450, 505.294
231.932, 501.869
232.414, 499.055
232.896, 496.143
233.378, 491.211
233.861, 483.022
234.343, 476.375
234.825, 474.164
235.307, 474.280
235.789, 472.754
236.271, 468.136
236.753, 462.188
237.235, 457.815
237.718, 454.971
238.200, 453.271
238.682, 452.771
239.164, 453.319
239.646, 455.335
240.128, 459.055
240.610, 462.461
241.092, 462.604
241.574, 458.496
242.057, 454.853
242.539, 451.832
243.021, 449.541
243.503, 447.856
243.985, 446.810
244.467, 447.087
244.949, 449.730
245.431, 455.553
245.913, 459.996
246.396, 461.529
246.878, 462.874
247.360, 466.800
247.842, 472.983
248.324, 477.909
248.806, 478.065
249.288, 472.791
249.770, 471.032
250.253, 475.517
250.735, 480.426
251.217, 483.451
251.699, 484.510
252.181, 484.035
252.663, 482.200
253.145, 479.069
253.627, 475.916
254.109, 470.177
254.592, 467.120
255.074, 469.764
255.556, 476.090
256.038, 482.662
256.520, 487.650
257.002, 491.082
257.484, 493.086
257.966, 493.590
258.449, 492.567
258.931, 488.103
259.413, 482.740
259.895, 479.773
260.377, 480.627
260.859, 483.737
261.341, 485.406
261.823, 484.916
262.306, 483.919
262.788, 480.453
263.270, 477.706
263.752, 479.646
264.234, 486.906
264.716, 495.285
265.198, 497.627
265.680, 489.760
266.162, 485.876
266.645, 488.078
267.127, 492.384
267.609, 497.969
268.091, 503.946
268.573, 508.000
269.055, 506.471
269.537, 497.796
270.019, 493.164
270.501, 497.007
270.984, 501.346
271.466, 504.295
271.948, 505.357
272.430, 504.067
272.912, 499.449
273.394, 491.892
273.876, 485.030
274.358, 479.078
274.841, 473.693
275.323, 470.139
275.805, 466.872
276.287, 460.879
276.769, 449.437
277.251, 435.213
277.733, 425.549
278.215, 422.689
278.698, 418.750
279.180, 408.606
279.662, 396.354
280.144, 386.825
280.626, 382.172
281.108, 379.103
281.590, 373.005
282.072, 363.466
282.554, 355.092
283.036, 350.262
283.519, 346.924
284.001, 342.740
284.483, 337.289
284.965, 332.068
285.447, 328.337
285.929, 325.876
286.411, 323.534
286.893, 321.278
287.376, 318.677
287.858, 314.990
288.340, 310.196
288.822, 305.811
289.304, 302.163
289.786, 299.399
290.268, 298.053
290.750, 298.448
291.233, 299.147
291.715, 298.667
292.197, 297.088
292.679, 295.695
293.161, 294.467
293.643, 293.632
294.125, 294.100
294.607, 295.670
295.089, 295.806
295.572, 291.798
296.054, 284.386
296.536, 281.635
297.018, 287.870
297.500, 293.914
297.982, 294.740
298.464, 292.099
298.946, 290.705
299.428, 293.231
299.911, 298.051
300.393, 299.727
300.875, 294.888
301.357, 291.177
301.839, 290.629
302.321, 291.151
302.803, 289.881
303.285, 285.966
303.767, 281.562
304.250, 280.307
304.732, 284.276
305.214, 287.292
305.696, 288.758
306.178, 289.880
306.660, 292.138
307.142, 295.202
307.625, 296.849
308.107, 294.020
308.589, 285.702
309.071, 282.275
309.553, 290.552
310.035, 297.344
310.517, 297.991
310.999, 294.033
311.481, 288.935
311.964, 284.546
312.446, 281.014
312.928, 278.828
313.410, 277.651
313.892, 278.652
314.374, 285.692
314.856, 293.341
315.338, 294.561
315.820, 286.074
316.303, 274.698
316.785, 270.354
317.267, 274.077
317.749, 277.254
318.231, 277.252
318.713, 276.171
319.195, 275.749
319.677, 276.143
320.159, 276.556
320.642, 276.277
321.124, 275.529
321.606, 275.301
322.088, 276.076
322.570, 276.695
323.052, 275.511
323.534, 272.955
324.016, 271.371
324.499, 272.821
324.981, 274.826
325.463, 273.723
325.945, 269.364
326.427, 265.895
326.909, 266.863
327.391, 271.182
327.873, 272.242
328.355, 266.261
328.838, 260.988
329.320, 261.322
329.802, 265.096
330.284, 267.194
330.766, 265.223
331.248, 260.721
331.730, 257.160
332.212, 253.029
332.694, 252.307
333.177, 259.298
333.659, 267.586
334.141, 270.679
334.623, 267.462
335.105, 261.801
335.587, 258.200
336.069, 257.340
336.552, 255.860
337.034, 253.189
337.516, 250.539
337.998, 248.069
338.480, 246.031
338.962, 244.712
339.444, 244.176
339.926, 244.607
340.408, 247.428
340.891, 255.906
341.373, 261.736
341.855, 262.676
342.337, 260.387
342.819, 255.766
343.301, 248.763
343.783, 242.458
344.265, 242.496
344.747, 250.132
345.230, 254.809
345.712, 251.368
346.194, 246.606
346.676, 246.138
347.158, 250.044
347.640, 253.792
348.122, 254.070
348.604, 252.017
349.086, 251.087
349.569, 252.006
350.051, 252.786
350.533, 250.951
351.015, 247.504
351.497, 245.957
351.979, 248.690
352.461, 252.216
352.944, 254.115
353.426, 254.383
353.908, 252.792
354.390, 248.365
354.872, 242.795
355.354, 241.938
355.836, 249.757
356.318, 255.066
356.800, 253.273
357.283, 248.420
357.765, 245.309
358.247, 245.235
358.729, 247.097
359.211, 249.737
359.693, 253.992
360.175, 256.019
360.657, 255.179
361.139, 253.074
361.622, 249.341
362.104, 244.931
362.586, 241.861
363.068, 241.588
363.550, 243.865
364.032, 247.560
364.514, 256.749
364.996, 261.027
365.478, 254.115
365.961, 243.650
366.443, 237.948
366.925, 239.805
367.407, 244.858
367.889, 247.674
368.371, 248.119
368.853, 248.035
369.335, 247.128
369.818, 246.366
370.300, 246.885
370.782, 248.452
371.264, 249.245
371.746, 247.220
372.228, 244.105
372.710, 243.471
373.192, 245.844
373.674, 248.425
374.157, 249.566
374.639, 249.407
375.121, 248.756
375.603, 246.230
376.085, 244.735
376.567, 247.431
377.049, 252.302
377.531, 254.322
378.013, 251.393
378.496, 245.799
378.978, 241.462
379.460, 238.184
379.942, 236.943
380.424, 239.320
380.906, 242.612
381.388, 244.765
381.871, 245.706
382.353, 246.658
382.835, 248.850
383.317, 252.231
383.799, 253.834
384.281, 252.312
384.763, 250.397
385.245, 247.669
385.727, 245.208
386.210, 244.733
386.692, 247.046
387.174, 250.259
387.656, 250.866
388.138, 248.152
388.620, 246.925
389.102, 249.158
389.584, 252.243
390.066, 254.481
390.549, 255.869
391.031, 257.103
391.513, 258.710
391.995, 260.424
392.477, 261.384
392.959, 261.311
393.441, 261.960
393.923, 265.010
394.405, 269.679
394.888, 273.250
395.370, 276.019
395.852, 277.196
396.334, 274.793
396.816, 270.580
397.298, 268.479
397.780, 269.914
398.263, 273.410
398.745, 276.696
399.227, 279.507
399.709, 282.760
400.191, 288.369
400.673, 292.837
401.155, 292.993
401.637, 289.705
402.119, 286.363
402.602, 285.336
403.084, 286.550
403.566, 289.829
404.048, 298.625
404.530, 304.271
405.012, 303.363
405.494, 299.746
405.976, 297.067
406.458, 296.326
406.941, 296.627
407.423, 297.124
407.905, 297.815
408.387, 298.452
408.869, 298.614
409.351, 299.313
409.833, 301.885
410.315, 305.730
410.797, 308.629
411.280, 310.066
411.762, 310.038
412.244, 308.123
412.726, 304.470
413.208, 300.262
413.690, 295.626
414.172, 291.268
414.654, 289.425
415.137, 291.370
415.619, 292.793
416.101, 290.869
416.583, 289.149
417.065, 293.187
417.547, 302.940
418.029, 311.198
418.511, 310.141
418.993, 299.009
419.476, 291.846
419.958, 291.103
420.440, 291.794
420.922, 294.008
421.404, 296.557
421.886, 298.017
422.368, 297.810
422.850, 296.305
423.332, 293.414
423.815, 288.638
424.297, 286.215
424.779, 289.155
425.261, 292.405
425.743, 291.287
426.225, 286.632
426.707, 283.997
427.190, 288.067
427.672, 294.784
428.154, 297.403
428.636, 295.751
429.118, 295.038
429.600, 298.782
430.082, 305.091
430.564, 308.110
431.046, 305.670
431.529, 304.044
432.011, 305.841
432.493, 308.914
432.975, 310.402
433.457, 309.858
433.939, 309.151
434.421, 310.153
434.903, 312.893
435.385, 317.047
435.868, 325.111
436.350, 331.831
436.832, 333.063
437.314, 332.827
437.796, 337.876
438.278, 351.383
438.760, 367.705
439.242, 376.090
439.724, 374.859
440.207, 379.953
440.689, 398.053
441.171, 419.204
441.653, 435.163
442.135, 446.990
442.617, 460.759
443.099, 481.373
443.581, 504.099
444.064, 520.581
444.546, 531.457
445.028, 548.422
445.510, 578.648
445.992, 617.502
446.474, 651.518
446.956, 677.066
447.438, 705.547
447.921, 740.463
448.403, 778.303
448.885, 815.936
449.367, 852.830
449.849, 889.159
450.331, 925.783
450.813, 962.403
451.295, 993.782
451.777, 1011.893
452.259, 1035.283
452.742, 1073.188
453.224, 1115.552
453.706, 1151.265
454.188, 1176.713
454.670, 1198.437
455.152, 1223.576
455.634, 1251.740
456.116, 1279.571
456.599, 1310.270
457.081, 1334.096
457.563, 1341.111
458.045, 1334.977
458.527, 1324.393
459.009, 1312.391
459.491, 1295.274
459.973, 1269.817
460.456, 1237.128
460.938, 1198.659
461.420, 1154.641
461.902, 1108.630
462.384, 1067.002
462.866, 1030.073
463.348, 997.672
463.830, 973.472
464.312, 950.241
464.795, 924.886
465.277, 897.237
465.759, 867.605
466.241, 835.575
466.723, 802.861
467.205, 774.502
467.687, 752.284
468.169, 728.699
468.651, 697.834
469.134, 668.274
469.616, 646.715
470.098, 633.330
470.580, 622.040
471.062, 609.282
471.544, 596.696
472.026, 587.650
472.508, 582.255
472.991, 576.303
473.473, 567.507
473.955, 556.400
474.437, 544.512
474.919, 528.100
475.401, 517.011
475.883, 517.875
476.365, 521.841
476.848, 519.962
477.330, 511.429
477.812, 501.343
478.294, 494.302
478.776, 490.034
479.258, 484.220
479.740, 473.379
480.222, 466.363
480.704, 471.422
481.186, 477.717
481.669, 472.534
482.151, 452.830
482.633, 430.884
483.115, 416.825
483.597, 409.321
484.079, 403.959
484.561, 400.951
485.043, 397.293
485.526, 389.826
486.008, 379.731
486.490, 372.866
486.972, 375.167
487.454, 373.974
487.936, 360.085
488.418, 341.248
488.900, 329.314
489.383, 327.056
489.865, 328.094
490.347, 324.836
490.829, 316.534
491.311, 310.883
491.793, 310.910
492.275, 310.360
492.757, 306.559
493.239, 301.613
493.722, 299.002
494.204, 300.149
494.686, 301.276
495.168, 296.987
495.650, 288.185
496.132, 282.471
496.614, 281.884
497.096, 282.249
497.578, 279.271
498.061, 274.035
498.543, 271.912
499.025, 277.059
499.507, 281.630
499.989, 280.268
500.471, 275.849
500.953, 273.826
501.435, 275.873
501.918, 279.435
502.400, 281.320
502.882, 281.606
503.364, 279.841
503.846, 271.111
504.328, 265.538
504.810, 269.639
505.292, 277.895
505.775, 281.299
506.257, 275.938
506.739, 268.406
507.221, 267.315
507.703, 271.834
508.185, 273.640
508.667, 269.985
509.149, 266.764
509.631, 270.698
510.114, 280.229
510.596, 285.741
511.078, 283.554
511.560, 280.172
512.042, 278.206
512.524, 277.441
513.006, 277.878
513.488, 279.419
513.971, 280.592
514.453, 278.864
514.935, 273.085
515.417, 271.799
515.899, 280.391
516.381, 287.622
516.863, 289.840
517.345, 288.748
517.827, 286.427
518.310, 283.258
518.792, 281.038
519.274, 282.480
519.756, 286.749
520.238, 289.646
520.720, 290.149
521.202, 290.692
521.684, 293.543
522.166, 298.418
522.649, 302.165
523.131, 304.616
523.613, 306.161
524.095, 305.884
524.577, 305.227
525.059, 306.525
525.541, 310.128
526.023, 313.883
526.505, 315.422
526.988, 314.704
527.470, 313.548
527.952, 310.979
528.434, 309.533
528.916, 310.785
529.398, 313.124
529.880, 314.442
530.362, 314.151
530.844, 314.312
531.327, 318.728
531.809, 324.205
532.291, 322.040
532.773, 311.100
533.255, 301.164
533.737, 299.076
534.219, 303.560
534.701, 307.890
535.184, 313.024
535.666, 316.750
536.148, 319.192
536.630, 319.854
537.112, 317.147
537.594, 311.742
538.076, 306.985
538.558, 305.718
539.041, 307.124
539.523, 307.796
540.005, 307.275
540.487, 307.716
540.969, 311.791
541.451, 315.641
541.933, 314.346
542.415, 307.469
542.898, 302.009
543.380, 301.970
543.862, 303.561
544.344, 303.242
544.826, 301.047
545.308, 298.089
545.790, 294.866
546.272, 291.563
546.754, 288.511
547.237, 285.104
547.719, 283.244
548.201, 284.240
548.683, 285.376
549.165, 285.486
549.647, 284.656
550.129, 283.243
550.611, 281.181
551.093, 279.149
551.576, 278.619
552.058, 279.266
552.540, 277.851
553.022, 272.823
553.504, 267.992
553.986, 267.706
554.468, 272.107
554.950, 273.947
555.432, 270.413
555.915, 267.452
556.397, 267.844
556.879, 269.993
557.361, 272.069
557.843, 273.421
558.325, 273.707
558.807, 271.947
559.289, 268.257
559.771, 267.172
560.254, 270.127
560.736, 272.846
561.218, 273.146
561.700, 272.397
562.182, 272.574
562.664, 274.409
563.146, 274.163
563.628, 267.474
564.111, 259.013
564.593, 254.576
565.075, 254.475
565.557, 257.291
566.039, 262.680
566.521, 269.142
567.003, 272.138
567.485, 271.205
567.968, 267.441
568.450, 256.145
568.932, 246.627
569.414, 244.734
569.896, 249.221
570.378, 255.866
570.860, 263.686
571.342, 270.709
571.825, 273.977
572.307, 273.859
572.789, 272.631
573.271, 270.577
573.753, 268.461
574.235, 266.861
574.717, 265.792
575.199, 266.074
575.681, 268.637
576.164, 271.378
576.646, 273.840
577.128, 275.979
577.610, 277.942
578.092, 279.686
578.574, 280.802
579.056, 280.787
579.538, 279.746
580.020, 277.861
580.503, 274.181
580.985, 273.056
581.467, 278.143
581.949, 285.719
582.431, 289.862
582.913, 289.996
583.395, 289.763
583.877, 288.320
584.360, 288.409
584.842, 294.438
585.324, 304.217
585.806, 310.891
586.288, 310.880
586.770, 307.098
587.252, 305.018
587.734, 304.771
588.216, 305.745
588.699, 308.968
589.181, 312.203
589.663, 314.036
590.145, 315.143
590.627, 316.905
591.109, 319.849
591.591, 323.091
592.073, 326.529
592.555, 329.690
593.038, 330.978
593.520, 330.404
594.002, 331.194
594.484, 336.181
594.966, 344.494
595.448, 350.837
595.930, 353.280
596.412, 356.958
596.895, 363.649
597.377, 370.588
597.859, 376.114
598.341, 380.141
598.823, 382.743
599.305, 381.194
599.787, 381.122
600.269, 391.398
600.752, 410.233
601.234, 429.356
601.716, 446.718
602.198, 461.632
602.680, 472.609
603.162, 479.050
603.644, 489.005
604.126, 504.199
604.609, 520.483
605.091, 536.725
605.573, 553.531
606.055, 572.384
606.537, 593.102
607.019, 613.138
607.501, 628.716
607.983, 642.162
608.465, 660.889
608.948, 685.108
609.430, 707.492
609.912, 725.983
610.394, 739.549
610.876, 746.056
611.358, 743.904
611.840, 740.139
612.322, 736.700
612.804, 729.832
613.287, 715.161
613.769, 696.617
614.251, 680.252
614.733, 668.164
615.215, 658.359
615.697, 647.705
616.179, 636.914
616.661, 631.280
617.143, 631.582
617.626, 634.516
618.108, 637.925
618.590, 643.201
619.072, 654.175
619.554, 673.766
620.036, 689.937
620.518, 696.831
621.000, 703.099
621.482, 713.771
621.965, 728.908
622.447, 747.467
622.929, 769.017
623.411, 792.738
623.893, 816.321
624.375, 839.756
624.857, 870.271
625.339, 908.642
625.822, 953.697
626.304, 1006.266
626.786, 1065.000
627.268, 1125.643
627.750, 1188.629
628.232, 1251.876
628.714, 1312.245
629.196, 1374.868
629.679, 1451.388
630.161, 1535.489
630.643, 1609.671
631.125, 1665.348
631.607, 1699.627
632.089, 1707.705
632.571, 1689.834
633.053, 1639.322
633.536, 1543.740
634.018, 1436.240
634.500, 1338.830
634.982, 1247.662
635.464, 1151.183
635.946, 1040.522
636.428, 938.971
636.910, 852.859
637.392, 780.813
637.875, 724.193
638.357, 680.969
638.839, 644.195
639.321, 609.541
639.803, 578.490
640.285, 555.406
640.767, 540.888
641.249, 528.159
641.731, 516.112
642.214, 505.728
642.696, 498.983
643.178, 494.583
643.660, 488.214
644.142, 477.002
644.624, 467.479
645.106, 464.148
645.588, 462.107
646.070, 455.777
646.553, 445.355
647.035, 434.887
647.517, 427.152
647.999, 421.010
648.481, 414.299
648.963, 407.117
649.445, 397.569
649.927, 383.934
650.409, 370.278
650.892, 359.608
651.374, 351.590
651.856, 345.175
652.338, 341.462
652.820, 337.772
653.302, 333.659
653.784, 328.985
654.266, 322.824
654.749, 315.795
655.231, 310.423
655.713, 308.658
656.195, 308.613
656.677, 306.480
657.159, 302.219
657.641, 296.113
658.123, 285.992
658.606, 279.113
659.088, 271.985
659.570, 274.592
660.052, 274.837
660.534, 272.846
661.016, 261.919
661.498, 262.530
661.980, 258.518
662.463, 254.314
662.945, 254.004
663.427, 249.162
663.909, 247.183
664.391, 246.769
664.873, 245.893
665.355, 244.603
665.837, 243.687
666.319, 243.581
666.802, 242.508
667.284, 238.768
667.766, 232.991
668.248, 228.290
668.730, 222.421
669.212, 220.737
669.694, 228.146
670.176, 236.042
670.658, 238.053
671.141, 235.363
671.623, 232.160
672.105, 230.156
672.587, 229.353
673.069, 230.687
673.551, 233.315
674.033, 233.272
674.515, 229.860
674.997, 228.130
675.480, 232.360
675.962, 239.741
676.444, 241.143
676.926, 231.375
677.408, 224.489
677.890, 221.419
678.372, 220.057
678.854, 220.432
679.336, 221.486
679.819, 221.152
680.301, 218.385
680.783, 216.170
681.265, 217.712
681.747, 221.173
682.229, 223.434
682.711, 224.221
683.193, 223.899
683.676, 222.531
684.158, 220.760
684.640, 219.930
685.122, 220.270
685.604, 220.805
686.086, 222.007
686.568, 222.794
687.050, 222.329
687.532, 221.406
688.015, 220.960
688.497, 221.064
688.979, 222.219
689.461, 226.173
689.943, 230.141
690.425, 230.770
690.907, 228.988
691.390, 228.279
691.872, 229.946
692.354, 231.094
692.836, 226.643
693.318, 216.695
693.800, 212.271
694.282, 214.667
694.764, 219.269
695.246, 227.119
695.729, 234.111
696.211, 233.653
696.693, 225.222
697.175, 219.090
697.657, 216.352
698.139, 216.831
698.621, 224.382
699.103, 233.283
699.585, 234.503
700.068, 227.016
700.550, 218.758
701.032, 216.201
701.514, 218.018
701.996, 222.049
702.478, 228.202
702.960, 231.281
703.442, 229.181
703.924, 225.762
704.407, 224.628
704.889, 225.763
705.371, 228.160
705.853, 234.654
706.335, 238.553
706.817, 236.118
707.299, 233.105
707.781, 234.352
708.263, 239.281
708.746, 244.202
709.228, 247.491
709.710, 250.063
710.192, 251.389
710.674, 252.999
711.156, 258.037
711.638, 267.005
712.120, 279.601
712.603, 295.629
713.085, 314.979
713.567, 337.797
714.049, 365.133
714.531, 391.918
715.013, 416.044
715.495, 441.612
715.977, 466.707
716.459, 495.732
716.942, 538.265
717.424, 599.214
717.906, 661.406
718.388, 715.118
718.870, 770.628
719.352, 844.452
719.834, 926.055
720.317, 991.945
720.799, 1032.953
721.281, 1056.513
721.763, 1071.338
722.245, 1076.707
722.727, 1068.819
723.209, 1047.936
723.691, 1010.125
724.173, 952.508
724.656, 880.089
725.138, 798.034
725.620, 704.530
726.102, 616.222
726.584, 527.291
727.066, 450.789
727.548, 391.024
728.030, 345.141
728.513, 313.008
728.995, 293.109
729.477, 279.085
729.959, 270.306
730.441, 263.153
730.923, 252.852
731.405, 241.457
731.887, 234.193
732.369, 231.783
732.852, 230.536
733.334, 227.428
733.816, 223.518
734.298, 223.200
734.780, 228.248
735.262, 229.035
735.744, 221.555
736.226, 214.004
736.708, 212.409
737.191, 214.507
737.673, 214.896
738.155, 212.135
738.637, 210.509
739.119, 212.745
739.601, 214.845
740.083, 213.143
740.565, 209.325
741.047, 206.932
741.530, 207.207
742.012, 208.976
742.494, 212.238
742.976, 215.810
743.458, 216.621
743.940, 214.704
744.422, 211.100
744.904, 205.905
745.386, 200.739
745.869, 197.584
746.351, 196.438
746.833, 197.320
747.315, 202.932
747.797, 206.066
748.279, 202.900
748.761, 198.555
749.244, 196.488
749.726, 196.681
750.208, 198.015
750.690, 201.744
751.172, 204.510
751.654, 204.252
752.136, 202.373
752.618, 200.075
753.100, 197.752
753.583, 195.772
754.065, 194.333
754.547, 193.426
755.029, 193.458
755.511, 194.178
755.993, 193.545
756.475, 191.206
756.957, 189.440
757.440, 189.505
757.922, 190.773
758.404, 192.105
758.886, 193.671
759.368, 194.704
759.850, 194.519
760.332, 194.607
760.814, 195.705
761.296, 197.058
761.779, 198.057
762.261, 198.582
762.743, 198.301
763.225, 196.700
763.707, 194.631
764.189, 191.903
764.671, 189.447
765.153, 189.157
765.635, 190.977
766.118, 192.736
766.600, 192.789
767.082, 191.900
767.564, 191.429
768.046, 191.408
768.528, 192.764
769.010, 195.965
769.492, 198.698
769.974, 199.498
770.457, 198.739
770.939, 197.301
771.421, 194.354
771.903, 192.701
772.385, 192.984
772.867, 193.807
773.349, 194.758
773.831, 195.928
774.313, 198.053
774.796, 201.238
775.278, 202.415
775.760, 198.941
776.242, 194.261
776.724, 190.141
777.206, 187.029
777.688, 185.680
778.170, 186.119
778.653, 187.546
779.135, 189.523
779.617, 191.751
780.099, 194.143
780.581, 196.508
781.063, 195.674
781.545, 190.590
782.027, 186.208
782.510, 186.340
782.992, 189.135
783.474, 188.941
783.956, 182.829
784.438, 180.621
784.920, 186.389
785.402, 191.343
785.884, 191.656
786.367, 189.643
786.849, 188.188
787.331, 187.638
787.813, 187.241
788.295, 185.940
788.777, 185.564
789.259, 188.456
789.741, 192.452
790.223, 194.519
790.706, 194.199
791.188, 192.606
791.670, 189.922
792.152, 187.513
792.634, 188.278
793.116, 191.394
793.598, 193.352
794.080, 193.637
794.562, 192.960
795.045, 191.590
795.527, 190.089
796.009, 190.085
796.491, 192.503
796.973, 192.456
797.455, 188.113
797.937, 184.580
798.419, 184.938
798.901, 186.608
799.384, 185.706
799.866, 181.962
800.348, 179.885
800.830, 181.873
801.312, 183.403
801.794, 181.529
802.276, 179.249
802.758, 179.769
803.240, 182.983
803.723, 187.093
804.205, 192.133
804.687, 195.470
805.169, 193.092
805.651, 187.855
806.133, 184.593
806.615, 183.667
807.097, 183.637
807.580, 183.757
808.062, 185.079
808.544, 190.267
809.026, 198.973
809.508, 203.919
809.990, 204.855
810.472, 202.962
810.954, 197.174
811.437, 191.903
811.919, 193.094
812.401, 200.529
812.883, 203.616
813.365, 198.734
813.847, 194.808
814.329, 191.673
814.811, 190.658
815.294, 194.892
815.776, 201.548
816.258, 203.485
816.740, 197.205
817.222, 192.571
817.704, 196.523
818.186, 201.238
818.668, 199.039
819.150, 193.040
819.633, 189.630
820.115, 190.607
820.597, 193.883
821.079, 199.337
821.561, 204.681
822.043, 204.573
822.525, 200.533
823.007, 199.225
823.489, 201.884
823.972, 203.173
824.454, 198.490
824.936, 191.042
825.418, 190.639
825.900, 198.815
826.382, 202.595
826.864, 198.943
827.346, 197.158
827.828, 204.099
828.311, 213.394
828.793, 213.363
829.275, 201.213
829.757, 194.043
830.239, 194.693
830.721, 196.436
831.203, 198.752
831.685, 200.667
832.167, 201.166
832.650, 200.470
833.132, 199.725
833.614, 199.322
834.096, 198.871
834.578, 198.070
835.060, 197.198
835.542, 196.586
836.024, 196.142
836.507, 195.237
836.989, 193.682
837.471, 193.111
837.953, 197.059
838.435, 202.262
838.917, 200.228
839.399, 192.943
839.881, 191.049
840.364, 197.091
840.846, 201.703
841.328, 195.676
841.810, 183.783
842.292, 183.802
842.774, 197.829
843.256, 203.281
843.738, 195.193
844.221, 186.329
844.703, 183.064
845.185, 184.139
845.667, 187.859
846.149, 195.761
846.631, 199.666
847.113, 195.780
847.595, 192.723
848.077, 192.341
848.560, 193.569
849.042, 196.785
849.524, 201.092
850.006, 202.240
850.488, 197.043
850.970, 192.110
851.452, 189.414
851.934, 188.314
852.416, 189.512
852.899, 191.579
853.381, 191.142
853.863, 187.154
854.345, 184.407
854.827, 188.548
855.309, 194.568
855.791, 195.636
856.273, 193.345
856.755, 191.772
857.238, 191.769
857.720, 191.811
858.202, 190.500
858.684, 189.327
859.166, 192.689
859.648, 199.629
860.130, 201.960
860.612, 198.751
861.094, 194.418
861.577, 190.712
862.059, 188.480
862.541, 189.719
863.023, 194.655
863.505, 193.681
863.987, 182.579
864.469, 177.486
864.951, 185.825
865.434, 196.106
865.916, 199.018
866.398, 195.874
866.880, 192.698
867.362, 188.635
867.844, 186.050
868.326, 186.257
868.808, 186.605
869.291, 186.180
869.773, 185.034
870.255, 182.574
870.737, 178.876
871.219, 177.463
871.701, 181.608
872.183, 185.892
872.665, 187.617
873.148, 187.928
873.630, 187.371
874.112, 186.633
874.594, 187.593
875.076, 191.494
875.558, 194.171
876.040, 190.202
876.522, 183.859
877.004, 180.843
877.487, 180.865
877.969, 182.721
878.451, 185.754
878.933, 187.806
879.415, 186.396
879.897, 183.760
880.379, 185.910
880.861, 191.852
881.343, 195.055
881.826, 194.676
882.308, 192.513
882.790, 189.284
883.272, 186.005
883.754, 184.112
884.236, 183.589
884.718, 186.323
885.200, 193.700
885.682, 198.433
886.165, 197.759
886.647, 195.620
887.129, 195.598
887.611, 197.043
888.093, 196.625
888.575, 192.705
889.057, 190.112
889.539, 188.337
890.021, 188.602
890.504, 193.646
890.986, 199.654
891.468, 201.140
891.950, 197.821
892.432, 196.279
892.914, 200.144
893.396, 202.260
893.878, 198.142
894.361, 193.673
894.843, 194.432
895.325, 198.545
895.807, 200.423
896.289, 198.033
896.771, 196.447
897.253, 200.288
897.735, 203.818
898.218, 201.056
898.700, 195.696
899.182, 193.519
899.664, 195.190
900.146, 197.663
900.628, 199.311
901.110, 200.698
901.592, 203.220
902.075, 205.451
902.557, 203.715
903.039, 199.350
903.521, 197.920
904.003, 201.402
904.485, 206.175
904.967, 209.344
905.449, 210.371
905.931, 206.253
906.414, 198.377
906.896, 194.319
907.378, 195.264
907.860, 197.071
908.342, 197.201
908.824, 196.719
909.306, 197.942
909.788, 200.818
910.270, 201.547
910.753, 199.744
911.235, 199.578
911.717, 202.710
912.199, 206.260
912.681, 207.786
913.163, 207.331
913.645, 204.779
914.127, 199.159
914.610, 194.780
915.092, 191.781
915.574, 190.141
916.056, 189.607
916.538, 190.736
917.020, 195.236
917.502, 203.456
917.984, 207.206
918.466, 201.697
918.949, 199.111
919.431, 205.447
919.913, 210.365
920.395, 204.719
920.877, 194.493
921.359, 192.503
921.841, 201.918
922.323, 208.409
922.805, 208.994
923.288, 207.596
923.770, 204.265
924.252, 200.640
924.734, 197.410
925.216, 195.158
925.698, 195.526
926.180, 199.931
926.662, 204.259
927.145, 207.860
927.627, 209.788
928.109, 208.350
928.591, 205.354
929.073, 202.674
929.555, 201.029
930.037, 201.864
930.519, 207.190
931.002, 213.048
931.484, 218.385
931.966, 221.300
932.448, 217.511
932.930, 209.802
933.412, 204.985
933.894, 205.142
934.376, 206.803
934.859, 207.996
935.341, 208.452
935.823, 206.876
936.305, 204.699
936.787, 205.346
937.269, 208.416
937.751, 210.161
938.233, 208.715
938.715, 206.527
939.198, 207.411
939.680, 209.285
940.162, 206.406
940.644, 200.229
941.126, 196.552
941.608, 196.516
942.090, 197.801
942.572, 198.840
943.054, 200.200
943.537, 203.446
944.019, 208.003
944.501, 210.793
944.983, 211.796
945.465, 212.088
945.947, 211.983
946.429, 212.331
946.911, 214.203
947.393, 216.508
947.876, 215.457
948.358, 211.068
948.840, 208.076
949.322, 206.966
949.804, 205.519
950.286, 202.441
950.768, 200.395
951.250, 202.962
951.732, 209.376
952.215, 214.727
952.697, 219.453
953.179, 219.568
953.661, 213.021
954.143, 207.502
954.625, 206.945
955.107, 210.174
955.589, 216.314
956.072, 225.591
956.554, 227.771
957.036, 219.852
957.518, 213.559
958.000, 210.549
958.482, 210.460
958.964, 214.313
959.446, 219.922
959.929, 222.197
960.411, 220.249
960.893, 219.530
961.375, 220.038
961.857, 221.828
962.339, 225.637
962.821, 229.915
963.303, 234.648
963.786, 238.681
964.268, 237.945
964.750, 229.699
965.232, 223.878
965.714, 219.446
966.196, 218.857
966.678, 227.434
967.160, 236.343
967.642, 236.257
968.125, 229.419
968.607, 226.577
969.089, 229.160
969.571, 233.493
970.053, 242.873
970.535, 249.765
971.017, 248.158
971.499, 244.921
971.981, 248.352
972.464, 257.605
972.946, 264.003
973.428, 266.556
973.910, 266.176
974.392, 258.010
974.874, 252.496
975.356, 256.393
975.838, 264.992
976.320, 272.781
976.803, 279.231
977.285, 284.995
977.767, 289.792
978.249, 294.442
978.731, 297.486
979.213, 302.202
979.695, 310.907
980.177, 322.482
980.659, 335.769
981.142, 350.530
981.624, 364.267
982.106, 375.792
982.588, 386.897
983.070, 398.802
983.552, 409.948
984.034, 420.400
984.516, 428.872
984.999, 432.352
985.481, 430.392
985.963, 429.512
986.445, 430.798
986.927, 434.976
987.409, 445.447
987.891, 456.144
988.373, 461.008
988.856, 462.462
989.338, 465.574
989.820, 471.361
990.302, 479.845
990.784, 492.040
991.266, 505.658
991.748, 521.964
992.230, 537.173
992.713, 544.843
993.195, 549.331
993.677, 559.736
994.159, 578.115
994.641, 604.975
995.123, 639.292
995.605, 684.006
996.087, 741.239
996.569, 809.026
997.052, 881.251
997.534, 963.365
998.016, 1070.475
998.498, 1207.857
998.980, 1355.076
999.462, 1494.947
999.944, 1651.513
1000.426, 1837.653
1000.908, 2047.510
1001.391, 2274.226
1001.873, 2518.497
1002.355, 2789.771
1002.837, 3093.095
1003.319, 3398.271
1003.801, 3700.825
1004.283, 3987.665
1004.765, 4252.508
1005.247, 4497.622
1005.730, 4740.479
1006.212, 4966.034
1006.694, 5131.269
1007.176, 5217.804
1007.658, 5288.467
1008.140, 5380.043
1008.622, 5453.792
1009.104, 5471.352
1009.587, 5471.293
1010.069, 5495.854
1010.551, 5539.675
1011.033, 5573.615
1011.515, 5588.010
1011.997, 5602.799
1012.479, 5631.885
1012.961, 5657.143
1013.443, 5681.200
1013.926, 5686.154
1014.408, 5666.375
1014.890, 5610.121
1015.372, 5493.578
1015.854, 5311.185
1016.336, 5067.101
1016.818, 4756.510
1017.300, 4392.145
1017.783, 3937.230
1018.265, 3464.476
1018.747, 3035.195
1019.229, 2650.188
1019.711, 2293.289
1020.193, 1955.612
1020.675, 1667.000
1021.157, 1447.035
1021.639, 1265.985
1022.122, 1121.599
1022.604, 1002.364
1023.086, 901.491
1023.568, 816.963
1024.050, 748.212
1024.532, 696.458
1025.014, 653.977
1025.496, 622.523
1025.979, 595.321
1026.461, 569.201
1026.943, 547.011
1027.425, 534.479
1027.907, 527.279
1028.389, 514.838
1028.871, 494.773
1029.353, 474.983
1029.835, 455.764
1030.318, 438.763
1030.800, 423.553
1031.282, 411.534
1031.764, 406.035
1032.246, 403.830
1032.728, 396.757
1033.210, 382.188
1033.692, 375.266
1034.174, 382.745
1034.657, 390.988
1035.139, 396.616
1035.621, 402.361
1036.103, 406.975
1036.585, 414.021
1037.067, 429.868
1037.549, 454.843
1038.031, 487.193
1038.514, 522.390
1038.996, 571.380
1039.478, 621.441
1039.960, 701.384
1040.442, 826.240
1040.924, 991.483
1041.406, 1187.804
1041.888, 1414.053
1042.370, 1691.551
1042.853, 2026.618
1043.335, 2404.044
1043.817, 2821.890
1044.299, 3279.518
1044.781, 3776.515
1045.263, 4313.016
1045.745, 4893.833
1046.227, 5515.865
1046.709, 6172.885
1047.192, 6956.706
1047.674, 7521.204
1048.156, 7897.214
1048.638, 7887.347
1049.120, 7352.188
1049.602, 6476.383
1050.084, 5415.970
1050.566, 4222.884
1051.049, 3223.348
1051.531, 2422.064
1052.013, 1796.935
1052.495, 1356.656
1052.977, 1042.155
1053.459, 841.349
1053.941, 715.448
1054.423, 631.790
1054.906, 582.529
1055.388, 542.963
1055.870, 513.396
1056.352, 485.991
1056.834, 460.264
1057.316, 442.909
1057.798, 436.530
1058.280, 431.596
1058.762, 419.411
1059.245, 406.086
1059.727, 405.798
1060.209, 416.899
1060.691, 425.966
1061.173, 433.955
1061.655, 453.317
1062.137, 486.875
1062.619, 529.111
1063.101, 576.886
1063.584, 628.128
1064.066, 680.672
1064.548, 734.498
1065.030, 786.670
1065.512, 841.106
1065.994, 922.500
1066.476, 1025.292
1066.958, 1105.040
1067.441, 1139.557
1067.923, 1115.031
1068.405, 989.354
1068.887, 815.440
1069.369, 655.135
1069.851, 517.202
1070.333, 421.125
1070.815, 362.878
1071.297, 327.273
1071.780, 307.873
1072.262, 295.274
1072.744, 282.707
1073.226, 273.333
1073.708, 270.357
1074.190, 272.073
1074.672, 278.672
1075.154, 287.463
1075.636, 293.729
1076.119, 296.510
1076.601, 298.608
1077.083, 301.567
1077.565, 303.791
1078.047, 302.301
1078.529, 301.960
1079.011, 309.002
1079.494, 318.080
1079.976, 320.301
1080.458, 316.287
1080.940, 315.795
1081.422, 323.308
1081.904, 329.821
1082.386, 334.798
1082.868, 336.263
1083.350, 331.510
1083.833, 324.309
1084.315, 316.885
1084.797, 310.151
1085.279, 306.833
1085.761, 308.922
1086.243, 308.847
1086.725, 305.648
1087.207, 301.560
1087.689, 294.201
1088.172, 290.052
1088.654, 295.644
1089.136, 305.387
1089.618, 308.689
1090.100, 305.331
1090.582, 298.639
1091.064, 285.888
1091.546, 280.483
1092.029, 286.100
1092.511, 292.817
1092.993, 296.329
1093.475, 296.704
1093.957, 293.429
1094.439, 287.608
1094.921, 285.078
1095.403, 285.763
1095.885, 283.197
1096.368, 276.950
1096.850, 273.085
1097.332, 273.659
1097.814, 275.299
1098.296, 275.335
1098.778, 273.867
1099.260, 270.324
1099.742, 265.634
1100.224, 262.247
1100.707, 260.408
1101.189, 261.426
1101.671, 264.839
1102.153, 266.706
1102.635, 264.760
1103.117, 262.003
1103.599, 262.595
1104.081, 263.155
1104.564, 257.336
1105.046, 249.730
1105.528, 247.350
1106.010, 250.147
1106.492, 256.459
1106.974, 265.521
1107.456, 271.700
1107.938, 270.986
1108.421, 267.530
1108.903, 261.441
1109.385, 255.733
1109.867, 252.249
1110.349, 251.223
1110.831, 253.682
1111.313, 259.103
1111.795, 262.897
1112.277, 263.675
1112.760, 263.547
1113.242, 261.907
1113.724, 260.622
1114.206, 259.503
1114.688, 259.901
1115.170, 262.937
1115.652, 268.429
1116.134, 276.717
1116.616, 290.031
1117.099, 294.492
1117.581, 285.125
1118.063, 280.950
1118.545, 286.995
1119.027, 294.994
1119.509, 300.820
1119.991, 304.143
1120.473, 303.648
1120.956, 300.543
1121.438, 304.299
1121.920, 314.714
1122.402, 318.351
1122.884, 314.200
1123.366, 311.031
1123.848, 312.031
1124.330, 316.135
1124.813, 322.934
1125.295, 330.411
1125.777, 335.903
1126.259, 339.018
1126.741, 338.051
1127.223, 334.142
1127.705, 329.982
1128.187, 326.259
1128.669, 322.656
1129.151, 318.914
1129.634, 317.090
1130.116, 323.399
1130.598, 327.355
1131.080, 315.839
1131.562, 300.300
1132.044, 292.320
1132.526, 291.476
1133.008, 295.872
1133.491, 304.537
1133.973, 309.452
1134.455, 305.894
1134.937, 301.572
1135.419, 297.028
1135.901, 293.757
1136.383, 293.040
1136.865, 293.552
1137.348, 293.726
1137.830, 293.903
1138.312, 295.592
1138.794, 299.312
1139.276, 302.600
1139.758, 305.526
1140.240, 307.579
1140.722, 308.034
1141.204, 309.780
1141.687, 315.142
1142.169, 321.085
1142.651, 322.931
1143.133, 321.397
1143.615, 319.863
1144.097, 318.442
1144.579, 317.755
1145.061, 318.140
1145.543, 322.716
1146.026, 332.289
1146.508, 342.761
1146.990, 351.353
1147.472, 357.651
1147.954, 361.378
1148.436, 362.271
1148.918, 357.354
1149.400, 350.517
1149.883, 350.569
1150.365, 356.035
1150.847, 357.398
1151.329, 351.208
1151.811, 345.300
1152.293, 344.471
1152.775, 344.336
1153.257, 343.332
1153.740, 341.432
1154.222, 337.212
1154.704, 332.932
1155.186, 331.516
1155.668, 333.156
1156.150, 337.319
1156.632, 347.830
1157.114, 352.750
1157.596, 347.202
1158.078, 345.498
1158.561, 353.679
1159.043, 361.880
1159.525, 362.481
1160.007, 359.781
1160.489, 361.700
1160.971, 367.960
1161.453, 375.944
1161.935, 385.543
1162.418, 393.829
1162.900, 400.232
1163.382, 400.875
1163.864, 394.512
1164.346, 387.237
1164.828, 383.565
1165.310, 383.657
1165.792, 390.503
1166.275, 399.283
1166.757, 400.457
1167.239, 397.961
1167.721, 400.910
1168.203, 408.679
1168.685, 414.223
1169.167, 415.124
1169.649, 414.468
1170.131, 411.499
1170.614, 410.565
1171.096, 416.903
1171.578, 422.591
1172.060, 421.462
1172.542, 416.574
1173.024, 411.281
1173.506, 406.244
1173.988, 404.666
1174.470, 409.888
1174.953, 409.181
1175.435, 400.292
1175.917, 391.497
1176.399, 385.246
1176.881, 377.316
1177.363, 364.706
1177.845, 350.130
1178.327, 337.203
1178.810, 326.145
1179.292, 318.208
1179.774, 313.286
1180.256, 312.069
1180.738, 313.643
1181.220, 313.438
1181.702, 310.225
1182.184, 305.075
1182.667, 298.130
1183.149, 292.687
1183.631, 293.559
1184.113, 295.931
1184.595, 294.905
1185.077, 292.549
1185.559, 291.152
1186.041, 290.880
1186.523, 290.834
1187.005, 290.968
1187.488, 294.344
1187.970, 304.401
1188.452, 313.510
1188.934, 320.130
1189.416, 326.317
1189.898, 333.579
1190.380, 339.391
1190.862, 340.416
1191.345, 339.843
1191.827, 345.446
1192.309, 357.164
1192.791, 367.640
1193.273, 376.998
1193.755, 379.171
1194.237, 373.763
1194.719, 370.678
1195.202, 373.564
1195.684, 375.458
1196.166, 370.015
1196.648, 362.723
1197.130, 362.954
1197.612, 364.772
1198.094, 359.378
1198.576, 349.171
1199.058, 337.150
1199.541, 324.989
1200.023, 315.104
1200.505, 308.109
1200.987, 303.555
1201.469, 307.347
1201.951, 304.465
1202.433, 282.902
1202.915, 263.146
1203.397, 258.839
1203.880, 257.737
1204.362, 247.598
1204.844, 233.039
1205.326, 227.759
1205.808, 232.696
1206.290, 230.948
1206.772, 221.865
1207.254, 213.727
1207.737, 207.678
1208.219, 204.115
1208.701, 203.196
1209.183, 204.119
1209.665, 206.811
1210.147, 208.749
1210.629, 204.680
1211.111, 198.555
1211.594, 197.132
1212.076, 198.049
1212.558, 196.534
1213.040, 193.046
1213.522, 191.191
1214.004, 191.908
1214.486, 191.781
1214.968, 188.777
1215.450, 185.948
1215.932, 182.502
1216.415, 181.492
1216.897, 187.134
1217.379, 192.579
1217.861, 191.149
1218.343, 186.063
1218.825, 185.134
1219.307, 188.345
1219.789, 191.667
1220.272, 195.170
1220.754, 193.653
1221.236, 186.832
1221.718, 180.957
1222.200, 178.324
1222.682, 180.020
1223.164, 187.859
1223.646, 195.444
1224.129, 192.862
1224.611, 187.844
1225.093, 191.843
1225.575, 198.038
1226.057, 195.010
1226.539, 186.580
1227.021, 183.948
1227.503, 188.790
1227.985, 192.914
1228.468, 194.080
1228.950, 195.092
1229.432, 196.575
1229.914, 197.222
1230.396, 195.910
1230.878, 195.337
1231.360, 197.896
1231.842, 201.025
1232.324, 200.422
1232.807, 196.822
1233.289, 193.127
1233.771, 189.617
1234.253, 189.177
1234.735, 190.798
1235.217, 187.945
1235.699, 180.260
1236.181, 175.795
1236.664, 179.022
1237.146, 182.151
1237.628, 177.123
1238.110, 172.604
1238.592, 176.517
1239.074, 181.420
1239.556, 181.358
1240.038, 178.058
1240.521, 172.811
1241.003, 166.893
1241.485, 166.336
1241.967, 173.338
1242.449, 175.337
1242.931, 170.634
1243.413, 168.254
1243.895, 169.829
1244.377, 172.423
1244.859, 174.849
1245.342, 175.905
1245.824, 174.312
1246.306, 171.191
1246.788, 165.963
1247.270, 162.271
1247.752, 170.099
1248.234, 182.126
1248.716, 184.488
1249.199, 179.183
1249.681, 175.196
1250.163, 174.747
1250.645, 177.003
1251.127, 185.598
1251.609, 190.037
1252.091, 185.294
1252.573, 180.551
1253.056, 177.202
1253.538, 177.002
1254.020, 182.728
1254.502, 188.893
1254.984, 186.165
1255.466, 177.198
1255.948, 172.689
1256.430, 172.560
1256.912, 178.044
1257.395, 187.432
1257.877, 194.918
1258.359, 198.818
1258.841, 197.623
1259.323, 190.566
1259.805, 183.805
1260.287, 179.887
1260.769, 179.569
1261.251, 187.078
1261.734, 193.991
1262.216, 193.938
1262.698, 190.897
1263.180, 189.437
1263.662, 188.639
1264.144, 185.460
1264.626, 179.747
1265.108, 179.667
1265.591, 185.630
1266.073, 192.257
##END=



