##NAMES=Humite
##RRUFFID=R040071
##IDEAL CHEMISTRY=Mg_7_(SiO_4_)_3_(F,OH)_2_
##LOCALITY=Tilly Foster mine, Brewster, Putnam County, New York, USA
##OWNER=RRUFF
##SOURCE=University of Arizona Mineral Museum
##DESCRIPTION=Red crystals
##STATUS=The identification of this mineral has been confirmed by X-ray diffraction and chemical analysis
##URL=rruff.info/R040071
##MEASURED CHEMISTRY=(Mg_0.91_Fe_0.09_)_7_(Si_0.99_Ti_0.01_O_4_)_3_(F_0.76_(OH)_0.24_)_2_
144.7061, 2906.849
145.1882, 2923.881
145.6703, 2937.966
146.1524, 2952.096
146.6346, 2961.605
147.1167, 2961.037
147.5988, 2936.509
148.0809, 2918.610
148.5630, 2915.475
149.0451, 2933.021
149.5273, 2946.137
150.0094, 2952.579
150.4915, 2954.685
150.9736, 2956.595
151.4557, 2953.407
151.9378, 2953.756
152.4200, 2961.474
152.9021, 2988.497
153.3842, 3004.128
153.8663, 3000.468
154.3484, 2982.499
154.8305, 2966.025
155.3127, 2954.875
155.7948, 2944.828
156.2769, 2933.716
156.7590, 2912.885
157.2411, 2899.463
157.7232, 2901.606
158.2054, 2917.488
158.6875, 2929.697
159.1696, 2928.772
159.6517, 2924.118
160.1338, 2924.039
160.6159, 2932.951
161.0980, 2945.176
161.5802, 2962.631
162.0623, 2986.443
162.5444, 3000.065
163.0265, 2977.554
163.5086, 2944.497
163.9907, 2936.049
164.4729, 3008.511
164.9550, 3081.354
165.4371, 3097.131
165.9192, 3033.843
166.4013, 2965.652
166.8834, 2932.551
167.3656, 2925.995
167.8477, 2926.765
168.3298, 2927.230
168.8119, 2929.338
169.2940, 2935.644
169.7761, 2949.044
170.2583, 2962.345
170.7404, 2969.274
171.2225, 2970.868
171.7046, 2971.294
172.1867, 2972.666
172.6688, 2974.589
173.1510, 2976.448
173.6331, 2977.503
174.1152, 2978.917
174.5973, 2983.234
175.0794, 2990.164
175.5615, 2995.327
176.0437, 2993.008
176.5258, 2986.365
177.0079, 2982.081
177.4900, 2985.648
177.9721, 2992.152
178.4542, 2992.246
178.9364, 2985.340
179.4185, 2980.396
179.9006, 2988.064
180.3827, 3005.917
180.8648, 3025.102
181.3469, 3043.223
181.8291, 3059.873
182.3112, 3073.307
182.7933, 3082.964
183.2754, 3091.053
183.7575, 3100.841
184.2396, 3111.862
184.7218, 3121.818
185.2039, 3126.817
185.6860, 3128.899
186.1681, 3135.414
186.6502, 3146.824
187.1323, 3163.218
187.6145, 3187.501
188.0966, 3219.706
188.5787, 3250.191
189.0608, 3272.823
189.5429, 3287.925
190.0250, 3298.776
190.5071, 3305.365
190.9893, 3308.671
191.4714, 3309.574
191.9535, 3307.697
192.4356, 3308.138
192.9177, 3317.651
193.3998, 3336.065
193.8820, 3351.329
194.3641, 3361.519
194.8462, 3366.416
195.3283, 3363.470
195.8104, 3351.208
196.2925, 3336.914
196.7747, 3328.941
197.2568, 3327.689
197.7389, 3325.814
198.2210, 3321.285
198.7031, 3314.131
199.1852, 3304.392
199.6674, 3291.291
200.1495, 3277.036
200.6316, 3262.264
201.1137, 3245.495
201.5958, 3237.328
202.0779, 3245.462
202.5601, 3271.581
203.0422, 3291.088
203.5243, 3304.912
204.0064, 3311.230
204.4885, 3303.770
204.9706, 3278.459
205.4528, 3254.461
205.9349, 3240.069
206.4170, 3235.994
206.8991, 3238.758
207.3812, 3251.527
207.8633, 3268.640
208.3455, 3275.887
208.8276, 3271.381
209.3097, 3262.176
209.7918, 3249.477
210.2739, 3229.600
210.7560, 3222.005
211.2382, 3231.788
211.7203, 3253.677
212.2024, 3269.747
212.6845, 3280.889
213.1666, 3284.425
213.6487, 3274.812
214.1309, 3243.573
214.6130, 3226.724
215.0951, 3233.006
215.5772, 3257.987
216.0593, 3274.372
216.5414, 3279.950
217.0236, 3280.373
217.5057, 3279.254
217.9878, 3274.916
218.4699, 3273.582
218.9520, 3277.083
219.4341, 3285.195
219.9163, 3292.308
220.3984, 3299.189
220.8805, 3304.352
221.3626, 3305.331
221.8447, 3297.763
222.3268, 3295.588
222.8089, 3302.197
223.2911, 3317.722
223.7732, 3336.140
224.2553, 3360.620
224.7374, 3384.506
225.2195, 3398.955
225.7016, 3398.614
226.1838, 3399.219
226.6659, 3406.656
227.1480, 3423.089
227.6301, 3427.048
228.1122, 3409.472
228.5943, 3386.581
229.0765, 3380.687
229.5586, 3399.532
230.0407, 3422.209
230.5228, 3445.927
231.0049, 3474.357
231.4870, 3486.263
231.9692, 3473.645
232.4513, 3449.924
232.9334, 3437.093
233.4155, 3440.595
233.8976, 3446.180
234.3797, 3449.067
234.8619, 3447.789
235.3440, 3448.426
235.8261, 3449.504
236.3082, 3453.183
236.7903, 3465.510
237.2724, 3496.750
237.7546, 3520.832
238.2367, 3525.482
238.7188, 3496.648
239.2009, 3482.687
239.6830, 3488.618
240.1651, 3507.707
240.6473, 3524.343
241.1294, 3540.524
241.6115, 3551.280
242.0936, 3553.241
242.5757, 3539.505
243.0578, 3532.412
243.5400, 3535.421
244.0221, 3544.617
244.5042, 3548.093
244.9863, 3540.831
245.4684, 3535.138
245.9505, 3538.222
246.4327, 3557.806
246.9148, 3568.928
247.3969, 3566.984
247.8790, 3556.252
248.3611, 3552.424
248.8432, 3560.191
249.3254, 3568.302
249.8075, 3569.853
250.2896, 3559.847
250.7717, 3554.667
251.2538, 3556.715
251.7359, 3564.303
252.2180, 3570.996
252.7002, 3578.249
253.1823, 3582.199
253.6644, 3579.740
254.1465, 3567.209
254.6286, 3556.214
255.1107, 3546.152
255.5929, 3538.027
256.0750, 3538.021
256.5571, 3551.271
257.0392, 3564.747
257.5213, 3568.278
258.0034, 3555.163
258.4856, 3550.594
258.9677, 3562.583
259.4498, 3586.068
259.9319, 3590.886
260.4140, 3567.163
260.8961, 3541.094
261.3783, 3533.888
261.8604, 3555.931
262.3425, 3565.716
262.8246, 3552.416
263.3067, 3521.851
263.7888, 3511.908
264.2710, 3531.981
264.7531, 3555.355
265.2352, 3559.488
265.7173, 3536.354
266.1994, 3521.828
266.6815, 3522.880
267.1637, 3536.761
267.6458, 3545.721
268.1279, 3547.547
268.6100, 3549.241
269.0921, 3558.321
269.5742, 3578.313
270.0564, 3589.740
270.5385, 3587.189
271.0206, 3573.461
271.5027, 3564.420
271.9848, 3560.279
272.4669, 3560.193
272.9491, 3564.942
273.4312, 3575.742
273.9133, 3583.934
274.3954, 3587.703
274.8775, 3587.799
275.3596, 3587.211
275.8418, 3585.550
276.3239, 3584.788
276.8060, 3587.229
277.2881, 3593.345
277.7702, 3598.297
278.2523, 3600.358
278.7345, 3600.844
279.2166, 3606.152
279.6987, 3617.450
280.1808, 3628.467
280.6629, 3634.065
281.1451, 3634.084
281.6272, 3631.299
282.1093, 3625.311
282.5914, 3617.100
283.0735, 3610.332
283.5556, 3605.147
284.0378, 3599.943
284.5199, 3592.888
285.0020, 3584.095
285.4841, 3576.108
285.9662, 3569.020
286.4483, 3563.403
286.9305, 3562.286
287.4126, 3566.217
287.8947, 3569.040
288.3768, 3565.348
288.8589, 3555.946
289.3410, 3545.536
289.8232, 3533.862
290.3053, 3522.940
290.7874, 3518.334
291.2695, 3520.040
291.7516, 3523.145
292.2337, 3522.559
292.7159, 3519.734
293.1980, 3520.960
293.6801, 3528.470
294.1622, 3539.292
294.6443, 3549.663
295.1264, 3559.356
295.6086, 3565.153
296.0907, 3562.272
296.5728, 3553.426
297.0549, 3544.879
297.5370, 3536.130
298.0191, 3530.927
298.5012, 3537.172
298.9833, 3553.447
299.4655, 3570.578
299.9476, 3582.549
300.4297, 3590.743
300.9118, 3597.056
301.3939, 3601.087
301.8760, 3604.850
302.3582, 3613.140
302.8403, 3624.284
303.3224, 3630.483
303.8045, 3618.140
304.2866, 3600.752
304.7687, 3597.954
305.2509, 3617.759
305.7330, 3642.631
306.2151, 3655.551
306.6972, 3660.160
307.1793, 3668.217
307.6614, 3689.986
308.1436, 3716.587
308.6257, 3740.306
309.1078, 3760.655
309.5899, 3775.175
310.0720, 3775.513
310.5541, 3768.182
311.0363, 3768.776
311.5184, 3796.721
312.0005, 3828.602
312.4826, 3843.466
312.9647, 3832.201
313.4468, 3825.372
313.9290, 3849.328
314.4111, 3888.529
314.8932, 3914.414
315.3753, 3899.218
315.8574, 3879.148
316.3395, 3876.177
316.8217, 3896.613
317.3038, 3917.977
317.7859, 3933.173
318.2680, 3943.766
318.7501, 3952.033
319.2322, 3954.489
319.7144, 3958.297
320.1965, 3970.852
320.6786, 3997.377
321.1607, 4007.755
321.6428, 3975.933
322.1249, 3929.975
322.6071, 3903.552
323.0892, 3925.433
323.5713, 3946.479
324.0534, 3950.796
324.5355, 3935.127
325.0176, 3921.831
325.4998, 3919.171
325.9819, 3917.266
326.4640, 3906.520
326.9461, 3864.759
327.4282, 3836.990
327.9103, 3839.693
328.3925, 3875.850
328.8746, 3888.998
329.3567, 3862.208
329.8388, 3824.276
330.3209, 3797.794
330.8030, 3787.521
331.2852, 3782.149
331.7673, 3782.739
332.2494, 3788.677
332.7315, 3790.080
333.2136, 3785.165
333.6957, 3777.981
334.1779, 3770.714
334.6600, 3761.727
335.1421, 3756.840
335.6242, 3758.405
336.1063, 3764.534
336.5884, 3765.392
337.0706, 3757.985
337.5527, 3751.443
338.0348, 3753.971
338.5169, 3769.250
338.9990, 3773.100
339.4811, 3758.253
339.9633, 3734.646
340.4454, 3730.660
340.9275, 3750.032
341.4096, 3770.597
341.8917, 3777.660
342.3738, 3771.117
342.8560, 3773.854
343.3381, 3790.359
343.8202, 3810.541
344.3023, 3814.137
344.7844, 3801.305
345.2665, 3790.588
345.7487, 3794.720
346.2308, 3809.879
346.7129, 3817.136
347.1950, 3814.786
347.6771, 3809.508
348.1592, 3811.803
348.6414, 3819.607
349.1235, 3823.184
349.6056, 3814.280
350.0877, 3799.224
350.5698, 3790.004
351.0519, 3787.067
351.5341, 3787.515
352.0162, 3792.260
352.4983, 3798.374
352.9804, 3799.223
353.4625, 3784.597
353.9446, 3768.198
354.4268, 3768.043
354.9089, 3782.864
355.3910, 3796.253
355.8731, 3792.509
356.3552, 3781.296
356.8373, 3775.116
357.3195, 3785.398
357.8016, 3793.448
358.2837, 3781.530
358.7658, 3754.406
359.2479, 3734.440
359.7300, 3740.774
360.2121, 3754.357
360.6942, 3760.512
361.1764, 3753.673
361.6585, 3742.872
362.1406, 3727.644
362.6227, 3710.882
363.1048, 3700.007
363.5869, 3702.607
364.0691, 3707.734
364.5512, 3710.964
365.0333, 3714.135
365.5154, 3710.044
365.9975, 3690.361
366.4796, 3663.644
366.9618, 3644.412
367.4439, 3633.823
367.9260, 3631.131
368.4081, 3638.733
368.8902, 3660.906
369.3723, 3675.687
369.8545, 3680.712
370.3366, 3679.337
370.8187, 3674.923
371.3008, 3665.392
371.7829, 3655.655
372.2650, 3644.279
372.7472, 3631.256
373.2293, 3631.910
373.7114, 3653.243
374.1935, 3678.610
374.6756, 3695.031
375.1577, 3702.536
375.6399, 3700.222
376.1220, 3683.865
376.6041, 3658.710
377.0862, 3646.083
377.5683, 3648.039
378.0504, 3654.973
378.5326, 3659.404
379.0147, 3661.336
379.4968, 3671.079
379.9789, 3692.970
380.4610, 3717.679
380.9431, 3725.710
381.4253, 3717.412
381.9074, 3706.858
382.3895, 3697.962
382.8716, 3692.569
383.3537, 3700.193
383.8358, 3723.888
384.3180, 3748.843
384.8001, 3759.460
385.2822, 3757.646
385.7643, 3750.074
386.2464, 3735.024
386.7285, 3717.996
387.2107, 3708.618
387.6928, 3707.028
388.1749, 3702.177
388.6570, 3678.257
389.1391, 3647.455
389.6212, 3627.649
390.1034, 3635.427
390.5855, 3646.293
391.0676, 3644.876
391.5497, 3632.365
392.0318, 3616.292
392.5139, 3596.072
392.9961, 3576.181
393.4782, 3559.654
393.9603, 3546.970
394.4424, 3538.297
394.9245, 3536.584
395.4066, 3539.076
395.8888, 3538.970
396.3709, 3534.312
396.8530, 3527.125
397.3351, 3516.748
397.8172, 3498.882
398.2993, 3489.153
398.7815, 3501.558
399.2636, 3518.630
399.7457, 3516.286
400.2278, 3471.089
400.7099, 3436.563
401.1920, 3426.995
401.6742, 3444.061
402.1563, 3456.747
402.6384, 3460.864
403.1205, 3465.610
403.6026, 3477.448
404.0847, 3484.663
404.5669, 3528.650
405.0490, 3560.529
405.5311, 3580.953
406.0132, 3555.616
406.4953, 3589.370
406.9774, 3599.443
407.4596, 3608.549
407.9417, 3624.896
408.4238, 3644.291
408.9059, 3664.477
409.3880, 3684.523
409.8701, 3702.916
410.3523, 3719.711
410.8344, 3734.977
411.3165, 3745.502
411.7986, 3755.022
412.2807, 3773.152
412.7628, 3800.665
413.2450, 3831.855
413.7271, 3863.950
414.2092, 3895.271
414.6913, 3922.008
415.1734, 3938.036
415.6555, 3952.258
416.1377, 3972.841
416.6198, 3999.430
417.1019, 4027.932
417.5840, 4057.188
418.0661, 4087.038
418.5482, 4117.178
419.0304, 4148.997
419.5125, 4179.381
419.9946, 4207.110
420.4767, 4232.470
420.9588, 4256.041
421.4409, 4273.920
421.9230, 4293.586
422.4052, 4319.965
422.8873, 4356.917
423.3694, 4389.044
423.8515, 4416.208
424.3336, 4436.411
424.8157, 4447.191
425.2979, 4439.354
425.7800, 4434.018
426.2621, 4440.439
426.7442, 4458.276
427.2263, 4451.429
427.7084, 4404.698
428.1906, 4353.135
428.6727, 4323.424
429.1548, 4322.666
429.6369, 4317.745
430.1190, 4305.428
430.6011, 4286.833
431.0833, 4263.159
431.5654, 4233.156
432.0475, 4205.021
432.5296, 4183.460
433.0117, 4167.777
433.4938, 4150.250
433.9760, 4129.797
434.4581, 4110.536
434.9402, 4100.625
435.4223, 4097.462
435.9044, 4089.146
436.3865, 4062.306
436.8687, 4032.548
437.3508, 4025.135
437.8329, 4039.064
438.3150, 4061.122
438.7971, 4091.261
439.2792, 4120.674
439.7614, 4136.210
440.2435, 4128.292
440.7256, 4117.822
441.2077, 4117.036
441.6898, 4123.932
442.1719, 4133.452
442.6541, 4144.117
443.1362, 4156.429
443.6183, 4171.112
444.1004, 4189.195
444.5825, 4206.273
445.0646, 4222.154
445.5468, 4236.413
446.0289, 4248.564
446.5110, 4260.891
446.9931, 4268.456
447.4752, 4268.514
447.9573, 4261.718
448.4395, 4257.891
448.9216, 4257.543
449.4037, 4259.479
449.8858, 4263.672
450.3679, 4271.878
450.8500, 4276.904
451.3322, 4278.747
451.8143, 4276.771
452.2964, 4266.140
452.7785, 4243.757
453.2606, 4230.525
453.7427, 4240.778
454.2249, 4270.549
454.7070, 4287.409
455.1891, 4290.145
455.6712, 4287.786
456.1533, 4290.876
456.6354, 4297.351
457.1176, 4298.922
457.5997, 4290.928
458.0818, 4279.577
458.5639, 4271.642
459.0460, 4267.326
459.5281, 4268.257
460.0103, 4279.777
460.4924, 4294.708
460.9745, 4305.457
461.4566, 4310.519
461.9387, 4312.564
462.4208, 4308.174
462.9030, 4302.552
463.3851, 4303.819
463.8672, 4325.486
464.3493, 4344.182
464.8314, 4346.964
465.3135, 4333.484
465.7957, 4328.739
466.2778, 4344.133
466.7599, 4365.036
467.2420, 4381.980
467.7241, 4393.672
468.2062, 4403.755
468.6884, 4415.925
469.1705, 4425.972
469.6526, 4420.560
470.1347, 4388.879
470.6168, 4364.456
471.0989, 4361.854
471.5811, 4382.025
472.0632, 4401.248
472.5453, 4419.541
473.0274, 4436.782
473.5095, 4455.346
473.9916, 4474.874
474.4738, 4482.721
474.9559, 4469.608
475.4380, 4449.571
475.9201, 4455.104
476.4022, 4483.509
476.8843, 4512.081
477.3665, 4523.922
477.8486, 4526.917
478.3307, 4533.661
478.8128, 4546.309
479.2949, 4559.491
479.7770, 4568.710
480.2592, 4575.956
480.7413, 4584.342
481.2234, 4592.659
481.7055, 4604.526
482.1876, 4627.464
482.6697, 4659.592
483.1518, 4678.929
483.6339, 4665.249
484.1161, 4646.796
484.5982, 4640.988
485.0803, 4662.917
485.5624, 4676.296
486.0445, 4673.316
486.5266, 4663.079
487.0088, 4661.681
487.4909, 4673.494
487.9730, 4686.947
488.4551, 4701.275
488.9372, 4716.285
489.4193, 4719.658
489.9015, 4708.751
490.3836, 4692.975
490.8657, 4676.061
491.3478, 4658.367
491.8299, 4655.783
492.3120, 4674.717
492.7942, 4702.480
493.2763, 4718.718
493.7584, 4723.984
494.2405, 4723.123
494.7226, 4713.786
495.2047, 4701.670
495.6869, 4696.542
496.1690, 4698.783
496.6511, 4702.453
497.1332, 4707.197
497.6153, 4709.426
498.0974, 4703.792
498.5796, 4677.266
499.0617, 4657.550
499.5438, 4664.291
500.0259, 4688.817
500.5080, 4707.389
500.9901, 4708.033
501.4723, 4705.451
501.9544, 4706.489
502.4365, 4714.063
502.9186, 4715.801
503.4007, 4710.690
503.8828, 4699.893
504.3650, 4683.460
504.8471, 4656.791
505.3292, 4634.073
505.8113, 4617.009
506.2934, 4605.353
506.7755, 4598.625
507.2577, 4597.105
507.7398, 4599.413
508.2219, 4610.030
508.7040, 4626.800
509.1861, 4625.602
509.6682, 4603.795
510.1504, 4576.955
510.6325, 4558.184
511.1146, 4548.223
511.5967, 4549.795
512.0789, 4568.968
512.5610, 4594.281
513.0431, 4611.801
513.5251, 4623.955
514.0073, 4640.355
514.4894, 4672.856
514.9715, 4707.252
515.4536, 4731.819
515.9357, 4742.668
516.4178, 4754.551
516.9000, 4772.756
517.3821, 4794.191
517.8642, 4815.706
518.3463, 4831.657
518.8284, 4853.503
519.3105, 4885.901
519.7927, 4926.254
520.2748, 4961.846
520.7569, 4991.207
521.2390, 5018.189
521.7211, 5042.876
522.2032, 5063.402
522.6854, 5096.805
523.1675, 5147.806
523.6496, 5200.673
524.1317, 5235.631
524.6138, 5253.545
525.0959, 5268.553
525.5781, 5282.788
526.0602, 5298.083
526.5423, 5315.714
527.0244, 5336.274
527.5065, 5365.428
527.9886, 5421.591
528.4708, 5481.116
528.9529, 5515.748
529.4350, 5521.160
529.9171, 5513.514
530.3992, 5488.792
530.8813, 5461.832
531.3635, 5449.168
531.8456, 5478.400
532.3277, 5498.421
532.8098, 5487.732
533.2919, 5454.411
533.7740, 5431.666
534.2562, 5437.246
534.7383, 5438.697
535.2204, 5422.889
535.7025, 5384.835
536.1846, 5356.369
536.6667, 5341.745
537.1489, 5330.073
537.6310, 5309.003
538.1131, 5277.107
538.5952, 5246.767
539.0773, 5218.382
539.5594, 5194.039
540.0416, 5180.649
540.5237, 5177.182
541.0058, 5172.873
541.4879, 5158.962
541.9700, 5141.381
542.4521, 5131.918
542.9343, 5131.038
543.4164, 5129.036
543.8985, 5118.764
544.3806, 5103.396
544.8627, 5086.569
545.3448, 5068.779
545.8270, 5050.421
546.3091, 5031.848
546.7912, 5013.036
547.2733, 4993.746
547.7554, 4976.264
548.2375, 4956.112
548.7197, 4929.963
549.2018, 4897.287
549.6839, 4869.921
550.1660, 4848.132
550.6481, 4831.473
551.1302, 4820.856
551.6124, 4817.756
552.0945, 4811.890
552.5766, 4800.915
553.0587, 4789.512
553.5408, 4783.912
554.0229, 4784.202
554.5051, 4793.247
554.9872, 4819.736
555.4693, 4850.935
555.9514, 4860.570
556.4335, 4850.566
556.9156, 4837.467
557.3978, 4827.188
557.8799, 4822.471
558.3620, 4828.378
558.8441, 4848.612
559.3262, 4866.628
559.8083, 4874.683
560.2905, 4875.973
560.7726, 4874.116
561.2547, 4873.464
561.7368, 4865.959
562.2189, 4841.080
562.7010, 4806.118
563.1832, 4792.066
563.6653, 4814.979
564.1474, 4834.419
564.6295, 4832.168
565.1116, 4805.867
565.5938, 4785.326
566.0759, 4770.708
566.5580, 4761.717
567.0401, 4759.584
567.5222, 4763.625
568.0043, 4767.645
568.4865, 4769.928
568.9686, 4772.788
569.4507, 4777.728
569.9328, 4785.660
570.4149, 4799.815
570.8970, 4822.752
571.3792, 4851.859
571.8613, 4888.235
572.3434, 4931.196
572.8255, 4968.276
573.3076, 4986.559
573.7897, 5001.685
574.2719, 5024.845
574.7540, 5064.676
575.2361, 5098.766
575.7182, 5121.452
576.2003, 5139.185
576.6824, 5160.335
577.1646, 5189.748
577.6467, 5211.188
578.1288, 5216.328
578.6109, 5212.621
579.0930, 5232.112
579.5751, 5277.729
580.0573, 5325.714
580.5394, 5368.686
581.0215, 5403.999
581.5036, 5415.194
581.9857, 5400.514
582.4678, 5380.117
582.9500, 5365.912
583.4321, 5359.642
583.9142, 5366.958
584.3963, 5399.702
584.8784, 5426.291
585.3605, 5420.964
585.8427, 5395.955
586.3248, 5374.876
586.8069, 5362.395
587.2890, 5357.514
587.7711, 5361.317
588.2532, 5374.023
588.7354, 5389.163
589.2175, 5403.213
589.6996, 5424.309
590.1817, 5459.404
590.6638, 5513.553
591.1459, 5556.506
591.6281, 5582.929
592.1102, 5609.813
592.5923, 5661.792
593.0744, 5736.704
593.5565, 5810.015
594.0386, 5878.803
594.5208, 5938.797
595.0029, 5971.529
595.4850, 5986.500
595.9671, 6019.367
596.4492, 6111.008
596.9313, 6212.787
597.4135, 6285.679
597.8956, 6327.613
598.3777, 6366.411
598.8598, 6410.852
599.3419, 6457.464
599.8240, 6504.377
600.3062, 6561.462
600.7883, 6602.109
601.2704, 6622.072
601.7525, 6627.719
602.2346, 6627.849
602.7167, 6625.399
603.1989, 6607.117
603.6810, 6567.891
604.1631, 6512.099
604.6452, 6450.562
605.1273, 6384.112
605.6094, 6311.456
606.0916, 6226.672
606.5737, 6136.848
607.0558, 6057.351
607.5379, 5989.033
608.0200, 5915.931
608.5021, 5824.115
608.9843, 5723.305
609.4664, 5623.040
609.9485, 5521.444
610.4306, 5427.598
610.9127, 5344.317
611.3948, 5270.731
611.8770, 5207.270
612.3591, 5165.805
612.8412, 5118.966
613.3233, 5059.065
613.8054, 4990.279
614.2875, 4933.436
614.7697, 4890.626
615.2518, 4853.253
615.7339, 4817.126
616.2160, 4782.555
616.6981, 4756.914
617.1802, 4740.421
617.6624, 4723.955
618.1445, 4697.933
618.6266, 4666.194
619.1087, 4636.396
619.5908, 4611.042
620.0729, 4584.574
620.5551, 4550.590
621.0372, 4513.673
621.5193, 4480.769
622.0014, 4452.531
622.4835, 4430.120
622.9656, 4417.141
623.4478, 4411.362
623.9299, 4402.189
624.4120, 4387.598
624.8941, 4372.131
625.3762, 4356.878
625.8583, 4341.792
626.3405, 4328.035
626.8226, 4315.201
627.3047, 4304.841
627.7868, 4300.322
628.2689, 4300.123
628.7510, 4294.240
629.2332, 4280.401
629.7153, 4266.688
630.1974, 4268.053
630.6795, 4275.252
631.1616, 4270.272
631.6437, 4239.775
632.1259, 4204.432
632.6080, 4168.534
633.0901, 4136.405
633.5722, 4118.906
634.0543, 4141.996
634.5364, 4157.608
635.0186, 4144.387
635.5007, 4102.670
635.9828, 4077.540
636.4649, 4077.387
636.9470, 4079.868
637.4291, 4068.999
637.9112, 4043.508
638.3933, 4029.831
638.8754, 4029.669
639.3575, 4036.189
639.8397, 4045.270
640.3218, 4054.930
640.8039, 4058.980
641.2860, 4054.085
641.7681, 4047.111
642.2502, 4043.603
642.7324, 4042.754
643.2145, 4043.095
643.6966, 4045.301
644.1787, 4047.375
644.6608, 4048.118
645.1429, 4047.844
645.6251, 4049.121
646.1072, 4054.752
646.5893, 4058.687
647.0714, 4056.489
647.5535, 4046.884
648.0356, 4052.291
648.5178, 4078.216
648.9999, 4100.934
649.4820, 4091.642
649.9641, 4057.661
650.4462, 4044.776
650.9283, 4061.946
651.4105, 4084.348
651.8926, 4079.914
652.3747, 4062.732
652.8568, 4057.950
653.3389, 4085.541
653.8210, 4113.589
654.3032, 4121.729
654.7853, 4118.147
655.2674, 4122.059
655.7495, 4156.059
656.2316, 4177.708
656.7137, 4170.572
657.1959, 4137.850
657.6780, 4119.744
658.1601, 4119.869
658.6422, 4126.014
659.1243, 4131.546
659.6064, 4136.717
660.0886, 4146.813
660.5707, 4162.252
661.0528, 4178.405
661.5349, 4193.975
662.0170, 4206.334
662.4991, 4208.261
662.9813, 4194.366
663.4634, 4182.940
663.9455, 4189.248
664.4276, 4204.631
664.9097, 4217.386
665.3918, 4216.035
665.8740, 4221.176
666.3561, 4245.445
666.8382, 4278.721
667.3203, 4295.417
667.8024, 4290.141
668.2845, 4279.771
668.7667, 4265.754
669.2488, 4250.841
669.7309, 4254.184
670.2130, 4276.766
670.6951, 4297.900
671.1772, 4301.032
671.6594, 4293.737
672.1415, 4289.126
672.6236, 4288.000
673.1057, 4291.667
673.5878, 4304.578
674.0699, 4320.808
674.5521, 4334.794
675.0342, 4344.231
675.5163, 4353.726
675.9984, 4365.314
676.4805, 4376.706
676.9626, 4384.884
677.4448, 4386.620
677.9269, 4392.222
678.4090, 4405.380
678.8911, 4420.609
679.3732, 4423.283
679.8553, 4413.287
680.3375, 4409.992
680.8196, 4424.785
681.3017, 4447.890
681.7838, 4462.226
682.2659, 4468.854
682.7480, 4472.477
683.2302, 4468.201
683.7123, 4467.919
684.1944, 4485.595
684.6765, 4522.432
685.1586, 4548.063
685.6407, 4545.412
686.1229, 4536.815
686.6050, 4534.100
687.0871, 4536.756
687.5692, 4547.689
688.0513, 4569.580
688.5334, 4595.133
689.0156, 4619.147
689.4977, 4641.187
689.9798, 4653.411
690.4619, 4652.101
690.9440, 4648.003
691.4261, 4651.955
691.9083, 4663.524
692.3904, 4682.224
692.8725, 4716.832
693.3546, 4747.667
693.8367, 4756.848
694.3188, 4753.705
694.8010, 4761.872
695.2831, 4800.460
695.7652, 4836.049
696.2473, 4860.513
696.7294, 4874.890
697.2115, 4883.950
697.6937, 4882.914
698.1758, 4891.085
698.6579, 4923.993
699.1400, 4976.260
699.6221, 5013.041
700.1042, 5034.089
700.5864, 5052.777
701.0685, 5081.331
701.5506, 5113.527
702.0327, 5139.019
702.5148, 5155.346
702.9969, 5174.398
703.4791, 5202.384
703.9612, 5235.791
704.4433, 5271.613
704.9254, 5312.466
705.4075, 5351.563
705.8896, 5389.777
706.3718, 5425.234
706.8539, 5452.681
707.3360, 5470.244
707.8181, 5494.632
708.3002, 5531.020
708.7823, 5572.847
709.2645, 5604.888
709.7466, 5630.450
710.2287, 5663.146
710.7108, 5716.336
711.1929, 5772.778
711.6750, 5819.161
712.1572, 5857.052
712.6393, 5891.137
713.1214, 5913.877
713.6035, 5942.423
714.0856, 5985.917
714.5677, 6044.060
715.0499, 6101.571
715.5320, 6157.860
716.0141, 6215.940
716.4962, 6280.514
716.9783, 6351.706
717.4604, 6402.393
717.9426, 6431.583
718.4247, 6463.380
718.9068, 6522.854
719.3889, 6598.044
719.8710, 6671.437
720.3531, 6740.254
720.8353, 6805.128
721.3174, 6854.354
721.7995, 6904.198
722.2816, 6971.102
722.7637, 7077.022
723.2458, 7169.129
723.7280, 7230.744
724.2101, 7286.046
724.6922, 7375.287
725.1743, 7509.295
725.6564, 7607.220
726.1385, 7641.827
726.6207, 7657.813
727.1028, 7751.598
727.5849, 7902.422
728.0670, 8028.918
728.5491, 8074.502
729.0313, 8103.018
729.5134, 8170.122
729.9955, 8264.628
730.4776, 8356.380
730.9597, 8427.144
731.4418, 8500.398
731.9240, 8589.217
732.4061, 8690.763
732.8882, 8777.938
733.3703, 8843.123
733.8524, 8912.349
734.3345, 8997.856
734.8167, 9098.155
735.2988, 9208.773
735.7809, 9329.744
736.2630, 9447.748
736.7451, 9546.518
737.2272, 9637.844
737.7094, 9733.064
738.1915, 9832.874
738.6736, 9950.000
739.1557, 10113.99
739.6378, 10282.47
740.1199, 10421.50
740.6021, 10495.53
741.0842, 10617.88
741.5663, 10813.55
742.0484, 11028.21
742.5305, 11208.92
743.0126, 11353.91
743.4948, 11500.90
743.9769, 11653.25
744.4590, 11815.20
744.9411, 11997.76
745.4232, 12196.06
745.9053, 12398.57
746.3875, 12613.55
746.8696, 12811.70
747.3517, 12964.97
747.8338, 13088.81
748.3159, 13208.92
748.7980, 13342.85
749.2802, 13456.09
749.7623, 13541.61
750.2444, 13605.44
750.7265, 13663.15
751.2086, 13715.65
751.6907, 13759.22
752.1729, 13795.53
752.6550, 13820.26
753.1371, 13829.21
753.6192, 13820.37
754.1013, 13783.45
754.5834, 13699.24
755.0656, 13596.78
755.5477, 13502.25
756.0298, 13411.38
756.5119, 13298.98
756.9940, 13148.13
757.4761, 12983.10
757.9583, 12804.64
758.4404, 12615.23
758.9225, 12446.45
759.4046, 12305.51
759.8867, 12161.28
760.3688, 11992.23
760.8509, 11802.49
761.3330, 11602.75
761.8151, 11391.92
762.2972, 11187.26
762.7794, 11005.97
763.2615, 10833.73
763.7436, 10654.76
764.2257, 10465.72
764.7078, 10286.66
765.1899, 10125.93
765.6721, 9973.383
766.1542, 9820.549
766.6363, 9662.731
767.1184, 9522.932
767.6005, 9405.009
768.0826, 9299.283
768.5648, 9201.099
769.0469, 9109.325
769.5290, 9014.046
770.0111, 8911.264
770.4932, 8824.126
770.9753, 8784.517
771.4575, 8769.474
771.9396, 8751.300
772.4217, 8720.215
772.9038, 8692.479
773.3859, 8669.463
773.8680, 8653.543
774.3502, 8645.432
774.8323, 8639.887
775.3144, 8660.594
775.7965, 8718.559
776.2786, 8787.068
776.7607, 8820.661
777.2429, 8825.843
777.7250, 8837.835
778.2071, 8867.323
778.6892, 8903.670
779.1713, 8951.492
779.6534, 8996.251
780.1356, 9013.323
780.6177, 8976.042
781.0998, 8932.145
781.5819, 8896.451
782.0640, 8860.896
782.5461, 8813.276
783.0283, 8759.895
783.5104, 8673.434
783.9925, 8535.959
784.4746, 8375.929
784.9567, 8255.344
785.4388, 8168.221
785.9210, 8084.239
786.4031, 7990.022
786.8852, 7892.812
787.3673, 7801.835
787.8494, 7713.562
788.3315, 7621.023
788.8137, 7506.443
789.2958, 7402.744
789.7779, 7324.449
790.2600, 7264.854
790.7421, 7193.313
791.2242, 7101.311
791.7064, 7028.545
792.1885, 6998.901
792.6706, 6993.767
793.1527, 6957.026
793.6348, 6894.485
794.1169, 6838.629
794.5991, 6811.978
795.0812, 6795.822
795.5633, 6776.996
796.0454, 6755.665
796.5275, 6735.612
797.0096, 6720.918
797.4918, 6704.223
797.9739, 6680.945
798.4560, 6652.263
798.9381, 6636.608
799.4202, 6635.500
799.9023, 6638.239
800.3845, 6638.310
800.8666, 6637.642
801.3487, 6635.605
801.8308, 6634.201
802.3129, 6650.056
802.7950, 6715.577
803.2772, 6783.850
803.7593, 6819.649
804.2414, 6819.258
804.7235, 6823.975
805.2056, 6833.338
805.6877, 6853.488
806.1699, 6887.513
806.6520, 6935.285
807.1341, 6997.592
807.6162, 7076.184
808.0983, 7147.248
808.5804, 7181.305
809.0626, 7201.490
809.5447, 7246.845
810.0268, 7318.540
810.5089, 7396.079
810.9910, 7466.703
811.4731, 7540.949
811.9553, 7629.070
812.4374, 7736.449
812.9195, 7823.387
813.4016, 7873.385
813.8837, 7937.198
814.3658, 8048.289
814.8480, 8203.719
815.3301, 8375.678
815.8122, 8565.064
816.2943, 8762.425
816.7764, 8959.076
817.2585, 9161.271
817.7407, 9370.963
818.2228, 9585.987
818.7049, 9830.678
819.1870, 10132.35
819.6691, 10452.16
820.1512, 10756.62
820.6334, 11032.93
821.1155, 11386.47
821.5976, 11826.92
822.0797, 12298.66
822.5618, 12762.95
823.0439, 13220.53
823.5261, 13678.02
824.0082, 14133.76
824.4903, 14628.72
824.9724, 15214.60
825.4545, 15839.92
825.9366, 16469.50
826.4188, 17088.33
826.9009, 17739.89
827.3830, 18423.39
827.8651, 19140.95
828.3472, 19881.50
828.8293, 20655.17
829.3115, 21437.90
829.7936, 22227.53
830.2757, 23020.60
830.7578, 23817.79
831.2399, 24606.71
831.7220, 25361.00
832.2042, 26069.35
832.6863, 26737.44
833.1684, 27424.00
833.6505, 28015.91
834.1326, 28431.99
834.6147, 28661.51
835.0969, 28800.90
835.5790, 28849.53
836.0611, 28812.73
836.5432, 28679.96
837.0253, 28462.87
837.5074, 28197.64
837.9896, 27884.42
838.4717, 27602.25
838.9538, 27437.39
839.4359, 27313.74
839.9180, 27166.71
840.4001, 26989.72
840.8823, 26787.85
841.3644, 26584.71
841.8465, 26331.47
842.3286, 26001.72
842.8107, 25593.47
843.2928, 25147.91
843.7750, 24672.61
844.2571, 24121.58
844.7392, 23427.84
845.2213, 22650.36
845.7034, 21873.64
846.1855, 21104.94
846.6677, 20366.43
847.1498, 19666.17
847.6319, 19014.05
848.1140, 18414.11
848.5961, 17864.82
849.0782, 17399.51
849.5604, 17037.26
850.0425, 16724.40
850.5246, 16431.05
851.0067, 16162.45
851.4888, 15955.76
851.9709, 15806.77
852.4531, 15688.38
852.9352, 15568.09
853.4173, 15479.19
853.8994, 15456.90
854.3815, 15499.08
854.8636, 15555.40
855.3458, 15593.13
855.8279, 15673.84
856.3100, 15836.39
856.7921, 16064.04
857.2742, 16215.37
857.7563, 16285.22
858.2385, 16374.28
858.7206, 16607.94
859.2027, 16854.07
859.6848, 16905.50
860.1669, 16796.14
860.6490, 16666.35
861.1312, 16577.41
861.6133, 16481.88
862.0954, 16376.40
862.5775, 16251.91
863.0596, 16061.17
863.5417, 15796.65
864.0239, 15495.12
864.5060, 15158.41
864.9881, 14800.05
865.4702, 14436.05
865.9523, 14073.18
866.4344, 13710.73
866.9166, 13332.67
867.3987, 12977.74
867.8808, 12681.84
868.3629, 12424.64
868.8450, 12142.81
869.3271, 11791.87
869.8093, 11480.87
870.2914, 11241.47
870.7735, 11043.59
871.2556, 10830.37
871.7377, 10604.25
872.2198, 10385.64
872.7020, 10176.84
873.1841, 9980.302
873.6662, 9806.511
874.1483, 9645.758
874.6304, 9484.107
875.1125, 9293.730
875.5947, 9133.144
876.0768, 9020.654
876.5589, 8930.032
877.0410, 8822.732
877.5231, 8698.165
878.0052, 8582.667
878.4874, 8481.374
878.9695, 8386.823
879.4516, 8288.839
879.9337, 8191.670
880.4158, 8102.238
880.8979, 8022.154
881.3801, 7949.524
881.8622, 7888.939
882.3443, 7831.208
882.8264, 7766.059
883.3085, 7686.530
883.7906, 7626.526
884.2727, 7589.867
884.7548, 7562.029
885.2369, 7530.324
885.7191, 7495.891
886.2012, 7459.843
886.6833, 7422.184
887.1654, 7389.937
887.6475, 7369.336
888.1296, 7354.411
888.6118, 7343.498
889.0939, 7339.643
889.5760, 7319.457
890.0581, 7274.788
890.5402, 7233.797
891.0223, 7216.277
891.5045, 7218.482
891.9866, 7230.618
892.4687, 7251.034
892.9508, 7262.987
893.4329, 7241.741
893.9150, 7219.071
894.3972, 7222.504
894.8793, 7251.649
895.3614, 7266.859
895.8435, 7257.511
896.3256, 7248.027
896.8077, 7249.008
897.2899, 7255.866
897.7720, 7250.162
898.2541, 7232.687
898.7362, 7211.000
899.2183, 7190.743
899.7004, 7166.612
900.1826, 7122.839
900.6647, 7071.377
901.1468, 7045.688
901.6289, 7074.021
902.1110, 7105.349
902.5931, 7138.680
903.0753, 7165.578
903.5574, 7154.462
904.0395, 7108.441
904.5216, 7096.721
905.0037, 7148.296
905.4858, 7216.114
905.9680, 7253.640
906.4501, 7271.789
906.9322, 7287.041
907.4143, 7292.393
907.8964, 7313.921
908.3785, 7359.388
908.8607, 7418.157
909.3428, 7481.525
909.8249, 7549.552
910.3070, 7615.168
910.7891, 7677.059
911.2712, 7739.009
911.7534, 7812.732
912.2355, 7885.897
912.7176, 7939.422
913.1997, 7967.533
913.6818, 7995.928
914.1639, 8038.780
914.6461, 8078.684
915.1282, 8109.038
915.6103, 8130.509
916.0924, 8124.374
916.5745, 8088.942
917.0566, 8044.072
917.5388, 8010.549
918.0209, 7973.495
918.5030, 7902.581
918.9851, 7803.831
919.4672, 7714.912
919.9493, 7650.861
920.4315, 7600.918
920.9136, 7562.755
921.3957, 7534.499
921.8778, 7510.801
922.3599, 7492.317
922.8420, 7470.562
923.3242, 7436.819
923.8063, 7405.053
924.2884, 7398.591
924.7705, 7411.479
925.2526, 7430.191
925.7347, 7456.011
926.2169, 7478.975
926.6990, 7479.420
927.1811, 7483.401
927.6632, 7532.240
928.1453, 7637.218
928.6274, 7720.498
929.1096, 7770.559
929.5917, 7806.388
930.0738, 7852.072
930.5559, 7899.824
931.0380, 7938.407
931.5201, 7966.824
932.0023, 7979.104
932.4844, 7974.911
932.9665, 7950.785
933.4486, 7904.883
933.9307, 7836.075
934.4128, 7748.131
934.8950, 7637.588
935.3771, 7531.705
935.8592, 7454.917
936.3413, 7395.456
936.8234, 7327.879
937.3055, 7255.238
937.7877, 7204.739
938.2698, 7211.894
938.7519, 7218.993
939.2340, 7201.088
939.7161, 7164.305
940.1982, 7130.842
940.6804, 7099.190
941.1625, 7082.761
941.6446, 7092.433
942.1267, 7110.496
942.6088, 7106.948
943.0909, 7091.437
943.5731, 7084.557
944.0552, 7099.426
944.5373, 7116.731
945.0194, 7127.379
945.5015, 7140.788
945.9836, 7170.589
946.4658, 7219.252
946.9479, 7261.296
947.4300, 7294.170
947.9121, 7322.556
948.3942, 7349.737
948.8763, 7376.607
949.3585, 7404.618
949.8406, 7433.985
950.3227, 7465.153
950.8048, 7498.885
951.2869, 7534.279
951.7690, 7573.097
952.2512, 7614.944
952.7333, 7642.593
953.2154, 7655.377
953.6975, 7669.246
954.1796, 7697.270
954.6617, 7729.220
955.1439, 7746.477
955.6260, 7755.876
956.1081, 7783.440
956.5902, 7860.519
957.0723, 7925.614
957.5544, 7956.975
958.0366, 7975.814
958.5187, 8031.409
959.0008, 8121.831
959.4829, 8209.925
959.9650, 8287.477
960.4471, 8358.366
960.9293, 8419.646
961.4114, 8481.938
961.8935, 8561.165
962.3756, 8679.082
962.8577, 8771.223
963.3398, 8828.271
963.8220, 8868.311
964.3041, 8913.452
964.7862, 8958.531
965.2683, 8947.693
965.7504, 8880.299
966.2325, 8806.010
966.7147, 8770.919
967.1968, 8733.465
967.6789, 8653.927
968.1610, 8533.949
968.6431, 8433.553
969.1252, 8366.455
969.6074, 8293.856
970.0895, 8200.597
970.5716, 8097.663
971.0537, 8014.440
971.5358, 7947.423
972.0179, 7883.659
972.5001, 7818.699
972.9822, 7753.942
973.4643, 7679.277
973.9464, 7609.925
974.4285, 7571.020
974.9106, 7580.864
975.3928, 7568.795
975.8749, 7529.676
976.3570, 7474.564
976.8391, 7397.666
977.3212, 7317.272
977.8033, 7278.125
978.2855, 7284.271
978.7676, 7291.483
979.2497, 7275.993
979.7318, 7257.450
980.2139, 7249.396
980.6960, 7249.398
981.1782, 7228.647
981.6603, 7183.958
982.1424, 7147.191
982.6245, 7140.479
983.1066, 7140.436
983.5887, 7103.799
984.0709, 7048.770
984.5530, 7015.174
985.0351, 7036.876
985.5172, 7055.142
985.9993, 7059.407
986.4814, 7057.600
986.9636, 7060.350
987.4457, 7067.395
987.9278, 7067.578
988.4099, 7059.075
988.8920, 7049.344
989.3741, 7038.717
989.8563, 7034.035
990.3384, 7047.139
990.8205, 7081.991
991.3026, 7098.233
991.7847, 7081.749
992.2668, 7067.817
992.7490, 7073.442
993.2311, 7092.916
993.7132, 7108.700
994.1953, 7120.376
994.6774, 7127.304
995.1595, 7131.290
995.6417, 7128.377
996.1238, 7107.651
996.6059, 7081.594
997.0880, 7073.279
997.5701, 7089.370
998.0522, 7104.626
998.5344, 7118.087
999.0165, 7126.113
999.4986, 7116.875
999.9807, 7101.689
1000.463, 7106.554
1000.945, 7136.880
1001.427, 7157.739
1001.909, 7144.822
1002.391, 7129.383
1002.873, 7129.250
1003.356, 7142.002
1003.838, 7140.214
1004.320, 7123.684
1004.802, 7111.815
1005.284, 7118.123
1005.766, 7129.158
1006.248, 7130.462
1006.730, 7125.422
1007.212, 7120.780
1007.695, 7119.709
1008.177, 7114.436
1008.659, 7064.511
1009.141, 7106.775
1009.623, 7132.059
1010.105, 7141.274
1010.587, 7086.295
1011.069, 7114.209
1011.551, 7108.904
1012.034, 7102.244
1012.516, 7141.825
1012.998, 7096.183
1013.480, 7140.547
1013.962, 7149.095
1014.444, 7154.286
1014.926, 7149.009
1015.408, 7126.687
1015.891, 7097.161
1016.373, 7076.788
1016.855, 7063.616
1017.337, 7053.102
1017.819, 7044.560
1018.301, 7037.479
1018.783, 7027.829
1019.265, 7022.872
1019.747, 7033.433
1020.230, 7059.414
1020.712, 7074.163
1021.194, 7075.660
1021.676, 7074.130
1022.158, 7077.660
1022.640, 7081.859
1023.122, 7083.169
1023.604, 7081.168
1024.087, 7076.360
1024.569, 7068.312
1025.051, 7058.518
1025.533, 7046.813
1026.015, 7034.434
1026.497, 7025.298
1026.979, 7017.839
1027.461, 7006.294
1027.943, 6983.882
1028.426, 6968.680
1028.908, 6975.818
1029.390, 6988.942
1029.872, 6993.865
1030.354, 6989.958
1030.836, 6981.531
1031.318, 6968.467
1031.800, 6952.911
1032.282, 6930.749
1032.765, 6911.096
1033.247, 6908.133
1033.729, 6918.390
1034.211, 6923.584
1034.693, 6917.654
1035.175, 6907.469
1035.657, 6888.600
1036.139, 6873.208
1036.622, 6894.286
1037.104, 6939.183
1037.586, 6956.816
1038.068, 6931.273
1038.550, 6901.247
1039.032, 6884.351
1039.514, 6877.509
1039.996, 6879.875
1040.479, 6891.631
1040.961, 6905.602
1041.443, 6923.411
1041.925, 6932.284
1042.407, 6920.150
1042.889, 6898.991
1043.371, 6880.975
1043.853, 6867.583
1044.335, 6862.159
1044.818, 6880.245
1045.300, 6885.083
1045.782, 6867.156
1046.264, 6842.527
1046.746, 6831.094
1047.228, 6830.131
1047.710, 6828.777
1048.192, 6825.890
1048.674, 6816.153
1049.157, 6784.502
1049.639, 6754.652
1050.121, 6746.594
1050.603, 6756.464
1051.085, 6755.108
1051.567, 6739.571
1052.049, 6736.329
1052.531, 6762.879
1053.014, 6789.507
1053.496, 6766.127
1053.978, 6718.192
1054.460, 6686.880
1054.942, 6689.863
1055.424, 6696.698
1055.906, 6712.688
1056.388, 6719.007
1056.870, 6690.444
1057.353, 6637.659
1057.835, 6617.634
1058.317, 6628.903
1058.799, 6655.666
1059.281, 6719.641
1059.763, 6764.331
1060.245, 6740.153
1060.727, 6680.061
1061.209, 6656.617
1061.692, 6674.150
1062.174, 6698.453
1062.656, 6727.525
1063.138, 6746.413
1063.620, 6728.575
1064.102, 6697.083
1064.584, 6681.616
1065.066, 6687.625
1065.549, 6689.135
1066.031, 6677.039
1066.513, 6674.339
1066.995, 6695.523
1067.477, 6728.676
1067.959, 6740.491
1068.441, 6735.182
1068.923, 6726.113
1069.405, 6715.029
1069.888, 6706.130
1070.370, 6698.021
1070.852, 6695.238
1071.334, 6706.153
1071.816, 6733.669
1072.298, 6734.506
1072.780, 6707.504
1073.262, 6685.597
1073.745, 6702.035
1074.227, 6726.286
1074.709, 6730.778
1075.191, 6719.684
1075.673, 6714.995
1076.155, 6721.370
1076.637, 6726.214
1077.119, 6728.300
1077.601, 6725.819
1078.083, 6710.655
1078.566, 6690.728
1079.048, 6680.288
1079.530, 6681.586
1080.012, 6691.884
1080.494, 6719.415
1080.976, 6745.547
1081.458, 6763.419
1081.940, 6773.939
1082.423, 6784.250
1082.905, 6792.576
1083.387, 6786.677
1083.869, 6752.215
1084.351, 6719.497
1084.833, 6704.576
1085.315, 6704.066
1085.797, 6716.722
1086.280, 6752.386
1086.762, 6752.881
1087.244, 6713.376
1087.726, 6681.470
1088.208, 6702.270
1088.690, 6743.003
1089.172, 6771.842
1089.654, 6787.993
1090.136, 6792.023
1090.619, 6776.403
1091.101, 6761.827
1091.583, 6748.581
1092.065, 6742.011
1092.547, 6754.055
1093.029, 6777.639
1093.511, 6799.737
1093.993, 6819.057
1094.475, 6821.573
1094.958, 6774.219
1095.440, 6739.888
1095.922, 6749.388
1096.404, 6790.069
1096.886, 6817.744
1097.368, 6832.308
1097.850, 6832.401
1098.332, 6811.229
1098.815, 6791.571
1099.297, 6789.594
1099.779, 6797.790
1100.261, 6811.009
1100.743, 6831.403
1101.225, 6836.444
1101.707, 6824.646
1102.189, 6810.256
1102.672, 6799.751
1103.154, 6793.774
1103.636, 6799.188
1104.118, 6809.458
1104.600, 6808.225
1105.082, 6771.786
1105.564, 6762.982
1106.046, 6793.673
1106.528, 6833.253
1107.010, 6848.666
1107.493, 6848.303
1107.975, 6852.150
1108.457, 6860.396
1108.939, 6858.889
1109.421, 6823.624
1109.903, 6800.376
1110.385, 6804.208
1110.867, 6825.831
1111.350, 6848.062
1111.832, 6870.646
1112.314, 6892.395
1112.796, 6914.233
1113.278, 6927.307
1113.760, 6915.108
1114.242, 6900.640
1114.724, 6901.181
1115.207, 6915.458
1115.689, 6927.774
1116.171, 6938.119
1116.653, 6944.288
1117.135, 6942.970
1117.617, 6941.438
1118.099, 6954.912
1118.581, 6969.022
1119.063, 6962.144
1119.546, 6922.452
1120.028, 6890.004
1120.510, 6863.341
1120.992, 6850.098
1121.474, 6865.238
1121.956, 6891.563
1122.438, 6905.183
1122.920, 6907.216
1123.402, 6901.313
1123.885, 6872.711
1124.367, 6861.821
1124.849, 6878.989
1125.331, 6901.251
1125.813, 6897.522
1126.295, 6878.834
1126.777, 6878.640
1127.259, 6897.388
1127.742, 6909.626
1128.224, 6895.977
1128.706, 6882.927
1129.188, 6879.176
1129.670, 6881.359
1130.152, 6880.398
1130.634, 6878.027
1131.116, 6886.058
1131.599, 6907.739
1132.081, 6932.378
1132.563, 6959.180
1133.045, 6980.105
1133.527, 6986.201
1134.009, 6980.523
1134.491, 6988.997
1134.973, 7011.310
1135.455, 7022.843
1135.938, 7010.222
1136.420, 6993.388
1136.902, 6985.754
1137.384, 6986.427
1137.866, 6997.519
1138.348, 7022.830
1138.830, 7033.616
1139.312, 7028.925
1139.794, 7016.926
1140.277, 6994.465
1140.759, 6974.659
1141.241, 6978.839
1141.723, 6997.256
1142.205, 7009.412
1142.687, 7006.720
1143.169, 7007.522
1143.651, 7014.159
1144.134, 7018.780
1144.616, 7009.389
1145.098, 6995.510
1145.580, 6996.525
1146.062, 7009.934
1146.544, 7021.361
1147.026, 7029.727
1147.508, 7029.525
1147.990, 7016.665
1148.473, 7000.722
1148.955, 6993.979
1149.437, 6994.884
1149.919, 7001.713
1150.401, 7013.865
1150.883, 7021.077
1151.365, 7011.175
1151.847, 7004.309
1152.329, 7007.271
1152.812, 7017.217
1153.294, 7032.892
1153.776, 7050.416
1154.258, 7047.425
1154.740, 7014.656
1155.222, 6991.418
1155.704, 7005.121
1156.186, 7031.691
1156.669, 7060.546
1157.151, 7088.738
1157.633, 7094.321
1158.115, 7079.728
1158.597, 7070.209
1159.079, 7077.434
1159.561, 7085.191
1160.043, 7075.936
1160.526, 7066.243
1161.008, 7074.036
1161.490, 7100.213
1161.972, 7114.794
1162.454, 7117.558
1162.936, 7114.294
1163.418, 7103.883
1163.900, 7093.588
1164.382, 7086.680
1164.865, 7085.088
1165.347, 7092.418
1165.829, 7111.893
1166.311, 7128.733
1166.793, 7143.355
1167.275, 7152.897
1167.757, 7154.878
1168.239, 7151.528
1168.721, 7137.925
1169.204, 7121.571
1169.686, 7124.556
1170.168, 7159.105
1170.650, 7177.173
1171.132, 7172.655
1171.614, 7161.450
1172.096, 7150.703
1172.578, 7146.963
1173.061, 7165.838
1173.543, 7202.172
1174.025, 7221.332
1174.507, 7206.981
1174.989, 7207.889
1175.471, 7236.264
1175.953, 7268.059
1176.435, 7271.542
1176.917, 7260.335
1177.400, 7253.954
1177.882, 7254.659
1178.364, 7259.264
1178.846, 7277.133
1179.328, 7276.451
1179.810, 7240.737
1180.292, 7199.686
1180.774, 7211.494
1181.256, 7250.336
1181.739, 7265.140
1182.221, 7243.676
1182.703, 7229.344
1183.185, 7229.372
1183.667, 7239.796
1184.149, 7260.768
1184.631, 7289.175
1185.113, 7325.594
1185.596, 7362.356
1186.078, 7378.328
1186.560, 7360.555
1187.042, 7350.552
1187.524, 7365.722
1188.006, 7377.542
1188.488, 7367.973
1188.970, 7346.975
1189.453, 7347.455
1189.935, 7362.892
1190.417, 7374.126
1190.899, 7367.970
1191.381, 7372.013
1191.863, 7399.173
1192.345, 7429.254
1192.827, 7451.423
1193.309, 7465.355
1193.792, 7468.810
1194.274, 7463.204
1194.756, 7453.608
1195.238, 7433.825
1195.720, 7422.368
1196.202, 7424.699
1196.684, 7434.949
1197.166, 7452.079
1197.648, 7473.329
1198.130, 7485.098
1198.613, 7487.760
1199.095, 7484.588
1199.577, 7463.064
1200.059, 7455.194
1200.541, 7475.888
1201.023, 7506.544
1201.505, 7527.744
1201.987, 7540.981
1202.470, 7557.531
1202.952, 7576.621
1203.434, 7586.129
1203.916, 7564.774
1204.398, 7552.060
1204.880, 7563.796
1205.362, 7586.985
1205.844, 7607.239
1206.327, 7623.361
1206.809, 7624.473
1207.291, 7611.003
1207.773, 7609.830
1208.255, 7657.194
1208.737, 7692.460
1209.219, 7688.315
1209.701, 7665.362
1210.183, 7658.421
1210.666, 7665.325
1211.148, 7676.356
1211.630, 7690.268
1212.112, 7706.518
1212.594, 7732.986
1213.076, 7752.136
1213.558, 7757.085
1214.040, 7751.693
1214.522, 7741.387
1215.005, 7727.873
1215.487, 7718.527
1215.969, 7714.801
1216.451, 7713.705
1216.933, 7703.715
1217.415, 7710.078
1217.897, 7754.191
1218.379, 7813.166
1218.862, 7816.446
1219.344, 7778.271
1219.826, 7751.667
1220.308, 7747.434
1220.790, 7760.957
1221.272, 7810.629
1221.754, 7854.170
1222.236, 7872.594
1222.719, 7871.474
1223.201, 7861.614
1223.683, 7847.588
1224.165, 7848.201
1224.647, 7872.983
1225.129, 7893.064
1225.611, 7893.465
1226.093, 7888.662
1226.575, 7881.511
1227.057, 7876.239
1227.540, 7888.720
1228.022, 7914.930
1228.504, 7943.874
1228.986, 7977.846
1229.468, 7997.147
1229.950, 7988.415
1230.432, 7972.174
1230.914, 7950.793
1231.397, 7933.678
1231.879, 7968.271
1232.361, 8032.825
1232.843, 8059.494
1233.325, 8003.162
1233.807, 7968.545
1234.289, 7987.622
1234.771, 8015.013
1235.254, 8024.731
1235.736, 8023.965
1236.218, 8035.567
1236.700, 8053.750
1237.182, 8063.168
1237.664, 8049.626
1238.146, 8046.937
1238.628, 8063.844
1239.110, 8081.203
1239.593, 8088.340
1240.075, 8085.901
1240.557, 8064.024
1241.039, 8035.207
1241.521, 8030.926
1242.003, 8082.672
1242.485, 8121.105
1242.967, 8145.211
1243.449, 8150.151
1243.932, 8112.659
1244.414, 8066.624
1244.896, 8088.377
1245.378, 8150.624
1245.860, 8189.915
1246.342, 8167.687
1246.824, 8162.763
1247.306, 8182.857
1247.789, 8194.877
1248.271, 8156.912
1248.753, 8107.923
1249.235, 8112.971
1249.717, 8150.381
1250.199, 8169.439
1250.681, 8149.132
1251.163, 8146.387
1251.646, 8165.864
1252.128, 8181.680
1252.610, 8160.298
1253.092, 8137.073
1253.574, 8154.736
1254.056, 8200.012
1254.538, 8245.851
1255.020, 8295.019
1255.502, 8322.208
1255.984, 8325.620
1256.467, 8315.962
1256.949, 8294.362
1257.431, 8269.632
1257.913, 8242.604
1258.395, 8220.828
1258.877, 8218.298
1259.359, 8237.735
1259.841, 8258.947
1260.324, 8281.286
1260.806, 8289.755
1261.288, 8252.425
1261.770, 8220.458
1262.252, 8239.068
1262.734, 8278.160
1263.216, 8292.501
1263.698, 8282.107
1264.181, 8280.601
1264.663, 8288.751
1265.145, 8295.531
1265.627, 8283.437
1266.109, 8281.432
1266.591, 8313.841
1267.073, 8353.896
1267.555, 8370.680
1268.037, 8367.174
1268.520, 8362.007
1269.002, 8356.627
1269.484, 8354.722
1269.966, 8363.814
1270.448, 8368.208
1270.930, 8359.176
1271.412, 8350.977
1271.894, 8365.288
1272.376, 8392.586
1272.859, 8401.137
1273.341, 8392.455
1273.823, 8382.189
1274.305, 8366.365
1274.787, 8366.620
1275.269, 8391.729
1275.751, 8418.692
1276.233, 8416.821
1276.716, 8403.313
1277.198, 8418.086
1277.680, 8451.814
1278.162, 8460.722
1278.644, 8419.834
1279.126, 8387.620
##END=



