##NAMES=Humite
##RRUFFID=R050665
##IDEAL CHEMISTRY=Mg_7_(SiO_4_)_3_(F,OH)_2_
##LOCALITY=Tilly Foster mine, Brewster, Putnam County, New York, USA
##OWNER=RRUFF
##SOURCE=University of Arizona Mineral Museum
##DESCRIPTION=Granular aggregate of reddish-orange crystals
##STATUS=The identification of this mineral has been confirmed by X-ray diffraction and chemical analysis
##URL=rruff.info/R050665
##MEASURED CHEMISTRY=(Mg_0.91_Fe^2+^_0.09_)_7_(Si_1.00_O_4_)_3_(F_0.56_(OH)_0.44_)_2_
90.26367, 6.464221
90.74579, 6.567075
91.22791, 6.499333
91.71002, 6.284488
92.19214, 6.131824
92.67426, 6.407308
93.15637, 6.904504
93.63850, 7.052176
94.12061, 6.380132
94.60273, 5.307359
95.08485, 4.861892
95.56696, 5.101400
96.04908, 5.605139
96.53120, 5.956860
97.01331, 6.152079
97.49543, 6.220977
97.97755, 6.038107
98.45966, 5.634809
98.94178, 5.666888
99.42390, 6.310619
99.90602, 7.139879
100.3881, 7.239762
100.8703, 6.395717
101.3524, 5.582810
101.8345, 5.388223
102.3166, 6.030444
102.7987, 6.340859
103.2808, 6.136268
103.7630, 5.545341
104.2451, 5.137510
104.7272, 4.945832
105.2093, 4.888695
105.6914, 4.933741
106.1735, 5.221370
106.6557, 5.363950
107.1378, 5.235605
107.6199, 4.821652
108.1020, 4.609075
108.5841, 4.796956
109.0662, 5.080614
109.5484, 5.189235
110.0305, 4.792427
110.5126, 4.549620
110.9947, 4.636132
111.4768, 5.149565
111.9590, 5.549083
112.4411, 5.759147
112.9232, 5.837851
113.4053, 5.853896
113.8874, 5.640853
114.3695, 5.512523
114.8517, 5.623636
115.3338, 6.102902
115.8159, 6.536413
116.2980, 6.789732
116.7801, 6.914181
117.2622, 7.021625
117.7444, 7.098541
118.2265, 7.206945
118.7086, 7.399110
119.1907, 7.757354
119.6728, 8.095967
120.1549, 8.232821
120.6371, 8.232382
121.1192, 8.356708
121.6013, 8.778197
122.0834, 9.396305
122.5655, 10.11126
123.0477, 11.03706
123.5298, 11.92159
124.0119, 12.43681
124.4940, 12.61138
124.9761, 12.85156
125.4582, 13.61690
125.9404, 14.67528
126.4225, 15.56437
126.9046, 15.89141
127.3867, 16.00431
127.8688, 16.52097
128.3509, 17.47541
128.8331, 18.50180
129.3152, 19.16683
129.7973, 19.53741
130.2794, 19.93308
130.7615, 20.46234
131.2436, 21.12793
131.7258, 21.97583
132.2079, 23.04819
132.6900, 24.18419
133.1721, 25.05869
133.6542, 25.66306
134.1364, 26.41086
134.6185, 27.61416
135.1006, 29.25869
135.5827, 30.80968
136.0648, 32.25159
136.5469, 33.57064
137.0291, 34.71078
137.5112, 35.63802
137.9933, 36.49601
138.4754, 37.40814
138.9575, 38.39561
139.4396, 39.26875
139.9218, 40.03551
140.4039, 40.66740
140.8860, 40.93294
141.3681, 40.63869
141.8502, 40.31860
142.3323, 40.42842
142.8145, 41.15973
143.2966, 41.82721
143.7787, 42.29906
144.2608, 42.58334
144.7429, 42.92148
145.2251, 43.28679
145.7072, 43.73462
146.1893, 44.34868
146.6714, 45.38966
147.1535, 46.19702
147.6356, 46.48419
148.1178, 46.09084
148.5999, 46.26414
149.0820, 47.40801
149.5641, 48.94993
150.0462, 50.20803
150.5283, 50.87386
151.0105, 51.54762
151.4926, 51.91751
151.9747, 52.47866
152.4568, 52.89581
152.9389, 53.10662
153.4210, 53.18634
153.9032, 53.24131
154.3853, 53.44591
154.8674, 53.48707
155.3495, 53.20012
155.8316, 52.31512
156.3138, 51.71076
156.7959, 51.68426
157.2780, 52.00844
157.7601, 52.25780
158.2422, 52.30062
158.7243, 52.27708
159.2065, 52.26221
159.6886, 52.31689
160.1707, 52.29306
160.6528, 52.02590
161.1349, 51.63086
161.6170, 51.41632
162.0992, 51.77750
162.5813, 52.18149
163.0634, 52.26174
163.5455, 51.72830
164.0276, 51.14830
164.5097, 50.69860
164.9919, 50.38728
165.4740, 50.25219
165.9561, 50.33479
166.4382, 50.58873
166.9203, 50.98857
167.4025, 51.77633
167.8846, 52.45310
168.3667, 52.56779
168.8488, 52.21309
169.3309, 51.98586
169.8130, 52.36799
170.2952, 53.05088
170.7773, 53.64977
171.2594, 54.09506
171.7415, 54.36841
172.2236, 54.33197
172.7057, 54.01206
173.1879, 53.81152
173.6700, 54.18244
174.1521, 54.85687
174.6342, 55.38265
175.1163, 55.43985
175.5984, 55.33856
176.0806, 55.44571
176.5627, 55.76160
177.0448, 56.13780
177.5269, 56.50266
178.0090, 56.83115
178.4911, 57.07320
178.9733, 57.09308
179.4554, 57.04590
179.9375, 57.21169
180.4196, 57.60857
180.9017, 58.05367
181.3839, 58.37651
181.8660, 58.59147
182.3481, 58.75904
182.8302, 58.81470
183.3123, 58.85026
183.7944, 59.12566
184.2766, 59.68715
184.7587, 60.29267
185.2408, 60.62296
185.7229, 60.71675
186.2050, 60.82652
186.6871, 61.09778
187.1693, 61.48953
187.6514, 61.82511
188.1335, 62.08899
188.6156, 62.33879
189.0977, 62.68089
189.5798, 63.10780
190.0620, 63.51590
190.5441, 63.86235
191.0262, 64.14788
191.5083, 64.38268
191.9904, 64.57069
192.4725, 64.70897
192.9547, 64.78913
193.4368, 64.81144
193.9189, 64.79805
194.4010, 64.83855
194.8831, 64.91329
195.3652, 64.63417
195.8474, 63.87101
196.3295, 62.91373
196.8116, 62.36840
197.2937, 62.27290
197.7758, 62.24001
198.2579, 62.04669
198.7401, 61.68909
199.2222, 61.36456
199.7043, 61.12864
200.1864, 60.89240
200.6685, 60.33271
201.1507, 59.33989
201.6328, 58.55148
202.1149, 58.55920
202.5970, 59.49657
203.0791, 59.77502
203.5612, 59.04149
204.0434, 57.74091
204.5255, 57.13631
205.0076, 57.37980
205.4897, 57.79354
205.9718, 57.93799
206.4539, 57.74359
206.9361, 57.72436
207.4182, 58.00951
207.9003, 58.46130
208.3824, 58.62914
208.8645, 58.45042
209.3466, 58.15320
209.8288, 57.82056
210.3109, 57.39412
210.7930, 57.21251
211.2751, 57.40853
211.7572, 57.84427
212.2393, 57.99139
212.7215, 57.74753
213.2036, 57.43734
213.6857, 57.23318
214.1678, 57.10565
214.6499, 57.20034
215.1321, 57.60620
215.6142, 58.23893
216.0963, 58.72585
216.5784, 59.03753
217.0605, 59.25767
217.5426, 59.42916
218.0248, 59.53640
218.5069, 59.64386
218.9890, 59.79324
219.4711, 59.94882
219.9532, 59.91008
220.4353, 59.54097
220.9175, 59.20121
221.3996, 59.15779
221.8817, 59.59736
222.3638, 59.83589
222.8459, 59.73486
223.3280, 59.37456
223.8102, 59.19625
224.2923, 59.33855
224.7744, 59.44540
225.2565, 59.22940
225.7386, 58.40754
226.2208, 57.97418
226.7029, 58.19925
227.1850, 58.90986
227.6671, 59.17015
228.1492, 58.73811
228.6313, 58.20007
229.1135, 57.90857
229.5956, 57.93941
230.0777, 58.05397
230.5598, 58.31578
231.0419, 58.66010
231.5240, 58.74776
232.0062, 58.42021
232.4883, 58.05363
232.9704, 57.87765
233.4525, 57.97546
233.9346, 58.08426
234.4167, 58.19735
234.8989, 58.30854
235.3810, 58.38947
235.8631, 58.44563
236.3452, 58.46431
236.8273, 58.43256
237.3095, 58.31942
237.7916, 58.21378
238.2737, 58.07488
238.7558, 57.94293
239.2379, 57.99885
239.7200, 58.34191
240.2022, 58.73759
240.6843, 59.09287
241.1664, 59.51197
241.6485, 59.63555
242.1306, 59.25679
242.6127, 58.57279
243.0949, 58.38745
243.5770, 59.04177
244.0591, 59.72509
244.5412, 59.99535
245.0233, 59.61321
245.5054, 59.36685
245.9876, 59.33498
246.4697, 59.44995
246.9518, 59.49049
247.4339, 59.40290
247.9160, 59.32119
248.3981, 59.31630
248.8803, 59.43385
249.3624, 59.51004
249.8445, 59.49442
250.3266, 59.44659
250.8087, 59.54063
251.2909, 59.83750
251.7730, 60.17407
252.2551, 60.47599
252.7372, 60.73253
253.2193, 60.99290
253.7014, 61.29293
254.1836, 61.57877
254.6657, 61.70853
255.1478, 61.60268
255.6299, 61.48067
256.1120, 61.42738
256.5941, 61.45209
257.0763, 61.52242
257.5584, 61.65222
258.0405, 61.82075
258.5226, 61.99282
259.0047, 62.19281
259.4868, 62.34880
259.9690, 62.40141
260.4511, 62.29458
260.9332, 62.37523
261.4153, 62.78185
261.8974, 63.25586
262.3795, 63.30974
262.8617, 62.75549
263.3438, 62.23365
263.8259, 61.95632
264.3080, 61.95153
264.7901, 62.03045
265.2722, 62.26765
265.7544, 62.49978
266.2365, 62.43578
266.7186, 61.94520
267.2007, 61.56652
267.6829, 61.54515
268.1650, 61.91790
268.6471, 61.93860
269.1292, 61.47908
269.6113, 60.87110
270.0934, 60.49824
270.5756, 60.36509
271.0577, 60.45060
271.5398, 60.83155
272.0219, 61.49690
272.5040, 61.92523
272.9861, 62.08202
273.4683, 62.06927
273.9504, 61.95111
274.4325, 61.69954
274.9146, 61.49536
275.3967, 61.35657
275.8788, 61.29354
276.3610, 61.48294
276.8431, 62.03033
277.3252, 62.50425
277.8073, 62.39241
278.2894, 61.62718
278.7715, 61.07980
279.2537, 60.99804
279.7358, 61.24739
280.2179, 61.21476
280.7000, 60.83742
281.1821, 60.46260
281.6642, 60.44432
282.1464, 60.78586
282.6285, 60.92474
283.1106, 60.70403
283.5927, 60.27827
284.0748, 60.08159
284.5569, 60.13335
285.0391, 60.22963
285.5212, 60.24306
286.0033, 60.17583
286.4854, 60.04319
286.9675, 59.81286
287.4496, 59.56859
287.9318, 59.51657
288.4139, 59.65950
288.8960, 59.78490
289.3781, 59.76751
289.8602, 59.62461
290.3424, 59.41577
290.8245, 59.11573
291.3066, 58.83064
291.7887, 58.78920
292.2708, 58.96296
292.7530, 59.08281
293.2351, 58.93536
293.7172, 58.61519
294.1993, 58.44349
294.6814, 58.46037
295.1635, 58.50193
295.6457, 58.30232
296.1278, 57.92525
296.6099, 57.64680
297.0920, 57.67067
297.5741, 57.86649
298.0562, 58.00289
298.5384, 58.07653
299.0205, 58.07604
299.5026, 58.00093
299.9847, 57.84404
300.4668, 57.57738
300.9489, 57.05026
301.4311, 56.48389
301.9132, 56.22602
302.3953, 56.26627
302.8774, 56.39932
303.3595, 56.46703
303.8416, 56.51266
304.3238, 56.62443
304.8059, 56.92419
305.2880, 57.20717
305.7701, 57.23832
306.2522, 57.04458
306.7343, 56.78876
307.2165, 56.52924
307.6986, 56.28416
308.1807, 56.07500
308.6628, 55.90359
309.1449, 55.76930
309.6270, 55.60847
310.1092, 55.46548
310.5913, 55.48990
311.0734, 56.01255
311.5555, 56.60434
312.0376, 56.83104
312.5197, 56.46738
313.0019, 56.13694
313.4840, 56.31521
313.9661, 56.77590
314.4482, 57.05783
314.9304, 56.81176
315.4125, 56.43587
315.8946, 56.13075
316.3767, 55.89766
316.8588, 55.84870
317.3409, 56.24552
317.8231, 56.79663
318.3052, 57.11648
318.7873, 56.91764
319.2694, 56.61729
319.7515, 56.36427
320.2336, 56.16911
320.7158, 56.01200
321.1979, 55.90873
321.6800, 55.83245
322.1621, 55.75942
322.6442, 55.69082
323.1263, 55.61818
323.6085, 55.52021
324.0906, 55.40171
324.5727, 55.33640
325.0548, 55.38177
325.5369, 55.45446
326.0190, 55.50420
326.5012, 55.55819
326.9833, 55.55393
327.4654, 55.43719
327.9475, 55.24546
328.4296, 55.13062
328.9117, 55.16616
329.3939, 55.21396
329.8760, 55.22052
330.3581, 55.18183
330.8402, 55.10454
331.3223, 54.95623
331.8044, 54.77629
332.2866, 54.64526
332.7687, 54.58157
333.2508, 54.54037
333.7329, 54.52387
334.2150, 54.55573
334.6971, 54.46574
335.1793, 54.12038
335.6614, 53.78088
336.1435, 53.84110
336.6256, 54.49500
337.1077, 55.04216
337.5899, 55.30319
338.0720, 55.29238
338.5541, 55.15697
339.0362, 54.83602
339.5183, 54.52822
340.0005, 54.41375
340.4826, 54.50462
340.9647, 54.72872
341.4468, 55.15308
341.9289, 55.66009
342.4110, 55.79760
342.8932, 55.50544
343.3753, 55.22739
343.8574, 55.34330
344.3395, 55.81963
344.8216, 56.12508
345.3037, 56.19062
345.7859, 56.09425
346.2680, 55.91205
346.7501, 55.65080
347.2322, 55.45596
347.7143, 55.44373
348.1964, 55.56007
348.6786, 55.61184
349.1607, 55.57833
349.6428, 55.56625
350.1249, 55.73049
350.6070, 56.02214
351.0891, 56.29413
351.5713, 56.59763
352.0534, 56.79058
352.5355, 56.57223
353.0176, 55.95958
353.4997, 55.32294
353.9818, 54.95336
354.4640, 54.75117
354.9461, 54.56183
355.4282, 54.35005
355.9103, 54.12807
356.3924, 53.87551
356.8745, 53.61089
357.3567, 53.41214
357.8388, 53.36089
358.3209, 53.37144
358.8030, 53.39471
359.2851, 53.46754
359.7672, 53.42374
360.2494, 53.03028
360.7315, 52.46780
361.2136, 52.07536
361.6957, 52.14483
362.1779, 52.27661
362.6600, 52.27577
363.1421, 52.11426
363.6242, 51.90910
364.1063, 51.67393
364.5884, 51.41909
365.0706, 51.15717
365.5527, 50.61951
366.0348, 50.35691
366.5169, 50.71262
366.9990, 51.63017
367.4811, 52.14652
367.9633, 51.75300
368.4454, 51.22047
368.9275, 50.98883
369.4096, 51.22908
369.8917, 51.54747
370.3738, 52.11470
370.8560, 52.75156
371.3381, 52.91727
371.8202, 52.20888
372.3023, 51.57809
372.7844, 51.41881
373.2665, 51.86158
373.7487, 52.24764
374.2308, 52.58260
374.7129, 52.85558
375.1950, 53.04949
375.6771, 53.14906
376.1592, 53.22042
376.6414, 53.28345
377.1235, 53.33545
377.6056, 53.32784
378.0877, 53.23160
378.5698, 53.17155
379.0519, 53.24977
379.5341, 53.46573
380.0162, 53.80626
380.4983, 54.31728
380.9804, 54.89286
381.4625, 55.27406
381.9446, 55.46832
382.4268, 55.56790
382.9089, 55.62068
383.3910, 55.62436
383.8731, 55.57592
384.3553, 55.47677
384.8374, 55.31562
385.3195, 55.05730
385.8016, 54.72353
386.2837, 54.37260
386.7658, 53.97333
387.2480, 53.60347
387.7301, 53.45142
388.2122, 53.50224
388.6943, 53.40268
389.1764, 52.73202
389.6585, 51.81125
390.1407, 51.04800
390.6228, 50.54002
391.1049, 50.24050
391.5870, 50.36000
392.0691, 50.71241
392.5512, 50.73706
393.0334, 49.88470
393.5155, 48.82573
393.9976, 47.96669
394.4797, 47.37920
394.9618, 46.94062
395.4439, 46.72630
395.9261, 46.60667
396.4082, 46.41031
396.8903, 46.10270
397.3724, 45.71036
397.8545, 45.13911
398.3366, 44.37380
398.8188, 43.88686
399.3009, 43.99396
399.7830, 44.20155
400.2651, 44.19582
400.7472, 43.79442
401.2293, 43.44756
401.7115, 43.14582
402.1936, 42.91367
402.6757, 42.84668
403.1578, 43.05093
403.6399, 43.23534
404.1220, 43.22069
404.6042, 42.91866
405.0863, 42.98393
405.5684, 43.56421
406.0505, 44.27252
406.5326, 44.57803
407.0147, 44.43319
407.4969, 44.24061
407.9790, 44.06953
408.4611, 43.94175
408.9432, 43.92055
409.4254, 44.00027
409.9075, 44.25689
410.3896, 44.92435
410.8717, 45.87040
411.3538, 46.48024
411.8359, 46.61034
412.3181, 46.49685
412.8002, 46.35274
413.2823, 46.21535
413.7644, 46.22363
414.2465, 46.61276
414.7286, 47.11929
415.2108, 47.35811
415.6929, 47.30232
416.1750, 47.23952
416.6571, 47.42219
417.1392, 47.71996
417.6213, 47.95687
418.1035, 47.93245
418.5856, 47.98132
419.0677, 48.41026
419.5498, 49.10870
420.0319, 49.64540
420.5140, 49.76336
420.9962, 49.73039
421.4783, 49.70592
421.9604, 49.72818
422.4425, 49.71711
422.9246, 49.66631
423.4067, 49.56971
423.8889, 49.41771
424.3710, 49.14658
424.8531, 48.88487
425.3352, 48.64031
425.8173, 48.41154
426.2994, 48.28651
426.7816, 48.31123
427.2637, 48.39447
427.7458, 48.49340
428.2279, 48.66432
428.7100, 48.71322
429.1921, 48.61330
429.6743, 48.39476
430.1564, 48.10608
430.6385, 47.71940
431.1206, 47.37043
431.6028, 47.12398
432.0849, 46.97419
432.5670, 46.75206
433.0491, 46.38517
433.5312, 45.86747
434.0133, 46.19761
434.4955, 46.36980
434.9776, 46.39256
435.4597, 45.81824
435.9418, 46.01491
436.4239, 45.90261
436.9060, 45.77763
437.3882, 46.08281
437.8703, 45.59534
438.3524, 45.89371
438.8345, 45.83318
439.3166, 46.01269
439.7987, 46.37482
440.2809, 47.00926
440.7630, 47.74225
441.2451, 48.29690
441.7272, 48.44193
442.2093, 48.49045
442.6914, 48.57374
443.1736, 48.69427
443.6557, 48.85233
444.1378, 49.07954
444.6199, 49.32438
445.1020, 49.55024
445.5841, 49.72572
446.0663, 49.93346
446.5484, 50.22392
447.0305, 50.54602
447.5126, 50.81702
447.9947, 51.04877
448.4768, 51.20763
448.9590, 51.23594
449.4411, 51.12764
449.9232, 51.19955
450.4053, 51.54337
450.8874, 51.93488
451.3695, 52.19725
451.8517, 52.29572
452.3338, 52.42480
452.8159, 52.60892
453.2980, 52.82045
453.7801, 53.02861
454.2622, 53.23646
454.7444, 53.36451
455.2265, 53.29531
455.7086, 53.10618
456.1907, 53.15371
456.6729, 53.45160
457.1550, 53.82623
457.6371, 54.14861
458.1192, 54.42720
458.6013, 54.69572
459.0834, 54.97357
459.5656, 55.21791
460.0477, 55.37329
460.5298, 55.45415
461.0119, 55.49632
461.4940, 55.43231
461.9761, 55.39754
462.4583, 55.53797
462.9404, 55.88148
463.4225, 56.17401
463.9046, 56.23606
464.3867, 56.22254
464.8688, 56.27851
465.3510, 56.57414
465.8331, 56.78992
466.3152, 56.81601
466.7973, 56.70218
467.2794, 56.62700
467.7615, 56.50230
468.2437, 56.51759
468.7258, 56.80157
469.2079, 57.46906
469.6900, 57.82446
470.1721, 57.63235
470.6542, 57.38200
471.1364, 57.67620
471.6185, 58.72747
472.1006, 59.46829
472.5827, 59.65880
473.0648, 59.45174
473.5469, 59.25309
474.0291, 59.05417
474.5112, 58.96718
474.9933, 59.13350
475.4754, 59.48226
475.9575, 59.66912
476.4396, 59.65968
476.9218, 59.66369
477.4039, 59.90119
477.8860, 60.32201
478.3681, 60.83046
478.8503, 61.52837
479.3324, 62.13700
479.8145, 62.24829
480.2966, 61.99801
480.7787, 61.88277
481.2608, 62.39273
481.7430, 62.96437
482.2251, 63.14816
482.7072, 62.81366
483.1893, 62.56271
483.6714, 62.67858
484.1535, 62.94748
484.6357, 63.15287
485.1178, 63.23040
485.5999, 63.27977
486.0820, 63.32554
486.5641, 63.35789
487.0462, 63.33022
487.5284, 63.18431
488.0105, 63.05901
488.4926, 63.02222
488.9747, 63.09864
489.4568, 63.10817
489.9389, 63.04105
490.4211, 62.92458
490.9032, 62.80671
491.3853, 62.69292
491.8674, 62.43725
492.3495, 61.90813
492.8316, 61.34377
493.3138, 61.39676
493.7959, 62.00825
494.2780, 62.52179
494.7601, 62.38041
495.2422, 61.92053
495.7243, 61.87176
496.2065, 62.28496
496.6886, 62.59859
497.1707, 62.17489
497.6528, 61.43402
498.1349, 60.96083
498.6170, 61.05791
499.0992, 61.25084
499.5813, 61.30748
500.0634, 61.26379
500.5455, 61.20967
501.0276, 61.25061
501.5097, 61.21946
501.9919, 61.01672
502.4740, 60.60621
502.9561, 60.24417
503.4382, 59.73505
503.9203, 59.43041
504.4025, 59.64051
504.8846, 60.88511
505.3667, 61.53536
505.8488, 61.26075
506.3309, 60.48429
506.8130, 60.18386
507.2952, 60.50241
507.7773, 60.64931
508.2594, 60.19709
508.7415, 59.30848
509.2236, 58.94984
509.7057, 59.15275
510.1879, 59.48371
510.6700, 59.52895
511.1521, 59.41447
511.6342, 59.54816
512.1163, 60.03899
512.5984, 60.61513
513.0806, 60.94546
513.5627, 61.14893
514.0448, 61.47416
514.5269, 62.20094
515.0090, 62.94513
515.4911, 63.40954
515.9733, 63.63488
516.4554, 63.90035
516.9375, 64.32841
517.4196, 64.82124
517.9017, 65.31342
518.3839, 65.75797
518.8660, 66.29978
519.3481, 66.98054
519.8302, 67.75275
520.3123, 68.57893
520.7944, 69.63026
521.2766, 70.41432
521.7587, 70.72033
522.2408, 70.72170
522.7229, 71.16968
523.2050, 72.19401
523.6871, 73.18963
524.1693, 73.79028
524.6514, 74.02767
525.1335, 74.44614
525.6156, 75.06651
526.0977, 75.74709
526.5798, 76.38569
527.0620, 76.97954
527.5441, 77.49876
528.0262, 77.90355
528.5083, 78.29671
528.9904, 78.83071
529.4725, 79.43670
529.9547, 79.94397
530.4368, 80.29353
530.9189, 80.48994
531.4010, 80.48852
531.8831, 80.29282
532.3652, 80.07909
532.8474, 80.04294
533.3295, 79.91060
533.8116, 79.48514
534.2937, 78.44955
534.7758, 77.63494
535.2579, 77.21687
535.7401, 76.95427
536.2222, 76.51425
536.7043, 75.82676
537.1865, 75.10650
537.6686, 74.37141
538.1507, 73.64050
538.6328, 73.07952
539.1149, 72.72289
539.5970, 72.29209
540.0792, 71.48499
540.5613, 70.42477
541.0434, 69.85142
541.5255, 69.84241
542.0076, 69.81162
542.4897, 69.00576
542.9719, 67.77353
543.4540, 66.82143
543.9361, 66.45755
544.4182, 66.24399
544.9003, 65.97123
545.3824, 65.59502
545.8646, 65.01790
546.3467, 64.05373
546.8288, 63.01066
547.3109, 62.01369
547.7930, 61.07878
548.2751, 60.17363
548.7573, 59.22044
549.2394, 58.35622
549.7215, 57.67686
550.2036, 57.34473
550.6857, 56.81686
551.1678, 55.99535
551.6500, 55.07671
552.1321, 54.32206
552.6142, 53.72817
553.0963, 53.27113
553.5784, 52.87851
554.0605, 52.67658
554.5427, 53.21180
555.0248, 54.43492
555.5069, 55.45282
555.9890, 55.68174
556.4711, 55.36323
556.9532, 54.81611
557.4354, 54.05569
557.9175, 53.32060
558.3996, 52.63250
558.8817, 52.14238
559.3638, 52.07285
559.8459, 52.71645
560.3281, 53.29219
560.8102, 53.52390
561.2923, 53.47895
561.7744, 53.25904
562.2565, 52.55456
562.7386, 52.04104
563.2208, 51.88787
563.7029, 52.05516
564.1850, 52.27846
564.6671, 52.61768
565.1492, 52.90299
565.6313, 53.03097
566.1135, 52.98595
566.5956, 52.95027
567.0777, 52.89087
567.5598, 52.95918
568.0419, 53.43939
568.5240, 54.22887
569.0062, 54.78815
569.4883, 54.93166
569.9704, 54.98789
570.4525, 55.48750
570.9346, 56.24161
571.4167, 56.74152
571.8989, 56.41887
572.3810, 56.05021
572.8631, 56.24650
573.3452, 56.92987
573.8273, 57.53771
574.3094, 57.76331
574.7916, 57.92804
575.2737, 58.19504
575.7558, 58.58645
576.2379, 59.06437
576.7200, 59.74726
577.2021, 60.41082
577.6843, 60.82299
578.1664, 60.83046
578.6485, 61.06377
579.1306, 61.68984
579.6127, 62.46270
580.0948, 62.89290
580.5770, 62.97906
581.0591, 62.97860
581.5412, 62.99657
582.0233, 62.99061
582.5054, 62.84056
582.9875, 62.56389
583.4697, 62.27613
583.9518, 62.10334
584.4340, 61.93840
584.9161, 61.68298
585.3982, 61.33074
585.8803, 60.84753
586.3624, 60.07745
586.8445, 59.23980
587.3267, 58.53608
587.8088, 58.03545
588.2909, 57.63557
588.7730, 57.41859
589.2551, 57.27105
589.7372, 56.97929
590.2194, 56.38848
590.7015, 55.96381
591.1836, 55.86687
591.6657, 56.02655
592.1478, 56.05070
592.6299, 55.91013
593.1121, 55.84459
593.5942, 56.04277
594.0763, 56.43695
594.5584, 56.76970
595.0405, 57.02678
595.5226, 57.31179
596.0048, 57.80272
596.4869, 58.34948
596.9690, 58.71801
597.4511, 58.78387
597.9332, 58.85528
598.4153, 59.19846
598.8975, 59.63650
599.3796, 59.91504
599.8617, 59.69128
600.3438, 59.60722
600.8259, 60.00151
601.3080, 60.69859
601.7902, 60.98110
602.2723, 60.67546
602.7544, 60.23370
603.2365, 59.75894
603.7186, 59.25781
604.2007, 58.99922
604.6829, 59.03808
605.1650, 59.06151
605.6471, 58.86510
606.1292, 58.44454
606.6113, 57.71045
607.0934, 56.62525
607.5756, 55.46948
608.0577, 54.55518
608.5398, 53.77523
609.0219, 52.96397
609.5040, 52.00120
609.9861, 51.07393
610.4683, 50.25684
610.9504, 49.55449
611.4325, 48.96379
611.9146, 48.69672
612.3967, 48.33372
612.8788, 47.66545
613.3610, 46.73637
613.8431, 46.00440
614.3252, 45.55780
614.8073, 45.16967
615.2894, 44.71642
615.7715, 44.19419
616.2537, 43.70368
616.7358, 43.24476
617.2179, 42.82056
617.7000, 42.44337
618.1821, 42.10683
618.6642, 41.79814
619.1464, 41.50822
619.6285, 41.24776
620.1106, 41.05556
620.5927, 40.89405
621.0748, 40.69978
621.5569, 40.46465
622.0391, 40.17222
622.5212, 39.76263
623.0033, 39.28255
623.4854, 38.87374
623.9675, 38.69012
624.4496, 38.44471
624.9318, 37.99730
625.4139, 37.35618
625.8960, 36.96162
626.3781, 36.89153
626.8602, 36.89661
627.3423, 36.85038
627.8245, 36.75232
628.3066, 36.56258
628.7887, 36.26781
629.2708, 35.95965
629.7529, 35.74649
630.2350, 35.59154
630.7172, 35.39128
631.1993, 35.09016
631.6815, 34.83115
632.1636, 34.73249
632.6457, 34.75317
633.1278, 34.82583
633.6099, 35.09150
634.0920, 35.22981
634.5742, 35.02752
635.0563, 34.59722
635.5384, 34.37693
636.0205, 34.56544
636.5026, 34.69044
636.9847, 34.56593
637.4669, 34.21787
637.9490, 34.06422
638.4311, 34.13525
638.9132, 34.26006
639.3953, 34.35767
639.8774, 34.41865
640.3596, 34.36143
640.8417, 34.17262
641.3238, 34.01689
641.8059, 33.96333
642.2880, 34.26143
642.7701, 34.44497
643.2523, 34.52013
643.7344, 34.16220
644.2165, 34.36350
644.6986, 34.34069
645.1807, 34.30869
645.6628, 34.58868
646.1450, 34.29376
646.6271, 34.01836
647.1092, 34.26165
647.5913, 34.48304
648.0734, 34.70776
648.5555, 34.83968
649.0377, 34.81789
649.5198, 34.68491
650.0019, 34.65416
650.4840, 34.72404
650.9661, 34.75363
651.4482, 34.59367
651.9304, 34.35406
652.4125, 34.20366
652.8946, 34.15162
653.3767, 34.21160
653.8588, 34.57014
654.3409, 34.93577
654.8231, 35.01536
655.3052, 34.59624
655.7873, 34.36437
656.2694, 34.62845
656.7515, 35.06012
657.2336, 35.34721
657.7158, 35.44866
658.1979, 35.48589
658.6800, 35.44410
659.1621, 35.36716
659.6442, 35.30272
660.1263, 35.24896
660.6085, 35.32899
661.0906, 35.65529
661.5727, 36.04377
662.0548, 36.12639
662.5369, 35.97630
663.0190, 35.87291
663.5012, 36.03397
663.9833, 36.24705
664.4654, 36.30407
664.9475, 36.23262
665.4296, 36.28421
665.9117, 36.79757
666.3939, 37.23598
666.8760, 37.25703
667.3581, 36.76467
667.8402, 36.52454
668.3223, 36.60811
668.8044, 36.82810
669.2866, 37.09216
669.7687, 37.40880
670.2508, 37.55336
670.7329, 37.47987
671.2150, 37.38450
671.6971, 37.48876
672.1793, 37.74595
672.6614, 38.05224
673.1435, 38.42486
673.6256, 38.73561
674.1077, 38.86319
674.5898, 38.86981
675.0720, 38.85108
675.5541, 38.81952
676.0362, 38.78651
676.5183, 38.73421
677.0004, 38.68408
677.4825, 38.68937
677.9647, 38.74319
678.4468, 38.87110
678.9290, 39.10649
679.4111, 39.41920
679.8932, 39.66962
680.3753, 39.85370
680.8574, 40.02810
681.3395, 40.20081
681.8217, 40.39381
682.3038, 40.66281
682.7859, 41.00521
683.2680, 41.35369
683.7501, 41.74385
684.2322, 42.06959
684.7144, 42.21325
685.1965, 42.12059
685.6786, 42.09216
686.1607, 42.23350
686.6428, 42.44795
687.1249, 42.67080
687.6071, 42.92214
688.0892, 43.12297
688.5713, 43.24027
689.0534, 43.36121
689.5355, 43.60405
690.0176, 43.96603
690.4998, 44.33244
690.9819, 44.69291
691.4640, 45.02256
691.9461, 45.24389
692.4282, 45.40347
692.9103, 45.59778
693.3925, 45.79697
693.8746, 46.11853
694.3567, 46.73304
694.8388, 47.51676
695.3209, 48.17922
695.8030, 48.56007
696.2852, 48.91432
696.7673, 49.29325
697.2494, 49.69590
697.7315, 50.09562
698.2136, 50.47977
698.6957, 50.90013
699.1779, 51.36519
699.6600, 51.88772
700.1421, 52.55149
700.6242, 53.35068
701.1063, 54.11938
701.5884, 54.69689
702.0706, 55.20229
702.5527, 55.80914
703.0348, 56.52878
703.5169, 57.17857
703.9990, 57.52278
704.4811, 57.86256
704.9633, 58.39702
705.4454, 59.18842
705.9275, 60.08474
706.4096, 61.13617
706.8917, 62.23278
707.3738, 63.31654
707.8560, 64.38274
708.3381, 65.29189
708.8202, 66.00676
709.3023, 66.65568
709.7844, 67.35252
710.2665, 68.11042
710.7487, 69.00356
711.2308, 70.08347
711.7129, 71.19868
712.1950, 72.26525
712.6771, 73.28843
713.1592, 74.27994
713.6414, 75.11494
714.1235, 76.05624
714.6056, 77.23857
715.0877, 78.54916
715.5698, 79.71278
716.0519, 80.59276
716.5341, 81.70114
717.0162, 83.25448
717.4983, 85.03905
717.9804, 86.36486
718.4625, 87.26873
718.9446, 88.11574
719.4268, 88.97913
719.9089, 89.95487
720.3910, 91.24860
720.8731, 92.79116
721.3552, 94.34376
721.8373, 95.75431
722.3195, 97.15598
722.8016, 98.58630
723.2837, 100.0320
723.7658, 101.6108
724.2479, 103.4776
724.7300, 105.2444
725.2122, 106.6099
725.6943, 107.5624
726.1765, 109.1198
726.6586, 111.3860
727.1407, 113.7234
727.6228, 115.5662
728.1049, 117.1481
728.5870, 119.0005
729.0692, 121.1706
729.5513, 123.3732
730.0334, 125.4192
730.5155, 127.4034
730.9976, 129.3413
731.4797, 131.1934
731.9619, 133.1753
732.4440, 135.2934
732.9261, 137.5758
733.4082, 140.0899
733.8903, 142.8672
734.3724, 145.7920
734.8546, 148.9184
735.3367, 151.9842
735.8188, 154.4666
736.3009, 156.5345
736.7830, 159.0109
737.2651, 162.1504
737.7473, 165.4686
738.2294, 168.4678
738.7115, 171.3056
739.1936, 174.1921
739.6757, 177.0235
740.1578, 180.1282
740.6400, 183.7956
741.1221, 187.7308
741.6042, 191.4574
742.0863, 194.8180
742.5684, 198.3429
743.0505, 202.1865
743.5327, 206.2020
744.0148, 210.0110
744.4969, 213.6129
744.9790, 217.4779
745.4611, 222.1205
745.9432, 226.6992
746.4254, 229.9577
746.9075, 232.2792
747.3896, 234.6134
747.8717, 237.5889
748.3538, 240.4637
748.8359, 243.0027
749.3181, 245.2078
749.8002, 247.1070
750.2823, 248.7032
750.7644, 250.0414
751.2465, 251.2497
751.7286, 252.1960
752.2108, 252.0742
752.6929, 250.8737
753.1750, 249.3024
753.6571, 247.5535
754.1392, 245.7851
754.6213, 244.6089
755.1035, 243.8035
755.5856, 242.1817
756.0677, 238.4770
756.5498, 234.2772
757.0319, 230.4408
757.5140, 227.0515
757.9962, 223.4855
758.4783, 219.7160
758.9604, 215.7708
759.4425, 211.5591
759.9246, 207.1236
760.4067, 202.8945
760.8889, 198.9251
761.3710, 194.8468
761.8531, 190.2717
762.3352, 185.4375
762.8173, 180.7466
763.2994, 176.2437
763.7816, 171.9138
764.2637, 167.7829
764.7458, 163.8415
765.2279, 160.2021
765.7100, 156.9079
766.1921, 153.4527
766.6743, 149.5164
767.1564, 145.7713
767.6385, 142.6861
768.1206, 140.2956
768.6027, 137.9897
769.0848, 135.7457
769.5670, 133.6604
770.0491, 131.7505
770.5312, 130.0525
771.0133, 128.6950
771.4954, 127.7142
771.9775, 126.8031
772.4597, 125.5020
772.9418, 124.3519
773.4240, 123.8885
773.9061, 124.6682
774.3882, 124.8814
774.8703, 124.1463
775.3524, 123.2005
775.8345, 122.5503
776.3167, 122.1713
776.7988, 122.6581
777.2809, 124.2530
777.7630, 125.6407
778.2451, 125.0457
778.7272, 123.2772
779.2094, 121.9487
779.6915, 121.4582
780.1736, 121.0546
780.6557, 120.3526
781.1378, 119.4929
781.6199, 118.6144
782.1021, 117.8637
782.5842, 116.8900
783.0663, 115.6924
783.5484, 114.2646
784.0305, 112.5416
784.5126, 110.4950
784.9948, 108.6378
785.4769, 107.0924
785.9590, 105.4887
786.4411, 103.2117
786.9232, 100.6280
787.4053, 98.38060
787.8875, 96.70010
788.3696, 95.14518
788.8517, 93.45820
789.3338, 91.76807
789.8159, 90.19420
790.2980, 88.74355
790.7802, 87.41533
791.2623, 86.16880
791.7444, 85.11005
792.2265, 84.57249
792.7086, 84.50073
793.1907, 83.98723
793.6729, 82.79580
794.1550, 81.46558
794.6371, 80.44770
795.1192, 79.73232
795.6013, 79.33727
796.0834, 79.49059
796.5656, 79.51188
797.0477, 79.01200
797.5298, 78.31688
798.0119, 77.80859
798.4940, 77.44665
798.9761, 77.38394
799.4583, 77.68179
799.9404, 78.19076
800.4225, 78.80296
800.9046, 79.48022
801.3867, 79.98177
801.8688, 80.21445
802.3510, 80.42380
802.8331, 80.84380
803.3152, 81.39143
803.7973, 81.93630
804.2794, 82.33179
804.7615, 82.91370
805.2437, 83.98602
805.7258, 85.15337
806.2079, 85.93318
806.6900, 86.12312
807.1721, 86.78930
807.6542, 88.15100
808.1364, 89.68436
808.6185, 90.43064
809.1006, 90.76413
809.5827, 91.92999
810.0648, 94.46718
810.5469, 96.98659
811.0291, 97.98994
811.5112, 98.60416
811.9933, 100.1739
812.4754, 103.7854
812.9575, 107.0949
813.4396, 109.7667
813.9218, 112.3217
814.4039, 115.2901
814.8860, 118.7083
815.3681, 122.3358
815.8502, 126.1538
816.3323, 130.2312
816.8145, 134.4672
817.2966, 139.0571
817.7787, 144.5446
818.2608, 151.3288
818.7429, 158.1460
819.2251, 164.0109
819.7072, 169.8249
820.1893, 176.5090
820.6714, 184.1191
821.1536, 192.3812
821.6357, 201.4697
822.1178, 210.9357
822.5999, 219.9643
823.0820, 228.7554
823.5641, 238.7853
824.0463, 250.3725
824.5284, 262.3673
825.0105, 273.4398
825.4926, 284.3658
825.9747, 295.8560
826.4568, 308.0511
826.9390, 320.7509
827.4211, 334.0006
827.9032, 347.7758
828.3853, 362.3002
828.8674, 377.5623
829.3495, 393.0778
829.8317, 408.7264
830.3138, 424.6523
830.7959, 441.0490
831.2780, 457.4102
831.7601, 472.8661
832.2422, 487.1969
832.7244, 500.4371
833.2065, 512.5038
833.6886, 523.3896
834.1707, 533.2936
834.6528, 542.5038
835.1349, 549.0763
835.6171, 552.5775
836.0992, 554.1764
836.5813, 554.3240
837.0634, 553.0765
837.5455, 551.1045
838.0276, 548.3739
838.5098, 545.6191
838.9919, 543.4856
839.4740, 541.5235
839.9561, 539.2516
840.4382, 536.6146
840.9203, 533.8911
841.4025, 532.3088
841.8846, 529.4857
842.3667, 524.3680
842.8488, 516.9820
843.3309, 508.6196
843.8130, 499.3199
844.2952, 488.8586
844.7773, 476.9959
845.2594, 463.8679
845.7415, 449.2874
846.2236, 433.5958
846.7057, 418.9393
847.1879, 406.7167
847.6700, 395.6796
848.1521, 385.1484
848.6342, 375.1814
849.1163, 366.1730
849.5984, 358.1512
850.0806, 351.1436
850.5627, 345.2203
851.0448, 340.3575
851.5269, 336.7939
852.0090, 334.4317
852.4911, 332.4640
852.9733, 330.1425
853.4554, 328.4108
853.9375, 328.3459
854.4196, 329.5298
854.9017, 330.9377
855.3839, 331.8938
855.8660, 333.5461
856.3481, 336.4142
856.8302, 339.9370
857.3123, 342.8647
857.7944, 345.1765
858.2766, 347.6170
858.7587, 350.6632
859.2408, 353.3513
859.7229, 354.2809
860.2050, 353.7870
860.6871, 352.5389
861.1693, 351.0029
861.6514, 348.3842
862.1335, 344.3847
862.6156, 339.0836
863.0977, 332.7845
863.5798, 325.3344
864.0620, 317.1514
864.5441, 308.0966
865.0262, 298.5000
865.5083, 288.2599
865.9904, 277.5946
866.4726, 267.0639
866.9547, 256.6500
867.4368, 246.5069
867.9189, 236.3234
868.4011, 226.5778
868.8832, 217.6136
869.3653, 209.5875
869.8474, 201.9328
870.3295, 194.6618
870.8116, 187.7637
871.2938, 181.2961
871.7759, 175.2389
872.2580, 169.6794
872.7401, 164.5504
873.2222, 159.8685
873.7043, 155.9637
874.1865, 152.2808
874.6686, 148.1710
875.1507, 143.5443
875.6328, 139.3201
876.1149, 135.8538
876.5970, 132.7624
877.0792, 130.0134
877.5613, 127.5631
878.0434, 124.9825
878.5255, 122.2819
879.0076, 119.4425
879.4897, 116.3357
879.9719, 113.2231
880.4540, 110.4893
880.9361, 108.0848
881.4182, 105.8381
881.9003, 103.7314
882.3824, 101.7153
882.8646, 99.77299
883.3467, 97.90458
883.8288, 96.11216
884.3109, 94.39565
884.7930, 92.68096
885.2751, 90.89249
885.7573, 89.19829
886.2394, 87.91299
886.7215, 86.93987
887.2036, 86.06324
887.6857, 85.23391
888.1678, 84.44624
888.6500, 83.78445
889.1321, 83.12552
889.6142, 82.27383
890.0963, 81.05406
890.5784, 80.16048
891.0605, 79.69987
891.5427, 79.40853
892.0248, 78.97317
892.5069, 78.44482
892.9890, 77.95474
893.4711, 77.52065
893.9532, 77.18279
894.4354, 77.19437
894.9175, 77.16382
895.3996, 76.68861
895.8817, 75.55937
896.3638, 74.82609
896.8459, 74.62308
897.3281, 74.54780
897.8102, 74.42986
898.2923, 74.23833
898.7744, 73.77000
899.2565, 73.04220
899.7386, 72.25442
900.2208, 71.32455
900.7029, 70.55290
901.1850, 70.26207
901.6671, 70.38383
902.1492, 70.34547
902.6313, 69.96451
903.1135, 69.64128
903.5956, 69.50395
904.0777, 69.47606
904.5598, 69.27245
905.0419, 68.93667
905.5240, 68.81566
906.0062, 69.13463
906.4883, 69.56202
906.9704, 69.85368
907.4525, 70.03775
907.9346, 70.16238
908.4167, 70.10051
908.8989, 70.18021
909.3810, 70.47672
909.8631, 70.85546
910.3452, 71.10439
910.8273, 71.24321
911.3094, 71.62899
911.7916, 72.33581
912.2737, 73.02673
912.7558, 73.30772
913.2380, 73.45128
913.7201, 73.73936
914.2022, 74.22148
914.6843, 74.81750
915.1664, 75.64899
915.6486, 76.41826
916.1307, 76.90663
916.6128, 77.14445
917.0949, 77.65714
917.5770, 78.44730
918.0591, 79.37084
918.5413, 80.51198
919.0234, 81.61878
919.5055, 82.32887
919.9876, 82.73925
920.4697, 83.30659
920.9518, 84.19238
921.4340, 85.22744
921.9161, 86.45152
922.3982, 87.75822
922.8803, 88.85506
923.3624, 89.74037
923.8445, 90.63330
924.3267, 91.52357
924.8088, 92.62560
925.2909, 94.25473
925.7730, 96.23201
926.2551, 98.33536
926.7372, 100.6881
927.2194, 102.8364
927.7015, 104.6634
928.1836, 106.3901
928.6657, 108.1792
929.1478, 110.0247
929.6299, 112.0501
930.1121, 114.2691
930.5942, 116.2761
931.0763, 117.9170
931.5584, 119.0280
932.0405, 119.4628
932.5226, 119.1974
933.0048, 118.2906
933.4869, 116.7833
933.9690, 114.5546
934.4511, 111.4266
934.9332, 107.5365
935.4153, 103.5880
935.8975, 99.56826
936.3796, 95.91576
936.8617, 92.93167
937.3438, 90.27894
937.8259, 87.57488
938.3080, 84.94457
938.7902, 82.70126
939.2723, 81.01604
939.7544, 79.59448
940.2365, 78.47288
940.7186, 77.53027
941.2007, 76.64410
941.6829, 75.81381
942.1650, 74.97925
942.6471, 74.09713
943.1292, 73.44144
943.6113, 73.32008
944.0934, 73.51017
944.5756, 73.84037
945.0577, 74.32648
945.5398, 74.68494
946.0219, 74.73473
946.5040, 74.92293
946.9861, 75.53751
947.4683, 76.49873
947.9504, 77.24873
948.4325, 77.81945
948.9146, 78.45748
949.3967, 79.24135
949.8788, 80.20580
950.3610, 81.42213
950.8431, 82.84614
951.3252, 84.33444
951.8073, 85.94727
952.2894, 87.48532
952.7715, 88.90124
953.2537, 90.25994
953.7358, 91.67222
954.2179, 93.12174
954.7000, 94.55534
955.1821, 95.95650
955.6642, 97.30239
956.1464, 98.60889
956.6285, 99.82602
957.1106, 100.8793
957.5927, 101.6909
958.0748, 102.6992
958.5569, 103.9299
959.0391, 105.2997
959.5212, 106.8659
960.0033, 108.5101
960.4855, 109.8042
960.9676, 110.8089
961.4497, 111.8373
961.9318, 113.5017
962.4139, 114.7936
962.8961, 115.0117
963.3782, 114.4687
963.8603, 114.0688
964.3424, 113.9310
964.8245, 113.5091
965.3066, 112.7803
965.7888, 111.4984
966.2709, 109.0715
966.7530, 105.8862
967.2351, 102.7308
967.7172, 99.78744
968.1993, 96.76469
968.6815, 93.28430
969.1636, 89.87981
969.6457, 86.86095
970.1278, 84.25289
970.6099, 81.91839
971.0920, 79.87878
971.5742, 77.91412
972.0563, 75.82639
972.5384, 73.79109
973.0205, 71.98073
973.5026, 70.40206
973.9847, 69.02880
974.4669, 67.95174
974.9490, 66.97424
975.4311, 66.07494
975.9132, 65.22108
976.3953, 64.32198
976.8774, 63.37964
977.3596, 62.49218
977.8417, 61.65159
978.3238, 61.03487
978.8059, 61.01338
979.2880, 61.18564
979.7701, 61.10396
980.2523, 60.60702
980.7344, 60.17006
981.2165, 59.91179
981.6986, 59.51004
982.1807, 58.56213
982.6628, 57.30020
983.1450, 56.89379
983.6271, 57.22061
984.1092, 57.51823
984.5913, 57.35268
985.0734, 57.03381
985.5555, 56.67725
986.0377, 56.30180
986.5198, 55.91814
987.0019, 55.44845
987.4840, 55.27032
987.9661, 55.51141
988.4482, 55.86221
988.9304, 55.92719
989.4125, 55.78925
989.8946, 55.54292
990.3767, 55.16127
990.8588, 54.98365
991.3409, 55.42410
991.8231, 55.85728
992.3052, 55.89664
992.7873, 55.55989
993.2694, 55.30894
993.7515, 55.14430
994.2336, 55.04657
994.7158, 55.05030
995.1979, 55.07370
995.6800, 54.99221
996.1621, 54.85708
996.6442, 54.78966
997.1263, 54.70144
997.6085, 54.89960
998.0906, 55.59914
998.5727, 56.34485
999.0548, 56.51259
999.5369, 56.18468
1000.019, 55.86453
1000.501, 55.61060
1000.983, 55.37167
1001.465, 55.12019
1001.948, 54.85839
1002.430, 54.55861
1002.912, 54.22114
1003.394, 54.04512
1003.876, 54.08030
1004.358, 54.10597
1004.840, 54.00399
1005.322, 53.88066
1005.804, 54.00121
1006.287, 54.26532
1006.769, 54.42841
1007.251, 54.36294
1007.733, 54.23941
1008.215, 54.00762
1008.697, 53.81503
1009.179, 53.83748
1009.661, 54.10789
1010.144, 54.17390
1010.626, 54.00759
1011.108, 53.83582
1011.590, 53.98689
1012.072, 54.11710
1012.554, 53.74181
1013.036, 52.93935
1013.518, 52.46607
1014.000, 52.58409
1014.483, 52.80047
1014.965, 53.08352
1015.447, 53.30493
1015.929, 53.11391
1016.411, 52.62676
1016.893, 52.28019
1017.375, 52.21470
1017.857, 52.18728
1018.340, 52.01695
1018.822, 51.84170
1019.304, 51.79659
1019.786, 51.90661
1020.268, 51.96043
1020.750, 51.96625
1021.232, 51.85917
1021.714, 51.51902
1022.196, 51.08627
1022.679, 50.76046
1023.161, 50.52735
1023.643, 50.35116
1024.125, 50.21242
1024.607, 50.15759
1025.089, 50.28413
1025.571, 50.39614
1026.053, 50.12413
1026.536, 49.54254
1027.018, 49.24844
1027.500, 49.32737
1027.982, 49.42059
1028.464, 49.24680
1028.946, 48.98109
1029.428, 48.73938
1029.910, 48.53081
1030.392, 48.38382
1030.875, 48.31946
1031.357, 48.23047
1031.839, 48.05968
1032.321, 47.86907
1032.803, 47.74495
1033.285, 47.69072
1033.767, 47.72681
1034.249, 47.93259
1034.732, 48.07952
1035.214, 48.08516
1035.696, 48.03945
1036.178, 47.98196
1036.660, 47.91436
1037.142, 48.02802
1037.624, 48.30823
1038.106, 48.40268
1038.589, 47.85162
1039.071, 47.22640
1039.553, 46.97959
1040.035, 47.01910
1040.517, 46.98212
1040.999, 46.82975
1041.481, 46.65788
1041.963, 46.48229
1042.445, 46.27966
1042.927, 45.96618
1043.410, 45.61555
1043.892, 45.39104
1044.374, 45.32633
1044.856, 45.22978
1045.338, 44.96134
1045.820, 44.71716
1046.302, 44.60487
1046.784, 44.58677
1047.267, 44.43994
1047.749, 44.17867
1048.231, 43.99547
1048.713, 44.02551
1049.195, 44.05944
1049.677, 43.93428
1050.159, 43.71191
1050.641, 43.46778
1051.124, 43.18396
1051.606, 42.95959
1052.088, 42.80648
1052.570, 42.67092
1053.052, 42.45192
1053.534, 42.24512
1054.016, 42.32207
1054.498, 42.60371
1054.980, 42.70628
1055.463, 42.29374
1055.945, 41.91334
1056.427, 41.67463
1056.909, 41.55433
1057.391, 41.53640
1057.873, 41.61217
1058.355, 41.76513
1058.837, 42.01465
1059.319, 42.09257
1059.802, 41.50692
1060.284, 40.89965
1060.766, 40.87299
1061.248, 41.39330
1061.730, 41.51628
1062.212, 41.13855
1062.694, 40.91803
1063.176, 41.17230
1063.659, 41.57349
1064.141, 41.67050
1064.623, 41.57240
1065.105, 41.46325
1065.587, 41.40984
1066.069, 41.29234
1066.551, 41.02654
1067.033, 40.80843
1067.516, 40.80928
1067.998, 40.98121
1068.480, 41.11357
1068.962, 41.19520
1069.444, 41.16005
1069.926, 40.86171
1070.408, 40.55872
1070.890, 40.37880
1071.372, 40.27237
1071.854, 40.15774
1072.337, 40.02586
1072.819, 40.01472
1073.301, 40.15222
1073.783, 40.28379
1074.265, 40.22884
1074.747, 40.12170
1075.229, 40.11087
1075.711, 40.19646
1076.194, 40.21704
1076.676, 40.13072
1077.158, 40.06765
1077.640, 40.08600
1078.122, 40.10054
1078.604, 39.89267
1079.086, 39.58356
1079.568, 39.43932
1080.051, 39.54841
1080.533, 39.68903
1081.015, 39.93446
1081.497, 40.02662
1081.979, 39.75795
1082.461, 39.21404
1082.943, 38.91777
1083.425, 38.85413
1083.907, 38.93856
1084.390, 39.28314
1084.872, 39.55005
1085.354, 39.51094
1085.836, 39.27111
1086.318, 38.93341
1086.800, 38.39534
1087.282, 38.25718
1087.764, 38.56689
1088.247, 38.96502
1088.729, 39.21775
1089.211, 39.36622
1089.693, 39.50540
1090.175, 39.59272
1090.657, 39.43621
1091.139, 38.69295
1091.621, 38.31856
1092.104, 38.53304
1092.586, 38.95662
1093.068, 39.10078
1093.550, 39.05516
1094.032, 39.02131
1094.514, 39.02353
1094.996, 39.02318
1095.478, 39.02356
1095.960, 38.99378
1096.443, 38.92064
1096.925, 38.81237
1097.407, 38.65064
1097.889, 38.45641
1098.371, 38.41710
1098.853, 38.64230
1099.335, 38.81012
1099.817, 38.55847
1100.299, 38.24751
1100.782, 38.24579
1101.264, 38.56989
1101.746, 38.63280
1102.228, 38.41361
1102.710, 38.21777
1103.192, 38.19762
1103.674, 38.27546
1104.156, 38.48422
1104.639, 38.69110
1105.121, 38.66129
1105.603, 38.08525
1106.085, 37.84095
1106.567, 38.00856
1107.049, 38.28119
1107.531, 38.43473
1108.013, 38.51177
1108.495, 38.62558
1108.978, 38.75060
1109.460, 38.78196
1109.942, 38.63070
1110.424, 38.43483
1110.906, 38.15887
1111.388, 37.92773
1111.870, 37.95742
1112.352, 38.17879
1112.834, 38.31100
1113.317, 38.32935
1113.799, 38.26521
1114.281, 37.98469
1114.763, 37.79466
1115.245, 37.93798
1115.727, 38.24379
1116.209, 38.23275
1116.691, 37.91846
1117.174, 37.75980
1117.656, 37.87632
1118.138, 38.04293
1118.620, 38.08980
1119.102, 38.08585
1119.584, 38.10482
1120.066, 38.14653
1120.548, 38.06123
1121.031, 37.82299
1121.513, 37.64704
1121.995, 37.64968
1122.477, 37.67412
1122.959, 37.40769
1123.441, 37.08941
1123.923, 37.10085
1124.405, 37.73613
1124.887, 37.98992
1125.370, 37.73016
1125.852, 37.42006
1126.334, 37.30989
1126.816, 37.34698
1127.298, 37.48086
1127.780, 37.66487
1128.262, 37.78574
1128.744, 37.80059
1129.227, 37.74504
1129.709, 37.60146
1130.191, 37.43247
1130.673, 37.25812
1131.155, 37.10349
1131.637, 37.07858
1132.119, 37.16988
1132.601, 37.28833
1133.083, 37.39553
1133.566, 37.51793
1134.048, 37.71067
1134.530, 37.88333
1135.012, 37.89178
1135.494, 37.75187
1135.976, 37.64275
1136.458, 37.57898
1136.940, 37.48119
1137.422, 37.21163
1137.905, 36.97459
1138.387, 36.92247
1138.869, 36.99006
1139.351, 37.02951
1139.833, 37.04114
1140.315, 37.00912
1140.797, 36.91695
1141.279, 36.87869
1141.762, 37.10626
1142.244, 37.34716
1142.726, 37.36859
1143.208, 37.16787
1143.690, 36.92083
1144.172, 36.58600
1144.654, 36.50684
1145.136, 36.88903
1145.619, 37.27597
1146.101, 36.92789
1146.583, 36.35059
1147.065, 36.18154
1147.547, 36.61503
1148.029, 37.03229
1148.511, 37.49187
1148.993, 37.68027
1149.475, 37.33043
1149.958, 36.81889
1150.440, 36.82386
1150.922, 37.10498
1151.404, 37.20459
1151.886, 36.84338
1152.368, 36.75738
1152.850, 37.18723
1153.332, 37.46191
1153.814, 37.00988
1154.297, 36.18742
1154.779, 35.86847
1155.261, 35.94127
1155.743, 36.10596
1156.225, 36.39703
1156.707, 36.53626
1157.189, 36.40049
1157.671, 36.25895
1158.154, 36.44324
1158.636, 36.81381
1159.118, 36.66281
1159.600, 36.11010
1160.082, 35.79207
1160.564, 36.28128
1161.046, 36.70066
1161.528, 36.75990
1162.010, 36.69504
1162.493, 36.81629
1162.975, 37.07181
1163.457, 37.10094
1163.939, 36.89561
1164.421, 36.60638
1164.903, 36.03782
1165.385, 35.73999
1165.867, 36.19528
1166.349, 36.91288
1166.832, 36.99813
1167.314, 36.52016
1167.796, 36.46595
1168.278, 36.94942
1168.760, 37.35216
1169.242, 37.07434
1169.724, 36.74662
1170.206, 36.82320
1170.689, 37.12657
1171.171, 37.17901
1171.653, 36.98604
1172.135, 36.94935
1172.617, 37.16767
1173.099, 37.34391
1173.581, 37.15554
1174.063, 36.89379
1174.546, 36.79245
1175.028, 36.81896
1175.510, 36.76715
1175.992, 36.62508
1176.474, 36.73395
1176.956, 37.26049
1177.438, 37.72876
1177.920, 37.62315
1178.402, 37.30363
1178.885, 37.05502
1179.367, 36.89925
1179.849, 36.95621
1180.331, 37.26379
1180.813, 37.34641
1181.295, 36.93993
1181.777, 36.50725
1182.259, 36.53319
1182.742, 36.79856
1183.224, 37.09022
1183.706, 37.39172
1184.188, 37.67072
1184.670, 37.94983
1185.152, 38.03795
1185.634, 37.73979
1186.116, 37.40501
1186.599, 37.44643
1187.081, 37.69425
1187.563, 37.94092
1188.045, 38.18420
1188.527, 38.28556
1189.009, 38.21405
1189.491, 38.18371
1189.973, 38.38832
1190.455, 38.60256
1190.938, 38.43214
1191.420, 38.12079
1191.902, 38.09441
1192.384, 38.60021
1192.866, 38.82802
1193.348, 38.72793
1193.830, 38.59460
1194.312, 38.64687
1194.794, 38.75362
1195.277, 38.72910
1195.759, 38.63344
1196.241, 38.58351
1196.723, 38.52653
1197.205, 38.71705
1197.687, 39.21826
1198.169, 39.70107
1198.651, 39.80512
1199.134, 39.81324
1199.616, 40.25719
1200.098, 40.89208
1200.580, 41.05416
1201.062, 40.33022
1201.544, 39.91784
1202.026, 39.92613
1202.508, 40.00961
1202.990, 39.80415
1203.473, 39.54257
1203.955, 39.57570
1204.437, 39.81966
1204.919, 39.96838
1205.401, 39.92768
1205.883, 39.91302
1206.365, 39.93647
1206.847, 40.00530
1207.329, 40.13959
1207.812, 40.31374
1208.294, 40.60049
1208.776, 40.91695
1209.258, 40.86876
1209.740, 40.13811
1210.222, 39.82626
1210.704, 40.10456
1211.186, 40.60810
1211.669, 41.07463
1212.151, 41.47713
1212.633, 41.80489
1213.115, 42.04026
1213.597, 42.06353
1214.079, 41.82029
1214.561, 41.52053
1215.043, 41.16275
1215.526, 40.88752
1216.008, 40.88029
1216.490, 41.01482
1216.972, 41.16521
1217.454, 41.31839
1217.936, 41.45278
1218.418, 41.57309
1218.900, 41.64324
1219.382, 41.63905
1219.865, 41.66607
1220.347, 41.94250
1220.829, 42.24410
1221.311, 42.22421
1221.793, 41.93017
1222.275, 42.00100
1222.757, 42.61620
1223.239, 42.90091
1223.722, 42.63264
1224.204, 42.25563
1224.686, 42.24329
1225.168, 42.38375
1225.650, 42.49882
1226.132, 42.56032
1226.614, 42.50819
1227.096, 42.32082
1227.578, 42.11024
1228.061, 41.87260
1228.543, 41.75254
1229.025, 42.04316
1229.507, 42.41980
1229.989, 42.48810
1230.471, 42.29283
1230.953, 42.49999
1231.435, 43.18856
1231.917, 43.57899
1232.400, 43.47149
1232.882, 43.13021
1233.364, 42.55574
1233.846, 42.06512
1234.328, 42.01227
1234.810, 42.32907
1235.292, 42.56941
1235.774, 42.73067
1236.257, 42.84934
1236.739, 42.93861
1237.221, 42.96015
1237.703, 42.82170
1238.185, 42.65326
1238.667, 42.53875
1239.149, 42.48630
1239.631, 42.55671
1240.114, 42.74502
1240.596, 42.96806
1241.078, 43.22347
1241.560, 43.39479
1242.042, 43.34322
1242.524, 43.21825
1243.006, 43.10178
1243.488, 43.00246
1243.970, 42.95221
1244.453, 42.94648
1244.935, 42.94714
1245.417, 42.93724
1245.899, 42.97869
1246.381, 43.25238
1246.863, 43.42907
1247.345, 43.31553
1247.827, 42.99226
1248.309, 42.67405
1248.792, 42.37904
1249.274, 42.14421
1249.756, 41.94909
1250.238, 42.02443
1250.720, 42.87167
1251.202, 43.55500
1251.684, 43.65931
1252.166, 43.36607
1252.649, 43.01017
1253.131, 42.65939
1253.613, 42.53161
1254.095, 42.69965
1254.577, 42.90657
1255.059, 43.16967
1255.541, 43.30249
1256.023, 43.20229
1256.505, 42.97778
1256.988, 42.76873
1257.470, 42.63247
1257.952, 42.77773
1258.434, 43.31559
1258.916, 43.47395
1259.398, 42.99524
1259.880, 42.47689
1260.362, 42.05737
1260.844, 41.81801
1261.327, 42.04173
1261.809, 42.46521
1262.291, 42.66618
1262.773, 42.55368
1263.255, 42.55651
1263.737, 42.74972
1264.219, 42.86022
1264.701, 42.77153
1265.184, 42.64557
1265.666, 42.71436
1266.148, 42.84478
1266.630, 42.87043
1267.112, 42.77082
1267.594, 42.72501
1268.076, 42.74458
1268.558, 42.70573
1269.041, 42.54282
1269.523, 42.42887
1270.005, 42.61126
1270.487, 42.86086
1270.969, 42.96680
1271.451, 42.94208
1271.933, 42.83213
1272.415, 42.64080
1272.897, 42.57666
1273.380, 42.70826
1273.862, 42.86895
1274.344, 43.02534
1274.826, 43.07153
1275.308, 42.87035
1275.790, 42.54543
1276.272, 42.53013
1276.754, 42.76878
1277.237, 42.97930
1277.719, 43.10666
1278.201, 43.15810
1278.683, 43.11629
1279.165, 43.01167
1279.647, 42.83190
1280.129, 42.62899
1280.611, 42.51906
1281.094, 42.47051
1281.576, 42.37797
1282.058, 42.21922
1282.540, 42.15281
1283.022, 42.36300
1283.504, 42.41484
1283.986, 42.12658
1284.468, 41.77906
1284.950, 41.86908
1285.432, 42.16863
1285.915, 42.33258
1286.397, 42.31932
1286.879, 42.20058
1287.361, 41.95945
1287.843, 41.71991
1288.325, 41.49872
1288.807, 41.33579
1289.289, 41.32882
1289.772, 41.36583
1290.254, 41.33046
1290.736, 41.22098
1291.218, 41.09471
1291.700, 40.94372
1292.182, 40.87250
1292.664, 40.91105
1293.146, 40.90108
1293.629, 40.57709
1294.111, 40.28399
1294.593, 40.40208
1295.075, 40.67481
1295.557, 40.51984
1296.039, 39.98322
1296.521, 39.54266
1297.003, 39.25921
1297.485, 39.11128
1297.968, 39.20506
1298.450, 39.27582
1298.932, 39.22553
1299.414, 39.11312
1299.896, 39.04963
1300.378, 38.99474
1300.860, 38.77342
1301.342, 38.40356
1301.824, 38.12022
1302.307, 37.95430
##END=



