##NAMES=Humite
##RRUFFID=R040071
##IDEAL CHEMISTRY=Mg_7_(SiO_4_)_3_(F,OH)_2_
##LOCALITY=Tilly Foster mine, Brewster, Putnam County, New York, USA
##OWNER=RRUFF
##SOURCE=University of Arizona Mineral Museum
##DESCRIPTION=Red crystals
##STATUS=The identification of this mineral has been confirmed by X-ray diffraction and chemical analysis
##URL=rruff.info/R040071
##MEASURED CHEMISTRY=(Mg_0.91_Fe_0.09_)_7_(Si_0.99_Ti_0.01_O_4_)_3_(F_0.76_(OH)_0.24_)_2_
129.8254, 1428.074
130.3075, 1517.689
130.7896, 1600.345
131.2717, 1670.009
131.7538, 1725.615
132.2359, 1769.409
132.7181, 1803.592
133.2002, 1827.765
133.6823, 1841.576
134.1644, 1852.807
134.6465, 1850.842
135.1286, 1822.021
135.6108, 1766.253
136.0929, 1700.739
136.5750, 1651.981
137.0571, 1625.940
137.5392, 1610.054
138.0213, 1612.648
138.5035, 1620.155
138.9856, 1617.915
139.4677, 1601.982
139.9498, 1583.449
140.4319, 1582.933
140.9140, 1605.165
141.3962, 1642.244
141.8783, 1701.956
142.3604, 1773.440
142.8425, 1844.810
143.3246, 1911.303
143.8067, 1976.968
144.2889, 2051.621
144.7710, 2128.601
145.2531, 2223.502
145.7352, 2346.357
146.2173, 2454.659
146.6994, 2523.526
147.1816, 2571.636
147.6637, 2600.173
148.1458, 2606.177
148.6279, 2587.871
149.1100, 2560.043
149.5921, 2511.942
150.0743, 2456.969
150.5564, 2426.156
151.0385, 2437.965
151.5206, 2472.627
152.0027, 2474.054
152.4848, 2430.070
152.9670, 2377.827
153.4491, 2327.388
153.9312, 2278.529
154.4133, 2230.533
154.8954, 2182.074
155.3775, 2134.870
155.8597, 2093.417
156.3418, 2049.539
156.8239, 2019.777
157.3060, 2019.464
157.7881, 2042.716
158.2702, 2065.404
158.7524, 2077.858
159.2345, 2079.562
159.7166, 2072.957
160.1987, 2054.287
160.6808, 2032.957
161.1629, 2012.966
161.6451, 1994.821
162.1272, 1982.018
162.6093, 1980.435
163.0914, 1983.796
163.5735, 1977.723
164.0556, 1957.451
164.5378, 1933.771
165.0199, 1915.568
165.5020, 1902.602
165.9841, 1888.048
166.4662, 1865.102
166.9483, 1840.135
167.4305, 1824.400
167.9126, 1820.766
168.3947, 1824.384
168.8768, 1835.345
169.3589, 1854.121
169.8410, 1865.429
170.3232, 1856.330
170.8053, 1836.106
171.2874, 1819.488
171.7695, 1807.475
172.2516, 1800.799
172.7337, 1802.802
173.2159, 1814.456
173.6980, 1824.026
174.1801, 1824.837
174.6622, 1819.737
175.1443, 1812.263
175.6264, 1801.721
176.1086, 1790.371
176.5907, 1780.473
177.0728, 1771.953
177.5549, 1764.960
178.0370, 1761.907
178.5191, 1759.726
179.0013, 1754.357
179.4834, 1743.727
179.9655, 1730.800
180.4476, 1718.729
180.9297, 1707.300
181.4118, 1697.876
181.8940, 1691.892
182.3761, 1688.124
182.8582, 1685.326
183.3403, 1682.321
183.8224, 1681.277
184.3046, 1685.502
184.7867, 1695.603
185.2688, 1708.029
185.7509, 1726.788
186.2330, 1745.100
186.7151, 1754.861
187.1973, 1751.910
187.6794, 1742.463
188.1615, 1733.417
188.6436, 1723.925
189.1257, 1718.797
189.6078, 1721.445
190.0900, 1729.166
190.5721, 1740.462
191.0542, 1755.744
191.5363, 1772.859
192.0184, 1790.263
192.5005, 1809.105
192.9827, 1823.119
193.4648, 1823.788
193.9469, 1820.703
194.4290, 1824.159
194.9111, 1839.683
195.3932, 1856.926
195.8754, 1860.937
196.3575, 1849.366
196.8396, 1835.567
197.3217, 1820.178
197.8038, 1806.949
198.2859, 1801.846
198.7681, 1809.544
199.2502, 1817.202
199.7323, 1803.802
200.2144, 1763.957
200.6965, 1731.615
201.1786, 1726.526
201.6608, 1731.453
202.1429, 1732.942
202.6250, 1726.934
203.1071, 1719.852
203.5892, 1721.009
204.0713, 1732.136
204.5535, 1740.141
205.0356, 1738.067
205.5177, 1732.097
205.9998, 1726.123
206.4819, 1720.463
206.9640, 1716.953
207.4462, 1720.124
207.9283, 1731.316
208.4104, 1736.386
208.8925, 1725.914
209.3746, 1710.520
209.8567, 1697.751
210.3388, 1688.622
210.8210, 1683.065
211.3031, 1682.075
211.7852, 1685.841
212.2673, 1689.718
212.7494, 1693.595
213.2315, 1696.258
213.7137, 1695.379
214.1958, 1690.449
214.6779, 1687.269
215.1600, 1692.377
215.6421, 1705.595
216.1242, 1717.530
216.6064, 1725.221
217.0885, 1731.763
217.5706, 1740.528
218.0527, 1751.704
218.5348, 1761.231
219.0169, 1765.506
219.4991, 1764.961
219.9812, 1763.268
220.4633, 1758.011
220.9454, 1755.441
221.4275, 1761.897
221.9096, 1776.967
222.3918, 1791.419
222.8739, 1799.768
223.3560, 1802.561
223.8381, 1803.007
224.3202, 1802.318
224.8023, 1797.797
225.2845, 1783.721
225.7666, 1762.100
226.2487, 1746.931
226.7308, 1748.763
227.2129, 1763.254
227.6950, 1777.775
228.1772, 1792.347
228.6593, 1804.085
229.1414, 1810.063
229.6235, 1811.340
230.1056, 1811.183
230.5877, 1812.989
231.0699, 1814.052
231.5520, 1806.391
232.0341, 1785.597
232.5162, 1766.870
232.9983, 1766.775
233.4804, 1778.397
233.9626, 1784.555
234.4447, 1774.435
234.9268, 1757.723
235.4089, 1749.076
235.8910, 1750.011
236.3731, 1753.236
236.8553, 1755.716
237.3374, 1756.723
237.8195, 1754.150
238.3016, 1744.188
238.7837, 1732.458
239.2658, 1724.685
239.7480, 1720.893
240.2301, 1719.360
240.7122, 1718.869
241.1943, 1720.178
241.6764, 1724.858
242.1585, 1736.510
242.6407, 1748.228
243.1228, 1753.772
243.6049, 1753.845
244.0870, 1755.215
244.5691, 1764.201
245.0512, 1774.798
245.5334, 1771.692
246.0155, 1743.697
246.4976, 1718.822
246.9797, 1717.540
247.4618, 1732.891
247.9439, 1741.511
248.4261, 1732.753
248.9082, 1712.931
249.3903, 1695.180
249.8724, 1677.695
250.3545, 1665.483
250.8366, 1662.305
251.3188, 1665.493
251.8009, 1671.290
252.2830, 1679.397
252.7651, 1686.503
253.2472, 1686.292
253.7293, 1677.903
254.2115, 1666.717
254.6936, 1650.251
255.1757, 1632.776
255.6578, 1619.245
256.1399, 1610.876
256.6220, 1607.026
257.1042, 1607.584
257.5863, 1614.375
258.0684, 1619.789
258.5505, 1623.146
259.0326, 1625.351
259.5147, 1629.266
259.9969, 1634.429
260.4790, 1634.077
260.9611, 1619.316
261.4432, 1585.958
261.9253, 1568.652
262.4074, 1578.825
262.8896, 1593.203
263.3717, 1601.704
263.8538, 1603.305
264.3359, 1599.213
264.8180, 1589.505
265.3001, 1574.218
265.7823, 1563.661
266.2644, 1559.853
266.7465, 1557.766
267.2286, 1555.909
267.7107, 1554.596
268.1928, 1555.525
268.6750, 1560.153
269.1571, 1566.681
269.6392, 1566.063
270.1213, 1545.381
270.6034, 1531.842
271.0855, 1532.383
271.5677, 1540.051
272.0498, 1547.169
272.5319, 1550.437
273.0140, 1550.682
273.4961, 1549.429
273.9782, 1544.440
274.4604, 1541.895
274.9425, 1542.493
275.4246, 1545.133
275.9067, 1550.719
276.3888, 1558.815
276.8709, 1565.208
277.3531, 1562.799
277.8352, 1547.437
278.3173, 1536.716
278.7994, 1536.100
279.2815, 1536.255
279.7636, 1530.210
280.2458, 1519.162
280.7279, 1511.338
281.2100, 1518.132
281.6921, 1540.427
282.1742, 1549.638
282.6563, 1532.945
283.1385, 1516.858
283.6206, 1514.467
284.1027, 1521.739
284.5848, 1528.290
285.0669, 1527.494
285.5490, 1521.163
286.0312, 1515.665
286.5133, 1511.336
286.9954, 1507.189
287.4775, 1502.376
287.9596, 1497.552
288.4417, 1493.470
288.9239, 1489.816
289.4060, 1487.847
289.8881, 1490.454
290.3702, 1498.358
290.8523, 1504.984
291.3344, 1505.206
291.8166, 1503.981
292.2987, 1508.116
292.7808, 1520.237
293.2629, 1531.917
293.7450, 1536.534
294.2271, 1534.802
294.7093, 1529.746
295.1914, 1518.379
295.6735, 1509.272
296.1556, 1516.314
296.6377, 1541.540
297.1198, 1561.984
297.6020, 1566.649
298.0841, 1561.203
298.5662, 1553.586
299.0483, 1544.302
299.5304, 1538.320
300.0125, 1542.693
300.4947, 1557.798
300.9768, 1570.049
301.4589, 1575.249
301.9410, 1578.996
302.4231, 1586.995
302.9052, 1598.988
303.3874, 1609.201
303.8695, 1612.167
304.3516, 1608.676
304.8337, 1613.742
305.3158, 1641.730
305.7979, 1662.060
306.2801, 1655.903
306.7622, 1633.607
307.2443, 1617.904
307.7264, 1621.018
308.2085, 1636.648
308.6906, 1644.404
309.1728, 1631.234
309.6549, 1626.085
310.1370, 1636.343
310.6191, 1652.556
311.1012, 1665.971
311.5833, 1673.836
312.0655, 1677.534
312.5476, 1678.614
313.0297, 1674.836
313.5118, 1673.826
313.9939, 1673.344
314.4760, 1676.903
314.9582, 1689.411
315.4403, 1709.006
315.9224, 1727.826
316.4045, 1738.899
316.8866, 1742.173
317.3687, 1743.872
317.8509, 1746.073
318.3330, 1743.787
318.8151, 1730.732
319.2972, 1712.853
319.7793, 1700.647
320.2614, 1700.724
320.7436, 1708.504
321.2257, 1713.182
321.7078, 1714.251
322.1899, 1713.653
322.6720, 1707.670
323.1541, 1702.460
323.6363, 1706.182
324.1184, 1722.676
324.6005, 1738.567
325.0826, 1738.149
325.5647, 1722.695
326.0468, 1711.872
326.5290, 1713.352
327.0111, 1717.856
327.4932, 1714.704
327.9753, 1703.885
328.4574, 1693.596
328.9395, 1687.201
329.4217, 1683.735
329.9038, 1682.492
330.3859, 1683.845
330.8680, 1684.125
331.3501, 1679.907
331.8322, 1671.305
332.3144, 1661.659
332.7965, 1645.613
333.2786, 1633.151
333.7607, 1634.361
334.2428, 1646.517
334.7249, 1658.105
335.2070, 1663.171
335.6891, 1662.068
336.1713, 1655.738
336.6534, 1634.616
337.1355, 1620.672
337.6176, 1624.130
338.0997, 1634.719
338.5818, 1639.118
339.0640, 1633.015
339.5461, 1622.345
340.0282, 1616.834
340.5103, 1619.950
340.9924, 1620.513
341.4745, 1615.889
341.9567, 1611.247
342.4388, 1609.154
342.9209, 1609.954
343.4030, 1613.196
343.8851, 1619.081
344.3672, 1627.491
344.8494, 1633.984
345.3315, 1641.395
345.8136, 1642.791
346.2957, 1631.659
346.7778, 1614.827
347.2599, 1602.383
347.7421, 1599.240
348.2242, 1601.446
348.7063, 1602.209
349.1884, 1601.547
349.6705, 1599.479
350.1526, 1596.063
350.6348, 1591.119
351.1169, 1582.867
351.5990, 1570.782
352.0811, 1561.758
352.5632, 1564.221
353.0453, 1574.598
353.5275, 1578.042
354.0096, 1570.073
354.4917, 1560.014
354.9738, 1557.945
355.4559, 1562.062
355.9380, 1564.587
356.4202, 1562.981
356.9023, 1559.535
357.3844, 1557.968
357.8665, 1557.663
358.3486, 1551.476
358.8307, 1532.313
359.3129, 1504.975
359.7950, 1491.596
360.2771, 1502.150
360.7592, 1512.265
361.2413, 1518.110
361.7234, 1518.918
362.2056, 1511.402
362.6877, 1494.638
363.1698, 1475.603
363.6519, 1465.455
364.1340, 1468.056
364.6161, 1470.497
365.0983, 1475.463
365.5804, 1478.099
366.0625, 1474.524
366.5446, 1465.722
367.0267, 1455.594
367.5089, 1446.714
367.9910, 1439.221
368.4731, 1434.523
368.9552, 1433.871
369.4373, 1434.508
369.9194, 1437.041
370.4016, 1439.794
370.8837, 1440.636
371.3658, 1438.671
371.8479, 1435.380
372.3300, 1432.144
372.8121, 1428.818
373.2943, 1427.723
373.7764, 1430.890
374.2585, 1435.099
374.7406, 1436.145
375.2227, 1434.348
375.7048, 1436.301
376.1870, 1448.369
376.6691, 1465.592
377.1512, 1479.049
377.6333, 1487.964
378.1154, 1493.919
378.5975, 1496.515
379.0797, 1496.777
379.5618, 1500.523
380.0439, 1512.143
380.5260, 1522.921
381.0081, 1527.177
381.4902, 1527.396
381.9724, 1529.301
382.4545, 1535.247
382.9366, 1543.805
383.4187, 1552.387
383.9008, 1562.750
384.3829, 1569.664
384.8651, 1572.938
385.3472, 1572.951
385.8293, 1568.608
386.3114, 1560.760
386.7935, 1552.693
387.2756, 1547.617
387.7578, 1545.392
388.2399, 1540.356
388.7220, 1529.579
389.2041, 1519.629
389.6862, 1514.758
390.1683, 1510.815
390.6505, 1500.492
391.1326, 1479.992
391.6147, 1459.197
392.0968, 1455.761
392.5789, 1472.183
393.0610, 1481.124
393.5432, 1472.935
394.0253, 1459.111
394.5074, 1448.859
394.9895, 1442.201
395.4716, 1436.602
395.9537, 1431.297
396.4359, 1426.106
396.9180, 1420.841
397.4001, 1415.495
397.8822, 1409.618
398.3643, 1401.643
398.8464, 1393.033
399.3286, 1389.827
399.8107, 1400.470
400.2928, 1406.990
400.7749, 1396.313
401.2570, 1378.228
401.7391, 1371.348
402.2213, 1381.873
402.7034, 1398.148
403.1855, 1401.723
403.6676, 1385.666
404.1497, 1375.244
404.6318, 1372.109
405.1140, 1372.257
405.5961, 1374.997
406.0782, 1379.241
406.5603, 1383.030
407.0424, 1384.903
407.5245, 1385.411
408.0067, 1386.383
408.4888, 1385.712
408.9709, 1389.858
409.4530, 1405.868
409.9351, 1423.934
410.4172, 1434.727
410.8994, 1436.245
411.3815, 1434.377
411.8636, 1431.990
412.3457, 1430.020
412.8278, 1434.603
413.3099, 1449.118
413.7921, 1464.721
414.2742, 1473.943
414.7563, 1478.139
415.2384, 1481.157
415.7205, 1479.712
416.2026, 1480.649
416.6848, 1493.079
417.1669, 1513.335
417.6490, 1525.886
418.1311, 1521.669
418.6132, 1511.519
419.0953, 1520.646
419.5775, 1567.823
420.0596, 1601.896
420.5417, 1612.693
421.0238, 1616.031
421.5059, 1622.286
421.9880, 1633.386
422.4702, 1648.873
422.9523, 1670.205
423.4344, 1696.256
423.9165, 1706.758
424.3986, 1686.965
424.8807, 1671.752
425.3629, 1670.995
425.8450, 1678.265
426.3271, 1688.626
426.8092, 1701.064
427.2913, 1708.475
427.7734, 1700.451
428.2556, 1677.935
428.7377, 1656.397
429.2198, 1638.366
429.7019, 1621.514
430.1840, 1603.786
430.6661, 1585.469
431.1483, 1567.604
431.6304, 1552.649
432.1125, 1536.700
432.5946, 1513.402
433.0767, 1484.906
433.5588, 1461.824
434.0410, 1449.640
434.5231, 1444.849
435.0052, 1439.162
435.4873, 1433.026
435.9694, 1425.134
436.4515, 1411.555
436.9337, 1398.866
437.4158, 1393.017
437.8979, 1393.882
438.3800, 1397.151
438.8621, 1399.236
439.3442, 1400.348
439.8264, 1403.117
440.3085, 1407.291
440.7906, 1413.740
441.2727, 1427.062
441.7548, 1440.407
442.2369, 1444.709
442.7191, 1437.141
443.2012, 1428.465
443.6833, 1432.081
444.1654, 1445.601
444.6475, 1450.925
445.1296, 1442.718
445.6118, 1432.233
446.0939, 1430.432
446.5760, 1434.747
447.0581, 1435.551
447.5402, 1426.701
448.0223, 1417.912
448.5045, 1416.686
448.9866, 1420.918
449.4687, 1425.094
449.9508, 1427.113
450.4329, 1427.047
450.9150, 1425.060
451.3972, 1421.438
451.8793, 1414.836
452.3614, 1400.268
452.8435, 1387.251
453.3256, 1382.633
453.8077, 1384.718
454.2899, 1387.270
454.7720, 1385.944
455.2541, 1382.333
455.7362, 1382.344
456.2183, 1388.110
456.7004, 1391.920
457.1826, 1391.440
457.6647, 1388.293
458.1468, 1382.199
458.6289, 1373.288
459.1110, 1366.389
459.5931, 1367.328
460.0753, 1371.789
460.5574, 1369.421
461.0395, 1358.839
461.5216, 1349.410
462.0037, 1348.675
462.4858, 1354.002
462.9680, 1352.654
463.4501, 1335.893
463.9322, 1323.947
464.4143, 1326.886
464.8964, 1335.837
465.3785, 1339.885
465.8607, 1336.560
466.3428, 1329.971
466.8249, 1324.223
467.3070, 1319.172
467.7891, 1316.657
468.2712, 1318.106
468.7534, 1320.739
469.2355, 1325.578
469.7176, 1330.561
470.1997, 1333.584
470.6818, 1334.090
471.1639, 1330.599
471.6461, 1318.127
472.1282, 1297.620
472.6103, 1284.127
473.0924, 1280.899
473.5745, 1283.635
474.0566, 1292.476
474.5388, 1305.306
475.0209, 1311.824
475.5030, 1307.247
475.9851, 1298.410
476.4672, 1287.214
476.9493, 1275.455
477.4315, 1268.123
477.9136, 1267.417
478.3957, 1269.949
478.8778, 1269.897
479.3599, 1266.530
479.8420, 1262.255
480.3242, 1255.073
480.8063, 1248.999
481.2884, 1246.252
481.7705, 1246.294
482.2526, 1247.779
482.7347, 1250.225
483.2169, 1252.964
483.6990, 1255.151
484.1811, 1257.224
484.6632, 1255.781
485.1453, 1246.484
485.6274, 1236.853
486.1096, 1234.749
486.5917, 1239.733
487.0738, 1243.955
487.5559, 1244.993
488.0380, 1243.590
488.5201, 1239.120
489.0023, 1232.352
489.4844, 1227.836
489.9665, 1228.592
490.4486, 1231.476
490.9307, 1228.568
491.4128, 1212.267
491.8950, 1202.195
492.3771, 1201.845
492.8592, 1204.807
493.3413, 1207.311
493.8234, 1209.065
494.3055, 1211.491
494.7877, 1216.044
495.2698, 1221.402
495.7519, 1222.977
496.2340, 1219.603
496.7161, 1216.332
497.1982, 1214.876
497.6804, 1213.895
498.1625, 1211.504
498.6446, 1207.611
499.1267, 1205.910
499.6088, 1210.510
500.0909, 1216.977
500.5730, 1219.651
501.0551, 1218.383
501.5373, 1214.893
502.0194, 1209.509
502.5015, 1203.450
502.9836, 1200.519
503.4657, 1205.442
503.9478, 1206.801
504.4300, 1202.404
504.9121, 1195.839
505.3942, 1186.580
505.8763, 1177.097
506.3584, 1174.912
506.8405, 1188.496
507.3227, 1211.097
507.8048, 1217.280
508.2869, 1202.828
508.7690, 1185.847
509.2511, 1165.480
509.7332, 1149.565
510.2154, 1147.864
510.6975, 1161.146
511.1796, 1173.292
511.6617, 1177.309
512.1439, 1176.306
512.6260, 1170.912
513.1081, 1162.657
513.5902, 1161.871
514.0723, 1176.289
514.5544, 1198.651
515.0366, 1207.359
515.5187, 1187.570
516.0008, 1175.161
516.4829, 1173.501
516.9650, 1176.367
517.4471, 1180.672
517.9293, 1185.693
518.4114, 1191.428
518.8935, 1198.459
519.3756, 1205.504
519.8577, 1208.674
520.3398, 1207.115
520.8220, 1206.224
521.3041, 1207.329
521.7862, 1210.020
522.2683, 1215.473
522.7504, 1223.736
523.2325, 1226.644
523.7147, 1214.337
524.1968, 1200.985
524.6789, 1199.092
525.1610, 1208.030
525.6431, 1224.990
526.1252, 1250.025
526.6074, 1275.138
527.0895, 1281.227
527.5716, 1251.169
528.0537, 1237.760
528.5358, 1253.538
529.0179, 1271.997
529.5001, 1281.118
529.9822, 1281.884
530.4643, 1278.728
530.9464, 1272.000
531.4285, 1266.746
531.9106, 1273.182
532.3928, 1290.911
532.8749, 1303.713
533.3570, 1305.236
533.8391, 1305.383
534.3212, 1316.301
534.8033, 1337.296
535.2855, 1354.291
535.7676, 1362.969
536.2497, 1370.182
536.7318, 1377.540
537.2139, 1386.570
537.6960, 1399.961
538.1782, 1418.635
538.6603, 1440.411
539.1424, 1463.101
539.6245, 1487.260
540.1066, 1508.133
540.5887, 1526.704
541.0709, 1540.140
541.5530, 1542.523
542.0351, 1540.974
542.5172, 1546.833
542.9993, 1564.774
543.4814, 1584.303
543.9636, 1596.054
544.4457, 1602.822
544.9278, 1612.440
545.4099, 1626.372
545.8920, 1639.610
546.3741, 1649.922
546.8563, 1656.384
547.3384, 1649.660
547.8205, 1620.553
548.3026, 1591.401
548.7847, 1565.608
549.2668, 1541.629
549.7490, 1516.736
550.2311, 1491.410
550.7132, 1470.193
551.1953, 1459.289
551.6774, 1455.138
552.1595, 1440.254
552.6417, 1409.759
553.1238, 1389.491
553.6059, 1395.392
554.0880, 1411.823
554.5701, 1417.458
555.0522, 1410.978
555.5344, 1405.673
556.0165, 1405.281
556.4986, 1408.088
556.9807, 1415.202
557.4628, 1424.474
557.9449, 1429.079
558.4271, 1425.317
558.9092, 1417.079
559.3913, 1412.769
559.8734, 1414.455
560.3555, 1414.610
560.8376, 1408.611
561.3198, 1405.380
561.8019, 1413.331
562.2840, 1426.465
562.7661, 1431.050
563.2482, 1418.950
563.7303, 1403.606
564.2125, 1401.817
564.6946, 1408.659
565.1767, 1405.014
565.6588, 1385.924
566.1409, 1364.443
566.6230, 1351.483
567.1052, 1347.058
567.5873, 1349.881
568.0694, 1364.417
568.5515, 1379.616
569.0336, 1393.761
569.5157, 1406.927
569.9979, 1419.215
570.4800, 1430.652
570.9621, 1441.403
571.4442, 1451.631
571.9263, 1461.185
572.4084, 1468.446
572.8906, 1472.304
573.3727, 1479.525
573.8548, 1493.675
574.3369, 1511.824
574.8190, 1528.878
575.3011, 1544.086
575.7833, 1562.937
576.2654, 1591.260
576.7475, 1619.653
577.2296, 1640.180
577.7117, 1654.795
578.1938, 1670.076
578.6760, 1689.226
579.1581, 1708.511
579.6402, 1720.542
580.1223, 1723.474
580.6044, 1728.547
581.0865, 1739.481
581.5686, 1748.240
582.0507, 1750.764
582.5328, 1748.649
583.0150, 1744.990
583.4971, 1741.018
583.9792, 1734.279
584.4613, 1720.015
584.9434, 1702.892
585.4255, 1691.498
585.9077, 1686.807
586.3898, 1684.161
586.8719, 1680.130
587.3540, 1675.004
587.8361, 1670.258
588.3182, 1662.311
588.8004, 1660.836
589.2825, 1670.849
589.7646, 1683.637
590.2467, 1692.353
590.7288, 1697.849
591.2109, 1705.933
591.6931, 1718.689
592.1752, 1736.796
592.6573, 1762.982
593.1394, 1796.051
593.6215, 1829.228
594.1036, 1860.583
594.5858, 1892.203
595.0679, 1927.421
595.5500, 1966.801
596.0321, 2002.214
596.5142, 2024.865
596.9963, 2054.505
597.4785, 2103.990
597.9606, 2159.630
598.4427, 2207.065
598.9248, 2242.820
599.4069, 2270.564
599.8890, 2289.828
600.3712, 2303.843
600.8533, 2326.819
601.3354, 2360.533
601.8175, 2386.689
602.2996, 2396.138
602.7817, 2395.072
603.2639, 2395.249
603.7460, 2400.118
604.2281, 2391.762
604.7102, 2363.930
605.1923, 2326.638
605.6744, 2282.244
606.1566, 2233.740
606.6387, 2186.329
607.1208, 2142.000
607.6029, 2096.337
608.0850, 2039.245
608.5671, 1971.366
609.0493, 1917.717
609.5314, 1884.889
610.0135, 1851.802
610.4956, 1805.203
610.9777, 1750.774
611.4598, 1700.742
611.9420, 1654.835
612.4241, 1613.998
612.9062, 1580.829
613.3883, 1551.093
613.8704, 1521.324
614.3525, 1491.288
614.8347, 1462.476
615.3168, 1435.609
615.7989, 1410.107
616.2810, 1385.070
616.7631, 1360.536
617.2452, 1335.985
617.7274, 1310.877
618.2095, 1286.745
618.6916, 1262.485
619.1737, 1240.148
619.6558, 1225.394
620.1379, 1223.443
620.6201, 1221.594
621.1022, 1212.670
621.5843, 1201.287
622.0664, 1193.704
622.5485, 1190.135
623.0306, 1186.777
623.5128, 1181.088
623.9949, 1173.227
624.4770, 1163.026
624.9591, 1149.217
625.4412, 1137.835
625.9233, 1133.711
626.4055, 1127.966
626.8876, 1112.764
627.3697, 1090.938
627.8518, 1071.826
628.3339, 1056.697
628.8160, 1046.412
629.2982, 1044.330
629.7803, 1046.388
630.2624, 1045.822
630.7445, 1041.716
631.2266, 1038.213
631.7087, 1039.279
632.1909, 1043.282
632.6730, 1040.908
633.1551, 1027.823
633.6372, 1019.512
634.1193, 1024.516
634.6014, 1030.189
635.0836, 1026.663
635.5657, 1015.537
636.0478, 1005.450
636.5299, 998.2720
637.0120, 993.8469
637.4941, 993.8610
637.9763, 996.0449
638.4584, 995.8256
638.9405, 992.4636
639.4226, 989.6213
639.9047, 991.5775
640.3868, 996.7249
640.8690, 992.1230
641.3511, 970.2013
641.8332, 956.1854
642.3153, 960.0333
642.7974, 970.3568
643.2795, 983.5845
643.7617, 997.4039
644.2438, 1000.459
644.7259, 978.6864
645.2080, 955.2466
645.6901, 946.9924
646.1722, 948.3738
646.6544, 949.5502
647.1365, 948.1733
647.6186, 946.9449
648.1007, 948.6284
648.5828, 952.7296
649.0649, 955.3137
649.5471, 954.7957
650.0292, 956.9207
650.5113, 969.7888
650.9934, 979.9495
651.4755, 972.6769
651.9576, 950.8583
652.4398, 936.3182
652.9219, 940.0909
653.4040, 948.1815
653.8861, 953.4719
654.3682, 956.3234
654.8503, 957.2170
655.3325, 956.3971
655.8146, 954.6866
656.2967, 953.1331
656.7788, 951.1710
657.2609, 944.6480
657.7430, 930.7102
658.2252, 921.4132
658.7073, 921.8522
659.1894, 925.8027
659.6715, 926.7153
660.1536, 925.4960
660.6357, 928.4124
661.1179, 943.0685
661.6000, 955.1299
662.0821, 955.7384
662.5642, 950.0797
663.0463, 944.3250
663.5284, 940.1923
664.0106, 938.1552
664.4927, 939.1365
664.9748, 941.8987
665.4569, 941.6954
665.9390, 937.9096
666.4211, 934.8610
666.9033, 933.8998
667.3854, 933.3868
667.8675, 930.6446
668.3496, 926.5027
668.8317, 926.4040
669.3138, 934.4891
669.7960, 942.1462
670.2781, 947.2581
670.7602, 949.9324
671.2423, 950.3547
671.7244, 948.5456
672.2065, 943.7437
672.6887, 934.0005
673.1708, 923.7166
673.6529, 924.6713
674.1350, 936.7886
674.6171, 942.5597
675.0992, 936.8484
675.5814, 929.4359
676.0635, 928.8600
676.5456, 933.9955
677.0277, 936.0402
677.5098, 932.7242
677.9919, 929.7669
678.4741, 925.6920
678.9562, 924.1348
679.4383, 930.8088
679.9204, 942.7540
680.4025, 950.2750
680.8846, 947.3925
681.3668, 941.0634
681.8489, 941.7808
682.3310, 947.2326
682.8131, 946.3813
683.2952, 937.0632
683.7773, 928.8943
684.2595, 928.3936
684.7416, 934.1492
685.2237, 941.4390
685.7058, 953.9906
686.1879, 961.6613
686.6700, 961.1855
687.1522, 959.3998
687.6343, 959.5402
688.1164, 961.0452
688.5985, 962.1240
689.0806, 961.9400
689.5627, 962.5266
690.0449, 965.8382
690.5270, 970.8212
691.0091, 977.3561
691.4912, 984.5059
691.9733, 986.4413
692.4554, 979.6512
692.9376, 968.8312
693.4197, 962.8955
693.9018, 961.8287
694.3839, 966.2141
694.8660, 982.6141
695.3481, 995.1085
695.8303, 995.3332
696.3124, 988.8871
696.7945, 981.4555
697.2766, 973.0308
697.7587, 968.8226
698.2408, 974.9502
698.7230, 982.5451
699.2051, 983.6000
699.6872, 980.1807
700.1693, 976.5421
700.6514, 974.4854
701.1335, 976.3181
701.6157, 987.5882
702.0978, 1006.124
702.5799, 1011.951
703.0620, 1001.940
703.5441, 993.7147
704.0262, 992.4712
704.5084, 996.7256
704.9905, 1006.939
705.4726, 1023.750
705.9547, 1034.271
706.4368, 1033.429
706.9189, 1031.741
707.4011, 1032.344
707.8832, 1034.224
708.3653, 1036.682
708.8474, 1039.243
709.3295, 1040.362
709.8116, 1036.359
710.2938, 1033.561
710.7759, 1045.363
711.2580, 1068.575
711.7401, 1087.408
712.2222, 1098.625
712.7043, 1102.016
713.1865, 1095.533
713.6686, 1081.751
714.1507, 1076.325
714.6328, 1082.311
715.1149, 1091.265
715.5970, 1108.069
716.0792, 1122.272
716.5613, 1125.512
717.0434, 1121.788
717.5255, 1121.099
718.0076, 1127.044
718.4897, 1134.314
718.9719, 1141.129
719.4540, 1146.569
719.9361, 1147.142
720.4182, 1144.712
720.9003, 1146.931
721.3824, 1157.828
721.8646, 1173.886
722.3467, 1190.504
722.8288, 1207.862
723.3109, 1220.129
723.7930, 1225.236
724.2751, 1230.787
724.7573, 1240.033
725.2394, 1251.895
725.7215, 1264.715
726.2036, 1278.787
726.6857, 1292.242
727.1678, 1306.258
727.6500, 1318.178
728.1321, 1325.142
728.6142, 1330.113
729.0963, 1337.975
729.5784, 1349.029
730.0605, 1357.601
730.5427, 1353.637
731.0248, 1348.263
731.5069, 1364.561
731.9890, 1397.681
732.4711, 1422.536
732.9532, 1432.277
733.4354, 1441.134
733.9175, 1463.577
734.3996, 1496.983
734.8817, 1521.314
735.3638, 1533.192
735.8459, 1543.129
736.3281, 1551.686
736.8102, 1559.415
737.2923, 1565.428
737.7744, 1570.963
738.2565, 1579.284
738.7386, 1591.573
739.2208, 1605.699
739.7029, 1619.143
740.1850, 1635.155
740.6671, 1659.805
741.1492, 1689.871
741.6313, 1716.669
742.1135, 1736.240
742.5956, 1748.667
743.0777, 1746.794
743.5598, 1735.693
744.0419, 1749.355
744.5240, 1790.707
745.0062, 1839.619
745.4883, 1891.069
745.9704, 1938.713
746.4525, 1970.912
746.9346, 1983.595
747.4167, 2005.197
747.8989, 2049.526
748.3810, 2085.586
748.8631, 2099.836
749.3452, 2107.540
749.8273, 2124.505
750.3094, 2150.630
750.7916, 2172.969
751.2737, 2181.002
751.7558, 2188.379
752.2379, 2212.376
752.7200, 2240.466
753.2021, 2249.076
753.6843, 2237.053
754.1664, 2222.008
754.6485, 2216.001
755.1306, 2215.360
755.6127, 2213.616
756.0948, 2210.995
756.5770, 2198.610
757.0591, 2172.250
757.5412, 2146.799
758.0233, 2131.868
758.5054, 2123.425
758.9875, 2112.065
759.4697, 2098.760
759.9518, 2079.863
760.4339, 2048.053
760.9160, 2018.736
761.3981, 2003.112
761.8802, 1991.452
762.3624, 1969.751
762.8445, 1935.842
763.3266, 1901.239
763.8087, 1872.039
764.2908, 1846.119
764.7729, 1822.037
765.2551, 1799.303
765.7372, 1776.545
766.2193, 1753.620
766.7014, 1731.985
767.1835, 1712.701
767.6656, 1696.237
768.1478, 1685.359
768.6299, 1680.750
769.1120, 1674.554
769.5941, 1662.004
770.0762, 1657.298
770.5583, 1677.297
771.0405, 1711.259
771.5226, 1720.879
772.0047, 1683.538
772.4868, 1666.185
772.9689, 1687.557
773.4510, 1712.420
773.9332, 1723.419
774.4153, 1726.205
774.8974, 1728.748
775.3795, 1732.931
775.8616, 1744.623
776.3438, 1772.192
776.8259, 1805.276
777.3080, 1832.432
777.7901, 1856.200
778.2722, 1886.231
778.7543, 1923.874
779.2365, 1955.795
779.7186, 1967.688
780.2007, 1966.440
780.6828, 1978.153
781.1649, 2004.467
781.6470, 2019.060
782.1292, 2015.571
782.6113, 2004.050
783.0934, 1989.874
783.5755, 1974.177
784.0576, 1961.621
784.5397, 1962.218
785.0219, 1948.087
785.5040, 1909.622
785.9861, 1867.249
786.4682, 1828.752
786.9503, 1792.924
787.4324, 1755.986
787.9146, 1717.259
788.3967, 1683.282
788.8788, 1660.064
789.3609, 1640.520
789.8430, 1615.926
790.3251, 1591.072
790.8073, 1578.716
791.2894, 1579.292
791.7715, 1574.854
792.2536, 1548.214
792.7357, 1510.295
793.2178, 1485.413
793.7000, 1473.085
794.1821, 1469.434
794.6642, 1475.272
795.1463, 1478.312
795.6284, 1468.847
796.1105, 1452.177
796.5927, 1443.551
797.0748, 1446.258
797.5569, 1448.419
798.0390, 1448.960
798.5211, 1450.336
799.0032, 1452.298
799.4854, 1456.176
799.9675, 1464.783
800.4496, 1478.571
800.9317, 1490.058
801.4138, 1492.281
801.8959, 1497.238
802.3781, 1514.789
802.8602, 1536.614
803.3423, 1552.739
803.8244, 1562.138
804.3065, 1568.511
804.7886, 1572.094
805.2708, 1578.260
805.7529, 1594.865
806.2350, 1619.344
806.7171, 1645.848
807.1992, 1673.545
807.6813, 1702.194
808.1635, 1732.399
808.6456, 1758.995
809.1277, 1769.397
809.6098, 1761.634
810.0919, 1771.210
810.5740, 1801.312
811.0562, 1839.991
811.5383, 1888.840
812.0204, 1937.550
812.5025, 1971.150
812.9846, 1989.328
813.4667, 2019.279
813.9489, 2067.811
814.4310, 2118.118
814.9131, 2161.816
815.3952, 2211.643
815.8773, 2281.011
816.3594, 2363.552
816.8416, 2442.482
817.3237, 2511.173
817.8058, 2581.132
818.2879, 2650.598
818.7700, 2730.773
819.2521, 2837.975
819.7343, 2965.230
820.2164, 3091.614
820.6985, 3212.247
821.1806, 3344.672
821.6627, 3508.107
822.1448, 3695.256
822.6270, 3887.372
823.1091, 4085.526
823.5912, 4301.305
824.0733, 4538.051
824.5554, 4785.507
825.0375, 5031.840
825.5197, 5286.862
826.0018, 5584.286
826.4839, 5929.484
826.9660, 6295.576
827.4481, 6682.147
827.9302, 7085.963
828.4124, 7501.009
828.8945, 7934.109
829.3766, 8405.096
829.8587, 8916.148
830.3408, 9426.106
830.8229, 9929.428
831.3051, 10433.76
831.7872, 10963.75
832.2693, 11483.96
832.7514, 11987.37
833.2335, 12453.76
833.7156, 12836.54
834.1978, 13108.14
834.6799, 13301.78
835.1620, 13435.29
835.6441, 13507.32
836.1262, 13504.28
836.6083, 13437.83
837.0905, 13334.87
837.5726, 13207.01
838.0547, 13065.91
838.5368, 12921.30
839.0189, 12774.46
839.5010, 12623.02
839.9832, 12469.88
840.4653, 12348.17
840.9474, 12269.08
841.4295, 12187.70
841.9116, 12069.25
842.3937, 11910.62
842.8759, 11700.32
843.3580, 11438.63
843.8401, 11119.01
844.3222, 10725.20
844.8043, 10303.49
845.2864, 9869.666
845.7686, 9430.125
846.2507, 8989.432
846.7328, 8547.616
847.2149, 8113.670
847.6970, 7656.513
848.1791, 7247.913
848.6613, 6920.055
849.1434, 6637.410
849.6255, 6361.864
850.1076, 6097.585
850.5897, 5877.821
851.0718, 5729.767
851.5540, 5595.793
852.0361, 5437.875
852.5182, 5288.834
853.0003, 5174.499
853.4824, 5095.462
853.9645, 5048.838
854.4467, 5033.172
854.9288, 5036.713
855.4109, 5050.240
855.8930, 5075.703
856.3751, 5117.279
856.8572, 5173.418
857.3394, 5243.365
857.8215, 5325.185
858.3036, 5405.450
858.7857, 5475.350
859.2678, 5534.219
859.7499, 5581.471
860.2321, 5617.086
860.7142, 5640.876
861.1963, 5655.196
861.6784, 5639.979
862.1605, 5583.577
862.6426, 5499.485
863.1248, 5407.716
863.6069, 5308.671
864.0890, 5187.127
864.5711, 5036.153
865.0532, 4875.434
865.5353, 4707.365
866.0175, 4532.038
866.4996, 4340.915
866.9817, 4143.821
867.4638, 3971.905
867.9459, 3831.672
868.4280, 3704.742
868.9102, 3607.997
869.3923, 3503.653
869.8744, 3358.218
870.3565, 3202.930
870.8386, 3079.060
871.3207, 2991.659
871.8029, 2910.798
872.2850, 2825.650
872.7671, 2741.091
873.2492, 2657.235
873.7313, 2576.721
874.2134, 2501.042
874.6956, 2431.038
875.1777, 2369.319
875.6598, 2316.994
876.1419, 2265.211
876.6240, 2200.375
877.1061, 2132.650
877.5883, 2082.295
878.0704, 2044.669
878.5525, 2002.311
879.0346, 1950.622
879.5167, 1895.440
879.9988, 1841.265
880.4810, 1789.009
880.9631, 1740.484
881.4452, 1696.057
881.9273, 1662.403
882.4094, 1641.054
882.8915, 1619.099
883.3737, 1589.510
883.8558, 1558.861
884.3379, 1538.764
884.8200, 1529.560
885.3021, 1512.936
885.7842, 1485.328
886.2664, 1460.914
886.7485, 1443.509
887.2306, 1429.137
887.7127, 1415.492
888.1948, 1402.146
888.6769, 1386.997
889.1591, 1364.688
889.6412, 1351.474
890.1233, 1356.042
890.6054, 1358.955
891.0875, 1351.056
891.5696, 1339.362
892.0518, 1330.663
892.5339, 1325.584
893.0160, 1325.226
893.4981, 1335.127
893.9802, 1342.716
894.4623, 1341.500
894.9445, 1338.584
895.4266, 1339.833
895.9087, 1343.884
896.3908, 1347.800
896.8729, 1351.019
897.3550, 1349.425
897.8372, 1337.980
898.3193, 1323.292
898.8014, 1310.507
899.2835, 1298.653
899.7656, 1284.943
900.2477, 1269.851
900.7299, 1258.348
901.2120, 1254.867
901.6941, 1249.418
902.1762, 1224.785
902.6583, 1192.803
903.1404, 1175.113
903.6226, 1171.361
904.1047, 1175.487
904.5868, 1184.890
905.0689, 1195.000
905.5510, 1201.656
906.0331, 1205.437
906.5153, 1207.510
906.9974, 1208.010
907.4795, 1205.103
907.9616, 1198.667
908.4437, 1203.846
908.9258, 1230.415
909.4080, 1264.749
909.8900, 1283.711
910.3721, 1287.686
910.8542, 1297.688
911.3364, 1314.699
911.8185, 1332.361
912.3006, 1350.502
912.7827, 1363.819
913.2648, 1365.410
913.7469, 1360.779
914.2291, 1370.225
914.7112, 1402.075
915.1933, 1423.634
915.6754, 1433.984
916.1575, 1435.394
916.6396, 1426.792
917.1218, 1411.390
917.6039, 1391.475
918.0860, 1367.190
918.5681, 1344.836
919.0502, 1324.697
919.5323, 1305.902
920.0145, 1288.420
920.4966, 1272.255
920.9787, 1257.024
921.4608, 1243.239
921.9429, 1231.268
922.4250, 1220.840
922.9072, 1215.641
923.3893, 1219.150
923.8714, 1224.445
924.3535, 1226.759
924.8356, 1231.821
925.3177, 1246.622
925.7999, 1268.144
926.2820, 1287.121
926.7641, 1299.768
927.2462, 1316.594
927.7283, 1343.580
928.2104, 1375.042
928.6926, 1408.899
929.1747, 1444.008
929.6568, 1481.436
930.1389, 1519.495
930.6210, 1552.236
931.1031, 1578.361
931.5853, 1594.573
932.0674, 1593.945
932.5495, 1585.560
933.0316, 1584.399
933.5137, 1583.345
933.9958, 1563.430
934.4780, 1521.032
934.9601, 1471.411
935.4422, 1422.009
935.9243, 1376.896
936.4064, 1343.842
936.8885, 1318.229
937.3707, 1290.930
937.8528, 1261.937
938.3349, 1235.360
938.8170, 1212.770
939.2991, 1195.298
939.7813, 1186.680
940.2634, 1182.239
940.7455, 1168.589
941.2276, 1149.096
941.7097, 1138.372
942.1918, 1138.347
942.6740, 1143.158
943.1561, 1149.842
943.6382, 1155.133
944.1203, 1152.729
944.6024, 1144.030
945.0845, 1136.120
945.5667, 1129.292
946.0488, 1129.055
946.5309, 1136.798
947.0130, 1151.550
947.4951, 1173.616
947.9772, 1198.785
948.4594, 1217.375
948.9415, 1229.344
949.4236, 1236.157
949.9057, 1236.306
950.3878, 1246.508
950.8699, 1274.482
951.3521, 1305.658
951.8342, 1326.357
952.3163, 1337.431
952.7984, 1340.950
953.2805, 1334.829
953.7626, 1332.173
954.2448, 1333.569
954.7269, 1338.868
955.2090, 1347.453
955.6911, 1361.098
956.1732, 1382.917
956.6553, 1412.167
957.1375, 1438.092
957.6196, 1455.735
958.1017, 1484.605
958.5838, 1531.577
959.0659, 1580.069
959.5480, 1619.285
960.0302, 1657.156
960.5123, 1707.528
960.9944, 1771.884
961.4765, 1827.294
961.9586, 1867.328
962.4407, 1910.212
962.9229, 1962.109
963.4050, 2013.019
963.8871, 2062.795
964.3692, 2104.675
964.8513, 2124.162
965.3334, 2118.272
965.8156, 2103.021
966.2977, 2074.300
966.7798, 2041.954
967.2619, 2017.212
967.7440, 1980.126
968.2261, 1905.328
968.7083, 1809.415
969.1904, 1735.091
969.6725, 1690.658
970.1546, 1644.984
970.6367, 1597.259
971.1188, 1546.228
971.6010, 1484.838
972.0831, 1425.635
972.5652, 1379.230
973.0473, 1344.089
973.5294, 1313.835
974.0115, 1289.428
974.4937, 1265.849
974.9758, 1242.798
975.4579, 1219.979
975.9400, 1194.532
976.4221, 1171.213
976.9042, 1155.869
977.3864, 1147.154
977.8685, 1138.528
978.3506, 1132.669
978.8327, 1118.111
979.3148, 1082.915
979.7969, 1048.765
980.2791, 1027.201
980.7612, 1012.764
981.2433, 997.9906
981.7254, 983.1381
982.2075, 974.6104
982.6896, 978.8303
983.1718, 980.3965
983.6539, 972.5402
984.1360, 962.7460
984.6181, 954.9164
985.1002, 948.4039
985.5823, 942.8018
986.0645, 937.5602
986.5466, 929.4341
987.0287, 913.1360
987.5108, 900.9668
987.9929, 902.1684
988.4750, 904.2721
988.9572, 897.6579
989.4393, 886.5282
989.9214, 877.5828
990.4035, 871.7845
990.8856, 866.8270
991.3677, 864.0556
991.8499, 858.6896
992.3320, 841.0615
992.8141, 827.4449
993.2962, 835.1683
993.7783, 853.6795
994.2604, 864.4856
994.7426, 864.8710
995.2247, 866.1292
995.7068, 877.3070
996.1889, 884.3902
996.6710, 879.6368
997.1531, 869.2608
997.6353, 851.7173
998.1174, 835.2054
998.5995, 836.7242
999.0816, 857.8633
999.5637, 870.5246
1000.046, 855.8474
1000.528, 838.5814
1001.010, 827.6855
1001.492, 822.0181
1001.974, 822.2671
1002.456, 826.2773
1002.939, 831.3726
1003.421, 836.7981
1003.903, 840.2576
1004.385, 841.4711
1004.867, 839.5147
1005.349, 828.5576
1005.831, 819.0443
1006.313, 824.2967
1006.795, 836.4788
1007.278, 838.5562
1007.760, 827.5330
1008.242, 819.1953
1008.724, 823.0637
1009.206, 827.7406
1009.688, 829.0144
1010.170, 827.5453
1010.652, 820.8915
1011.135, 813.0947
1011.617, 812.9504
1012.099, 821.8217
1012.581, 826.7386
1013.063, 817.1368
1013.545, 809.2958
1014.027, 813.5473
1014.509, 819.8852
1014.991, 820.2356
1015.474, 816.2839
1015.956, 810.9976
1016.438, 805.1486
1016.920, 803.8547
1017.402, 818.8211
1017.884, 825.5560
1018.366, 802.5367
1018.848, 778.5356
1019.331, 780.8983
1019.813, 796.4790
1020.295, 798.9977
1020.777, 784.6158
1021.259, 773.9047
1021.741, 774.4581
1022.223, 778.1083
1022.705, 785.6752
1023.187, 791.7264
1023.670, 790.4016
1024.152, 785.9069
1024.634, 787.0574
1025.116, 794.5836
1025.598, 794.9862
1026.080, 775.5730
1026.562, 761.9574
1027.044, 762.9435
1027.526, 769.6933
1028.009, 782.3412
1028.491, 794.0257
1028.973, 792.1743
1029.455, 776.5893
1029.937, 769.9169
1030.419, 788.2905
1030.901, 798.0027
1031.383, 784.3850
1031.866, 769.7562
1032.348, 766.6103
1032.830, 769.4424
1033.312, 770.7540
1033.794, 770.2483
1034.276, 770.7751
1034.758, 775.0701
1035.240, 776.6214
1035.723, 773.4238
1036.205, 769.0178
1036.687, 760.5406
1037.169, 754.5922
1037.651, 763.1953
1038.133, 784.3196
1038.615, 792.5211
1039.097, 776.7484
1039.579, 766.2066
1040.062, 759.6220
1040.544, 760.7477
1041.026, 778.5930
1041.508, 797.5168
1041.990, 799.9749
1042.472, 788.7992
1042.954, 780.6914
1043.436, 777.0913
1043.918, 773.0227
1044.401, 766.5848
1044.883, 763.7023
1045.365, 768.7599
1045.847, 774.4023
1046.329, 774.1597
1046.811, 768.8351
1047.293, 760.5239
1047.775, 746.8331
1048.258, 740.0831
1048.740, 742.3223
1049.222, 745.6403
1049.704, 748.5749
1050.186, 750.1892
1050.668, 749.8138
1051.150, 747.4067
1051.632, 741.2429
1052.115, 729.9473
1052.597, 733.5991
1053.079, 755.9405
1053.561, 769.7990
1054.043, 768.8374
1054.525, 757.8456
1055.007, 737.5979
1055.489, 717.8401
1055.971, 719.9789
1056.453, 741.4117
1056.936, 748.2841
1057.418, 740.6880
1057.900, 737.3423
1058.382, 741.7133
1058.864, 741.2144
1059.346, 728.4379
1059.828, 711.9730
1060.310, 702.3327
1060.793, 699.5533
1061.275, 708.6854
1061.757, 725.7773
1062.239, 723.0579
1062.721, 700.7285
1063.203, 692.9233
1063.685, 714.0311
1064.167, 738.5474
1064.650, 738.5602
1065.132, 726.7556
1065.614, 729.5609
1066.096, 739.9262
1066.578, 738.1540
1067.060, 726.1633
1067.542, 718.5104
1068.024, 719.4180
1068.506, 721.1635
1068.989, 717.6603
1069.471, 712.8853
1069.953, 710.9617
1070.435, 711.2446
1070.917, 713.8597
1071.399, 717.5255
1071.881, 720.9747
1072.363, 723.0695
1072.845, 719.8674
1073.328, 707.4685
1073.810, 695.7252
1074.292, 689.4614
1074.774, 689.7720
1075.256, 703.7230
1075.738, 721.1549
1076.220, 727.5881
1076.702, 723.6407
1077.184, 718.4069
1077.667, 714.2592
1078.149, 712.1026
1078.631, 713.1705
1079.113, 715.3046
1079.595, 720.7692
1080.077, 723.8300
1080.559, 716.2114
1081.041, 702.6978
1081.524, 695.1646
1082.006, 696.0500
1082.488, 697.0966
1082.970, 698.4639
1083.452, 697.4273
1083.934, 688.5894
1084.416, 682.2198
1084.898, 687.4604
1085.380, 697.6296
1085.863, 700.8364
1086.345, 696.9860
1086.827, 699.8088
1087.309, 716.1927
1087.791, 724.9796
1088.273, 721.5802
1088.755, 716.6422
1089.237, 714.2346
1089.719, 712.2955
1090.202, 708.1718
1090.684, 702.8285
1091.166, 701.7798
1091.648, 706.9733
1092.130, 703.2925
1092.612, 687.2990
1093.094, 681.1442
1093.576, 692.7114
1094.059, 706.9348
1094.541, 712.7040
1095.023, 712.5651
1095.505, 711.0435
1095.987, 708.2847
1096.469, 705.3320
1096.951, 702.2802
1097.433, 699.9348
1097.916, 698.4662
1098.398, 698.0408
1098.880, 698.7408
1099.362, 700.7056
1099.844, 704.9536
1100.326, 709.7526
1100.808, 711.6365
1101.290, 711.1761
1101.772, 709.1407
1102.255, 706.1042
1102.737, 704.1414
1103.219, 703.4785
1103.701, 699.5354
1104.183, 685.9807
1104.665, 674.4785
1105.147, 678.0151
1105.629, 687.9961
1106.111, 697.6991
1106.594, 705.1896
1107.076, 707.9763
1107.558, 706.4318
1108.040, 704.0709
1108.522, 702.6064
1109.004, 698.8508
1109.486, 686.7532
1109.968, 677.6247
1110.451, 680.7926
1110.933, 687.0479
1111.415, 686.2574
1111.897, 681.5765
1112.379, 682.9749
1112.861, 692.9365
1113.343, 699.3452
1113.825, 698.8845
1114.307, 698.0310
1114.790, 696.3129
1115.272, 696.3463
1115.754, 700.9627
1116.236, 706.4761
1116.718, 707.9573
1117.200, 705.8126
1117.682, 704.3057
1118.164, 704.5128
1118.646, 699.7831
1119.129, 687.8132
1119.611, 679.7411
1120.093, 679.1870
1120.575, 684.3859
1121.057, 695.3180
1121.539, 706.4663
1122.021, 703.9646
1122.503, 689.8185
1122.986, 677.0455
1123.468, 666.7298
1123.950, 668.7974
1124.432, 683.3420
1124.914, 695.5266
1125.396, 697.9642
1125.878, 694.3828
1126.360, 685.6428
1126.843, 676.9341
1127.325, 677.7591
1127.807, 683.5930
1128.289, 688.2503
1128.771, 690.3948
1129.253, 688.5119
1129.735, 682.6722
1130.217, 674.8014
1130.699, 662.0524
1131.182, 657.3683
1131.664, 679.0936
1132.146, 700.6232
1132.628, 700.7766
1133.110, 690.5552
1133.592, 679.9523
1134.074, 672.1336
1134.556, 673.6778
1135.038, 689.4277
1135.521, 695.9552
1136.003, 677.2288
1136.485, 666.7778
1136.967, 681.5069
1137.449, 694.8068
1137.931, 690.1076
1138.413, 678.3626
1138.895, 675.2953
1139.378, 679.7799
1139.860, 679.2357
1140.342, 672.0339
1140.824, 667.0095
1141.306, 664.4872
1141.788, 665.6393
1142.270, 671.5477
1142.752, 675.9991
1143.234, 673.5302
1143.717, 668.3358
1144.199, 670.0212
1144.681, 676.0954
1145.163, 672.9548
1145.645, 663.6309
1146.127, 662.0015
1146.609, 668.9114
1147.091, 677.8792
1147.573, 685.8035
1148.056, 687.4857
1148.538, 673.8611
1149.020, 659.1187
1149.502, 659.8494
1149.984, 667.3031
1150.466, 671.5939
1150.948, 674.2319
1151.430, 682.9110
1151.913, 695.3212
1152.395, 693.7751
1152.877, 665.1471
1153.359, 647.3942
1153.841, 664.1287
1154.323, 680.0624
1154.805, 678.9765
1155.287, 672.7195
1155.770, 669.7689
1156.252, 669.0551
1156.734, 667.8624
1157.216, 666.1424
1157.698, 665.5176
1158.180, 666.2321
1158.662, 667.4690
1159.144, 669.5767
1159.626, 670.8978
1160.109, 670.9606
1160.591, 669.3207
1161.073, 665.2109
1161.555, 660.0864
1162.037, 656.9127
1162.519, 655.7715
1163.001, 658.2072
1163.483, 663.3619
1163.965, 666.6882
1164.448, 667.5829
1164.930, 667.8618
1165.412, 668.3032
1165.894, 667.6413
1166.376, 662.6170
1166.858, 659.1563
1167.340, 668.1396
1167.822, 678.6773
1168.305, 675.6031
1168.787, 665.3630
1169.269, 659.9742
1169.751, 660.4111
1170.233, 661.1736
1170.715, 661.0471
1171.197, 659.7504
1171.679, 657.8736
1172.161, 653.9069
1172.644, 640.6575
1173.126, 632.3967
1173.608, 643.2581
1174.090, 661.6086
1174.572, 670.5799
1175.054, 670.5214
1175.536, 666.2143
1176.018, 656.3221
1176.500, 648.1248
1176.983, 641.5142
1177.465, 641.2953
1177.947, 649.6561
1178.429, 655.4296
1178.911, 649.7448
1179.393, 641.0286
1179.875, 643.8366
1180.357, 654.2699
1180.840, 664.6975
1181.322, 672.8779
1181.804, 670.7114
1182.286, 660.6316
1182.768, 652.7079
1183.250, 649.9376
1183.732, 649.0386
1184.214, 648.0727
1184.697, 648.5215
1185.179, 653.7264
1185.661, 657.9905
1186.143, 656.1226
1186.625, 652.0894
1187.107, 649.2352
1187.589, 648.2787
1188.071, 650.3726
1188.553, 656.1385
1189.036, 661.9243
1189.518, 670.9836
1190.000, 672.3672
1190.482, 660.6896
1190.964, 652.2028
1191.446, 654.5693
1191.928, 659.3655
1192.410, 658.1405
1192.892, 654.1512
1193.375, 657.4554
1193.857, 665.9389
1194.339, 660.6918
1194.821, 645.5855
1195.303, 643.8852
1195.785, 656.3676
1196.267, 665.4507
1196.749, 664.1805
1197.232, 660.5262
1197.714, 661.1740
1198.196, 661.1134
1198.678, 652.6768
1199.160, 644.3893
1199.642, 645.7011
1200.124, 651.5292
1200.606, 655.4512
1201.089, 656.7887
1201.571, 656.8604
1202.053, 656.3822
1202.535, 651.8290
1203.017, 635.1169
1203.499, 626.9785
1203.981, 634.3682
1204.463, 642.3218
1204.945, 645.7402
1205.427, 643.3127
1205.910, 631.1797
1206.392, 616.2253
1206.874, 621.8478
1207.356, 645.4971
1207.838, 652.5836
1208.320, 645.5710
1208.802, 644.2247
1209.284, 650.8134
1209.767, 656.5109
1210.249, 657.6291
1210.731, 657.3508
1211.213, 659.0281
1211.695, 658.7795
1212.177, 648.1879
1212.659, 638.6082
1213.141, 645.8136
1213.624, 657.7236
1214.106, 653.9453
1214.588, 640.0060
1215.070, 641.4623
1215.552, 666.7766
1216.034, 676.2924
1216.516, 654.7186
1216.998, 637.4456
1217.480, 626.2785
1217.963, 622.8557
1218.445, 629.1533
1218.927, 640.4667
1219.409, 653.4793
1219.891, 665.7725
1220.373, 670.1651
1220.855, 668.4152
1221.337, 673.2328
1221.819, 681.9945
1222.302, 682.8138
1222.784, 675.4509
1223.266, 665.5112
1223.748, 655.4290
1224.230, 647.3618
1224.712, 642.0438
1225.194, 640.9079
1225.676, 649.5988
1226.159, 657.5624
1226.641, 655.5317
1227.123, 650.1917
1227.605, 646.8318
1228.087, 646.4772
1228.569, 651.6931
1229.051, 662.8230
1229.533, 668.0477
1230.016, 665.4504
1230.498, 662.3353
1230.980, 658.7801
1231.462, 656.0598
1231.944, 654.7098
1232.426, 652.9099
1232.908, 649.3063
1233.390, 645.3068
1233.872, 642.4578
1234.354, 641.1976
1234.837, 645.7783
1235.319, 651.0000
1235.801, 642.5869
1236.283, 626.5315
1236.765, 619.4582
1237.247, 623.1003
1237.729, 627.6062
1238.211, 629.7553
1238.694, 630.2177
1239.176, 623.6798
1239.658, 623.3289
1240.140, 643.0601
1240.622, 659.2240
1241.104, 655.1851
1241.586, 644.5128
1242.068, 642.0465
1242.551, 646.1613
1243.033, 652.5930
1243.515, 661.6727
1243.997, 658.0886
1244.479, 642.9773
1244.961, 639.1312
1245.443, 648.7298
1245.925, 656.3610
1246.407, 655.9846
1246.890, 654.8423
1247.372, 659.1216
1247.854, 663.4191
1248.336, 662.4391
1248.818, 659.1121
1249.300, 656.3595
1249.782, 652.5660
1250.264, 643.9187
1250.746, 633.1569
1251.229, 625.9397
1251.711, 622.8633
1252.193, 626.3409
1252.675, 640.7834
1253.157, 650.4630
1253.639, 654.3573
1254.121, 655.4861
1254.603, 654.6999
1255.086, 649.9296
1255.568, 639.2559
1256.050, 629.8954
1256.532, 632.8264
1257.014, 641.1660
1257.496, 640.4380
1257.978, 635.7131
1258.460, 637.0148
1258.943, 641.5668
1259.425, 642.0124
1259.907, 638.6762
1260.389, 637.7042
1260.871, 641.1448
1261.353, 643.6174
##END=



