##NAMES=Humite
##RRUFFID=R050665
##IDEAL CHEMISTRY=Mg_7_(SiO_4_)_3_(F,OH)_2_
##LOCALITY=Tilly Foster mine, Brewster, Putnam County, New York, USA
##OWNER=RRUFF
##SOURCE=University of Arizona Mineral Museum
##DESCRIPTION=Granular aggregate of reddish-orange crystals
##STATUS=The identification of this mineral has been confirmed by X-ray diffraction and chemical analysis
##URL=rruff.info/R050665
##MEASURED CHEMISTRY=(Mg_0.91_Fe^2+^_0.09_)_7_(Si_1.00_O_4_)_3_(F_0.56_(OH)_0.44_)_2_
92.02539, 216.2967
92.50751, 223.1837
92.98962, 228.0079
93.47174, 225.5778
93.95386, 220.1007
94.43597, 213.8243
94.91809, 208.0947
95.40021, 202.7090
95.88232, 195.9212
96.36444, 185.6629
96.84656, 176.9447
97.32867, 171.5812
97.81078, 168.5658
98.29290, 166.2901
98.77502, 163.5502
99.25713, 160.2280
99.73925, 155.6628
100.2214, 148.5764
100.7035, 141.7096
101.1856, 136.0647
101.6677, 131.7706
102.1498, 128.5752
102.6320, 126.2103
103.1141, 124.8173
103.5962, 124.1341
104.0783, 124.8951
104.5604, 126.0490
105.0425, 126.4301
105.5247, 125.6639
106.0068, 124.1378
106.4889, 122.4205
106.9710, 120.5327
107.4531, 118.4767
107.9352, 116.2137
108.4173, 113.7594
108.8995, 111.1458
109.3816, 108.0355
109.8637, 105.0447
110.3458, 102.8088
110.8279, 101.4482
111.3100, 100.5919
111.7922, 99.81742
112.2743, 99.09972
112.7564, 98.56622
113.2385, 98.25221
113.7206, 98.11211
114.2027, 98.09460
114.6849, 98.16280
115.1670, 98.37849
115.6491, 98.99415
116.1312, 100.8746
116.6133, 102.1311
117.0954, 102.3657
117.5776, 101.8051
118.0597, 100.7347
118.5418, 99.28523
119.0239, 97.43990
119.5060, 96.23258
119.9881, 95.73707
120.4703, 95.64546
120.9524, 96.12392
121.4345, 97.01418
121.9166, 97.76839
122.3987, 97.86333
122.8808, 97.16300
123.3630, 96.40974
123.8451, 95.35425
124.3272, 94.36855
124.8093, 93.96068
125.2914, 94.28822
125.7735, 94.70151
126.2557, 94.23245
126.7378, 93.08560
127.2199, 92.25153
127.7020, 92.43697
128.1841, 93.28381
128.6662, 93.61282
129.1483, 92.98101
129.6305, 92.07138
130.1126, 91.45893
130.5947, 91.11851
131.0768, 90.76054
131.5589, 90.07051
132.0410, 88.98696
132.5232, 88.07930
133.0053, 87.37154
133.4874, 86.89500
133.9695, 86.79375
134.4516, 87.05787
134.9337, 87.43420
135.4159, 87.49281
135.8980, 86.87124
136.3801, 86.63428
136.8622, 87.20145
137.3443, 87.91833
137.8264, 88.25471
138.3086, 88.00686
138.7907, 87.30946
139.2728, 86.53305
139.7549, 85.41038
140.2370, 84.51434
140.7191, 83.85700
141.2013, 83.45428
141.6834, 83.45154
142.1655, 84.02173
142.6476, 84.89491
143.1297, 84.85292
143.6118, 83.02893
144.0939, 81.39737
144.5761, 80.85270
145.0582, 81.23435
145.5403, 81.84544
146.0224, 82.49418
146.5045, 82.97664
146.9866, 82.85342
147.4688, 81.66380
147.9509, 80.22681
148.4330, 79.29588
148.9151, 78.91089
149.3972, 78.77995
149.8793, 78.83869
150.3615, 79.02328
150.8436, 79.29333
151.3257, 79.71590
151.8078, 80.17456
152.2899, 80.36604
152.7720, 80.11691
153.2542, 79.90107
153.7363, 80.05415
154.2184, 80.34516
154.7005, 80.40730
155.1826, 79.95646
155.6647, 79.05271
156.1469, 78.32605
156.6290, 77.95582
157.1111, 77.60827
157.5932, 77.11498
158.0753, 76.56693
158.5574, 76.16582
159.0396, 76.08839
159.5217, 76.36253
160.0038, 76.72297
160.4859, 77.45788
160.9680, 78.01606
161.4501, 77.93638
161.9323, 77.35551
162.4144, 76.90922
162.8965, 77.32769
163.3786, 78.98021
163.8607, 79.82888
164.3428, 79.65293
164.8250, 78.91579
165.3071, 77.64121
165.7892, 75.89674
166.2713, 74.34782
166.7534, 73.89546
167.2355, 74.70651
167.7177, 75.46845
168.1998, 76.09372
168.6819, 76.58408
169.1640, 76.96415
169.6461, 77.25983
170.1282, 77.36436
170.6104, 76.97131
171.0925, 76.14452
171.5746, 75.51468
172.0567, 75.45335
172.5388, 75.79350
173.0209, 76.05614
173.5031, 76.16274
173.9852, 76.15020
174.4673, 76.03565
174.9494, 75.83060
175.4315, 75.64323
175.9136, 75.60978
176.3958, 75.72035
176.8779, 75.66080
177.3600, 75.13810
177.8421, 74.64338
178.3242, 74.46578
178.8063, 74.60950
179.2885, 74.89879
179.7706, 75.23058
180.2527, 75.68246
180.7348, 75.82445
181.2169, 75.08952
181.6990, 74.43999
182.1812, 74.55363
182.6633, 75.45809
183.1454, 76.54517
183.6275, 76.90342
184.1096, 76.00127
184.5917, 75.48302
185.0738, 75.44832
185.5560, 75.65805
186.0381, 76.03918
186.5202, 76.53866
187.0023, 77.03076
187.4844, 77.29227
187.9665, 77.10659
188.4487, 77.01984
188.9308, 77.00025
189.4129, 77.08862
189.8950, 77.35012
190.3771, 77.80286
190.8592, 78.37437
191.3414, 78.95103
191.8235, 79.72501
192.3056, 80.13030
192.7877, 79.74793
193.2698, 79.05966
193.7519, 78.76327
194.2341, 79.15054
194.7162, 79.85109
195.1983, 80.05769
195.6804, 79.64027
196.1625, 79.33222
196.6446, 79.69022
197.1268, 80.32125
197.6089, 80.19216
198.0910, 78.64809
198.5731, 76.68791
199.0552, 75.96072
199.5373, 76.61708
200.0195, 77.38618
200.5016, 77.54919
200.9837, 77.22015
201.4658, 76.99741
201.9479, 77.15495
202.4300, 77.38615
202.9122, 77.37867
203.3943, 77.11877
203.8764, 76.68799
204.3585, 76.04605
204.8406, 75.19396
205.3227, 74.51289
205.8048, 73.99831
206.2870, 73.79845
206.7691, 74.18032
207.2512, 75.15847
207.7333, 76.16496
208.2154, 76.49007
208.6975, 75.97409
209.1797, 75.72713
209.6618, 76.25211
210.1439, 76.88915
210.6260, 77.38778
211.1081, 77.67014
211.5902, 77.64702
212.0724, 77.04571
212.5545, 75.48808
213.0366, 74.53379
213.5187, 74.54656
214.0008, 74.95023
214.4829, 75.62317
214.9651, 76.44590
215.4472, 77.10133
215.9293, 76.97743
216.4114, 75.19040
216.8935, 74.51320
217.3756, 75.79214
217.8578, 77.39084
218.3399, 78.08195
218.8220, 77.64645
219.3041, 76.84692
219.7862, 76.88515
220.2683, 78.48432
220.7505, 79.53723
221.2326, 79.88477
221.7147, 79.85927
222.1968, 79.63750
222.6789, 79.28808
223.1610, 78.88531
223.6432, 78.52639
224.1253, 78.14549
224.6074, 77.99219
225.0895, 78.26904
225.5716, 78.65755
226.0537, 78.89224
226.5358, 78.90847
227.0180, 78.76455
227.5001, 78.50236
227.9822, 78.02982
228.4643, 77.75638
228.9464, 77.81851
229.4285, 78.04049
229.9107, 78.28218
230.3928, 78.51684
230.8749, 78.67583
231.3570, 78.61826
231.8391, 78.31512
232.3212, 78.12263
232.8034, 78.25478
233.2855, 78.46715
233.7676, 78.41833
234.2497, 78.02135
234.7318, 77.51881
235.2139, 77.12238
235.6961, 76.82391
236.1782, 76.70452
236.6603, 76.82943
237.1424, 77.13305
237.6245, 77.60291
238.1066, 78.32912
238.5888, 78.91527
239.0709, 78.77728
239.5530, 78.14213
240.0351, 77.72190
240.5172, 78.01981
240.9993, 78.63647
241.4815, 78.73112
241.9636, 78.06013
242.4457, 77.37329
242.9278, 77.42887
243.4099, 77.88641
243.8920, 77.51531
244.3742, 77.95550
244.8563, 78.12325
245.3384, 78.03316
245.8205, 76.91302
246.3026, 78.88072
246.7847, 78.59432
247.2668, 77.19594
247.7490, 75.84714
248.2311, 75.02039
248.7132, 74.60903
249.1953, 74.44874
249.6774, 74.85622
250.1595, 74.83919
250.6417, 73.66528
251.1238, 71.96690
251.6059, 70.51449
252.0880, 69.62227
252.5701, 69.23032
253.0522, 69.28333
253.5344, 70.15991
254.0165, 70.72478
254.4986, 70.44527
254.9807, 69.79949
255.4628, 69.24866
255.9449, 68.96897
256.4271, 68.98022
256.9092, 69.46129
257.3913, 71.03513
257.8734, 71.83953
258.3555, 71.12002
258.8376, 69.79747
259.3198, 68.67870
259.8019, 68.08023
260.2840, 67.83952
260.7661, 67.63364
261.2482, 67.47204
261.7303, 67.33068
262.2125, 67.20110
262.6946, 67.08700
263.1767, 67.01033
263.6588, 66.97276
264.1409, 66.92785
264.6230, 66.78889
265.1052, 66.50944
265.5873, 66.21771
266.0694, 65.97840
266.5515, 65.69585
267.0336, 65.21200
267.5157, 64.53115
267.9979, 63.88905
268.4800, 63.66111
268.9621, 64.08131
269.4442, 64.43088
269.9263, 64.87072
270.4084, 65.14239
270.8906, 64.93571
271.3727, 64.28849
271.8548, 63.60532
272.3369, 63.37761
272.8190, 63.13604
273.3011, 63.75724
273.7833, 64.10596
274.2654, 64.19684
274.7475, 63.25766
275.2296, 63.64859
275.7117, 63.50647
276.1938, 63.34249
276.6760, 63.92064
277.1581, 63.13127
277.6402, 63.69764
278.1223, 63.72282
278.6044, 63.99569
279.0865, 64.01204
279.5686, 64.36569
280.0508, 64.19029
280.5329, 63.45960
281.0150, 62.87836
281.4971, 63.41632
281.9792, 63.68182
282.4613, 63.68947
282.9435, 62.66705
283.4256, 62.97476
283.9077, 62.74941
284.3898, 62.50221
284.8719, 62.99714
285.3540, 62.12454
285.8362, 62.52752
286.3183, 62.86882
286.8004, 63.46606
287.2825, 63.80121
287.7646, 63.58575
288.2467, 62.99378
288.7289, 62.63203
289.2110, 62.64101
289.6931, 62.68575
290.1752, 62.74395
290.6573, 62.80264
291.1394, 62.84050
291.6216, 62.84877
292.1037, 62.84131
292.5858, 62.85151
293.0679, 62.93437
293.5500, 62.92850
294.0321, 62.62709
294.5143, 62.31166
294.9964, 62.32345
295.4785, 62.75372
295.9606, 63.40961
296.4427, 64.06347
296.9248, 64.79472
297.4070, 65.22668
297.8891, 65.15711
298.3712, 64.89538
298.8533, 64.60572
299.3354, 64.34328
299.8175, 64.30882
300.2997, 64.78459
300.7818, 65.89239
301.2639, 66.61522
301.7460, 66.55162
302.2281, 66.42024
302.7102, 66.87725
303.1924, 67.84773
303.6745, 68.57411
304.1566, 68.39458
304.6387, 67.36226
305.1208, 66.78367
305.6029, 67.02934
306.0851, 67.31858
306.5672, 67.26173
307.0493, 66.91985
307.5314, 66.48673
308.0135, 66.00706
308.4956, 65.57397
308.9778, 65.60979
309.4599, 66.47270
309.9420, 67.26775
310.4241, 67.85870
310.9062, 68.17296
311.3883, 67.93143
311.8705, 66.92575
312.3526, 65.60474
312.8347, 65.03398
313.3168, 65.49174
313.7989, 65.88768
314.2810, 65.83546
314.7632, 65.66363
315.2453, 65.89848
315.7274, 66.70148
316.2095, 67.62254
316.6916, 68.04615
317.1737, 67.87302
317.6559, 67.60625
318.1380, 66.94633
318.6201, 66.40938
319.1022, 66.67205
319.5843, 67.76923
320.0664, 68.87040
320.5485, 69.17809
321.0306, 68.60461
321.5128, 68.16661
321.9949, 67.95615
322.4770, 67.79664
322.9591, 67.55155
323.4412, 67.24267
323.9233, 67.01092
324.4055, 66.98006
324.8876, 67.10330
325.3697, 67.04839
325.8518, 66.62050
326.3339, 66.25359
326.8160, 66.06809
327.2982, 66.06245
327.7803, 66.31913
328.2624, 66.95522
328.7445, 67.68202
329.2266, 67.64809
329.7087, 66.32584
330.1909, 65.30923
330.6730, 65.10355
331.1551, 65.29250
331.6372, 65.31818
332.1193, 65.01618
332.6014, 64.63438
333.0836, 64.53974
333.5657, 64.86385
334.0478, 65.10377
334.5299, 65.19603
335.0120, 65.22890
335.4941, 65.35694
335.9763, 65.56208
336.4584, 65.56294
336.9405, 65.04012
337.4226, 63.92566
337.9047, 63.12143
338.3868, 62.66396
338.8690, 62.43050
339.3511, 62.47910
339.8332, 62.71674
340.3153, 62.90138
340.7974, 62.87599
341.2795, 62.67355
341.7617, 62.49935
342.2438, 62.13451
342.7259, 62.04586
343.2080, 62.63150
343.6901, 63.48936
344.1722, 63.97245
344.6544, 63.80575
345.1365, 63.29382
345.6186, 63.06916
346.1007, 63.45574
346.5828, 63.64729
347.0649, 63.54587
347.5471, 63.30175
348.0292, 63.00243
348.5113, 62.68417
348.9934, 62.41797
349.4755, 62.35492
349.9576, 62.70311
350.4398, 62.29916
350.9219, 60.21188
351.4040, 58.33131
351.8861, 57.71104
352.3682, 58.21040
352.8503, 59.20058
353.3325, 60.30653
353.8146, 61.46992
354.2967, 61.73675
354.7788, 60.05722
355.2609, 58.68475
355.7430, 58.30033
356.2252, 58.45476
356.7073, 58.45271
357.1894, 57.96204
357.6715, 57.23284
358.1536, 56.89514
358.6357, 57.21700
359.1179, 57.55626
359.5999, 58.19035
360.0821, 58.64569
360.5642, 58.38820
361.0463, 57.38908
361.5284, 56.19938
362.0105, 55.46103
362.4926, 55.17912
362.9748, 55.36437
363.4569, 56.86737
363.9390, 58.01751
364.4211, 57.80708
364.9032, 56.57991
365.3853, 55.39530
365.8675, 55.09943
366.3496, 55.56590
366.8317, 55.55482
367.3138, 54.40387
367.7959, 53.61718
368.2780, 53.70962
368.7602, 54.26572
369.2423, 54.79450
369.7244, 55.08537
370.2065, 55.21756
370.6886, 55.33915
371.1707, 55.45149
371.6529, 55.54751
372.1350, 55.68746
372.6171, 55.76955
373.0992, 55.64940
373.5813, 55.34356
374.0634, 55.09185
374.5456, 55.24706
375.0277, 55.84296
375.5098, 56.08165
375.9919, 55.54700
376.4740, 55.08452
376.9561, 55.13390
377.4383, 55.55264
377.9204, 55.99042
378.4025, 56.24323
378.8846, 56.38185
379.3667, 56.60661
379.8488, 56.94032
380.3310, 57.30259
380.8131, 57.70997
381.2952, 58.10746
381.7773, 58.40396
382.2594, 58.54749
382.7415, 58.72284
383.2237, 59.24678
383.7058, 60.11661
384.1879, 60.68549
384.6700, 60.78531
385.1521, 60.50982
385.6342, 59.78862
386.1164, 58.68087
386.5985, 57.88311
387.0806, 58.04543
387.5627, 58.77546
388.0448, 59.14049
388.5269, 59.02794
389.0091, 58.67855
389.4912, 58.17573
389.9733, 57.56501
390.4554, 56.93137
390.9375, 56.23953
391.4196, 55.57893
391.9018, 55.00234
392.3839, 54.51367
392.8660, 54.19280
393.3481, 54.15025
393.8302, 54.22643
394.3123, 54.12141
394.7945, 53.83357
395.2766, 53.40746
395.7587, 52.51294
396.2408, 51.57698
396.7229, 51.54011
397.2050, 52.69498
397.6872, 53.96143
398.1693, 54.09859
398.6514, 52.98242
399.1335, 52.00942
399.6156, 51.20896
400.0977, 50.58413
400.5798, 50.18874
401.0620, 49.98605
401.5441, 49.83937
402.0262, 49.67103
402.5083, 49.48621
402.9904, 49.31516
403.4725, 49.16811
403.9547, 49.01977
404.4368, 48.79583
404.9189, 48.59404
405.4010, 48.53992
405.8831, 48.67157
406.3652, 48.95211
406.8474, 49.38021
407.3295, 50.19760
407.8116, 50.39666
408.2937, 49.45043
408.7758, 48.43030
409.2579, 47.84737
409.7401, 47.72663
410.2222, 47.91750
410.7043, 48.33777
411.1864, 48.95921
411.6685, 49.54837
412.1506, 50.22181
412.6328, 50.70192
413.1149, 50.91023
413.5970, 50.92640
414.0791, 50.73721
414.5612, 50.35906
415.0433, 50.05484
415.5255, 50.33387
416.0076, 51.47516
416.4897, 52.23684
416.9718, 52.27940
417.4539, 52.14325
417.9360, 51.85514
418.4182, 51.56485
418.9003, 51.65429
419.3824, 52.55643
419.8645, 54.04142
420.3466, 55.09422
420.8287, 55.60363
421.3109, 55.88562
421.7930, 56.09425
422.2751, 56.14990
422.7572, 55.83333
423.2393, 54.98424
423.7214, 54.23319
424.2036, 54.49951
424.6857, 55.72736
425.1678, 56.44623
425.6499, 56.19690
426.1320, 55.48642
426.6141, 54.70473
427.0963, 53.87495
427.5784, 53.17966
428.0605, 52.75317
428.5426, 52.48371
429.0247, 52.19197
429.5068, 51.86143
429.9890, 51.62343
430.4711, 51.67980
430.9532, 51.85701
431.4353, 51.62852
431.9174, 50.73293
432.3995, 49.81653
432.8817, 49.20135
433.3638, 48.80088
433.8459, 48.44296
434.3280, 48.08148
434.8101, 47.71461
435.2922, 47.31704
435.7744, 46.84439
436.2565, 46.55872
436.7386, 46.62846
437.2207, 46.75974
437.7028, 46.78180
438.1849, 46.68016
438.6671, 46.44989
439.1492, 46.05280
439.6313, 45.56119
440.1134, 45.41366
440.5955, 45.90182
441.0776, 46.38177
441.5598, 46.86705
442.0418, 47.26989
442.5240, 47.49391
443.0061, 47.51765
443.4882, 47.39485
443.9703, 47.15641
444.4524, 46.73183
444.9345, 46.52313
445.4167, 46.58728
445.8988, 46.37564
446.3809, 46.97762
446.8630, 47.30713
447.3451, 47.37880
447.8272, 46.42041
448.3094, 46.79213
448.7915, 46.63080
449.2736, 46.44762
449.7557, 47.00655
450.2378, 46.19799
450.7199, 46.74515
451.2021, 46.75113
451.6842, 46.54069
452.1663, 46.55423
452.6484, 46.51050
453.1305, 46.42776
453.6126, 46.39095
454.0948, 46.41573
454.5769, 46.46231
455.0590, 46.66740
455.5411, 46.85722
456.0232, 46.64965
456.5053, 45.69447
456.9875, 44.68926
457.4696, 44.17441
457.9517, 44.10540
458.4338, 44.34247
458.9159, 44.96635
459.3980, 45.63002
459.8802, 45.70107
460.3623, 45.11560
460.8444, 44.75331
461.3265, 44.97424
461.8086, 45.34430
462.2907, 45.53685
462.7729, 45.51342
463.2550, 45.25380
463.7371, 44.67964
464.2192, 43.89417
464.7013, 43.48618
465.1834, 43.71674
465.6656, 43.96272
466.1477, 44.25680
466.6298, 44.46461
467.1119, 44.41268
467.5940, 44.07627
468.0761, 43.59239
468.5583, 43.07041
469.0404, 42.43151
469.5225, 42.25044
470.0046, 43.10824
470.4867, 43.82687
470.9688, 44.00696
471.4510, 43.81471
471.9331, 43.50257
472.4152, 43.16876
472.8973, 42.91079
473.3794, 42.99291
473.8615, 43.55133
474.3437, 43.86384
474.8258, 43.50909
475.3079, 43.09909
475.7900, 43.08603
476.2721, 43.41047
476.7542, 43.63317
477.2364, 43.32326
477.7185, 42.75620
478.2006, 42.63562
478.6827, 43.05333
479.1648, 43.36365
479.6469, 43.00131
480.1291, 42.44104
480.6112, 42.65149
481.0933, 44.09798
481.5754, 45.12164
482.0575, 44.44163
482.5396, 42.86956
483.0217, 41.93892
483.5038, 41.96715
483.9860, 42.32111
484.4681, 42.44082
484.9502, 42.31191
485.4323, 42.15873
485.9144, 41.93079
486.3965, 41.73352
486.8787, 41.58623
487.3608, 41.50485
487.8429, 41.50716
488.3250, 41.59995
488.8071, 41.80016
489.2892, 42.20306
489.7714, 43.22902
490.2535, 43.38631
490.7356, 41.76593
491.2177, 40.27051
491.6998, 40.20417
492.1819, 41.08173
492.6641, 41.47655
493.1462, 39.73030
493.6283, 40.40541
494.1104, 40.80806
494.5925, 40.95286
495.0746, 40.06760
495.5568, 40.51247
496.0389, 40.42427
496.5210, 40.31421
497.0031, 40.94628
497.4852, 41.00020
497.9673, 41.00949
498.4495, 40.30271
498.9316, 40.72671
499.4137, 40.87825
499.8958, 40.77194
500.3779, 39.63558
500.8600, 39.82934
501.3422, 40.45137
501.8243, 40.01164
502.3064, 39.51250
502.7885, 39.54885
503.2706, 39.84872
503.7527, 39.91829
504.2349, 39.64978
504.7170, 39.21108
505.1991, 38.69041
505.6812, 38.06855
506.1633, 37.93847
506.6454, 38.68805
507.1276, 39.43969
507.6097, 40.00183
508.0918, 40.32113
508.5739, 40.27903
509.0560, 39.84392
509.5381, 39.22434
510.0203, 38.72135
510.5024, 38.28940
510.9845, 38.13089
511.4666, 38.21769
511.9487, 38.60911
512.4308, 39.62423
512.9130, 40.93188
513.3951, 41.92897
513.8772, 42.31123
514.3593, 42.23297
514.8414, 41.88039
515.3235, 41.19775
515.8057, 40.66539
516.2878, 40.51516
516.7699, 40.42542
517.2520, 40.08197
517.7341, 39.52493
518.2162, 39.05968
518.6984, 38.68992
519.1805, 38.55064
519.6626, 38.92725
520.1447, 39.78450
520.6268, 40.65381
521.1089, 41.36729
521.5911, 41.89617
522.0732, 42.09765
522.5553, 41.83315
523.0374, 41.71326
523.5195, 41.86288
524.0016, 42.18132
524.4838, 42.64827
524.9659, 43.21660
525.4480, 43.77082
525.9301, 44.23730
526.4122, 44.60209
526.8943, 44.79071
527.3765, 44.62416
527.8586, 44.53056
528.3407, 44.36448
528.8228, 44.40434
529.3049, 45.04396
529.7870, 46.21332
530.2692, 47.31877
530.7513, 47.76072
531.2334, 47.67910
531.7155, 47.94422
532.1976, 48.70887
532.6797, 49.46297
533.1619, 50.20552
533.6440, 50.72010
534.1261, 50.53429
534.6082, 49.43697
535.0903, 48.78998
535.5724, 50.01120
536.0546, 52.20560
536.5367, 53.32371
537.0188, 53.04725
537.5009, 52.66973
537.9830, 53.13934
538.4651, 54.31411
538.9473, 55.30846
539.4294, 56.14628
539.9115, 56.79705
540.3936, 57.11527
540.8757, 57.30879
541.3578, 57.58095
541.8400, 57.99443
542.3221, 58.61795
542.8042, 59.57515
543.2863, 60.87727
543.7684, 61.81348
544.2505, 62.05172
544.7326, 62.29932
545.2147, 63.00255
545.6968, 63.62429
546.1790, 63.49678
546.6611, 62.48015
547.1432, 61.11404
547.6253, 59.96362
548.1074, 58.99902
548.5895, 57.87370
549.0717, 56.41275
549.5538, 55.14303
550.0359, 54.61075
550.5180, 54.41571
551.0001, 53.94599
551.4822, 53.01588
551.9644, 52.02258
552.4465, 51.11523
552.9286, 50.33741
553.4107, 49.81712
553.8928, 49.58315
554.3749, 49.43431
554.8571, 49.18511
555.3392, 48.84065
555.8213, 48.61902
556.3034, 48.33046
556.7855, 48.37094
557.2676, 49.18309
557.7498, 50.21660
558.2319, 50.84721
558.7140, 50.92176
559.1961, 50.62878
559.6782, 50.10061
560.1603, 49.33453
560.6425, 48.83282
561.1246, 48.84638
561.6067, 48.76419
562.0888, 48.14217
562.5709, 47.45860
563.0530, 47.34018
563.5352, 47.95407
564.0173, 48.65010
564.4994, 48.80301
564.9815, 48.58942
565.4636, 48.63809
565.9457, 49.06721
566.4279, 49.42909
566.9100, 49.26626
567.3921, 48.83302
567.8742, 49.02470
568.3563, 50.33210
568.8384, 51.44136
569.3206, 51.76025
569.8027, 51.71209
570.2848, 51.80994
570.7669, 52.12583
571.2490, 52.42595
571.7311, 52.47469
572.2133, 52.31981
572.6954, 52.50153
573.1775, 53.63652
573.6596, 54.24620
574.1417, 53.52105
574.6238, 52.63440
575.1060, 52.68366
575.5881, 53.73799
576.0702, 55.00495
576.5523, 55.85553
577.0344, 56.39061
577.5165, 56.95551
577.9987, 57.53135
578.4808, 58.23617
578.9629, 59.32815
579.4450, 60.42289
579.9271, 60.92847
580.4092, 60.74374
580.8914, 60.63123
581.3735, 60.96429
581.8556, 61.46046
582.3377, 61.87290
582.8198, 62.16149
583.3019, 62.26229
583.7841, 62.11817
584.2662, 61.80930
584.7483, 61.55592
585.2304, 61.39528
585.7125, 61.22996
586.1946, 61.11863
586.6768, 60.95074
587.1589, 60.58552
587.6410, 60.10373
588.1231, 59.71030
588.6052, 59.52136
589.0873, 59.49564
589.5695, 59.53096
590.0516, 59.60831
590.5337, 59.90704
591.0158, 60.61029
591.4979, 61.37542
591.9800, 62.00861
592.4622, 62.48573
592.9443, 62.68323
593.4264, 61.99323
593.9085, 61.52245
594.3906, 62.49330
594.8727, 64.41940
595.3549, 65.95713
595.8370, 66.67126
596.3191, 67.00779
596.8012, 67.49873
597.2833, 68.17578
597.7654, 68.79074
598.2476, 69.28308
598.7297, 69.79277
599.2118, 70.35292
599.6939, 70.96201
600.1760, 71.68056
600.6581, 72.50362
601.1403, 73.21858
601.6224, 73.54063
602.1045, 73.48816
602.5866, 73.51826
603.0687, 73.80186
603.5508, 73.78712
604.0330, 72.86448
604.5151, 71.62465
604.9972, 70.94396
605.4793, 71.10530
605.9614, 70.87099
606.4435, 69.32036
606.9257, 67.14890
607.4078, 65.28342
607.8899, 63.80568
608.3720, 62.48147
608.8541, 61.19927
609.3362, 59.92329
609.8184, 58.52165
610.3005, 56.80214
610.7826, 55.25549
611.2647, 53.89075
611.7468, 52.68422
612.2289, 51.71822
612.7111, 50.89814
613.1932, 49.99284
613.6753, 48.85212
614.1574, 47.61338
614.6395, 46.53578
615.1216, 45.62600
615.6038, 44.69338
616.0859, 43.61935
616.5680, 42.62993
617.0501, 41.95393
617.5322, 41.51637
618.0143, 41.08335
618.4965, 40.45528
618.9786, 39.98983
619.4607, 40.11125
619.9428, 40.49463
620.4249, 40.47594
620.9070, 39.91212
621.3892, 39.25114
621.8713, 38.95984
622.3534, 39.03028
622.8355, 38.94629
623.3176, 38.78482
623.7997, 38.34697
624.2819, 37.20198
624.7640, 36.03845
625.2461, 35.55920
625.7282, 35.79321
626.2103, 36.14938
626.6924, 36.25968
627.1745, 36.14093
627.6566, 35.78086
628.1387, 35.16147
628.6208, 34.51307
629.1030, 33.81202
629.5851, 33.24756
630.0672, 33.25143
630.5493, 33.86847
631.0314, 34.14347
631.5135, 33.57814
631.9957, 32.97255
632.4778, 32.92312
632.9599, 33.20388
633.4420, 33.27060
633.9241, 32.92427
634.4063, 32.46011
634.8884, 32.29136
635.3705, 32.44469
635.8526, 32.68564
636.3347, 33.21151
636.8168, 33.53733
637.2990, 33.46914
637.7811, 33.14572
638.2632, 32.68050
638.7453, 32.08798
639.2274, 31.54285
639.7095, 31.04453
640.1917, 30.72095
640.6738, 30.95364
641.1559, 31.73083
641.6380, 32.32536
642.1201, 32.29015
642.6022, 31.92910
643.0844, 31.96019
643.5665, 32.80944
644.0486, 33.14805
644.5307, 32.47253
645.0128, 31.77623
645.4949, 31.61227
645.9771, 31.84498
646.4592, 32.16010
646.9413, 32.42393
647.4234, 32.58995
647.9055, 32.56929
648.3876, 32.36489
648.8698, 32.12709
649.3519, 31.86908
649.8340, 31.57104
650.3161, 31.08554
650.7982, 30.59075
651.2803, 30.47014
651.7625, 30.85615
652.2446, 31.33918
652.7267, 31.97556
653.2088, 32.49298
653.6909, 32.50548
654.1730, 32.06633
654.6552, 31.51435
655.1373, 31.03087
655.6194, 30.68996
656.1015, 30.75703
656.5836, 31.56404
657.0657, 31.91877
657.5479, 31.32912
658.0300, 30.67922
658.5121, 30.19263
658.9942, 29.94597
659.4763, 30.08838
659.9584, 30.74731
660.4406, 31.54113
660.9227, 32.23283
661.4048, 32.78267
661.8869, 33.08288
662.3690, 33.11516
662.8511, 32.93743
663.3333, 32.51619
663.8154, 31.95978
664.2975, 31.72689
664.7796, 32.15199
665.2617, 32.43386
665.7438, 32.50657
666.2260, 32.47498
666.7081, 32.36966
667.1902, 32.22301
667.6723, 32.08508
668.1544, 31.97989
668.6365, 31.90090
669.1187, 31.84138
669.6008, 31.80065
670.0829, 31.76525
670.5650, 31.74080
671.0471, 31.70007
671.5292, 31.59231
672.0114, 31.45452
672.4935, 31.40408
672.9756, 31.36850
673.4577, 31.54914
673.9398, 32.34532
674.4219, 33.14972
674.9041, 33.26933
675.3862, 32.79076
675.8683, 32.31801
676.3504, 32.22728
676.8325, 32.34982
677.3146, 32.23329
677.7968, 31.76592
678.2789, 31.63328
678.7610, 32.25331
679.2431, 32.77053
679.7252, 32.46360
680.2073, 31.73459
680.6895, 31.43601
681.1716, 31.90659
681.6537, 32.41069
682.1358, 32.52015
682.6179, 32.40860
683.1000, 32.26513
683.5822, 32.13947
684.0643, 32.12286
684.5464, 32.28065
685.0285, 32.57014
685.5106, 32.89965
685.9927, 33.40952
686.4749, 33.62782
686.9570, 33.10580
687.4391, 32.71926
687.9212, 33.05948
688.4033, 33.75950
688.8854, 34.11379
689.3676, 33.85770
689.8497, 33.40405
690.3318, 32.89861
690.8139, 32.49842
691.2960, 32.69346
691.7781, 33.50527
692.2603, 34.18079
692.7424, 34.24377
693.2245, 33.90907
693.7066, 33.74534
694.1887, 33.90933
694.6708, 33.92715
695.1530, 33.60543
695.6351, 33.34713
696.1172, 33.42250
696.5993, 33.67370
697.0814, 33.78774
697.5635, 33.64737
698.0457, 33.50991
698.5278, 33.69378
699.0099, 34.08827
699.4920, 34.26038
699.9741, 34.15426
700.4562, 34.33312
700.9384, 35.26990
701.4205, 36.44288
701.9026, 36.68160
702.3847, 35.45309
702.8668, 34.71464
703.3489, 34.70012
703.8311, 34.96262
704.3132, 35.31859
704.7953, 35.79085
705.2774, 36.63539
705.7595, 37.87526
706.2416, 38.79413
706.7238, 38.32511
707.2059, 36.83669
707.6880, 35.87874
708.1701, 35.46804
708.6522, 35.73989
709.1343, 37.08188
709.6164, 38.74711
710.0985, 39.49849
710.5806, 39.19361
711.0627, 39.08949
711.5449, 39.26760
712.0270, 39.66607
712.5091, 40.36775
712.9912, 41.22056
713.4733, 42.21801
713.9554, 43.25915
714.4376, 43.75417
714.9197, 42.87621
715.4018, 41.08614
715.8839, 40.21350
716.3660, 40.35579
716.8481, 40.75405
717.3303, 41.31770
717.8124, 41.85538
718.2945, 42.07628
718.7766, 42.01139
719.2587, 42.13087
719.7408, 42.66604
720.2230, 43.16489
720.7051, 43.41853
721.1872, 43.55741
721.6693, 43.70318
722.1514, 43.89550
722.6335, 44.18798
723.1157, 44.67013
723.5978, 45.19387
724.0799, 45.26328
724.5620, 44.80745
725.0441, 44.62645
725.5262, 44.87379
726.0084, 45.43030
726.4905, 46.42457
726.9726, 47.67505
727.4547, 48.41084
727.9368, 47.91035
728.4189, 47.96894
728.9011, 49.74796
729.3832, 51.86346
729.8653, 53.01001
730.3474, 53.22932
730.8295, 53.16066
731.3116, 53.13668
731.7938, 53.18029
732.2759, 53.26511
732.7580, 53.38664
733.2401, 53.98621
733.7222, 55.30957
734.2043, 56.56122
734.6865, 57.27407
735.1686, 57.60679
735.6507, 57.95686
736.1328, 58.40152
736.6149, 58.59383
737.0970, 57.98656
737.5792, 57.54890
738.0613, 58.05155
738.5434, 59.21019
739.0255, 60.45717
739.5076, 61.58624
739.9897, 62.59604
740.4719, 63.41076
740.9540, 64.08238
741.4361, 65.06150
741.9182, 66.42930
742.4003, 67.68002
742.8824, 68.65461
743.3646, 69.38744
743.8467, 69.77353
744.3288, 69.80016
744.8109, 70.24592
745.2930, 71.46693
745.7751, 72.77578
746.2573, 73.98477
746.7394, 75.07887
747.2215, 76.01897
747.7036, 76.82434
748.1857, 77.61150
748.6678, 78.46038
749.1500, 79.34826
749.6321, 80.33144
750.1142, 81.41074
750.5963, 81.93897
751.0784, 81.61174
751.5605, 81.23396
752.0427, 81.49369
752.5248, 82.26283
753.0069, 82.82032
753.4890, 83.10377
753.9711, 83.29281
754.4532, 83.58107
754.9354, 83.63201
755.4175, 82.99411
755.8996, 81.95158
756.3817, 81.15701
756.8638, 80.88960
757.3459, 80.83543
757.8281, 80.75738
758.3102, 80.58802
758.7923, 80.01249
759.2744, 78.99474
759.7565, 77.90137
760.2386, 76.87241
760.7208, 75.92757
761.2029, 75.09771
761.6850, 74.38488
762.1671, 73.78135
762.6492, 73.69904
763.1313, 73.22913
763.6135, 71.68037
764.0956, 69.84325
764.5777, 68.43852
765.0598, 67.63766
765.5419, 67.46111
766.0240, 68.35897
766.5062, 69.49883
766.9883, 69.68091
767.4704, 69.05659
767.9525, 68.14950
768.4346, 67.06908
768.9167, 66.08965
769.3989, 65.42558
769.8810, 65.08885
770.3631, 65.23330
770.8452, 66.51471
771.3273, 67.07626
771.8094, 66.05799
772.2916, 65.03575
772.7737, 64.98050
773.2558, 65.52330
773.7379, 65.81098
774.2200, 65.56083
774.7021, 65.24040
775.1843, 65.02084
775.6664, 64.99168
776.1485, 65.44363
776.6306, 66.23869
777.1127, 66.75639
777.5948, 66.71574
778.0770, 66.46587
778.5591, 66.48894
779.0412, 66.78241
779.5233, 67.46594
780.0054, 68.90208
780.4875, 69.96284
780.9697, 70.05697
781.4518, 69.77464
781.9339, 69.63158
782.4160, 69.63216
782.8981, 69.70480
783.3802, 70.12175
783.8624, 70.27549
784.3445, 69.68502
784.8266, 68.74514
785.3087, 68.03421
785.7908, 67.54581
786.2729, 66.79038
786.7551, 65.41267
787.2372, 63.71059
787.7193, 62.19048
788.2014, 60.86049
788.6835, 60.04734
789.1656, 59.91456
789.6478, 59.84658
790.1299, 59.44385
790.6120, 58.87544
791.0941, 58.54589
791.5762, 58.47472
792.0583, 58.56531
792.5404, 59.30888
793.0225, 59.67107
793.5046, 58.77789
793.9868, 57.40265
794.4689, 56.59636
794.9510, 56.56538
795.4331, 56.75296
795.9152, 56.76624
796.3973, 56.72200
796.8795, 56.80352
797.3616, 57.00094
797.8437, 57.27125
798.3258, 57.60574
798.8079, 57.97901
799.2900, 58.36971
799.7722, 58.78004
800.2543, 59.22510
800.7364, 59.83425
801.2185, 60.21580
801.7006, 60.03945
802.1827, 59.92876
802.6649, 60.12742
803.1470, 60.60772
803.6291, 61.34087
804.1112, 62.36293
804.5933, 63.39686
805.0754, 64.21535
805.5576, 65.04209
806.0397, 66.19847
806.5218, 67.53477
807.0039, 68.59593
807.4860, 69.25143
807.9681, 69.99477
808.4503, 71.43897
808.9324, 73.42123
809.4145, 75.00449
809.8966, 76.11415
810.3787, 77.31792
810.8608, 78.72415
811.3430, 80.31450
811.8251, 82.17505
812.3072, 84.23512
812.7893, 86.01614
813.2714, 86.97099
813.7535, 88.45293
814.2357, 90.76606
814.7178, 93.55275
815.1999, 96.53166
815.6820, 99.78185
816.1641, 103.5796
816.6462, 108.0137
817.1284, 112.6672
817.6105, 117.0001
818.0926, 121.3081
818.5747, 126.0498
819.0568, 131.2800
819.5389, 137.3020
820.0211, 144.2551
820.5032, 151.5194
820.9853, 158.3413
821.4674, 164.7964
821.9495, 171.8238
822.4316, 179.6159
822.9138, 187.6868
823.3959, 196.0897
823.8780, 204.5898
824.3601, 212.7008
824.8422, 220.7678
825.3243, 229.6173
825.8065, 239.1976
826.2886, 249.9621
826.7707, 262.5196
827.2528, 276.0318
827.7349, 289.7100
828.2170, 303.6987
828.6992, 318.5582
829.1813, 334.5087
829.6634, 350.8454
830.1455, 366.7156
830.6276, 382.4165
831.1097, 399.3755
831.5919, 417.4662
832.0740, 434.5594
832.5561, 450.0889
833.0382, 464.1796
833.5203, 477.2528
834.0024, 489.0353
834.4846, 497.9719
834.9667, 503.5813
835.4488, 506.8976
835.9309, 507.9014
836.4130, 506.8409
836.8951, 503.1663
837.3773, 497.7219
837.8594, 491.7540
838.3415, 485.4507
838.8236, 479.3295
839.3057, 473.5937
839.7878, 468.1861
840.2700, 463.1531
840.7521, 458.3754
841.2342, 454.0376
841.7163, 449.9807
842.1984, 444.7467
842.6805, 436.9705
843.1627, 427.1775
843.6448, 417.0660
844.1269, 406.7314
844.6090, 394.6930
845.0911, 380.6267
845.5732, 365.2713
846.0554, 348.7712
846.5375, 331.6766
847.0196, 315.5655
847.5017, 300.2926
847.9838, 286.5468
848.4659, 274.4874
848.9481, 263.6559
849.4302, 254.2405
849.9123, 245.6851
850.3944, 237.1270
850.8765, 228.5621
851.3586, 221.1652
851.8408, 215.7867
852.3229, 211.5112
852.8050, 207.7278
853.2871, 204.3964
853.7692, 201.3314
854.2513, 198.6107
854.7335, 196.5937
855.2156, 195.5206
855.6977, 195.3524
856.1798, 196.3000
856.6619, 198.3165
857.1440, 199.8467
857.6262, 200.7370
858.1083, 201.4936
858.5904, 202.1785
859.0725, 203.1152
859.5546, 205.1026
860.0367, 208.4031
860.5189, 209.5837
861.0010, 207.2493
861.4831, 204.7763
861.9652, 202.8941
862.4473, 200.8725
862.9294, 198.2910
863.4116, 195.0792
863.8937, 191.2301
864.3758, 186.7119
864.8579, 181.5543
865.3400, 175.3082
865.8221, 168.7884
866.3043, 163.0284
866.7864, 157.8049
867.2685, 152.5088
867.7506, 146.9297
868.2327, 141.1776
868.7148, 135.2501
869.1970, 129.3723
869.6791, 124.3018
870.1612, 120.0490
870.6433, 116.0912
871.1254, 112.3112
871.6075, 108.8202
872.0897, 105.8167
872.5718, 103.1134
873.0539, 100.0828
873.5360, 96.31010
874.0181, 93.16650
874.5002, 91.22613
874.9823, 89.28845
875.4644, 86.81779
875.9465, 84.24740
876.4286, 82.05082
876.9108, 80.27385
877.3929, 78.62233
877.8750, 77.01449
878.3571, 75.50066
878.8392, 74.21920
879.3214, 72.97737
879.8035, 71.57102
880.2856, 69.97878
880.7677, 68.15241
881.2498, 66.03162
881.7319, 64.07359
882.2141, 63.01332
882.6962, 62.54241
883.1783, 61.72961
883.6604, 60.56647
884.1425, 59.38435
884.6246, 58.29993
885.1068, 57.25517
885.5889, 56.15845
886.0710, 55.05458
886.5531, 54.37994
887.0352, 54.39913
887.5173, 54.05576
887.9995, 53.00443
888.4816, 51.86492
888.9637, 51.03915
889.4458, 50.37409
889.9279, 49.45456
890.4100, 48.04875
890.8922, 47.32345
891.3743, 48.16284
891.8564, 48.87604
892.3385, 48.41103
892.8206, 47.59098
893.3027, 47.53651
893.7849, 48.17555
894.2670, 48.40596
894.7491, 47.40478
895.2312, 46.40261
895.7133, 46.90974
896.1954, 47.97660
896.6776, 47.90415
897.1597, 46.82737
897.6418, 45.97390
898.1239, 45.87114
898.6060, 46.00808
899.0881, 45.72328
899.5703, 45.12873
900.0524, 44.90818
900.5345, 45.09908
901.0166, 44.84021
901.4987, 43.78737
901.9808, 42.83794
902.4630, 42.83288
902.9451, 43.39954
903.4272, 43.15529
903.9093, 41.30605
904.3914, 40.50519
904.8735, 41.89250
905.3557, 42.90583
905.8378, 42.12813
906.3199, 40.87840
906.8020, 40.68697
907.2841, 41.56648
907.7662, 42.26975
908.2484, 42.41900
908.7305, 42.44203
909.2126, 42.34574
909.6947, 42.32692
910.1768, 42.63686
910.6589, 43.17095
911.1411, 43.59574
911.6232, 43.77880
912.1053, 44.10307
912.5874, 45.21122
913.0695, 46.47294
913.5516, 46.73436
914.0338, 46.30628
914.5159, 46.23650
914.9980, 46.74909
915.4801, 47.34230
915.9622, 47.64202
916.4443, 47.70456
916.9265, 47.64373
917.4086, 47.45954
917.8907, 47.19996
918.3728, 46.82184
918.8549, 46.64074
919.3370, 46.82766
919.8192, 47.22617
920.3013, 47.68034
920.7834, 48.20339
921.2655, 48.32316
921.7476, 47.64642
922.2297, 47.24713
922.7119, 47.53279
923.1940, 47.87775
923.6761, 47.76953
924.1582, 47.50501
924.6403, 47.70467
925.1224, 48.47890
925.6046, 49.48899
926.0867, 50.90967
926.5688, 52.25402
927.0509, 53.01948
927.5330, 53.71502
928.0151, 54.97605
928.4973, 56.79769
928.9794, 58.76116
929.4615, 60.72382
929.9436, 62.56906
930.4257, 64.18005
930.9078, 65.63911
931.3900, 67.36737
931.8721, 69.06447
932.3542, 69.73050
932.8363, 69.05531
933.3184, 67.62421
933.8005, 65.91644
934.2827, 63.99644
934.7648, 61.94703
935.2469, 59.80726
935.7290, 57.96973
936.2111, 56.52235
936.6932, 55.04327
937.1754, 53.26844
937.6575, 51.38161
938.1396, 49.72709
938.6217, 48.32203
939.1038, 46.83216
939.5859, 44.96831
940.0681, 43.83680
940.5502, 44.18882
941.0323, 44.68320
941.5144, 44.00105
941.9965, 42.51431
942.4786, 41.84891
942.9608, 42.66999
943.4429, 42.89529
943.9250, 41.57599
944.4071, 40.66699
944.8892, 41.39430
945.3713, 42.66464
945.8535, 43.13088
946.3356, 42.80012
946.8177, 42.76658
947.2998, 43.58720
947.7819, 44.46193
948.2640, 45.02023
948.7462, 45.44250
949.2283, 45.84170
949.7104, 46.25425
950.1925, 46.71407
950.6746, 47.23256
951.1567, 47.80089
951.6389, 48.39711
952.1210, 49.05612
952.6031, 50.07174
953.0852, 51.11610
953.5673, 51.14586
954.0494, 50.30521
954.5316, 50.19542
955.0137, 51.70825
955.4958, 53.67883
955.9779, 54.34401
956.4600, 53.98620
956.9421, 53.81647
957.4242, 53.86037
957.9063, 54.85724
958.3884, 57.07309
958.8705, 59.41691
959.3527, 60.96442
959.8348, 62.05694
960.3169, 63.70956
960.7990, 66.09659
961.2811, 68.10208
961.7632, 69.54981
962.2454, 71.07861
962.7275, 73.09843
963.2096, 75.03022
963.6917, 76.25591
964.1738, 76.80621
964.6559, 77.02773
965.1381, 76.92817
965.6202, 76.48026
966.1023, 75.60762
966.5844, 74.48985
967.0665, 73.31437
967.5486, 71.87212
968.0308, 69.76443
968.5129, 66.97792
968.9950, 64.33813
969.4771, 62.13946
969.9592, 59.94474
970.4413, 57.48534
970.9235, 55.09025
971.4056, 53.12852
971.8877, 51.42199
972.3698, 49.41537
972.8519, 46.96130
973.3340, 45.16258
973.8162, 45.50317
974.2983, 45.85920
974.7804, 44.11899
975.2625, 41.51423
975.7446, 39.78278
976.2267, 38.98498
976.7089, 38.35744
977.1910, 37.55902
977.6731, 36.64418
978.1552, 35.45574
978.6373, 34.31299
979.1194, 33.85413
979.6016, 33.91394
980.0837, 34.02421
980.5658, 34.05145
981.0479, 33.93250
981.5300, 33.62917
982.0121, 33.13589
982.4943, 32.29343
982.9764, 31.22692
983.4585, 30.73276
983.9406, 30.81539
984.4227, 30.78135
984.9048, 30.40772
985.3870, 29.92170
985.8691, 29.48362
986.3512, 29.17985
986.8333, 29.36034
987.3154, 30.10156
987.7975, 30.74890
988.2797, 31.34644
988.7618, 31.53959
989.2439, 31.13744
989.7260, 30.35198
990.2081, 29.29022
990.6902, 28.04441
991.1724, 27.48007
991.6545, 27.82294
992.1366, 28.36957
992.6187, 29.59906
993.1008, 30.23033
993.5829, 29.29505
994.0651, 27.70322
994.5472, 26.60337
995.0293, 25.99802
995.5114, 25.77160
995.9935, 26.35968
996.4756, 26.68530
996.9578, 26.03430
997.4399, 25.69361
997.9220, 27.02736
998.4041, 28.84649
998.8862, 29.09445
999.3683, 27.51607
999.8505, 26.20029
1000.333, 25.68958
1000.815, 25.49148
1001.297, 25.62350
1001.779, 25.82748
1002.261, 25.95240
1002.743, 25.96816
1003.225, 25.84311
1003.707, 25.56849
1004.190, 25.24621
1004.672, 24.62271
1005.154, 24.31307
1005.636, 25.12757
1006.118, 26.20679
1006.600, 26.46587
1007.082, 26.04899
1007.564, 25.59170
1008.046, 25.31794
1008.529, 25.52851
1009.011, 26.82393
1009.493, 28.39515
1009.975, 29.44945
1010.457, 30.08293
1010.939, 30.58082
1011.421, 30.88163
1011.903, 30.43055
1012.385, 28.92966
1012.868, 27.50711
1013.350, 27.58090
1013.832, 28.47222
1014.314, 29.22967
1014.796, 29.67168
1015.278, 29.10841
1015.760, 27.58146
1016.242, 26.12524
1016.725, 25.34356
1017.207, 24.97932
1017.689, 24.80649
1018.171, 24.72294
1018.653, 24.18435
1019.135, 23.32035
1019.617, 23.20232
1020.099, 24.02928
1020.581, 24.62434
1021.064, 24.14513
1021.546, 23.17672
1022.028, 22.79188
1022.510, 22.94860
1022.992, 23.18439
1023.474, 23.50089
1023.956, 23.66297
1024.438, 23.59011
1024.921, 23.59267
1025.403, 23.94476
1025.885, 24.41727
1026.367, 24.41020
1026.849, 23.87757
1027.331, 23.60060
1027.813, 23.58755
1028.295, 23.85110
1028.777, 24.52787
1029.260, 24.98265
1029.742, 24.58204
1030.224, 23.73936
1030.706, 23.72203
1031.188, 24.81542
1031.670, 25.16624
1032.152, 24.57168
1032.634, 23.79863
1033.116, 22.92652
1033.599, 22.17934
1034.081, 21.68347
1034.563, 21.49165
1035.045, 21.83641
1035.527, 23.02748
1036.009, 23.65463
1036.491, 23.38797
1036.973, 23.18616
1037.456, 23.31090
1037.938, 23.59838
1038.420, 24.07496
1038.902, 24.57686
1039.384, 24.49423
1039.866, 23.46157
1040.348, 22.87915
1040.830, 23.13661
1041.313, 23.28736
1041.795, 22.77418
1042.277, 22.35057
1042.759, 22.80690
1043.241, 23.83306
1043.723, 24.45898
1044.205, 24.59649
1044.687, 24.54568
1045.169, 24.21198
1045.651, 23.83117
1046.134, 23.29436
1046.616, 22.88884
1047.098, 22.97661
1047.580, 23.37598
1048.062, 23.51954
1048.544, 23.23776
1049.026, 23.12723
1049.508, 23.64137
1049.991, 23.85067
1050.473, 23.05673
1050.955, 22.17640
1051.437, 21.96256
1051.919, 22.29307
1052.401, 22.79531
1052.883, 23.54109
1053.365, 23.89247
1053.848, 23.27624
1054.330, 22.80484
1054.812, 23.13730
1055.294, 23.58868
1055.776, 23.53376
1056.258, 23.11513
1056.740, 22.71055
1057.222, 22.32864
1057.704, 22.35456
1058.187, 23.49356
1058.669, 24.30066
1059.151, 24.03699
1059.633, 23.28748
1060.115, 22.22879
1060.597, 21.19970
1061.079, 20.87920
1061.561, 21.45952
1062.043, 22.04779
1062.526, 22.52209
1063.008, 22.70707
1063.490, 22.32646
1063.972, 21.80039
1064.454, 21.32248
1064.936, 21.04609
1065.418, 21.28385
1065.900, 22.10594
1066.383, 22.84501
1066.865, 23.42078
1067.347, 23.62730
1067.829, 23.23041
1068.311, 22.54978
1068.793, 21.63710
1069.275, 20.73745
1069.757, 20.20913
1070.240, 20.12270
1070.722, 20.34829
1071.204, 21.16666
1071.686, 21.84681
1072.168, 22.06340
1072.650, 21.98989
1073.132, 21.52227
1073.614, 20.98222
1074.096, 20.99498
1074.578, 21.58506
1075.061, 21.90944
1075.543, 21.50040
1076.025, 20.95268
1076.507, 20.28604
1076.989, 19.85558
1077.471, 20.18834
1077.953, 20.81798
1078.435, 20.96005
1078.918, 20.58401
1079.400, 20.35996
1079.882, 20.72887
1080.364, 20.88619
1080.846, 20.05177
1081.328, 19.28040
1081.810, 19.45770
1082.292, 20.10471
1082.774, 20.65229
1083.257, 20.97340
1083.739, 20.98045
1084.221, 20.49035
1084.703, 20.15589
1085.185, 20.48388
1085.667, 20.83614
1086.149, 20.76574
1086.631, 20.50251
1087.114, 20.26981
1087.596, 20.12188
1088.078, 20.13238
1088.560, 20.38245
1089.042, 20.49193
1089.524, 19.74741
1090.006, 19.48081
1090.488, 21.06524
1090.970, 23.00753
1091.453, 23.90695
1091.935, 23.82928
1092.417, 23.15936
1092.899, 21.89494
1093.381, 21.04577
1093.863, 21.46379
1094.345, 21.76333
1094.827, 20.97921
1095.309, 20.10864
1095.792, 20.05392
1096.274, 20.54886
1096.756, 21.06441
1097.238, 21.50212
1097.720, 21.60640
1098.202, 21.00893
1098.684, 20.46756
1099.166, 20.28087
1099.649, 20.18961
1100.131, 19.96182
1100.613, 19.73813
1101.095, 19.86620
1101.577, 20.31369
1102.059, 20.36208
1102.541, 19.37363
1103.023, 18.73649
1103.505, 18.97433
1103.988, 19.41418
1104.470, 19.85583
1104.952, 20.19147
1105.434, 20.26079
1105.916, 20.11673
1106.398, 20.04363
1106.880, 20.07284
1107.362, 20.19998
1107.844, 20.54589
1108.327, 20.83432
1108.809, 21.10837
1109.291, 21.15748
1109.773, 20.51635
1110.255, 19.52950
1110.737, 19.30747
1111.219, 20.27505
1111.701, 20.63836
1112.184, 19.46570
1112.666, 18.80371
1113.148, 19.71150
1113.630, 20.63895
1114.112, 20.45933
1114.594, 19.65169
1115.076, 19.03629
1115.558, 18.60031
1116.041, 18.50937
1116.523, 19.00559
1117.005, 19.44201
1117.487, 19.89596
1117.969, 20.06961
1118.451, 19.62092
1118.933, 19.00311
1119.415, 18.81200
1119.897, 19.00751
1120.380, 19.13822
1120.862, 19.17527
1121.344, 19.22323
1121.826, 19.32668
1122.308, 19.34136
1122.790, 19.15162
1123.272, 18.96230
1123.754, 18.94306
1124.236, 19.09650
1124.719, 19.47768
1125.201, 20.19590
1125.683, 20.56070
1126.165, 20.51636
1126.647, 20.32746
1127.129, 20.05022
1127.611, 19.61654
1128.093, 18.87070
1128.576, 18.20268
1129.058, 18.43987
1129.540, 19.52033
1130.022, 20.12525
1130.504, 20.23594
1130.986, 19.96641
1131.468, 19.28818
1131.950, 18.67975
1132.432, 18.36053
1132.915, 18.30587
1133.397, 18.54821
1133.879, 18.94723
1134.361, 18.94892
1134.843, 18.59525
1135.325, 18.32242
1135.807, 18.17775
1136.289, 18.51154
1136.771, 19.41823
1137.254, 19.92357
1137.736, 19.14576
1138.218, 17.94506
1138.700, 18.03380
1139.182, 18.97276
1139.664, 19.31968
1140.146, 19.13945
1140.628, 18.82058
1141.111, 18.47788
1141.593, 18.23444
1142.075, 18.15323
1142.557, 18.18521
1143.039, 18.27155
1143.521, 18.43556
1144.003, 18.98842
1144.485, 19.52914
1144.968, 18.84302
1145.450, 17.37288
1145.932, 16.95319
1146.414, 18.05604
1146.896, 19.20917
1147.378, 19.38347
1147.860, 19.17972
1148.342, 19.07743
1148.824, 19.00113
1149.307, 18.73490
1149.789, 18.48858
1150.271, 18.85752
1150.753, 19.68368
1151.235, 19.89380
1151.717, 18.90979
1152.199, 17.95019
1152.681, 17.60654
1153.163, 17.63730
1153.646, 18.19369
1154.128, 18.78993
1154.610, 18.78854
1155.092, 18.45713
1155.574, 18.62204
1156.056, 19.46404
1156.538, 19.78452
1157.020, 18.49296
1157.503, 17.70740
1157.985, 18.57808
1158.467, 19.52578
1158.949, 19.44188
1159.431, 18.98657
1159.913, 19.17389
1160.395, 19.91855
1160.877, 20.15841
1161.359, 19.57853
1161.842, 19.00429
1162.324, 18.42356
1162.806, 17.87316
1163.288, 17.24617
1163.770, 16.80804
1164.252, 16.77721
1164.734, 17.06464
1165.216, 17.54217
1165.698, 18.25637
1166.181, 18.44100
1166.663, 17.81621
1167.145, 17.81714
1167.627, 18.93467
1168.109, 19.50164
1168.591, 18.52104
1169.073, 17.37185
1169.555, 17.70522
1170.037, 19.10495
1170.520, 20.20321
1171.002, 20.98251
1171.484, 20.60097
1171.966, 19.06357
1172.448, 17.86257
1172.930, 17.39826
1173.412, 17.56011
1173.894, 18.32771
1174.377, 19.17034
1174.859, 19.13996
1175.341, 18.63560
1175.823, 18.91240
1176.305, 19.63337
1176.787, 19.74072
1177.269, 19.22651
1177.751, 18.59689
1178.234, 18.07841
1178.716, 17.94418
1179.198, 18.53572
1179.680, 19.31488
1180.162, 19.92062
1180.644, 20.18326
1181.126, 19.62721
1181.608, 18.69897
1182.090, 18.17240
1182.573, 18.10267
1183.055, 18.13897
1183.537, 18.17526
1184.019, 18.14066
1184.501, 17.79049
1184.983, 17.62065
1185.465, 18.14651
1185.947, 18.74574
1186.429, 18.80724
1186.912, 18.58298
1187.394, 18.58198
1187.876, 18.85263
1188.358, 19.12314
1188.840, 19.51888
1189.322, 19.64337
1189.804, 19.29595
1190.286, 18.87395
1190.769, 18.30791
1191.251, 17.95699
1191.733, 18.32878
1192.215, 19.04283
1192.697, 19.01942
1193.179, 18.09311
1193.661, 17.93507
1194.143, 18.85787
1194.625, 19.35559
1195.108, 19.13900
1195.590, 18.75527
1196.072, 18.44806
1196.554, 18.14063
1197.036, 17.70222
1197.518, 17.27698
1198.000, 17.42115
1198.482, 18.04776
1198.964, 18.33415
1199.447, 18.29481
1199.929, 18.43847
1200.411, 18.84071
1200.893, 18.96418
1201.375, 18.48645
1201.857, 17.95713
1202.339, 18.15932
1202.821, 18.57966
1203.304, 18.19940
1203.786, 17.53118
1204.268, 17.41405
1204.750, 17.84755
1205.232, 18.86022
1205.714, 20.24268
1206.196, 20.85433
1206.678, 19.89000
1207.161, 18.75664
1207.643, 18.01230
1208.125, 17.76609
1208.607, 18.46804
1209.089, 19.39160
1209.571, 19.85089
1210.053, 19.88614
1210.535, 19.71305
1211.017, 19.34922
1211.500, 19.04550
1211.982, 18.81385
1212.464, 18.67934
1212.946, 18.54316
1213.428, 18.65562
1213.910, 19.34326
1214.392, 20.04910
1214.874, 20.29485
1215.356, 20.10539
1215.839, 19.44156
1216.321, 18.16480
1216.803, 17.89718
1217.285, 18.86564
1217.767, 19.26551
1218.249, 18.73617
1218.731, 18.17454
1219.213, 17.99513
1219.696, 18.12136
1220.178, 18.55365
1220.660, 19.02866
1221.142, 18.75036
1221.624, 18.03651
1222.106, 18.07286
1222.588, 18.65532
1223.070, 18.86847
1223.552, 18.59464
1224.035, 18.25758
1224.517, 18.05460
1224.999, 17.95338
1225.481, 17.89965
1225.963, 17.96614
1226.445, 18.30793
1226.927, 18.72478
1227.409, 19.08399
1227.891, 19.31802
1228.374, 19.30950
1228.856, 19.09159
1229.338, 18.90849
1229.820, 18.88265
1230.302, 18.69140
1230.784, 17.73797
1231.266, 17.33284
1231.748, 18.50932
1232.231, 19.66554
1232.713, 19.77732
1233.195, 19.31352
1233.677, 18.85849
1234.159, 18.42982
1234.641, 18.15920
1235.123, 17.99348
1235.605, 18.36182
1236.088, 19.45047
1236.570, 19.93855
1237.052, 19.43722
1237.534, 18.74453
1238.016, 18.34987
1238.498, 18.18358
1238.980, 18.15032
1239.462, 18.26190
1239.944, 18.77080
1240.427, 19.39339
1240.909, 19.06270
1241.391, 18.07361
1241.873, 17.66028
1242.355, 18.04025
1242.837, 18.55007
1243.319, 18.88153
1243.801, 18.97969
1244.283, 18.68233
1244.766, 18.28137
1245.248, 17.69880
1245.730, 17.39640
1246.212, 18.23433
1246.694, 19.47455
1247.176, 19.62720
1247.658, 18.69230
1248.140, 18.43176
1248.622, 19.93123
1249.105, 20.32763
1249.587, 18.37152
1250.069, 17.09717
1250.551, 17.45511
1251.033, 18.21296
1251.515, 18.73482
1251.997, 19.01377
1252.479, 19.04833
1252.962, 18.82858
1253.444, 18.14761
1253.926, 17.02346
1254.408, 16.59240
1254.890, 16.87893
1255.372, 17.27177
1255.854, 17.61866
1256.336, 18.07416
1256.818, 18.72256
1257.301, 19.54421
1257.783, 20.92509
1258.265, 21.98848
1258.747, 21.10999
1259.229, 19.47260
1259.711, 18.44288
1260.193, 18.07868
1260.675, 18.41208
1261.157, 19.23052
1261.640, 19.81874
1262.122, 19.99831
1262.604, 19.74319
1263.086, 18.48736
1263.568, 17.58507
1264.050, 17.52725
1264.532, 17.89400
1265.014, 18.83529
1265.497, 19.68128
1265.979, 19.53288
1266.461, 18.67208
1266.943, 18.30927
1267.425, 18.53452
1267.907, 18.60442
1268.389, 18.51641
1268.871, 18.18855
1269.354, 17.59595
1269.836, 17.51600
1270.318, 18.31238
1270.800, 19.11836
1271.282, 19.08924
1271.764, 18.58465
1272.246, 17.91047
1272.728, 17.35004
1273.210, 17.52491
1273.693, 18.13038
1274.175, 18.65562
1274.657, 19.01623
1275.139, 19.27276
1275.621, 19.44098
1276.103, 19.45411
1276.585, 19.18137
1277.067, 18.92142
1277.549, 18.72127
1278.032, 18.61908
1278.514, 18.69932
1278.996, 18.82334
1279.478, 18.90161
1279.960, 18.92153
1280.442, 18.84413
1280.924, 18.67397
1281.406, 18.53628
1281.889, 18.41448
1282.371, 18.51802
1282.853, 18.88188
1283.335, 19.04284
1283.817, 18.87246
1284.299, 18.58851
1284.781, 18.31990
1285.263, 18.17118
1285.745, 18.24833
1286.228, 18.55202
##END=



