##NAMES=Hummerite
##RRUFFID=R070450
##IDEAL CHEMISTRY=KMgV^5+^_5_O_14_&#183;8H_2_O
##LOCALITY=Hummer mine, Jo Dandy mine (Paradox D; Hummer; C; Blackburn; Yellow Bird No. 1; Oversight; Broker), Paradox Valley, Uravan District, Montrose County, Colorado, USA
##OWNER=RRUFF
##SOURCE=Michael Scott
##DESCRIPTION=Bright orange coarse grains, some showing tabular crystal forms
##STATUS=The identification of this mineral has been confirmed by single-crystal X-ray diffraction.
##URL=rruff.info/R070450
135.4593, 1831.907
135.9414, 1913.367
136.4235, 1991.419
136.9057, 2065.370
137.3878, 2146.739
137.8699, 2238.812
138.3520, 2340.145
138.8341, 2447.765
139.3162, 2564.309
139.7984, 2682.204
140.2805, 2795.034
140.7626, 2899.702
141.2447, 3002.818
141.7268, 3106.664
142.2089, 3210.664
142.6911, 3312.454
143.1732, 3408.987
143.6553, 3504.445
144.1374, 3609.174
144.6195, 3735.016
145.1016, 3849.051
145.5838, 3937.693
146.0659, 3996.478
146.5480, 4040.209
147.0301, 4066.087
147.5122, 4076.709
147.9943, 4083.553
148.4765, 4091.448
148.9586, 4090.987
149.4407, 4076.724
149.9228, 4039.734
150.4049, 4000.553
150.8870, 3955.251
151.3692, 3904.169
151.8513, 3869.638
152.3334, 3858.429
152.8155, 3860.434
153.2976, 3867.784
153.7797, 3885.988
154.2619, 3903.796
154.7440, 3916.303
155.2261, 3920.647
155.7082, 3936.866
156.1903, 3969.783
156.6724, 4015.229
157.1546, 4067.319
157.6367, 4129.103
158.1188, 4194.323
158.6009, 4260.607
159.0830, 4328.022
159.5651, 4397.600
160.0473, 4468.271
160.5294, 4541.676
161.0115, 4619.741
161.4936, 4708.420
161.9757, 4798.992
162.4578, 4886.364
162.9400, 4966.655
163.4221, 5048.373
163.9042, 5132.574
164.3863, 5219.840
164.8684, 5312.518
165.3505, 5406.719
165.8327, 5508.204
166.3148, 5621.384
166.7969, 5748.786
167.2790, 5886.881
167.7611, 6035.137
168.2433, 6193.877
168.7254, 6359.414
169.2075, 6529.950
169.6896, 6706.047
170.1717, 6887.556
170.6538, 7066.616
171.1360, 7256.156
171.6181, 7472.013
172.1002, 7716.155
172.5823, 7960.575
173.0644, 8176.107
173.5465, 8379.339
174.0287, 8604.233
174.5108, 8880.981
174.9929, 9179.458
175.4750, 9469.534
175.9571, 9747.372
176.4392, 10028.47
176.9214, 10335.41
177.4035, 10656.06
177.8856, 10961.59
178.3677, 11240.70
178.8498, 11492.17
179.3319, 11715.73
179.8141, 11907.44
180.2962, 12082.34
180.7783, 12273.20
181.2604, 12469.78
181.7425, 12636.84
182.2246, 12743.23
182.7068, 12801.68
183.1889, 12843.92
183.6710, 12873.93
184.1531, 12891.68
184.6352, 12903.62
185.1173, 12908.67
185.5995, 12885.37
186.0816, 12801.34
186.5637, 12671.38
187.0458, 12551.09
187.5279, 12471.14
188.0100, 12398.73
188.4922, 12258.62
188.9743, 12047.37
189.4564, 11800.13
189.9385, 11545.76
190.4206, 11283.37
190.9027, 11006.76
191.3849, 10707.39
191.8670, 10391.04
192.3491, 10070.07
192.8312, 9738.451
193.3133, 9417.177
193.7954, 9134.213
194.2776, 8888.900
194.7597, 8648.193
195.2418, 8398.578
195.7239, 8143.125
196.2060, 7892.057
196.6881, 7642.479
197.1703, 7408.757
197.6524, 7215.239
198.1345, 7066.001
198.6166, 6930.360
199.0987, 6798.719
199.5808, 6671.076
200.0630, 6545.356
200.5451, 6417.860
201.0272, 6298.496
201.5093, 6204.676
201.9914, 6138.826
202.4735, 6088.108
202.9557, 6052.541
203.4378, 6034.766
203.9199, 5997.701
204.4020, 5932.124
204.8841, 5852.592
205.3662, 5797.276
205.8484, 5771.328
206.3305, 5751.670
206.8126, 5725.018
207.2947, 5690.386
207.7768, 5653.999
208.2589, 5613.860
208.7411, 5573.224
209.2232, 5544.248
209.7053, 5529.068
210.1874, 5520.297
210.6695, 5512.343
211.1517, 5504.162
211.6338, 5501.549
212.1159, 5506.448
212.5980, 5517.674
213.0801, 5529.368
213.5622, 5543.504
214.0444, 5554.187
214.5265, 5554.311
215.0086, 5538.603
215.4907, 5529.403
215.9728, 5530.708
216.4549, 5542.021
216.9371, 5557.387
217.4192, 5578.162
217.9013, 5600.804
218.3834, 5622.640
218.8655, 5645.196
219.3476, 5662.330
219.8298, 5670.743
220.3119, 5670.245
220.7940, 5674.276
221.2761, 5680.401
221.7582, 5693.906
222.2403, 5723.289
222.7225, 5776.198
223.2046, 5825.685
223.6867, 5860.883
224.1688, 5879.186
224.6509, 5919.746
225.1330, 5997.743
225.6152, 6084.309
226.0973, 6137.537
226.5794, 6135.031
227.0615, 6144.013
227.5436, 6185.130
228.0257, 6265.109
228.5079, 6339.064
228.9900, 6405.333
229.4721, 6467.607
229.9542, 6532.224
230.4363, 6602.488
230.9184, 6668.719
231.4006, 6727.213
231.8827, 6774.601
232.3648, 6827.020
232.8469, 6886.750
233.3290, 6950.678
233.8111, 7015.909
234.2933, 7091.336
234.7754, 7153.033
235.2575, 7188.997
235.7396, 7186.854
236.2217, 7199.187
236.7038, 7230.998
237.1860, 7275.145
237.6681, 7319.283
238.1502, 7369.907
238.6323, 7410.074
239.1144, 7430.245
239.5965, 7415.045
240.0787, 7422.442
240.5608, 7463.526
241.0429, 7523.141
241.5250, 7567.182
242.0071, 7589.229
242.4892, 7605.487
242.9714, 7620.226
243.4535, 7626.186
243.9356, 7649.066
244.4177, 7695.556
244.8998, 7757.287
245.3819, 7812.126
245.8641, 7856.080
246.3462, 7899.207
246.8283, 7946.569
247.3104, 8002.589
247.7925, 8051.613
248.2746, 8091.283
248.7568, 8124.305
249.2389, 8159.852
249.7210, 8205.944
250.2031, 8242.409
250.6852, 8257.844
251.1674, 8242.343
251.6495, 8229.512
252.1316, 8223.430
252.6137, 8220.153
253.0958, 8207.468
253.5779, 8184.540
254.0601, 8153.327
254.5422, 8114.884
255.0243, 8069.262
255.5064, 8016.894
255.9885, 7957.444
256.4706, 7891.524
256.9528, 7817.500
257.4349, 7728.796
257.9170, 7642.646
258.3991, 7569.568
258.8812, 7518.831
259.3633, 7456.146
259.8455, 7375.251
260.3276, 7281.292
260.8097, 7193.255
261.2918, 7109.495
261.7739, 7033.276
262.2560, 6966.188
262.7382, 6909.322
263.2203, 6858.482
263.7024, 6816.914
264.1845, 6779.902
264.6666, 6728.129
265.1487, 6657.405
265.6309, 6581.475
266.1130, 6506.255
266.5951, 6426.454
267.0772, 6364.984
267.5593, 6329.300
268.0414, 6310.441
268.5236, 6277.703
269.0057, 6224.656
269.4878, 6172.569
269.9699, 6135.176
270.4520, 6116.504
270.9341, 6095.179
271.4163, 6069.367
271.8984, 6039.849
272.3805, 6007.333
272.8626, 5968.917
273.3447, 5935.161
273.8268, 5914.354
274.3090, 5908.718
274.7911, 5900.156
275.2732, 5884.903
275.7553, 5867.483
276.2374, 5863.349
276.7195, 5876.441
277.2017, 5887.357
277.6838, 5880.837
278.1659, 5854.849
278.6480, 5838.430
279.1301, 5838.484
279.6122, 5845.452
280.0944, 5831.699
280.5765, 5793.022
281.0586, 5757.790
281.5407, 5747.780
282.0228, 5763.253
282.5049, 5768.440
282.9871, 5756.940
283.4692, 5737.780
283.9513, 5729.515
284.4334, 5732.560
284.9155, 5741.642
285.3976, 5757.821
285.8798, 5780.004
286.3619, 5790.695
286.8440, 5783.556
287.3261, 5772.527
287.8082, 5789.514
288.2903, 5834.818
288.7725, 5875.279
289.2546, 5883.205
289.7367, 5865.776
290.2188, 5866.824
290.7009, 5893.414
291.1830, 5931.939
291.6652, 5960.312
292.1473, 5979.398
292.6294, 5997.768
293.1115, 6021.834
293.5936, 6049.476
294.0757, 6069.606
294.5579, 6077.287
295.0400, 6090.277
295.5221, 6140.262
296.0042, 6222.029
296.4863, 6301.679
296.9684, 6358.359
297.4506, 6400.770
297.9327, 6446.568
298.4148, 6496.346
298.8969, 6554.011
299.3790, 6621.295
299.8611, 6698.974
300.3433, 6788.650
300.8254, 6898.848
301.3075, 7019.164
301.7896, 7128.602
302.2717, 7225.571
302.7538, 7321.353
303.2360, 7422.305
303.7181, 7530.154
304.2002, 7651.221
304.6823, 7794.690
305.1644, 7949.384
305.6465, 8098.201
306.1287, 8240.956
306.6108, 8386.609
307.0929, 8553.317
307.5750, 8727.573
308.0571, 8891.791
308.5392, 9024.216
309.0214, 9149.313
309.5035, 9292.492
309.9856, 9454.449
310.4677, 9614.914
310.9498, 9761.570
311.4319, 9899.003
311.9141, 10036.25
312.3962, 10195.43
312.8783, 10342.69
313.3604, 10452.80
313.8426, 10525.97
314.3247, 10588.63
314.8068, 10667.29
315.2889, 10736.92
315.7710, 10772.21
316.2531, 10757.87
316.7353, 10714.21
317.2174, 10642.05
317.6995, 10543.73
318.1816, 10441.24
318.6637, 10354.52
319.1458, 10261.44
319.6280, 10144.25
320.1101, 9979.018
320.5922, 9808.863
321.0743, 9642.260
321.5564, 9479.664
322.0385, 9323.359
322.5207, 9182.335
323.0028, 9041.879
323.4849, 8894.392
323.9670, 8728.062
324.4491, 8565.760
324.9312, 8409.250
325.4134, 8258.937
325.8955, 8116.337
326.3776, 7974.734
326.8597, 7846.043
327.3418, 7736.710
327.8239, 7679.130
328.3061, 7597.207
328.7882, 7470.175
329.2703, 7316.625
329.7524, 7183.942
330.2345, 7080.486
330.7166, 6989.809
331.1988, 6907.946
331.6809, 6846.523
332.1630, 6770.088
332.6451, 6665.874
333.1272, 6550.852
333.6093, 6459.004
334.0915, 6401.417
334.5736, 6348.638
335.0557, 6290.998
335.5378, 6227.140
336.0199, 6166.435
336.5020, 6108.756
336.9842, 6053.844
337.4663, 5999.663
337.9484, 5944.087
338.4305, 5894.959
338.9126, 5856.031
339.3947, 5827.561
339.8769, 5794.481
340.3590, 5755.657
340.8411, 5713.963
341.3232, 5670.311
341.8053, 5624.256
342.2874, 5582.333
342.7696, 5546.038
343.2517, 5515.208
343.7338, 5494.772
344.2159, 5486.713
344.6980, 5477.075
345.1801, 5446.689
345.6623, 5398.002
346.1444, 5364.580
346.6265, 5358.320
347.1086, 5367.638
347.5907, 5367.468
348.0728, 5357.841
348.5550, 5341.684
349.0371, 5315.094
349.5192, 5283.028
350.0013, 5261.885
350.4834, 5256.588
350.9655, 5259.403
351.4477, 5261.152
351.9298, 5261.864
352.4119, 5261.527
352.8940, 5258.561
353.3761, 5254.949
353.8582, 5255.625
354.3404, 5263.057
354.8225, 5267.525
355.3046, 5255.216
355.7867, 5232.325
356.2688, 5213.722
356.7509, 5207.198
357.2331, 5208.155
357.7152, 5214.724
358.1973, 5227.533
358.6794, 5237.888
359.1615, 5239.445
359.6436, 5235.260
360.1258, 5229.601
360.6079, 5221.445
361.0900, 5214.451
361.5721, 5209.471
362.0542, 5206.622
362.5363, 5208.947
363.0185, 5222.448
363.5006, 5239.540
363.9827, 5253.260
364.4648, 5264.502
364.9469, 5269.635
365.4290, 5266.640
365.9112, 5256.104
366.3933, 5242.178
366.8754, 5216.074
367.3575, 5193.163
367.8396, 5182.425
368.3217, 5194.882
368.8039, 5206.696
369.2860, 5220.714
369.7681, 5233.610
370.2502, 5235.654
370.7323, 5219.464
371.2144, 5199.696
371.6966, 5181.270
372.1787, 5163.123
372.6608, 5149.379
373.1429, 5142.486
373.6250, 5138.687
374.1071, 5130.856
374.5893, 5115.101
375.0714, 5103.353
375.5535, 5101.944
376.0356, 5112.209
376.5177, 5111.466
376.9998, 5096.452
377.4820, 5076.009
377.9641, 5062.341
378.4462, 5057.545
378.9283, 5043.880
379.4104, 5010.817
379.8925, 4960.858
380.3747, 4956.580
380.8568, 4950.313
381.3389, 4942.211
381.8210, 4924.112
382.3031, 4920.958
382.7852, 4913.061
383.2674, 4905.819
383.7495, 4907.311
384.2316, 4895.240
384.7137, 4898.385
385.1958, 4896.699
385.6779, 4898.520
386.1601, 4895.562
386.6422, 4895.244
387.1243, 4901.484
387.6064, 4905.474
388.0885, 4905.418
388.5706, 4912.739
389.0528, 4909.360
389.5349, 4917.039
390.0170, 4929.995
390.4991, 4937.937
390.9812, 4946.603
391.4633, 4954.604
391.9455, 4964.938
392.4276, 4975.985
392.9097, 4985.685
393.3918, 4986.835
393.8739, 4992.243
394.3561, 5016.086
394.8382, 5054.958
395.3203, 5077.937
395.8024, 5053.629
396.2845, 5021.354
396.7667, 5008.447
397.2488, 5042.314
397.7309, 5067.701
398.2130, 5062.150
398.6951, 5038.826
399.1772, 5039.272
399.6594, 5104.546
400.1415, 5162.483
400.6236, 5183.577
401.1057, 5144.303
401.5878, 5124.085
402.0699, 5129.826
402.5521, 5151.265
403.0342, 5174.769
403.5163, 5205.443
403.9984, 5228.876
404.4805, 5239.280
404.9626, 5236.285
405.4448, 5238.695
405.9269, 5248.207
406.4090, 5260.008
406.8911, 5267.105
407.3732, 5267.283
407.8553, 5280.051
408.3375, 5314.720
408.8196, 5360.855
409.3017, 5382.137
409.7838, 5376.504
410.2659, 5369.210
410.7480, 5379.553
411.2302, 5404.076
411.7123, 5424.869
412.1944, 5438.853
412.6765, 5451.486
413.1586, 5471.364
413.6407, 5497.073
414.1229, 5521.841
414.6050, 5545.637
415.0871, 5565.543
415.5692, 5570.672
416.0513, 5559.691
416.5334, 5557.949
417.0156, 5598.135
417.4977, 5657.930
417.9798, 5703.368
418.4619, 5714.952
418.9440, 5715.065
419.4261, 5713.013
419.9083, 5709.941
420.3904, 5712.311
420.8725, 5724.868
421.3546, 5742.826
421.8367, 5762.617
422.3188, 5783.018
422.8010, 5806.475
423.2831, 5834.848
423.7652, 5866.680
424.2473, 5899.509
424.7294, 5951.694
425.2115, 5987.954
425.6937, 5989.427
426.1758, 5940.109
426.6579, 5918.568
427.1400, 5938.389
427.6221, 5976.854
428.1042, 6012.515
428.5864, 6047.497
429.0685, 6075.505
429.5506, 6096.187
430.0327, 6109.048
430.5148, 6105.891
430.9969, 6076.868
431.4791, 6055.570
431.9612, 6072.819
432.4433, 6131.896
432.9254, 6171.175
433.4075, 6179.317
433.8896, 6174.074
434.3718, 6189.242
434.8539, 6224.299
435.3360, 6261.073
435.8181, 6293.267
436.3002, 6319.910
436.7823, 6333.783
437.2645, 6333.235
437.7466, 6336.333
438.2287, 6369.194
438.7108, 6418.856
439.1929, 6456.229
439.6750, 6462.096
440.1572, 6460.233
440.6393, 6476.172
441.1214, 6506.007
441.6035, 6530.448
442.0856, 6536.434
442.5677, 6533.283
443.0499, 6528.560
443.5320, 6523.601
444.0141, 6517.393
444.4962, 6503.882
444.9783, 6489.729
445.4604, 6486.085
445.9426, 6513.065
446.4247, 6534.890
446.9068, 6538.076
447.3889, 6519.568
447.8710, 6500.696
448.3531, 6480.091
448.8353, 6461.197
449.3174, 6446.606
449.7995, 6439.450
450.2816, 6431.235
450.7637, 6420.437
451.2458, 6408.012
451.7280, 6399.922
452.2101, 6401.085
452.6922, 6395.020
453.1743, 6368.346
453.6564, 6317.828
454.1385, 6284.566
454.6207, 6273.495
455.1028, 6269.667
455.5849, 6250.265
456.0670, 6216.405
456.5491, 6186.051
457.0313, 6169.259
457.5134, 6158.721
457.9955, 6133.916
458.4776, 6095.297
458.9597, 6060.813
459.4418, 6049.231
459.9240, 6050.385
460.4061, 6047.508
460.8882, 6037.818
461.3703, 6021.832
461.8524, 5994.312
462.3345, 5960.530
462.8167, 5933.288
463.2988, 5922.132
463.7809, 5917.043
464.2630, 5914.425
464.7451, 5914.593
465.2272, 5909.640
465.7094, 5891.656
466.1915, 5869.920
466.6736, 5852.562
467.1557, 5842.671
467.6378, 5835.623
468.1199, 5835.377
468.6021, 5838.739
469.0842, 5830.750
469.5663, 5798.491
470.0484, 5770.060
470.5305, 5758.501
471.0126, 5770.472
471.4948, 5777.527
471.9769, 5779.442
472.4590, 5776.829
472.9411, 5766.066
473.4232, 5743.575
473.9053, 5737.165
474.3875, 5761.071
474.8696, 5805.835
475.3517, 5833.887
475.8338, 5845.063
476.3159, 5846.104
476.7981, 5837.299
477.2802, 5822.152
477.7623, 5812.013
478.2444, 5809.607
478.7265, 5809.116
479.2086, 5796.512
479.6908, 5779.862
480.1729, 5779.666
480.6550, 5826.135
481.1371, 5879.451
481.6192, 5902.192
482.1013, 5894.425
482.5835, 5887.758
483.0656, 5902.451
483.5477, 5922.880
484.0298, 5935.677
484.5119, 5929.078
484.9940, 5926.404
485.4762, 5935.299
485.9583, 5951.844
486.4404, 5965.944
486.9225, 5973.606
487.4046, 5981.584
487.8867, 5989.279
488.3689, 5994.070
488.8510, 6017.493
489.3331, 6073.755
489.8152, 6131.779
490.2973, 6159.022
490.7794, 6148.183
491.2616, 6135.579
491.7437, 6123.083
492.2258, 6115.277
492.7079, 6130.740
493.1900, 6170.681
493.6721, 6207.292
494.1543, 6218.606
494.6364, 6212.921
495.1185, 6220.233
495.6006, 6243.134
496.0827, 6266.933
496.5648, 6270.277
497.0470, 6263.794
497.5291, 6269.659
498.0112, 6303.223
498.4933, 6344.226
498.9754, 6380.694
499.4576, 6411.688
499.9397, 6431.384
500.4218, 6420.957
500.9039, 6410.099
501.3860, 6420.642
501.8681, 6464.130
502.3503, 6500.349
502.8324, 6514.342
503.3145, 6518.452
503.7966, 6527.311
504.2787, 6547.094
504.7608, 6565.357
505.2430, 6579.549
505.7251, 6590.406
506.2072, 6604.617
506.6893, 6626.802
507.1714, 6643.895
507.6535, 6644.939
508.1357, 6626.281
508.6178, 6623.537
509.0999, 6641.282
509.5820, 6666.590
510.0641, 6677.936
510.5462, 6677.251
511.0284, 6688.919
511.5105, 6730.217
511.9926, 6781.837
512.4747, 6804.155
512.9568, 6799.992
513.4389, 6792.993
513.9210, 6797.128
514.4031, 6808.853
514.8853, 6823.638
515.3674, 6840.586
515.8495, 6861.800
516.3316, 6896.873
516.8137, 6934.810
517.2958, 6960.404
517.7780, 6948.440
518.2601, 6943.830
518.7422, 6968.562
519.2244, 7019.093
519.7065, 7057.414
520.1886, 7074.979
520.6707, 7082.878
521.1528, 7084.030
521.6349, 7072.177
522.1171, 7070.000
522.5992, 7080.032
523.0813, 7097.252
523.5634, 7116.156
524.0455, 7137.264
524.5276, 7156.988
525.0098, 7173.258
525.4919, 7187.948
525.9740, 7210.945
526.4561, 7223.402
526.9382, 7261.822
527.4203, 7285.579
527.9025, 7295.459
528.3846, 7249.898
528.8667, 7275.927
529.3488, 7273.266
529.8309, 7269.428
530.3130, 7305.532
530.7952, 7268.037
531.2773, 7303.507
531.7594, 7309.851
532.2415, 7329.526
532.7236, 7320.333
533.2057, 7320.057
533.6879, 7348.658
534.1700, 7361.269
534.6521, 7348.753
535.1342, 7369.275
535.6163, 7330.770
536.0984, 7344.062
536.5806, 7379.703
537.0627, 7368.639
537.5448, 7351.473
538.0269, 7351.501
538.5090, 7351.409
538.9911, 7352.515
539.4733, 7359.593
539.9554, 7373.173
540.4375, 7389.356
540.9196, 7406.669
541.4017, 7425.024
541.8839, 7441.525
542.3660, 7455.546
542.8481, 7474.216
543.3302, 7515.647
543.8123, 7565.643
544.2944, 7594.512
544.7766, 7582.811
545.2587, 7565.698
545.7408, 7571.247
546.2229, 7592.932
546.7050, 7614.688
547.1871, 7622.085
547.6693, 7634.777
548.1514, 7667.306
548.6335, 7723.435
549.1156, 7767.285
549.5977, 7786.712
550.0798, 7796.620
550.5620, 7805.430
551.0441, 7803.503
551.5262, 7820.386
552.0083, 7862.953
552.4904, 7920.804
552.9725, 7978.236
553.4547, 8038.558
553.9368, 8079.835
554.4189, 8084.385
554.9010, 8065.231
555.3831, 8074.250
555.8652, 8111.771
556.3474, 8160.790
556.8295, 8214.784
557.3116, 8269.772
557.7937, 8315.323
558.2758, 8348.501
558.7579, 8380.331
559.2401, 8427.845
559.7222, 8478.300
560.2043, 8511.605
560.6864, 8496.237
561.1685, 8485.390
561.6506, 8502.189
562.1328, 8543.690
562.6149, 8592.992
563.0970, 8659.787
563.5791, 8722.312
564.0612, 8771.235
564.5433, 8802.303
565.0255, 8835.715
565.5076, 8870.875
565.9897, 8908.647
566.4718, 8951.064
566.9539, 8998.495
567.4360, 9046.169
567.9182, 9093.086
568.4003, 9139.323
568.8824, 9183.112
569.3645, 9224.579
569.8466, 9270.304
570.3287, 9326.078
570.8109, 9386.699
571.2930, 9441.042
571.7751, 9489.701
572.2572, 9538.864
572.7393, 9589.799
573.2214, 9645.654
573.7036, 9712.284
574.1857, 9799.246
574.6678, 9877.116
575.1499, 9927.649
575.6320, 9963.686
576.1141, 10004.71
576.5963, 10047.07
577.0784, 10102.36
577.5605, 10180.47
578.0426, 10275.03
578.5247, 10350.89
579.0068, 10401.79
579.4890, 10445.48
579.9711, 10489.00
580.4532, 10531.79
580.9353, 10584.49
581.4174, 10650.00
581.8995, 10713.27
582.3817, 10753.35
582.8638, 10776.21
583.3459, 10804.71
583.8280, 10847.17
584.3101, 10891.73
584.7922, 10925.73
585.2744, 10950.60
585.7565, 10971.00
586.2386, 10981.00
586.7207, 10993.87
587.2028, 11024.63
587.6849, 11072.37
588.1671, 11102.61
588.6492, 11095.52
589.1313, 11075.47
589.6134, 11056.73
590.0955, 11040.84
590.5776, 11024.04
591.0598, 11007.52
591.5419, 10989.02
592.0240, 10962.15
592.5061, 10922.44
592.9882, 10899.88
593.4703, 10911.46
593.9525, 10934.60
594.4346, 10905.71
594.9167, 10828.32
595.3988, 10752.29
595.8809, 10715.41
596.3630, 10694.75
596.8452, 10650.30
597.3273, 10581.68
597.8094, 10511.02
598.2915, 10458.79
598.7736, 10409.12
599.2557, 10344.33
599.7379, 10249.58
600.2200, 10163.78
600.7021, 10104.51
601.1842, 10059.46
601.6663, 10009.06
602.1484, 9952.897
602.6306, 9888.972
603.1127, 9811.550
603.5948, 9725.642
604.0769, 9662.196
604.5590, 9630.130
605.0411, 9592.521
605.5233, 9529.246
606.0054, 9442.516
606.4875, 9348.116
606.9696, 9244.536
607.4517, 9156.170
607.9338, 9119.493
608.4160, 9114.026
608.8981, 9100.456
609.3802, 9070.856
609.8623, 9029.983
610.3444, 8976.236
610.8265, 8914.470
611.3087, 8851.649
611.7908, 8786.689
612.2729, 8725.075
612.7550, 8671.955
613.2371, 8626.010
613.7192, 8576.177
614.2014, 8510.679
614.6835, 8456.116
615.1656, 8427.964
615.6477, 8430.710
616.1298, 8415.698
616.6119, 8377.456
617.0941, 8335.695
617.5762, 8310.658
618.0583, 8299.859
618.5404, 8285.659
619.0225, 8266.988
619.5046, 8239.404
619.9868, 8185.757
620.4689, 8118.521
620.9510, 8066.156
621.4331, 8054.578
621.9152, 8050.016
622.3973, 8029.866
622.8795, 7997.649
623.3616, 7967.881
623.8437, 7951.395
624.3258, 7933.077
624.8079, 7903.852
625.2900, 7860.391
625.7722, 7825.811
626.2543, 7802.868
626.7364, 7785.387
627.2185, 7769.326
627.7006, 7754.840
628.1827, 7741.255
628.6649, 7729.463
629.1470, 7716.644
629.6291, 7696.292
630.1112, 7670.369
630.5933, 7648.740
631.0754, 7633.800
631.5576, 7625.650
632.0397, 7628.218
632.5218, 7638.432
633.0039, 7646.685
633.4860, 7653.562
633.9681, 7652.435
634.4503, 7638.437
634.9324, 7611.167
635.4145, 7578.071
635.8966, 7529.403
636.3787, 7484.702
636.8608, 7455.150
637.3430, 7447.622
637.8251, 7435.545
638.3072, 7416.141
638.7893, 7396.621
639.2714, 7386.587
639.7535, 7386.174
640.2357, 7387.573
640.7178, 7391.141
641.1999, 7392.196
641.6820, 7382.333
642.1641, 7363.247
642.6462, 7341.325
643.1284, 7309.076
643.6105, 7283.094
644.0926, 7284.815
644.5747, 7309.081
645.0568, 7323.298
645.5389, 7309.471
646.0211, 7286.714
646.5032, 7262.515
646.9853, 7234.623
647.4674, 7218.333
647.9495, 7224.180
648.4316, 7229.761
648.9138, 7214.119
649.3959, 7172.219
649.8780, 7138.560
650.3601, 7114.798
650.8422, 7103.617
651.3243, 7118.009
651.8065, 7151.866
652.2886, 7173.624
652.7707, 7169.160
653.2528, 7152.521
653.7349, 7138.773
654.2170, 7125.925
654.6992, 7108.506
655.1813, 7074.831
655.6634, 7043.867
656.1455, 7028.338
656.6276, 7028.720
657.1097, 7024.419
657.5919, 7002.079
658.0740, 6985.022
658.5561, 6988.204
659.0382, 7020.855
659.5203, 7029.538
660.0024, 7006.397
660.4846, 6977.966
660.9667, 6978.429
661.4488, 7003.243
661.9309, 7009.885
662.4130, 6987.707
662.8951, 6955.105
663.3773, 6928.405
663.8594, 6909.313
664.3415, 6901.807
664.8236, 6927.835
665.3057, 6946.658
665.7878, 6925.368
666.2700, 6876.709
666.7521, 6843.973
667.2342, 6846.399
667.7163, 6858.412
668.1984, 6877.618
668.6805, 6903.782
669.1627, 6906.100
669.6448, 6873.657
670.1269, 6842.203
670.6090, 6841.683
671.0911, 6869.559
671.5732, 6869.677
672.0554, 6837.325
672.5375, 6801.370
673.0196, 6791.895
673.5017, 6799.244
673.9838, 6806.201
674.4659, 6810.407
674.9481, 6809.284
675.4302, 6797.277
675.9123, 6779.992
676.3944, 6765.444
676.8765, 6750.734
677.3586, 6744.926
677.8408, 6759.411
678.3229, 6783.603
678.8050, 6784.582
679.2871, 6749.572
679.7692, 6723.898
680.2513, 6728.204
680.7335, 6754.381
681.2156, 6757.950
681.6977, 6738.568
682.1799, 6719.680
682.6620, 6720.445
683.1441, 6731.033
683.6262, 6736.916
684.1083, 6737.120
684.5905, 6731.104
685.0726, 6706.382
685.5547, 6682.336
686.0368, 6678.396
686.5189, 6712.258
687.0010, 6734.315
687.4832, 6728.113
687.9653, 6712.058
688.4474, 6705.296
688.9295, 6713.981
689.4116, 6713.991
689.8937, 6701.441
690.3759, 6680.103
690.8580, 6649.224
691.3401, 6611.134
691.8222, 6594.259
692.3043, 6619.837
692.7864, 6661.277
693.2686, 6684.386
693.7507, 6691.583
694.2328, 6691.409
694.7149, 6682.345
695.1970, 6672.327
695.6791, 6667.141
696.1613, 6666.918
696.6434, 6662.660
697.1255, 6653.635
697.6076, 6639.735
698.0897, 6617.622
698.5718, 6584.230
699.0540, 6566.593
699.5361, 6566.775
700.0182, 6576.450
700.5003, 6593.474
700.9824, 6614.734
701.4645, 6622.816
701.9467, 6613.394
702.4288, 6602.135
702.9109, 6611.817
703.3930, 6627.541
703.8751, 6625.512
704.3572, 6578.184
704.8394, 6542.356
705.3215, 6551.830
705.8036, 6585.113
706.2857, 6600.535
706.7678, 6582.357
707.2499, 6568.829
707.7321, 6571.883
708.2142, 6582.385
708.6963, 6562.859
709.1784, 6508.922
709.6605, 6467.187
710.1426, 6462.982
710.6248, 6483.735
711.1069, 6502.552
711.5890, 6519.803
712.0711, 6537.570
712.5532, 6561.580
713.0353, 6583.459
713.5175, 6595.897
713.9996, 6598.246
714.4817, 6595.333
714.9638, 6585.127
715.4459, 6572.655
715.9280, 6559.719
716.4102, 6543.321
716.8923, 6537.387
717.3744, 6544.946
717.8565, 6557.174
718.3386, 6567.993
718.8207, 6576.765
719.3029, 6575.798
719.7850, 6562.163
720.2671, 6546.078
720.7492, 6538.355
721.2313, 6536.889
721.7134, 6538.329
722.1956, 6545.890
722.6777, 6549.865
723.1598, 6544.027
723.6419, 6531.787
724.1240, 6519.661
724.6061, 6498.574
725.0883, 6491.399
725.5704, 6507.043
726.0525, 6537.870
726.5346, 6559.661
727.0167, 6572.122
727.4988, 6576.951
727.9810, 6568.887
728.4631, 6556.646
728.9452, 6566.785
729.4273, 6595.339
729.9094, 6616.845
730.3915, 6606.117
730.8737, 6588.759
731.3558, 6586.971
731.8379, 6602.171
732.3200, 6613.653
732.8021, 6607.274
733.2842, 6602.987
733.7664, 6612.570
734.2485, 6640.587
734.7306, 6659.026
735.2127, 6665.898
735.6948, 6667.883
736.1769, 6671.957
736.6591, 6676.925
737.1412, 6670.903
737.6233, 6650.723
738.1054, 6634.572
738.5875, 6647.784
739.0696, 6673.847
739.5518, 6686.980
740.0339, 6669.377
740.5160, 6662.613
740.9981, 6700.608
741.4802, 6752.102
741.9623, 6772.283
742.4445, 6740.730
742.9266, 6712.410
743.4087, 6689.065
743.8908, 6674.994
744.3729, 6682.596
744.8550, 6711.991
745.3372, 6741.741
745.8193, 6769.277
746.3014, 6788.702
746.7835, 6782.983
747.2656, 6760.552
747.7477, 6746.316
748.2299, 6758.838
748.7120, 6776.907
749.1941, 6791.089
749.6762, 6801.397
750.1583, 6808.971
750.6404, 6811.082
751.1226, 6814.270
751.6047, 6821.752
752.0868, 6832.664
752.5689, 6836.525
753.0510, 6832.188
753.5331, 6829.769
754.0153, 6839.258
754.4974, 6854.481
754.9795, 6858.176
755.4616, 6850.879
755.9437, 6847.729
756.4258, 6862.621
756.9080, 6883.100
757.3901, 6901.233
757.8722, 6917.404
758.3543, 6923.795
758.8364, 6910.649
759.3185, 6894.931
759.8007, 6886.706
760.2828, 6887.988
760.7649, 6886.528
761.2470, 6880.461
761.7291, 6877.861
762.2112, 6894.140
762.6934, 6921.176
763.1755, 6929.217
763.6576, 6909.718
764.1397, 6891.333
764.6218, 6904.919
765.1039, 6929.031
765.5861, 6937.806
766.0682, 6912.498
766.5503, 6891.916
767.0324, 6885.406
767.5145, 6885.179
767.9966, 6880.744
768.4788, 6867.886
768.9609, 6868.993
769.4430, 6891.147
769.9251, 6921.292
770.4072, 6938.594
770.8893, 6944.904
771.3715, 6947.443
771.8536, 6946.978
772.3357, 6946.292
772.8178, 6946.276
773.2999, 6947.966
773.7820, 6953.407
774.2642, 6971.411
774.7463, 6983.550
775.2284, 6978.292
775.7105, 6965.244
776.1926, 6973.550
776.6747, 7012.339
777.1569, 7037.648
777.6390, 7030.382
778.1211, 7004.915
778.6032, 6994.686
779.0853, 6999.336
779.5674, 7016.265
780.0496, 7056.925
780.5317, 7099.132
781.0138, 7125.995
781.4959, 7138.411
781.9780, 7142.423
782.4601, 7124.965
782.9423, 7114.957
783.4244, 7122.002
783.9065, 7145.293
784.3886, 7181.846
784.8707, 7240.199
785.3528, 7277.507
785.8350, 7249.800
786.3171, 7184.078
786.7992, 7180.827
787.2813, 7235.752
787.7634, 7296.153
788.2455, 7331.066
788.7277, 7353.954
789.2098, 7374.340
789.6919, 7393.223
790.1740, 7411.099
790.6561, 7421.128
791.1382, 7437.094
791.6204, 7470.030
792.1025, 7522.825
792.5846, 7549.730
793.0667, 7545.292
793.5488, 7537.865
794.0309, 7544.771
794.5131, 7566.637
794.9952, 7611.402
795.4773, 7680.086
795.9594, 7744.852
796.4415, 7780.025
796.9236, 7806.610
797.4058, 7838.670
797.8879, 7874.542
798.3700, 7934.274
798.8521, 8046.288
799.3342, 8154.268
799.8163, 8216.805
800.2985, 8228.732
800.7806, 8232.106
801.2627, 8225.806
801.7448, 8221.195
802.2269, 8225.829
802.7090, 8241.353
803.1912, 8275.601
803.6733, 8332.970
804.1554, 8387.397
804.6375, 8426.735
805.1196, 8453.547
805.6017, 8469.068
806.0839, 8462.585
806.5660, 8465.022
807.0481, 8475.220
807.5302, 8495.796
808.0123, 8535.762
808.4944, 8595.132
808.9766, 8636.025
809.4587, 8652.614
809.9408, 8659.430
810.4229, 8665.007
810.9050, 8674.086
811.3871, 8697.164
811.8693, 8745.404
812.3514, 8783.811
812.8335, 8791.866
813.3156, 8785.560
813.7977, 8781.445
814.2798, 8773.851
814.7620, 8783.757
815.2441, 8816.441
815.7262, 8858.754
816.2083, 8898.746
816.6904, 8934.758
817.1725, 8952.400
817.6547, 8943.506
818.1368, 8935.681
818.6189, 8958.809
819.1010, 8998.075
819.5831, 9034.015
820.0652, 9061.765
820.5474, 9084.581
821.0295, 9098.229
821.5116, 9109.843
821.9937, 9129.398
822.4758, 9161.693
822.9579, 9176.902
823.4401, 9164.808
823.9222, 9151.931
824.4043, 9184.459
824.8864, 9246.650
825.3685, 9296.364
825.8506, 9319.402
826.3328, 9334.408
826.8149, 9352.849
827.2970, 9370.733
827.7791, 9382.664
828.2612, 9388.752
828.7433, 9387.104
829.2255, 9378.189
829.7076, 9361.063
830.1897, 9327.127
830.6718, 9276.710
831.1539, 9253.035
831.6360, 9273.743
832.1182, 9291.687
832.6003, 9238.609
833.0824, 9146.404
833.5645, 9068.851
834.0466, 9038.118
834.5287, 8996.674
835.0109, 8911.831
835.4930, 8810.232
835.9751, 8727.777
836.4572, 8673.708
836.9393, 8616.061
837.4214, 8552.643
837.9036, 8483.991
838.3857, 8412.328
838.8678, 8336.032
839.3499, 8247.316
839.8320, 8138.305
840.3141, 8038.027
840.7963, 7983.483
841.2784, 7946.154
841.7605, 7891.197
842.2426, 7779.768
842.7247, 7695.958
843.2068, 7659.848
843.6890, 7638.643
844.1711, 7592.573
844.6532, 7520.133
845.1353, 7447.615
845.6174, 7376.331
846.0995, 7314.565
846.5817, 7272.960
847.0638, 7247.505
847.5460, 7236.298
848.0281, 7252.844
848.5102, 7246.611
848.9923, 7167.384
849.4744, 7071.609
849.9565, 7022.223
850.4387, 7051.213
850.9208, 7043.208
851.4029, 6983.500
851.8850, 6910.463
852.3671, 6868.149
852.8492, 6850.382
853.3314, 6833.813
853.8135, 6814.119
854.2956, 6798.396
854.7777, 6803.227
855.2598, 6808.827
855.7419, 6792.829
856.2241, 6736.275
856.7062, 6691.821
857.1883, 6661.764
857.6704, 6645.055
858.1525, 6645.981
858.6346, 6665.361
859.1168, 6668.216
859.5989, 6650.914
860.0810, 6630.093
860.5631, 6623.961
861.0452, 6623.703
861.5273, 6615.788
862.0095, 6596.354
862.4916, 6581.220
862.9737, 6583.745
863.4558, 6587.019
863.9379, 6579.256
864.4200, 6557.627
864.9022, 6538.005
865.3843, 6519.570
865.8664, 6505.631
866.3485, 6496.721
866.8306, 6494.702
867.3127, 6510.317
867.7949, 6543.881
868.2770, 6566.200
868.7591, 6546.256
869.2412, 6518.299
869.7233, 6510.245
870.2054, 6530.187
870.6876, 6526.552
871.1697, 6485.583
871.6518, 6447.396
872.1339, 6436.599
872.6160, 6449.432
873.0981, 6464.908
873.5803, 6482.473
874.0624, 6487.258
874.5445, 6447.899
875.0266, 6407.137
875.5087, 6413.518
875.9908, 6464.063
876.4730, 6492.172
876.9551, 6457.953
877.4372, 6426.414
877.9193, 6419.991
878.4014, 6434.117
878.8835, 6438.673
879.3657, 6433.464
879.8478, 6427.201
880.3299, 6422.086
880.8120, 6420.272
881.2941, 6432.895
881.7762, 6452.848
882.2584, 6455.852
882.7405, 6400.985
883.2226, 6361.521
883.7047, 6371.674
884.1868, 6415.321
884.6689, 6450.835
885.1511, 6479.837
885.6332, 6490.982
886.1153, 6475.798
886.5974, 6447.984
887.0795, 6427.185
887.5616, 6413.945
888.0438, 6409.840
888.5259, 6424.516
889.0080, 6438.311
889.4901, 6441.792
889.9722, 6438.674
890.4543, 6436.572
890.9365, 6438.071
891.4186, 6433.358
891.9007, 6418.075
892.3828, 6401.654
892.8649, 6400.831
893.3470, 6411.700
893.8292, 6419.609
894.3113, 6418.598
894.7934, 6420.715
895.2755, 6439.877
895.7576, 6464.302
896.2397, 6480.773
896.7219, 6487.933
897.2040, 6483.615
897.6861, 6462.051
898.1682, 6438.374
898.6503, 6427.292
899.1324, 6428.077
899.6146, 6438.692
900.0967, 6459.782
900.5788, 6480.700
901.0609, 6494.277
901.5430, 6502.779
902.0251, 6507.727
902.5073, 6508.369
902.9894, 6510.562
903.4715, 6519.191
903.9536, 6523.664
904.4357, 6513.031
904.9178, 6488.980
905.4000, 6492.429
905.8821, 6523.608
906.3642, 6547.869
906.8463, 6531.633
907.3284, 6501.994
907.8105, 6484.890
908.2927, 6481.598
908.7748, 6487.797
909.2569, 6515.289
909.7390, 6537.807
910.2211, 6547.039
910.7032, 6544.674
911.1854, 6536.789
911.6675, 6523.168
912.1496, 6512.636
912.6317, 6508.128
913.1138, 6509.954
913.5959, 6517.431
914.0781, 6531.570
914.5602, 6555.105
915.0423, 6614.108
915.5244, 6651.308
916.0065, 6640.756
916.4886, 6607.052
916.9708, 6594.613
917.4529, 6605.346
917.9350, 6616.829
918.4171, 6624.150
918.8992, 6631.764
919.3813, 6651.035
919.8635, 6673.056
920.3456, 6682.098
920.8277, 6669.700
921.3098, 6653.158
921.7919, 6621.076
922.2740, 6598.878
922.7562, 6614.921
923.2383, 6681.546
923.7204, 6714.887
924.2025, 6707.137
924.6846, 6695.356
925.1667, 6723.455
925.6489, 6767.724
926.1310, 6788.522
926.6131, 6780.846
927.0952, 6769.966
927.5773, 6746.784
928.0594, 6742.577
928.5416, 6780.282
929.0237, 6859.720
929.5058, 6911.827
929.9879, 6934.190
930.4700, 6948.468
930.9521, 6964.360
931.4343, 6981.552
931.9164, 7001.092
932.3985, 7021.845
932.8806, 7040.172
933.3627, 7054.749
933.8448, 7065.851
934.3270, 7064.516
934.8091, 7061.513
935.2912, 7088.288
935.7733, 7151.196
936.2554, 7202.247
936.7375, 7225.318
937.2197, 7240.674
937.7018, 7280.683
938.1839, 7335.904
938.6660, 7386.199
939.1481, 7422.331
939.6302, 7459.983
940.1124, 7509.442
940.5945, 7559.857
941.0766, 7598.762
941.5587, 7622.787
942.0408, 7656.329
942.5229, 7701.581
943.0051, 7749.764
943.4872, 7793.810
943.9693, 7834.784
944.4514, 7870.923
944.9335, 7901.131
945.4156, 7944.654
945.8978, 8004.295
946.3799, 8084.612
946.8620, 8193.439
947.3441, 8329.173
947.8262, 8438.499
948.3083, 8518.996
948.7905, 8609.305
949.2726, 8729.259
949.7547, 8873.759
950.2368, 9044.334
950.7189, 9235.659
951.2010, 9430.318
951.6832, 9626.384
952.1653, 9818.671
952.6474, 9997.007
953.1295, 10176.16
953.6116, 10392.58
954.0938, 10649.10
954.5759, 10883.72
955.0580, 11074.76
955.5401, 11262.01
956.0222, 11508.84
956.5043, 11776.88
956.9865, 12010.92
957.4686, 12185.22
957.9507, 12340.67
958.4328, 12501.76
958.9149, 12628.63
959.3970, 12689.48
959.8792, 12683.77
960.3613, 12640.02
960.8434, 12559.57
961.3255, 12416.34
961.8076, 12168.49
962.2897, 11860.92
962.7719, 11524.89
963.2540, 11164.36
963.7361, 10799.57
964.2182, 10417.58
964.7003, 10057.97
965.1824, 9741.174
965.6646, 9459.483
966.1467, 9189.444
966.6288, 8936.152
967.1109, 8723.797
967.5930, 8577.914
968.0751, 8456.865
968.5573, 8326.976
969.0394, 8197.871
969.5215, 8085.396
970.0036, 7999.792
970.4857, 7918.452
970.9678, 7839.525
971.4500, 7766.488
971.9321, 7703.794
972.4142, 7651.624
972.8963, 7611.315
973.3784, 7583.392
973.8605, 7564.049
974.3427, 7560.753
974.8248, 7557.912
975.3069, 7537.795
975.7890, 7495.434
976.2711, 7482.350
976.7532, 7507.998
977.2354, 7533.110
977.7175, 7529.739
978.1996, 7513.673
978.6817, 7527.119
979.1638, 7564.847
979.6459, 7605.989
980.1281, 7629.418
980.6102, 7666.051
981.0923, 7738.962
981.5744, 7831.193
982.0565, 7907.630
982.5386, 7961.077
983.0208, 8034.239
983.5029, 8134.394
983.9850, 8258.031
984.4671, 8400.010
984.9492, 8564.160
985.4313, 8760.239
985.9135, 8997.166
986.3956, 9238.903
986.8777, 9454.048
987.3598, 9691.258
987.8419, 9986.294
988.3240, 10339.41
988.8062, 10682.27
989.2883, 11014.61
989.7704, 11362.59
990.2525, 11765.18
990.7346, 12177.54
991.2167, 12537.26
991.6989, 12860.30
992.1810, 13213.51
992.6631, 13629.30
993.1452, 14053.93
993.6273, 14484.96
994.1094, 14905.77
994.5916, 15304.19
995.0737, 15664.00
995.5558, 15929.71
996.0379, 16098.40
996.5200, 16122.39
997.0021, 15949.58
997.4843, 15622.01
997.9664, 15171.95
998.4485, 14595.10
998.9306, 13939.06
999.4127, 13189.66
999.8948, 12424.26
1000.377, 11663.22
1000.859, 10944.37
1001.341, 10341.18
1001.823, 9852.915
1002.305, 9443.882
1002.788, 9122.934
1003.270, 8845.687
1003.752, 8597.054
1004.234, 8374.505
1004.716, 8164.926
1005.198, 7967.741
1005.680, 7810.473
1006.162, 7709.409
1006.644, 7634.567
1007.127, 7556.301
1007.609, 7479.788
1008.091, 7414.907
1008.573, 7370.206
1009.055, 7320.859
1009.537, 7256.598
1010.019, 7197.204
1010.501, 7159.062
1010.984, 7140.183
1011.466, 7118.508
1011.948, 7094.211
1012.430, 7071.131
1012.912, 7051.416
1013.394, 7034.183
1013.876, 7015.503
1014.358, 6998.414
1014.841, 6996.242
1015.323, 7015.997
1015.805, 7032.654
1016.287, 7042.924
1016.769, 7043.404
1017.251, 7020.626
1017.733, 6985.201
1018.215, 6960.193
1018.697, 6953.572
1019.180, 6951.498
1019.662, 6957.854
1020.144, 6958.480
1020.626, 6939.265
1021.108, 6897.999
1021.590, 6882.208
1022.072, 6893.050
1022.554, 6901.589
1023.036, 6875.305
1023.519, 6846.305
1024.001, 6859.785
1024.483, 6902.226
1024.965, 6919.455
1025.447, 6881.287
1025.929, 6846.329
1026.411, 6820.490
1026.893, 6806.102
1027.375, 6815.438
1027.858, 6840.875
1028.340, 6851.560
1028.822, 6839.253
1029.304, 6823.398
1029.786, 6816.323
1030.268, 6810.566
1030.750, 6796.711
1031.232, 6772.578
1031.715, 6770.692
1032.197, 6794.227
1032.679, 6819.497
1033.161, 6830.740
1033.643, 6836.542
1034.125, 6854.857
1034.607, 6879.073
1035.089, 6890.123
1035.572, 6870.948
1036.054, 6851.650
1036.536, 6835.633
1037.018, 6823.459
1037.500, 6817.243
1037.982, 6816.256
1038.464, 6814.919
1038.946, 6812.287
1039.428, 6811.868
1039.911, 6819.617
1040.393, 6828.130
1040.875, 6830.369
1041.357, 6825.879
1041.839, 6824.846
1042.321, 6827.036
1042.803, 6834.356
1043.285, 6851.551
1043.767, 6869.683
1044.250, 6870.147
1044.732, 6858.839
1045.214, 6848.804
1045.696, 6849.792
1046.178, 6844.741
1046.660, 6821.181
1047.142, 6799.949
1047.624, 6805.119
1048.107, 6834.607
1048.589, 6856.025
1049.071, 6867.551
1049.553, 6871.587
1050.035, 6869.004
1050.517, 6860.412
1050.999, 6840.271
1051.481, 6811.937
1051.964, 6800.462
1052.446, 6808.172
1052.928, 6827.574
1053.410, 6861.618
1053.892, 6896.305
1054.374, 6909.386
1054.856, 6905.164
1055.338, 6888.638
1055.820, 6852.270
1056.302, 6828.980
1056.785, 6835.971
1057.267, 6849.980
1057.749, 6857.473
1058.231, 6858.917
1058.713, 6862.666
1059.195, 6868.456
1059.677, 6872.881
1060.159, 6874.312
1060.642, 6873.192
1061.124, 6865.102
1061.606, 6855.359
1062.088, 6859.033
1062.570, 6883.553
1063.052, 6895.256
1063.534, 6886.609
1064.016, 6875.121
1064.499, 6887.840
1064.981, 6909.197
1065.463, 6911.035
1065.945, 6888.237
1066.427, 6871.087
1066.909, 6869.137
1067.391, 6873.733
1067.873, 6885.603
1068.355, 6900.282
1068.838, 6897.734
1069.320, 6881.246
1069.802, 6868.590
1070.284, 6867.599
1070.766, 6870.738
1071.248, 6875.510
1071.730, 6880.728
1072.212, 6884.497
1072.694, 6885.104
1073.177, 6893.150
1073.659, 6910.446
1074.141, 6923.067
1074.623, 6919.340
1075.105, 6905.213
1075.587, 6881.235
1076.069, 6851.578
1076.551, 6836.166
1077.034, 6845.327
1077.516, 6859.412
1077.998, 6876.564
1078.480, 6895.432
1078.962, 6918.344
1079.444, 6941.162
1079.926, 6947.507
1080.408, 6931.777
1080.891, 6918.531
1081.373, 6925.460
1081.855, 6934.255
1082.337, 6933.047
1082.819, 6923.071
1083.301, 6917.752
1083.783, 6917.089
1084.265, 6921.485
1084.747, 6935.601
1085.229, 6948.603
1085.712, 6944.687
1086.194, 6934.982
1086.676, 6938.819
1087.158, 6974.409
1087.640, 6983.158
1088.122, 6956.702
1088.604, 6928.894
1089.086, 6936.859
1089.569, 6960.542
1090.051, 6960.571
1090.533, 6939.472
1091.015, 6923.205
1091.497, 6922.483
1091.979, 6927.814
1092.461, 6941.313
1092.943, 6955.007
1093.426, 6949.499
1093.908, 6929.517
1094.390, 6920.398
1094.872, 6928.450
1095.354, 6936.935
1095.836, 6929.188
1096.318, 6923.186
1096.800, 6934.074
1097.282, 6960.335
1097.765, 6979.462
1098.247, 6991.440
1098.729, 6996.238
1099.211, 6992.215
1099.693, 6983.354
1100.175, 6968.891
1100.657, 6954.084
1101.139, 6947.790
1101.622, 6956.985
1102.104, 6963.136
1102.586, 6965.424
1103.068, 6966.803
1103.550, 6972.725
1104.032, 6978.143
1104.514, 6970.796
1104.996, 6952.728
1105.479, 6935.373
1105.961, 6910.150
1106.443, 6905.385
1106.925, 6935.618
1107.407, 6977.649
1107.889, 6993.205
1108.371, 6986.755
1108.853, 6977.708
1109.335, 6968.009
1109.818, 6966.475
1110.300, 6986.361
1110.782, 7009.051
1111.264, 7026.444
1111.746, 7037.121
1112.228, 7026.748
1112.710, 6994.472
1113.192, 6971.757
1113.674, 6970.662
1114.157, 6980.042
1114.639, 6999.723
1115.121, 7018.047
1115.603, 7018.713
1116.085, 6992.799
1116.567, 6975.990
1117.049, 6968.841
1117.531, 6968.583
1118.014, 6973.634
1118.496, 6984.323
1118.978, 7011.861
1119.460, 7045.067
1119.942, 7055.461
1120.424, 7010.921
1120.906, 6974.281
1121.388, 6948.714
1121.870, 6936.406
1122.353, 6946.026
1122.835, 6970.171
1123.317, 6982.597
1123.799, 6983.373
1124.281, 6994.802
1124.763, 7051.292
1125.245, 7092.420
1125.727, 7091.530
1126.209, 7065.564
1126.692, 7049.094
1127.174, 7041.951
1127.656, 7045.487
1128.138, 7062.345
1128.620, 7074.371
1129.102, 7062.798
1129.584, 7045.877
1130.066, 7038.808
1130.549, 7040.789
1131.031, 7032.819
1131.513, 7013.150
1131.995, 7012.492
1132.477, 7053.119
1132.959, 7099.582
1133.441, 7120.547
1133.923, 7121.746
1134.406, 7108.227
1134.888, 7072.292
1135.370, 7049.738
1135.852, 7042.628
1136.334, 7041.300
1136.816, 7040.231
1137.298, 7040.113
1137.780, 7041.715
1138.262, 7045.208
1138.745, 7050.991
1139.227, 7065.744
1139.709, 7071.639
1140.191, 7062.970
1140.673, 7054.038
1141.155, 7063.355
1141.637, 7084.234
1142.119, 7101.305
1142.601, 7113.553
1143.084, 7121.065
1143.566, 7124.855
1144.048, 7121.792
1144.530, 7106.483
1145.012, 7088.827
1145.494, 7094.888
1145.976, 7117.106
1146.458, 7116.286
1146.941, 7082.129
1147.423, 7053.047
1147.905, 7055.628
1148.387, 7065.452
1148.869, 7066.595
1149.351, 7062.269
1149.833, 7073.605
1150.315, 7099.173
1150.797, 7116.700
1151.280, 7115.416
1151.762, 7113.275
1152.244, 7124.556
1152.726, 7141.310
1153.208, 7159.592
1153.690, 7181.623
1154.172, 7169.368
1154.654, 7120.610
1155.136, 7085.097
1155.619, 7103.088
1156.101, 7133.893
1156.583, 7134.793
1157.065, 7122.048
1157.547, 7128.399
1158.029, 7172.189
1158.511, 7180.411
1158.993, 7144.564
1159.476, 7109.716
1159.958, 7120.622
1160.440, 7148.970
1160.922, 7160.823
1161.404, 7158.188
1161.886, 7153.797
1162.368, 7148.608
1162.850, 7143.836
1163.333, 7138.759
1163.815, 7136.586
1164.297, 7144.015
1164.779, 7155.555
1165.261, 7160.742
1165.743, 7159.246
1166.225, 7161.066
1166.707, 7173.715
1167.189, 7180.058
1167.672, 7171.659
1168.154, 7162.001
1168.636, 7183.259
1169.118, 7220.387
1169.600, 7238.453
1170.082, 7228.876
1170.564, 7217.586
1171.046, 7216.435
1171.528, 7209.206
1172.011, 7182.168
1172.493, 7150.296
1172.975, 7167.999
1173.457, 7219.011
1173.939, 7248.666
1174.421, 7231.013
1174.903, 7213.773
1175.385, 7218.601
1175.868, 7226.896
1176.350, 7227.229
1176.832, 7221.552
1177.314, 7222.104
1177.796, 7228.179
1178.278, 7236.306
1178.760, 7253.244
1179.242, 7260.245
1179.724, 7237.965
1180.207, 7210.358
1180.689, 7199.174
1181.171, 7204.124
1181.653, 7211.402
1182.135, 7220.520
1182.617, 7226.757
1183.099, 7222.139
1183.581, 7219.467
1184.063, 7230.856
1184.546, 7245.582
1185.028, 7247.431
1185.510, 7236.026
1185.992, 7221.366
1186.474, 7203.970
1186.956, 7196.613
1187.438, 7219.298
1187.920, 7244.601
1188.403, 7257.522
1188.885, 7257.745
1189.367, 7241.901
1189.849, 7208.283
1190.331, 7185.739
1190.813, 7178.438
1191.295, 7184.854
1191.777, 7224.598
1192.260, 7259.889
1192.742, 7247.892
1193.224, 7200.230
1193.706, 7192.229
1194.188, 7228.030
1194.670, 7264.690
1195.152, 7294.292
1195.634, 7313.902
1196.116, 7318.946
1196.599, 7313.804
1197.081, 7295.925
1197.563, 7266.419
1198.045, 7266.248
1198.527, 7299.683
1199.009, 7321.529
1199.491, 7312.529
1199.973, 7293.155
1200.455, 7281.995
1200.938, 7274.602
1201.420, 7264.298
1201.902, 7249.255
1202.384, 7247.242
1202.866, 7260.742
1203.348, 7266.872
1203.830, 7244.226
1204.312, 7224.012
1204.795, 7256.250
1205.277, 7307.541
1205.759, 7324.854
1206.241, 7290.305
1206.723, 7274.116
1207.205, 7277.756
1207.687, 7289.162
1208.169, 7305.854
1208.651, 7321.804
1209.134, 7334.010
1209.616, 7339.645
1210.098, 7331.234
1210.580, 7303.572
1211.062, 7273.842
1211.544, 7238.853
1212.026, 7221.688
1212.508, 7259.755
1212.990, 7309.393
1213.473, 7318.774
1213.955, 7300.535
1214.437, 7292.537
1214.919, 7304.151
1215.401, 7303.112
1215.883, 7284.406
1216.365, 7267.870
1216.847, 7272.306
1217.330, 7287.120
1217.812, 7306.543
1218.294, 7326.618
1218.776, 7331.410
1219.258, 7313.206
1219.740, 7308.388
1220.222, 7324.429
1220.704, 7339.452
1221.187, 7325.158
1221.669, 7302.597
1222.151, 7289.905
1222.633, 7289.885
1223.115, 7311.610
1223.597, 7367.586
1224.079, 7385.921
1224.561, 7346.275
1225.043, 7298.712
1225.526, 7298.243
1226.008, 7318.533
1226.490, 7335.511
1226.972, 7346.362
1227.454, 7350.851
1227.936, 7348.453
1228.418, 7341.725
1228.900, 7329.580
1229.382, 7319.842
1229.865, 7323.875
1230.347, 7333.152
1230.829, 7340.307
1231.311, 7344.367
1231.793, 7336.581
1232.275, 7312.814
##END=



