##NAMES=Hureaulite
##RRUFFID=R070452
##IDEAL CHEMISTRY=Mn^2+^_5_(P^5+^O_4_)_2_(P^5+^O_3_OH)_2_&#183;4H_2_O
##LOCALITY=Tip Top mine, Fourmile, Custer District, Custer County, South Dakota, USA
##OWNER=RRUFF
##SOURCE=Michael Scott
##DESCRIPTION=Massive coarse pink granular
##STATUS=The identification of this mineral has been confirmed by X-ray diffraction and chemical analysis
##URL=rruff.info/R070452
##MEASURED CHEMISTRY=(Mn^2+^_3.83_Fe^2+^_0.62_Mg_0.33_Ca_0.22_)_Σ=5_(P_1.00_O_4_)_2_(P_1.00_O_3_OH)_2_·4H_2_O; H_2_O estimated by difference; OH by charge balance
132.0062, 1322.672
132.4883, 1356.538
132.9705, 1386.732
133.4526, 1419.373
133.9347, 1463.535
134.4168, 1503.748
134.8989, 1526.464
135.3810, 1530.297
135.8632, 1526.367
136.3453, 1531.456
136.8274, 1552.405
137.3095, 1570.314
137.7916, 1581.115
138.2737, 1591.358
138.7559, 1607.702
139.2380, 1631.677
139.7201, 1658.471
140.2022, 1679.683
140.6843, 1690.408
141.1664, 1703.513
141.6486, 1715.745
142.1307, 1731.855
142.6128, 1756.995
143.0949, 1792.877
143.5770, 1837.350
144.0591, 1887.722
144.5413, 1946.031
145.0234, 2005.523
145.5055, 2068.501
145.9876, 2131.331
146.4697, 2188.447
146.9518, 2237.867
147.4340, 2282.430
147.9161, 2328.145
148.3982, 2377.378
148.8803, 2421.978
149.3624, 2462.011
149.8445, 2496.130
150.3267, 2520.279
150.8088, 2531.331
151.2909, 2535.586
151.7730, 2545.964
152.2551, 2565.205
152.7372, 2580.556
153.2194, 2586.492
153.7015, 2584.746
154.1836, 2578.137
154.6657, 2564.339
155.1478, 2550.953
155.6299, 2550.737
156.1121, 2565.545
156.5942, 2583.462
157.0763, 2600.678
157.5584, 2616.597
158.0405, 2627.402
158.5226, 2625.997
159.0048, 2625.737
159.4869, 2645.930
159.9690, 2690.340
160.4511, 2736.291
160.9332, 2764.251
161.4153, 2772.042
161.8975, 2776.422
162.3796, 2801.215
162.8617, 2834.562
163.3438, 2866.794
163.8259, 2899.401
164.3080, 2919.820
164.7902, 2911.259
165.2723, 2876.729
165.7544, 2852.535
166.2365, 2855.349
166.7186, 2865.874
167.2007, 2865.907
167.6829, 2853.893
168.1650, 2841.178
168.6471, 2843.280
169.1292, 2860.111
169.6113, 2857.991
170.0934, 2813.494
170.5756, 2760.514
171.0577, 2723.969
171.5398, 2706.329
172.0219, 2695.052
172.5040, 2679.638
172.9861, 2659.889
173.4683, 2639.476
173.9504, 2616.224
174.4325, 2594.378
174.9146, 2575.052
175.3967, 2558.448
175.8788, 2548.105
176.3610, 2553.914
176.8431, 2579.126
177.3252, 2585.896
177.8073, 2547.732
178.2894, 2503.612
178.7715, 2472.746
179.2537, 2457.507
179.7358, 2452.470
180.2179, 2457.393
180.7000, 2475.455
181.1821, 2479.425
181.6642, 2450.161
182.1464, 2417.086
182.6285, 2392.513
183.1106, 2378.235
183.5927, 2371.431
184.0748, 2369.719
184.5569, 2373.152
185.0391, 2380.990
185.5212, 2394.279
186.0033, 2411.516
186.4854, 2436.488
186.9675, 2467.246
187.4496, 2494.083
187.9318, 2504.571
188.4139, 2494.778
188.8960, 2492.565
189.3781, 2505.219
189.8602, 2520.628
190.3423, 2534.242
190.8245, 2545.810
191.3066, 2557.503
191.7887, 2571.272
192.2708, 2587.237
192.7529, 2604.195
193.2350, 2630.905
193.7172, 2651.043
194.1993, 2652.607
194.6814, 2639.923
195.1635, 2628.785
195.6456, 2636.281
196.1277, 2665.419
196.6099, 2681.249
197.0920, 2667.369
197.5741, 2654.228
198.0562, 2654.356
198.5383, 2664.586
199.0204, 2672.751
199.5026, 2664.693
199.9847, 2638.994
200.4668, 2638.686
200.9489, 2690.447
201.4310, 2745.134
201.9131, 2793.719
202.3953, 2834.522
202.8774, 2865.682
203.3595, 2882.398
203.8416, 2885.779
204.3237, 2908.169
204.8058, 2968.792
205.2880, 3030.602
205.7701, 3082.565
206.2522, 3128.892
206.7343, 3179.878
207.2164, 3243.903
207.6985, 3318.301
208.1807, 3379.003
208.6628, 3407.842
209.1449, 3442.635
209.6270, 3494.734
210.1091, 3557.395
210.5912, 3619.410
211.0734, 3673.726
211.5555, 3722.840
212.0376, 3779.701
212.5197, 3840.615
213.0018, 3916.022
213.4839, 4006.812
213.9661, 4112.276
214.4482, 4240.279
214.9303, 4397.720
215.4124, 4563.032
215.8945, 4658.209
216.3766, 4621.209
216.8587, 4603.584
217.3409, 4637.624
217.8230, 4695.563
218.3051, 4751.726
218.7872, 4795.595
219.2693, 4827.582
219.7514, 4848.074
220.2336, 4854.192
220.7157, 4852.757
221.1978, 4845.797
221.6799, 4832.477
222.1620, 4813.757
222.6441, 4789.507
223.1263, 4756.041
223.6084, 4704.500
224.0905, 4621.777
224.5726, 4550.065
225.0547, 4498.050
225.5368, 4451.978
226.0190, 4400.160
226.5011, 4341.435
226.9832, 4285.613
227.4653, 4247.260
227.9474, 4231.614
228.4296, 4217.843
228.9117, 4209.469
229.3938, 4199.510
229.8759, 4182.296
230.3580, 4158.530
230.8401, 4134.775
231.3223, 4119.227
231.8044, 4114.547
232.2865, 4103.612
232.7686, 4078.945
233.2507, 4054.320
233.7328, 4035.867
234.2150, 4022.446
234.6971, 4008.742
235.1792, 3989.724
235.6613, 3965.234
236.1434, 3942.998
236.6255, 3929.644
237.1077, 3911.178
237.5898, 3883.173
238.0719, 3846.734
238.5540, 3803.075
239.0361, 3749.900
239.5182, 3690.723
240.0004, 3650.013
240.4825, 3648.930
240.9646, 3637.580
241.4467, 3596.319
241.9288, 3537.953
242.4109, 3479.976
242.8931, 3430.410
243.3752, 3388.446
243.8573, 3352.578
244.3394, 3325.670
244.8215, 3299.604
245.3036, 3270.343
245.7858, 3241.476
246.2679, 3216.184
246.7500, 3195.262
247.2321, 3179.726
247.7142, 3174.025
248.1963, 3183.639
248.6785, 3185.309
249.1606, 3162.245
249.6427, 3136.300
250.1248, 3124.436
250.6069, 3130.616
251.0890, 3142.515
251.5712, 3144.791
252.0533, 3135.668
252.5354, 3132.631
253.0175, 3149.392
253.4996, 3164.512
253.9817, 3158.530
254.4639, 3132.660
254.9460, 3112.673
255.4281, 3123.472
255.9102, 3163.010
256.3923, 3200.437
256.8745, 3237.550
257.3566, 3265.848
257.8387, 3278.778
258.3208, 3279.068
258.8029, 3276.427
259.2850, 3272.695
259.7672, 3270.115
260.2493, 3278.798
260.7314, 3306.208
261.2135, 3329.436
261.6956, 3328.829
262.1777, 3314.806
262.6599, 3307.096
263.1420, 3316.424
263.6241, 3334.189
264.1062, 3350.680
264.5883, 3368.241
265.0704, 3372.424
265.5526, 3345.852
266.0347, 3303.705
266.5168, 3267.000
266.9989, 3241.627
267.4810, 3219.477
267.9631, 3196.227
268.4453, 3171.509
268.9274, 3136.697
269.4095, 3082.948
269.8916, 3020.554
270.3737, 2967.674
270.8558, 2928.549
271.3380, 2885.238
271.8201, 2820.994
272.3022, 2742.879
272.7843, 2675.424
273.2664, 2627.621
273.7485, 2587.654
274.2307, 2536.917
274.7128, 2474.382
275.1949, 2419.429
275.6770, 2383.821
276.1591, 2357.479
276.6412, 2325.384
277.1234, 2284.445
277.6055, 2241.783
278.0876, 2202.136
278.5697, 2165.795
279.0518, 2140.438
279.5339, 2138.695
280.0161, 2139.739
280.4982, 2122.950
280.9803, 2089.337
281.4624, 2058.313
281.9445, 2044.984
282.4266, 2047.257
282.9088, 2041.171
283.3909, 2018.292
283.8730, 1996.645
284.3551, 1984.777
284.8372, 1980.179
285.3193, 1976.018
285.8015, 1968.650
286.2836, 1960.068
286.7657, 1956.969
287.2478, 1962.971
287.7299, 1969.254
288.2120, 1978.615
288.6942, 1986.140
289.1763, 1983.118
289.6584, 1967.234
290.1405, 1948.319
290.6226, 1941.505
291.1047, 1949.366
291.5869, 1966.237
292.0690, 2004.844
292.5511, 2042.252
293.0332, 2060.690
293.5153, 2060.145
293.9974, 2054.091
294.4796, 2055.379
294.9617, 2064.445
295.4438, 2077.369
295.9259, 2099.129
296.4080, 2119.520
296.8901, 2135.297
297.3723, 2146.876
297.8544, 2155.700
298.3365, 2162.768
298.8186, 2167.846
299.3007, 2169.539
299.7828, 2165.519
300.2650, 2161.077
300.7471, 2152.866
301.2292, 2146.542
301.7113, 2149.073
302.1934, 2163.158
302.6755, 2183.718
303.1577, 2205.024
303.6398, 2232.438
304.1219, 2243.386
304.6040, 2219.803
305.0861, 2189.622
305.5682, 2168.741
306.0504, 2159.289
306.5325, 2154.505
307.0146, 2152.730
307.4967, 2153.584
307.9788, 2139.274
308.4609, 2096.573
308.9431, 2053.947
309.4252, 2030.108
309.9073, 2019.610
310.3894, 2007.004
310.8715, 1980.885
311.3536, 1948.319
311.8358, 1925.757
312.3179, 1915.111
312.8000, 1907.112
313.2821, 1899.194
313.7642, 1890.054
314.2463, 1877.031
314.7285, 1857.134
315.2106, 1837.158
315.6927, 1824.423
316.1748, 1817.984
316.6569, 1809.822
317.1390, 1796.985
317.6212, 1781.095
318.1033, 1762.013
318.5854, 1736.211
319.0675, 1722.918
319.5496, 1742.567
320.0317, 1776.088
320.5139, 1789.993
320.9960, 1776.432
321.4781, 1753.159
321.9602, 1738.689
322.4423, 1734.205
322.9244, 1726.607
323.4066, 1710.113
323.8887, 1694.460
324.3708, 1688.218
324.8529, 1690.002
325.3350, 1691.702
325.8171, 1687.773
326.2993, 1679.006
326.7814, 1671.633
327.2635, 1667.803
327.7456, 1662.625
328.2277, 1653.822
328.7098, 1643.368
329.1920, 1633.731
329.6741, 1625.891
330.1562, 1619.813
330.6383, 1615.248
331.1204, 1610.480
331.6025, 1610.838
332.0847, 1621.931
332.5668, 1633.225
333.0489, 1638.046
333.5310, 1635.790
334.0131, 1629.664
334.4952, 1622.225
334.9774, 1613.394
335.4595, 1605.484
335.9416, 1596.203
336.4237, 1590.637
336.9058, 1592.724
337.3879, 1599.112
337.8701, 1603.536
338.3522, 1601.746
338.8343, 1598.304
339.3164, 1606.809
339.7985, 1634.918
340.2806, 1652.243
340.7627, 1639.351
341.2448, 1617.792
341.7270, 1604.154
342.2091, 1601.603
342.6912, 1602.928
343.1733, 1601.394
343.6554, 1597.706
344.1375, 1597.950
344.6197, 1605.227
345.1018, 1613.269
345.5839, 1616.478
346.0660, 1615.677
346.5481, 1614.478
347.0302, 1615.123
347.5124, 1615.573
347.9945, 1611.929
348.4766, 1604.020
348.9587, 1598.200
349.4408, 1600.107
349.9229, 1606.733
350.4051, 1606.505
350.8872, 1591.427
351.3693, 1579.905
351.8514, 1583.320
352.3335, 1595.470
352.8156, 1603.569
353.2978, 1602.899
353.7799, 1598.704
354.2620, 1599.731
354.7441, 1610.535
355.2262, 1616.171
355.7083, 1612.760
356.1905, 1606.974
356.6726, 1602.420
357.1547, 1599.993
357.6368, 1600.883
358.1189, 1607.205
358.6010, 1618.662
359.0832, 1620.811
359.5653, 1595.775
360.0474, 1581.117
360.5295, 1590.260
361.0116, 1612.474
361.4937, 1634.741
361.9759, 1651.636
362.4580, 1663.137
362.9401, 1667.344
363.4222, 1659.376
363.9043, 1658.652
364.3864, 1675.592
364.8686, 1694.142
365.3507, 1704.211
365.8328, 1706.053
366.3149, 1708.023
366.7970, 1717.246
367.2791, 1732.280
367.7613, 1745.784
368.2434, 1756.720
368.7255, 1768.228
369.2076, 1783.226
369.6897, 1799.810
370.1718, 1814.604
370.6540, 1824.217
371.1361, 1835.385
371.6182, 1861.597
372.1003, 1898.916
372.5824, 1915.934
373.0645, 1891.716
373.5467, 1855.885
374.0288, 1861.316
374.5109, 1913.734
374.9930, 1961.624
375.4751, 1993.026
375.9572, 2012.907
376.4394, 2023.948
376.9215, 2027.404
377.4036, 2030.212
377.8857, 2038.418
378.3678, 2052.043
378.8499, 2063.282
379.3321, 2072.280
379.8142, 2079.176
380.2963, 2082.818
380.7784, 2084.644
381.2605, 2087.354
381.7426, 2092.096
382.2248, 2096.562
382.7069, 2095.517
383.1890, 2084.687
383.6711, 2077.304
384.1532, 2081.649
384.6353, 2082.606
385.1175, 2064.272
385.5996, 2031.747
386.0817, 2007.522
386.5638, 2014.289
387.0459, 2045.937
387.5280, 2061.167
388.0102, 2050.631
388.4923, 2041.060
388.9744, 2042.454
389.4565, 2050.967
389.9386, 2063.157
390.4207, 2079.194
390.9029, 2094.997
391.3850, 2104.149
391.8671, 2108.058
392.3492, 2117.967
392.8313, 2137.791
393.3134, 2162.368
393.7956, 2185.258
394.2777, 2206.705
394.7598, 2232.051
395.2419, 2264.317
395.7240, 2299.956
396.2061, 2335.487
396.6883, 2370.869
397.1704, 2408.936
397.6525, 2452.046
398.1346, 2498.700
398.6167, 2542.452
399.0988, 2572.454
399.5810, 2613.652
400.0631, 2677.448
400.5452, 2750.971
401.0273, 2819.144
401.5094, 2878.920
401.9915, 2939.059
402.4737, 3011.487
402.9558, 3097.650
403.4379, 3186.247
403.9200, 3277.654
404.4021, 3370.560
404.8842, 3466.081
405.3664, 3563.130
405.8485, 3659.692
406.3306, 3753.663
406.8127, 3849.217
407.2948, 3954.929
407.7769, 4073.339
408.2591, 4192.665
408.7412, 4308.892
409.2233, 4425.857
409.7054, 4550.259
410.1875, 4682.451
410.6696, 4804.780
411.1518, 4905.471
411.6339, 4990.194
412.1160, 5073.078
412.5981, 5156.171
413.0802, 5226.178
413.5623, 5277.365
414.0445, 5305.247
414.5266, 5303.316
415.0087, 5267.823
415.4908, 5207.484
415.9729, 5120.343
416.4550, 5011.946
416.9372, 4890.078
417.4193, 4756.615
417.9014, 4614.514
418.3835, 4464.812
418.8656, 4301.319
419.3477, 4153.825
419.8299, 4028.798
420.3120, 3911.285
420.7941, 3793.306
421.2762, 3676.860
421.7583, 3565.252
422.2404, 3458.875
422.7226, 3363.571
423.2047, 3297.386
423.6868, 3275.147
424.1689, 3246.246
424.6510, 3183.659
425.1331, 3123.952
425.6153, 3096.477
426.0974, 3101.937
426.5795, 3113.099
427.0616, 3109.723
427.5437, 3096.821
428.0258, 3086.809
428.5080, 3077.692
428.9901, 3081.987
429.4722, 3114.086
429.9543, 3164.501
430.4364, 3208.919
430.9185, 3244.632
431.4007, 3276.398
431.8828, 3299.694
432.3649, 3322.043
432.8470, 3358.737
433.3291, 3413.887
433.8112, 3479.174
434.2934, 3545.062
434.7755, 3611.342
435.2576, 3677.704
435.7397, 3739.953
436.2218, 3806.417
436.7039, 3877.608
437.1861, 3956.070
437.6682, 4048.195
438.1503, 4157.075
438.6324, 4275.880
439.1145, 4388.962
439.5966, 4491.671
440.0788, 4600.950
440.5609, 4727.635
441.0430, 4853.730
441.5251, 4965.319
442.0072, 5065.946
442.4893, 5173.991
442.9715, 5302.326
443.4536, 5445.524
443.9357, 5597.168
444.4178, 5759.649
444.8999, 5915.836
445.3820, 6058.627
445.8642, 6189.471
446.3463, 6310.753
446.8284, 6419.298
447.3105, 6530.761
447.7926, 6651.693
448.2747, 6778.119
448.7569, 6907.697
449.2390, 7038.646
449.7211, 7165.494
450.2032, 7285.727
450.6853, 7398.543
451.1674, 7485.243
451.6496, 7549.611
452.1317, 7585.822
452.6138, 7581.641
453.0959, 7553.393
453.5780, 7519.969
454.0602, 7486.583
454.5423, 7444.382
455.0244, 7382.256
455.5065, 7299.762
455.9886, 7203.216
456.4707, 7096.446
456.9529, 6969.004
457.4350, 6809.465
457.9171, 6629.481
458.3992, 6448.209
458.8813, 6270.819
459.3634, 6096.443
459.8456, 5922.437
460.3277, 5749.343
460.8098, 5579.950
461.2919, 5415.360
461.7740, 5255.555
462.2561, 5102.229
462.7383, 4955.007
463.2204, 4812.704
463.7025, 4672.570
464.1846, 4540.362
464.6667, 4424.271
465.1488, 4318.989
465.6310, 4211.367
466.1131, 4094.397
466.5952, 3975.106
467.0773, 3870.349
467.5594, 3790.167
468.0415, 3704.589
468.5237, 3605.571
469.0058, 3508.423
469.4879, 3422.196
469.9700, 3345.298
470.4521, 3270.501
470.9342, 3193.349
471.4164, 3115.096
471.8985, 3038.631
472.3806, 2963.934
472.8627, 2892.665
473.3448, 2828.032
473.8269, 2765.751
474.3091, 2698.323
474.7912, 2624.590
475.2733, 2560.521
475.7554, 2521.656
476.2375, 2490.307
476.7196, 2443.409
477.2018, 2381.644
477.6839, 2323.485
478.1660, 2280.336
478.6481, 2249.156
479.1302, 2218.050
479.6123, 2184.789
480.0945, 2154.481
480.5766, 2130.649
481.0587, 2107.369
481.5408, 2078.796
482.0229, 2045.153
482.5050, 2011.201
482.9872, 1979.315
483.4693, 1950.613
483.9514, 1933.954
484.4335, 1938.563
484.9156, 1933.559
485.3977, 1891.826
485.8799, 1843.971
486.3620, 1821.608
486.8441, 1830.493
487.3262, 1839.909
487.8083, 1828.476
488.2904, 1806.500
488.7726, 1793.517
489.2547, 1791.440
489.7368, 1789.728
490.2189, 1782.185
490.7010, 1769.052
491.1831, 1750.649
491.6653, 1717.457
492.1474, 1692.224
492.6295, 1684.490
493.1116, 1682.756
493.5937, 1675.372
494.0758, 1661.291
494.5580, 1647.435
495.0401, 1639.736
495.5222, 1638.049
496.0043, 1642.576
496.4864, 1661.286
496.9685, 1671.504
497.4507, 1659.085
497.9328, 1639.578
498.4149, 1628.399
498.8970, 1628.337
499.3791, 1629.921
499.8612, 1626.094
500.3434, 1619.281
500.8255, 1614.561
501.3076, 1612.405
501.7897, 1611.940
502.2718, 1613.015
502.7539, 1615.242
503.2361, 1616.887
503.7182, 1616.903
504.2003, 1617.831
504.6824, 1620.545
505.1645, 1624.121
505.6466, 1628.390
506.1288, 1632.844
506.6109, 1635.738
507.0930, 1635.022
507.5751, 1631.454
508.0572, 1630.994
508.5393, 1634.042
509.0215, 1639.597
509.5036, 1649.505
509.9857, 1660.366
510.4678, 1668.755
510.9499, 1674.265
511.4320, 1680.604
511.9142, 1692.220
512.3963, 1705.768
512.8784, 1713.507
513.3605, 1714.991
513.8427, 1717.326
514.3248, 1724.389
514.8069, 1735.277
515.2890, 1746.838
515.7711, 1755.422
516.2532, 1771.102
516.7354, 1803.436
517.2175, 1837.376
517.6996, 1857.350
518.1817, 1865.605
518.6638, 1877.066
519.1459, 1902.604
519.6281, 1939.078
520.1102, 1976.208
520.5923, 2014.261
521.0744, 2051.778
521.5565, 2087.131
522.0386, 2122.812
522.5208, 2158.200
523.0029, 2194.204
523.4850, 2237.317
523.9671, 2296.497
524.4492, 2361.216
524.9313, 2413.756
525.4135, 2456.388
525.8956, 2508.509
526.3777, 2579.711
526.8598, 2662.740
527.3419, 2745.080
527.8240, 2829.596
528.3062, 2905.728
528.7883, 2967.665
529.2704, 3026.890
529.7525, 3092.417
530.2346, 3160.657
530.7167, 3223.745
531.1989, 3278.162
531.6810, 3324.261
532.1631, 3359.274
532.6452, 3380.776
533.1273, 3413.461
533.6094, 3470.837
534.0916, 3526.916
534.5737, 3560.895
535.0558, 3578.534
535.5379, 3596.787
536.0200, 3621.236
536.5021, 3646.408
536.9843, 3669.012
537.4664, 3689.178
537.9485, 3708.020
538.4306, 3725.723
538.9127, 3739.399
539.3948, 3745.150
539.8770, 3742.288
540.3591, 3739.384
540.8412, 3749.334
541.3233, 3744.049
541.8054, 3713.057
542.2875, 3665.324
542.7697, 3609.718
543.2518, 3549.032
543.7339, 3484.092
544.2160, 3417.453
544.6981, 3347.727
545.1802, 3265.322
545.6624, 3167.035
546.1445, 3068.771
546.6266, 2974.203
547.1087, 2888.293
547.5908, 2824.223
548.0729, 2797.494
548.5551, 2754.975
549.0372, 2671.134
549.5193, 2572.147
550.0014, 2477.991
550.4835, 2392.562
550.9656, 2319.287
551.4478, 2260.132
551.9299, 2213.856
552.4120, 2175.707
552.8941, 2146.009
553.3762, 2123.961
553.8583, 2117.920
554.3405, 2112.872
554.8226, 2096.489
555.3047, 2072.541
555.7868, 2057.139
556.2689, 2058.499
556.7510, 2070.801
557.2332, 2092.161
557.7153, 2119.919
558.1974, 2142.548
558.6795, 2156.120
559.1616, 2166.139
559.6437, 2179.201
560.1259, 2195.644
560.6080, 2213.309
561.0901, 2231.630
561.5722, 2251.862
562.0543, 2277.113
562.5364, 2303.260
563.0186, 2326.323
563.5007, 2344.874
563.9828, 2357.639
564.4649, 2361.630
564.9470, 2357.958
565.4291, 2354.008
565.9113, 2350.156
566.3934, 2344.927
566.8755, 2334.841
567.3576, 2324.250
567.8397, 2320.806
568.3218, 2323.657
568.8040, 2335.935
569.2861, 2366.684
569.7682, 2401.327
570.2503, 2423.625
570.7324, 2436.407
571.2145, 2454.735
571.6967, 2488.046
572.1788, 2530.501
572.6609, 2565.660
573.1430, 2588.083
573.6251, 2621.143
574.1072, 2676.626
574.5894, 2733.991
575.0715, 2781.895
575.5536, 2822.846
576.0357, 2863.852
576.5178, 2906.705
576.9999, 2950.955
577.4821, 3000.521
577.9642, 3050.861
578.4463, 3089.945
578.9284, 3115.290
579.4105, 3132.650
579.8926, 3148.394
580.3748, 3161.969
580.8569, 3159.376
581.3390, 3116.581
581.8211, 3087.168
582.3032, 3097.018
582.7853, 3109.531
583.2675, 3092.783
583.7496, 3044.278
584.2317, 2981.390
584.7138, 2910.181
585.1959, 2836.501
585.6780, 2774.455
586.1602, 2724.079
586.6422, 2675.443
587.1243, 2627.565
587.6064, 2575.798
588.0886, 2509.624
588.5707, 2423.116
589.0528, 2359.088
589.5349, 2331.633
590.0170, 2312.734
590.4991, 2298.762
590.9813, 2281.630
591.4634, 2246.143
591.9455, 2189.093
592.4276, 2131.109
592.9097, 2097.927
593.3918, 2087.974
593.8740, 2079.287
594.3561, 2075.225
594.8382, 2061.886
595.3203, 2026.408
595.8024, 1980.626
596.2845, 1944.675
596.7667, 1919.939
597.2488, 1898.576
597.7309, 1878.934
598.2130, 1861.037
598.6951, 1849.870
599.1772, 1840.632
599.6594, 1817.637
600.1415, 1772.462
600.6236, 1719.969
601.1057, 1689.728
601.5878, 1687.170
602.0699, 1678.411
602.5521, 1658.498
603.0342, 1637.322
603.5163, 1618.613
603.9984, 1602.451
604.4805, 1588.933
604.9626, 1578.560
605.4448, 1569.569
605.9269, 1562.736
606.4090, 1555.777
606.8911, 1543.758
607.3732, 1527.271
607.8553, 1514.361
608.3375, 1511.546
608.8196, 1512.821
609.3017, 1496.832
609.7838, 1444.747
610.2659, 1417.738
610.7480, 1444.911
611.2302, 1474.347
611.7123, 1481.102
612.1944, 1470.277
612.6765, 1456.192
613.1586, 1441.992
613.6407, 1430.201
614.1229, 1425.607
614.6050, 1424.669
615.0871, 1417.363
615.5692, 1402.234
616.0513, 1390.302
616.5334, 1392.074
617.0156, 1403.346
617.4977, 1399.979
617.9798, 1362.752
618.4619, 1340.956
618.9440, 1347.843
619.4261, 1361.503
619.9083, 1369.297
620.3904, 1371.005
620.8725, 1371.307
621.3546, 1373.944
621.8367, 1373.590
622.3188, 1359.056
622.8010, 1335.344
623.2831, 1323.072
623.7652, 1327.263
624.2473, 1336.111
624.7294, 1339.947
625.2115, 1339.018
625.6937, 1336.411
626.1758, 1331.694
626.6579, 1325.795
627.1400, 1311.655
627.6221, 1301.847
628.1042, 1310.703
628.5864, 1334.373
629.0685, 1354.810
629.5506, 1363.057
630.0327, 1361.123
630.5148, 1347.182
630.9969, 1323.961
631.4791, 1308.740
631.9612, 1306.033
632.4433, 1309.410
632.9254, 1313.561
633.4075, 1318.460
633.8896, 1323.405
634.3718, 1327.112
634.8539, 1332.558
635.3360, 1344.280
635.8181, 1354.914
636.3002, 1356.253
636.7823, 1349.673
637.2645, 1344.821
637.7466, 1350.200
638.2287, 1357.371
638.7108, 1349.263
639.1929, 1328.377
639.6750, 1315.820
640.1572, 1317.884
640.6393, 1323.329
641.1214, 1320.646
641.6035, 1310.273
642.0856, 1306.902
642.5677, 1314.533
643.0499, 1323.318
643.5320, 1335.422
644.0141, 1345.382
644.4962, 1346.694
644.9783, 1340.723
645.4604, 1335.479
645.9426, 1336.392
646.4247, 1340.119
646.9068, 1341.804
647.3889, 1341.622
647.8710, 1340.054
648.3531, 1336.646
648.8353, 1335.296
649.3174, 1341.363
649.7995, 1353.786
650.2816, 1356.549
650.7637, 1339.991
651.2458, 1326.964
651.7280, 1320.072
652.2101, 1317.872
652.6922, 1320.938
653.1743, 1327.810
653.6564, 1334.365
654.1385, 1338.710
654.6207, 1340.947
655.1028, 1339.630
655.5849, 1335.932
656.0670, 1335.776
656.5491, 1340.545
657.0313, 1347.656
657.5134, 1356.289
657.9955, 1365.366
658.4776, 1366.341
658.9597, 1348.153
659.4418, 1337.177
659.9240, 1340.188
660.4061, 1346.147
660.8882, 1347.509
661.3703, 1345.123
661.8524, 1343.766
662.3345, 1345.908
662.8167, 1349.200
663.2988, 1351.688
663.7809, 1353.228
664.2630, 1352.630
664.7451, 1349.731
665.2272, 1348.007
665.7094, 1350.045
666.1915, 1355.233
666.6736, 1361.594
667.1557, 1373.848
667.6378, 1378.426
668.1199, 1364.159
668.6021, 1352.876
669.0842, 1358.463
669.5663, 1375.464
670.0484, 1392.298
670.5305, 1406.812
671.0126, 1414.937
671.4948, 1408.941
671.9769, 1396.267
672.4590, 1390.090
672.9411, 1391.265
673.4232, 1393.856
673.9053, 1394.369
674.3875, 1393.918
674.8696, 1395.309
675.3517, 1399.571
675.8338, 1402.706
676.3159, 1405.569
676.7980, 1406.131
677.2802, 1400.904
677.7623, 1393.924
678.2444, 1391.784
678.7265, 1396.337
679.2086, 1402.038
679.6907, 1405.610
680.1729, 1409.360
680.6550, 1416.310
681.1371, 1425.755
681.6192, 1435.923
682.1013, 1446.011
682.5834, 1453.224
683.0656, 1452.175
683.5477, 1442.175
684.0298, 1434.931
684.5119, 1431.846
684.9940, 1428.160
685.4761, 1418.807
685.9583, 1409.791
686.4404, 1409.835
686.9225, 1419.916
687.4046, 1429.603
687.8867, 1434.133
688.3688, 1440.030
688.8510, 1456.395
689.3331, 1475.090
689.8152, 1480.770
690.2973, 1470.637
690.7794, 1458.035
691.2615, 1456.047
691.7437, 1462.169
692.2258, 1466.923
692.7079, 1470.209
693.1900, 1473.476
693.6721, 1476.823
694.1542, 1481.023
694.6364, 1487.455
695.1185, 1496.163
695.6006, 1503.077
696.0827, 1509.421
696.5648, 1512.426
697.0469, 1509.816
697.5291, 1504.745
698.0112, 1495.958
698.4933, 1486.702
698.9754, 1488.260
699.4575, 1511.579
699.9396, 1540.775
700.4218, 1553.986
700.9039, 1554.409
701.3860, 1553.615
701.8681, 1553.589
702.3502, 1554.158
702.8323, 1554.219
703.3145, 1555.724
703.7966, 1567.732
704.2787, 1602.953
704.7608, 1623.890
705.2429, 1613.954
705.7250, 1604.891
706.2072, 1614.764
706.6893, 1635.658
707.1714, 1651.270
707.6535, 1656.430
708.1356, 1660.274
708.6177, 1669.431
709.0999, 1679.590
709.5820, 1683.441
710.0641, 1682.887
710.5462, 1686.375
711.0283, 1697.810
711.5104, 1713.876
711.9926, 1729.349
712.4747, 1744.044
712.9568, 1763.872
713.4389, 1794.597
713.9210, 1815.070
714.4031, 1808.949
714.8853, 1794.137
715.3674, 1796.100
715.8495, 1815.848
716.3316, 1834.152
716.8137, 1852.985
717.2958, 1864.481
717.7780, 1859.289
718.2601, 1847.612
718.7422, 1840.875
719.2243, 1841.800
719.7064, 1848.864
720.1885, 1862.722
720.6707, 1880.026
721.1528, 1897.011
721.6349, 1912.664
722.1170, 1916.070
722.5991, 1903.286
723.0812, 1888.307
723.5634, 1883.139
724.0455, 1886.140
724.5276, 1887.201
725.0097, 1884.963
725.4918, 1883.055
725.9739, 1882.171
726.4561, 1881.190
726.9382, 1880.488
727.4203, 1879.053
727.9024, 1874.934
728.3845, 1867.591
728.8666, 1857.521
729.3488, 1840.372
729.8309, 1823.566
730.3130, 1819.448
730.7951, 1824.973
731.2772, 1826.813
731.7593, 1818.967
732.2415, 1804.933
732.7236, 1788.265
733.2057, 1768.878
733.6878, 1754.824
734.1699, 1747.457
734.6520, 1740.917
735.1342, 1734.604
735.6163, 1726.500
736.0984, 1712.066
736.5805, 1690.726
737.0626, 1675.367
737.5447, 1675.426
738.0269, 1670.959
738.5090, 1646.970
738.9911, 1620.637
739.4732, 1612.997
739.9553, 1622.394
740.4374, 1628.958
740.9196, 1619.869
741.4017, 1604.232
741.8838, 1590.442
742.3659, 1579.855
742.8480, 1579.648
743.3301, 1590.305
743.8123, 1596.819
744.2944, 1587.937
744.7765, 1570.244
745.2586, 1563.491
745.7407, 1575.306
746.2228, 1572.221
746.7050, 1538.536
747.1871, 1510.311
747.6692, 1508.788
748.1513, 1521.130
748.6334, 1531.113
749.1155, 1538.087
749.5977, 1538.705
750.0798, 1527.410
750.5619, 1514.088
751.0440, 1503.351
751.5261, 1495.818
752.0082, 1493.829
752.4904, 1496.779
752.9725, 1496.993
753.4546, 1484.552
753.9367, 1467.491
754.4188, 1466.200
754.9009, 1478.765
755.3831, 1486.931
755.8652, 1486.147
756.3473, 1482.640
756.8294, 1482.468
757.3115, 1483.837
757.7936, 1475.909
758.2758, 1446.830
758.7579, 1431.505
759.2400, 1444.293
759.7221, 1459.526
760.2042, 1465.506
760.6863, 1465.321
761.1685, 1465.470
761.6506, 1467.298
762.1327, 1468.667
762.6148, 1465.221
763.0969, 1463.900
763.5790, 1476.990
764.0612, 1495.693
764.5433, 1498.616
765.0254, 1480.146
765.5075, 1459.240
765.9896, 1456.985
766.4717, 1466.922
766.9539, 1468.050
767.4360, 1460.671
767.9181, 1453.441
768.4002, 1448.353
768.8823, 1446.438
769.3644, 1450.688
769.8466, 1459.181
770.3287, 1454.670
770.8108, 1422.287
771.2929, 1402.943
771.7750, 1411.233
772.2571, 1421.833
772.7393, 1419.020
773.2214, 1408.910
773.7035, 1406.053
774.1856, 1415.381
774.6677, 1424.520
775.1498, 1429.938
775.6320, 1431.155
776.1141, 1425.948
776.5962, 1416.579
777.0783, 1406.295
777.5604, 1396.573
778.0425, 1390.641
778.5247, 1392.840
779.0068, 1400.998
779.4889, 1411.898
779.9710, 1424.847
780.4531, 1424.720
780.9352, 1405.513
781.4174, 1384.716
781.8995, 1379.012
782.3816, 1386.030
782.8637, 1390.850
783.3458, 1395.309
783.8279, 1393.723
784.3101, 1379.164
784.7922, 1365.192
785.2743, 1358.051
785.7564, 1356.486
786.2385, 1358.841
786.7206, 1366.774
787.2028, 1371.048
787.6849, 1365.391
788.1670, 1358.033
788.6491, 1348.127
789.1312, 1343.285
789.6133, 1364.013
790.0955, 1410.723
790.5776, 1444.563
791.0597, 1423.917
791.5418, 1376.356
792.0239, 1351.584
792.5060, 1346.276
792.9882, 1346.240
793.4703, 1348.434
793.9524, 1350.948
794.4345, 1352.182
794.9166, 1352.775
795.3987, 1354.708
795.8809, 1357.832
796.3630, 1363.635
796.8451, 1377.319
797.3272, 1385.006
797.8093, 1374.518
798.2914, 1355.691
798.7736, 1347.706
799.2557, 1354.095
799.7378, 1352.679
800.2199, 1327.064
800.7020, 1308.781
801.1841, 1319.867
801.6663, 1340.646
802.1484, 1348.121
802.6305, 1340.530
803.1126, 1330.545
803.5947, 1323.534
804.0768, 1319.379
804.5590, 1320.800
805.0411, 1323.949
805.5232, 1318.620
806.0053, 1305.998
806.4874, 1300.294
806.9695, 1310.015
807.4517, 1325.609
807.9338, 1329.741
808.4159, 1322.928
808.8980, 1318.903
809.3801, 1318.264
809.8622, 1319.604
810.3444, 1324.848
810.8265, 1326.586
811.3086, 1312.232
811.7907, 1280.648
812.2728, 1266.693
812.7549, 1288.542
813.2371, 1302.161
813.7192, 1295.795
814.2013, 1285.322
814.6834, 1282.268
815.1655, 1283.850
815.6476, 1279.834
816.1298, 1263.878
816.6119, 1253.136
817.0940, 1257.307
817.5761, 1267.389
818.0582, 1279.094
818.5403, 1289.710
819.0225, 1294.752
819.5046, 1293.290
819.9867, 1290.760
820.4688, 1292.713
820.9509, 1296.294
821.4330, 1296.789
821.9152, 1294.323
822.3973, 1287.868
822.8794, 1277.513
823.3615, 1269.361
823.8436, 1268.412
824.3257, 1272.579
824.8079, 1276.846
825.2900, 1281.827
825.7721, 1281.503
826.2542, 1272.661
826.7363, 1266.145
827.2184, 1268.363
827.7006, 1274.964
828.1827, 1278.839
828.6648, 1279.430
829.1469, 1280.143
829.6290, 1282.863
830.1111, 1283.220
830.5933, 1277.221
831.0754, 1270.772
831.5575, 1269.547
832.0396, 1272.587
832.5217, 1274.321
833.0038, 1270.830
833.4860, 1270.235
833.9681, 1282.091
834.4502, 1294.628
834.9323, 1293.318
835.4144, 1283.194
835.8965, 1279.705
836.3787, 1287.829
836.8608, 1294.337
837.3429, 1280.197
837.8250, 1258.473
838.3071, 1259.582
838.7892, 1277.625
839.2714, 1285.969
839.7535, 1278.550
840.2356, 1265.702
840.7177, 1255.025
841.1998, 1247.164
841.6819, 1245.079
842.1641, 1249.607
842.6462, 1251.124
843.1283, 1246.865
843.6104, 1246.552
844.0925, 1256.947
844.5746, 1271.676
845.0568, 1280.461
845.5389, 1282.845
846.0210, 1282.125
846.5031, 1273.154
846.9852, 1267.904
847.4673, 1271.076
847.9495, 1276.526
848.4316, 1279.943
848.9137, 1281.485
849.3958, 1282.834
849.8779, 1285.378
850.3600, 1285.551
850.8422, 1279.632
851.3243, 1273.161
851.8064, 1271.698
852.2885, 1272.358
852.7706, 1267.746
853.2527, 1256.705
853.7349, 1249.276
854.2170, 1257.459
854.6991, 1269.674
855.1812, 1270.291
855.6633, 1264.349
856.1454, 1264.378
856.6276, 1271.178
857.1097, 1273.603
857.5918, 1263.471
858.0739, 1252.074
858.5560, 1264.173
859.0381, 1295.165
859.5203, 1306.945
860.0024, 1296.942
860.4845, 1292.183
860.9666, 1304.295
861.4487, 1320.197
861.9308, 1324.204
862.4130, 1316.980
862.8951, 1306.135
863.3772, 1286.006
863.8593, 1279.909
864.3414, 1300.996
864.8235, 1322.021
865.3057, 1322.848
865.7878, 1311.393
866.2699, 1308.647
866.7520, 1318.393
867.2341, 1325.138
867.7162, 1325.498
868.1984, 1326.231
868.6805, 1332.792
869.1626, 1338.739
869.6447, 1334.972
870.1268, 1323.038
870.6089, 1316.089
871.0911, 1323.274
871.5732, 1328.542
872.0553, 1320.640
872.5374, 1310.357
873.0195, 1306.543
873.5016, 1309.061
873.9838, 1316.252
874.4659, 1327.380
874.9480, 1338.637
875.4301, 1346.859
875.9122, 1353.411
876.3943, 1360.082
876.8765, 1366.498
877.3586, 1372.935
877.8407, 1378.623
878.3228, 1377.713
878.8049, 1364.799
879.2870, 1350.628
879.7692, 1359.678
880.2513, 1385.714
880.7334, 1390.847
881.2155, 1373.412
881.6976, 1361.204
882.1797, 1365.179
882.6619, 1377.832
883.1440, 1392.306
883.6261, 1407.096
884.1082, 1407.682
884.5903, 1388.782
885.0724, 1380.839
885.5546, 1391.454
886.0367, 1406.370
886.5188, 1418.583
887.0009, 1427.574
887.4830, 1431.745
887.9651, 1429.501
888.4473, 1428.511
888.9294, 1424.954
889.4115, 1427.987
889.8936, 1449.972
890.3757, 1470.922
890.8578, 1469.109
891.3400, 1450.311
891.8221, 1443.619
892.3042, 1460.294
892.7863, 1475.574
893.2684, 1487.589
893.7505, 1493.462
894.2327, 1485.939
894.7148, 1473.872
895.1969, 1470.524
895.6790, 1477.817
896.1611, 1486.868
896.6432, 1490.606
897.1254, 1498.028
897.6075, 1519.607
898.0896, 1545.044
898.5717, 1560.487
899.0538, 1568.064
899.5359, 1580.270
900.0181, 1602.788
900.5002, 1621.669
900.9823, 1620.041
901.4644, 1609.517
901.9465, 1603.930
902.4286, 1604.333
902.9108, 1614.873
903.3929, 1634.596
903.8750, 1651.375
904.3571, 1655.924
904.8392, 1655.352
905.3214, 1661.506
905.8035, 1673.394
906.2856, 1687.453
906.7677, 1703.284
907.2498, 1719.292
907.7319, 1735.059
908.2141, 1748.320
908.6962, 1755.254
909.1783, 1758.422
909.6604, 1771.957
910.1425, 1796.992
910.6246, 1817.976
911.1068, 1832.244
911.5889, 1843.874
912.0710, 1853.644
912.5531, 1865.211
913.0352, 1886.292
913.5173, 1918.253
913.9995, 1945.314
914.4816, 1967.348
914.9637, 1983.360
915.4458, 1984.511
915.9279, 1992.115
916.4100, 2028.160
916.8922, 2083.643
917.3743, 2125.479
917.8564, 2139.507
918.3385, 2169.800
918.8206, 2230.517
919.3027, 2289.884
919.7849, 2335.713
920.2670, 2377.366
920.7491, 2424.476
921.2312, 2476.943
921.7133, 2529.328
922.1954, 2579.662
922.6776, 2632.316
923.1597, 2682.294
923.6418, 2740.902
924.1239, 2819.309
924.6060, 2909.294
925.0881, 2997.542
925.5703, 3081.669
926.0524, 3171.376
926.5345, 3262.598
927.0166, 3369.224
927.4987, 3508.934
927.9808, 3658.750
928.4630, 3792.966
928.9451, 3916.682
929.4272, 4048.033
929.9093, 4192.320
930.3914, 4350.010
930.8735, 4522.936
931.3557, 4707.918
931.8378, 4901.471
932.3199, 5105.277
932.8020, 5315.512
933.2841, 5537.257
933.7662, 5793.016
934.2484, 6098.044
934.7305, 6429.294
935.2126, 6750.692
935.6947, 7093.631
936.1768, 7503.274
936.6589, 7980.611
937.1411, 8514.676
937.6232, 9100.163
938.1053, 9731.043
938.5874, 10399.14
939.0695, 11110.58
939.5516, 11879.17
940.0338, 12702.31
940.5159, 13567.97
940.9980, 14481.12
941.4801, 15481.89
941.9622, 16583.96
942.4443, 17734.71
942.9265, 18877.10
943.4086, 20028.72
943.8907, 21276.91
944.3728, 22610.13
944.8549, 23939.25
945.3370, 25256.76
945.8192, 26527.89
946.3013, 27753.76
946.7834, 28881.74
947.2655, 29869.63
947.7476, 30695.71
948.2297, 31217.74
948.7119, 31436.31
949.1940, 31333.52
949.6761, 30903.88
950.1582, 30156.84
950.6403, 29079.91
951.1224, 27742.02
951.6046, 26271.32
952.0867, 24670.74
952.5688, 22972.26
953.0509, 21147.77
953.5330, 19348.33
954.0151, 17597.28
954.4973, 15951.96
954.9794, 14467.77
955.4615, 13127.43
955.9436, 11886.83
956.4257, 10731.87
956.9078, 9733.776
957.3900, 8923.344
957.8721, 8198.297
958.3542, 7526.770
958.8363, 6920.415
959.3184, 6386.996
959.8005, 5926.107
960.2827, 5538.452
960.7648, 5244.547
961.2469, 4975.823
961.7290, 4741.035
962.2111, 4516.392
962.6932, 4281.680
963.1754, 4062.945
963.6575, 3896.538
964.1396, 3778.196
964.6217, 3652.602
965.1038, 3496.791
965.5859, 3372.304
966.0681, 3299.810
966.5502, 3237.797
967.0323, 3172.788
967.5144, 3107.627
967.9965, 3042.876
968.4786, 2978.682
968.9608, 2928.127
969.4429, 2897.833
969.9250, 2872.385
970.4071, 2855.679
970.8892, 2837.144
971.3713, 2806.216
971.8535, 2772.339
972.3356, 2748.257
972.8177, 2734.614
973.2998, 2733.500
973.7819, 2749.484
974.2640, 2772.019
974.7462, 2804.735
975.2283, 2837.315
975.7104, 2858.331
976.1925, 2876.366
976.6746, 2908.808
977.1567, 2958.712
977.6389, 3006.280
978.1210, 3041.630
978.6031, 3081.252
979.0852, 3133.376
979.5673, 3188.855
980.0494, 3237.018
980.5316, 3284.341
981.0137, 3347.125
981.4958, 3430.258
981.9779, 3510.268
982.4600, 3582.355
982.9421, 3648.618
983.4243, 3704.112
983.9064, 3759.233
984.3885, 3831.042
984.8706, 3908.914
985.3527, 3962.707
985.8348, 3982.565
986.3170, 4003.630
986.7991, 4043.992
987.2812, 4081.434
987.7633, 4107.084
988.2454, 4122.297
988.7275, 4130.441
989.2097, 4129.514
989.6918, 4115.419
990.1739, 4088.855
990.6560, 4038.839
991.1381, 3939.879
991.6202, 3841.363
992.1024, 3780.295
992.5845, 3727.533
993.0666, 3648.272
993.5487, 3548.460
994.0308, 3455.446
994.5129, 3378.403
994.9951, 3302.974
995.4772, 3215.898
995.9593, 3136.137
996.4414, 3084.863
996.9235, 3039.355
997.4056, 2967.788
997.8878, 2877.273
998.3699, 2800.182
998.8520, 2747.395
999.3341, 2704.068
999.8162, 2667.365
1000.298, 2633.397
1000.780, 2595.304
1001.263, 2561.577
1001.745, 2545.015
1002.227, 2542.595
1002.709, 2539.694
1003.191, 2530.866
1003.673, 2524.635
1004.155, 2528.833
1004.637, 2532.627
1005.120, 2531.998
1005.602, 2524.868
1006.084, 2503.048
1006.566, 2472.502
1007.048, 2455.452
1007.530, 2462.686
1008.012, 2468.805
1008.494, 2461.343
1008.976, 2450.249
1009.459, 2439.188
1009.941, 2429.957
1010.423, 2421.378
1010.905, 2416.099
1011.387, 2422.952
1011.869, 2446.660
1012.351, 2474.805
1012.833, 2506.527
1013.315, 2536.178
1013.798, 2557.305
1014.280, 2576.757
1014.762, 2601.165
1015.244, 2631.178
1015.726, 2666.107
1016.208, 2707.343
1016.690, 2747.582
1017.172, 2778.193
1017.655, 2813.797
1018.137, 2864.221
1018.619, 2922.484
1019.101, 2987.293
1019.583, 3052.682
1020.065, 3101.028
1020.547, 3122.522
1021.029, 3149.778
1021.511, 3212.225
1021.994, 3260.112
1022.476, 3263.863
1022.958, 3245.615
1023.440, 3222.909
1023.922, 3198.422
1024.404, 3174.535
1024.886, 3154.392
1025.368, 3123.483
1025.851, 3066.905
1026.333, 3013.238
1026.815, 2979.207
1027.297, 2948.692
1027.779, 2903.116
1028.261, 2849.206
1028.743, 2807.062
1029.225, 2779.729
1029.708, 2763.214
1030.190, 2755.032
1030.672, 2759.773
1031.154, 2789.515
1031.636, 2823.026
1032.118, 2834.639
1032.600, 2839.038
1033.082, 2872.640
1033.564, 2941.541
1034.047, 3024.486
1034.529, 3118.212
1035.011, 3228.367
1035.493, 3370.686
1035.975, 3516.022
1036.457, 3630.926
1036.939, 3739.859
1037.421, 3897.612
1037.903, 4116.221
1038.386, 4323.905
1038.868, 4496.793
1039.350, 4694.585
1039.832, 4936.744
1040.314, 5191.894
1040.796, 5450.267
1041.278, 5705.024
1041.760, 5945.071
1042.243, 6169.321
1042.725, 6393.050
1043.207, 6632.361
1043.689, 6840.447
1044.171, 7023.815
1044.653, 7155.402
1045.135, 7226.058
1045.617, 7230.945
1046.099, 7161.572
1046.582, 7017.861
1047.064, 6812.881
1047.546, 6528.007
1048.028, 6243.839
1048.510, 5976.083
1048.992, 5681.398
1049.474, 5330.677
1049.956, 4965.980
1050.438, 4636.643
1050.921, 4340.313
1051.403, 4057.102
1051.885, 3787.231
1052.367, 3537.784
1052.849, 3307.000
1053.331, 3112.592
1053.813, 2965.210
1054.295, 2837.990
1054.778, 2704.138
1055.260, 2570.228
1055.742, 2459.776
1056.224, 2371.995
1056.706, 2301.758
1057.188, 2249.196
1057.670, 2188.775
1058.152, 2112.329
1058.635, 2043.325
1059.117, 2001.962
1059.599, 1977.637
1060.081, 1949.496
1060.563, 1918.823
1061.045, 1890.620
1061.527, 1865.751
1062.009, 1850.874
1062.491, 1846.568
1062.974, 1841.105
1063.456, 1826.196
1063.938, 1813.639
1064.420, 1823.195
1064.902, 1846.488
1065.384, 1863.030
1065.866, 1875.972
1066.348, 1896.291
1066.830, 1924.541
1067.313, 1951.793
1067.795, 1973.869
1068.277, 2000.534
1068.759, 2044.152
1069.241, 2096.291
1069.723, 2141.005
1070.205, 2188.527
1070.687, 2256.688
1071.170, 2343.914
1071.652, 2441.582
1072.134, 2545.805
1072.616, 2648.273
1073.098, 2734.234
1073.580, 2826.248
1074.062, 2951.240
1074.544, 3084.232
1075.026, 3189.028
1075.509, 3285.869
1075.991, 3422.867
1076.473, 3604.774
1076.955, 3781.427
1077.437, 3928.910
1077.919, 4073.820
1078.401, 4240.689
1078.883, 4395.613
1079.365, 4513.125
1079.848, 4606.594
1080.330, 4697.537
1080.812, 4783.763
1081.294, 4842.624
1081.776, 4869.821
1082.258, 4870.179
1082.740, 4853.142
1083.222, 4798.595
1083.704, 4680.947
1084.187, 4538.241
1084.669, 4402.888
1085.151, 4269.687
1085.633, 4117.503
1086.115, 3941.133
1086.597, 3767.689
1087.079, 3595.703
1087.561, 3430.340
1088.044, 3273.551
1088.526, 3122.589
1089.008, 2972.447
1089.490, 2829.951
1089.972, 2707.430
1090.454, 2604.657
1090.936, 2504.421
1091.418, 2406.112
1091.901, 2313.228
1092.383, 2225.825
1092.865, 2144.189
1093.347, 2067.136
1093.829, 2001.689
1094.311, 1959.162
1094.793, 1931.510
1095.275, 1890.014
1095.757, 1836.237
1096.240, 1783.748
1096.722, 1734.517
1097.204, 1703.842
1097.686, 1695.292
1098.168, 1683.132
1098.650, 1646.961
1099.132, 1600.797
1099.614, 1563.697
1100.096, 1535.296
1100.579, 1516.498
1101.061, 1505.284
1101.543, 1498.537
1102.025, 1494.009
1102.507, 1485.149
1102.989, 1468.613
1103.471, 1452.537
1103.953, 1445.528
1104.436, 1441.205
1104.918, 1433.767
1105.400, 1424.150
1105.882, 1410.771
1106.364, 1397.228
1106.846, 1392.399
1107.328, 1397.909
1107.810, 1403.462
1108.292, 1406.396
1108.775, 1405.040
1109.257, 1396.583
1109.739, 1385.780
1110.221, 1371.726
1110.703, 1359.999
1111.185, 1361.959
1111.667, 1374.589
1112.149, 1374.836
1112.631, 1353.083
1113.114, 1333.090
1113.596, 1317.242
1114.078, 1303.316
1114.560, 1294.525
1115.042, 1282.711
1115.524, 1258.005
1116.006, 1228.019
1116.488, 1211.515
1116.971, 1210.185
1117.453, 1205.631
1117.935, 1197.093
1118.417, 1187.876
1118.899, 1178.015
1119.381, 1170.092
1119.863, 1166.370
1120.345, 1160.747
1120.828, 1143.350
1121.310, 1120.033
1121.792, 1116.185
1122.274, 1129.309
1122.756, 1133.829
1123.238, 1128.599
1123.720, 1122.157
1124.202, 1117.057
1124.684, 1111.145
1125.167, 1102.680
1125.649, 1093.458
1126.131, 1083.834
1126.613, 1076.615
1127.095, 1081.254
1127.577, 1090.521
1128.059, 1086.293
1128.541, 1070.652
1129.023, 1061.417
1129.506, 1065.538
1129.988, 1071.311
1130.470, 1073.306
1130.952, 1071.323
1131.434, 1062.719
1131.916, 1052.358
1132.398, 1041.128
1132.880, 1033.246
1133.363, 1038.546
1133.845, 1056.141
1134.327, 1064.882
1134.809, 1051.789
1135.291, 1044.593
1135.773, 1051.642
1136.255, 1060.108
1136.737, 1070.274
1137.219, 1074.551
1137.702, 1061.576
1138.184, 1040.231
1138.666, 1036.099
1139.148, 1052.743
1139.630, 1058.573
1140.112, 1050.461
1140.594, 1044.250
1141.076, 1042.518
1141.558, 1043.752
1142.041, 1047.848
1142.523, 1051.185
1143.005, 1048.683
1143.487, 1042.705
1143.969, 1041.960
1144.451, 1044.940
1144.933, 1042.094
1145.415, 1034.528
1145.898, 1033.066
1146.380, 1039.595
1146.862, 1044.228
1147.344, 1040.245
1147.826, 1035.081
1148.308, 1038.054
1148.790, 1043.428
1149.272, 1044.771
1149.755, 1043.389
1150.237, 1040.754
1150.719, 1037.628
1151.201, 1034.860
1151.683, 1032.698
1152.165, 1031.455
1152.647, 1029.650
1153.129, 1031.127
1153.611, 1042.098
1154.094, 1051.298
1154.576, 1048.907
1155.058, 1043.199
1155.540, 1046.964
1156.022, 1057.269
1156.504, 1056.144
1156.986, 1036.852
1157.468, 1028.379
1157.950, 1035.004
1158.433, 1041.571
1158.915, 1045.440
1159.397, 1047.233
1159.879, 1047.542
1160.361, 1044.903
1160.843, 1035.682
1161.325, 1022.740
1161.807, 1020.110
1162.290, 1026.774
1162.772, 1036.893
1163.254, 1048.612
1163.736, 1052.396
1164.218, 1046.228
1164.700, 1039.436
1165.182, 1038.389
1165.664, 1039.338
1166.146, 1039.203
1166.629, 1037.470
1167.111, 1030.188
1167.593, 1023.013
1168.075, 1028.176
1168.557, 1040.352
1169.039, 1040.559
1169.521, 1024.268
1170.003, 1015.136
1170.485, 1030.515
1170.968, 1042.293
1171.450, 1039.816
1171.932, 1033.717
1172.414, 1025.878
1172.896, 1020.499
1173.378, 1023.500
1173.860, 1032.361
1174.342, 1038.743
1174.825, 1043.672
1175.307, 1039.242
1175.789, 1020.841
1176.271, 1013.594
1176.753, 1023.949
1177.235, 1035.240
1177.717, 1039.296
1178.199, 1037.453
1178.682, 1030.322
1179.164, 1020.328
1179.646, 1010.620
1180.128, 1004.163
1180.610, 1016.284
1181.092, 1040.317
1181.574, 1052.651
1182.056, 1048.977
1182.538, 1037.281
1183.021, 1020.487
1183.503, 1006.539
1183.985, 1000.177
1184.467, 1000.451
1184.949, 1013.057
1185.431, 1026.145
1185.913, 1026.330
1186.395, 1019.648
1186.877, 1018.739
1187.360, 1024.300
1187.842, 1025.543
1188.324, 1015.774
1188.806, 1011.725
1189.288, 1017.365
1189.770, 1021.922
1190.252, 1022.776
1190.734, 1021.186
1191.217, 1017.466
1191.699, 1012.882
1192.181, 1009.058
1192.663, 1006.631
1193.145, 1012.107
1193.627, 1024.053
1194.109, 1028.017
1194.591, 1023.648
1195.073, 1019.283
1195.556, 1017.465
1196.038, 1015.577
1196.520, 1011.698
1197.002, 1007.930
1197.484, 1005.406
1197.966, 1005.222
1198.448, 1010.120
1198.930, 1016.896
1199.412, 1022.978
1199.895, 1026.903
1200.377, 1025.718
1200.859, 1019.111
1201.341, 1013.562
1201.823, 1009.612
1202.305, 1008.390
1202.787, 1013.202
1203.269, 1016.437
1203.752, 1015.934
1204.234, 1012.788
1204.716, 1007.199
1205.198, 1000.351
1205.680, 993.8474
1206.162, 988.1472
1206.644, 991.4759
1207.126, 1003.151
1207.609, 1006.689
1208.091, 1001.379
1208.573, 999.5173
1209.055, 1004.814
1209.537, 1009.459
1210.019, 1007.859
1210.501, 1003.193
1210.983, 997.4922
1211.465, 992.1556
1211.948, 989.0557
1212.430, 987.0079
1212.912, 982.3722
1213.394, 978.0170
1213.876, 983.0541
1214.358, 998.5338
1214.840, 1006.506
1215.322, 996.3350
1215.804, 989.3051
1216.287, 989.5125
1216.769, 990.1253
1217.251, 989.5364
1217.733, 988.1001
1218.215, 985.9481
1218.697, 983.3032
1219.179, 980.1429
1219.661, 976.9086
1220.144, 977.4713
1220.626, 981.2507
1221.108, 983.1598
1221.590, 983.0129
1222.072, 983.1978
1222.554, 984.1865
1223.036, 983.3116
1223.518, 978.3388
1224.000, 974.6099
1224.483, 980.6160
1224.965, 985.9251
1225.447, 977.8331
1225.929, 967.4377
1226.411, 967.7797
1226.893, 974.1270
1227.375, 976.1146
1227.857, 972.9543
1228.339, 970.6543
1228.822, 970.7089
1229.304, 969.1121
1229.786, 963.3931
1230.268, 963.0204
1230.750, 972.5039
1231.232, 979.2341
1231.714, 975.0587
1232.196, 966.9343
1232.679, 963.6638
1233.161, 964.4376
1233.643, 968.3596
1234.125, 974.0299
1234.607, 977.6993
1235.089, 979.2227
1235.571, 978.3842
1236.053, 975.8356
1236.536, 973.5323
1237.018, 972.1052
1237.500, 973.5916
1237.982, 984.1953
1238.464, 990.9263
1238.946, 985.2940
1239.428, 976.7629
1239.910, 970.0403
1240.392, 964.7683
1240.875, 959.7365
1241.357, 955.6307
1241.839, 954.6741
1242.321, 957.0127
1242.803, 962.1915
1243.285, 970.9227
1243.767, 970.6000
1244.249, 959.8550
1244.731, 955.8000
1245.214, 964.8702
1245.696, 977.7984
1246.178, 988.8153
1246.660, 993.4957
1247.142, 981.5425
1247.624, 964.7056
1248.106, 954.6102
1248.588, 950.3724
1249.071, 952.2554
1249.553, 957.6873
1250.035, 962.5769
1250.517, 966.1604
1250.999, 967.1378
1251.481, 959.3091
1251.963, 960.6988
1252.445, 979.5544
1252.927, 989.6730
1253.410, 982.0071
1253.892, 972.5391
1254.374, 970.8886
1254.856, 972.3622
1255.338, 970.2053
1255.820, 967.0323
1256.302, 971.8520
1256.784, 980.8732
1257.266, 983.2800
1257.749, 980.6378
1258.231, 979.1160
1258.713, 978.9274
1259.195, 975.1367
##END=



