##NAMES=Hureaulite
##RRUFFID=R070452
##IDEAL CHEMISTRY=Mn^2+^_5_(P^5+^O_4_)_2_(P^5+^O_3_OH)_2_&#183;4H_2_O
##LOCALITY=Tip Top mine, Fourmile, Custer District, Custer County, South Dakota, USA
##OWNER=RRUFF
##SOURCE=Michael Scott
##DESCRIPTION=Massive coarse pink granular
##STATUS=The identification of this mineral has been confirmed by X-ray diffraction and chemical analysis
##URL=rruff.info/R070452
##MEASURED CHEMISTRY=(Mn^2+^_3.83_Fe^2+^_0.62_Mg_0.33_Ca_0.22_)_Σ=5_(P_1.00_O_4_)_2_(P_1.00_O_3_OH)_2_·4H_2_O; H_2_O estimated by difference; OH by charge balance
132.7991, 593.4177
133.2813, 594.4086
133.7634, 612.2875
134.2455, 638.9855
134.7276, 673.8658
135.2097, 706.3684
135.6918, 732.2452
136.1740, 752.4548
136.6561, 776.7176
137.1382, 806.7531
137.6203, 836.9286
138.1024, 858.8802
138.5845, 870.9614
139.0667, 883.6008
139.5488, 900.8860
140.0309, 923.3732
140.5130, 947.4219
140.9951, 973.8376
141.4772, 1001.484
141.9594, 1028.638
142.4415, 1058.633
142.9236, 1081.854
143.4057, 1092.309
143.8878, 1083.159
144.3699, 1079.344
144.8521, 1085.010
145.3342, 1097.300
145.8163, 1101.831
146.2984, 1093.855
146.7805, 1083.313
147.2626, 1076.223
147.7448, 1074.070
148.2269, 1073.189
148.7090, 1072.944
149.1911, 1073.315
149.6732, 1076.148
150.1553, 1082.035
150.6375, 1090.099
151.1196, 1099.383
151.6017, 1106.573
152.0838, 1118.531
152.5659, 1138.595
153.0480, 1169.535
153.5302, 1194.954
154.0123, 1207.635
154.4944, 1216.245
154.9765, 1231.223
155.4586, 1263.935
155.9408, 1294.242
156.4229, 1313.759
156.9050, 1310.110
157.3871, 1307.971
157.8692, 1321.492
158.3513, 1344.692
158.8335, 1366.114
159.3156, 1382.730
159.7977, 1397.455
160.2798, 1410.828
160.7619, 1418.535
161.2440, 1432.777
161.7262, 1465.580
162.2083, 1509.218
162.6904, 1541.658
163.1725, 1532.557
163.6546, 1521.796
164.1367, 1538.863
164.6189, 1628.100
165.1010, 1703.808
165.5831, 1716.030
166.0652, 1674.534
166.5473, 1633.099
167.0294, 1614.269
167.5116, 1611.629
167.9937, 1619.278
168.4758, 1649.843
168.9579, 1678.952
169.4400, 1687.036
169.9221, 1674.821
170.4043, 1663.480
170.8864, 1667.449
171.3685, 1680.892
171.8506, 1695.279
172.3327, 1713.897
172.8148, 1727.930
173.2970, 1727.023
173.7791, 1710.034
174.2612, 1688.993
174.7433, 1675.437
175.2254, 1665.596
175.7076, 1651.149
176.1897, 1623.934
176.6718, 1591.562
177.1539, 1563.427
177.6360, 1540.553
178.1181, 1520.312
178.6003, 1499.883
179.0824, 1479.401
179.5645, 1460.298
180.0466, 1442.405
180.5287, 1426.133
181.0108, 1413.318
181.4930, 1405.277
181.9751, 1397.769
182.4572, 1382.287
182.9393, 1360.245
183.4214, 1342.646
183.9035, 1338.160
184.3857, 1343.834
184.8678, 1352.523
185.3499, 1364.756
185.8320, 1376.916
186.3141, 1382.123
186.7962, 1380.516
187.2784, 1375.608
187.7605, 1366.026
188.2426, 1354.023
188.7247, 1351.113
189.2068, 1363.687
189.6889, 1384.305
190.1711, 1394.456
190.6532, 1393.468
191.1353, 1389.346
191.6174, 1388.271
192.0995, 1390.194
192.5816, 1395.398
193.0638, 1407.175
193.5459, 1421.886
194.0280, 1424.592
194.5101, 1414.133
194.9922, 1397.807
195.4743, 1380.748
195.9565, 1363.158
196.4386, 1351.255
196.9207, 1350.125
197.4028, 1357.692
197.8849, 1356.586
198.3671, 1344.477
198.8492, 1330.337
199.3313, 1325.815
199.8134, 1331.593
200.2955, 1340.452
200.7776, 1350.050
201.2598, 1360.392
201.7419, 1373.581
202.2240, 1391.325
202.7061, 1408.997
203.1882, 1416.731
203.6703, 1411.335
204.1525, 1411.899
204.6346, 1428.118
205.1167, 1461.700
205.5988, 1492.733
206.0809, 1520.646
206.5630, 1546.661
207.0452, 1572.591
207.5273, 1598.129
208.0094, 1624.904
208.4915, 1653.667
208.9736, 1683.945
209.4557, 1718.159
209.9379, 1758.438
210.4200, 1801.081
210.9021, 1835.860
211.3842, 1858.711
211.8663, 1884.511
212.3484, 1923.339
212.8306, 1980.298
213.3127, 2027.253
213.7948, 2060.064
214.2769, 2083.458
214.7590, 2110.920
215.2411, 2142.496
215.7233, 2177.543
216.2054, 2218.720
216.6875, 2272.728
217.1696, 2309.027
217.6517, 2321.357
218.1338, 2314.965
218.6160, 2310.385
219.0981, 2309.152
219.5802, 2306.916
220.0623, 2301.673
220.5444, 2294.857
221.0265, 2281.054
221.5087, 2259.372
221.9908, 2230.100
222.4729, 2194.388
222.9550, 2146.637
223.4371, 2100.403
223.9192, 2064.759
224.4014, 2044.239
224.8835, 2024.462
225.3656, 2002.053
225.8477, 1978.285
226.3298, 1966.118
226.8119, 1972.069
227.2941, 1980.858
227.7762, 1980.549
228.2583, 1966.047
228.7404, 1953.689
229.2225, 1946.309
229.7046, 1943.430
230.1868, 1939.011
230.6689, 1932.004
231.1510, 1924.672
231.6331, 1918.958
232.1152, 1916.242
232.5973, 1912.698
233.0795, 1909.373
233.5616, 1906.023
234.0437, 1893.715
234.5258, 1866.726
235.0079, 1837.028
235.4900, 1814.557
235.9722, 1800.343
236.4543, 1791.924
236.9364, 1792.483
237.4185, 1801.939
237.9006, 1799.466
238.3828, 1779.830
238.8649, 1753.827
239.3470, 1730.034
239.8291, 1705.850
240.3112, 1689.198
240.7933, 1684.637
241.2755, 1692.490
241.7576, 1691.476
242.2397, 1675.555
242.7218, 1656.691
243.2039, 1646.988
243.6860, 1652.090
244.1682, 1655.602
244.6503, 1654.135
245.1324, 1647.549
245.6145, 1640.335
246.0966, 1630.110
246.5787, 1621.686
247.0609, 1619.901
247.5430, 1626.017
248.0251, 1636.651
248.5072, 1653.540
248.9893, 1677.161
249.4714, 1692.987
249.9536, 1698.725
250.4357, 1698.981
250.9178, 1697.496
251.3999, 1690.996
251.8820, 1689.473
252.3641, 1695.875
252.8463, 1710.444
253.3284, 1725.815
253.8105, 1742.458
254.2926, 1759.216
254.7747, 1775.016
255.2568, 1790.422
255.7390, 1803.715
256.2211, 1814.170
256.7032, 1821.605
257.1853, 1829.731
257.6674, 1838.691
258.1495, 1848.076
258.6317, 1858.241
259.1138, 1871.437
259.5959, 1879.287
260.0780, 1876.062
260.5601, 1861.172
261.0422, 1864.353
261.5244, 1896.348
262.0065, 1932.195
262.4886, 1942.591
262.9707, 1916.991
263.4528, 1894.977
263.9349, 1887.567
264.4171, 1894.696
264.8992, 1891.531
265.3813, 1875.516
265.8634, 1853.042
266.3455, 1831.156
266.8276, 1811.323
267.3098, 1786.830
267.7919, 1756.052
268.2740, 1719.305
268.7561, 1675.569
269.2382, 1622.439
269.7203, 1568.216
270.2025, 1521.321
270.6846, 1483.794
271.1667, 1446.314
271.6488, 1405.061
272.1309, 1361.083
272.6130, 1325.743
273.0952, 1301.231
273.5773, 1280.431
274.0594, 1256.451
274.5415, 1228.758
275.0236, 1201.751
275.5057, 1176.961
275.9879, 1153.936
276.4700, 1129.147
276.9521, 1101.985
277.4342, 1074.900
277.9163, 1048.409
278.3984, 1021.804
278.8806, 1003.072
279.3627, 994.7773
279.8448, 995.5210
280.3269, 1002.297
280.8090, 1018.092
281.2911, 1028.157
281.7733, 1013.294
282.2554, 972.5628
282.7375, 945.0514
283.2196, 942.1331
283.7017, 956.2692
284.1838, 961.2654
284.6660, 955.8184
285.1481, 949.6147
285.6302, 951.6326
286.1123, 961.3126
286.5944, 969.0625
287.0765, 972.9251
287.5587, 973.9487
288.0408, 973.7430
288.5229, 972.1233
289.0050, 972.2762
289.4871, 978.5339
289.9692, 989.6256
290.4514, 996.9794
290.9335, 997.7051
291.4156, 995.7546
291.8977, 999.2198
292.3798, 1007.979
292.8619, 1018.623
293.3441, 1029.144
293.8262, 1039.625
294.3083, 1050.392
294.7904, 1062.316
295.2725, 1073.184
295.7546, 1077.257
296.2368, 1075.465
296.7189, 1076.012
297.2010, 1088.629
297.6831, 1107.352
298.1652, 1117.115
298.6474, 1113.670
299.1295, 1106.413
299.6116, 1107.838
300.0937, 1116.352
300.5758, 1124.885
301.0580, 1130.472
301.5401, 1132.969
302.0222, 1131.019
302.5043, 1123.324
302.9864, 1115.569
303.4685, 1115.130
303.9507, 1119.821
304.4328, 1123.330
304.9149, 1121.590
305.3970, 1117.153
305.8791, 1114.444
306.3612, 1114.926
306.8434, 1110.914
307.3255, 1091.302
307.8076, 1062.549
308.2897, 1037.236
308.7718, 1023.275
309.2539, 1014.553
309.7361, 1005.979
310.2182, 997.1964
310.7003, 989.1230
311.1824, 982.8502
311.6645, 977.6724
312.1466, 972.5578
312.6288, 966.5159
313.1109, 960.7570
313.5930, 956.4903
314.0751, 953.7535
314.5572, 950.2676
315.0393, 946.7892
315.5215, 941.2761
316.0036, 931.5002
316.4857, 904.4741
316.9678, 883.7552
317.4499, 886.1577
317.9320, 910.1523
318.4142, 925.6878
318.8963, 914.9527
319.3784, 894.3169
319.8605, 877.0721
320.3426, 868.5205
320.8247, 862.0264
321.3069, 854.3064
321.7890, 846.2321
322.2711, 843.8133
322.7532, 855.8367
323.2353, 869.2962
323.7174, 876.2235
324.1996, 869.8402
324.6817, 863.1622
325.1638, 858.2526
325.6459, 854.5212
326.1280, 849.8569
326.6101, 841.8184
327.0923, 834.4911
327.5744, 829.9727
328.0565, 832.1265
328.5386, 831.3817
329.0207, 824.8213
329.5028, 815.4354
329.9850, 810.1420
330.4671, 811.9551
330.9492, 814.7653
331.4313, 816.9256
331.9134, 819.3409
332.3955, 818.5189
332.8777, 810.7110
333.3598, 801.4453
333.8419, 800.3964
334.3240, 814.6491
334.8061, 825.0892
335.2882, 824.1143
335.7704, 808.7844
336.2525, 801.9769
336.7346, 807.2474
337.2167, 816.8739
337.6988, 821.1151
338.1809, 818.2631
338.6631, 815.5440
339.1452, 815.1520
339.6273, 816.8677
340.1094, 816.3074
340.5915, 812.7141
341.0736, 808.6846
341.5558, 807.5403
342.0379, 809.7254
342.5200, 809.8088
343.0021, 806.0357
343.4842, 799.6050
343.9663, 794.2433
344.4485, 789.8829
344.9306, 787.4338
345.4127, 789.2008
345.8948, 794.4858
346.3769, 797.0980
346.8590, 795.6325
347.3412, 791.5953
347.8233, 786.6110
348.3054, 780.8821
348.7875, 777.4826
349.2696, 780.8187
349.7517, 788.1223
350.2339, 792.2455
350.7160, 792.4426
351.1981, 788.8302
351.6802, 777.9526
352.1623, 762.2007
352.6444, 750.5707
353.1266, 748.6749
353.6087, 753.4886
354.0908, 762.3298
354.5729, 775.4651
355.0550, 788.2319
355.5371, 798.4022
356.0193, 805.3085
356.5014, 807.5129
356.9835, 803.1368
357.4656, 794.7368
357.9477, 780.3297
358.4298, 760.4022
358.9120, 748.3624
359.3941, 758.3939
359.8762, 778.0301
360.3583, 794.1815
360.8404, 800.4715
361.3225, 804.1027
361.8047, 808.4725
362.2868, 813.1663
362.7689, 815.9048
363.2510, 812.0236
363.7331, 808.2026
364.2152, 808.9752
364.6974, 816.9272
365.1795, 826.9852
365.6616, 840.9666
366.1437, 856.5171
366.6258, 867.3840
367.1079, 864.2438
367.5901, 863.1153
368.0722, 871.8581
368.5543, 899.5704
369.0364, 918.1752
369.5185, 918.8680
370.0006, 912.2859
370.4828, 914.0449
370.9649, 934.0654
371.4470, 950.1686
371.9291, 955.1097
372.4112, 946.4489
372.8933, 945.1824
373.3755, 952.5140
373.8576, 965.9299
374.3397, 984.7504
374.8218, 1013.577
375.3039, 1034.735
375.7860, 1041.244
376.2682, 1036.273
376.7503, 1045.907
377.2324, 1076.515
377.7145, 1105.033
378.1966, 1111.609
378.6787, 1093.951
379.1609, 1081.438
379.6430, 1077.958
380.1251, 1081.100
380.6072, 1087.545
381.0894, 1097.682
381.5715, 1104.255
382.0536, 1101.408
382.5357, 1090.912
383.0178, 1082.137
383.4999, 1075.984
383.9821, 1069.916
384.4642, 1058.217
384.9463, 1042.599
385.4284, 1031.796
385.9105, 1032.672
386.3926, 1039.609
386.8748, 1043.117
387.3569, 1043.094
387.8390, 1042.383
388.3211, 1044.342
388.8032, 1047.097
389.2853, 1046.916
389.7675, 1035.416
390.2496, 1027.809
390.7317, 1044.286
391.2138, 1079.147
391.6959, 1104.548
392.1780, 1095.523
392.6602, 1075.885
393.1423, 1065.923
393.6244, 1071.216
394.1065, 1083.238
394.5886, 1101.256
395.0707, 1123.490
395.5529, 1146.319
396.0350, 1167.606
396.5171, 1190.096
396.9992, 1214.492
397.4813, 1239.990
397.9634, 1269.874
398.4456, 1310.010
398.9277, 1352.937
399.4098, 1390.362
399.8919, 1413.859
400.3740, 1440.270
400.8561, 1471.080
401.3383, 1506.041
401.8204, 1549.317
402.3025, 1606.398
402.7846, 1666.172
403.2667, 1720.252
403.7488, 1762.174
404.2310, 1813.433
404.7131, 1879.567
405.1952, 1954.625
405.6773, 2021.797
406.1594, 2078.054
406.6415, 2135.800
407.1237, 2203.556
407.6058, 2281.630
408.0879, 2352.706
408.5700, 2415.052
409.0521, 2474.014
409.5342, 2539.046
410.0164, 2609.288
410.4985, 2671.945
410.9806, 2721.035
411.4627, 2759.375
411.9448, 2797.664
412.4269, 2836.409
412.9091, 2862.155
413.3912, 2861.281
413.8733, 2838.100
414.3554, 2800.472
414.8375, 2746.742
415.3196, 2685.707
415.8018, 2630.323
416.2839, 2577.561
416.7660, 2513.495
417.2481, 2424.549
417.7302, 2325.046
418.2123, 2225.560
418.6945, 2126.130
419.1766, 2036.986
419.6587, 1971.884
420.1408, 1919.766
420.6229, 1865.295
421.1050, 1792.465
421.5872, 1726.027
422.0693, 1675.947
422.5514, 1643.093
423.0335, 1617.651
423.5156, 1604.168
423.9977, 1593.119
424.4799, 1577.286
424.9620, 1540.837
425.4441, 1518.134
425.9262, 1517.874
426.4083, 1533.625
426.8904, 1542.792
427.3726, 1540.983
427.8547, 1538.063
428.3368, 1536.690
428.8189, 1534.443
429.3010, 1543.226
429.7831, 1567.217
430.2653, 1597.458
430.7474, 1621.150
431.2295, 1636.520
431.7116, 1652.803
432.1937, 1672.274
432.6758, 1694.884
433.1580, 1719.433
433.6401, 1745.459
434.1222, 1776.430
434.6043, 1818.828
435.0864, 1870.242
435.5685, 1915.766
436.0507, 1950.632
436.5328, 1982.989
437.0149, 2025.740
437.4970, 2076.935
437.9791, 2128.613
438.4612, 2173.587
438.9434, 2216.762
439.4255, 2264.557
439.9076, 2317.472
440.3897, 2375.096
440.8718, 2438.196
441.3539, 2504.549
441.8361, 2570.444
442.3182, 2634.228
442.8003, 2697.654
443.2824, 2758.663
443.7645, 2818.774
444.2466, 2887.131
444.7288, 2974.673
445.2109, 3065.989
445.6930, 3151.027
446.1751, 3229.995
446.6572, 3300.971
447.1393, 3357.335
447.6215, 3406.472
448.1036, 3461.630
448.5857, 3528.478
449.0678, 3595.589
449.5499, 3664.357
450.0320, 3735.896
450.5142, 3788.473
450.9963, 3817.031
451.4784, 3833.330
451.9605, 3848.086
452.4426, 3863.797
452.9247, 3868.608
453.4069, 3861.048
453.8890, 3841.593
454.3711, 3809.171
454.8532, 3762.491
455.3353, 3713.938
455.8174, 3676.431
456.2996, 3644.940
456.7817, 3593.705
457.2638, 3520.293
457.7459, 3434.383
458.2280, 3336.630
458.7101, 3233.819
459.1923, 3143.320
459.6744, 3080.228
460.1565, 3026.846
460.6386, 2964.090
461.1207, 2892.927
461.6028, 2823.624
462.0850, 2768.343
462.5671, 2714.840
463.0492, 2651.325
463.5313, 2570.183
464.0135, 2490.394
464.4956, 2421.870
464.9777, 2360.310
465.4598, 2300.520
465.9419, 2237.928
466.4240, 2179.678
466.9062, 2129.602
467.3883, 2088.367
467.8704, 2047.991
468.3525, 2014.517
468.8346, 1976.444
469.3167, 1924.217
469.7989, 1843.475
470.2810, 1775.727
470.7631, 1726.373
471.2452, 1690.219
471.7273, 1652.424
472.2094, 1610.879
472.6916, 1574.023
473.1737, 1548.872
473.6558, 1534.908
474.1379, 1505.701
474.6200, 1457.891
475.1021, 1407.338
475.5843, 1371.691
476.0664, 1349.235
476.5485, 1328.970
477.0306, 1309.177
477.5127, 1289.167
477.9948, 1268.190
478.4770, 1246.181
478.9591, 1222.887
479.4412, 1195.019
479.9233, 1167.017
480.4054, 1144.509
480.8875, 1128.382
481.3697, 1116.061
481.8518, 1107.887
482.3339, 1101.994
482.8160, 1095.987
483.2981, 1092.849
483.7802, 1085.661
484.2624, 1068.002
484.7445, 1042.083
485.2266, 1023.066
485.7087, 1019.668
486.1908, 1019.239
486.6729, 1015.599
487.1551, 1007.167
487.6372, 998.6316
488.1193, 989.3937
488.6014, 980.4755
489.0835, 972.3701
489.5656, 963.2319
490.0478, 960.1882
490.5299, 968.1741
491.0120, 984.4090
491.4941, 987.6987
491.9762, 976.0369
492.4583, 961.1403
492.9405, 951.5316
493.4226, 946.4515
493.9047, 941.1242
494.3868, 935.0826
494.8689, 928.3741
495.3510, 919.7577
495.8332, 910.1628
496.3153, 902.6558
496.7974, 897.0391
497.2795, 895.0809
497.7616, 902.0945
498.2437, 916.9318
498.7259, 927.7769
499.2080, 924.0704
499.6901, 915.0546
500.1722, 909.2242
500.6543, 910.0994
501.1364, 910.6213
501.6186, 906.9008
502.1007, 901.5947
502.5828, 899.2880
503.0649, 905.4084
503.5470, 909.8605
504.0291, 907.8984
504.5113, 899.2386
504.9934, 898.2689
505.4755, 909.4053
505.9576, 922.8898
506.4397, 932.4158
506.9218, 936.7896
507.4040, 941.0697
507.8861, 945.1943
508.3682, 949.8018
508.8503, 956.1897
509.3324, 964.3873
509.8145, 973.3588
510.2967, 982.9175
510.7788, 992.8693
511.2609, 1002.810
511.7430, 1012.724
512.2252, 1022.222
512.7073, 1027.406
513.1894, 1032.745
513.6715, 1047.361
514.1536, 1075.938
514.6357, 1105.767
515.1179, 1124.962
515.6000, 1138.411
516.0821, 1155.079
516.5642, 1181.978
517.0463, 1210.068
517.5284, 1234.944
518.0106, 1256.552
518.4927, 1278.730
518.9748, 1297.437
519.4569, 1320.264
519.9390, 1351.998
520.4211, 1399.149
520.9033, 1443.884
521.3854, 1483.651
521.8675, 1522.587
522.3496, 1567.862
522.8317, 1622.604
523.3138, 1675.075
523.7960, 1718.724
524.2781, 1756.924
524.7602, 1809.929
525.2423, 1879.559
525.7244, 1951.843
526.2065, 2014.767
526.6887, 2070.792
527.1708, 2133.465
527.6529, 2205.372
528.1350, 2278.024
528.6171, 2344.961
529.0992, 2406.168
529.5814, 2460.541
530.0635, 2511.011
530.5456, 2552.356
531.0277, 2577.696
531.5098, 2589.046
531.9919, 2599.274
532.4741, 2612.253
532.9562, 2627.036
533.4383, 2643.856
533.9204, 2664.482
534.4025, 2682.027
534.8846, 2690.637
535.3668, 2697.789
535.8489, 2712.313
536.3310, 2743.354
536.8131, 2766.298
537.2952, 2774.171
537.7773, 2771.295
538.2595, 2778.750
538.7416, 2800.312
539.2237, 2819.834
539.7058, 2829.719
540.1879, 2830.251
540.6700, 2822.757
541.1522, 2807.598
541.6343, 2782.887
542.1164, 2744.675
542.5985, 2695.158
543.0806, 2640.497
543.5627, 2581.583
544.0449, 2519.256
544.5270, 2456.239
545.0091, 2390.458
545.4912, 2317.803
545.9733, 2223.264
546.4554, 2131.161
546.9376, 2061.695
547.4197, 2019.153
547.9018, 1965.795
548.3839, 1879.180
548.8660, 1785.904
549.3481, 1705.758
549.8303, 1639.181
550.3124, 1587.280
550.7945, 1554.470
551.2766, 1534.575
551.7587, 1515.728
552.2408, 1498.475
552.7230, 1480.293
553.2051, 1457.637
553.6872, 1432.863
554.1693, 1423.554
554.6514, 1430.918
555.1335, 1442.580
555.6157, 1449.407
556.0978, 1452.788
556.5799, 1455.769
557.0620, 1457.835
557.5441, 1463.637
558.0262, 1481.900
558.5084, 1506.886
558.9905, 1527.959
559.4726, 1534.467
559.9547, 1542.042
560.4368, 1558.102
560.9189, 1582.311
561.4011, 1613.760
561.8832, 1663.618
562.3653, 1711.125
562.8474, 1750.643
563.3295, 1786.425
563.8116, 1790.984
564.2938, 1743.097
564.7759, 1682.232
565.2580, 1643.170
565.7401, 1632.216
566.2222, 1623.389
566.7043, 1613.640
567.1865, 1604.307
567.6686, 1596.737
568.1507, 1590.752
568.6328, 1591.958
569.1149, 1605.113
569.5970, 1626.758
570.0792, 1648.739
570.5613, 1671.017
571.0434, 1693.097
571.5255, 1714.547
572.0076, 1735.735
572.4897, 1757.042
572.9719, 1777.599
573.4540, 1800.784
573.9361, 1830.599
574.4182, 1863.271
574.9003, 1893.776
575.3824, 1915.896
575.8646, 1941.118
576.3467, 1975.975
576.8288, 2017.110
577.3109, 2049.312
577.7930, 2071.535
578.2751, 2085.923
578.7573, 2091.767
579.2394, 2088.312
579.7215, 2088.483
580.2036, 2095.173
580.6857, 2096.967
581.1678, 2079.465
581.6500, 2045.289
582.1321, 2012.718
582.6142, 1985.086
583.0963, 1960.238
583.5784, 1936.538
584.0605, 1913.216
584.5427, 1887.694
585.0248, 1855.331
585.5069, 1823.232
585.9890, 1796.562
586.4711, 1775.279
586.9532, 1756.887
587.4354, 1743.216
587.9175, 1730.027
588.3996, 1715.221
588.8817, 1699.005
589.3638, 1679.627
589.8459, 1651.060
590.3281, 1623.459
590.8102, 1607.200
591.2923, 1606.920
591.7744, 1605.284
592.2565, 1601.551
592.7386, 1593.842
593.2208, 1574.182
593.7029, 1542.189
594.1850, 1515.190
594.6671, 1504.568
595.1492, 1503.655
595.6313, 1499.157
596.1135, 1490.925
596.5956, 1477.140
597.0777, 1454.258
597.5598, 1426.054
598.0419, 1397.292
598.5240, 1369.044
599.0062, 1337.911
599.4883, 1295.346
599.9704, 1251.598
600.4525, 1218.068
600.9346, 1206.290
601.4167, 1194.407
601.8989, 1180.173
602.3810, 1163.879
602.8631, 1144.918
603.3452, 1120.849
603.8273, 1099.228
604.3094, 1082.868
604.7916, 1071.343
605.2737, 1061.210
605.7558, 1052.595
606.2379, 1043.567
606.7200, 1029.996
607.2021, 1014.556
607.6843, 1006.628
608.1664, 1008.313
608.6485, 1011.211
609.1306, 1009.366
609.6127, 1003.125
610.0948, 992.7421
610.5770, 970.9586
611.0591, 953.4525
611.5412, 952.3791
612.0233, 961.2089
612.5054, 962.4708
612.9875, 943.6501
613.4697, 926.1808
613.9518, 918.3553
614.4339, 920.2188
614.9160, 913.6447
615.3981, 894.7509
615.8802, 875.1597
616.3624, 862.2003
616.8445, 856.0471
617.3266, 852.5130
617.8087, 851.9514
618.2908, 851.6727
618.7729, 848.0559
619.2551, 842.0871
619.7372, 836.7947
620.2193, 833.6012
620.7014, 830.3129
621.1835, 823.4354
621.6656, 814.8517
622.1478, 808.8487
622.6299, 806.0159
623.1120, 807.2573
623.5941, 817.1400
624.0762, 835.0689
624.5583, 842.7343
625.0405, 831.9802
625.5226, 817.0054
626.0047, 802.7242
626.4868, 787.8619
626.9689, 780.0502
627.4510, 780.8284
627.9332, 785.3680
628.4153, 790.1852
628.8974, 794.9947
629.3795, 794.4519
629.8616, 785.8826
630.3438, 776.0469
630.8259, 774.9183
631.3080, 780.1724
631.7901, 785.5200
632.2722, 788.6105
632.7543, 790.3608
633.2365, 790.1992
633.7186, 788.8962
634.2007, 789.8000
634.6828, 796.5024
635.1649, 803.6185
635.6470, 809.4415
636.1292, 814.5898
636.6113, 814.0826
637.0934, 804.1838
637.5755, 793.4151
638.0576, 787.2796
638.5397, 785.7677
639.0219, 790.6096
639.5040, 804.2570
639.9861, 818.1144
640.4682, 817.5828
640.9503, 805.7059
641.4324, 797.0729
641.9146, 797.2449
642.3967, 800.8623
642.8788, 803.2098
643.3609, 804.3010
643.8430, 804.2648
644.3251, 802.1888
644.8073, 799.8386
645.2894, 799.4705
645.7715, 800.8989
646.2536, 797.6544
646.7357, 774.9580
647.2178, 760.3871
647.7000, 769.4996
648.1821, 811.0527
648.6642, 835.1096
649.1463, 838.9914
649.6284, 831.3493
650.1105, 815.0096
650.5927, 791.6543
651.0748, 782.9836
651.5569, 795.6082
652.0390, 814.6408
652.5211, 822.5739
653.0032, 821.9565
653.4854, 818.6116
653.9675, 810.5513
654.4496, 804.7392
654.9317, 807.7689
655.4138, 816.9029
655.8959, 823.8563
656.3781, 824.7956
656.8602, 824.3039
657.3423, 822.9559
657.8244, 820.7327
658.3065, 822.7659
658.7886, 832.1977
659.2708, 840.3329
659.7529, 840.5570
660.2350, 832.5203
660.7171, 827.6339
661.1992, 826.0642
661.6813, 827.8036
662.1635, 836.1110
662.6456, 847.6136
663.1277, 853.2310
663.6098, 849.2519
664.0919, 843.6293
664.5740, 843.6423
665.0562, 846.0815
665.5383, 845.8427
666.0204, 838.6747
666.5025, 831.4052
666.9846, 823.7144
667.4667, 817.1931
667.9489, 818.0175
668.4310, 831.4680
668.9131, 843.0165
669.3953, 846.9680
669.8774, 844.3943
670.3595, 846.7069
670.8416, 854.5834
671.3237, 862.4533
671.8058, 865.3622
672.2880, 865.4129
672.7701, 868.8024
673.2522, 876.0919
673.7343, 883.1309
674.2164, 885.3897
674.6985, 886.2564
675.1807, 889.9719
675.6628, 899.6935
676.1449, 907.1672
676.6270, 909.5842
677.1091, 908.4277
677.5912, 905.2422
678.0734, 894.2839
678.5555, 892.0724
679.0376, 905.2530
679.5197, 925.3640
680.0018, 929.9005
680.4839, 917.3751
680.9661, 907.0696
681.4482, 908.3566
681.9303, 915.0116
682.4124, 910.6686
682.8945, 897.4703
683.3766, 888.7236
683.8588, 896.5712
684.3409, 909.7275
684.8230, 918.6846
685.3051, 922.8467
685.7872, 926.0386
686.2693, 930.4028
686.7515, 933.6693
687.2336, 933.7242
687.7157, 928.3000
688.1978, 926.9062
688.6799, 931.8123
689.1620, 937.5679
689.6442, 937.5721
690.1263, 931.5500
690.6084, 928.9072
691.0905, 931.8437
691.5726, 935.8473
692.0547, 934.4614
692.5369, 929.1989
693.0190, 923.8208
693.5011, 917.1484
693.9832, 914.0610
694.4653, 921.1228
694.9474, 934.4520
695.4296, 944.8280
695.9117, 948.0073
696.3938, 949.4313
696.8759, 950.2886
697.3580, 950.7200
697.8401, 951.5330
698.3223, 953.5533
698.8044, 954.0546
699.2865, 950.0436
699.7686, 942.6417
700.2507, 943.0460
700.7328, 951.5242
701.2150, 961.5405
701.6971, 968.9838
702.1792, 974.1033
702.6613, 975.9976
703.1434, 974.0651
703.6255, 974.5073
704.1077, 985.1760
704.5898, 997.6819
705.0719, 1004.384
705.5540, 1000.343
706.0361, 996.3548
706.5182, 991.0082
707.0004, 987.6349
707.4825, 991.1414
707.9646, 1003.632
708.4467, 1014.255
708.9288, 1021.601
709.4109, 1025.986
709.8931, 1027.023
710.3752, 1025.233
710.8573, 1023.306
711.3394, 1020.070
711.8215, 1019.478
712.3036, 1028.864
712.7858, 1044.793
713.2679, 1056.994
713.7500, 1056.580
714.2321, 1055.595
714.7142, 1059.883
715.1964, 1069.388
715.6785, 1076.160
716.1606, 1078.286
716.6427, 1080.505
717.1248, 1085.118
717.6069, 1092.025
718.0891, 1098.434
718.5712, 1104.212
719.0533, 1109.725
719.5354, 1117.493
720.0175, 1124.705
720.4996, 1123.389
720.9818, 1112.023
721.4639, 1102.103
721.9460, 1102.666
722.4281, 1108.075
722.9102, 1113.059
723.3923, 1116.686
723.8745, 1119.868
724.3566, 1122.575
724.8387, 1125.048
725.3208, 1127.544
725.8029, 1130.172
726.2850, 1132.686
726.7672, 1135.563
727.2493, 1137.343
727.7314, 1134.653
728.2135, 1128.153
728.6956, 1121.843
729.1777, 1117.668
729.6599, 1113.238
730.1420, 1104.724
730.6241, 1093.929
731.1062, 1084.974
731.5883, 1080.328
732.0704, 1077.170
732.5526, 1075.765
733.0347, 1075.425
733.5168, 1071.911
733.9989, 1062.883
734.4810, 1055.280
734.9631, 1052.264
735.4453, 1053.023
735.9274, 1051.156
736.4095, 1046.618
736.8916, 1040.850
737.3737, 1030.059
737.8558, 1020.589
738.3380, 1027.420
738.8201, 1050.333
739.3022, 1067.773
739.7843, 1062.844
740.2664, 1050.520
740.7485, 1041.272
741.2307, 1037.515
741.7128, 1033.365
742.1949, 1027.521
742.6770, 1022.227
743.1591, 1019.812
743.6412, 1021.142
744.1234, 1018.770
744.6055, 1011.374
745.0876, 1003.970
745.5697, 1003.384
746.0518, 1007.468
746.5339, 1010.706
747.0161, 1011.879
747.4982, 1011.922
747.9803, 1011.183
748.4624, 1009.817
748.9445, 1008.077
749.4266, 1004.553
749.9088, 1002.502
750.3909, 1003.136
750.8730, 1005.173
751.3551, 1007.044
751.8372, 1009.476
752.3193, 1008.548
752.8015, 1001.848
753.2836, 993.5121
753.7657, 994.2466
754.2478, 1002.025
754.7299, 1006.950
755.2120, 1000.263
755.6942, 992.5580
756.1763, 995.8769
756.6584, 1006.556
757.1405, 1013.303
757.6226, 1006.371
758.1047, 1000.885
758.5869, 1004.810
759.0690, 1015.869
759.5511, 1018.107
760.0332, 1007.662
760.5153, 998.6410
760.9974, 998.2938
761.4796, 1004.456
761.9617, 1006.651
762.4438, 1005.185
762.9259, 1004.473
763.4080, 1009.808
763.8901, 1016.195
764.3723, 1016.778
764.8544, 1011.389
765.3365, 1008.989
765.8186, 1020.153
766.3007, 1029.529
766.7828, 1025.392
767.2650, 1003.463
767.7471, 994.7252
768.2292, 1005.128
768.7113, 1015.951
769.1934, 1009.093
769.6755, 987.5180
770.1577, 980.5117
770.6398, 990.6691
771.1219, 1002.607
771.6040, 1000.433
772.0861, 992.2885
772.5682, 988.4371
773.0504, 991.3810
773.5325, 996.1497
774.0146, 1005.076
774.4967, 1012.515
774.9788, 1012.685
775.4609, 999.1042
775.9431, 993.2628
776.4252, 998.3980
776.9073, 1006.335
777.3894, 1005.784
777.8715, 997.9734
778.3536, 994.3010
778.8358, 997.8142
779.3179, 1002.337
779.8000, 1001.345
780.2821, 996.8721
780.7642, 991.9036
781.2463, 986.4813
781.7285, 981.9662
782.2106, 978.3021
782.6927, 976.0673
783.1748, 976.3341
783.6569, 980.9686
784.1390, 983.4972
784.6212, 982.4473
785.1033, 979.6216
785.5854, 978.9716
786.0675, 980.0287
786.5496, 979.1579
787.0317, 973.4347
787.5139, 968.1547
787.9960, 970.7258
788.4781, 977.8140
788.9602, 982.5209
789.4423, 980.9350
789.9244, 978.1862
790.4066, 975.5453
790.8887, 972.9252
791.3708, 970.1326
791.8529, 967.8389
792.3350, 963.0570
792.8171, 953.0486
793.2993, 941.8160
793.7814, 942.7590
794.2635, 953.7863
794.7456, 961.2576
795.2277, 954.5057
795.7098, 944.6463
796.1920, 941.7530
796.6741, 944.1339
797.1562, 946.3986
797.6383, 947.5133
798.1204, 947.4103
798.6025, 945.5268
799.0847, 942.3627
799.5668, 940.2523
800.0489, 939.3098
800.5310, 938.9880
801.0131, 939.4879
801.4952, 940.1995
801.9774, 939.6813
802.4595, 937.8947
802.9416, 934.7067
803.4237, 926.8479
803.9058, 920.1172
804.3879, 919.5109
804.8701, 924.5170
805.3522, 929.8601
805.8343, 934.4052
806.3164, 939.4288
806.7985, 947.6585
807.2806, 957.7960
807.7628, 952.9474
808.2449, 930.5364
808.7270, 913.7735
809.2091, 924.0685
809.6912, 946.7450
810.1733, 949.1842
810.6555, 933.9789
811.1376, 920.6523
811.6197, 921.7573
812.1018, 927.0897
812.5839, 931.3544
813.0660, 934.1228
813.5482, 935.3003
814.0303, 935.1992
814.5124, 933.0197
814.9945, 927.3934
815.4766, 918.9229
815.9587, 913.7852
816.4409, 912.0182
816.9230, 912.4520
817.4051, 915.8433
817.8872, 920.1194
818.3693, 922.5825
818.8514, 923.2332
819.3336, 923.4717
819.8157, 927.0502
820.2978, 927.6656
820.7799, 919.1627
821.2620, 901.1685
821.7441, 891.7356
822.2263, 892.5591
822.7084, 897.1246
823.1905, 904.8583
823.6726, 913.6440
824.1547, 909.9046
824.6368, 894.2971
825.1190, 881.2170
825.6011, 880.5772
826.0832, 886.6431
826.5653, 897.5037
827.0474, 912.9996
827.5295, 921.1750
828.0117, 910.5257
828.4938, 900.9700
828.9759, 902.8026
829.4580, 916.0241
829.9401, 916.4167
830.4222, 902.2634
830.9044, 887.8210
831.3865, 882.7919
831.8686, 884.1863
832.3507, 887.9727
832.8328, 893.5187
833.3149, 896.1327
833.7971, 890.0698
834.2792, 882.8647
834.7614, 878.2290
835.2435, 876.4745
835.7256, 880.0826
836.2077, 892.9481
836.6898, 903.7962
837.1719, 905.8189
837.6541, 900.4429
838.1362, 896.9446
838.6183, 895.3230
839.1004, 896.2612
839.5825, 904.2487
840.0646, 912.4012
840.5468, 912.1562
841.0289, 903.8287
841.5110, 896.7086
841.9931, 892.8537
842.4752, 891.9070
842.9573, 894.6809
843.4395, 900.9360
843.9216, 903.5773
844.4037, 901.9907
844.8858, 900.0955
845.3679, 900.0172
845.8500, 901.2991
846.3322, 902.9851
846.8143, 905.0887
847.2964, 907.7426
847.7785, 912.8329
848.2606, 916.8846
848.7427, 915.9036
849.2249, 910.3364
849.7070, 912.4088
850.1891, 930.5362
850.6712, 940.4273
851.1533, 928.3305
851.6354, 901.0638
852.1176, 891.8275
852.5997, 899.3868
853.0818, 910.3113
853.5639, 919.7168
854.0460, 926.3759
854.5281, 927.3860
855.0103, 924.0550
855.4924, 922.2019
855.9745, 923.8044
856.4566, 927.0615
856.9387, 932.6132
857.4208, 939.3148
857.9030, 941.9595
858.3851, 940.1246
858.8672, 937.2248
859.3493, 932.1791
859.8314, 929.1697
860.3135, 940.7176
860.7957, 961.3936
861.2778, 973.8293
861.7599, 957.8433
862.2420, 944.7029
862.7241, 952.2413
863.2062, 973.8512
863.6884, 985.7585
864.1705, 983.3969
864.6526, 983.4877
865.1347, 991.9142
865.6168, 1002.907
866.0989, 1000.729
866.5811, 988.5277
867.0632, 981.6078
867.5453, 991.1656
868.0274, 1000.403
868.5095, 991.9851
868.9916, 975.2272
869.4738, 967.5709
869.9559, 981.6334
870.4380, 993.6431
870.9201, 1002.357
871.4022, 1006.975
871.8843, 1003.258
872.3665, 991.6606
872.8486, 986.5660
873.3307, 992.1471
873.8128, 1002.803
874.2949, 1016.101
874.7770, 1028.719
875.2592, 1035.036
875.7413, 1027.717
876.2234, 1023.220
876.7055, 1026.974
877.1876, 1034.256
877.6697, 1041.470
878.1519, 1049.506
878.6340, 1050.436
879.1161, 1041.338
879.5982, 1033.975
880.0803, 1047.418
880.5624, 1071.235
881.0446, 1084.436
881.5267, 1080.948
882.0088, 1076.968
882.4909, 1080.470
882.9730, 1086.778
883.4551, 1092.263
883.9373, 1097.277
884.4194, 1099.436
884.9015, 1097.676
885.3836, 1096.019
885.8657, 1099.031
886.3478, 1105.034
886.8300, 1106.555
887.3121, 1103.145
887.7942, 1105.247
888.2763, 1127.998
888.7584, 1153.003
889.2405, 1165.692
889.7227, 1162.694
890.2048, 1160.562
890.6869, 1159.010
891.1690, 1159.515
891.6511, 1162.743
892.1332, 1168.616
892.6154, 1178.668
893.0975, 1192.554
893.5796, 1203.860
894.0617, 1204.680
894.5438, 1204.438
895.0259, 1213.718
895.5081, 1230.713
895.9902, 1241.329
896.4723, 1235.809
896.9544, 1232.435
897.4365, 1236.242
897.9186, 1245.797
898.4008, 1257.685
898.8829, 1271.781
899.3650, 1279.956
899.8471, 1274.331
900.3292, 1266.428
900.8113, 1269.929
901.2935, 1281.375
901.7756, 1293.189
902.2577, 1300.400
902.7398, 1310.959
903.2219, 1329.562
903.7040, 1350.084
904.1862, 1360.340
904.6683, 1359.195
905.1504, 1361.640
905.6325, 1370.931
906.1146, 1384.167
906.5967, 1401.701
907.0789, 1419.560
907.5610, 1429.909
908.0431, 1425.146
908.5252, 1424.351
909.0073, 1430.745
909.4894, 1445.425
909.9716, 1473.248
910.4537, 1520.166
910.9358, 1544.715
911.4179, 1541.666
911.9000, 1534.452
912.3821, 1547.637
912.8643, 1572.509
913.3464, 1595.002
913.8285, 1613.342
914.3106, 1630.552
914.7927, 1643.386
915.2748, 1659.488
915.7570, 1683.825
916.2391, 1716.276
916.7212, 1754.006
917.2033, 1798.670
917.6854, 1840.712
918.1675, 1871.511
918.6497, 1896.444
919.1318, 1925.145
919.6139, 1957.721
920.0960, 1995.096
920.5781, 2039.433
921.0602, 2086.912
921.5424, 2132.267
922.0245, 2178.845
922.5066, 2241.802
922.9887, 2325.039
923.4708, 2411.485
923.9529, 2496.832
924.4351, 2580.901
924.9172, 2656.743
925.3993, 2730.617
925.8814, 2818.774
926.3635, 2936.880
926.8456, 3059.562
927.3278, 3176.665
927.8099, 3289.842
928.2920, 3400.491
928.7741, 3499.918
929.2562, 3625.875
929.7383, 3785.436
930.2205, 3964.285
930.7026, 4144.773
931.1847, 4328.842
931.6668, 4518.148
932.1489, 4712.195
932.6310, 4923.670
933.1132, 5149.539
933.5953, 5401.391
934.0774, 5685.654
934.5595, 6004.460
935.0416, 6346.949
935.5237, 6708.616
936.0059, 7125.342
936.4880, 7639.074
936.9701, 8227.705
937.4522, 8838.147
937.9343, 9478.985
938.4164, 10157.92
938.8986, 10870.72
939.3807, 11650.41
939.8628, 12527.75
940.3449, 13497.10
940.8270, 14492.26
941.3091, 15508.45
941.7913, 16559.39
942.2734, 17655.90
942.7555, 18763.41
943.2376, 19848.56
943.7197, 20918.99
944.2018, 22010.05
944.6840, 23198.75
945.1661, 24321.85
945.6482, 25358.29
946.1303, 26272.90
946.6124, 27063.10
947.0945, 27754.30
947.5767, 28232.75
948.0588, 28497.96
948.5409, 28517.35
949.0230, 28257.76
949.5051, 27720.37
949.9872, 26878.96
950.4694, 25715.52
950.9515, 24375.54
951.4336, 22834.99
951.9157, 21210.20
952.3978, 19552.22
952.8799, 17853.86
953.3621, 16250.12
953.8442, 14751.95
954.3263, 13359.39
954.8084, 12071.16
955.2905, 10893.23
955.7726, 9838.048
956.2548, 8899.466
956.7369, 8070.639
957.2190, 7378.347
957.7011, 6766.069
958.1832, 6216.402
958.6653, 5729.411
959.1475, 5315.785
959.6296, 4982.539
960.1117, 4676.855
960.5938, 4384.314
961.0759, 4115.578
961.5580, 3881.301
962.0402, 3677.448
962.5223, 3494.210
963.0044, 3332.448
963.4865, 3184.754
963.9686, 3045.510
964.4507, 2920.621
964.9329, 2820.645
965.4150, 2745.144
965.8971, 2673.006
966.3792, 2604.009
966.8613, 2538.303
967.3434, 2473.127
967.8256, 2413.843
968.3077, 2370.901
968.7898, 2343.802
969.2719, 2314.033
969.7540, 2276.729
970.2361, 2237.976
970.7183, 2196.768
971.2004, 2156.863
971.6825, 2137.866
972.1646, 2137.467
972.6467, 2136.045
973.1288, 2121.617
973.6110, 2107.449
974.0931, 2105.606
974.5752, 2111.168
975.0573, 2115.373
975.5394, 2112.461
976.0215, 2115.972
976.5037, 2126.767
976.9858, 2144.190
977.4679, 2167.803
977.9500, 2197.475
978.4321, 2233.677
978.9142, 2277.061
979.3964, 2319.064
979.8785, 2351.287
980.3606, 2382.052
980.8427, 2418.760
981.3248, 2462.342
981.8069, 2501.124
982.2891, 2534.778
982.7712, 2566.161
983.2533, 2595.146
983.7354, 2623.969
984.2175, 2663.726
984.6996, 2709.079
985.1818, 2741.679
985.6639, 2737.263
986.1460, 2736.376
986.6281, 2763.343
987.1102, 2799.278
987.5923, 2811.843
988.0745, 2798.141
988.5566, 2785.467
989.0387, 2779.264
989.5208, 2769.794
990.0029, 2744.921
990.4850, 2709.771
990.9672, 2671.207
991.4493, 2629.510
991.9314, 2588.375
992.4135, 2551.900
992.8956, 2512.481
993.3777, 2464.000
993.8599, 2407.590
994.3420, 2358.614
994.8241, 2317.015
995.3062, 2276.481
995.7883, 2226.312
996.2704, 2181.095
996.7526, 2152.240
997.2347, 2138.517
997.7168, 2135.737
998.1990, 2154.795
998.6811, 2161.035
999.1632, 2145.044
999.6453, 2121.134
1000.127, 2112.913
1000.610, 2117.022
1001.092, 2122.788
1001.574, 2127.637
1002.056, 2135.160
1002.538, 2152.042
1003.020, 2169.129
1003.502, 2176.686
1003.984, 2171.940
1004.466, 2180.460
1004.949, 2204.512
1005.431, 2230.014
1005.913, 2247.890
1006.395, 2260.945
1006.877, 2277.763
1007.359, 2294.854
1007.841, 2299.084
1008.323, 2265.508
1008.806, 2242.663
1009.288, 2247.010
1009.770, 2266.158
1010.252, 2276.136
1010.734, 2277.278
1011.216, 2286.999
1011.698, 2309.615
1012.180, 2337.395
1012.662, 2365.457
1013.145, 2393.125
1013.627, 2417.806
1014.109, 2435.233
1014.591, 2466.948
1015.073, 2516.129
1015.555, 2573.717
1016.037, 2638.298
1016.519, 2706.315
1017.002, 2758.438
1017.484, 2798.839
1017.966, 2846.467
1018.448, 2929.636
1018.930, 3003.609
1019.412, 3037.010
1019.894, 3048.443
1020.376, 3080.360
1020.858, 3139.542
1021.341, 3181.521
1021.823, 3199.302
1022.305, 3199.374
1022.787, 3187.418
1023.269, 3163.629
1023.751, 3125.801
1024.233, 3071.080
1024.715, 3017.781
1025.198, 2975.046
1025.680, 2927.408
1026.162, 2863.032
1026.644, 2787.033
1027.126, 2731.037
1027.608, 2692.943
1028.090, 2655.742
1028.572, 2602.806
1029.054, 2553.946
1029.536, 2518.865
1030.019, 2498.887
1030.501, 2498.392
1030.983, 2524.555
1031.465, 2547.474
1031.947, 2561.207
1032.429, 2581.031
1032.911, 2626.382
1033.393, 2690.196
1033.876, 2760.519
1034.358, 2836.305
1034.840, 2917.615
1035.322, 2994.156
1035.804, 3089.606
1036.286, 3215.665
1036.768, 3370.198
1037.250, 3541.085
1037.733, 3729.002
1038.215, 3913.255
1038.697, 4084.253
1039.179, 4253.350
1039.661, 4436.355
1040.143, 4626.243
1040.625, 4815.920
1041.107, 5005.039
1041.589, 5191.796
1042.072, 5380.588
1042.554, 5552.722
1043.036, 5690.903
1043.518, 5795.328
1044.000, 5873.262
1044.482, 5923.856
1044.964, 5938.558
1045.446, 5923.200
1045.928, 5858.276
1046.411, 5736.651
1046.893, 5562.284
1047.375, 5334.876
1047.857, 5055.079
1048.339, 4759.290
1048.821, 4452.135
1049.303, 4153.734
1049.785, 3881.990
1050.268, 3634.483
1050.750, 3401.334
1051.232, 3182.560
1051.714, 2982.445
1052.196, 2801.185
1052.678, 2638.394
1053.160, 2495.113
1053.642, 2369.465
1054.125, 2262.662
1054.607, 2170.778
1055.089, 2082.389
1055.571, 1978.632
1056.053, 1892.750
1056.535, 1846.000
1057.017, 1820.085
1057.499, 1786.734
1057.981, 1745.892
1058.464, 1707.928
1058.946, 1674.098
1059.428, 1644.946
1059.910, 1619.052
1060.392, 1599.737
1060.874, 1593.402
1061.356, 1602.601
1061.838, 1602.505
1062.320, 1586.661
1062.803, 1575.927
1063.285, 1579.533
1063.767, 1593.614
1064.249, 1611.761
1064.731, 1633.297
1065.213, 1655.778
1065.695, 1672.546
1066.177, 1699.008
1066.660, 1745.986
1067.142, 1799.667
1067.624, 1847.097
1068.106, 1888.367
1068.588, 1933.543
1069.070, 1982.223
1069.552, 2042.218
1070.034, 2123.220
1070.516, 2213.227
1070.999, 2302.405
1071.481, 2391.631
1071.963, 2491.135
1072.445, 2601.265
1072.927, 2718.821
1073.409, 2842.319
1073.891, 2974.327
1074.373, 3117.220
1074.855, 3269.961
1075.338, 3429.997
1075.820, 3601.981
1076.302, 3765.333
1076.784, 3913.555
1077.266, 4058.755
1077.748, 4214.047
1078.230, 4372.187
1078.712, 4493.097
1079.195, 4581.438
1079.677, 4659.941
1080.159, 4749.631
1080.641, 4820.494
1081.123, 4855.542
1081.605, 4858.814
1082.087, 4843.937
1082.569, 4815.646
1083.052, 4738.808
1083.534, 4606.682
1084.016, 4458.032
1084.498, 4330.240
1084.980, 4199.190
1085.462, 4028.955
1085.944, 3822.771
1086.426, 3628.010
1086.908, 3451.662
1087.391, 3287.174
1087.873, 3136.608
1088.355, 2991.689
1088.837, 2829.176
1089.319, 2661.011
1089.801, 2519.414
1090.283, 2415.419
1090.765, 2321.089
1091.248, 2226.614
1091.730, 2138.168
1092.212, 2059.124
1092.694, 1989.332
1093.176, 1928.429
1093.658, 1876.074
1094.140, 1827.417
1094.622, 1779.094
1095.104, 1735.125
1095.587, 1701.002
1096.069, 1672.855
1096.551, 1644.446
1097.033, 1614.556
1097.515, 1586.236
1097.997, 1558.506
1098.479, 1537.340
1098.961, 1534.595
1099.443, 1537.589
1099.926, 1527.694
1100.408, 1506.088
1100.890, 1488.242
1101.372, 1478.105
1101.854, 1471.481
1102.336, 1468.780
1102.818, 1467.542
1103.300, 1463.891
1103.783, 1458.259
1104.265, 1449.792
1104.747, 1436.773
1105.229, 1431.987
1105.711, 1450.510
1106.193, 1470.305
1106.675, 1480.633
1107.157, 1482.153
1107.640, 1476.760
1108.122, 1465.439
1108.604, 1459.497
1109.086, 1469.227
1109.568, 1477.621
1110.050, 1469.626
1110.532, 1454.076
1111.014, 1443.927
1111.496, 1444.529
1111.979, 1431.577
1112.461, 1403.748
1112.943, 1370.645
1113.425, 1342.119
1113.907, 1311.713
1114.389, 1264.593
1114.871, 1207.524
1115.353, 1167.895
1115.835, 1162.347
1116.318, 1150.709
1116.800, 1125.888
1117.282, 1097.433
1117.764, 1076.639
1118.246, 1061.465
1118.728, 1047.602
1119.210, 1034.589
1119.692, 1022.432
1120.175, 1013.209
1120.657, 1002.446
1121.139, 987.5947
1121.621, 970.6527
1122.103, 956.4684
1122.585, 945.3136
1123.067, 938.8940
1123.549, 938.6428
1124.031, 940.4382
1124.514, 946.3969
1124.996, 949.5519
1125.478, 943.9203
1125.960, 929.4014
1126.442, 913.7303
1126.924, 896.9092
1127.406, 885.3079
1127.888, 884.1948
1128.370, 888.1744
1128.853, 897.2601
1129.335, 907.0118
1129.817, 908.7090
1130.299, 898.9153
1130.781, 891.4598
1131.263, 887.4127
1131.745, 883.1595
1132.227, 871.4036
1132.710, 860.2240
1133.192, 864.3445
1133.674, 880.4408
1134.156, 887.2453
1134.638, 873.6100
1135.120, 864.8500
1135.602, 866.8013
1136.084, 871.8622
1136.567, 868.9367
1137.049, 860.9364
1137.531, 852.5543
1138.013, 844.1788
1138.495, 840.6911
1138.977, 848.1868
1139.459, 855.9956
1139.941, 861.1827
1140.423, 863.7336
1140.906, 861.8030
1141.388, 856.8399
1141.870, 855.4966
1142.352, 862.4144
1142.834, 865.4203
1143.316, 852.0170
1143.798, 838.5955
1144.280, 838.1530
1144.762, 849.6609
1145.245, 850.4243
1145.727, 841.4438
1146.209, 836.8345
1146.691, 850.8984
1147.173, 863.0352
1147.655, 854.3766
1148.137, 838.6945
1148.619, 836.3869
1149.102, 850.6945
1149.584, 860.6994
1150.066, 865.6553
1150.548, 866.6588
1151.030, 861.6807
1151.512, 855.5233
1151.994, 853.1440
1152.476, 853.3431
1152.958, 850.8251
1153.441, 842.5878
1153.923, 842.3339
1154.405, 853.8168
1154.887, 864.6437
1155.369, 856.1145
1155.851, 841.9690
1156.333, 843.0190
1156.815, 860.1163
1157.297, 863.0139
1157.780, 839.4348
1158.262, 826.1677
1158.744, 835.9669
1159.226, 854.2527
1159.708, 857.1826
1160.190, 851.4355
1160.672, 850.0159
1161.154, 857.0999
1161.637, 858.6813
1162.119, 847.9476
1162.601, 838.9653
1163.083, 838.6875
1163.565, 843.4680
1164.047, 843.4859
1164.529, 840.4114
1165.011, 838.7712
1165.494, 840.0977
1165.976, 843.0323
1166.458, 848.9606
1166.940, 854.2901
1167.422, 857.5796
1167.904, 858.2946
1168.386, 850.7473
1168.868, 836.8792
1169.350, 826.1552
1169.833, 824.1706
1170.315, 825.3173
1170.797, 828.9286
1171.279, 833.7612
1171.761, 839.6680
1172.243, 846.3319
1172.725, 847.7330
1173.207, 844.0995
1173.689, 842.6349
1174.172, 850.9958
1174.654, 859.6382
1175.136, 866.0854
1175.618, 868.0751
1176.100, 858.0680
1176.582, 836.0565
1177.064, 825.9813
1177.546, 831.2034
1178.029, 838.3644
1178.511, 835.4491
1178.993, 832.1017
1179.475, 835.6503
1179.957, 844.8296
1180.439, 857.0020
1180.921, 872.9069
1181.403, 878.2698
1181.885, 868.2541
1182.368, 855.1357
1182.850, 846.2343
1183.332, 843.0057
1183.814, 850.2115
1184.296, 867.0343
1184.778, 874.3491
1185.260, 871.3974
1185.742, 866.2932
1186.224, 861.4227
1186.707, 856.8368
1187.189, 853.3817
1187.671, 849.8531
1188.153, 843.5216
1188.635, 832.5262
1189.117, 831.5297
1189.599, 842.5047
1190.081, 850.9786
1190.564, 848.0991
1191.046, 840.7025
1191.528, 834.1065
1192.010, 829.5928
1192.492, 829.8756
1192.974, 838.3593
1193.456, 842.9898
1193.938, 843.5356
1194.421, 841.2315
1194.903, 834.2589
1195.385, 826.9138
1195.867, 824.3672
1196.349, 825.9993
1196.831, 830.6421
1197.313, 841.5287
1197.795, 847.3925
1198.277, 847.2232
1198.760, 844.1869
1199.242, 839.9274
1199.724, 835.2779
1200.206, 830.0930
1200.688, 825.2814
1201.170, 825.1014
1201.652, 831.6284
1202.134, 840.1539
1202.616, 852.2403
1203.099, 859.5410
1203.581, 846.0835
1204.063, 825.5034
1204.545, 820.0011
1205.027, 829.2808
1205.509, 836.3065
1205.991, 838.3676
1206.473, 838.0345
1206.956, 835.0335
1207.438, 831.7980
1207.920, 832.9639
1208.402, 835.4731
1208.884, 834.5101
1209.366, 829.4360
1209.848, 822.9125
1210.330, 812.4305
1210.813, 807.7802
1211.295, 813.1114
1211.777, 823.0278
1212.259, 824.3808
1212.741, 825.7831
1213.223, 849.0832
1213.705, 906.0725
1214.187, 920.0141
1214.669, 865.8024
1215.151, 815.5270
1215.634, 797.8660
1216.116, 800.7998
1216.598, 808.6139
1217.080, 818.9865
1217.562, 828.5601
1218.044, 838.2740
1218.526, 839.3206
1219.008, 827.6841
1219.491, 816.4059
1219.973, 812.2717
1220.455, 812.2189
1220.937, 811.2034
1221.419, 809.6680
1221.901, 808.4583
1222.383, 807.6270
1222.865, 807.8889
1223.348, 810.1719
1223.830, 811.0038
1224.312, 805.6002
1224.794, 799.2021
1225.276, 804.6453
1225.758, 816.4778
1226.240, 822.7354
1226.722, 814.7568
1227.204, 809.0944
1227.687, 805.6050
1228.169, 805.1130
1228.651, 812.0746
1229.133, 820.1808
1229.615, 817.1499
1230.097, 806.3400
1230.579, 797.3755
1231.061, 791.3464
1231.543, 789.4861
1232.026, 792.4387
1232.508, 797.4920
1232.990, 804.7200
1233.472, 810.9553
1233.954, 809.1668
1234.436, 801.9703
1234.918, 799.1122
1235.400, 804.3859
1235.883, 808.9298
1236.365, 812.8394
1236.847, 812.3832
1237.329, 798.8137
1237.811, 782.2260
1238.293, 775.4124
1238.775, 777.3197
1239.257, 779.8530
1239.740, 783.1119
1240.222, 783.1285
1240.704, 778.2693
1241.186, 775.2698
1241.668, 784.9628
1242.150, 797.5956
1242.632, 801.6504
1243.114, 797.7195
1243.596, 795.6725
1244.078, 796.7086
1244.561, 795.2197
1245.043, 789.2153
1245.525, 785.8004
1246.007, 794.6880
1246.489, 808.0272
1246.971, 820.4204
1247.453, 830.3835
1247.936, 831.2990
1248.418, 821.6223
1248.900, 814.3511
1249.382, 812.5558
1249.864, 812.1226
1250.346, 810.7145
1250.828, 807.5071
1251.310, 799.7529
1251.792, 788.8244
1252.275, 784.4792
1252.757, 786.8626
1253.239, 790.4819
1253.721, 794.2238
1254.203, 797.8698
1254.685, 801.1414
1255.167, 804.4411
1255.649, 810.1061
1256.131, 816.3564
1256.614, 809.9283
1257.096, 791.8842
1257.578, 783.0023
1258.060, 791.7463
1258.542, 800.2526
1259.024, 793.3378
1259.506, 784.0738
1259.988, 781.3526
1260.471, 784.1519
1260.953, 788.5812
1261.435, 793.9685
1261.917, 795.2442
1262.399, 788.6146
1262.881, 785.2681
1263.363, 795.1525
1263.845, 805.9676
1264.328, 810.3287
1264.810, 809.9886
1265.292, 814.1569
1265.774, 820.4717
1266.256, 818.1927
1266.738, 797.8231
1267.220, 787.0986
1267.702, 805.2377
1268.184, 822.4594
1268.667, 821.7219
1269.149, 810.2731
##END=



