##NAMES=Hurlbutite
##RRUFFID=R070612
##IDEAL CHEMISTRY=CaBe_2_P_2_O_8_
##LOCALITY=Viitaniemi, Erajarvi, Orivesi, Etela-Suomen Laani, Finland
##OWNER=RRUFF
##SOURCE=James Shigley
##DESCRIPTION=Light brown, massive, associated with beryllonite, hydroxylherderite, and apatite. The hurlbutite is very fine-grained holding the other coarser mineral fragments in place.
##STATUS=The identification of this mineral has been confirmed by single-crystal X-ray diffraction.
##URL=rruff.info/R070612
150.8159, 5314.690
151.2980, 5319.635
151.7802, 5283.593
152.2623, 5252.770
152.7444, 5239.966
153.2265, 5247.290
153.7086, 5267.923
154.1907, 5321.283
154.6729, 5387.878
155.1550, 5424.027
155.6371, 5382.596
156.1192, 5335.494
156.6013, 5319.819
157.0834, 5358.510
157.5656, 5408.996
158.0477, 5468.061
158.5298, 5533.348
159.0119, 5591.927
159.4940, 5636.570
159.9761, 5673.633
160.4583, 5708.703
160.9404, 5759.162
161.4225, 5794.475
161.9046, 5803.668
162.3867, 5786.512
162.8688, 5743.525
163.3510, 5656.924
163.8331, 5547.975
164.3152, 5446.411
164.7973, 5355.760
165.2794, 5283.059
165.7615, 5235.278
166.2437, 5216.413
166.7258, 5211.070
167.2079, 5213.964
167.6900, 5223.342
168.1721, 5234.961
168.6542, 5251.212
169.1363, 5266.396
169.6185, 5275.134
170.1006, 5276.794
170.5827, 5270.898
171.0648, 5240.385
171.5469, 5192.584
172.0290, 5173.149
172.5112, 5228.367
172.9933, 5329.175
173.4754, 5433.466
173.9575, 5568.264
174.4396, 5674.934
174.9217, 5656.980
175.4039, 5511.679
175.8860, 5358.453
176.3681, 5301.398
176.8502, 5318.363
177.3323, 5350.537
177.8144, 5379.513
178.2966, 5405.729
178.7787, 5431.111
179.2608, 5457.047
179.7429, 5477.039
180.2250, 5479.334
180.7071, 5466.724
181.1893, 5453.466
181.6714, 5438.681
182.1535, 5428.852
182.6356, 5445.162
183.1177, 5497.072
183.5998, 5562.957
184.0820, 5610.557
184.5641, 5640.448
185.0462, 5656.045
185.5283, 5654.741
186.0104, 5639.663
186.4925, 5626.956
186.9747, 5627.890
187.4568, 5628.329
187.9389, 5580.956
188.4210, 5481.734
188.9031, 5383.344
189.3852, 5345.054
189.8673, 5361.640
190.3495, 5379.167
190.8316, 5379.960
191.3137, 5368.644
191.7958, 5364.617
192.2779, 5367.353
192.7600, 5379.558
193.2422, 5410.552
193.7243, 5460.828
194.2064, 5506.212
194.6885, 5537.552
195.1706, 5555.174
195.6527, 5560.027
196.1349, 5546.074
196.6170, 5529.314
197.0991, 5543.550
197.5812, 5592.911
198.0633, 5640.318
198.5454, 5667.480
199.0276, 5673.845
199.5097, 5665.157
199.9918, 5637.350
200.4739, 5598.097
200.9560, 5567.986
201.4381, 5548.777
201.9203, 5533.416
202.4024, 5507.451
202.8845, 5463.092
203.3666, 5466.091
203.8487, 5537.401
204.3308, 5662.755
204.8130, 5772.749
205.2951, 5868.809
205.7772, 5947.589
206.2593, 6007.163
206.7414, 6047.236
207.2235, 6069.202
207.7057, 6066.049
208.1878, 6039.518
208.6699, 6040.842
209.1520, 6091.308
209.6341, 6137.515
210.1162, 6113.206
210.5983, 5996.553
211.0805, 5874.677
211.5626, 5770.988
212.0447, 5686.999
212.5268, 5602.331
213.0089, 5510.911
213.4910, 5423.416
213.9732, 5362.233
214.4553, 5340.891
214.9374, 5314.393
215.4195, 5261.576
215.9016, 5170.323
216.3837, 5099.750
216.8659, 5053.866
217.3480, 5026.582
217.8301, 5004.572
218.3122, 4989.038
218.7943, 4976.198
219.2764, 4964.918
219.7586, 4957.078
220.2407, 4945.262
220.7228, 4925.944
221.2049, 4902.732
221.6870, 4889.015
222.1691, 4888.474
222.6513, 4891.932
223.1334, 4895.010
223.6155, 4900.504
224.0976, 4898.978
224.5797, 4886.019
225.0618, 4864.043
225.5440, 4850.365
226.0261, 4845.965
226.5082, 4848.946
226.9903, 4859.475
227.4724, 4884.507
227.9545, 4902.899
228.4367, 4908.741
228.9188, 4902.152
229.4009, 4903.566
229.8830, 4919.372
230.3651, 4936.515
230.8472, 4940.440
231.3293, 4920.048
231.8115, 4906.925
232.2936, 4908.957
232.7757, 4927.682
233.2578, 4945.644
233.7399, 4959.113
234.2220, 4975.063
234.7042, 5004.329
235.1863, 5059.540
235.6684, 5106.824
236.1505, 5136.000
236.6326, 5143.772
237.1147, 5147.506
237.5969, 5139.141
238.0790, 5131.583
238.5611, 5148.141
239.0432, 5210.483
239.5253, 5263.405
240.0074, 5284.455
240.4896, 5255.612
240.9717, 5248.104
241.4538, 5268.490
241.9359, 5307.469
242.4180, 5348.004
242.9001, 5396.923
243.3823, 5436.882
243.8644, 5457.881
244.3465, 5443.035
244.8286, 5446.932
245.3107, 5475.369
245.7928, 5521.729
246.2750, 5567.595
246.7571, 5617.437
247.2392, 5661.122
247.7213, 5691.891
248.2034, 5699.219
248.6855, 5716.502
249.1677, 5744.614
249.6498, 5783.932
250.1319, 5837.311
250.6140, 5918.034
251.0961, 5994.978
251.5782, 6051.846
252.0603, 6087.843
252.5425, 6106.047
253.0246, 6108.088
253.5067, 6092.903
253.9888, 6049.785
254.4709, 5961.587
254.9530, 5869.867
255.4352, 5806.119
255.9173, 5789.188
256.3994, 5753.918
256.8815, 5683.290
257.3636, 5582.356
257.8458, 5507.776
258.3279, 5465.335
258.8100, 5440.802
259.2921, 5426.940
259.7742, 5432.326
260.2563, 5424.358
260.7385, 5388.900
261.2206, 5328.516
261.7027, 5304.332
262.1848, 5333.870
262.6669, 5373.882
263.1490, 5380.785
263.6311, 5339.549
264.1133, 5308.892
264.5954, 5303.608
265.0775, 5323.040
265.5596, 5338.801
266.0417, 5350.776
266.5238, 5359.271
267.0060, 5365.754
267.4881, 5372.423
267.9702, 5369.291
268.4523, 5348.931
268.9344, 5311.115
269.4165, 5292.132
269.8987, 5297.459
270.3808, 5312.355
270.8629, 5318.341
271.3450, 5312.380
271.8271, 5309.939
272.3092, 5316.985
272.7914, 5333.502
273.2735, 5345.879
273.7556, 5353.388
274.2377, 5358.274
274.7198, 5364.098
275.2019, 5371.639
275.6841, 5375.906
276.1662, 5372.833
276.6483, 5362.635
277.1304, 5361.803
277.6125, 5372.164
278.0946, 5388.429
278.5768, 5403.065
279.0589, 5415.831
279.5410, 5430.226
280.0231, 5448.003
280.5052, 5468.905
280.9873, 5489.985
281.4695, 5511.176
281.9516, 5532.258
282.4337, 5545.622
282.9158, 5549.938
283.3979, 5574.595
283.8800, 5654.784
284.3622, 5781.781
284.8443, 5840.558
285.3264, 5818.225
285.8085, 5765.167
286.2906, 5753.626
286.7727, 5782.838
287.2549, 5818.283
287.7370, 5850.928
288.2191, 5878.707
288.7012, 5888.136
289.1833, 5876.761
289.6654, 5854.099
290.1476, 5833.889
290.6297, 5815.477
291.1118, 5789.731
291.5939, 5748.322
292.0760, 5695.792
292.5581, 5645.914
293.0403, 5598.186
293.5224, 5556.562
294.0045, 5527.380
294.4866, 5509.189
294.9687, 5494.134
295.4508, 5479.287
295.9330, 5464.502
296.4151, 5448.048
296.8972, 5428.774
297.3793, 5412.944
297.8614, 5414.578
298.3435, 5428.234
298.8257, 5433.873
299.3078, 5411.465
299.7899, 5376.500
300.2720, 5356.389
300.7541, 5354.797
301.2362, 5359.219
301.7184, 5356.771
302.2005, 5349.902
302.6826, 5345.427
303.1647, 5350.261
303.6468, 5358.133
304.1289, 5361.708
304.6110, 5360.417
305.0931, 5354.708
305.5753, 5339.668
306.0574, 5320.054
306.5395, 5307.203
307.0216, 5313.994
307.5037, 5326.028
307.9858, 5326.859
308.4680, 5311.973
308.9501, 5301.575
309.4322, 5317.053
309.9143, 5346.983
310.3964, 5368.927
310.8785, 5369.377
311.3607, 5360.536
311.8428, 5348.580
312.3249, 5332.519
312.8070, 5321.800
313.2891, 5327.807
313.7712, 5341.568
314.2534, 5348.309
314.7355, 5331.188
315.2176, 5313.542
315.6997, 5309.156
316.1818, 5322.073
316.6639, 5335.461
317.1461, 5340.605
317.6282, 5342.735
318.1103, 5349.307
318.5924, 5362.747
319.0745, 5380.919
319.5566, 5406.011
320.0388, 5441.342
320.5209, 5467.963
321.0030, 5477.907
321.4851, 5477.744
321.9672, 5475.710
322.4493, 5461.766
322.9315, 5456.929
323.4136, 5472.502
323.8957, 5516.217
324.3778, 5546.351
324.8599, 5542.074
325.3420, 5527.967
325.8242, 5532.161
326.3063, 5590.553
326.7884, 5633.381
327.2705, 5636.618
327.7526, 5587.991
328.2347, 5570.434
328.7169, 5608.106
329.1990, 5664.026
329.6811, 5699.148
330.1632, 5690.349
330.6453, 5691.830
331.1274, 5717.428
331.6096, 5769.731
332.0917, 5811.797
332.5738, 5835.572
333.0559, 5855.842
333.5380, 5887.434
334.0201, 5933.823
334.5023, 5983.452
334.9844, 6034.563
335.4665, 6086.840
335.9486, 6144.973
336.4307, 6215.089
336.9128, 6281.638
337.3950, 6327.406
337.8771, 6345.408
338.3592, 6372.477
338.8413, 6420.115
339.3234, 6483.085
339.8055, 6531.478
340.2877, 6563.678
340.7698, 6585.619
341.2519, 6598.104
341.7340, 6600.590
342.2161, 6609.503
342.6982, 6630.554
343.1804, 6658.370
343.6624, 6674.135
344.1446, 6676.120
344.6267, 6681.932
345.1088, 6706.111
345.5909, 6746.680
346.0730, 6792.950
346.5551, 6842.142
347.0373, 6896.332
347.5194, 6966.036
348.0015, 7049.915
348.4836, 7130.424
348.9657, 7190.000
349.4478, 7237.344
349.9300, 7300.781
350.4121, 7397.058
350.8942, 7485.034
351.3763, 7510.633
351.8584, 7480.666
352.3405, 7425.221
352.8227, 7352.305
353.3048, 7267.987
353.7869, 7181.787
354.2690, 7099.690
354.7511, 7005.679
355.2332, 6876.953
355.7154, 6724.552
356.1975, 6578.985
356.6796, 6453.699
357.1617, 6342.859
357.6438, 6241.710
358.1259, 6148.889
358.6081, 6067.592
359.0902, 5998.618
359.5723, 5941.598
360.0544, 5895.918
360.5365, 5870.572
361.0186, 5849.221
361.5008, 5820.787
361.9829, 5780.575
362.4650, 5752.570
362.9471, 5760.298
363.4292, 5778.963
363.9113, 5778.060
364.3935, 5726.602
364.8756, 5677.981
365.3577, 5650.782
365.8398, 5650.028
366.3219, 5642.928
366.8040, 5618.772
367.2862, 5590.394
367.7683, 5569.992
368.2504, 5562.997
368.7325, 5557.425
369.2146, 5547.004
369.6967, 5531.358
370.1789, 5537.654
370.6610, 5586.583
371.1431, 5637.038
371.6252, 5654.215
372.1073, 5615.379
372.5894, 5590.782
373.0716, 5592.333
373.5537, 5615.839
374.0358, 5635.316
374.5179, 5650.304
375.0000, 5662.555
375.4821, 5675.663
375.9643, 5692.404
376.4464, 5692.885
376.9285, 5669.944
377.4106, 5634.058
377.8927, 5612.561
378.3748, 5606.133
378.8570, 5608.478
379.3391, 5619.936
379.8212, 5638.983
380.3033, 5650.840
380.7854, 5652.644
381.2675, 5650.405
381.7497, 5652.687
382.2318, 5659.251
382.7139, 5668.150
383.1960, 5679.457
383.6781, 5692.193
384.1602, 5703.882
384.6423, 5714.342
385.1245, 5724.346
385.6066, 5733.454
386.0887, 5742.757
386.5708, 5754.620
387.0529, 5777.716
387.5350, 5799.928
388.0172, 5802.802
388.4993, 5785.413
388.9814, 5774.326
389.4635, 5787.885
389.9456, 5818.572
390.4277, 5855.993
390.9099, 5912.668
391.3920, 5961.417
391.8741, 5987.789
392.3562, 5992.354
392.8383, 5983.102
393.3204, 5945.565
393.8026, 5904.778
394.2847, 5880.843
394.7668, 5908.229
395.2489, 5919.761
395.7310, 5891.713
396.2131, 5833.354
396.6953, 5784.150
397.1774, 5748.139
397.6595, 5723.774
398.1416, 5711.006
398.6237, 5718.686
399.1058, 5724.450
399.5880, 5728.389
400.0701, 5730.438
400.5522, 5730.468
401.0343, 5728.737
401.5164, 5724.392
401.9985, 5715.570
402.4807, 5699.639
402.9628, 5691.149
403.4449, 5691.952
403.9270, 5697.839
404.4091, 5702.457
404.8912, 5704.643
405.3734, 5710.088
405.8555, 5721.929
406.3376, 5739.374
406.8197, 5753.537
407.3018, 5764.414
407.7839, 5772.207
408.2661, 5774.923
408.7482, 5773.368
409.2303, 5775.909
409.7124, 5786.467
410.1945, 5801.301
410.6766, 5813.124
411.1588, 5821.966
411.6409, 5827.388
412.1230, 5820.497
412.6051, 5810.887
413.0872, 5819.326
413.5693, 5854.988
414.0515, 5900.335
414.5336, 5949.767
415.0157, 5996.930
415.4978, 6023.336
415.9799, 5969.953
416.4620, 5918.416
416.9442, 5960.963
417.4263, 6140.733
417.9084, 6290.902
418.3905, 6290.631
418.8726, 6206.944
419.3547, 6141.688
419.8369, 6127.737
420.3190, 6139.352
420.8011, 6175.764
421.2832, 6240.915
421.7653, 6289.898
422.2474, 6302.807
422.7296, 6301.346
423.2117, 6304.994
423.6938, 6298.371
424.1759, 6316.843
424.6580, 6374.127
425.1401, 6466.000
425.6223, 6549.202
426.1043, 6619.629
426.5865, 6687.328
427.0686, 6758.015
427.5507, 6829.437
428.0328, 6910.492
428.5149, 7005.802
428.9970, 7107.982
429.4792, 7200.470
429.9613, 7285.943
430.4434, 7354.466
430.9255, 7401.979
431.4076, 7428.418
431.8897, 7436.095
432.3719, 7423.800
432.8540, 7396.545
433.3361, 7352.598
433.8182, 7294.905
434.3003, 7249.105
434.7824, 7224.461
435.2646, 7218.276
435.7467, 7228.826
436.2288, 7256.173
436.7109, 7289.020
437.1930, 7312.155
437.6751, 7335.720
438.1573, 7377.122
438.6394, 7448.655
439.1215, 7530.829
439.6036, 7610.751
440.0857, 7688.873
440.5678, 7766.800
441.0500, 7833.862
441.5321, 7908.398
442.0142, 8017.968
442.4963, 8214.788
442.9784, 8332.080
443.4605, 8259.764
443.9427, 8082.082
444.4248, 7944.821
444.9069, 7898.247
445.3890, 7875.300
445.8711, 7865.152
446.3532, 7876.774
446.8354, 7853.330
447.3175, 7789.574
447.7996, 7694.424
448.2817, 7572.500
448.7638, 7409.222
449.2459, 7246.923
449.7281, 7089.131
450.2102, 6936.737
450.6923, 6785.933
451.1744, 6627.189
451.6565, 6493.446
452.1386, 6418.599
452.6208, 6404.750
453.1029, 6378.799
453.5850, 6330.064
454.0671, 6274.087
454.5492, 6237.958
455.0313, 6220.523
455.5135, 6211.023
455.9956, 6203.271
456.4777, 6199.360
456.9598, 6204.521
457.4419, 6219.159
457.9240, 6239.567
458.4062, 6266.584
458.8883, 6296.519
459.3704, 6321.983
459.8525, 6334.412
460.3346, 6346.573
460.8167, 6372.959
461.2989, 6410.769
461.7810, 6439.188
462.2631, 6433.847
462.7452, 6424.648
463.2273, 6434.455
463.7094, 6477.496
464.1916, 6523.626
464.6737, 6568.532
465.1558, 6611.382
465.6379, 6650.338
466.1200, 6672.997
466.6021, 6703.404
467.0842, 6750.083
467.5663, 6817.695
468.0485, 6881.467
468.5306, 6936.724
469.0127, 6992.025
469.4948, 7057.040
469.9769, 7134.739
470.4590, 7212.688
470.9412, 7287.529
471.4233, 7360.742
471.9054, 7450.542
472.3875, 7565.910
472.8696, 7650.697
473.3517, 7650.197
473.8339, 7576.097
474.3160, 7512.545
474.7981, 7473.608
475.2802, 7434.597
475.7623, 7356.081
476.2444, 7245.829
476.7266, 7134.482
477.2087, 7026.212
477.6908, 6931.058
478.1729, 6866.410
478.6550, 6833.225
479.1371, 6800.864
479.6193, 6739.911
480.1014, 6670.960
480.5835, 6617.856
481.0656, 6590.483
481.5477, 6577.788
482.0298, 6582.396
482.5120, 6599.753
482.9941, 6611.215
483.4762, 6598.986
483.9583, 6589.993
484.4404, 6598.044
484.9225, 6634.343
485.4047, 6667.466
485.8868, 6700.686
486.3689, 6729.298
486.8510, 6744.507
487.3331, 6733.270
487.8152, 6735.487
488.2974, 6764.236
488.7795, 6818.092
489.2616, 6867.587
489.7437, 6910.627
490.2258, 6955.954
490.7079, 7009.534
491.1901, 7071.746
491.6722, 7144.831
492.1543, 7238.293
492.6364, 7327.412
493.1185, 7374.973
493.6006, 7382.084
494.0828, 7358.648
494.5649, 7299.051
495.0470, 7216.461
495.5291, 7127.914
496.0112, 7035.024
496.4933, 6933.515
496.9755, 6798.735
497.4576, 6659.950
497.9397, 6550.426
498.4218, 6508.823
498.9039, 6474.323
499.3860, 6417.139
499.8682, 6343.790
500.3503, 6286.421
500.8324, 6267.073
501.3145, 6255.952
501.7966, 6238.190
502.2787, 6210.657
502.7609, 6180.720
503.2430, 6139.351
503.7251, 6099.903
504.2072, 6084.780
504.6893, 6107.393
505.1714, 6123.057
505.6536, 6116.421
506.1357, 6090.696
506.6178, 6080.094
507.0999, 6086.884
507.5820, 6098.765
508.0641, 6107.054
508.5462, 6111.796
509.0284, 6113.033
509.5105, 6108.534
509.9926, 6105.480
510.4747, 6117.311
510.9568, 6140.621
511.4389, 6162.172
511.9211, 6179.839
512.4032, 6189.622
512.8853, 6181.165
513.3674, 6153.569
513.8495, 6133.257
514.3317, 6144.446
514.8138, 6167.087
515.2959, 6181.114
515.7780, 6168.726
516.2601, 6160.567
516.7422, 6171.545
517.2244, 6194.660
517.7065, 6204.623
518.1886, 6182.668
518.6707, 6161.857
519.1528, 6153.974
519.6349, 6162.772
520.1171, 6170.387
520.5992, 6176.417
521.0813, 6181.809
521.5634, 6188.889
522.0455, 6198.961
522.5276, 6202.328
523.0098, 6192.068
523.4919, 6176.260
523.9740, 6183.331
524.4561, 6213.711
524.9382, 6247.903
525.4203, 6273.021
525.9025, 6292.119
526.3846, 6308.888
526.8667, 6320.646
527.3488, 6346.565
527.8309, 6431.135
528.3130, 6540.101
528.7951, 6611.280
529.2772, 6588.581
529.7593, 6548.641
530.2415, 6532.314
530.7236, 6538.283
531.2057, 6549.339
531.6878, 6562.211
532.1699, 6576.726
532.6520, 6593.833
533.1342, 6626.257
533.6163, 6637.998
534.0984, 6607.051
534.5805, 6564.491
535.0626, 6561.025
535.5447, 6621.941
536.0269, 6666.935
536.5090, 6665.240
536.9911, 6626.046
537.4732, 6630.063
537.9553, 6684.602
538.4374, 6749.721
538.9196, 6800.011
539.4017, 6835.584
539.8838, 6853.542
540.3659, 6847.199
540.8480, 6842.785
541.3301, 6883.900
541.8123, 6955.374
542.2944, 7016.217
542.7765, 7028.425
543.2586, 7033.907
543.7407, 7074.640
544.2228, 7148.694
544.7050, 7216.119
545.1871, 7253.895
545.6692, 7279.741
546.1513, 7306.342
546.6334, 7334.713
547.1155, 7365.588
547.5977, 7388.971
548.0798, 7417.155
548.5619, 7474.368
549.0440, 7586.208
549.5261, 7687.660
550.0082, 7757.289
550.4904, 7796.457
550.9725, 7853.345
551.4546, 7931.093
551.9367, 8017.979
552.4188, 8106.610
552.9009, 8196.966
553.3831, 8282.947
553.8652, 8364.205
554.3473, 8440.552
554.8294, 8509.436
555.3115, 8572.277
555.7936, 8632.972
556.2758, 8710.694
556.7579, 8775.737
557.2400, 8800.040
557.7221, 8783.661
558.2042, 8734.369
558.6863, 8635.891
559.1685, 8518.299
559.6506, 8404.158
560.1327, 8298.901
560.6148, 8196.979
561.0969, 8093.733
561.5790, 7993.248
562.0612, 7902.167
562.5433, 7824.808
563.0254, 7750.853
563.5075, 7669.249
563.9896, 7584.509
564.4717, 7546.656
564.9539, 7563.748
565.4360, 7605.137
565.9181, 7653.535
566.4002, 7708.237
566.8823, 7764.634
567.3644, 7822.568
567.8466, 7882.122
568.3287, 7946.084
568.8108, 8012.177
569.2929, 8074.631
569.7750, 8133.961
570.2571, 8185.751
570.7393, 8227.111
571.2214, 8257.781
571.7035, 8272.638
572.1856, 8255.089
572.6677, 8231.117
573.1498, 8216.169
573.6320, 8209.061
574.1141, 8219.948
574.5962, 8258.156
575.0783, 8312.794
575.5604, 8369.110
576.0425, 8426.226
576.5247, 8487.667
577.0068, 8550.693
577.4889, 8618.783
577.9710, 8707.571
578.4531, 8819.037
578.9352, 8940.554
579.4174, 9075.715
579.8995, 9217.100
580.3816, 9330.489
580.8637, 9415.964
581.3458, 9462.722
581.8279, 9452.703
582.3101, 9394.981
582.7922, 9307.338
583.2743, 9191.100
583.7564, 9054.612
584.2385, 8892.620
584.7206, 8712.995
585.2028, 8537.995
585.6849, 8356.244
586.1670, 8198.063
586.6491, 8079.354
587.1312, 8004.886
587.6133, 7951.247
588.0955, 7922.795
588.5776, 7908.049
589.0597, 7898.671
589.5418, 7894.572
590.0239, 7894.142
590.5060, 7892.104
590.9882, 7898.890
591.4703, 7950.464
591.9524, 8048.572
592.4345, 8121.313
592.9166, 8123.845
593.3987, 8083.036
593.8809, 8071.956
594.3630, 8088.276
594.8451, 8081.330
595.3272, 7999.824
595.8093, 7879.583
596.2914, 7763.305
596.7736, 7659.762
597.2557, 7556.397
597.7378, 7440.698
598.2199, 7322.630
598.7020, 7218.026
599.1841, 7132.991
599.6663, 7058.779
600.1484, 6995.359
600.6305, 6941.692
601.1126, 6893.324
601.5947, 6848.818
602.0768, 6812.907
602.5590, 6789.392
603.0411, 6779.365
603.5232, 6773.481
604.0053, 6773.851
604.4874, 6770.382
604.9695, 6729.583
605.4517, 6670.396
605.9338, 6673.339
606.4159, 6792.703
606.8980, 6927.577
607.3801, 6965.068
607.8622, 6927.772
608.3444, 6877.176
608.8265, 6822.405
609.3086, 6779.617
609.7907, 6767.499
610.2728, 6789.662
610.7549, 6789.422
611.2370, 6729.030
611.7191, 6662.016
612.2012, 6622.333
612.6833, 6629.182
613.1655, 6624.344
613.6476, 6600.963
614.1297, 6571.711
614.6118, 6560.251
615.0939, 6568.559
615.5760, 6570.271
616.0582, 6552.339
616.5403, 6526.435
617.0224, 6525.983
617.5045, 6547.960
617.9866, 6563.052
618.4688, 6533.497
618.9509, 6495.741
619.4330, 6500.308
619.9151, 6557.435
620.3972, 6603.452
620.8793, 6582.901
621.3615, 6544.980
621.8436, 6536.954
622.3257, 6610.422
622.8078, 6663.621
623.2899, 6675.446
623.7720, 6661.859
624.2542, 6656.193
624.7363, 6665.169
625.2184, 6666.913
625.7005, 6650.018
626.1826, 6618.514
626.6647, 6607.604
627.1469, 6618.823
627.6290, 6635.020
628.1111, 6647.227
628.5932, 6654.132
629.0753, 6652.268
629.5574, 6641.263
630.0396, 6621.579
630.5217, 6585.071
631.0038, 6542.378
631.4859, 6466.505
631.9680, 6508.021
632.4501, 6528.593
632.9323, 6529.346
633.4144, 6450.926
633.8965, 6474.744
634.3786, 6457.589
634.8607, 6438.754
635.3428, 6476.961
635.8250, 6410.056
636.3071, 6447.357
636.7892, 6443.062
637.2713, 6457.805
637.7534, 6431.323
638.2355, 6417.574
638.7177, 6445.062
639.1998, 6409.860
639.6819, 6403.909
640.1640, 6406.339
640.6461, 6414.138
641.1282, 6420.418
641.6104, 6421.759
642.0925, 6421.774
642.5746, 6424.716
643.0567, 6428.549
643.5388, 6426.714
644.0209, 6404.035
644.5031, 6387.081
644.9852, 6389.970
645.4673, 6414.921
645.9494, 6434.167
646.4315, 6450.107
646.9136, 6457.004
647.3958, 6448.831
647.8779, 6424.397
648.3600, 6396.808
648.8421, 6364.517
649.3242, 6336.889
649.8063, 6324.511
650.2885, 6327.375
650.7706, 6347.270
651.2527, 6402.317
651.7348, 6454.727
652.2169, 6461.713
652.6990, 6434.325
653.1812, 6407.803
653.6633, 6398.085
654.1454, 6392.386
654.6275, 6381.713
655.1096, 6363.477
655.5917, 6361.099
656.0739, 6389.308
656.5560, 6418.797
657.0381, 6430.688
657.5202, 6421.167
658.0023, 6406.684
658.4844, 6382.437
658.9666, 6364.780
659.4487, 6384.320
659.9308, 6434.801
660.4129, 6476.496
660.8950, 6497.987
661.3771, 6504.581
661.8593, 6497.768
662.3414, 6480.575
662.8235, 6462.013
663.3056, 6440.262
663.7877, 6423.778
664.2698, 6419.633
664.7520, 6428.300
665.2341, 6435.334
665.7162, 6435.953
666.1983, 6436.560
666.6804, 6442.699
667.1625, 6462.504
667.6447, 6456.541
668.1268, 6412.321
668.6089, 6365.660
669.0910, 6365.835
669.5731, 6408.163
670.0552, 6440.659
670.5374, 6449.089
671.0195, 6449.469
671.5016, 6467.936
671.9837, 6496.595
672.4658, 6513.415
672.9479, 6489.057
673.4301, 6466.264
673.9122, 6477.455
674.3943, 6518.384
674.8764, 6546.393
675.3585, 6532.849
675.8406, 6521.352
676.3228, 6533.712
676.8049, 6576.712
677.2870, 6605.001
677.7691, 6614.894
678.2512, 6617.736
678.7333, 6624.967
679.2155, 6636.091
679.6976, 6640.423
680.1797, 6636.241
680.6618, 6626.188
681.1439, 6605.905
681.6260, 6582.569
682.1082, 6572.013
682.5903, 6593.209
683.0724, 6617.142
683.5545, 6620.527
684.0366, 6611.612
684.5187, 6617.063
685.0009, 6663.482
685.4830, 6705.157
685.9651, 6726.599
686.4472, 6727.569
686.9293, 6722.775
687.4114, 6705.071
687.8936, 6697.695
688.3757, 6726.190
688.8578, 6786.149
689.3399, 6819.396
689.8220, 6820.708
690.3041, 6811.105
690.7863, 6808.625
691.2684, 6811.910
691.7505, 6819.728
692.2326, 6837.089
692.7147, 6848.874
693.1968, 6834.375
693.6789, 6810.661
694.1610, 6807.269
694.6431, 6859.483
695.1252, 6899.930
695.6074, 6909.032
696.0895, 6894.943
696.5716, 6896.543
697.0537, 6917.982
697.5358, 6941.967
698.0179, 6963.802
698.5001, 6981.946
698.9822, 6986.712
699.4643, 6977.916
699.9464, 6962.739
700.4285, 6942.954
700.9106, 6921.875
701.3928, 6903.623
701.8749, 6888.712
702.3570, 6877.548
702.8391, 6876.652
703.3212, 6876.806
703.8033, 6868.644
704.2855, 6835.985
704.7676, 6815.313
705.2497, 6815.092
705.7318, 6823.720
706.2139, 6817.047
706.6960, 6789.970
707.1782, 6775.568
707.6603, 6785.292
708.1424, 6811.637
708.6245, 6851.082
709.1066, 6897.871
709.5887, 6915.863
710.0709, 6856.039
710.5530, 6775.313
711.0351, 6725.676
711.5172, 6708.684
711.9993, 6707.709
712.4814, 6744.075
712.9636, 6773.389
713.4457, 6762.202
713.9278, 6686.851
714.4099, 6648.241
714.8920, 6656.846
715.3741, 6687.014
715.8563, 6724.423
716.3384, 6769.402
716.8205, 6782.391
717.3026, 6751.078
717.7847, 6709.303
718.2668, 6708.427
718.7490, 6732.904
719.2311, 6744.908
719.7132, 6719.584
720.1953, 6691.897
720.6774, 6685.821
721.1595, 6694.107
721.6417, 6697.959
722.1238, 6685.133
722.6059, 6675.984
723.0880, 6678.010
723.5701, 6689.310
724.0522, 6692.608
724.5344, 6685.367
725.0165, 6678.068
725.4986, 6676.542
725.9807, 6679.799
726.4628, 6682.402
726.9449, 6684.166
727.4271, 6687.709
727.9092, 6696.835
728.3913, 6708.137
728.8734, 6718.520
729.3555, 6728.578
729.8376, 6732.976
730.3198, 6724.961
730.8019, 6712.667
731.2840, 6704.263
731.7661, 6700.314
732.2482, 6700.352
732.7303, 6706.028
733.2125, 6714.215
733.6946, 6719.324
734.1767, 6721.278
734.6588, 6724.503
735.1409, 6730.700
735.6230, 6738.000
736.1052, 6744.996
736.5873, 6750.757
737.0694, 6752.450
737.5515, 6739.328
738.0336, 6729.786
738.5157, 6736.383
738.9979, 6757.776
739.4800, 6780.214
739.9621, 6811.454
740.4442, 6832.533
740.9263, 6834.172
741.4084, 6815.286
741.8906, 6798.319
742.3727, 6781.338
742.8548, 6773.576
743.3369, 6792.480
743.8190, 6827.326
744.3011, 6836.275
744.7833, 6814.046
745.2654, 6789.627
745.7475, 6786.719
746.2296, 6795.521
746.7117, 6805.871
747.1938, 6818.909
747.6760, 6826.753
748.1581, 6823.530
748.6402, 6815.818
749.1223, 6810.723
749.6044, 6806.026
750.0865, 6810.863
750.5687, 6828.976
751.0508, 6853.997
751.5329, 6878.976
752.0150, 6901.899
752.4971, 6905.907
752.9792, 6871.819
753.4614, 6828.031
753.9435, 6807.623
754.4256, 6805.332
754.9077, 6805.359
755.3898, 6803.124
755.8719, 6799.318
756.3541, 6796.051
756.8362, 6792.835
757.3183, 6778.620
757.8004, 6741.054
758.2825, 6714.601
758.7646, 6723.361
759.2468, 6764.283
759.7289, 6773.792
760.2110, 6750.075
760.6931, 6724.366
761.1752, 6723.562
761.6573, 6737.393
762.1395, 6751.974
762.6216, 6766.145
763.1037, 6776.748
763.5858, 6784.513
764.0679, 6786.625
764.5500, 6780.342
765.0322, 6761.274
765.5143, 6739.436
765.9964, 6709.575
766.4785, 6682.383
766.9606, 6671.741
767.4427, 6678.082
767.9249, 6690.788
768.4070, 6709.902
768.8891, 6729.990
769.3712, 6744.469
769.8533, 6753.938
770.3354, 6759.679
770.8176, 6756.873
771.2997, 6756.493
771.7818, 6767.993
772.2639, 6786.458
772.7460, 6798.628
773.2281, 6796.591
773.7103, 6797.236
774.1924, 6808.009
774.6745, 6823.723
775.1566, 6818.991
775.6387, 6791.659
776.1208, 6765.467
776.6029, 6748.558
777.0850, 6742.691
777.5671, 6759.994
778.0493, 6796.398
778.5314, 6823.976
779.0135, 6823.277
779.4956, 6810.047
779.9777, 6789.269
780.4598, 6759.473
780.9420, 6747.171
781.4241, 6764.179
781.9062, 6786.589
782.3883, 6805.259
782.8704, 6821.565
783.3525, 6816.232
783.8347, 6785.494
784.3168, 6754.585
784.7989, 6752.033
785.2810, 6765.329
785.7631, 6768.575
786.2452, 6756.828
786.7274, 6743.046
787.2095, 6728.999
787.6916, 6720.449
788.1737, 6722.988
788.6558, 6747.925
789.1379, 6767.958
789.6201, 6780.405
790.1022, 6789.449
790.5843, 6801.434
791.0664, 6817.148
791.5485, 6824.792
792.0306, 6821.541
792.5128, 6811.520
792.9949, 6795.018
793.4770, 6776.425
793.9591, 6765.678
794.4412, 6769.250
794.9233, 6778.351
795.4055, 6793.381
795.8876, 6810.326
796.3697, 6819.435
796.8518, 6804.146
797.3339, 6807.125
797.8160, 6846.441
798.2982, 6904.322
798.7803, 6921.087
799.2624, 6896.172
799.7445, 6869.608
800.2266, 6858.084
800.7087, 6854.486
801.1909, 6847.802
801.6730, 6839.187
802.1551, 6833.236
802.6372, 6825.572
803.1193, 6827.159
803.6014, 6854.731
804.0836, 6905.768
804.5657, 6919.120
805.0478, 6868.567
805.5299, 6828.300
806.0120, 6836.928
806.4941, 6886.377
806.9763, 6913.476
807.4584, 6918.529
807.9405, 6913.184
808.4226, 6895.847
808.9047, 6878.165
809.3868, 6878.887
809.8690, 6899.068
810.3511, 6913.354
810.8332, 6902.982
811.3153, 6890.550
811.7974, 6889.557
812.2795, 6901.749
812.7617, 6918.402
813.2438, 6944.125
813.7259, 6963.347
814.2080, 6957.807
814.6901, 6933.210
815.1722, 6918.526
815.6544, 6916.399
816.1365, 6916.912
816.6186, 6913.670
817.1007, 6907.436
817.5828, 6897.403
818.0649, 6879.082
818.5471, 6869.670
819.0292, 6879.764
819.5113, 6895.435
819.9934, 6907.265
820.4755, 6916.105
820.9576, 6915.203
821.4398, 6901.687
821.9219, 6885.807
822.4040, 6878.846
822.8861, 6879.609
823.3682, 6886.705
823.8503, 6903.354
824.3325, 6915.910
824.8146, 6910.242
825.2967, 6897.321
825.7788, 6890.703
826.2609, 6904.578
826.7430, 6908.264
827.2252, 6895.819
827.7073, 6877.280
828.1894, 6866.120
828.6715, 6862.221
829.1536, 6868.305
829.6357, 6887.252
830.1179, 6910.582
830.6000, 6930.567
831.0821, 6946.277
831.5642, 6955.465
832.0463, 6955.052
832.5284, 6950.611
833.0106, 6942.163
833.4927, 6931.280
833.9748, 6919.887
834.4569, 6903.374
834.9390, 6898.709
835.4211, 6912.662
835.9033, 6935.430
836.3854, 6945.460
836.8675, 6944.609
837.3496, 6943.653
837.8317, 6948.117
838.3138, 6952.361
838.7960, 6945.121
839.2781, 6934.129
839.7602, 6937.043
840.2423, 6983.490
840.7244, 7014.892
841.2065, 7016.779
841.6887, 6996.248
842.1708, 6969.700
842.6529, 6935.204
843.1350, 6908.888
843.6171, 6892.043
844.0992, 6891.201
844.5814, 6935.407
845.0635, 7008.701
845.5456, 7058.953
846.0277, 7046.557
846.5098, 7018.984
846.9919, 6989.932
847.4741, 6963.896
847.9562, 6956.992
848.4383, 6982.056
848.9204, 6999.688
849.4025, 6994.473
849.8846, 6975.954
850.3668, 6981.924
850.8489, 7009.017
851.3310, 7024.735
851.8131, 6996.882
852.2952, 6961.318
852.7773, 6951.943
853.2595, 6964.653
853.7416, 6981.754
854.2237, 7009.872
854.7058, 7028.101
855.1879, 7029.011
855.6700, 7015.054
856.1522, 6993.143
856.6343, 6959.750
857.1164, 6946.736
857.5985, 6985.374
858.0806, 7043.436
858.5627, 7054.196
859.0448, 7026.837
859.5269, 7002.055
860.0090, 6998.801
860.4911, 7005.976
860.9733, 7025.022
861.4554, 7052.869
861.9375, 7063.114
862.4196, 7044.104
862.9017, 7033.511
863.3839, 7052.343
863.8660, 7087.850
864.3481, 7084.352
864.8302, 7047.611
865.3123, 7023.353
865.7944, 7054.613
866.2766, 7096.955
866.7587, 7113.119
867.2408, 7105.345
867.7229, 7093.496
868.2050, 7066.289
868.6871, 7055.061
869.1693, 7078.037
869.6514, 7125.102
870.1335, 7132.611
870.6156, 7098.239
871.0977, 7066.127
871.5798, 7060.068
872.0620, 7069.840
872.5441, 7086.535
873.0262, 7107.544
873.5083, 7121.803
873.9904, 7119.986
874.4725, 7114.861
874.9547, 7111.181
875.4368, 7108.813
875.9189, 7105.816
876.4010, 7100.574
876.8831, 7047.175
877.3652, 7116.434
877.8474, 7156.331
878.3295, 7168.443
878.8116, 7069.551
879.2937, 7113.998
879.7758, 7101.001
880.2579, 7085.648
880.7401, 7150.270
881.2222, 7067.523
881.7043, 7130.875
882.1864, 7135.908
882.6685, 7167.631
883.1506, 7141.557
883.6328, 7133.335
884.1149, 7182.930
884.5970, 7200.511
885.0791, 7167.783
885.5612, 7201.204
886.0433, 7116.438
886.5255, 7135.384
887.0076, 7199.074
887.4897, 7169.252
887.9718, 7203.730
888.4539, 7213.719
888.9360, 7208.162
889.4182, 7191.416
889.9003, 7208.054
890.3824, 7205.259
890.8645, 7197.093
891.3466, 7188.061
891.8287, 7177.395
892.3109, 7160.590
892.7930, 7141.517
893.2751, 7129.092
893.7572, 7124.360
894.2393, 7130.111
894.7214, 7154.327
895.2036, 7187.667
895.6857, 7213.103
896.1678, 7230.821
896.6499, 7237.386
897.1320, 7228.345
897.6141, 7213.546
898.0963, 7212.735
898.5784, 7219.705
899.0605, 7219.080
899.5426, 7195.262
900.0247, 7174.453
900.5068, 7164.264
900.9890, 7165.485
901.4711, 7179.225
901.9532, 7210.886
902.4353, 7241.902
902.9174, 7274.350
903.3995, 7297.348
903.8817, 7283.449
904.3638, 7244.466
904.8459, 7220.941
905.3280, 7228.289
905.8101, 7243.191
906.2922, 7260.640
906.7744, 7272.854
907.2565, 7268.009
907.7386, 7225.950
908.2207, 7202.531
908.7028, 7203.886
909.1849, 7217.750
909.6671, 7231.164
910.1492, 7243.856
910.6313, 7254.880
911.1134, 7263.843
911.5955, 7271.569
912.0776, 7279.238
912.5598, 7285.661
913.0419, 7289.501
913.5240, 7288.982
914.0061, 7289.314
914.4882, 7293.620
914.9703, 7294.585
915.4525, 7278.890
915.9346, 7249.271
916.4167, 7245.338
916.8988, 7270.713
917.3809, 7308.748
917.8630, 7367.430
918.3452, 7418.139
918.8273, 7425.265
919.3094, 7375.044
919.7915, 7333.852
920.2736, 7300.369
920.7557, 7292.733
921.2379, 7339.862
921.7200, 7440.830
922.2021, 7449.902
922.6842, 7363.533
923.1663, 7288.618
923.6484, 7331.049
924.1306, 7410.594
924.6127, 7437.872
925.0948, 7409.511
925.5769, 7388.405
926.0590, 7401.661
926.5411, 7414.745
927.0233, 7415.098
927.5054, 7404.066
927.9875, 7391.088
928.4696, 7375.979
928.9517, 7368.278
929.4338, 7379.308
929.9160, 7396.795
930.3981, 7403.938
930.8802, 7403.973
931.3623, 7409.839
931.8444, 7438.003
932.3265, 7458.430
932.8087, 7464.179
933.2908, 7456.430
933.7729, 7433.269
934.2550, 7393.238
934.7371, 7366.220
935.2192, 7365.604
935.7014, 7377.920
936.1835, 7389.066
936.6656, 7399.466
937.1477, 7410.031
937.6298, 7421.323
938.1119, 7432.847
938.5941, 7447.019
939.0762, 7459.811
939.5583, 7463.618
940.0404, 7457.618
940.5225, 7453.531
941.0046, 7452.779
941.4867, 7456.519
941.9688, 7471.094
942.4509, 7489.397
942.9330, 7499.983
943.4152, 7496.455
943.8973, 7493.420
944.3794, 7484.773
944.8615, 7485.864
945.3436, 7517.932
945.8257, 7587.899
946.3079, 7619.153
946.7900, 7605.677
947.2721, 7573.374
947.7542, 7525.799
948.2363, 7484.387
948.7184, 7485.571
949.2006, 7538.514
949.6827, 7575.912
950.1648, 7560.872
950.6469, 7539.362
951.1290, 7531.287
951.6111, 7536.425
952.0933, 7546.778
952.5754, 7562.469
953.0575, 7581.049
953.5396, 7601.277
954.0217, 7623.205
954.5038, 7652.196
954.9860, 7684.988
955.4681, 7703.624
955.9502, 7678.436
956.4323, 7667.383
956.9144, 7696.360
957.3965, 7749.116
957.8787, 7758.981
958.3608, 7726.990
958.8429, 7707.333
959.3250, 7731.731
959.8071, 7763.548
960.2892, 7753.248
960.7714, 7721.322
961.2535, 7709.821
961.7356, 7744.735
962.2177, 7783.306
962.6998, 7825.698
963.1819, 7863.432
963.6641, 7883.464
964.1462, 7886.134
964.6283, 7877.057
965.1104, 7855.443
965.5925, 7831.252
966.0746, 7801.016
966.5568, 7780.032
967.0389, 7790.001
967.5210, 7857.435
968.0031, 7895.756
968.4852, 7884.594
968.9673, 7866.056
969.4495, 7874.865
969.9316, 7907.328
970.4137, 7932.680
970.8958, 7949.787
971.3779, 7957.938
971.8600, 7941.086
972.3422, 7926.762
972.8243, 7943.132
973.3064, 7992.268
973.7885, 8025.211
974.2706, 8035.823
974.7527, 8037.480
975.2349, 8028.495
975.7170, 8017.995
976.1991, 8044.934
976.6812, 8101.194
977.1633, 8145.928
977.6454, 8143.729
978.1276, 8138.791
978.6097, 8155.759
979.0918, 8188.906
979.5739, 8222.953
980.0560, 8258.887
980.5381, 8289.173
981.0203, 8310.339
981.5024, 8329.539
981.9845, 8359.742
982.4666, 8396.948
982.9487, 8431.293
983.4308, 8459.750
983.9130, 8486.378
984.3951, 8506.721
984.8772, 8530.839
985.3593, 8568.529
985.8414, 8623.963
986.3235, 8677.870
986.8057, 8730.755
987.2878, 8780.174
987.7699, 8823.060
988.2520, 8861.014
988.7341, 8892.098
989.2162, 8917.055
989.6984, 8952.804
990.1805, 9013.079
990.6626, 9079.368
991.1447, 9144.765
991.6268, 9209.058
992.1089, 9264.322
992.5911, 9309.696
993.0732, 9370.178
993.5553, 9469.567
994.0374, 9577.985
994.5195, 9648.559
995.0016, 9701.292
995.4838, 9787.398
995.9659, 9949.365
996.4480, 10109.70
996.9301, 10260.99
997.4122, 10405.95
997.8943, 10541.52
998.3765, 10671.56
998.8586, 10816.47
999.3407, 10980.48
999.8228, 11155.96
1000.305, 11330.43
1000.787, 11516.01
1001.269, 11729.03
1001.751, 11975.98
1002.233, 12236.80
1002.716, 12514.30
1003.198, 12787.64
1003.680, 13022.47
1004.162, 13240.40
1004.644, 13510.42
1005.126, 13830.93
1005.608, 14150.61
1006.090, 14427.50
1006.572, 14704.59
1007.055, 15004.79
1007.537, 15323.83
1008.019, 15627.47
1008.501, 15908.88
1008.983, 16213.31
1009.465, 16565.52
1009.947, 16926.60
1010.429, 17244.36
1010.911, 17534.86
1011.394, 17833.55
1011.876, 18183.10
1012.358, 18494.81
1012.840, 18730.94
1013.322, 18941.33
1013.804, 19187.16
1014.286, 19469.99
1014.768, 19686.63
1015.251, 19827.96
1015.733, 19910.83
1016.215, 19958.09
1016.697, 19948.59
1017.179, 19855.85
1017.661, 19671.84
1018.143, 19452.82
1018.625, 19198.28
1019.107, 18917.89
1019.590, 18617.15
1020.072, 18293.13
1020.554, 17919.24
1021.036, 17509.78
1021.518, 17114.82
1022.000, 16756.63
1022.482, 16421.74
1022.964, 16121.60
1023.446, 15838.42
1023.929, 15534.24
1024.411, 15194.12
1024.893, 14896.24
1025.375, 14651.33
1025.857, 14445.68
1026.339, 14273.40
1026.821, 14125.14
1027.303, 13986.79
1027.786, 13859.44
1028.268, 13724.08
1028.750, 13578.55
1029.232, 13418.64
1029.714, 13233.91
1030.196, 13026.96
1030.678, 12844.72
1031.160, 12687.23
1031.642, 12523.37
1032.125, 12317.46
1032.607, 12114.40
1033.089, 11955.17
1033.571, 11780.12
1034.053, 11615.34
1034.535, 11489.60
1035.017, 11329.06
1035.499, 11222.07
1035.982, 11141.34
1036.464, 11039.32
1036.946, 10923.37
1037.428, 10816.54
1037.910, 10732.48
1038.392, 10631.61
1038.874, 10470.99
1039.356, 10306.76
1039.839, 10184.50
1040.321, 10108.63
1040.803, 10025.35
1041.285, 9933.616
1041.767, 9839.663
1042.249, 9743.722
1042.731, 9650.481
1043.213, 9564.109
1043.695, 9486.092
1044.177, 9425.103
1044.660, 9394.194
1045.142, 9361.302
1045.624, 9319.915
1046.106, 9271.380
1046.588, 9213.594
1047.070, 9150.916
1047.552, 9096.020
1048.034, 9056.288
1048.517, 9017.785
1048.999, 8968.217
1049.481, 8919.649
1049.963, 8883.920
1050.445, 8864.830
1050.927, 8842.360
1051.409, 8816.043
1051.891, 8788.313
1052.374, 8757.165
1052.856, 8728.053
1053.338, 8710.917
1053.820, 8704.144
1054.302, 8692.578
1054.784, 8673.499
1055.266, 8645.979
1055.748, 8603.625
1056.230, 8558.183
1056.713, 8543.801
1057.195, 8553.283
1057.677, 8552.614
1058.159, 8526.077
1058.641, 8500.468
1059.123, 8492.771
1059.605, 8494.086
1060.087, 8495.806
1060.569, 8499.680
1061.052, 8496.041
1061.534, 8484.668
1062.016, 8467.209
1062.498, 8436.095
1062.980, 8404.960
1063.462, 8397.854
1063.944, 8411.354
1064.426, 8412.807
1064.908, 8367.712
1065.391, 8345.323
1065.873, 8370.125
1066.355, 8418.521
1066.837, 8433.698
1067.319, 8422.193
1067.801, 8412.401
1068.283, 8412.104
1068.765, 8416.018
1069.248, 8423.062
1069.730, 8431.236
1070.212, 8437.330
1070.694, 8438.814
1071.176, 8453.930
1071.658, 8485.221
1072.140, 8510.123
1072.622, 8506.355
1073.104, 8489.076
1073.587, 8477.978
1074.069, 8471.240
1074.551, 8455.596
1075.033, 8406.897
1075.515, 8383.398
1075.997, 8407.413
1076.479, 8448.877
1076.961, 8439.912
1077.443, 8397.773
1077.926, 8383.683
1078.408, 8419.728
1078.890, 8459.896
1079.372, 8486.354
1079.854, 8501.374
1080.336, 8503.456
1080.818, 8490.279
1081.300, 8503.274
1081.783, 8543.981
1082.265, 8585.440
1082.747, 8615.040
1083.229, 8632.574
1083.711, 8623.959
1084.193, 8601.784
1084.675, 8610.994
1085.157, 8683.013
1085.640, 8733.746
1086.122, 8747.996
1086.604, 8743.186
1087.086, 8732.267
1087.568, 8724.378
1088.050, 8752.032
1088.532, 8830.945
1089.014, 8877.023
1089.496, 8824.871
1089.979, 8757.791
1090.461, 8723.357
1090.943, 8716.221
1091.425, 8674.409
1091.907, 8601.225
1092.389, 8540.217
1092.871, 8525.215
1093.353, 8519.836
1093.835, 8492.028
1094.318, 8456.617
1094.800, 8444.361
1095.282, 8465.809
1095.764, 8479.177
1096.246, 8480.670
1096.728, 8476.193
1097.210, 8471.615
1097.692, 8465.277
1098.175, 8450.640
1098.657, 8427.296
1099.139, 8417.483
1099.621, 8434.021
1100.103, 8455.544
1100.585, 8479.396
1101.067, 8500.974
1101.549, 8503.778
1102.031, 8491.610
1102.514, 8479.405
1102.996, 8477.086
1103.478, 8467.395
1103.960, 8433.022
1104.442, 8393.180
1104.924, 8365.478
1105.406, 8349.596
1105.888, 8348.203
1106.370, 8361.602
1106.853, 8382.938
1107.335, 8423.812
1107.817, 8456.480
1108.299, 8450.862
1108.781, 8411.904
1109.263, 8368.220
1109.745, 8308.018
1110.227, 8287.114
1110.710, 8325.488
1111.192, 8388.374
1111.674, 8442.114
1112.156, 8479.081
1112.638, 8480.114
1113.120, 8430.609
1113.602, 8393.503
1114.084, 8387.877
1114.567, 8390.591
1115.049, 8394.432
1115.531, 8396.604
1116.013, 8373.249
1116.495, 8331.524
1116.977, 8312.025
1117.459, 8360.912
1117.941, 8406.583
1118.423, 8416.374
1118.906, 8404.105
1119.388, 8384.063
1119.870, 8354.732
1120.352, 8339.649
1120.834, 8342.085
1121.316, 8345.398
1121.798, 8336.597
1122.280, 8321.337
1122.762, 8301.499
1123.245, 8278.284
1123.727, 8264.934
1124.209, 8264.894
1124.691, 8263.070
1125.173, 8253.022
1125.655, 8242.610
1126.137, 8243.200
1126.619, 8252.184
1127.102, 8265.432
1127.584, 8283.375
1128.066, 8302.012
1128.548, 8320.124
1129.030, 8339.502
1129.512, 8364.801
1129.994, 8392.105
1130.476, 8405.869
1130.958, 8407.350
1131.441, 8403.630
1131.923, 8357.603
1132.405, 8359.112
1132.887, 8482.266
1133.369, 8636.484
1133.851, 8672.039
1134.333, 8597.675
1134.815, 8552.167
1135.297, 8555.824
1135.780, 8567.641
1136.262, 8549.862
1136.744, 8533.708
1137.226, 8548.108
1137.708, 8588.947
1138.190, 8619.081
1138.672, 8637.605
1139.154, 8653.511
1139.637, 8675.537
1140.119, 8686.246
1140.601, 8648.804
1141.083, 8593.987
1141.565, 8569.340
1142.047, 8604.937
1142.529, 8614.366
1143.011, 8594.487
1143.494, 8560.615
1143.976, 8518.352
1144.458, 8472.639
1144.940, 8427.779
1145.422, 8386.104
1145.904, 8357.511
1146.386, 8354.935
1146.868, 8354.463
1147.350, 8355.938
1147.833, 8353.302
1148.315, 8327.582
1148.797, 8291.192
1149.279, 8286.433
1149.761, 8321.019
1150.243, 8348.539
1150.725, 8345.564
1151.207, 8330.352
1151.689, 8303.906
1152.172, 8274.269
1152.654, 8280.009
1153.136, 8315.615
1153.618, 8342.243
1154.100, 8345.194
1154.582, 8339.181
1155.064, 8329.482
1155.546, 8317.269
1156.028, 8301.923
1156.511, 8281.851
1156.993, 8277.434
1157.475, 8288.858
1157.957, 8302.472
1158.439, 8308.570
1158.921, 8313.978
1159.403, 8328.240
1159.885, 8345.296
1160.368, 8347.020
1160.850, 8325.205
1161.332, 8322.927
1161.814, 8347.561
1162.296, 8379.486
1162.778, 8408.276
1163.260, 8426.510
1163.742, 8418.691
1164.224, 8384.374
1164.707, 8368.205
1165.189, 8374.053
1165.671, 8395.305
1166.153, 8435.600
1166.635, 8479.813
1167.117, 8497.562
1167.599, 8502.925
1168.081, 8523.577
1168.563, 8576.184
1169.046, 8609.919
1169.528, 8611.583
1170.010, 8610.660
1170.492, 8624.694
1170.974, 8649.341
1171.456, 8674.656
1171.938, 8699.587
1172.420, 8722.091
1172.903, 8746.936
1173.385, 8760.234
1173.867, 8754.270
1174.349, 8743.960
1174.831, 8746.585
1175.313, 8759.287
1175.795, 8765.155
1176.277, 8764.244
1176.760, 8770.170
1177.242, 8805.932
1177.724, 8831.963
1178.206, 8831.587
1178.688, 8811.981
1179.170, 8780.874
1179.652, 8741.478
1180.134, 8728.831
1180.616, 8755.050
1181.099, 8773.660
1181.581, 8742.545
1182.063, 8701.463
1182.545, 8681.391
1183.027, 8678.271
1183.509, 8645.724
1183.991, 8585.570
1184.473, 8543.935
1184.955, 8548.539
1185.438, 8559.674
1185.920, 8550.889
1186.402, 8528.389
1186.884, 8498.386
1187.366, 8459.263
1187.848, 8425.357
1188.330, 8396.687
1188.812, 8376.026
1189.295, 8369.340
1189.777, 8340.642
1190.259, 8377.157
1190.741, 8395.559
1191.223, 8396.828
1191.705, 8328.959
1192.187, 8350.910
1192.669, 8337.196
1193.151, 8322.245
1193.634, 8357.506
1194.116, 8300.907
1194.598, 8335.854
1195.080, 8334.590
1195.562, 8350.241
1196.044, 8330.007
1196.526, 8321.164
1197.008, 8348.693
1197.490, 8356.450
1197.973, 8332.997
1198.455, 8351.126
1198.937, 8295.625
1199.419, 8305.179
1199.901, 8316.073
1200.383, 8318.376
1200.865, 8320.108
1201.347, 8325.835
1201.830, 8332.379
1202.312, 8334.716
1202.794, 8333.825
1203.276, 8331.358
1203.758, 8327.213
1204.240, 8322.530
1204.722, 8317.857
1205.204, 8311.404
1205.687, 8297.014
1206.169, 8282.265
1206.651, 8289.605
1207.133, 8309.979
1207.615, 8314.524
1208.097, 8265.410
1208.579, 8245.907
1209.061, 8272.494
1209.543, 8309.031
1210.026, 8311.363
1210.508, 8296.570
1210.990, 8302.636
1211.472, 8329.414
1211.954, 8348.948
1212.436, 8348.353
1212.918, 8344.695
1213.400, 8338.595
1213.882, 8335.096
1214.365, 8348.087
1214.847, 8368.604
1215.329, 8374.109
1215.811, 8359.179
1216.293, 8351.366
1216.775, 8362.771
1217.257, 8375.627
1217.739, 8384.400
1218.222, 8389.736
1218.704, 8394.633
1219.186, 8397.227
1219.668, 8392.800
1220.150, 8378.656
1220.632, 8360.266
1221.114, 8325.069
1221.596, 8307.871
1222.078, 8342.461
1222.561, 8405.106
1223.043, 8409.306
1223.525, 8372.382
1224.007, 8345.864
1224.489, 8360.527
1224.971, 8373.856
1225.453, 8380.179
1225.935, 8381.647
1226.417, 8377.745
1226.900, 8370.855
1227.382, 8369.126
1227.864, 8372.039
1228.346, 8375.646
1228.828, 8382.218
1229.310, 8383.271
1229.792, 8375.227
1230.274, 8364.275
1230.756, 8358.721
1231.239, 8356.529
1231.721, 8349.732
1232.203, 8338.184
1232.685, 8332.559
1233.167, 8336.453
1233.649, 8350.704
1234.131, 8383.854
1234.613, 8416.152
1235.096, 8395.436
1235.578, 8345.675
1236.060, 8336.202
1236.542, 8383.663
1237.024, 8426.661
1237.506, 8449.715
1237.988, 8454.220
1238.470, 8434.238
1238.953, 8401.678
1239.435, 8382.500
1239.917, 8375.792
1240.399, 8384.016
1240.881, 8420.089
1241.363, 8427.701
1241.845, 8367.900
1242.327, 8320.807
1242.809, 8339.762
1243.292, 8395.776
1243.774, 8400.009
1244.256, 8370.019
1244.738, 8356.198
1245.220, 8389.920
1245.702, 8417.730
1246.184, 8434.835
1246.666, 8442.021
1247.148, 8429.920
1247.631, 8411.337
1248.113, 8434.071
1248.595, 8483.560
1249.077, 8508.155
1249.559, 8464.927
1250.041, 8429.317
1250.523, 8407.507
1251.005, 8397.641
1251.488, 8405.648
1251.970, 8420.672
1252.452, 8416.608
1252.934, 8396.365
1253.416, 8386.506
1253.898, 8401.485
1254.380, 8417.036
1254.862, 8431.491
1255.344, 8441.578
1255.827, 8442.955
1256.309, 8437.121
1256.791, 8420.824
1257.273, 8395.119
1257.755, 8388.650
1258.237, 8415.499
1258.719, 8436.155
1259.201, 8439.702
1259.683, 8436.952
1260.166, 8441.134
1260.648, 8450.087
1261.130, 8463.216
1261.612, 8481.332
1262.094, 8485.855
1262.576, 8470.838
1263.058, 8461.989
1263.540, 8472.296
1264.023, 8484.243
1264.505, 8460.290
1264.987, 8429.310
1265.469, 8436.885
1265.951, 8503.544
1266.433, 8531.868
1266.915, 8516.131
1267.397, 8493.854
1267.880, 8476.551
1268.362, 8469.771
1268.844, 8487.596
1269.326, 8516.829
1269.808, 8539.021
1270.290, 8554.439
1270.772, 8552.310
1271.254, 8530.978
1271.736, 8510.304
1272.219, 8506.897
1272.701, 8504.192
1273.183, 8479.670
1273.665, 8450.470
1274.147, 8444.704
1274.629, 8466.935
1275.111, 8485.877
1275.593, 8501.220
1276.075, 8512.921
1276.558, 8514.814
1277.040, 8519.753
1277.522, 8549.920
1278.004, 8581.488
1278.486, 8569.654
1278.968, 8513.779
1279.450, 8490.412
1279.932, 8503.831
1280.415, 8521.939
1280.897, 8522.613
1281.379, 8523.369
1281.861, 8533.915
1282.343, 8549.138
1282.825, 8563.552
1283.307, 8576.106
1283.789, 8576.828
1284.271, 8564.851
1284.754, 8551.609
1285.236, 8535.869
1285.718, 8530.286
1286.200, 8541.603
1286.682, 8561.853
1287.164, 8580.718
1287.646, 8594.909
1288.128, 8592.227
1288.610, 8569.800
1289.093, 8547.855
1289.575, 8523.415
1290.057, 8516.385
1290.539, 8537.223
1291.021, 8572.068
1291.503, 8602.396
1291.985, 8623.584
1292.467, 8621.521
1292.950, 8588.671
1293.432, 8570.909
1293.914, 8583.152
1294.396, 8586.052
1294.878, 8558.118
1295.360, 8524.918
1295.842, 8536.891
1296.324, 8567.845
1296.807, 8576.912
1297.289, 8549.546
1297.771, 8533.372
##END=



