##NAMES=Hurlbutite
##RRUFFID=R090048
##IDEAL CHEMISTRY=CaBe_2_P_2_O_8_
##LOCALITY=Smith mine, Chandler's Mill, Newport, New Hampshire
##OWNER=RRUFF
##SOURCE=University of Arizona Mineral Museum 1636
##DESCRIPTION=Colorless glassy grains in matrix, associated with, and hard to visually distinguish from quartz
##STATUS=The identification of this mineral has been confirmed by single-crystal X-ray diffraction.
##URL=rruff.info/R090048
89.78156, 0.0000000E+00
90.26367, 37.81039
90.74579, 36.92383
91.22791, 37.25556
91.71002, 38.68039
92.19214, 40.10692
92.67426, 40.69405
93.15638, 40.59656
93.63850, 40.17727
94.12061, 39.18773
94.60273, 38.04877
95.08485, 37.30984
95.56696, 36.81599
96.04908, 37.80781
96.53120, 43.76920
97.01331, 54.23064
97.49543, 61.77308
97.97755, 61.75834
98.45966, 54.65644
98.94178, 49.29547
99.42390, 45.97638
99.90602, 44.06508
100.3881, 42.39705
100.8703, 40.98039
101.3524, 39.75027
101.8345, 38.49657
102.3166, 37.01262
102.7987, 36.57244
103.2808, 37.80828
103.7630, 40.14082
104.2451, 40.78363
104.7272, 38.59581
105.2093, 36.23400
105.6914, 35.44392
106.1735, 36.93642
106.6557, 38.82930
107.1378, 41.21400
107.6199, 44.15221
108.1020, 46.10724
108.5841, 46.42769
109.0662, 46.11688
109.5484, 46.07881
110.0305, 45.23312
110.5126, 45.72750
110.9947, 48.14953
111.4768, 52.86235
111.9590, 57.92938
112.4411, 64.76707
112.9232, 71.52355
113.4053, 75.61752
113.8874, 73.58642
114.3695, 71.31752
114.8517, 70.95668
115.3338, 73.00699
115.8159, 76.34379
116.2980, 80.81396
116.7801, 86.38868
117.2622, 92.93107
117.7444, 100.8415
118.2265, 109.4845
118.7086, 118.2212
119.1907, 125.9983
119.6728, 135.4160
120.1549, 148.3520
120.6371, 164.3319
121.1192, 181.5065
121.6013, 198.8472
122.0834, 216.6452
122.5655, 235.1191
123.0476, 254.0401
123.5298, 273.9218
124.0119, 295.2147
124.4940, 317.9066
124.9761, 341.9269
125.4582, 367.6865
125.9404, 394.5670
126.4225, 421.1484
126.9046, 448.1996
127.3867, 474.2116
127.8688, 496.6082
128.3509, 515.2748
128.8331, 531.4396
129.3152, 545.6308
129.7973, 558.1926
130.2794, 570.5012
130.7615, 581.2719
131.2436, 592.0155
131.7258, 608.1407
132.2079, 630.3422
132.6900, 656.4834
133.1721, 683.8050
133.6542, 712.1949
134.1364, 741.7022
134.6185, 773.1439
135.1006, 806.5588
135.5827, 838.8419
136.0648, 869.4707
136.5469, 899.5092
137.0291, 932.1956
137.5112, 968.0824
137.9933, 1003.455
138.4754, 1035.964
138.9575, 1064.767
139.4396, 1093.953
139.9218, 1122.902
140.4039, 1152.441
140.8860, 1186.260
141.3681, 1224.456
141.8502, 1266.447
142.3323, 1309.955
142.8145, 1353.186
143.2966, 1404.848
143.7787, 1471.345
144.2608, 1552.684
144.7429, 1616.595
145.2250, 1673.062
145.7072, 1703.712
146.1893, 1687.203
146.6714, 1583.514
147.1535, 1492.368
147.6356, 1432.705
148.1178, 1407.138
148.5999, 1396.028
149.0820, 1405.224
149.5641, 1426.530
150.0462, 1450.410
150.5283, 1480.219
151.0105, 1508.953
151.4926, 1520.372
151.9747, 1523.756
152.4568, 1531.265
152.9389, 1545.598
153.4210, 1563.463
153.9032, 1580.540
154.3853, 1595.266
154.8674, 1609.911
155.3495, 1624.613
155.8316, 1637.984
156.3137, 1654.979
156.7959, 1677.596
157.2780, 1704.149
157.7601, 1731.390
158.2422, 1758.660
158.7243, 1786.630
159.2065, 1816.471
159.6886, 1851.612
160.1707, 1882.854
160.6528, 1915.154
161.1349, 1942.781
161.6170, 1950.216
162.0992, 1921.802
162.5813, 1877.904
163.0634, 1830.894
163.5455, 1777.177
164.0276, 1729.365
164.5097, 1691.119
164.9919, 1662.665
165.4740, 1645.303
165.9561, 1644.335
166.4382, 1652.493
166.9203, 1663.331
167.4024, 1676.472
167.8846, 1690.310
168.3667, 1704.720
168.8488, 1719.467
169.3309, 1732.940
169.8130, 1742.123
170.2952, 1750.081
170.7773, 1760.474
171.2594, 1775.591
171.7415, 1792.833
172.2236, 1809.416
172.7057, 1825.529
173.1879, 1844.412
173.6700, 1868.300
174.1521, 1896.570
174.6342, 1928.186
175.1163, 1963.245
175.5984, 2001.501
176.0806, 2043.957
176.5627, 2090.835
177.0448, 2136.250
177.5269, 2187.411
178.0090, 2234.081
178.4911, 2253.032
178.9733, 2215.427
179.4554, 2149.910
179.9375, 2097.125
180.4196, 2057.735
180.9017, 2034.023
181.3838, 2032.780
181.8660, 2050.631
182.3481, 2075.754
182.8302, 2103.073
183.3123, 2133.684
183.7944, 2172.448
184.2766, 2221.438
184.7587, 2270.159
185.2408, 2318.633
185.7229, 2362.097
186.2050, 2373.098
186.6871, 2320.847
187.1693, 2221.656
187.6514, 2134.754
188.1335, 2059.163
188.6156, 2002.195
189.0977, 1975.745
189.5798, 1979.226
190.0620, 1998.780
190.5441, 2029.825
191.0262, 2071.922
191.5083, 2123.180
191.9904, 2186.585
192.4725, 2253.823
192.9547, 2310.235
193.4368, 2356.032
193.9189, 2400.377
194.4010, 2447.184
194.8831, 2496.534
195.3652, 2549.516
195.8474, 2606.062
196.3295, 2666.510
196.8116, 2737.767
197.2937, 2822.202
197.7758, 2893.625
198.2579, 2942.361
198.7401, 2968.874
199.2222, 2949.172
199.7043, 2868.983
200.1864, 2756.586
200.6685, 2671.745
201.1507, 2615.526
201.6328, 2584.113
202.1149, 2577.348
202.5970, 2596.102
203.0791, 2630.019
203.5612, 2677.877
204.0434, 2740.111
204.5255, 2818.535
205.0076, 2914.297
205.4897, 3022.122
205.9718, 3139.351
206.4539, 3266.158
206.9361, 3401.951
207.4182, 3549.445
207.9003, 3704.333
208.3824, 3879.281
208.8645, 4112.757
209.3466, 4267.128
209.8288, 4251.978
210.3109, 4043.742
210.7930, 3760.157
211.2751, 3374.163
211.7572, 2930.356
212.2393, 2578.114
212.7215, 2332.256
213.2036, 2152.032
213.6857, 2019.627
214.1678, 1944.445
214.6499, 1885.012
215.1320, 1840.174
215.6142, 1807.632
216.0963, 1778.430
216.5784, 1752.254
217.0605, 1730.106
217.5426, 1713.221
218.0247, 1703.311
218.5069, 1694.007
218.9890, 1684.399
219.4711, 1674.965
219.9532, 1667.956
220.4353, 1664.151
220.9175, 1661.401
221.3996, 1658.310
221.8817, 1654.618
222.3638, 1651.308
222.8459, 1648.240
223.3280, 1645.596
223.8102, 1644.795
224.2923, 1647.197
224.7744, 1649.315
225.2565, 1648.439
225.7386, 1642.198
226.2207, 1638.764
226.7029, 1639.693
227.1850, 1644.106
227.6671, 1647.445
228.1492, 1649.168
228.6313, 1650.582
229.1134, 1652.454
229.5956, 1654.931
230.0777, 1657.587
230.5598, 1660.446
231.0419, 1663.493
231.5240, 1666.558
232.0062, 1669.113
232.4883, 1672.444
232.9704, 1677.375
233.4525, 1684.301
233.9346, 1691.913
234.4167, 1699.846
234.8989, 1708.333
235.3810, 1718.735
235.8631, 1733.085
236.3452, 1746.823
236.8273, 1757.213
237.3094, 1762.206
237.7916, 1768.157
238.2737, 1775.472
238.7558, 1784.006
239.2379, 1793.525
239.7200, 1805.182
240.2021, 1816.241
240.6843, 1825.194
241.1664, 1830.970
241.6485, 1836.863
242.1306, 1842.317
242.6127, 1848.048
243.0948, 1856.697
243.5770, 1869.597
244.0591, 1883.691
244.5412, 1897.114
245.0233, 1908.639
245.5054, 1922.545
245.9876, 1939.479
246.4697, 1958.794
246.9518, 1979.023
247.4339, 2000.381
247.9160, 2022.443
248.3981, 2044.368
248.8803, 2064.485
249.3624, 2089.094
249.8445, 2120.841
250.3266, 2156.452
250.8087, 2187.768
251.2908, 2216.140
251.7730, 2237.508
252.2551, 2250.304
252.7372, 2255.948
253.2193, 2249.351
253.7014, 2229.037
254.1835, 2197.243
254.6657, 2157.557
255.1478, 2104.114
255.6299, 2052.963
256.1120, 2009.861
256.5941, 1975.780
257.0763, 1948.004
257.5584, 1927.712
258.0405, 1912.708
258.5226, 1899.021
259.0047, 1886.485
259.4868, 1875.387
259.9690, 1865.946
260.4511, 1858.246
260.9332, 1851.786
261.4153, 1846.296
261.8974, 1842.197
262.3795, 1840.560
262.8617, 1842.292
263.3438, 1844.252
263.8259, 1845.392
264.3080, 1845.571
264.7901, 1845.601
265.2722, 1844.869
265.7544, 1844.686
266.2365, 1847.265
266.7186, 1853.421
267.2007, 1859.777
267.6828, 1865.201
268.1649, 1869.693
268.6471, 1874.860
269.1292, 1881.708
269.6113, 1887.827
270.0934, 1891.095
270.5755, 1892.400
271.0576, 1887.271
271.5398, 1872.680
272.0219, 1848.860
272.5040, 1828.602
272.9861, 1812.482
273.4682, 1799.148
273.9503, 1786.965
274.4325, 1775.745
274.9146, 1767.190
275.3967, 1762.177
275.8788, 1760.283
276.3610, 1758.573
276.8431, 1757.015
277.3252, 1755.788
277.8073, 1755.134
278.2894, 1755.096
278.7715, 1755.181
279.2537, 1755.118
279.7358, 1755.171
280.2179, 1756.935
280.7000, 1760.941
281.1821, 1764.357
281.6642, 1763.829
282.1464, 1759.323
282.6285, 1757.566
283.1106, 1760.139
283.5927, 1765.717
284.0748, 1770.826
284.5569, 1775.398
285.0391, 1780.123
285.5212, 1785.682
286.0033, 1791.969
286.4854, 1798.156
286.9675, 1804.427
287.4496, 1810.046
287.9318, 1813.521
288.4139, 1814.844
288.8960, 1814.741
289.3781, 1813.792
289.8602, 1811.874
290.3423, 1807.876
290.8245, 1801.147
291.3066, 1793.799
291.7887, 1790.240
292.2708, 1789.958
292.7529, 1788.123
293.2350, 1779.930
293.7172, 1767.986
294.1993, 1760.834
294.6814, 1759.242
295.1635, 1760.470
295.6456, 1762.247
296.1277, 1764.268
296.6099, 1765.214
297.0920, 1763.150
297.5741, 1759.841
298.0562, 1759.159
298.5383, 1761.313
299.0204, 1764.036
299.5026, 1764.899
299.9847, 1764.533
300.4668, 1764.654
300.9489, 1766.537
301.4311, 1768.995
301.9132, 1770.606
302.3953, 1771.386
302.8774, 1771.078
303.3595, 1767.693
303.8416, 1763.339
304.3238, 1761.862
304.8059, 1766.739
305.2880, 1772.847
305.7701, 1774.289
306.2522, 1771.771
306.7343, 1769.532
307.2165, 1770.909
307.6986, 1773.988
308.1807, 1776.270
308.6628, 1776.588
309.1449, 1776.879
309.6270, 1779.100
310.1092, 1782.651
310.5913, 1785.557
311.0734, 1785.663
311.5555, 1785.205
312.0376, 1786.423
312.5197, 1790.512
313.0019, 1794.103
313.4840, 1794.709
313.9661, 1793.498
314.4482, 1792.864
314.9303, 1793.957
315.4124, 1795.880
315.8946, 1798.229
316.3767, 1801.073
316.8588, 1803.881
317.3409, 1806.883
317.8230, 1809.655
318.3051, 1811.627
318.7873, 1812.216
319.2694, 1812.375
319.7515, 1812.018
320.2336, 1811.034
320.7157, 1811.427
321.1978, 1814.558
321.6800, 1818.938
322.1621, 1823.216
322.6442, 1828.327
323.1263, 1832.051
323.6084, 1832.796
324.0905, 1830.848
324.5727, 1830.703
325.0548, 1834.226
325.5369, 1838.974
326.0190, 1843.471
326.5012, 1847.850
326.9833, 1851.744
327.4654, 1854.269
327.9475, 1856.060
328.4296, 1859.625
328.9117, 1867.036
329.3939, 1874.385
329.8760, 1879.891
330.3581, 1880.823
330.8402, 1884.974
331.3223, 1893.880
331.8044, 1905.544
332.2866, 1915.876
332.7687, 1923.314
333.2508, 1931.461
333.7329, 1941.521
334.2150, 1953.800
334.6971, 1966.585
335.1793, 1979.849
335.6614, 1993.801
336.1435, 2009.156
336.6256, 2027.714
337.1077, 2043.255
337.5898, 2053.097
338.0720, 2057.772
338.5541, 2064.867
339.0362, 2075.468
339.5183, 2086.358
340.0004, 2093.797
340.4825, 2097.094
340.9647, 2102.661
341.4468, 2112.120
341.9289, 2124.275
342.4110, 2135.130
342.8931, 2144.248
343.3752, 2154.212
343.8574, 2166.048
344.3395, 2179.903
344.8216, 2197.457
345.3037, 2219.683
345.7858, 2243.932
346.2679, 2264.900
346.7501, 2283.001
347.2322, 2302.334
347.7143, 2326.690
348.1964, 2354.223
348.6785, 2379.678
349.1607, 2403.294
349.6428, 2424.015
350.1249, 2443.121
350.6070, 2459.122
351.0891, 2467.573
351.5713, 2467.925
352.0534, 2459.005
352.5355, 2437.465
353.0176, 2403.744
353.4997, 2362.813
353.9818, 2314.072
354.4640, 2261.927
354.9461, 2212.197
355.4282, 2165.990
355.9103, 2124.225
356.3924, 2087.374
356.8745, 2055.424
357.3567, 2029.099
357.8388, 2011.271
358.3209, 1997.576
358.8030, 1984.030
359.2851, 1969.654
359.7672, 1956.417
360.2494, 1944.960
360.7315, 1935.363
361.2136, 1927.927
361.6957, 1923.274
362.1778, 1920.265
362.6599, 1918.740
363.1421, 1918.871
363.6242, 1918.798
364.1063, 1918.180
364.5884, 1916.970
365.0705, 1915.125
365.5526, 1910.574
366.0348, 1907.512
366.5169, 1908.073
366.9990, 1911.933
367.4811, 1913.588
367.9632, 1910.241
368.4453, 1906.098
368.9275, 1903.541
369.4096, 1902.223
369.8917, 1903.044
370.3738, 1907.668
370.8559, 1914.405
371.3380, 1918.437
371.8202, 1918.682
372.3023, 1917.730
372.7844, 1916.237
373.2665, 1913.741
373.7487, 1912.773
374.2308, 1914.135
374.7129, 1916.234
375.1950, 1916.524
375.6771, 1913.952
376.1592, 1913.089
376.6414, 1915.848
377.1235, 1921.710
377.6056, 1925.422
378.0877, 1926.796
378.5698, 1926.800
379.0519, 1925.634
379.5341, 1923.299
380.0162, 1922.281
380.4983, 1922.915
380.9804, 1925.222
381.4625, 1930.186
381.9446, 1937.789
382.4268, 1944.314
382.9089, 1946.871
383.3910, 1946.500
383.8731, 1946.416
384.3552, 1946.740
384.8373, 1947.927
385.3195, 1951.045
385.8016, 1955.534
386.2837, 1959.822
386.7658, 1963.378
387.2479, 1966.214
387.7300, 1967.501
388.2122, 1967.371
388.6943, 1968.771
389.1764, 1975.869
389.6585, 1985.117
390.1406, 1991.700
390.6227, 1992.489
391.1049, 1992.851
391.5870, 1997.482
392.0691, 2004.744
392.5512, 2009.713
393.0333, 2009.766
393.5154, 2007.059
393.9976, 2002.477
394.4797, 1995.480
394.9618, 1988.959
395.4439, 1983.770
395.9260, 1979.607
396.4081, 1976.076
396.8903, 1973.271
397.3724, 1970.883
397.8545, 1968.895
398.3366, 1967.320
398.8188, 1965.814
399.3009, 1963.561
399.7830, 1961.903
400.2651, 1961.739
400.7472, 1964.399
401.2293, 1966.502
401.7115, 1967.282
402.1936, 1967.444
402.6757, 1969.324
403.1578, 1974.046
403.6399, 1978.546
404.1220, 1981.406
404.6042, 1982.338
405.0863, 1983.445
405.5684, 1984.944
406.0505, 1986.240
406.5326, 1986.024
407.0147, 1983.903
407.4969, 1983.370
407.9790, 1985.626
408.4611, 1990.137
408.9432, 1995.105
409.4253, 2000.598
409.9074, 2005.694
410.3896, 2009.086
410.8717, 2011.329
411.3538, 2014.922
411.8359, 2020.276
412.3180, 2026.882
412.8001, 2034.004
413.2823, 2041.651
413.7644, 2050.396
414.2465, 2061.308
414.7286, 2073.092
415.2107, 2084.465
415.6928, 2095.270
416.1750, 2105.245
416.6571, 2113.634
417.1392, 2121.129
417.6213, 2128.935
418.1034, 2136.934
418.5855, 2145.792
419.0677, 2155.892
419.5498, 2167.188
420.0319, 2179.095
420.5140, 2190.889
420.9961, 2203.730
421.4782, 2218.138
421.9604, 2233.665
422.4425, 2252.058
422.9246, 2274.170
423.4067, 2299.027
423.8889, 2325.625
424.3710, 2352.033
424.8531, 2382.005
425.3352, 2416.927
425.8173, 2456.773
426.2994, 2496.005
426.7816, 2534.154
427.2637, 2571.830
427.7458, 2609.580
428.2279, 2649.108
428.7100, 2686.208
429.1921, 2722.433
429.6743, 2754.696
430.1564, 2775.253
430.6385, 2784.445
431.1206, 2780.531
431.6027, 2759.892
432.0848, 2723.065
432.5670, 2684.925
433.0491, 2643.849
433.5312, 2607.749
434.0133, 2584.287
434.4954, 2572.895
434.9775, 2569.972
435.4597, 2575.214
435.9418, 2587.705
436.4239, 2607.101
436.9060, 2632.778
437.3881, 2661.816
437.8702, 2694.165
438.3524, 2728.022
438.8345, 2760.973
439.3166, 2792.777
439.7987, 2823.439
440.2808, 2861.007
440.7629, 2896.000
441.2451, 2913.322
441.7272, 2909.126
442.2093, 2884.150
442.6914, 2832.863
443.1735, 2758.114
443.6556, 2678.311
444.1378, 2589.806
444.6199, 2505.128
445.1020, 2432.677
445.5841, 2375.442
446.0662, 2327.339
446.5483, 2290.419
447.0305, 2261.691
447.5126, 2236.153
447.9947, 2215.485
448.4768, 2196.042
448.9590, 2176.535
449.4411, 2156.978
449.9232, 2140.805
450.4053, 2128.276
450.8874, 2118.458
451.3695, 2110.785
451.8517, 2105.138
452.3338, 2102.026
452.8159, 2102.108
453.2980, 2104.032
453.7801, 2105.346
454.2622, 2106.041
454.7444, 2105.942
455.2265, 2103.422
455.7086, 2099.854
456.1907, 2101.802
456.6728, 2109.591
457.1549, 2119.317
457.6371, 2127.950
458.1192, 2135.832
458.6013, 2144.053
459.0834, 2152.907
459.5655, 2161.983
460.0476, 2170.778
460.5298, 2179.416
461.0119, 2187.798
461.4940, 2196.373
461.9761, 2204.555
462.4582, 2211.465
462.9403, 2216.964
463.4225, 2223.263
463.9046, 2231.139
464.3867, 2240.477
464.8688, 2250.973
465.3509, 2261.880
465.8330, 2274.802
466.3152, 2290.622
466.7973, 2308.794
467.2794, 2327.250
467.7615, 2344.809
468.2436, 2363.933
468.7257, 2385.646
469.2079, 2409.945
469.6900, 2435.579
470.1721, 2462.768
470.6542, 2490.808
471.1363, 2519.567
471.6184, 2549.966
472.1006, 2577.896
472.5827, 2604.140
473.0648, 2626.540
473.5469, 2639.906
474.0291, 2644.572
474.5112, 2636.478
474.9933, 2609.555
475.4754, 2567.151
475.9575, 2520.794
476.4396, 2469.792
476.9218, 2423.242
477.4039, 2392.239
477.8860, 2373.387
478.3681, 2359.423
478.8502, 2349.005
479.3323, 2341.306
479.8145, 2334.842
480.2966, 2330.172
480.7787, 2329.529
481.2608, 2336.552
481.7429, 2346.115
482.2250, 2354.721
482.7072, 2361.751
483.1893, 2369.032
483.6714, 2376.069
484.1535, 2384.194
484.6356, 2394.735
485.1177, 2407.249
485.5999, 2423.055
486.0820, 2442.285
486.5641, 2464.883
487.0462, 2491.755
487.5283, 2525.413
488.0104, 2560.109
488.4926, 2593.726
488.9747, 2625.398
489.4568, 2659.835
489.9389, 2696.748
490.4210, 2736.471
490.9031, 2780.137
491.3853, 2828.358
491.8674, 2875.447
492.3495, 2924.683
492.8316, 2966.268
493.3137, 2982.534
493.7958, 2973.351
494.2780, 2934.733
494.7601, 2849.771
495.2422, 2737.450
495.7243, 2631.301
496.2064, 2531.274
496.6885, 2444.986
497.1707, 2377.407
497.6528, 2325.387
498.1349, 2284.709
498.6170, 2256.540
499.0992, 2235.257
499.5813, 2219.518
500.0634, 2208.212
500.5455, 2198.402
501.0276, 2188.703
501.5097, 2180.720
501.9919, 2175.712
502.4740, 2174.372
502.9561, 2171.828
503.4382, 2166.320
503.9203, 2160.464
504.4024, 2155.893
504.8846, 2152.415
505.3667, 2150.881
505.8488, 2152.192
506.3309, 2154.981
506.8130, 2156.048
507.2951, 2154.896
507.7773, 2154.279
508.2594, 2155.319
508.7415, 2157.772
509.2236, 2160.448
509.7057, 2163.383
510.1878, 2166.151
510.6700, 2168.179
511.1521, 2169.774
511.6342, 2171.714
512.1163, 2173.951
512.5984, 2177.110
513.0806, 2182.291
513.5627, 2188.860
514.0448, 2195.496
514.5269, 2202.422
515.0090, 2208.535
515.4911, 2213.557
515.9733, 2217.311
516.4554, 2218.711
516.9375, 2216.562
517.4196, 2212.508
517.9017, 2207.290
518.3839, 2200.381
518.8660, 2193.773
519.3481, 2187.705
519.8302, 2182.050
520.3123, 2176.686
520.7944, 2170.692
521.2766, 2166.690
521.7587, 2165.518
522.2408, 2166.619
522.7229, 2167.516
523.2050, 2167.804
523.6871, 2169.523
524.1693, 2174.260
524.6514, 2181.718
525.1335, 2189.162
525.6156, 2196.724
526.0977, 2203.652
526.5798, 2208.996
527.0620, 2213.156
527.5441, 2217.115
528.0262, 2220.779
528.5083, 2224.919
528.9904, 2229.963
529.4725, 2236.029
529.9547, 2243.438
530.4368, 2253.506
530.9189, 2263.931
531.4010, 2273.673
531.8831, 2282.716
532.3652, 2289.529
532.8474, 2292.897
533.3295, 2294.516
533.8116, 2295.386
534.2937, 2294.501
534.7758, 2294.753
535.2579, 2295.964
535.7401, 2298.508
536.2222, 2302.853
536.7043, 2309.320
537.1864, 2317.056
537.6685, 2325.653
538.1506, 2335.493
538.6328, 2349.234
539.1149, 2368.067
539.5970, 2384.341
540.0791, 2393.068
540.5612, 2395.247
541.0433, 2393.876
541.5255, 2388.747
542.0076, 2383.143
542.4897, 2379.460
542.9718, 2377.699
543.4539, 2377.912
543.9360, 2380.373
544.4182, 2384.251
544.9003, 2388.586
545.3824, 2393.801
545.8645, 2400.872
546.3466, 2410.819
546.8287, 2422.099
547.3109, 2434.017
547.7930, 2446.426
548.2751, 2459.768
548.7572, 2473.993
549.2393, 2489.290
549.7214, 2505.998
550.2036, 2525.726
550.6857, 2542.911
551.1678, 2555.540
551.6499, 2567.805
552.1320, 2585.738
552.6141, 2610.203
553.0963, 2635.566
553.5784, 2661.277
554.0605, 2686.454
554.5426, 2709.251
555.0247, 2729.632
555.5068, 2746.801
555.9890, 2760.221
556.4711, 2769.991
556.9532, 2777.106
557.4353, 2781.560
557.9174, 2779.657
558.3995, 2768.142
558.8817, 2748.997
559.3638, 2723.378
559.8459, 2688.204
560.3281, 2653.926
560.8102, 2622.659
561.2923, 2595.660
561.7744, 2575.166
562.2565, 2563.053
562.7386, 2556.029
563.2208, 2552.570
563.7029, 2553.116
564.1850, 2561.029
564.6671, 2577.455
565.1492, 2599.040
565.6313, 2624.334
566.1135, 2653.062
566.5956, 2687.214
567.0777, 2727.688
567.5598, 2769.656
568.0419, 2809.201
568.5240, 2846.119
569.0062, 2881.495
569.4883, 2915.424
569.9704, 2947.253
570.4525, 2977.905
570.9346, 3005.780
571.4167, 3025.447
571.8989, 3029.351
572.3810, 3029.004
572.8631, 3030.162
573.3452, 3033.391
573.8273, 3041.326
574.3094, 3052.565
574.7916, 3070.648
575.2737, 3098.082
575.7558, 3136.905
576.2379, 3179.315
576.7200, 3224.655
577.2021, 3274.500
577.6843, 3326.266
578.1664, 3384.582
578.6485, 3444.484
579.1306, 3508.555
579.6127, 3571.462
580.0948, 3629.659
580.5770, 3683.047
581.0591, 3713.194
581.5412, 3715.719
582.0233, 3688.082
582.5054, 3618.465
582.9875, 3510.563
583.4697, 3383.960
583.9518, 3235.322
584.4339, 3085.185
584.9160, 2954.517
585.3981, 2845.828
585.8802, 2754.839
586.3624, 2684.754
586.8445, 2628.628
587.3266, 2580.076
587.8087, 2536.756
588.2908, 2502.364
588.7729, 2480.456
589.2551, 2466.890
589.7372, 2455.260
590.2193, 2445.942
590.7014, 2437.741
591.1835, 2430.379
591.6656, 2424.628
592.1478, 2419.146
592.6299, 2416.278
593.1120, 2413.755
593.5941, 2412.255
594.0762, 2410.468
594.5583, 2402.315
595.0405, 2387.454
595.5226, 2371.977
596.0047, 2361.552
596.4868, 2353.896
596.9689, 2345.399
597.4510, 2334.774
597.9332, 2324.595
598.4153, 2315.615
598.8974, 2308.316
599.3795, 2303.083
599.8616, 2301.820
600.3438, 2300.729
600.8259, 2298.172
601.3080, 2294.919
601.7901, 2294.312
602.2722, 2297.974
602.7543, 2301.519
603.2365, 2303.066
603.7186, 2302.629
604.2007, 2303.241
604.6828, 2304.741
605.1649, 2307.747
605.6470, 2313.491
606.1292, 2321.252
606.6113, 2328.697
607.0934, 2335.597
607.5755, 2341.079
608.0576, 2343.137
608.5398, 2343.293
609.0219, 2344.248
609.5040, 2348.789
609.9861, 2351.744
610.4683, 2348.640
610.9504, 2342.037
611.4325, 2337.362
611.9146, 2338.558
612.3967, 2339.401
612.8788, 2336.724
613.3610, 2331.167
613.8431, 2330.422
614.3252, 2336.300
614.8073, 2344.036
615.2894, 2351.804
615.7715, 2359.615
616.2537, 2366.120
616.7358, 2371.032
617.2179, 2375.754
617.7000, 2380.780
618.1821, 2386.604
618.6642, 2395.251
619.1464, 2407.673
619.6285, 2421.020
620.1106, 2432.799
620.5927, 2443.436
621.0748, 2453.655
621.5569, 2463.584
622.0391, 2473.442
622.5212, 2484.201
623.0033, 2495.171
623.4854, 2504.216
623.9675, 2510.545
624.4496, 2515.383
624.9318, 2519.603
625.4139, 2523.182
625.8960, 2523.086
626.3781, 2519.074
626.8602, 2512.075
627.3423, 2502.822
627.8245, 2491.283
628.3066, 2474.996
628.7887, 2453.141
629.2708, 2431.303
629.7529, 2415.932
630.2350, 2404.958
630.7172, 2393.024
631.1993, 2378.165
631.6814, 2364.292
632.1635, 2355.532
632.6456, 2349.677
633.1277, 2343.070
633.6099, 2332.242
634.0920, 2322.880
634.5741, 2317.583
635.0562, 2315.360
635.5383, 2311.929
636.0204, 2305.628
636.5026, 2300.469
636.9847, 2298.204
637.4668, 2298.598
637.9489, 2297.113
638.4310, 2293.380
638.9131, 2289.520
639.3953, 2286.824
639.8774, 2285.168
640.3595, 2284.201
640.8416, 2283.941
641.3237, 2283.658
641.8058, 2282.449
642.2880, 2280.855
642.7701, 2279.567
643.2522, 2278.503
643.7343, 2278.304
644.2164, 2280.463
644.6985, 2283.283
645.1807, 2284.494
645.6628, 2282.044
646.1449, 2279.858
646.6270, 2278.604
647.1091, 2277.931
647.5912, 2276.907
648.0734, 2275.240
648.5555, 2274.041
649.0376, 2273.676
649.5197, 2274.059
650.0018, 2275.031
650.4839, 2276.603
650.9661, 2277.828
651.4482, 2277.646
651.9303, 2276.897
652.4124, 2277.128
652.8945, 2278.397
653.3766, 2279.867
653.8588, 2282.011
654.3409, 2283.504
654.8230, 2282.606
655.3051, 2277.226
655.7872, 2274.736
656.2693, 2279.192
656.7515, 2285.915
657.2336, 2290.490
657.7158, 2292.510
658.1979, 2292.917
658.6800, 2290.827
659.1621, 2288.138
659.6442, 2288.953
660.1263, 2293.297
660.6085, 2295.810
661.0906, 2294.008
661.5727, 2290.417
662.0548, 2289.318
662.5369, 2290.303
663.0190, 2291.848
663.5012, 2294.225
663.9833, 2296.035
664.4654, 2295.758
664.9475, 2293.684
665.4296, 2292.061
665.9117, 2292.051
666.3939, 2292.397
666.8760, 2292.641
667.3581, 2292.875
667.8402, 2292.473
668.3223, 2290.858
668.8044, 2289.564
669.2866, 2290.123
669.7687, 2292.649
670.2508, 2293.765
670.7329, 2293.098
671.2150, 2291.727
671.6971, 2290.011
672.1793, 2288.522
672.6614, 2289.157
673.1435, 2293.177
673.6256, 2297.114
674.1077, 2297.580
674.5898, 2296.306
675.0720, 2295.983
675.5541, 2298.190
676.0362, 2300.639
676.5183, 2303.265
677.0004, 2305.689
677.4825, 2306.916
677.9647, 2306.637
678.4468, 2305.735
678.9289, 2303.894
679.4110, 2301.717
679.8931, 2302.372
680.3752, 2306.028
680.8574, 2310.044
681.3395, 2313.237
681.8216, 2315.641
682.3037, 2316.836
682.7858, 2316.933
683.2679, 2317.350
683.7501, 2319.639
684.2322, 2322.226
684.7143, 2323.457
685.1964, 2322.693
685.6785, 2323.210
686.1606, 2326.988
686.6428, 2331.541
687.1249, 2335.163
687.6070, 2337.762
688.0891, 2339.470
688.5712, 2339.872
689.0533, 2340.106
689.5355, 2341.766
690.0176, 2344.812
690.4997, 2347.429
690.9818, 2349.212
691.4639, 2350.781
691.9460, 2353.074
692.4282, 2355.750
692.9103, 2357.999
693.3924, 2358.972
693.8745, 2360.044
694.3566, 2362.425
694.8387, 2365.444
695.3209, 2367.557
695.8030, 2367.857
696.2851, 2367.693
696.7672, 2366.759
697.2493, 2365.479
697.7314, 2366.755
698.2136, 2371.852
698.6957, 2375.223
699.1778, 2373.507
699.6599, 2368.144
700.1420, 2365.900
700.6241, 2366.623
701.1063, 2367.373
701.5884, 2365.734
702.0705, 2363.174
702.5526, 2362.015
703.0347, 2362.404
703.5168, 2361.273
703.9990, 2354.777
704.4811, 2347.873
704.9632, 2344.198
705.4453, 2345.388
705.9274, 2346.326
706.4095, 2347.422
706.8917, 2347.758
707.3738, 2346.067
707.8560, 2342.020
708.3381, 2339.423
708.8202, 2338.687
709.3023, 2339.014
709.7844, 2340.407
710.2665, 2342.077
710.7487, 2341.294
711.2308, 2336.046
711.7129, 2331.654
712.1950, 2333.846
712.6771, 2339.203
713.1592, 2342.566
713.6414, 2340.505
714.1235, 2338.383
714.6056, 2337.174
715.0877, 2336.705
715.5698, 2336.652
716.0519, 2336.792
716.5341, 2337.907
717.0162, 2340.303
717.4983, 2343.686
717.9804, 2347.845
718.4625, 2352.644
718.9446, 2355.763
719.4268, 2354.831
719.9089, 2352.422
720.3910, 2352.164
720.8731, 2353.526
721.3552, 2354.236
721.8373, 2351.852
722.3195, 2349.687
722.8016, 2349.974
723.2837, 2352.848
723.7658, 2354.599
724.2479, 2354.349
724.7300, 2353.974
725.2122, 2354.173
725.6943, 2354.950
726.1764, 2356.839
726.6585, 2360.046
727.1406, 2363.198
727.6227, 2365.168
728.1049, 2366.318
728.5870, 2367.481
729.0691, 2368.727
729.5512, 2369.644
730.0333, 2369.592
730.5154, 2369.265
730.9976, 2369.109
731.4797, 2368.786
731.9618, 2369.930
732.4439, 2374.986
732.9260, 2380.083
733.4081, 2381.946
733.8903, 2379.008
734.3724, 2378.494
734.8545, 2381.569
735.3366, 2385.182
735.8187, 2384.768
736.3008, 2381.281
736.7830, 2379.243
737.2651, 2379.848
737.7472, 2381.238
738.2293, 2381.463
738.7114, 2381.291
739.1935, 2381.907
739.6757, 2385.682
740.1578, 2387.694
740.6399, 2384.075
741.1220, 2378.526
741.6041, 2377.585
742.0862, 2383.726
742.5684, 2388.988
743.0505, 2392.140
743.5326, 2393.684
744.0147, 2394.066
744.4968, 2393.453
744.9789, 2394.273
745.4611, 2398.665
745.9432, 2403.414
746.4253, 2403.574
746.9074, 2400.698
747.3895, 2398.772
747.8716, 2400.724
748.3538, 2402.909
748.8359, 2404.060
749.3180, 2404.206
749.8001, 2403.516
750.2822, 2400.826
750.7643, 2399.613
751.2465, 2401.934
751.7286, 2406.499
752.2107, 2406.177
752.6928, 2400.875
753.1749, 2395.860
753.6570, 2394.643
754.1392, 2395.342
754.6213, 2394.569
755.1034, 2392.654
755.5855, 2391.678
756.0676, 2394.405
756.5498, 2396.929
757.0319, 2396.288
757.5140, 2392.199
757.9962, 2390.097
758.4783, 2391.335
758.9604, 2392.972
759.4425, 2393.653
759.9246, 2393.392
760.4067, 2393.591
760.8889, 2394.254
761.3710, 2395.297
761.8531, 2396.881
762.3352, 2398.748
762.8173, 2400.534
763.2994, 2402.216
763.7816, 2403.511
764.2637, 2404.114
764.7458, 2404.394
765.2279, 2404.457
765.7100, 2404.151
766.1921, 2404.741
766.6743, 2406.598
767.1564, 2409.008
767.6385, 2411.914
768.1206, 2415.599
768.6027, 2416.842
769.0848, 2415.226
769.5670, 2413.467
770.0491, 2413.733
770.5312, 2415.698
771.0133, 2419.116
771.4954, 2424.073
771.9775, 2428.832
772.4597, 2432.476
772.9418, 2435.293
773.4239, 2437.517
773.9060, 2438.979
774.3881, 2440.373
774.8702, 2442.483
775.3524, 2443.718
775.8345, 2442.285
776.3166, 2437.899
776.7987, 2434.739
777.2808, 2433.208
777.7629, 2432.375
778.2451, 2431.590
778.7272, 2430.713
779.2093, 2429.161
779.6914, 2426.474
780.1735, 2424.753
780.6556, 2426.722
781.1378, 2429.496
781.6199, 2430.243
782.1020, 2427.224
782.5841, 2424.094
783.0662, 2420.231
783.5483, 2416.899
784.0305, 2415.813
784.5126, 2417.036
784.9947, 2418.300
785.4768, 2419.657
785.9589, 2419.557
786.4410, 2414.356
786.9232, 2406.859
787.4053, 2402.240
787.8874, 2402.530
788.3695, 2403.691
788.8516, 2404.620
789.3337, 2404.933
789.8159, 2404.089
790.2980, 2400.527
790.7801, 2398.610
791.2622, 2398.808
791.7443, 2400.233
792.2264, 2402.304
792.7086, 2404.923
793.1907, 2405.586
793.6728, 2403.486
794.1549, 2400.985
794.6370, 2401.063
795.1191, 2402.449
795.6013, 2403.004
796.0834, 2401.526
796.5655, 2400.435
797.0476, 2401.184
797.5297, 2402.526
798.0118, 2402.772
798.4940, 2400.659
798.9761, 2400.623
799.4582, 2403.757
799.9403, 2407.642
800.4224, 2408.646
800.9045, 2407.292
801.3867, 2406.929
801.8688, 2408.477
802.3509, 2410.191
802.8330, 2409.907
803.3151, 2408.851
803.7972, 2408.763
804.2794, 2410.813
804.7615, 2412.641
805.2436, 2413.508
805.7258, 2414.069
806.2079, 2415.030
806.6900, 2416.514
807.1721, 2417.976
807.6542, 2419.410
808.1364, 2420.650
808.6185, 2421.733
809.1006, 2422.431
809.5827, 2421.890
810.0648, 2419.609
810.5469, 2417.114
811.0291, 2414.853
811.5112, 2413.314
811.9933, 2413.079
812.4754, 2415.706
812.9575, 2417.388
813.4396, 2417.656
813.9218, 2417.233
814.4039, 2416.821
814.8860, 2416.411
815.3681, 2416.432
815.8502, 2417.071
816.3323, 2417.602
816.8145, 2417.088
817.2966, 2415.904
817.7787, 2414.617
818.2608, 2413.247
818.7429, 2412.200
819.2250, 2411.625
819.7072, 2411.504
820.1893, 2411.873
820.6714, 2413.003
821.1535, 2413.888
821.6356, 2414.243
822.1177, 2414.840
822.5999, 2417.004
823.0820, 2420.345
823.5641, 2422.130
824.0462, 2421.923
824.5283, 2421.147
825.0104, 2420.166
825.4926, 2419.801
825.9747, 2421.433
826.4568, 2426.298
826.9389, 2429.690
827.4210, 2429.273
827.9031, 2427.988
828.3853, 2427.681
828.8674, 2428.482
829.3495, 2429.777
829.8316, 2431.680
830.3137, 2433.535
830.7958, 2434.568
831.2780, 2435.094
831.7601, 2436.079
832.2422, 2437.687
832.7243, 2438.325
833.2064, 2435.729
833.6885, 2432.698
834.1707, 2431.453
834.6528, 2432.757
835.1349, 2434.038
835.6170, 2435.760
836.0991, 2436.704
836.5812, 2435.276
837.0634, 2431.778
837.5455, 2431.297
838.0276, 2433.880
838.5097, 2436.858
838.9918, 2438.652
839.4739, 2439.445
839.9561, 2439.019
840.4382, 2437.386
840.9203, 2436.255
841.4024, 2436.796
841.8845, 2437.331
842.3666, 2437.011
842.8488, 2435.864
843.3309, 2435.059
843.8130, 2434.486
844.2951, 2434.979
844.7772, 2438.234
845.2593, 2442.582
845.7415, 2444.132
846.2236, 2443.167
846.7057, 2441.014
847.1878, 2436.010
847.6699, 2432.288
848.1520, 2433.100
848.6342, 2437.915
849.1163, 2441.233
849.5984, 2442.568
850.0805, 2442.877
850.5626, 2441.821
851.0447, 2440.265
851.5269, 2441.847
852.0090, 2446.103
852.4911, 2449.298
852.9732, 2448.169
853.4553, 2446.494
853.9374, 2448.551
854.4196, 2452.743
854.9017, 2455.160
855.3839, 2453.497
855.8660, 2451.248
856.3481, 2448.894
856.8302, 2446.513
857.3123, 2443.637
857.7944, 2439.992
858.2766, 2439.794
858.7587, 2445.216
859.2408, 2452.152
859.7229, 2454.964
860.2050, 2454.752
860.6871, 2453.577
861.1693, 2451.465
861.6514, 2449.643
862.1335, 2448.156
862.6156, 2447.493
863.0977, 2448.486
863.5798, 2452.471
864.0620, 2453.851
864.5441, 2451.212
865.0262, 2448.164
865.5083, 2450.496
865.9904, 2456.181
866.4725, 2458.408
866.9547, 2455.306
867.4368, 2452.570
867.9189, 2454.923
868.4010, 2459.090
868.8831, 2462.085
869.3652, 2463.242
869.8474, 2463.774
870.3295, 2463.596
870.8116, 2462.977
871.2937, 2461.720
871.7758, 2460.006
872.2579, 2460.287
872.7401, 2462.668
873.2222, 2464.461
873.7043, 2462.104
874.1864, 2459.066
874.6685, 2459.105
875.1506, 2462.550
875.6328, 2465.576
876.1149, 2468.063
876.5970, 2468.873
877.0791, 2466.365
877.5612, 2461.260
878.0433, 2462.323
878.5255, 2469.841
879.0076, 2475.830
879.4897, 2473.572
879.9718, 2468.359
880.4539, 2468.122
880.9360, 2471.489
881.4182, 2473.692
881.9003, 2470.727
882.3824, 2468.542
882.8645, 2470.071
883.3466, 2473.724
883.8287, 2475.442
884.3109, 2474.911
884.7930, 2474.055
885.2751, 2473.179
885.7572, 2472.528
886.2393, 2472.118
886.7214, 2472.273
887.2036, 2473.961
887.6857, 2478.899
888.1678, 2483.073
888.6499, 2484.594
889.1320, 2484.366
889.6141, 2483.568
890.0963, 2481.974
890.5784, 2480.452
891.0605, 2478.716
891.5426, 2477.970
892.0247, 2481.184
892.5068, 2486.478
892.9890, 2487.207
893.4711, 2481.884
893.9532, 2477.823
894.4353, 2482.501
894.9174, 2488.831
895.3995, 2490.487
895.8817, 2485.134
896.3638, 2483.185
896.8459, 2485.767
897.3280, 2489.400
897.8101, 2492.014
898.2922, 2493.786
898.7744, 2495.477
899.2565, 2497.097
899.7386, 2499.042
900.2207, 2502.761
900.7028, 2505.847
901.1849, 2505.803
901.6671, 2503.101
902.1492, 2501.758
902.6313, 2502.783
903.1134, 2504.167
903.5955, 2505.464
904.0776, 2506.758
904.5598, 2508.610
905.0419, 2510.882
905.5240, 2512.332
906.0062, 2512.283
906.4883, 2511.671
906.9704, 2510.331
907.4525, 2509.292
907.9346, 2510.197
908.4167, 2517.360
908.8989, 2520.791
909.3810, 2518.273
909.8631, 2513.658
910.3452, 2511.415
910.8273, 2511.462
911.3094, 2513.250
911.7916, 2516.925
912.2737, 2520.423
912.7558, 2522.509
913.2379, 2522.989
913.7200, 2520.586
914.2021, 2513.869
914.6843, 2511.658
915.1664, 2518.881
915.6485, 2526.288
916.1306, 2528.644
916.6127, 2526.335
917.0948, 2525.772
917.5770, 2526.960
918.0591, 2528.858
918.5412, 2531.299
919.0233, 2533.747
919.5054, 2536.130
919.9875, 2538.113
920.4697, 2538.493
920.9518, 2534.894
921.4339, 2532.073
921.9160, 2530.917
922.3981, 2531.228
922.8802, 2533.229
923.3624, 2536.798
923.8445, 2538.672
924.3266, 2537.337
924.8087, 2535.363
925.2908, 2536.106
925.7729, 2537.881
926.2551, 2538.119
926.7372, 2534.712
927.2193, 2532.392
927.7014, 2531.599
928.1835, 2532.161
928.6656, 2534.561
929.1478, 2538.821
929.6299, 2541.150
930.1120, 2541.299
930.5941, 2540.859
931.0762, 2540.524
931.5583, 2540.753
932.0405, 2542.275
932.5226, 2545.104
933.0047, 2547.860
933.4868, 2550.895
933.9689, 2552.781
934.4510, 2552.245
934.9332, 2550.124
935.4153, 2551.354
935.8974, 2555.740
936.3795, 2559.516
936.8616, 2560.278
937.3438, 2560.347
937.8259, 2562.414
938.3080, 2565.474
938.7901, 2567.497
939.2722, 2565.709
939.7543, 2566.187
940.2365, 2570.916
940.7186, 2576.554
941.2007, 2578.046
941.6828, 2575.770
942.1649, 2573.803
942.6470, 2572.612
943.1292, 2572.440
943.6113, 2574.410
944.0934, 2576.957
944.5755, 2578.562
945.0576, 2578.885
945.5397, 2579.000
946.0219, 2578.811
946.5040, 2578.804
946.9861, 2579.306
947.4682, 2580.221
947.9503, 2580.743
948.4324, 2580.963
948.9146, 2581.649
949.3967, 2584.490
949.8788, 2586.816
950.3609, 2585.663
950.8430, 2582.384
951.3251, 2581.098
951.8073, 2582.602
952.2894, 2585.505
952.7715, 2590.570
953.2536, 2595.474
953.7357, 2595.271
954.2179, 2591.394
954.7000, 2589.677
955.1821, 2591.600
955.6642, 2594.604
956.1464, 2597.626
956.6285, 2600.443
957.1106, 2602.912
957.5927, 2605.073
958.0748, 2606.372
958.5569, 2606.227
959.0391, 2606.733
959.5212, 2609.831
960.0033, 2614.510
960.4854, 2617.503
960.9675, 2619.144
961.4496, 2621.355
961.9318, 2627.158
962.4139, 2631.762
962.8960, 2631.216
963.3781, 2627.749
963.8602, 2627.828
964.3423, 2632.646
964.8245, 2636.042
965.3066, 2636.688
965.7887, 2635.902
966.2708, 2633.302
966.7529, 2631.255
967.2350, 2635.349
967.7172, 2649.216
968.1993, 2660.778
968.6814, 2664.587
969.1635, 2665.159
969.6456, 2664.962
970.1277, 2663.685
970.6099, 2666.009
971.0920, 2672.131
971.5741, 2678.509
972.0562, 2681.675
972.5383, 2684.226
973.0204, 2690.298
973.5026, 2698.915
973.9847, 2706.048
974.4668, 2708.167
974.9489, 2711.479
975.4310, 2717.637
975.9131, 2725.501
976.3953, 2733.125
976.8774, 2740.550
977.3595, 2747.058
977.8416, 2752.234
978.3237, 2757.451
978.8058, 2763.810
979.2880, 2771.058
979.7701, 2779.104
980.2522, 2788.366
980.7343, 2796.839
981.2164, 2803.959
981.6985, 2811.389
982.1807, 2820.115
982.6628, 2830.051
983.1449, 2841.234
983.6270, 2853.454
984.1091, 2865.518
984.5912, 2876.107
985.0734, 2886.948
985.5555, 2899.450
986.0376, 2912.956
986.5197, 2925.321
987.0018, 2935.243
987.4839, 2948.492
987.9661, 2966.346
988.4482, 2986.784
988.9303, 3007.550
989.4124, 3028.589
989.8945, 3049.006
990.3766, 3068.152
990.8588, 3090.387
991.3409, 3118.249
991.8230, 3149.291
992.3051, 3181.739
992.7872, 3215.228
993.2693, 3254.591
993.7515, 3299.979
994.2336, 3346.758
994.7157, 3391.481
995.1978, 3436.999
995.6799, 3486.883
996.1620, 3540.823
996.6442, 3597.469
997.1263, 3655.774
997.6084, 3717.363
998.0905, 3781.490
998.5726, 3849.911
999.0547, 3925.265
999.5369, 4007.972
1000.019, 4099.531
1000.501, 4200.438
1000.983, 4304.187
1001.465, 4404.086
1001.947, 4507.989
1002.430, 4621.287
1002.912, 4745.620
1003.394, 4874.488
1003.876, 5013.221
1004.358, 5144.031
1004.840, 5263.368
1005.322, 5370.594
1005.804, 5468.352
1006.287, 5554.467
1006.769, 5625.393
1007.251, 5667.712
1007.733, 5712.025
1008.215, 5764.479
1008.697, 5826.619
1009.179, 5901.354
1009.661, 5988.657
1010.143, 6085.103
1010.626, 6191.775
1011.108, 6307.432
1011.590, 6439.796
1012.072, 6575.618
1012.554, 6706.394
1013.036, 6830.168
1013.518, 6941.999
1014.000, 7048.977
1014.483, 7132.350
1014.965, 7189.043
1015.447, 7216.845
1015.929, 7212.342
1016.411, 7175.974
1016.893, 7108.310
1017.375, 7006.740
1017.857, 6881.503
1018.339, 6731.690
1018.822, 6565.417
1019.304, 6385.638
1019.786, 6190.725
1020.268, 5999.469
1020.750, 5810.908
1021.232, 5631.761
1021.714, 5465.745
1022.196, 5311.414
1022.679, 5168.844
1023.161, 5037.447
1023.643, 4917.339
1024.125, 4807.908
1024.607, 4712.005
1025.089, 4631.576
1025.571, 4562.063
1026.053, 4496.793
1026.535, 4437.125
1027.018, 4386.516
1027.500, 4345.851
1027.982, 4307.205
1028.464, 4265.371
1028.946, 4222.279
1029.428, 4179.053
1029.910, 4135.557
1030.392, 4095.428
1030.875, 4058.446
1031.357, 4024.288
1031.839, 3992.231
1032.321, 3963.085
1032.803, 3937.828
1033.285, 3916.894
1033.767, 3902.074
1034.249, 3896.220
1034.731, 3891.972
1035.214, 3890.443
1035.696, 3887.103
1036.178, 3879.208
1036.660, 3866.829
1037.142, 3849.320
1037.624, 3826.736
1038.106, 3792.947
1038.588, 3738.899
1039.071, 3676.670
1039.553, 3610.810
1040.035, 3543.803
1040.517, 3481.954
1040.999, 3425.220
1041.481, 3371.981
1041.963, 3320.415
1042.445, 3274.182
1042.927, 3239.437
1043.410, 3212.345
1043.892, 3185.011
1044.374, 3155.608
1044.856, 3129.576
1045.338, 3111.925
1045.820, 3094.550
1046.302, 3073.757
1046.784, 3050.440
1047.266, 3029.098
1047.749, 3009.534
1048.231, 2991.721
1048.713, 2976.714
1049.195, 2961.936
1049.677, 2945.167
1050.159, 2927.401
1050.641, 2909.622
1051.123, 2890.369
1051.606, 2875.790
1052.088, 2866.675
1052.570, 2859.452
1053.052, 2851.662
1053.534, 2843.520
1054.016, 2834.823
1054.498, 2825.937
1054.980, 2818.440
1055.463, 2813.939
1055.945, 2809.574
1056.427, 2804.042
1056.909, 2798.868
1057.391, 2797.373
1057.873, 2798.969
1058.355, 2798.542
1058.837, 2795.077
1059.319, 2792.192
1059.802, 2792.996
1060.284, 2795.277
1060.766, 2797.678
1061.248, 2800.103
1061.730, 2802.135
1062.212, 2803.464
1062.694, 2806.340
1063.176, 2812.412
1063.658, 2818.982
1064.141, 2821.432
1064.623, 2821.860
1065.105, 2823.738
1065.587, 2827.774
1066.069, 2833.799
1066.551, 2842.173
1067.033, 2851.542
1067.515, 2861.052
1067.998, 2870.741
1068.480, 2880.906
1068.962, 2891.318
1069.444, 2900.635
1069.926, 2908.608
1070.408, 2914.660
1070.890, 2920.359
1071.372, 2922.858
1071.854, 2917.168
1072.337, 2902.793
1072.819, 2885.307
1073.301, 2865.091
1073.783, 2845.068
1074.265, 2828.224
1074.747, 2813.095
1075.229, 2796.965
1075.711, 2780.305
1076.193, 2770.382
1076.676, 2770.180
1077.158, 2769.915
1077.640, 2766.706
1078.122, 2762.731
1078.604, 2762.129
1079.086, 2763.559
1079.568, 2763.851
1080.051, 2761.535
1080.533, 2761.332
1081.015, 2766.296
1081.497, 2772.388
1081.979, 2777.376
1082.461, 2781.748
1082.943, 2789.738
1083.425, 2800.828
1083.907, 2810.461
1084.390, 2815.135
1084.872, 2819.679
1085.354, 2827.805
1085.836, 2837.192
1086.318, 2845.264
1086.800, 2852.276
1087.282, 2856.448
1087.764, 2857.688
1088.246, 2856.371
1088.729, 2853.053
1089.211, 2847.101
1089.693, 2836.201
1090.175, 2821.714
1090.657, 2809.022
1091.139, 2800.563
1091.621, 2790.688
1092.103, 2777.548
1092.586, 2765.135
1093.068, 2759.303
1093.550, 2758.256
1094.032, 2758.658
1094.514, 2760.112
1094.996, 2759.521
1095.478, 2752.521
1095.960, 2746.771
1096.443, 2745.571
1096.925, 2747.434
1097.407, 2747.830
1097.889, 2747.058
1098.371, 2747.383
1098.853, 2749.640
1099.335, 2752.257
1099.817, 2754.926
1100.299, 2756.838
1100.781, 2757.345
1101.264, 2756.487
1101.746, 2753.940
1102.228, 2749.563
1102.710, 2745.247
1103.192, 2742.236
1103.674, 2739.402
1104.156, 2734.824
1104.638, 2729.827
1105.121, 2726.591
1105.603, 2726.591
1106.085, 2726.308
1106.567, 2725.594
1107.049, 2725.116
1107.531, 2726.177
1108.013, 2727.524
1108.495, 2725.247
1108.978, 2720.699
1109.460, 2719.300
1109.942, 2725.944
1110.424, 2732.018
1110.906, 2735.989
1111.388, 2738.772
1111.870, 2741.258
1112.352, 2743.564
1112.834, 2746.896
1113.317, 2751.257
1113.799, 2753.765
1114.281, 2752.146
1114.763, 2748.809
1115.245, 2744.835
1115.727, 2740.170
1116.209, 2733.990
1116.691, 2726.368
1117.173, 2720.757
1117.656, 2718.234
1118.138, 2716.103
1118.620, 2711.377
1119.102, 2706.583
1119.584, 2704.040
1120.066, 2703.781
1120.548, 2704.258
1121.030, 2705.692
1121.513, 2706.170
1121.995, 2704.695
1122.477, 2702.477
1122.959, 2700.285
1123.441, 2698.564
1123.923, 2698.002
1124.405, 2699.097
1124.887, 2700.306
1125.370, 2701.549
1125.852, 2703.034
1126.334, 2704.898
1126.816, 2707.107
1127.298, 2710.220
1127.780, 2713.579
1128.262, 2715.542
1128.744, 2712.242
1129.226, 2712.785
1129.709, 2720.306
1130.191, 2728.021
1130.673, 2729.007
1131.155, 2725.302
1131.637, 2724.917
1132.119, 2727.615
1132.601, 2731.024
1133.083, 2734.633
1133.566, 2737.885
1134.048, 2740.620
1134.530, 2742.903
1135.012, 2744.599
1135.494, 2745.795
1135.976, 2747.798
1136.458, 2750.731
1136.940, 2753.060
1137.422, 2753.116
1137.905, 2752.907
1138.387, 2754.255
1138.869, 2756.156
1139.351, 2755.504
1139.833, 2752.139
1140.315, 2750.809
1140.797, 2752.759
1141.279, 2754.051
1141.761, 2750.828
1142.244, 2745.638
1142.726, 2739.816
1143.208, 2733.757
1143.690, 2730.200
1144.172, 2729.563
1144.654, 2728.877
1145.136, 2726.913
1145.618, 2725.548
1146.101, 2728.095
1146.583, 2732.031
1147.065, 2734.281
1147.547, 2733.975
1148.029, 2733.641
1148.511, 2733.647
1148.993, 2732.314
1149.475, 2727.892
1149.958, 2723.194
1150.440, 2723.234
1150.922, 2726.302
1151.404, 2729.501
1151.886, 2733.114
1152.368, 2734.245
1152.850, 2732.540
1153.332, 2729.026
1153.814, 2722.423
1154.297, 2715.554
1154.779, 2717.070
1155.261, 2724.375
1155.743, 2730.107
1156.225, 2730.618
1156.707, 2730.478
1157.189, 2729.327
1157.671, 2729.190
1158.153, 2732.786
1158.636, 2738.821
1159.118, 2741.755
1159.600, 2742.008
1160.082, 2742.248
1160.564, 2744.101
1161.046, 2745.586
1161.528, 2745.253
1162.010, 2745.278
1162.493, 2748.919
1162.975, 2755.457
1163.457, 2759.961
1163.939, 2762.301
1164.421, 2764.172
1164.903, 2765.675
1165.385, 2767.961
1165.867, 2771.907
1166.349, 2776.652
1166.832, 2780.571
1167.314, 2783.810
1167.796, 2787.873
1168.278, 2792.923
1168.760, 2799.501
1169.242, 2810.365
1169.724, 2820.510
1170.206, 2825.767
1170.688, 2828.351
1171.171, 2834.045
1171.653, 2842.823
1172.135, 2850.654
1172.617, 2856.726
1173.099, 2861.950
1173.581, 2866.207
1174.063, 2870.569
1174.545, 2876.280
1175.028, 2882.923
1175.510, 2888.907
1175.992, 2894.406
1176.474, 2895.173
1176.956, 2889.032
1177.438, 2882.507
1177.920, 2883.589
1178.402, 2885.768
1178.885, 2882.478
1179.367, 2873.710
1179.849, 2865.453
1180.331, 2857.733
1180.813, 2849.605
1181.295, 2840.597
1181.777, 2831.491
1182.259, 2822.875
1182.741, 2814.803
1183.224, 2807.129
1183.706, 2799.794
1184.188, 2794.110
1184.670, 2790.232
1185.152, 2786.577
1185.634, 2782.499
1186.116, 2778.239
1186.598, 2773.493
1187.081, 2768.980
1187.563, 2765.775
1188.045, 2764.022
1188.527, 2763.378
1189.009, 2763.991
1189.491, 2764.644
1189.973, 2764.673
1190.455, 2764.389
1190.938, 2764.166
1191.420, 2763.922
1191.902, 2763.575
1192.384, 2763.523
1192.866, 2762.079
1193.348, 2758.948
1193.830, 2755.993
1194.312, 2754.346
1194.794, 2753.642
1195.276, 2753.784
1195.759, 2754.430
1196.241, 2754.868
1196.723, 2754.987
1197.205, 2754.897
1197.687, 2754.608
1198.169, 2753.994
1198.651, 2751.817
1199.133, 2750.064
1199.616, 2753.003
1200.098, 2758.359
1200.580, 2760.107
1201.062, 2754.706
1201.544, 2752.071
1202.026, 2752.960
1202.508, 2755.212
1202.990, 2757.916
1203.473, 2760.168
1203.955, 2760.350
1204.437, 2759.044
1204.919, 2758.270
1205.401, 2758.535
1205.883, 2759.219
1206.365, 2760.850
1206.847, 2760.585
1207.329, 2752.547
1207.812, 2743.249
1208.294, 2742.339
1208.776, 2747.982
1209.258, 2750.765
1209.740, 2747.833
1210.222, 2747.261
1210.704, 2750.583
1211.186, 2753.852
1211.668, 2751.832
1212.151, 2748.288
1212.633, 2748.564
1213.115, 2747.488
1213.597, 2747.149
1214.079, 2749.734
1214.561, 2749.767
1215.043, 2755.077
1215.525, 2760.884
1216.008, 2761.966
1216.490, 2760.713
1216.972, 2759.767
1217.454, 2759.203
1217.936, 2758.124
1218.418, 2755.785
1218.900, 2755.366
1219.382, 2757.689
1219.865, 2760.656
1220.347, 2761.911
1220.829, 2762.566
1221.311, 2764.308
1221.793, 2766.901
1222.275, 2767.353
1222.757, 2764.685
1223.239, 2764.053
1223.721, 2766.944
1224.203, 2769.849
1224.686, 2768.037
1225.168, 2764.923
1225.650, 2764.274
1226.132, 2766.124
1226.614, 2766.991
1227.096, 2766.870
1227.578, 2765.222
1228.061, 2761.428
1228.543, 2758.471
1229.025, 2760.023
1229.507, 2763.556
1229.989, 2767.431
1230.471, 2771.174
1230.953, 2772.303
1231.435, 2770.393
1231.917, 2769.626
1232.400, 2771.138
1232.882, 2773.043
1233.364, 2774.099
1233.846, 2774.278
1234.328, 2773.184
1234.810, 2771.106
1235.292, 2769.661
1235.774, 2768.920
1236.256, 2768.040
1236.739, 2766.856
1237.221, 2765.508
1237.703, 2763.056
1238.185, 2761.439
1238.667, 2762.835
1239.149, 2766.508
1239.631, 2769.907
1240.113, 2772.943
1240.596, 2773.874
1241.078, 2771.910
1241.560, 2769.761
1242.042, 2769.464
1242.524, 2769.627
1243.006, 2768.892
1243.488, 2767.855
1243.970, 2769.472
1244.453, 2773.329
1244.935, 2775.990
1245.417, 2776.409
1245.899, 2776.938
1246.381, 2779.978
1246.863, 2782.453
1247.345, 2782.212
1247.827, 2780.480
1248.309, 2781.925
1248.792, 2785.590
1249.274, 2786.647
1249.756, 2783.305
1250.238, 2781.720
1250.720, 2787.578
1251.202, 2792.765
1251.684, 2794.198
1252.166, 2792.426
1252.648, 2786.473
1253.131, 2778.645
1253.613, 2776.613
1254.095, 2783.036
1254.577, 2787.792
1255.059, 2786.286
1255.541, 2784.519
1256.023, 2784.258
1256.505, 2785.357
1256.988, 2788.291
1257.470, 2792.165
1257.952, 2795.378
1258.434, 2797.866
1258.916, 2797.734
1259.398, 2793.149
1259.880, 2790.040
1260.362, 2790.792
1260.844, 2793.277
1261.327, 2794.722
1261.809, 2795.192
1262.291, 2794.210
1262.773, 2791.443
1263.255, 2791.508
1263.737, 2795.634
1264.219, 2798.576
1264.701, 2798.170
1265.183, 2797.138
1265.666, 2799.208
1266.148, 2802.397
1266.630, 2803.729
1267.112, 2802.920
1267.594, 2806.580
1268.076, 2815.707
1268.558, 2821.128
1269.040, 2819.458
1269.523, 2816.049
1270.005, 2816.113
1270.487, 2816.906
1270.969, 2815.449
1271.451, 2812.273
1271.933, 2810.546
1272.415, 2810.304
1272.897, 2811.841
1273.380, 2815.745
1273.862, 2818.443
1274.344, 2815.629
1274.826, 2812.399
1275.308, 2812.032
1275.790, 2813.781
1276.272, 2815.559
1276.754, 2817.254
1277.236, 2818.566
1277.719, 2819.560
1278.201, 2818.827
1278.683, 2812.691
1279.165, 2808.370
1279.647, 2809.401
1280.129, 2813.115
1280.611, 2813.392
1281.093, 2811.718
1281.576, 2812.765
1282.058, 2817.470
1282.540, 2819.970
1283.022, 2816.335
1283.504, 2814.121
1283.986, 2815.683
1284.468, 2818.553
1284.950, 2818.902
1285.432, 2817.928
1285.915, 2817.433
1286.397, 2817.627
1286.879, 2818.236
1287.361, 2819.645
1287.843, 2819.535
1288.325, 2816.651
1288.807, 2815.069
1289.289, 2821.866
1289.771, 2830.667
1290.254, 2834.813
1290.736, 2834.164
1291.218, 2832.463
1291.700, 2829.409
1292.182, 2828.143
1292.664, 2829.309
1293.146, 2831.049
1293.628, 2831.870
1294.111, 2832.580
1294.593, 2834.118
1295.075, 2834.267
1295.557, 2836.022
1296.039, 2834.906
1296.521, 2834.206
1297.003, 2834.315
1297.485, 2835.396
1297.968, 2838.805
1298.450, 2840.552
1298.932, 2838.282
1299.414, 2835.257
1299.896, 2837.459
1300.378, 2842.867
1300.860, 2844.315
1301.342, 2841.797
1301.824, 2840.622
##END=



