##NAMES=Hurlbutite
##RRUFFID=R090048
##IDEAL CHEMISTRY=CaBe_2_P_2_O_8_
##LOCALITY=Smith mine, Chandler's Mill, Newport, New Hampshire
##OWNER=RRUFF
##SOURCE=University of Arizona Mineral Museum 1636
##DESCRIPTION=Colorless glassy grains in matrix, associated with, and hard to visually distinguish from quartz
##STATUS=The identification of this mineral has been confirmed by single-crystal X-ray diffraction.
##URL=rruff.info/R090048
92.02539, 688.1296
92.50751, 678.8389
92.98962, 679.4290
93.47174, 686.4270
93.95386, 697.7794
94.43597, 706.5443
94.91809, 711.0123
95.40021, 712.4589
95.88232, 712.1048
96.36444, 708.9454
96.84656, 705.4387
97.32867, 702.3625
97.81078, 699.9091
98.29290, 698.2488
98.77502, 697.1984
99.25713, 695.8546
99.73925, 693.7492
100.2214, 689.9008
100.7035, 686.6009
101.1856, 685.1639
101.6677, 685.4406
102.1498, 686.0807
102.6320, 685.3841
103.1141, 682.2761
103.5962, 680.4260
104.0783, 680.2943
104.5604, 681.1082
105.0425, 681.9315
105.5247, 682.3823
106.0068, 683.0553
106.4889, 684.9858
106.9710, 688.2141
107.4531, 691.5384
107.9352, 694.1611
108.4173, 696.2731
108.8995, 699.0608
109.3816, 703.2814
109.8637, 708.1313
110.3458, 712.6050
110.8279, 716.4750
111.3100, 720.4883
111.7922, 725.6235
112.2743, 732.1072
112.7564, 738.9396
113.2385, 747.2742
113.7206, 755.1968
114.2027, 760.9550
114.6849, 763.6874
115.1670, 763.8929
115.6491, 763.1617
116.1312, 759.3727
116.6133, 757.1620
117.0954, 757.6832
117.5776, 760.1758
118.0597, 763.3766
118.5418, 766.3669
119.0239, 769.1259
119.5060, 773.6788
119.9881, 781.2345
120.4703, 789.0412
120.9524, 795.9323
121.4345, 801.9535
121.9166, 807.9491
122.3987, 814.7629
122.8808, 822.5653
123.3630, 829.5490
123.8451, 835.2084
124.3272, 840.3176
124.8093, 845.2589
125.2914, 849.9800
125.7735, 855.2887
126.2557, 862.7222
126.7378, 871.8033
127.2199, 880.5497
127.7020, 888.5254
128.1841, 895.6189
128.6662, 901.3547
129.1483, 905.6592
129.6305, 908.3558
130.1126, 909.1674
130.5947, 908.2748
131.0768, 907.1679
131.5589, 906.9816
132.0410, 907.7490
132.5232, 909.2000
133.0053, 912.7529
133.4874, 916.0148
133.9695, 917.5011
134.4516, 917.0072
134.9337, 915.6130
135.4159, 914.9910
135.8980, 915.7695
136.3801, 916.1469
136.8622, 915.7104
137.3443, 915.0674
137.8264, 914.8267
138.3086, 915.2050
138.7907, 915.8522
139.2728, 915.7982
139.7549, 914.2479
140.2370, 912.8722
140.7191, 911.4780
141.2013, 910.3781
141.6834, 910.0731
142.1655, 910.8703
142.6476, 912.6055
143.1297, 914.5150
143.6118, 916.3684
144.0939, 918.5750
144.5761, 921.9343
145.0582, 926.0685
145.5403, 929.3148
146.0224, 930.8561
146.5045, 930.5066
146.9866, 928.5576
147.4688, 923.5756
147.9509, 918.1823
148.4330, 914.4782
148.9151, 912.4028
149.3972, 912.4052
149.8793, 916.5406
150.3615, 922.6096
150.8436, 928.0371
151.3257, 931.5528
151.8078, 934.0178
152.2899, 937.4710
152.7720, 942.7551
153.2542, 947.5743
153.7363, 950.6193
154.2184, 952.7343
154.7005, 955.2766
155.1826, 959.2287
155.6647, 964.4059
156.1469, 968.8298
156.6290, 971.7972
157.1111, 974.5926
157.5932, 977.1627
158.0753, 979.8022
158.5574, 983.0761
159.0396, 987.6498
159.5217, 993.8272
160.0038, 998.4237
160.4859, 1002.115
160.9680, 1003.940
161.4501, 1004.247
161.9323, 1002.550
162.4144, 997.2303
162.8965, 986.2842
163.3786, 967.8434
163.8607, 950.8713
164.3428, 935.5808
164.8250, 921.4904
165.3071, 908.4167
165.7892, 896.2816
166.2713, 885.0639
166.7534, 874.7066
167.2355, 865.2012
167.7177, 857.1462
168.1998, 851.9925
168.6819, 847.8159
169.1640, 841.9191
169.6461, 833.4685
170.1282, 824.3730
170.6104, 816.9100
171.0925, 810.8749
171.5746, 805.5130
172.0567, 800.4805
172.5388, 795.9072
173.0209, 792.2981
173.5031, 790.1949
173.9852, 788.5026
174.4673, 785.8859
174.9494, 782.4891
175.4315, 779.6820
175.9136, 778.5860
176.3958, 779.1507
176.8779, 780.0885
177.3600, 782.1555
177.8421, 783.7289
178.3242, 784.1897
178.8063, 783.4059
179.2885, 781.1728
179.7706, 776.5842
180.2527, 768.6693
180.7348, 762.6510
181.2169, 759.3383
181.6990, 757.5981
182.1812, 757.2947
182.6633, 758.2424
183.1454, 759.9389
183.6275, 761.6977
184.1096, 763.4106
184.5917, 765.4528
185.0738, 768.6617
185.5560, 771.6033
186.0381, 773.7352
186.5202, 774.7472
187.0023, 774.0369
187.4844, 770.4302
187.9665, 760.6891
188.4487, 753.0917
188.9308, 748.7638
189.4129, 745.9581
189.8950, 742.9567
190.3771, 739.2166
190.8592, 735.5881
191.3414, 733.8799
191.8235, 735.4075
192.3056, 736.3793
192.7877, 735.9308
193.2698, 734.8404
193.7519, 734.1459
194.2341, 734.2316
194.7162, 734.7769
195.1983, 735.1569
195.6804, 735.3278
196.1625, 735.5353
196.6446, 735.9161
197.1268, 736.3874
197.6089, 736.9061
198.0910, 737.7301
198.5731, 738.1136
199.0552, 736.8655
199.5373, 733.8384
200.0195, 730.3959
200.5016, 726.8311
200.9837, 723.2918
201.4658, 720.5855
201.9479, 719.0566
202.4300, 718.4535
202.9122, 718.4434
203.3943, 719.0574
203.8764, 719.8802
204.3585, 720.2278
204.8406, 720.1099
205.3227, 721.2457
205.8048, 724.3461
206.2870, 728.7836
206.7691, 734.4017
207.2512, 741.1472
207.7333, 748.2322
208.2154, 755.0417
208.6975, 761.6995
209.1797, 767.3251
209.6618, 773.4919
210.1439, 777.3319
210.6260, 776.5767
211.1081, 771.0076
211.5902, 762.6350
212.0724, 753.1524
212.5545, 741.0964
213.0366, 732.7441
213.5187, 730.5618
214.0008, 730.3915
214.4829, 730.1465
214.9651, 729.2567
215.4472, 728.0206
215.9293, 726.7363
216.4114, 724.8285
216.8935, 724.1914
217.3756, 725.5106
217.8578, 727.3688
218.3399, 728.8538
218.8220, 729.7413
219.3041, 730.3708
219.7862, 731.2697
220.2683, 732.7657
220.7505, 733.8775
221.2326, 734.4505
221.7147, 734.7893
222.1968, 735.1871
222.6789, 735.6932
223.1610, 736.0618
223.6432, 735.9011
224.1253, 734.7978
224.6074, 733.9871
225.0895, 733.7908
225.5716, 733.7028
226.0537, 733.2960
226.5358, 732.4653
227.0180, 731.3279
227.5001, 729.9904
227.9822, 728.3359
228.4643, 726.8723
228.9464, 725.7458
229.4285, 724.7717
229.9107, 723.8776
230.3928, 723.0618
230.8749, 722.0515
231.3570, 720.3633
231.8391, 717.9178
232.3212, 715.7454
232.8034, 713.5283
233.2855, 711.8642
233.7676, 711.9648
234.2497, 714.3113
234.7318, 716.8643
235.2139, 716.9410
235.6961, 714.8835
236.1782, 713.2122
236.6603, 712.3929
237.1424, 712.3855
237.6245, 713.4010
238.1066, 715.7726
238.5888, 718.1414
239.0709, 718.9828
239.5530, 718.7234
240.0351, 718.6204
240.5172, 719.1539
240.9993, 720.1025
241.4815, 721.0065
241.9636, 721.7488
242.4457, 722.6936
242.9278, 723.9378
243.4099, 725.5430
243.8920, 727.7738
244.3742, 731.1052
244.8563, 735.0773
245.3384, 738.5914
245.8205, 741.4288
246.3026, 744.2894
246.7847, 747.2839
247.2668, 750.5754
247.7490, 754.4843
248.2311, 759.1746
248.7132, 764.5533
249.1953, 770.6901
249.6774, 778.1777
250.1595, 785.1697
250.6417, 790.3505
251.1238, 794.7719
251.6059, 800.1545
252.0880, 808.0800
252.5701, 816.4396
253.0522, 819.6935
253.5344, 815.6982
254.0165, 810.4924
254.4986, 806.2870
254.9807, 801.9656
255.4628, 796.0619
255.9449, 787.8116
256.4271, 778.2297
256.9092, 769.5510
257.3913, 761.9642
257.8734, 755.0975
258.3555, 749.1312
258.8376, 743.5746
259.3198, 737.7128
259.8019, 731.2744
260.2840, 725.0081
260.7661, 720.5756
261.2482, 718.8615
261.7303, 717.4262
262.2125, 716.2473
262.6946, 714.9891
263.1767, 713.1642
263.6588, 710.6623
264.1409, 708.1215
264.6230, 706.7493
265.1052, 707.3855
265.5873, 707.5748
266.0694, 706.9100
266.5515, 706.0244
267.0336, 705.2366
267.5157, 704.6807
267.9979, 704.4781
268.4800, 704.8156
268.9621, 705.7559
269.4442, 707.1896
269.9263, 709.7294
270.4084, 712.2228
270.8906, 713.7851
271.3727, 714.3795
271.8548, 714.6901
272.3369, 715.5183
272.8190, 716.9149
273.3011, 718.7253
273.7833, 720.9319
274.2654, 723.4733
274.7475, 726.1376
275.2296, 729.0295
275.7117, 732.5692
276.1938, 737.2421
276.6760, 743.2678
277.1581, 749.1801
277.6402, 755.1862
278.1223, 760.9418
278.6044, 765.5789
279.0865, 769.6768
279.5686, 775.0110
280.0508, 783.2108
280.5329, 794.3400
281.0150, 804.2703
281.4971, 812.8620
281.9792, 820.6991
282.4613, 827.4457
282.9435, 833.5734
283.4256, 839.9961
283.9077, 847.2410
284.3898, 855.3499
284.8719, 864.3528
285.3540, 875.8054
285.8362, 886.3115
286.3183, 893.9999
286.8004, 900.2155
287.2825, 907.6682
287.7646, 917.9443
288.2467, 929.8576
288.7289, 939.3380
289.2110, 944.5292
289.6931, 949.7800
290.1752, 956.1863
290.6573, 962.8953
291.1394, 968.9938
291.6216, 974.2065
292.1037, 977.9553
292.5858, 978.7639
293.0679, 974.5869
293.5500, 971.4314
294.0321, 971.5729
294.5143, 972.2931
294.9964, 970.3861
295.4785, 964.9850
295.9606, 957.7744
296.4427, 951.0353
296.9248, 945.0331
297.4070, 938.6693
297.8891, 932.0369
298.3712, 924.9481
298.8533, 917.0168
299.3354, 908.2757
299.8175, 899.4117
300.2997, 891.3195
300.7818, 884.2410
301.2639, 875.5833
301.7460, 863.3199
302.2281, 851.1573
302.7102, 841.5757
303.1924, 834.5989
303.6745, 828.6588
304.1566, 822.6419
304.6387, 816.5886
305.1208, 810.8386
305.6029, 805.3734
306.0851, 800.1581
306.5672, 795.0527
307.0493, 790.1516
307.5314, 785.7981
308.0135, 782.2717
308.4956, 779.3785
308.9778, 776.3116
309.4599, 772.5824
309.9420, 769.2941
310.4241, 767.2475
310.9062, 765.8564
311.3883, 763.9157
311.8705, 760.8566
312.3526, 757.2618
312.8347, 754.4680
313.3168, 752.5749
313.7989, 751.0319
314.2810, 749.8696
314.7632, 748.9575
315.2453, 748.0750
315.7274, 747.1583
316.2095, 746.4273
316.6916, 746.4359
317.1737, 747.6692
317.6559, 747.3277
318.1380, 744.1836
318.6201, 739.9661
319.1022, 736.3648
319.5843, 733.5528
320.0664, 730.5005
320.5485, 726.1434
321.0306, 720.3600
321.5128, 714.9249
321.9949, 709.8676
322.4770, 705.0928
322.9591, 700.6811
323.4412, 696.5582
323.9233, 692.3089
324.4055, 687.6358
324.8876, 682.6100
325.3697, 678.0123
325.8518, 673.9565
326.3339, 670.1093
326.8160, 666.2953
327.2982, 662.5933
327.7803, 659.0928
328.2624, 655.7975
328.7445, 652.8205
329.2266, 650.4756
329.7087, 648.5523
330.1909, 647.4880
330.6730, 648.0723
331.1551, 649.3243
331.6372, 649.8816
332.1193, 649.3400
332.6014, 648.4133
333.0836, 648.0624
333.5657, 648.3407
334.0478, 649.2280
334.5299, 651.1492
335.0120, 653.3970
335.4941, 655.4469
335.9763, 657.2110
336.4584, 658.8231
336.9405, 660.3017
337.4226, 661.6117
337.9047, 663.6534
338.3868, 667.4938
338.8690, 671.0045
339.3511, 672.6949
339.8332, 673.0549
340.3153, 673.7234
340.7974, 675.8036
341.2795, 679.0078
341.7617, 681.4534
342.2438, 682.3797
342.7259, 683.5631
343.2080, 685.2472
343.6901, 687.4755
344.1722, 690.5206
344.6544, 694.5128
345.1365, 698.8043
345.6186, 702.0090
346.1007, 702.8287
346.5828, 704.5247
347.0649, 707.4005
347.5471, 710.9808
348.0292, 715.1121
348.5113, 719.6305
348.9934, 724.0953
349.4755, 727.8887
349.9576, 730.8267
350.4398, 733.8665
350.9219, 737.0820
351.4040, 740.3086
351.8861, 743.8340
352.3682, 747.3336
352.8503, 749.9766
353.3325, 751.0742
353.8146, 750.7023
354.2967, 750.0576
354.7788, 748.9915
355.2609, 747.8192
355.7430, 746.2955
356.2252, 744.7853
356.7073, 744.0361
357.1894, 744.4274
357.6715, 745.1600
358.1536, 744.1092
358.6357, 739.0822
359.1179, 735.6171
359.5999, 735.3568
360.0821, 735.6980
360.5642, 734.5886
361.0463, 731.6042
361.5284, 727.6160
362.0105, 723.5879
362.4926, 719.4214
362.9748, 715.6211
363.4569, 712.4535
363.9390, 709.3898
364.4211, 706.4410
364.9032, 703.4130
365.3853, 699.9723
365.8675, 695.8196
366.3496, 691.0200
366.8317, 686.1573
367.3138, 680.5894
367.7959, 675.8406
368.2780, 672.5013
368.7602, 670.0403
369.2423, 667.9022
369.7244, 665.8754
370.2065, 663.8342
370.6886, 661.4775
371.1707, 658.6230
371.6529, 655.9180
372.1350, 653.6832
372.6171, 651.4462
373.0992, 648.7805
373.5813, 645.6881
374.0634, 642.5612
374.5456, 639.8414
375.0277, 637.5531
375.5098, 635.2269
375.9919, 632.6373
376.4740, 630.2624
376.9561, 628.5956
377.4383, 627.3021
377.9204, 625.5706
378.4025, 622.5419
378.8846, 618.9687
379.3667, 617.2350
379.8488, 618.2619
380.3310, 618.7361
380.8131, 617.0722
381.2952, 614.3006
381.7773, 611.2040
382.2594, 607.8557
382.7415, 604.7838
383.2237, 602.6716
383.7058, 601.5088
384.1879, 600.5499
384.6700, 599.8685
385.1521, 599.0692
385.6342, 597.6158
386.1164, 595.5829
386.5985, 593.8837
387.0806, 593.6396
387.5627, 594.0472
388.0448, 592.8406
388.5269, 589.3182
389.0091, 585.9678
389.4912, 585.4589
389.9733, 586.4883
390.4554, 586.0782
390.9375, 582.2220
391.4196, 578.0050
391.9018, 576.5677
392.3839, 577.6132
392.8660, 578.4879
393.3481, 578.0656
393.8302, 576.7600
394.3123, 575.4566
394.7945, 574.2470
395.2766, 572.7687
395.7587, 570.5844
396.2408, 568.1122
396.7229, 566.1452
397.2050, 564.8710
397.6872, 563.7932
398.1693, 562.1899
398.6514, 559.9771
399.1335, 558.7824
399.6156, 559.7859
400.0977, 560.9219
400.5798, 560.5526
401.0620, 558.8931
401.5441, 557.2083
402.0262, 556.2501
402.5083, 555.9097
402.9904, 555.6885
403.4725, 555.7669
403.9547, 555.7239
404.4368, 555.3874
404.9189, 554.9218
405.4010, 554.4913
405.8831, 554.1563
406.3652, 553.9685
406.8474, 554.0128
407.3295, 554.3485
407.8116, 554.7709
408.2937, 555.6477
408.7758, 556.2816
409.2579, 556.1323
409.7401, 555.3587
410.2222, 554.5267
410.7043, 554.0390
411.1864, 553.8659
411.6685, 553.7375
412.1506, 554.2128
412.6328, 554.0016
413.1149, 552.0782
413.5970, 549.7609
414.0791, 548.6517
414.5612, 549.2617
415.0433, 550.5419
415.5255, 550.8821
416.0076, 550.0721
416.4897, 549.0417
416.9718, 547.3942
417.4539, 545.9251
417.9360, 544.7902
418.4182, 544.1307
418.9003, 544.3102
419.3824, 545.9745
419.8645, 548.6423
420.3466, 550.1004
420.8287, 549.8271
421.3109, 549.3885
421.7930, 548.8051
422.2751, 548.6487
422.7572, 549.8652
423.2393, 552.9451
423.7214, 556.3055
424.2036, 557.8932
424.6857, 557.8038
425.1678, 558.7219
425.6499, 561.8023
426.1320, 565.3751
426.6141, 567.7386
427.0963, 569.0616
427.5784, 570.6993
428.0605, 573.5032
428.5426, 576.8603
429.0247, 580.0811
429.5068, 583.2018
429.9890, 585.3480
430.4711, 585.6025
430.9532, 584.4855
431.4353, 583.9366
431.9174, 584.5090
432.3995, 584.8350
432.8817, 584.2639
433.3638, 582.9503
433.8459, 580.9920
434.3280, 578.3223
434.8101, 575.6589
435.2922, 573.9562
435.7744, 573.3211
436.2565, 573.4832
436.7386, 574.5022
437.2207, 576.2553
437.7028, 578.9418
438.1849, 582.3526
438.6671, 585.8291
439.1492, 588.9257
439.6313, 591.7232
440.1134, 594.6204
440.5955, 598.6061
441.0776, 601.4617
441.5598, 602.9150
442.0418, 603.1374
442.5240, 602.3173
443.0061, 600.5016
443.4882, 597.5283
443.9703, 593.0035
444.4524, 586.4753
444.9345, 580.4766
445.4167, 574.8102
445.8988, 569.9033
446.3809, 566.1230
446.8630, 563.2414
447.3451, 560.8458
447.8272, 558.8002
448.3094, 556.9366
448.7915, 554.9173
449.2736, 552.8927
449.7557, 550.2664
450.2378, 545.5385
450.7199, 541.0395
451.2021, 538.6072
451.6842, 538.3883
452.1663, 538.9490
452.6484, 539.4055
453.1305, 539.7491
453.6126, 539.8027
454.0948, 539.2792
454.5769, 539.1379
455.0590, 540.4530
455.5411, 542.5542
456.0232, 544.2722
456.5053, 545.0651
456.9875, 545.7958
457.4696, 547.3063
457.9517, 549.4249
458.4338, 551.3798
458.9159, 552.8937
459.3980, 554.1854
459.8802, 555.4941
460.3623, 556.7648
460.8444, 558.3984
461.3265, 560.9857
461.8086, 563.6019
462.2907, 565.4176
462.7729, 566.4203
463.2550, 566.9229
463.7371, 566.9880
464.2192, 566.8180
464.7013, 567.6227
465.1834, 570.5653
465.6656, 572.9314
466.1477, 573.3825
466.6298, 573.5673
467.1119, 575.5298
467.5940, 579.6230
468.0761, 584.3138
468.5583, 587.7315
469.0404, 589.6562
469.5225, 591.9085
470.0046, 594.4571
470.4867, 597.3853
470.9688, 600.8348
471.4510, 604.6605
471.9331, 608.7008
472.4152, 612.9207
472.8973, 617.0616
473.3794, 620.9309
473.8615, 624.9095
474.3437, 626.9667
474.8258, 625.9244
475.3079, 623.3451
475.7900, 620.1771
476.2721, 616.3948
476.7542, 611.4017
477.2364, 603.5392
477.7185, 594.4993
478.2006, 588.2396
478.6827, 585.1154
479.1648, 582.9211
479.6469, 580.9203
480.1291, 579.0077
480.6112, 576.9275
481.0933, 574.4770
481.5754, 572.4175
482.0575, 571.1439
482.5396, 570.5252
483.0217, 570.5096
483.5038, 571.1213
483.9860, 571.6362
484.4681, 571.2220
484.9502, 569.8391
485.4323, 569.2551
485.9144, 569.9618
486.3965, 570.8840
486.8787, 571.3728
487.3608, 571.7933
487.8429, 572.8318
488.3250, 574.7641
488.8071, 577.3499
489.2892, 580.1154
489.7714, 582.8391
490.2535, 586.3953
490.7356, 591.8470
491.2177, 596.9938
491.6998, 600.4639
492.1819, 602.6724
492.6641, 605.0363
493.1462, 608.6813
493.6283, 612.5491
494.1104, 613.4813
494.5925, 610.9694
495.0746, 606.8948
495.5568, 600.8275
496.0389, 593.9528
496.5210, 586.6051
497.0031, 578.9989
497.4852, 572.0975
497.9673, 566.8705
498.4495, 562.8922
498.9316, 558.9459
499.4137, 554.8629
499.8958, 551.4076
500.3779, 549.1277
500.8600, 547.7486
501.3422, 546.7092
501.8243, 546.2192
502.3064, 545.5368
502.7885, 543.9758
503.2706, 542.0485
503.7527, 540.7604
504.2349, 540.3412
504.7170, 540.0764
505.1991, 539.2625
505.6812, 537.8560
506.1633, 536.5723
506.6454, 535.3914
507.1276, 534.3416
507.6097, 533.4322
508.0918, 532.6605
508.5739, 532.0098
509.0560, 531.4769
509.5381, 531.1241
510.0203, 531.1277
510.5024, 531.7310
510.9845, 531.8581
511.4666, 531.4234
511.9487, 530.5928
512.4308, 528.8718
512.9130, 526.8598
513.3951, 525.7167
513.8772, 526.1293
514.3593, 527.3943
514.8414, 528.5228
515.3235, 529.6522
515.8057, 529.5315
516.2878, 526.9579
516.7699, 523.9176
517.2520, 522.1968
517.7341, 521.6323
518.2162, 520.9349
518.6984, 519.4200
519.1805, 517.5521
519.6626, 515.8866
520.1447, 514.4263
520.6268, 512.9618
521.1089, 511.2209
521.5911, 509.6183
522.0732, 509.3671
522.5553, 511.1020
523.0374, 512.0845
523.5195, 511.3569
524.0016, 510.0445
524.4838, 509.0972
524.9659, 508.5585
525.4480, 507.9203
525.9301, 506.7461
526.4122, 505.2778
526.8943, 504.8121
527.3765, 506.8520
527.8586, 507.7257
528.3407, 506.2781
528.8228, 504.2025
529.3049, 502.7981
529.7870, 502.2385
530.2692, 501.9964
530.7513, 501.6672
531.2334, 501.2651
531.7155, 500.8967
532.1976, 500.6609
532.6797, 500.2316
533.1619, 499.1514
533.6440, 497.9669
534.1261, 497.1751
534.6082, 496.8417
535.0903, 496.9821
535.5724, 498.3187
536.0546, 499.9942
536.5367, 499.8067
537.0188, 497.3507
537.5009, 494.8941
537.9830, 493.9426
538.4651, 494.4290
538.9473, 495.6782
539.4294, 498.5165
539.9115, 501.0061
540.3936, 502.3063
540.8757, 503.1109
541.3578, 504.3752
541.8400, 506.2324
542.3221, 508.0262
542.8042, 509.0768
543.2863, 509.3755
543.7684, 509.4581
544.2505, 508.6302
544.7326, 508.4523
545.2147, 509.5655
545.6968, 511.3025
546.1790, 512.9239
546.6611, 514.2458
547.1432, 515.6138
547.6253, 517.3076
548.1074, 519.3414
548.5895, 522.0014
549.0717, 525.9148
549.5538, 529.1194
550.0359, 529.5416
550.5180, 528.7226
551.0001, 528.9659
551.4822, 530.8549
551.9644, 533.3035
552.4465, 535.4626
552.9286, 537.7356
553.4107, 541.2885
553.8928, 546.3778
554.3749, 551.4103
554.8571, 554.9752
555.3392, 557.1026
555.8213, 558.8778
556.3034, 560.3301
556.7855, 561.4529
557.2676, 562.4421
557.7498, 563.0141
558.2319, 562.9112
558.7140, 562.0353
559.1961, 560.2828
559.6782, 557.4239
560.1603, 553.4662
560.6425, 549.3587
561.1246, 545.0193
561.6067, 540.6956
562.0888, 535.7237
562.5709, 531.1531
563.0530, 528.3515
563.5352, 527.6967
564.0173, 527.6697
564.4994, 526.6400
564.9815, 525.1827
565.4636, 525.3467
565.9457, 527.5220
566.4279, 530.3212
566.9100, 533.0045
567.3921, 535.5714
567.8742, 538.0400
568.3563, 540.2094
568.8384, 542.6096
569.3206, 545.7658
569.8027, 549.0733
570.2848, 552.0714
570.7669, 554.5499
571.2490, 556.0538
571.7311, 556.0856
572.2133, 554.7592
572.6954, 553.3350
573.1775, 551.9430
573.6596, 550.2418
574.1417, 547.7261
574.6238, 545.1995
575.1060, 543.0618
575.5881, 541.5189
576.0702, 541.0793
576.5523, 542.5604
577.0344, 545.4493
577.5165, 547.6660
577.9987, 548.8906
578.4808, 550.8583
578.9629, 554.5876
579.4450, 559.2848
579.9271, 564.1524
580.4092, 569.4123
580.8914, 573.1559
581.3735, 574.6292
581.8556, 574.2411
582.3377, 572.3739
582.8198, 569.0804
583.3019, 564.3184
583.7841, 557.9999
584.2662, 550.3108
584.7483, 541.6541
585.2304, 530.0094
585.7125, 520.7613
586.1946, 515.1199
586.6768, 510.6007
587.1589, 505.5616
587.6410, 500.3040
588.1231, 496.1321
588.6052, 493.9334
589.0873, 492.8461
589.5695, 490.9317
590.0516, 487.9508
590.5337, 485.8900
591.0158, 485.3936
591.4979, 485.6455
591.9800, 486.4443
592.4622, 487.5009
592.9443, 487.5735
593.4264, 485.6427
593.9085, 483.1727
594.3906, 481.2194
594.8727, 479.7009
595.3549, 478.5682
595.8370, 477.8631
596.3191, 476.8576
596.8012, 474.4986
597.2833, 470.4499
597.7654, 467.4273
598.2476, 466.3286
598.7297, 465.0591
599.2118, 462.6822
599.6939, 459.8792
600.1760, 457.4729
600.6581, 455.7216
601.1403, 454.4952
601.6224, 453.7748
602.1045, 453.5311
602.5866, 453.1641
603.0687, 452.6441
603.5508, 452.0626
604.0330, 451.3730
604.5151, 450.6855
604.9972, 450.1705
605.4793, 449.8714
605.9614, 449.6040
606.4435, 449.4378
606.9257, 449.1672
607.4078, 448.2728
607.8899, 446.8302
608.3720, 445.7935
608.8541, 445.8351
609.3362, 446.6057
609.8184, 447.0078
610.3005, 447.2133
610.7826, 446.7315
611.2647, 444.7411
611.7468, 442.8104
612.2289, 442.2606
612.7111, 442.6445
613.1932, 442.4824
613.6753, 440.8053
614.1574, 438.5464
614.6395, 437.4571
615.1216, 437.5995
615.6038, 438.0986
616.0859, 439.1686
616.5680, 440.0154
617.0501, 439.7287
617.5322, 438.6362
618.0143, 437.8318
618.4965, 437.5481
618.9786, 437.5893
619.4607, 438.0074
619.9428, 438.6275
620.4249, 439.1046
620.9070, 439.3621
621.3892, 439.5939
621.8713, 439.9774
622.3534, 440.5154
622.8355, 441.2617
623.3176, 442.6523
623.7997, 443.6850
624.2819, 444.5266
624.7640, 444.7527
625.2461, 443.5183
625.7282, 441.0064
626.2103, 438.8550
626.6924, 438.6094
627.1745, 439.5216
627.6566, 439.8719
628.1387, 439.6624
628.6208, 438.7697
629.1030, 436.8347
629.5851, 434.5565
630.0672, 433.0560
630.5493, 432.3774
631.0314, 431.4325
631.5135, 429.5811
631.9957, 427.8682
632.4778, 427.2317
632.9599, 427.1844
633.4420, 426.6417
633.9241, 425.2051
634.4063, 423.3729
634.8884, 421.7173
635.3705, 420.1432
635.8526, 419.5914
636.3347, 421.3906
636.8168, 422.3264
637.2990, 420.6230
637.7811, 417.8631
638.2632, 415.8688
638.7453, 415.0241
639.2274, 414.7457
639.7095, 414.7879
640.1917, 415.0786
640.6738, 415.7573
641.1559, 416.7719
641.6380, 416.9774
642.1201, 415.5060
642.6022, 413.2795
643.0844, 412.4188
643.5665, 413.7992
644.0486, 414.8018
644.5307, 415.5768
645.0128, 415.8348
645.4949, 414.9466
645.9771, 413.5060
646.4592, 412.7210
646.9413, 413.1437
647.4234, 413.9557
647.9055, 413.7876
648.3876, 412.6737
648.8698, 412.5589
649.3519, 414.1504
649.8340, 415.4701
650.3161, 415.0570
650.7982, 413.5844
651.2803, 412.3027
651.7625, 411.1064
652.2446, 410.5914
652.7267, 411.6100
653.2088, 413.0436
653.6909, 413.6890
654.1730, 413.5043
654.6552, 412.9379
655.1373, 412.2236
655.6194, 411.4972
656.1015, 411.1768
656.5836, 411.6070
657.0657, 411.5551
657.5479, 410.2025
658.0300, 409.0841
658.5121, 409.0081
658.9942, 409.6268
659.4763, 410.3049
659.9584, 410.9882
660.4406, 411.1637
660.9227, 409.7410
661.4048, 407.5201
661.8869, 406.7062
662.3690, 407.6401
662.8511, 409.0845
663.3333, 410.3668
663.8154, 411.3602
664.2975, 411.5221
664.7796, 409.6510
665.2617, 408.6449
665.7438, 409.0137
666.2260, 409.8753
666.7081, 410.9589
667.1902, 412.0104
667.6723, 412.5675
668.1544, 412.3339
668.6365, 411.7752
669.1187, 411.5767
669.6008, 411.7310
670.0829, 412.0532
670.5650, 412.5219
671.0471, 413.1530
671.5292, 414.1137
672.0114, 415.2345
672.4935, 415.8994
672.9756, 415.7918
673.4577, 415.7605
673.9398, 416.4082
674.4219, 416.9962
674.9041, 416.5539
675.3862, 415.2885
675.8683, 414.2697
676.3504, 414.1619
676.8325, 414.6735
677.3146, 415.1209
677.7968, 415.4588
678.2789, 415.9638
678.7610, 416.8042
679.2431, 417.6436
679.7252, 418.3727
680.2073, 418.9448
680.6895, 419.2536
681.1716, 419.2693
681.6537, 419.0414
682.1358, 418.1277
682.6179, 417.2119
683.1000, 417.4606
683.5822, 418.8502
684.0643, 420.3564
684.5464, 421.3322
685.0285, 421.9253
685.5106, 422.5479
685.9927, 423.1745
686.4749, 423.8878
686.9570, 424.7743
687.4391, 425.6632
687.9212, 426.7162
688.4033, 427.6657
688.8854, 427.8857
689.3676, 426.9663
689.8497, 426.2368
690.3318, 427.1022
690.8139, 428.8983
691.2960, 430.1987
691.7781, 430.8685
692.2603, 431.3862
692.7424, 431.9674
693.2245, 432.7335
693.7066, 434.0523
694.1887, 436.4518
694.6708, 438.3326
695.1530, 439.2473
695.6351, 440.1295
696.1172, 441.6537
696.5993, 443.3974
697.0814, 444.4811
697.5635, 444.5664
698.0457, 444.5632
698.5278, 445.6143
699.0099, 447.3125
699.4920, 448.3228
699.9741, 448.5220
700.4562, 448.3811
700.9384, 447.9273
701.4205, 447.5721
701.9026, 448.3549
702.3847, 451.2464
702.8668, 452.6001
703.3489, 450.7351
703.8311, 449.0254
704.3132, 449.2670
704.7953, 450.7357
705.2774, 452.3054
705.7595, 453.5703
706.2416, 454.4687
706.7238, 454.7128
707.2059, 454.4914
707.6880, 454.6094
708.1701, 455.0746
708.6522, 455.9334
709.1343, 457.3394
709.6164, 458.9990
710.0985, 460.6068
710.5806, 462.2759
711.0627, 463.1011
711.5449, 462.4009
712.0270, 461.5185
712.5091, 460.8952
712.9912, 460.5709
713.4733, 460.7139
713.9554, 461.2750
714.4376, 461.7039
714.9197, 461.4591
715.4018, 460.6683
715.8839, 459.7661
716.3660, 458.7340
716.8481, 457.7518
717.3303, 456.7812
717.8124, 456.0282
718.2945, 455.9396
718.7766, 456.4447
719.2587, 456.4356
719.7408, 455.5951
720.2230, 454.4908
720.7051, 453.5446
721.1872, 452.3455
721.6693, 450.1053
722.1514, 446.9523
722.6335, 444.0204
723.1157, 442.2175
723.5978, 441.1429
724.0799, 439.7040
724.5620, 437.8307
725.0441, 436.2557
725.5262, 435.2769
726.0084, 434.3474
726.4905, 432.9160
726.9726, 431.1510
727.4547, 429.7700
727.9368, 429.1230
728.4189, 428.3617
728.9011, 427.1513
729.3832, 425.7774
729.8653, 424.1915
730.3474, 422.6859
730.8295, 422.1939
731.3116, 423.3296
731.7938, 424.9014
732.2759, 424.7923
732.7580, 422.9803
733.2401, 420.7273
733.7222, 417.7354
734.2043, 415.3710
734.6865, 414.8311
735.1686, 415.2862
735.6507, 414.8738
736.1328, 413.3584
736.6149, 411.8109
737.0970, 410.2972
737.5792, 408.9515
738.0613, 408.0167
738.5434, 407.2738
739.0255, 406.1431
739.5076, 404.4612
739.9897, 403.0113
740.4719, 402.9460
740.9540, 404.0172
741.4361, 404.3833
741.9182, 403.9029
742.4003, 403.4302
742.8824, 403.3228
743.3646, 403.3138
743.8467, 402.8414
744.3288, 401.8769
744.8109, 401.8109
745.2930, 404.0652
745.7751, 405.7104
746.2573, 405.1902
746.7394, 403.6230
747.2215, 402.2734
747.7036, 401.3654
748.1857, 400.4456
748.6678, 399.0765
749.1500, 397.6480
749.6321, 397.3187
750.1142, 398.0873
750.5963, 397.9419
751.0784, 396.1736
751.5605, 394.3733
752.0427, 394.0358
752.5248, 394.7793
753.0069, 394.4328
753.4890, 391.8067
753.9711, 390.0350
754.4532, 390.3488
754.9354, 390.8952
755.4175, 390.2068
755.8996, 388.6754
756.3817, 387.4024
756.8638, 386.8416
757.3459, 386.7333
757.8281, 386.8690
758.3102, 387.2037
758.7923, 387.7108
759.2744, 388.4198
759.7565, 388.5506
760.2386, 387.5484
760.7208, 386.0781
761.2029, 385.2360
761.6850, 385.0535
762.1671, 385.4168
762.6492, 387.3276
763.1313, 388.5448
763.6135, 387.7762
764.0956, 386.3096
764.5777, 385.6203
765.0598, 385.8577
765.5419, 386.0424
766.0240, 385.2216
766.5062, 384.2751
766.9883, 384.8549
767.4704, 386.4878
767.9525, 387.0010
768.4346, 385.8405
768.9167, 384.5176
769.3989, 384.4295
769.8810, 385.3109
770.3631, 385.4942
770.8452, 384.1023
771.3273, 383.6165
771.8094, 385.2504
772.2916, 386.7715
772.7737, 387.0581
773.2558, 386.3249
773.7379, 384.9854
774.2200, 382.9367
774.7021, 381.2329
775.1843, 380.7183
775.6664, 380.8784
776.1485, 381.2828
776.6306, 381.7362
777.1127, 381.6877
777.5948, 380.8832
778.0770, 379.6961
778.5591, 378.5988
779.0412, 377.5664
779.5233, 377.1644
780.0054, 377.7359
780.4875, 378.2242
780.9697, 378.4154
781.4518, 378.2660
781.9339, 377.6026
782.4160, 376.4764
782.8981, 375.5102
783.3802, 374.6922
783.8624, 374.2523
784.3445, 374.5629
784.8266, 375.1771
785.3087, 375.6496
785.7908, 375.8457
786.2729, 375.6143
786.7551, 374.7977
787.2372, 373.7299
787.7193, 373.0096
788.2014, 372.6399
788.6835, 372.8782
789.1656, 374.0237
789.6478, 374.7408
790.1299, 373.7419
790.6120, 372.0606
791.0941, 372.4212
791.5762, 375.9278
792.0583, 378.0596
792.5404, 377.7861
793.0225, 376.9547
793.5046, 375.8905
793.9868, 375.0558
794.4689, 375.1461
794.9510, 376.2069
795.4331, 377.3008
795.9152, 377.9157
796.3973, 377.9947
796.8795, 376.9735
797.3616, 375.1988
797.8437, 374.6390
798.3258, 375.8263
798.8079, 377.0500
799.2900, 376.6573
799.7722, 375.0976
800.2543, 374.9879
800.7364, 377.4456
801.2185, 379.0614
801.7006, 379.4135
802.1827, 379.0138
802.6649, 377.6264
803.1470, 375.7636
803.6291, 374.2867
804.1112, 373.3595
804.5933, 372.8775
805.0754, 373.0420
805.5576, 373.4439
806.0397, 373.9153
806.5218, 374.2531
807.0039, 374.0275
807.4860, 373.1048
807.9681, 371.7378
808.4503, 370.0472
808.9324, 368.1975
809.4145, 367.1366
809.8966, 366.9391
810.3787, 367.1037
810.8608, 367.7365
811.3430, 368.2832
811.8251, 368.3177
812.3072, 367.8278
812.7893, 366.8526
813.2714, 364.8832
813.7535, 363.1969
814.2357, 361.7885
814.7178, 360.8900
815.1999, 361.0432
815.6820, 361.7572
816.1641, 362.0928
816.6462, 361.7241
817.1284, 360.9989
817.6105, 360.1313
818.0926, 359.1713
818.5747, 358.0820
819.0568, 356.9430
819.5389, 356.2636
820.0211, 356.2393
820.5032, 356.4701
820.9853, 356.5370
821.4674, 356.4340
821.9495, 356.0395
822.4316, 355.0648
822.9138, 354.4347
823.3959, 354.9985
823.8780, 355.2544
824.3601, 353.7267
824.8422, 351.1710
825.3243, 349.6435
825.8065, 349.8712
826.2886, 350.2096
826.7707, 349.9786
827.2528, 349.6363
827.7349, 349.5068
828.2170, 349.6167
828.6992, 350.0820
829.1813, 350.9000
829.6634, 351.4917
830.1455, 351.0495
830.6276, 349.9238
831.1097, 349.2881
831.5919, 349.1393
832.0740, 349.2227
832.5561, 349.5637
833.0382, 349.7013
833.5203, 349.1302
834.0024, 347.9583
834.4846, 346.9852
834.9667, 346.1791
835.4488, 345.6389
835.9309, 345.6798
836.4130, 345.6493
836.8951, 344.9003
837.3773, 343.9396
837.8594, 343.7961
838.3415, 344.8008
838.8236, 345.6815
839.3057, 345.6261
839.7878, 345.2828
840.2700, 345.2617
840.7521, 345.4575
841.2342, 345.6772
841.7163, 345.8207
842.1984, 345.5932
842.6805, 344.5821
843.1627, 343.1968
843.6448, 342.7963
844.1269, 343.4170
844.6090, 343.7709
845.0911, 343.5573
845.5732, 343.3657
846.0554, 343.6991
846.5375, 344.2897
847.0196, 344.3672
847.5017, 343.7797
847.9838, 342.9981
848.4659, 341.2990
848.9481, 340.2421
849.4302, 340.9521
849.9123, 342.3177
850.3944, 343.0916
850.8765, 343.0895
851.3586, 342.6900
851.8408, 341.7471
852.3229, 340.8107
852.8050, 340.3033
853.2871, 340.1365
853.7692, 340.2582
854.2513, 340.5907
854.7335, 340.9077
855.2156, 341.0757
855.6977, 341.0703
856.1798, 340.8238
856.6619, 340.3411
857.1440, 339.6097
857.6262, 338.4473
858.1083, 338.0948
858.5904, 339.4219
859.0725, 341.3043
859.5546, 342.2573
860.0367, 342.2456
860.5189, 341.6888
861.0010, 339.6549
861.4831, 338.3693
861.9652, 338.7581
862.4473, 339.5153
862.9294, 339.5682
863.4116, 339.1570
863.8937, 339.2554
864.3758, 340.4157
864.8579, 341.2470
865.3400, 340.3539
865.8221, 339.0606
866.3043, 339.0024
866.7864, 339.8417
867.2685, 340.5150
867.7506, 340.6320
868.2327, 340.2603
868.7148, 339.2818
869.1970, 337.9922
869.6791, 337.4490
870.1612, 337.6528
870.6433, 337.8454
871.1254, 337.8266
871.6075, 338.0102
872.0897, 338.8292
872.5718, 339.9872
873.0539, 340.5094
873.5360, 340.1435
874.0181, 339.7196
874.5002, 338.9604
874.9823, 338.4750
875.4644, 339.0825
875.9465, 339.6960
876.4286, 338.6986
876.9108, 336.1020
877.3929, 334.2990
877.8750, 334.5319
878.3571, 335.2729
878.8392, 336.0806
879.3214, 336.6719
879.8035, 336.5244
880.2856, 335.8290
880.7677, 335.3599
881.2498, 335.5221
881.7319, 335.8319
882.2141, 335.5006
882.6962, 334.8600
883.1783, 334.9506
883.6604, 335.7682
884.1425, 336.9580
884.6246, 338.4521
885.1068, 339.6275
885.5889, 339.6611
886.0710, 338.7827
886.5531, 338.8995
887.0352, 340.4852
887.5173, 341.6994
887.9995, 342.3635
888.4816, 342.5385
888.9637, 341.9256
889.4458, 340.9466
889.9279, 340.4641
890.4100, 340.6004
890.8922, 340.7956
891.3743, 340.9831
891.8564, 341.1986
892.3385, 341.5422
892.8206, 341.8686
893.3027, 341.9690
893.7849, 341.8706
894.2670, 341.8179
894.7491, 341.9693
895.2312, 342.1306
895.7133, 342.4986
896.1954, 342.5719
896.6776, 340.8836
897.1597, 337.9831
897.6418, 336.3836
898.1239, 337.1582
898.6060, 339.0529
899.0881, 340.8000
899.5703, 342.2781
900.0524, 342.6335
900.5345, 341.7852
901.0166, 341.5092
901.4987, 342.4017
901.9808, 343.2359
902.4630, 343.0446
902.9451, 342.0171
903.4272, 340.7484
903.9093, 338.7174
904.3914, 337.6529
904.8735, 338.2077
905.3557, 338.9257
905.8378, 339.4047
906.3199, 339.7206
906.8020, 339.8740
907.2841, 339.8905
907.7662, 340.0877
908.2484, 340.6937
908.7305, 341.2974
909.2126, 341.6913
909.6947, 342.0396
910.1768, 342.7226
910.6589, 343.4604
911.1411, 343.3625
911.6232, 342.0651
912.1053, 341.0499
912.5874, 341.9409
913.0695, 343.6894
913.5516, 344.8577
914.0338, 345.4604
914.5159, 345.5263
914.9980, 345.1416
915.4801, 344.9590
915.9622, 345.5365
916.4443, 346.5083
916.9265, 346.8803
917.4086, 346.6575
917.8907, 347.1902
918.3728, 348.7731
918.8549, 349.9526
919.3370, 349.9989
919.8192, 349.4957
920.3013, 349.1713
920.7834, 349.0199
921.2655, 349.2912
921.7476, 350.6042
922.2297, 351.2685
922.7119, 350.1295
923.1940, 349.1982
923.6761, 349.8920
924.1582, 351.5498
924.6403, 352.7187
925.1224, 353.0478
925.6046, 353.8349
926.0867, 356.2427
926.5688, 358.2281
927.0509, 358.4505
927.5330, 357.8087
928.0151, 356.9943
928.4973, 356.3768
928.9794, 356.7834
929.4615, 359.0450
929.9436, 361.2307
930.4257, 361.4747
930.9078, 360.7094
931.3900, 360.0209
931.8721, 359.6172
932.3542, 359.7720
932.8363, 360.5539
933.3184, 361.6877
933.8005, 363.0257
934.2827, 364.3694
934.7648, 365.1060
935.2469, 365.2973
935.7290, 365.6021
936.2111, 366.1378
936.6932, 366.4260
937.1754, 366.1773
937.6575, 365.5350
938.1396, 364.6856
938.6217, 363.5748
939.1038, 362.9637
939.5859, 363.0208
940.0681, 363.1589
940.5502, 363.5047
941.0323, 363.4855
941.5144, 362.1873
941.9965, 360.1069
942.4786, 359.4422
942.9608, 361.2519
943.4429, 362.2173
943.9250, 361.9185
944.4071, 361.0985
944.8892, 359.3986
945.3713, 357.7616
945.8535, 357.4647
946.3356, 358.4119
946.8177, 359.0608
947.2998, 358.6979
947.7819, 358.2745
948.2640, 358.4581
948.7462, 358.6099
949.2283, 357.9082
949.7104, 356.7520
950.1925, 356.1446
950.6746, 356.3422
951.1567, 356.4868
951.6389, 355.4633
952.1210, 354.4186
952.6031, 355.1836
953.0852, 356.9570
953.5673, 357.9293
954.0494, 357.9687
954.5316, 358.0899
955.0137, 358.8518
955.4958, 359.6704
955.9779, 359.5897
956.4600, 358.8159
956.9421, 358.3343
957.4242, 358.1421
957.9063, 358.1630
958.3884, 358.3803
958.8705, 358.7818
959.3527, 359.3957
959.8348, 360.1028
960.3169, 360.5570
960.7990, 360.7564
961.2811, 360.6547
961.7632, 360.0502
962.2454, 359.7237
962.7275, 360.0925
963.2096, 360.6840
963.6917, 361.0219
964.1738, 361.1177
964.6559, 361.0813
965.1381, 360.5081
965.6202, 360.4698
966.1023, 361.2668
966.5844, 362.2840
967.0665, 363.5490
967.5486, 364.7278
968.0308, 365.1619
968.5129, 364.8380
968.9950, 365.1788
969.4771, 367.3175
969.9592, 369.0519
970.4413, 369.3125
970.9235, 369.1689
971.4056, 369.4496
971.8877, 370.0117
972.3698, 370.3721
972.8519, 370.3988
973.3340, 370.5150
973.8162, 370.8543
974.2983, 371.4843
974.7804, 372.8032
975.2625, 374.2477
975.7446, 374.8473
976.2267, 374.7625
976.7089, 374.9625
977.1910, 375.9064
977.6731, 377.1133
978.1552, 378.1272
978.6373, 379.0520
979.1194, 380.0088
979.6016, 381.0512
980.0837, 382.2520
980.5658, 383.6587
981.0479, 385.5112
981.5300, 388.0395
982.0121, 390.6432
982.4943, 392.1699
982.9764, 392.7693
983.4585, 393.2089
983.9406, 393.5242
984.4227, 393.9141
984.9048, 394.4308
985.3870, 395.1284
985.8691, 396.0439
986.3512, 397.1971
986.8333, 398.7525
987.3154, 400.7929
987.7975, 402.3942
988.2797, 403.2232
988.7618, 404.8791
989.2439, 408.3489
989.7260, 412.1787
990.2081, 414.7178
990.6902, 416.0634
991.1724, 417.1144
991.6545, 417.2324
992.1366, 418.5810
992.6187, 421.8030
993.1008, 425.5319
993.5829, 429.3558
994.0651, 433.1960
994.5472, 437.0511
995.0293, 440.9256
995.5114, 444.2113
995.9935, 446.4443
996.4756, 448.7735
996.9578, 451.0136
997.4399, 453.7139
997.9220, 457.1092
998.4041, 461.1943
998.8862, 465.9060
999.3683, 471.2202
999.8505, 477.2957
1000.333, 485.0782
1000.815, 492.4049
1001.297, 498.0256
1001.779, 503.2192
1002.261, 508.1534
1002.743, 513.7345
1003.225, 522.0237
1003.707, 533.5504
1004.190, 544.3492
1004.672, 551.9269
1005.154, 558.6848
1005.636, 566.4006
1006.118, 574.1537
1006.600, 580.5289
1007.082, 585.9978
1007.564, 592.4864
1008.046, 600.7469
1008.529, 608.2140
1009.011, 611.3951
1009.493, 614.0449
1009.975, 620.6700
1010.457, 629.6095
1010.939, 637.8389
1011.421, 645.1466
1011.903, 652.9667
1012.385, 661.9495
1012.868, 671.8262
1013.350, 682.8450
1013.832, 694.2502
1014.314, 705.3871
1014.796, 715.6416
1015.278, 722.9072
1015.760, 727.1352
1016.242, 730.7164
1016.725, 735.1650
1017.207, 738.3220
1017.689, 737.0135
1018.171, 731.8123
1018.653, 724.0495
1019.135, 714.1273
1019.617, 704.5048
1020.099, 695.7060
1020.581, 686.3944
1021.064, 675.5577
1021.546, 664.1524
1022.028, 653.6647
1022.510, 644.1424
1022.992, 635.9194
1023.474, 629.0065
1023.956, 621.9415
1024.438, 614.2158
1024.921, 607.7492
1025.403, 604.1251
1025.885, 602.2708
1026.367, 599.5687
1026.849, 595.8980
1027.331, 593.7340
1027.813, 593.4498
1028.295, 592.3151
1028.777, 589.2184
1029.260, 586.4354
1029.742, 585.9759
1030.224, 586.9792
1030.706, 587.0505
1031.188, 586.0530
1031.670, 584.8209
1032.152, 583.2581
1032.634, 581.6377
1033.116, 579.5989
1033.599, 578.4002
1034.081, 579.3492
1034.563, 581.7888
1035.045, 583.6602
1035.527, 584.7476
1036.009, 586.0162
1036.491, 587.3860
1036.973, 589.1754
1037.456, 592.4440
1037.938, 594.9182
1038.420, 594.5226
1038.902, 591.8544
1039.384, 588.7939
1039.866, 584.9576
1040.348, 581.8796
1040.830, 580.3555
1041.313, 578.4667
1041.795, 574.9221
1042.277, 571.5535
1042.759, 570.2011
1043.241, 570.1982
1043.723, 569.3528
1044.205, 566.8430
1044.687, 565.6935
1045.169, 567.4114
1045.651, 568.6720
1046.134, 568.0129
1046.616, 566.9982
1047.098, 566.7029
1047.580, 567.1151
1048.062, 568.1567
1048.544, 570.1053
1049.026, 571.6788
1049.508, 572.1337
1049.991, 572.9327
1050.473, 574.5115
1050.955, 576.6796
1051.437, 580.2744
1051.919, 584.1865
1052.401, 585.0391
1052.883, 581.0482
1053.365, 579.9691
1053.848, 585.3668
1054.330, 591.4891
1054.812, 596.8092
1055.294, 601.3544
1055.776, 604.9294
1056.258, 607.8730
1056.740, 610.8618
1057.222, 613.9953
1057.704, 617.2952
1058.187, 620.2324
1058.669, 624.0047
1059.151, 629.8712
1059.633, 636.1064
1060.115, 640.9659
1060.597, 645.0624
1061.079, 650.1299
1061.561, 656.6268
1062.043, 662.8128
1062.526, 667.8054
1063.008, 672.7709
1063.490, 678.1354
1063.972, 683.8331
1064.454, 689.2914
1064.936, 695.1738
1065.418, 703.4168
1065.900, 714.4873
1066.383, 723.8567
1066.865, 727.5828
1067.347, 732.0569
1067.829, 740.6566
1068.311, 750.9053
1068.793, 761.0742
1069.275, 771.0231
1069.757, 780.8271
1070.240, 790.5399
1070.722, 800.8782
1071.204, 812.8126
1071.686, 824.5579
1072.168, 834.9496
1072.650, 845.1614
1073.132, 856.0712
1073.614, 867.6719
1074.096, 880.0267
1074.578, 893.0272
1075.061, 905.9298
1075.543, 917.9547
1076.025, 930.5889
1076.507, 944.5242
1076.989, 959.3515
1077.471, 974.5234
1077.953, 990.5839
1078.435, 1008.589
1078.918, 1028.474
1079.400, 1048.485
1079.882, 1066.947
1080.364, 1087.851
1080.846, 1113.902
1081.328, 1142.393
1081.810, 1172.301
1082.292, 1202.988
1082.774, 1233.604
1083.257, 1264.291
1083.739, 1296.127
1084.221, 1329.094
1084.703, 1364.760
1085.185, 1402.691
1085.667, 1444.700
1086.149, 1493.363
1086.631, 1545.717
1087.114, 1598.204
1087.596, 1651.268
1088.078, 1708.033
1088.560, 1769.587
1089.042, 1834.254
1089.524, 1903.096
1090.006, 1973.656
1090.488, 2042.732
1090.970, 2114.086
1091.453, 2189.654
1091.935, 2270.946
1092.417, 2359.297
1092.899, 2455.651
1093.381, 2556.383
1093.863, 2661.358
1094.345, 2768.828
1094.827, 2877.476
1095.309, 2987.648
1095.792, 3099.216
1096.274, 3212.532
1096.756, 3328.994
1097.238, 3448.587
1097.720, 3570.341
1098.202, 3694.441
1098.684, 3819.889
1099.166, 3947.478
1099.649, 4076.543
1100.131, 4209.311
1100.613, 4341.915
1101.095, 4471.951
1101.577, 4598.195
1102.059, 4713.425
1102.541, 4816.945
1103.023, 4906.781
1103.505, 4980.539
1103.988, 5043.203
1104.470, 5099.713
1104.952, 5144.593
1105.434, 5170.802
1105.916, 5179.208
1106.398, 5175.526
1106.880, 5157.105
1107.362, 5134.756
1107.844, 5116.203
1108.327, 5086.295
1108.809, 5037.790
1109.291, 4976.652
1109.773, 4906.380
1110.255, 4828.328
1110.737, 4745.255
1111.219, 4656.189
1111.701, 4566.551
1112.184, 4479.133
1112.666, 4388.372
1113.148, 4287.947
1113.630, 4188.501
1114.112, 4099.269
1114.594, 4015.377
1115.076, 3926.731
1115.558, 3832.992
1116.041, 3740.942
1116.523, 3651.777
1117.005, 3562.684
1117.487, 3473.476
1117.969, 3384.098
1118.451, 3293.733
1118.933, 3203.874
1119.415, 3116.133
1119.897, 3030.917
1120.380, 2947.543
1120.862, 2865.754
1121.344, 2786.790
1121.826, 2710.907
1122.308, 2636.698
1122.790, 2563.008
1123.272, 2491.342
1123.754, 2423.560
1124.236, 2359.022
1124.719, 2295.649
1125.201, 2233.093
1125.683, 2171.960
1126.165, 2111.242
1126.647, 2056.375
1127.129, 2009.878
1127.611, 1965.505
1128.093, 1919.035
1128.576, 1872.552
1129.058, 1830.033
1129.540, 1791.520
1130.022, 1752.982
1130.504, 1714.504
1130.986, 1677.108
1131.468, 1640.952
1131.950, 1607.290
1132.432, 1576.770
1132.915, 1548.925
1133.397, 1523.510
1133.879, 1500.109
1134.361, 1477.041
1134.843, 1454.331
1135.325, 1434.935
1135.807, 1418.827
1136.289, 1401.462
1136.771, 1381.433
1137.254, 1362.484
1137.736, 1347.615
1138.218, 1335.727
1138.700, 1325.131
1139.182, 1315.791
1139.664, 1307.910
1140.146, 1301.175
1140.628, 1294.280
1141.111, 1287.048
1141.593, 1280.220
1142.075, 1274.114
1142.557, 1269.270
1143.039, 1266.441
1143.521, 1265.118
1144.003, 1264.429
1144.485, 1264.616
1144.968, 1265.664
1145.450, 1268.089
1145.932, 1273.712
1146.414, 1282.850
1146.896, 1292.708
1147.378, 1301.209
1147.860, 1309.881
1148.342, 1319.665
1148.824, 1330.876
1149.307, 1342.891
1149.789, 1357.114
1150.271, 1376.644
1150.753, 1400.965
1151.235, 1425.635
1151.717, 1448.607
1152.199, 1473.148
1152.681, 1500.029
1153.163, 1530.353
1153.646, 1565.905
1154.128, 1604.452
1154.610, 1643.807
1155.092, 1684.236
1155.574, 1726.051
1156.056, 1769.377
1156.538, 1818.272
1157.020, 1877.027
1157.503, 1936.945
1157.985, 1994.160
1158.467, 2053.702
1158.949, 2119.743
1159.431, 2189.598
1159.913, 2258.415
1160.395, 2331.759
1160.877, 2407.589
1161.359, 2483.372
1161.842, 2565.818
1162.324, 2647.135
1162.806, 2731.098
1163.288, 2820.971
1163.770, 2910.442
1164.252, 2994.377
1164.734, 3078.828
1165.216, 3161.275
1165.698, 3239.951
1166.181, 3319.614
1166.663, 3395.412
1167.145, 3468.020
1167.627, 3539.421
1168.109, 3601.688
1168.591, 3650.915
1169.073, 3690.617
1169.555, 3725.696
1170.037, 3746.376
1170.520, 3766.898
1171.002, 3764.348
1171.484, 3757.006
1171.966, 3745.381
1172.448, 3728.924
1172.930, 3707.458
1173.412, 3682.141
1173.894, 3653.832
1174.377, 3621.120
1174.859, 3581.252
1175.341, 3535.388
1175.823, 3485.453
1176.305, 3432.356
1176.787, 3378.937
1177.269, 3325.050
1177.751, 3269.457
1178.234, 3211.671
1178.716, 3153.287
1179.198, 3094.558
1179.680, 3037.939
1180.162, 2989.150
1180.644, 2941.485
1181.126, 2885.070
1181.608, 2823.819
1182.090, 2766.137
1182.573, 2712.699
1183.055, 2658.983
1183.537, 2603.224
1184.019, 2549.550
1184.501, 2501.647
1184.983, 2454.848
1185.465, 2406.674
1185.947, 2358.452
1186.429, 2310.654
1186.912, 2263.709
1187.394, 2218.358
1187.876, 2174.567
1188.358, 2131.841
1188.840, 2090.123
1189.322, 2049.369
1189.804, 2008.908
1190.286, 1970.524
1190.769, 1935.978
1191.251, 1902.704
1191.733, 1868.883
1192.215, 1835.017
1192.697, 1802.005
1193.179, 1769.803
1193.661, 1739.922
1194.143, 1712.883
1194.625, 1686.472
1195.108, 1660.346
1195.590, 1635.047
1196.072, 1610.887
1196.554, 1587.860
1197.036, 1566.099
1197.518, 1545.531
1198.000, 1525.844
1198.482, 1507.145
1198.964, 1489.396
1199.447, 1472.661
1199.929, 1457.386
1200.411, 1443.455
1200.893, 1428.561
1201.375, 1411.351
1201.857, 1394.346
1202.339, 1380.362
1202.821, 1368.297
1203.304, 1356.229
1203.786, 1344.729
1204.268, 1335.504
1204.750, 1327.588
1205.232, 1318.499
1205.714, 1307.718
1206.196, 1296.415
1206.678, 1285.243
1207.161, 1273.723
1207.643, 1259.950
1208.125, 1247.684
1208.607, 1240.475
1209.089, 1235.294
1209.571, 1229.746
1210.053, 1223.286
1210.535, 1214.907
1211.017, 1204.319
1211.500, 1195.354
1211.982, 1189.568
1212.464, 1183.762
1212.946, 1177.646
1213.428, 1171.211
1213.910, 1163.772
1214.392, 1156.836
1214.874, 1152.223
1215.356, 1146.108
1215.839, 1144.263
1216.321, 1137.540
1216.803, 1133.326
1217.285, 1132.098
1217.767, 1130.378
1218.249, 1127.669
1218.731, 1123.487
1219.213, 1117.427
1219.696, 1111.758
1220.178, 1109.213
1220.660, 1108.324
1221.142, 1105.526
1221.624, 1101.499
1222.106, 1098.659
1222.588, 1096.706
1223.070, 1093.930
1223.552, 1090.276
1224.035, 1087.062
1224.517, 1084.891
1224.999, 1084.395
1225.481, 1087.692
1225.963, 1091.077
1226.445, 1091.682
1226.927, 1090.122
1227.409, 1086.235
1227.891, 1081.082
1228.374, 1075.727
1228.856, 1070.609
1229.338, 1066.591
1229.820, 1064.243
1230.302, 1061.877
1230.784, 1058.529
1231.266, 1055.910
1231.748, 1055.572
1232.231, 1054.990
1232.713, 1052.278
1233.195, 1050.736
1233.677, 1046.293
1234.159, 1044.774
1234.641, 1041.797
1235.123, 1036.854
1235.605, 1033.033
1236.088, 1030.753
1236.570, 1027.431
1237.052, 1022.287
1237.534, 1017.041
1238.016, 1012.808
1238.498, 1007.722
1238.980, 1003.895
1239.462, 998.4852
1239.944, 993.7655
1240.427, 989.5988
1240.909, 986.0181
1241.391, 982.5187
1241.873, 977.0472
1242.355, 969.6517
1242.837, 963.4762
1243.319, 960.2872
1243.801, 957.7731
1244.283, 953.8943
1244.766, 950.3098
1245.248, 948.3901
1245.730, 947.2946
1246.212, 946.3394
1246.694, 945.4998
1247.176, 945.4311
1247.658, 945.8904
1248.140, 944.1017
1248.622, 937.6905
1249.105, 933.2054
1249.587, 932.3562
1250.069, 931.1888
1250.551, 928.0880
1251.033, 925.7555
1251.515, 926.0749
1251.997, 927.8160
1252.479, 929.5087
1252.962, 930.7606
1253.444, 928.5569
1253.926, 923.0090
1254.408, 921.1455
1254.890, 923.0481
1255.372, 923.5369
1255.854, 921.5452
1256.336, 920.6172
1256.818, 922.8312
1257.301, 925.3885
1257.783, 924.8481
1258.265, 923.3312
1258.747, 922.7609
1259.229, 923.7699
1259.711, 928.6279
1260.193, 935.0926
1260.675, 938.8964
1261.157, 939.8900
1261.640, 940.8636
1262.122, 942.5053
1262.604, 944.9456
1263.086, 948.0831
1263.568, 952.2303
1264.050, 957.9405
1264.532, 964.1949
1265.014, 971.2159
1265.497, 977.6717
1265.979, 981.9871
1266.461, 984.3613
1266.943, 985.0445
1267.425, 983.2241
1267.907, 986.3597
1268.389, 994.9778
1268.871, 1002.890
1269.354, 1008.998
1269.836, 1015.134
1270.318, 1022.197
1270.800, 1028.632
1271.282, 1032.505
1271.764, 1036.203
1272.246, 1043.719
1272.728, 1053.680
1273.210, 1064.161
1273.693, 1074.891
1274.175, 1086.048
1274.657, 1097.176
1275.139, 1106.678
1275.621, 1114.281
1276.103, 1122.861
1276.585, 1134.161
1277.067, 1145.862
1277.549, 1156.691
1278.032, 1168.469
1278.514, 1182.211
1278.996, 1197.198
1279.478, 1213.121
1279.960, 1229.380
1280.442, 1244.437
1280.924, 1258.380
1281.406, 1274.998
1281.889, 1294.276
1282.371, 1316.667
1282.853, 1342.358
1283.335, 1369.615
1283.817, 1398.122
1284.299, 1426.434
1284.781, 1453.437
1285.263, 1481.030
1285.745, 1510.976
1286.228, 1543.309
##END=



