##NAMES=Hutchinsonite
##RRUFFID=R060789
##IDEAL CHEMISTRY=Pb^2+^Tl^1+^As^3+^_5_S^2-^_9_
##LOCALITY=Peru
##OWNER=RRUFF
##SOURCE=Michael Scott
##DESCRIPTION=Deep red acicular crystals
##STATUS=The identification of this mineral has been confirmed by single-crystal X-ray diffraction.
##URL=rruff.info/R060789
95.49341, 138.2374
95.97552, 145.5674
96.45764, 143.4151
96.93976, 126.3984
97.42188, 90.43848
97.90399, 54.24935
98.38611, 55.60220
98.86823, 101.0812
99.35034, 135.4894
99.83246, 135.1268
100.3146, 111.9507
100.7967, 92.33810
101.2788, 84.08813
101.7609, 84.18860
102.2430, 87.29263
102.7252, 93.59372
103.2073, 101.5495
103.6894, 110.8831
104.1715, 121.4070
104.6536, 132.4084
105.1357, 147.9392
105.6179, 160.3395
106.1000, 158.5189
106.5821, 136.1078
107.0642, 112.6016
107.5463, 111.1158
108.0284, 135.4030
108.5106, 156.9341
108.9927, 160.2664
109.4748, 156.7682
109.9569, 157.2176
110.4390, 167.6504
110.9211, 178.2053
111.4033, 165.9353
111.8854, 111.6405
112.3675, 79.75102
112.8496, 112.7930
113.3317, 170.3168
113.8138, 206.4030
114.2960, 194.9827
114.7781, 150.1067
115.2602, 119.7388
115.7423, 104.9775
116.2244, 105.9884
116.7065, 132.1221
117.1887, 170.9481
117.6708, 204.5101
118.1529, 220.9516
118.6350, 221.5139
119.1171, 220.8370
119.5992, 217.2385
120.0814, 213.8874
120.5635, 211.2430
121.0456, 209.4047
121.5277, 208.0669
122.0098, 206.4580
122.4919, 204.0950
122.9741, 208.3166
123.4562, 219.9989
123.9383, 236.7033
124.4204, 263.2256
124.9025, 295.7106
125.3846, 323.0207
125.8668, 332.3614
126.3489, 316.4594
126.8310, 319.2138
127.3131, 351.8932
127.7952, 389.7732
128.2773, 419.4314
128.7595, 439.7001
129.2416, 458.2742
129.7237, 484.6451
130.2058, 525.2921
130.6879, 551.2032
131.1700, 547.7323
131.6522, 540.1528
132.1343, 553.2307
132.6164, 590.0962
133.0985, 627.7795
133.5806, 633.4492
134.0627, 588.8722
134.5449, 563.4805
135.0270, 569.0760
135.5091, 590.9994
135.9912, 620.1757
136.4733, 655.1876
136.9554, 683.2252
137.4376, 679.6837
137.9197, 635.5693
138.4018, 599.3500
138.8839, 578.5119
139.3660, 570.9683
139.8481, 574.9034
140.3303, 590.9155
140.8124, 614.8115
141.2945, 639.0758
141.7766, 660.9334
142.2587, 692.7946
142.7408, 752.0029
143.2230, 823.9253
143.7051, 872.9063
144.1872, 881.5012
144.6693, 874.6586
145.1514, 890.5479
145.6335, 930.8249
146.1157, 977.8231
146.5978, 1029.047
147.0799, 1081.805
147.5620, 1125.094
148.0441, 1153.183
148.5262, 1172.599
149.0084, 1193.889
149.4905, 1218.175
149.9726, 1239.990
150.4547, 1251.794
150.9368, 1255.592
151.4189, 1268.056
151.9010, 1298.735
152.3832, 1337.378
152.8653, 1376.482
153.3474, 1418.975
153.8295, 1446.361
154.3116, 1435.860
154.7937, 1387.844
155.2759, 1344.256
155.7580, 1324.191
156.2401, 1310.174
156.7222, 1285.870
157.2043, 1248.278
157.6864, 1205.712
158.1686, 1163.248
158.6507, 1119.900
159.1328, 1086.623
159.6149, 1072.948
160.0970, 1067.983
160.5791, 1064.491
161.0613, 1061.070
161.5434, 1058.795
162.0255, 1056.582
162.5076, 1052.328
162.9897, 1059.112
163.4718, 1091.344
163.9540, 1130.674
164.4361, 1168.023
164.9182, 1201.800
165.4003, 1225.268
165.8824, 1223.515
166.3645, 1186.446
166.8467, 1160.193
167.3288, 1162.913
167.8109, 1176.760
168.2930, 1190.273
168.7751, 1200.133
169.2572, 1207.847
169.7394, 1215.657
170.2215, 1223.966
170.7036, 1231.220
171.1857, 1240.228
171.6678, 1246.615
172.1499, 1244.950
172.6321, 1233.351
173.1142, 1218.531
173.5963, 1212.850
174.0784, 1221.839
174.5605, 1226.710
175.0426, 1217.415
175.5248, 1206.900
176.0069, 1207.558
176.4890, 1223.548
176.9711, 1245.421
177.4532, 1255.376
177.9353, 1246.408
178.4175, 1240.294
178.8996, 1240.792
179.3817, 1244.564
179.8638, 1250.064
180.3459, 1256.665
180.8280, 1262.489
181.3102, 1264.530
181.7923, 1264.477
182.2744, 1256.211
182.7565, 1233.984
183.2386, 1207.721
183.7207, 1184.117
184.2029, 1165.587
184.6850, 1152.484
185.1671, 1145.889
185.6492, 1148.214
186.1313, 1152.995
186.6134, 1164.723
187.0956, 1175.274
187.5777, 1175.288
188.0598, 1162.333
188.5419, 1146.243
189.0240, 1146.924
189.5061, 1180.990
189.9883, 1199.395
190.4704, 1195.418
190.9525, 1179.863
191.4346, 1155.776
191.9167, 1125.597
192.3988, 1098.818
192.8810, 1092.828
193.3631, 1118.665
193.8452, 1145.204
194.3273, 1170.239
194.8094, 1195.761
195.2915, 1225.044
195.7737, 1258.332
196.2558, 1290.912
196.7379, 1314.314
197.2200, 1321.248
197.7021, 1333.650
198.1842, 1358.423
198.6664, 1383.609
199.1485, 1399.043
199.6306, 1403.248
200.1127, 1404.145
200.5948, 1412.614
201.0770, 1428.033
201.5591, 1453.547
202.0412, 1511.354
202.5233, 1561.626
203.0054, 1575.440
203.4875, 1549.437
203.9697, 1502.407
204.4518, 1457.872
204.9339, 1417.369
205.4160, 1375.774
205.8981, 1324.094
206.3802, 1278.189
206.8624, 1248.251
207.3445, 1235.013
207.8266, 1231.726
208.3087, 1231.415
208.7908, 1235.697
209.2729, 1237.482
209.7551, 1234.748
210.2372, 1231.524
210.7193, 1229.653
211.2014, 1229.347
211.6835, 1229.761
212.1656, 1229.063
212.6478, 1225.151
213.1299, 1230.734
213.6120, 1256.627
214.0941, 1281.531
214.5762, 1299.086
215.0583, 1307.668
215.5405, 1306.509
216.0226, 1292.238
216.5047, 1261.963
216.9868, 1245.763
217.4689, 1254.513
217.9510, 1266.704
218.4332, 1277.791
218.9153, 1286.244
219.3974, 1290.354
219.8795, 1287.370
220.3616, 1277.056
220.8437, 1275.720
221.3259, 1299.135
221.8080, 1316.334
222.2901, 1313.920
222.7722, 1298.998
223.2543, 1287.007
223.7364, 1289.555
224.2186, 1304.836
224.7007, 1312.269
225.1828, 1305.553
225.6649, 1296.983
226.1470, 1287.167
226.6291, 1277.526
227.1113, 1268.582
227.5934, 1259.634
228.0755, 1253.154
228.5576, 1262.340
229.0397, 1315.886
229.5218, 1346.567
230.0040, 1327.693
230.4861, 1284.954
230.9682, 1247.219
231.4503, 1228.077
231.9324, 1225.452
232.4145, 1235.565
232.8967, 1271.607
233.3788, 1298.111
233.8609, 1304.829
234.3430, 1302.863
234.8251, 1302.584
235.3072, 1307.918
235.7894, 1316.686
236.2715, 1326.517
236.7536, 1343.160
237.2357, 1347.181
237.7178, 1326.266
238.1999, 1299.344
238.6821, 1279.604
239.1642, 1270.679
239.6463, 1268.989
240.1284, 1270.069
240.6105, 1274.268
241.0926, 1280.124
241.5748, 1287.303
242.0569, 1296.215
242.5390, 1310.312
243.0211, 1328.762
243.5032, 1343.089
243.9853, 1342.205
244.4675, 1324.083
244.9496, 1307.826
245.4317, 1282.564
245.9138, 1270.986
246.3959, 1299.223
246.8780, 1358.298
247.3602, 1405.186
247.8423, 1389.702
248.3244, 1315.175
248.8065, 1278.213
249.2886, 1309.020
249.7707, 1346.121
250.2529, 1356.306
250.7350, 1346.909
251.2171, 1340.585
251.6992, 1355.834
252.1813, 1385.918
252.6634, 1402.167
253.1456, 1398.467
253.6277, 1390.996
254.1098, 1386.066
254.5919, 1383.577
255.0740, 1383.388
255.5561, 1384.719
256.0382, 1388.806
256.5204, 1401.523
257.0025, 1428.323
257.4846, 1445.838
257.9667, 1425.519
258.4488, 1394.335
258.9309, 1388.454
259.4131, 1430.999
259.8952, 1480.341
260.3773, 1479.031
260.8594, 1422.736
261.3415, 1377.941
261.8236, 1376.368
262.3058, 1398.279
262.7879, 1420.799
263.2700, 1444.408
263.7521, 1461.562
264.2342, 1461.866
264.7163, 1448.062
265.1985, 1439.526
265.6806, 1443.051
266.1627, 1453.480
266.6448, 1465.251
267.1269, 1479.388
267.6090, 1488.143
268.0912, 1487.056
268.5733, 1477.895
269.0554, 1464.448
269.5375, 1447.246
270.0196, 1426.671
270.5017, 1396.285
270.9839, 1356.563
271.4660, 1334.862
271.9481, 1348.628
272.4302, 1379.949
272.9123, 1406.937
273.3944, 1426.534
273.8766, 1445.604
274.3587, 1473.541
274.8408, 1509.439
275.3229, 1529.141
275.8050, 1519.881
276.2871, 1502.695
276.7693, 1491.266
277.2514, 1486.082
277.7335, 1482.318
278.2156, 1473.731
278.6977, 1463.905
279.1798, 1478.738
279.6620, 1541.805
280.1441, 1601.486
280.6262, 1636.386
281.1083, 1652.201
281.5904, 1660.870
282.0725, 1666.797
282.5547, 1673.050
283.0368, 1689.777
283.5189, 1735.742
284.0010, 1768.090
284.4831, 1771.107
284.9652, 1762.226
285.4474, 1760.103
285.9295, 1771.066
286.4116, 1792.196
286.8937, 1819.359
287.3758, 1856.513
287.8579, 1892.115
288.3401, 1924.480
288.8222, 1956.399
289.3043, 1988.255
289.7864, 2020.947
290.2685, 2057.695
290.7506, 2103.286
291.2328, 2160.731
291.7149, 2209.872
292.1970, 2269.940
292.6791, 2304.449
293.1612, 2288.860
293.6433, 2234.608
294.1255, 2169.699
294.6076, 2113.229
295.0897, 2064.141
295.5718, 2014.008
296.0539, 1956.407
296.5360, 1905.788
297.0182, 1860.531
297.5003, 1824.955
297.9824, 1806.313
298.4645, 1809.280
298.9466, 1825.290
299.4287, 1835.888
299.9109, 1838.257
300.3930, 1842.456
300.8751, 1847.035
301.3572, 1856.365
301.8393, 1875.212
302.3214, 1904.613
302.8036, 1939.099
303.2857, 1976.876
303.7678, 2018.333
304.2499, 2046.967
304.7320, 2044.256
305.2141, 2044.366
305.6963, 2071.485
306.1784, 2124.167
306.6605, 2186.216
307.1426, 2253.599
307.6247, 2322.883
308.1068, 2383.509
308.5890, 2433.737
309.0711, 2477.168
309.5532, 2517.105
310.0353, 2552.340
310.5174, 2577.290
310.9995, 2605.371
311.4817, 2613.492
311.9638, 2568.182
312.4459, 2470.454
312.9280, 2359.517
313.4101, 2249.337
313.8922, 2144.518
314.3744, 2053.573
314.8565, 1979.438
315.3386, 1914.953
315.8207, 1860.628
316.3028, 1813.368
316.7849, 1762.257
317.2671, 1699.822
317.7492, 1642.527
318.2313, 1624.890
318.7134, 1667.534
319.1955, 1690.738
319.6776, 1672.756
320.1598, 1637.460
320.6419, 1604.678
321.1240, 1578.768
321.6061, 1560.286
322.0882, 1549.947
322.5703, 1548.536
323.0525, 1552.045
323.5346, 1571.662
324.0167, 1584.792
324.4988, 1571.139
324.9809, 1541.597
325.4630, 1525.661
325.9452, 1544.908
326.4273, 1591.123
326.9094, 1615.092
327.3915, 1592.114
327.8736, 1576.035
328.3557, 1577.973
328.8379, 1588.462
329.3200, 1596.884
329.8021, 1599.347
330.2842, 1599.725
330.7663, 1604.205
331.2484, 1613.129
331.7306, 1625.190
332.2127, 1643.477
332.6948, 1662.345
333.1769, 1681.043
333.6590, 1698.271
334.1411, 1710.181
334.6233, 1712.459
335.1054, 1705.780
335.5875, 1697.211
336.0696, 1689.498
336.5517, 1675.203
337.0338, 1633.992
337.5160, 1584.921
337.9981, 1568.430
338.4802, 1619.412
338.9623, 1695.369
339.4444, 1732.119
339.9265, 1726.878
340.4087, 1718.714
340.8908, 1724.895
341.3729, 1738.430
341.8550, 1745.237
342.3371, 1739.617
342.8192, 1740.195
343.3014, 1761.200
343.7835, 1796.120
344.2656, 1827.242
344.7477, 1847.925
345.2298, 1870.693
345.7119, 1914.961
346.1941, 1985.129
346.6762, 2049.024
347.1583, 2094.288
347.6404, 2138.205
348.1225, 2197.870
348.6046, 2272.451
349.0868, 2347.247
349.5689, 2409.303
350.0510, 2459.425
350.5331, 2526.239
351.0152, 2616.337
351.4973, 2713.173
351.9795, 2831.850
352.4616, 2948.852
352.9437, 3027.527
353.4258, 3051.697
353.9079, 3039.824
354.3900, 3032.504
354.8722, 3043.565
355.3543, 3031.346
355.8364, 2977.357
356.3185, 2916.273
356.8006, 2876.436
357.2827, 2857.019
357.7649, 2831.367
358.2470, 2763.199
358.7291, 2652.928
359.2112, 2586.549
359.6933, 2602.233
360.1754, 2611.509
360.6576, 2576.535
361.1397, 2509.842
361.6218, 2433.682
362.1039, 2354.256
362.5860, 2273.926
363.0681, 2194.833
363.5503, 2116.492
364.0324, 2043.843
364.5145, 1976.513
364.9966, 1918.214
365.4787, 1874.419
365.9608, 1848.115
366.4430, 1823.003
366.9251, 1784.564
367.4072, 1741.790
367.8893, 1719.841
368.3714, 1727.634
368.8535, 1733.286
369.3357, 1699.306
369.8178, 1622.980
370.2999, 1562.245
370.7820, 1521.976
371.2641, 1496.283
371.7462, 1486.106
372.2284, 1487.943
372.7105, 1492.908
373.1926, 1496.521
373.6747, 1498.187
374.1568, 1495.480
374.6389, 1483.573
375.1211, 1473.186
375.6032, 1462.441
376.0853, 1454.959
376.5674, 1454.671
377.0495, 1462.271
377.5316, 1475.057
378.0138, 1491.945
378.4959, 1516.828
378.9780, 1527.662
379.4601, 1504.038
379.9422, 1484.894
380.4243, 1489.854
380.9065, 1510.340
381.3886, 1525.256
381.8707, 1520.377
382.3528, 1504.216
382.8349, 1499.230
383.3170, 1509.460
383.7992, 1516.625
384.2813, 1514.997
384.7634, 1506.292
385.2455, 1491.488
385.7276, 1470.640
386.2097, 1444.416
386.6919, 1404.069
387.1740, 1357.966
387.6561, 1337.164
388.1382, 1353.158
388.6203, 1374.888
389.1024, 1369.966
389.5846, 1340.152
390.0667, 1311.787
390.5488, 1293.176
391.0309, 1272.475
391.5130, 1235.945
391.9951, 1188.564
392.4773, 1147.286
392.9594, 1120.670
393.4415, 1108.490
393.9236, 1110.329
394.4057, 1157.584
394.8878, 1178.275
395.3700, 1145.376
395.8521, 1098.480
396.3342, 1074.055
396.8163, 1078.039
397.2984, 1091.011
397.7805, 1091.160
398.2627, 1076.521
398.7448, 1069.423
399.2269, 1083.401
399.7090, 1090.349
400.1911, 1072.205
400.6732, 1043.061
401.1554, 1028.202
401.6375, 1042.365
402.1196, 1067.926
402.6017, 1071.647
403.0838, 1049.706
403.5659, 1037.304
404.0481, 1057.410
404.5302, 1079.229
405.0123, 1068.698
405.4944, 1024.096
405.9765, 983.0246
406.4586, 964.2855
406.9408, 960.4956
407.4229, 962.3890
407.9050, 969.4189
408.3871, 973.0974
408.8692, 966.2646
409.3513, 950.1174
409.8335, 936.0123
410.3156, 919.9885
410.7977, 910.2559
411.2798, 911.6848
411.7619, 920.9854
412.2440, 933.6896
412.7262, 948.2435
413.2083, 963.7575
413.6904, 979.4902
414.1725, 999.2075
414.6546, 1008.656
415.1367, 997.2911
415.6189, 987.0978
416.1010, 996.3885
416.5831, 1016.900
417.0652, 1024.048
417.5473, 998.4688
418.0294, 951.9598
418.5116, 923.0831
418.9937, 912.2761
419.4758, 918.3576
419.9579, 958.0685
420.4400, 1004.831
420.9221, 1038.003
421.4043, 1054.332
421.8864, 1058.329
422.3685, 1047.849
422.8506, 1027.534
423.3327, 1009.567
423.8148, 994.6215
424.2970, 986.3376
424.7791, 990.9311
425.2612, 1006.132
425.7433, 1016.629
426.2254, 1019.643
426.7076, 1019.609
427.1897, 1019.715
427.6718, 1018.520
428.1539, 1010.236
428.6360, 991.8472
429.1181, 973.2208
429.6003, 973.4009
430.0824, 1009.534
430.5645, 1025.269
431.0466, 1004.517
431.5287, 980.0267
432.0108, 971.5174
432.4930, 976.4205
432.9751, 980.5480
433.4572, 972.5146
433.9393, 958.1790
434.4214, 962.9938
434.9035, 1001.375
435.3857, 1025.248
435.8678, 1013.266
436.3499, 986.1913
436.8320, 955.3522
437.3141, 922.6083
437.7962, 900.5953
438.2784, 900.9991
438.7605, 919.3611
439.2426, 948.5765
439.7247, 992.6429
440.2068, 1023.052
440.6889, 1007.355
441.1711, 956.3235
441.6532, 934.2528
442.1353, 973.9722
442.6174, 1009.903
443.0995, 1004.862
443.5816, 976.5633
444.0638, 957.7464
444.5459, 959.4327
445.0280, 969.4064
445.5101, 969.4081
445.9922, 955.0977
446.4743, 945.0430
446.9565, 944.5206
447.4386, 942.4797
447.9207, 926.2213
448.4028, 905.2080
448.8849, 902.0690
449.3670, 933.0673
449.8492, 978.1721
450.3313, 988.4859
450.8134, 953.3412
451.2955, 929.2244
451.7776, 937.5040
452.2597, 955.0563
452.7419, 964.1994
453.2240, 964.4976
453.7061, 963.5920
454.1882, 966.4903
454.6703, 970.0035
455.1524, 967.6617
455.6346, 959.2893
456.1167, 953.7061
456.5988, 958.5538
457.0809, 968.8553
457.5630, 965.6108
458.0451, 941.1236
458.5273, 917.1508
459.0093, 887.4641
459.4915, 866.1200
459.9736, 872.2281
460.4557, 906.3771
460.9378, 950.8270
461.4199, 989.7050
461.9020, 1023.092
462.3842, 1047.002
462.8663, 1057.454
463.3484, 1062.583
463.8305, 1060.384
464.3126, 1056.007
464.7947, 1055.370
465.2769, 1060.344
465.7590, 1068.023
466.2411, 1078.560
466.7232, 1090.650
467.2053, 1093.315
467.6874, 1084.163
468.1696, 1067.471
468.6517, 1038.368
469.1338, 1002.853
469.6159, 984.3608
470.0980, 1001.454
470.5801, 1021.848
471.0623, 1022.734
471.5444, 1012.193
472.0265, 1010.671
472.5086, 1025.752
472.9907, 1045.133
473.4728, 1049.052
473.9550, 1029.943
474.4371, 1019.086
474.9192, 1027.898
475.4013, 1032.310
475.8834, 1014.363
476.3655, 984.5502
476.8477, 965.6415
477.3298, 970.3904
477.8119, 987.4007
478.2940, 994.8279
478.7761, 991.2720
479.2582, 987.0256
479.7404, 983.3328
480.2225, 980.3702
480.7046, 980.0195
481.1867, 981.4224
481.6688, 978.3265
482.1509, 966.5339
482.6331, 950.3427
483.1152, 928.5980
483.5973, 904.3727
484.0794, 895.6881
484.5615, 913.5017
485.0436, 946.4958
485.5258, 971.3476
486.0079, 990.7833
486.4900, 994.8498
486.9721, 967.9421
487.4542, 938.3192
487.9363, 926.9913
488.4185, 930.9776
488.9006, 934.6295
489.3827, 927.8978
489.8648, 912.3470
490.3469, 889.3167
490.8290, 849.2253
491.3112, 828.5304
491.7933, 857.6034
492.2754, 894.7265
492.7575, 906.9636
493.2396, 893.7767
493.7217, 882.8401
494.2039, 890.6894
494.6860, 908.6806
495.1681, 925.3497
495.6502, 940.0400
496.1323, 954.2075
496.6144, 971.0566
497.0966, 985.1172
497.5787, 979.1736
498.0608, 933.8402
498.5429, 904.3249
499.0250, 910.5018
499.5071, 923.5526
499.9893, 918.2869
500.4714, 896.1641
500.9535, 874.9171
501.4356, 867.0290
501.9177, 871.1184
502.3998, 883.4048
502.8820, 911.8835
503.3641, 929.4784
503.8462, 913.3198
504.3283, 894.4765
504.8104, 904.4055
505.2925, 943.5881
505.7747, 968.8223
506.2568, 936.6393
506.7389, 883.7759
507.2210, 876.1642
507.7031, 914.6948
508.1852, 947.8499
508.6674, 946.0870
509.1495, 921.7003
509.6316, 909.3036
510.1137, 915.8406
510.5958, 921.2859
511.0779, 923.6367
511.5601, 924.5223
512.0422, 923.2014
512.5243, 921.2101
513.0064, 924.5544
513.4885, 940.1751
513.9706, 960.6479
514.4528, 954.4131
514.9349, 906.6047
515.4170, 873.6902
515.8991, 879.3392
516.3812, 898.7317
516.8633, 919.0396
517.3455, 938.2250
517.8276, 946.0208
518.3097, 927.6290
518.7918, 900.5377
519.2739, 887.4450
519.7560, 887.9521
520.2382, 892.1106
520.7203, 894.9666
521.2024, 898.7685
521.6845, 909.3826
522.1666, 939.5829
522.6487, 952.3600
523.1309, 934.7148
523.6130, 911.1232
524.0951, 895.4911
524.5772, 887.3635
525.0593, 881.5844
525.5414, 876.1827
526.0236, 868.0889
526.5057, 845.0074
526.9878, 801.0725
527.4699, 778.8569
527.9520, 801.1148
528.4341, 833.4380
528.9163, 844.1075
529.3984, 836.2742
529.8805, 832.3377
530.3626, 845.9625
530.8447, 860.3696
531.3268, 863.4513
531.8090, 855.7029
532.2911, 832.9981
532.7732, 791.7394
533.2553, 756.6738
533.7374, 772.1116
534.2195, 864.4157
534.7017, 915.4868
535.1838, 896.0334
535.6659, 869.1967
536.1480, 854.5725
536.6301, 850.2963
537.1122, 852.0521
537.5944, 859.1808
538.0765, 864.3746
538.5586, 852.3080
539.0407, 826.1630
539.5228, 820.5117
540.0049, 847.2546
540.4871, 876.7790
540.9692, 884.4618
541.4513, 873.8372
541.9334, 866.4948
542.4155, 865.3015
542.8976, 865.1792
543.3798, 861.3609
543.8619, 858.6232
544.3440, 865.5690
544.8261, 882.9429
545.3082, 901.9347
545.7903, 914.9359
546.2725, 921.7211
546.7546, 912.9911
547.2367, 871.3877
547.7188, 843.3088
548.2009, 851.9689
548.6830, 873.2104
549.1652, 884.9279
549.6473, 883.4578
550.1294, 875.0754
550.6115, 857.0237
551.0936, 837.2195
551.5757, 829.5340
552.0579, 834.4883
552.5400, 845.4258
553.0221, 859.8724
553.5042, 876.1649
553.9863, 889.9978
554.4684, 899.5804
554.9506, 909.3032
555.4327, 920.8857
555.9148, 931.1889
556.3969, 942.1315
556.8790, 950.1199
557.3611, 945.0889
557.8433, 918.5375
558.3254, 883.4170
558.8075, 866.8969
559.2896, 870.3177
559.7717, 869.6777
560.2538, 858.8564
560.7360, 844.4436
561.2181, 829.9765
561.7002, 816.3155
562.1823, 809.9295
562.6644, 811.9000
563.1465, 821.3507
563.6287, 849.6613
564.1108, 881.9305
564.5929, 885.6334
565.0750, 853.8241
565.5571, 820.1863
566.0392, 829.5825
566.5214, 885.1742
567.0035, 905.6311
567.4856, 863.4166
567.9677, 827.1918
568.4498, 822.1533
568.9319, 831.3509
569.4141, 833.6115
569.8962, 824.2881
570.3783, 825.6959
570.8604, 873.6808
571.3425, 932.7095
571.8246, 932.7661
572.3068, 874.5540
572.7889, 824.5431
573.2710, 821.4362
573.7531, 849.0458
574.2352, 863.9034
574.7173, 853.5967
575.1995, 851.4097
575.6816, 866.9559
576.1637, 881.3116
576.6458, 884.4554
577.1279, 877.2000
577.6100, 860.7507
578.0922, 831.1194
578.5743, 806.8863
579.0564, 830.8200
579.5385, 896.5922
580.0206, 915.5613
580.5027, 856.1081
580.9849, 788.6802
581.4670, 778.4677
581.9491, 821.8907
582.4312, 851.6337
582.9133, 863.2542
583.3954, 866.5048
583.8776, 858.2390
584.3597, 846.5522
584.8418, 839.5212
585.3239, 839.0922
585.8060, 844.8345
586.2881, 859.4428
586.7703, 879.1074
587.2524, 879.4376
587.7345, 850.9532
588.2166, 835.1273
588.6987, 856.0406
589.1808, 886.8312
589.6630, 897.5192
590.1451, 887.5358
590.6272, 878.6184
591.1093, 873.2119
591.5914, 874.8213
592.0735, 889.9271
592.5557, 914.1757
593.0378, 941.3619
593.5199, 968.9233
594.0020, 984.4324
594.4841, 963.0054
594.9662, 894.2143
595.4484, 857.3182
595.9305, 875.9415
596.4126, 895.1968
596.8947, 890.9265
597.3768, 877.3505
597.8589, 874.4271
598.3411, 887.4646
598.8232, 900.8781
599.3053, 904.5239
599.7874, 902.5085
600.2695, 901.0404
600.7516, 900.4600
601.2338, 898.5804
601.7159, 894.2654
602.1980, 887.4661
602.6801, 876.7803
603.1622, 850.6898
603.6443, 843.7476
604.1265, 883.7289
604.6086, 914.3101
605.0907, 899.4501
605.5728, 854.8450
606.0549, 812.7538
606.5370, 781.4014
607.0192, 770.5657
607.5013, 808.8668
607.9834, 876.7905
608.4655, 903.8718
608.9476, 876.4950
609.4297, 847.0396
609.9119, 858.2712
610.3940, 901.9027
610.8761, 926.8318
611.3582, 924.9584
611.8403, 914.6964
612.3224, 899.0166
612.8046, 873.8054
613.2867, 819.2357
613.7688, 749.7113
614.2509, 715.9554
614.7330, 763.5608
615.2151, 835.9242
615.6973, 831.2113
616.1794, 758.9748
616.6615, 710.8889
617.1436, 709.7491
617.6257, 734.2526
618.1078, 769.6454
618.5900, 815.5781
619.0721, 848.7797
619.5542, 871.7456
620.0363, 880.2057
620.5184, 861.5833
621.0005, 835.3506
621.4827, 821.9059
621.9648, 822.3682
622.4469, 821.3913
622.9290, 801.6000
623.4111, 776.9743
623.8932, 786.6314
624.3754, 831.8666
624.8575, 873.5741
625.3396, 906.6716
625.8217, 919.6801
626.3038, 889.1582
626.7859, 809.7018
627.2681, 765.0118
627.7502, 781.9265
628.2323, 804.3365
628.7144, 809.3827
629.1965, 809.6077
629.6786, 826.6387
630.1608, 861.7340
630.6429, 889.9309
631.1250, 884.7936
631.6071, 856.1072
632.0892, 837.4964
632.5714, 829.5595
633.0535, 827.1345
633.5356, 828.7537
634.0177, 834.8094
634.4998, 849.2703
634.9819, 873.8237
635.4641, 886.0795
635.9462, 872.5796
636.4283, 859.3822
636.9104, 859.1356
637.3925, 866.0487
637.8746, 871.8723
638.3568, 874.2063
638.8389, 875.0699
639.3210, 880.4341
639.8031, 886.1878
640.2852, 864.3537
640.7673, 806.7773
641.2495, 777.5189
641.7316, 812.1822
642.2137, 873.0886
642.6958, 905.9327
643.1779, 908.2628
643.6600, 908.0383
644.1422, 903.4462
644.6243, 900.9803
645.1064, 914.9410
645.5885, 928.6924
646.0706, 912.2270
646.5527, 860.1080
647.0349, 804.1669
647.5170, 772.9776
647.9991, 765.2076
648.4812, 781.8672
648.9633, 827.8612
649.4454, 860.7524
649.9276, 860.0635
650.4097, 843.1171
650.8918, 835.2191
651.3739, 838.1580
651.8560, 838.6808
652.3381, 830.6205
652.8203, 825.9424
653.3024, 835.4214
653.7845, 849.4075
654.2666, 851.3887
654.7487, 838.4191
655.2308, 827.4132
655.7130, 844.1054
656.1951, 875.6558
656.6772, 871.5603
657.1593, 829.1339
657.6414, 789.0262
658.1235, 764.8586
658.6057, 753.1932
659.0878, 750.3528
659.5699, 758.2701
660.0520, 766.3188
660.5341, 769.7412
661.0162, 778.7706
661.4984, 801.5120
661.9805, 829.8494
662.4626, 855.5528
662.9447, 876.0920
663.4268, 889.2910
663.9089, 895.4626
664.3911, 892.4055
664.8732, 868.2786
665.3553, 824.4425
665.8374, 791.2458
666.3195, 778.9805
666.8016, 782.8066
667.2838, 799.9215
667.7659, 833.7910
668.2480, 852.7930
668.7301, 850.7476
669.2122, 842.6472
669.6943, 823.0861
670.1765, 804.6163
670.6586, 802.7043
671.1407, 817.5392
671.6228, 832.3344
672.1049, 831.3212
672.5870, 827.0349
673.0692, 842.0710
673.5513, 871.8467
674.0334, 894.5757
674.5155, 903.8000
674.9976, 904.5623
675.4797, 901.3928
675.9619, 894.3204
676.4440, 888.6581
676.9261, 888.6113
677.4082, 883.5964
677.8903, 858.5964
678.3724, 838.4308
678.8546, 854.7689
679.3367, 899.5917
679.8188, 921.7108
680.3009, 873.4203
680.7830, 818.6726
681.2651, 825.9588
681.7473, 868.3271
682.2294, 885.8759
682.7115, 866.7669
683.1936, 839.0718
683.6757, 826.6054
684.1578, 827.2643
684.6400, 833.3983
685.1221, 856.2065
685.6042, 853.1254
686.0863, 783.7543
686.5684, 720.3304
687.0505, 723.6715
687.5327, 775.7886
688.0148, 813.6017
688.4969, 818.4637
688.9790, 814.2063
689.4611, 813.3553
689.9432, 809.1696
690.4254, 782.1896
690.9075, 740.1265
691.3896, 724.8398
691.8717, 767.0202
692.3538, 834.6001
692.8359, 853.7918
693.3181, 821.3054
693.8002, 797.2674
694.2823, 790.2471
694.7644, 789.2047
695.2465, 788.6152
695.7286, 788.1885
696.2108, 786.9188
696.6929, 783.8444
697.1750, 781.8585
697.6571, 780.5510
698.1392, 781.2455
698.6213, 784.7795
699.1035, 791.0447
699.5856, 800.9643
700.0677, 815.2209
700.5498, 827.8221
701.0319, 831.9354
701.5140, 828.8704
701.9962, 821.2775
702.4783, 809.2734
702.9604, 801.5293
703.4425, 805.3381
703.9246, 808.4332
704.4067, 782.9029
704.8889, 705.4697
705.3710, 681.8073
705.8531, 773.0159
706.3352, 845.9838
706.8173, 847.8023
707.2994, 816.2539
707.7816, 793.9632
708.2637, 788.7129
708.7458, 790.3899
709.2279, 796.0522
709.7100, 803.6761
710.1921, 816.7958
710.6743, 829.7882
711.1564, 823.3361
711.6385, 792.3681
712.1206, 757.9559
712.6027, 742.8417
713.0848, 745.5124
713.5670, 748.8649
714.0491, 750.6990
714.5312, 759.8754
715.0133, 783.0910
715.4954, 809.9449
715.9775, 834.7835
716.4597, 856.2630
716.9418, 865.0729
717.4239, 852.1835
717.9060, 835.9976
718.3881, 816.9346
718.8702, 802.2985
719.3524, 804.3342
719.8345, 819.5499
720.3166, 830.0632
720.7987, 823.4030
721.2808, 811.5251
721.7629, 817.7961
722.2451, 838.4984
722.7272, 844.5486
723.2093, 829.7964
723.6914, 818.2468
724.1735, 828.8994
724.6556, 851.0881
725.1378, 852.8741
725.6199, 822.8638
726.1020, 794.4550
726.5841, 757.1883
727.0662, 732.7134
727.5483, 740.5198
728.0305, 763.5914
728.5126, 772.6262
728.9947, 759.2119
729.4768, 752.2846
729.9589, 776.6348
730.4410, 811.7283
730.9232, 835.3569
731.4053, 848.1506
731.8874, 857.9295
732.3695, 867.2480
732.8516, 867.7753
733.3337, 846.9099
733.8159, 806.6138
734.2980, 768.1671
734.7801, 724.4586
735.2622, 710.5466
735.7443, 753.3615
736.2264, 810.8461
736.7086, 838.9447
737.1907, 839.2959
737.6728, 834.5474
738.1549, 820.1005
738.6370, 808.1974
739.1191, 797.4625
739.6013, 794.4087
740.0834, 817.9069
740.5655, 856.5657
741.0476, 866.9762
741.5297, 816.5220
742.0118, 754.2695
742.4940, 745.6038
742.9761, 773.2416
743.4582, 788.7272
743.9403, 785.9264
744.4224, 772.9781
744.9045, 752.4572
745.3867, 731.8759
745.8688, 731.3593
746.3509, 760.5028
746.8330, 777.0988
747.3151, 780.8818
747.7972, 772.2249
748.2794, 727.9177
748.7615, 682.8049
749.2436, 693.9154
749.7257, 774.5410
750.2078, 824.2965
750.6899, 781.1418
751.1721, 732.4854
751.6542, 737.0759
752.1363, 771.5747
752.6184, 801.3215
753.1005, 816.3518
753.5826, 818.8115
754.0648, 807.8147
754.5469, 787.9901
755.0290, 762.1391
755.5111, 733.1398
755.9932, 732.7446
756.4753, 771.4689
756.9575, 812.9633
757.4396, 826.1232
757.9217, 816.9539
758.4038, 817.7625
758.8859, 839.3192
759.3680, 849.7977
759.8502, 844.4276
760.3323, 830.0342
760.8144, 801.9290
761.2965, 768.9713
761.7786, 746.8068
762.2607, 738.0465
762.7429, 740.8833
763.2250, 772.8289
763.7071, 800.4487
764.1892, 786.2975
764.6713, 745.6978
765.1534, 710.0704
765.6356, 691.4067
766.1177, 693.8460
766.5998, 737.5008
767.0819, 802.3116
767.5640, 816.2874
768.0461, 780.2900
768.5283, 742.3157
769.0104, 714.0386
769.4925, 698.9373
769.9746, 704.1109
770.4567, 727.0415
770.9388, 733.2217
771.4210, 709.4753
771.9031, 691.4800
772.3852, 690.7062
772.8673, 689.3572
773.3494, 666.7999
773.8315, 636.3184
774.3137, 634.2043
774.7958, 679.4784
775.2779, 723.3856
775.7600, 752.1144
776.2421, 763.2178
776.7242, 737.0391
777.2064, 693.7188
777.6885, 686.4556
778.1706, 733.9777
778.6527, 784.6575
779.1348, 772.0097
779.6169, 717.0378
780.0991, 687.2357
780.5812, 682.4489
781.0633, 690.7337
781.5454, 709.8300
782.0275, 732.5096
782.5096, 751.7818
782.9918, 767.4207
783.4739, 776.2399
783.9560, 778.8201
784.4381, 773.2165
784.9202, 750.3773
785.4023, 727.5363
785.8845, 711.7249
786.3666, 704.5783
786.8487, 711.4497
787.3308, 741.6097
787.8129, 766.9418
788.2950, 778.0021
788.7772, 780.4991
789.2593, 775.9070
789.7414, 767.1122
790.2235, 758.1284
790.7056, 750.3846
791.1877, 744.5460
791.6699, 741.4034
792.1520, 740.4790
792.6341, 740.9304
793.1162, 742.6876
793.5983, 746.4639
794.0804, 752.5709
794.5626, 755.3652
795.0447, 746.5751
795.5268, 730.9354
796.0089, 742.8591
796.4910, 798.4819
796.9731, 822.9115
797.4553, 788.3270
797.9374, 744.8253
798.4195, 723.8367
798.9016, 721.2427
799.3837, 724.2271
799.8658, 739.9533
800.3480, 745.0572
800.8301, 725.2218
801.3122, 705.8510
801.7943, 701.5528
802.2764, 706.3207
802.7585, 707.5008
803.2407, 702.9938
803.7228, 708.6740
804.2049, 746.1160
804.6870, 789.3631
805.1691, 815.8903
805.6512, 824.7556
806.1334, 805.2145
806.6155, 760.8037
807.0976, 727.7134
807.5797, 736.4428
808.0618, 769.7543
808.5439, 790.8770
809.0261, 799.6222
809.5082, 782.3881
809.9903, 730.3533
810.4724, 690.7762
810.9545, 694.0820
811.4366, 721.9551
811.9188, 735.1489
812.4009, 726.3815
812.8830, 729.6440
813.3651, 761.0518
813.8472, 783.4663
814.3293, 785.6545
814.8115, 775.4323
815.2936, 755.8336
815.7757, 728.9231
816.2578, 710.3657
816.7399, 711.0346
817.2220, 712.5281
817.7042, 701.8275
818.1863, 691.2838
818.6684, 694.0316
819.1505, 709.1533
819.6326, 732.4863
820.1147, 765.1861
820.5969, 785.0677
821.0790, 752.0796
821.5611, 695.1730
822.0432, 680.9577
822.5253, 704.9376
823.0074, 717.4645
823.4896, 699.3546
823.9717, 682.4377
824.4538, 711.1181
824.9359, 775.8033
825.4180, 801.1606
825.9001, 781.5807
826.3823, 750.6442
826.8644, 704.0341
827.3465, 675.8977
827.8286, 705.7899
828.3107, 775.6008
828.7928, 804.6423
829.2749, 757.8830
829.7570, 728.3427
830.2391, 724.6050
830.7213, 727.9332
831.2034, 730.3605
831.6855, 734.7625
832.1676, 751.4305
832.6497, 782.8857
833.1318, 793.8138
833.6140, 746.1996
834.0961, 702.1090
834.5782, 706.6874
835.0603, 733.9622
835.5424, 753.4049
836.0245, 759.1033
836.5067, 754.1312
836.9888, 737.8812
837.4709, 718.9550
837.9530, 706.9759
838.4351, 700.5391
838.9172, 690.9495
839.3994, 681.1316
839.8815, 698.7072
840.3636, 757.5840
840.8457, 822.4769
841.3278, 845.0330
841.8099, 827.1802
842.2921, 783.3905
842.7742, 704.4460
843.2563, 672.8384
843.7384, 729.1020
844.2205, 789.8104
844.7026, 768.1960
845.1848, 683.9531
845.6669, 660.4478
846.1490, 760.3072
846.6311, 806.1762
847.1132, 727.0496
847.5953, 661.4686
848.0775, 688.8561
848.5596, 759.7922
849.0417, 796.9703
849.5238, 789.3177
850.0059, 781.5424
850.4880, 787.5110
850.9702, 792.3140
851.4523, 790.4050
851.9344, 782.2972
852.4165, 767.2337
852.8986, 746.6521
853.3807, 724.0815
853.8629, 696.7957
854.3450, 678.9968
854.8271, 689.4117
855.3092, 713.7936
855.7913, 735.0566
856.2734, 750.0420
856.7556, 756.5320
857.2377, 753.6757
857.7198, 742.4594
858.2019, 718.7638
858.6840, 689.0755
859.1661, 676.8506
859.6483, 681.0938
860.1304, 690.2984
860.6125, 702.0641
861.0946, 715.5189
861.5767, 732.1447
862.0588, 746.2914
862.5410, 735.5991
863.0231, 690.7890
863.5052, 665.9892
863.9873, 669.8505
864.4694, 680.5427
864.9515, 692.4910
865.4337, 701.4493
865.9158, 695.8589
866.3979, 670.4831
866.8800, 674.8512
867.3621, 752.0367
867.8442, 798.9265
868.3264, 777.4565
868.8085, 737.3168
869.2906, 705.0002
869.7727, 685.0807
870.2548, 685.8878
870.7369, 718.6315
871.2191, 744.8690
871.7012, 737.2559
872.1833, 731.9692
872.6654, 774.9344
873.1475, 828.6490
873.6296, 822.9565
874.1118, 750.8346
874.5939, 683.6146
875.0760, 665.4619
875.5581, 672.4163
876.0402, 687.3348
876.5223, 706.5110
877.0045, 727.1753
877.4866, 746.3108
877.9687, 751.6734
878.4508, 736.2190
878.9329, 721.9830
879.4150, 747.0886
879.8972, 796.3513
880.3793, 819.7178
880.8614, 817.3156
881.3435, 798.5797
881.8256, 765.8411
882.3077, 734.0396
882.7899, 717.8159
883.2720, 712.1210
883.7541, 693.8005
884.2362, 658.8553
884.7183, 648.8055
885.2004, 673.7269
885.6826, 702.9626
886.1647, 722.7311
886.6468, 735.0834
887.1289, 743.9301
887.6110, 750.1934
888.0931, 744.7300
888.5753, 715.5267
889.0574, 695.1711
889.5395, 698.7010
890.0216, 705.1372
890.5037, 691.7635
890.9858, 668.4445
891.4680, 668.8436
891.9501, 710.7803
892.4322, 740.9418
892.9143, 751.1469
893.3964, 748.9460
893.8785, 718.9185
894.3607, 689.8660
894.8428, 706.5535
895.3249, 768.1286
895.8070, 812.4071
896.2891, 818.5662
896.7712, 797.0844
897.2534, 719.4290
897.7355, 642.7514
898.2176, 635.0737
898.6997, 678.3844
899.1818, 717.2398
899.6639, 732.1623
900.1461, 732.8275
900.6282, 724.1066
901.1103, 707.7551
901.5924, 668.9009
902.0745, 628.9111
902.5566, 653.7502
903.0388, 738.3754
903.5209, 777.8706
904.0030, 692.2735
904.4851, 576.2811
904.9672, 589.6613
905.4493, 691.5751
905.9315, 757.6763
906.4136, 781.2901
906.8957, 777.9247
907.3778, 752.9548
907.8599, 726.1800
908.3420, 719.0024
908.8242, 727.4936
909.3063, 738.9371
909.7884, 753.4880
910.2705, 760.1183
910.7526, 756.8201
911.2347, 746.7361
911.7169, 728.7451
912.1990, 712.6154
912.6811, 720.1631
913.1632, 755.0876
913.6453, 760.2720
914.1274, 722.2348
914.6096, 694.2913
915.0917, 691.5603
915.5738, 699.5040
916.0559, 710.0482
916.5380, 720.6343
917.0201, 720.0576
917.5023, 697.3047
917.9844, 687.0707
918.4665, 698.3902
918.9486, 710.5152
919.4307, 721.2167
919.9128, 725.6012
920.3950, 710.4900
920.8771, 678.2267
921.3592, 669.5601
921.8413, 717.4614
922.3234, 746.9808
922.8055, 729.4315
923.2877, 705.7897
923.7698, 693.2206
924.2519, 695.2422
924.7340, 720.9761
925.2161, 773.8252
925.6982, 812.0238
926.1804, 819.9216
926.6625, 812.7028
927.1446, 789.8124
927.6267, 761.5153
928.1088, 735.3056
928.5909, 712.8510
929.0731, 693.7538
929.5552, 676.4711
930.0373, 670.4666
930.5194, 699.3718
931.0015, 725.3153
931.4836, 693.9846
931.9658, 645.0183
932.4479, 658.3536
932.9300, 731.8879
933.4121, 780.3017
933.8942, 746.5058
934.3763, 692.4526
934.8585, 668.9130
935.3406, 671.5443
935.8227, 710.5142
936.3048, 767.9279
936.7869, 796.6769
937.2690, 783.3179
937.7512, 752.6777
938.2333, 719.3804
938.7154, 690.2459
939.1975, 677.9234
939.6796, 678.6836
940.1617, 686.7764
940.6439, 698.7226
941.1260, 700.0398
941.6081, 683.9581
942.0902, 665.5656
942.5723, 664.3503
943.0544, 675.4568
943.5366, 684.4022
944.0187, 691.0534
944.5008, 693.2787
944.9829, 690.8930
945.4650, 690.3371
945.9471, 696.3558
946.4293, 702.9429
946.9114, 694.9741
947.3935, 674.4553
947.8756, 676.5481
948.3577, 702.6337
948.8398, 718.0646
949.3220, 712.6888
949.8041, 698.9653
950.2862, 684.6302
950.7683, 674.5115
951.2504, 685.1837
951.7325, 719.2137
952.2147, 752.3045
952.6968, 787.9349
953.1789, 800.7589
953.6610, 776.5978
954.1431, 739.9441
954.6252, 715.3522
955.1074, 701.9731
955.5895, 696.2357
956.0716, 700.4257
956.5537, 704.6464
957.0358, 710.4804
957.5179, 710.2360
958.0001, 697.7157
958.4822, 681.2253
958.9643, 673.6744
959.4464, 674.9236
959.9285, 662.7715
960.4106, 616.5121
960.8928, 605.3377
961.3749, 664.8265
961.8570, 717.7658
962.3391, 711.2801
962.8212, 678.1815
963.3033, 679.7680
963.7855, 723.9402
964.2676, 746.9240
964.7497, 740.7623
965.2318, 725.7397
965.7139, 702.6075
966.1960, 673.9440
966.6782, 619.9935
967.1603, 566.3544
967.6424, 583.4752
968.1245, 705.4962
968.6066, 774.2440
969.0887, 743.9169
969.5709, 714.7256
970.0530, 714.2463
970.5351, 721.1893
971.0172, 719.8129
971.4993, 711.7812
971.9814, 703.8057
972.4636, 697.3006
972.9457, 688.4014
973.4278, 669.6672
973.9099, 657.2261
974.3920, 653.8885
974.8741, 661.8767
975.3563, 697.1130
975.8384, 747.5088
976.3205, 760.1939
976.8026, 705.5530
977.2847, 661.3423
977.7668, 649.6630
978.2490, 644.6716
978.7311, 628.7069
979.2132, 616.0960
979.6953, 626.2758
980.1774, 657.5451
980.6595, 690.2278
981.1417, 723.6736
981.6238, 751.0195
982.1059, 787.4191
982.5880, 798.6357
983.0701, 726.1713
983.5522, 638.0291
984.0344, 637.6722
984.5165, 725.3650
984.9986, 790.7737
985.4807, 787.8288
985.9628, 778.1949
986.4449, 782.7183
986.9271, 788.3061
987.4092, 790.8253
987.8913, 785.7286
988.3734, 756.4706
988.8555, 705.4572
989.3376, 685.5275
989.8198, 761.2653
990.3019, 811.2836
990.7840, 759.2049
991.2661, 688.1876
991.7482, 662.2947
992.2303, 666.4797
992.7125, 666.7588
993.1946, 656.8228
993.6767, 649.4756
994.1588, 652.7109
994.6409, 656.0742
995.1230, 651.8871
995.6052, 648.2677
996.0873, 648.9261
996.5694, 656.8200
997.0515, 683.3167
997.5336, 729.8351
998.0157, 755.5650
998.4979, 725.7359
998.9800, 691.4813
999.4621, 680.4500
999.9442, 675.7554
1000.426, 656.5833
1000.908, 632.4905
1001.391, 628.2810
1001.873, 650.0122
1002.355, 671.1602
1002.837, 677.2933
1003.319, 683.2543
1003.801, 702.5305
1004.283, 720.7763
1004.765, 721.4769
1005.247, 710.5580
1005.730, 701.7504
1006.212, 698.2597
1006.694, 703.2366
1007.176, 732.9322
1007.658, 753.3286
1008.140, 727.7012
1008.622, 698.9722
1009.104, 721.5872
1009.587, 772.5514
1010.069, 789.7284
1010.551, 755.5314
1011.033, 721.5644
1011.515, 715.4808
1011.997, 708.3236
1012.479, 672.4794
1012.961, 638.7047
1013.443, 642.3042
1013.926, 671.3026
1014.408, 693.2469
1014.890, 700.5538
1015.372, 702.4988
1015.854, 691.1982
1016.336, 689.7617
1016.818, 732.4530
1017.300, 770.6665
1017.783, 742.1393
1018.265, 676.5593
1018.747, 657.1290
1019.229, 708.1514
1019.711, 731.6385
1020.193, 658.8514
1020.675, 596.1193
1021.157, 598.0492
1021.639, 623.7512
1022.122, 644.5549
1022.604, 657.7523
1023.086, 666.4888
1023.568, 672.1774
1024.050, 665.1032
1024.532, 618.5685
1025.014, 590.0494
1025.496, 617.1735
1025.979, 656.6154
1026.461, 681.6306
1026.943, 689.6697
1027.425, 678.5078
1027.907, 645.9183
1028.389, 613.0246
1028.871, 560.3782
1029.353, 540.4092
1029.835, 598.5839
1030.318, 666.7142
1030.800, 693.4275
1031.282, 694.7198
1031.764, 708.0004
1032.246, 739.6073
1032.728, 758.0847
1033.210, 758.8828
1033.692, 746.6654
1034.175, 700.5613
1034.657, 663.9989
1035.139, 676.9235
1035.621, 713.5112
1036.103, 725.3475
1036.585, 707.1698
1037.067, 694.1460
1037.549, 695.0737
1038.031, 690.8274
1038.514, 665.3575
1038.996, 648.9954
1039.478, 674.2158
1039.960, 709.5256
1040.442, 697.0895
1040.924, 631.7570
1041.406, 609.5203
1041.888, 674.4519
1042.370, 699.5476
1042.853, 630.2594
1043.335, 584.0970
1043.817, 644.0189
1044.299, 735.8862
1044.781, 751.8661
1045.263, 694.4395
1045.745, 656.0958
1046.227, 636.9637
1046.710, 639.8804
1047.192, 678.5436
1047.674, 708.2088
1048.156, 703.4536
1048.638, 690.3498
1049.120, 705.1319
1049.602, 741.1378
1050.084, 743.2232
1050.567, 702.0837
1051.049, 666.9258
1051.531, 637.5818
1052.013, 632.2975
1052.495, 666.5424
1052.977, 699.7276
1053.459, 684.5099
1053.941, 637.1136
1054.423, 626.0792
1054.906, 654.2746
1055.388, 673.2958
1055.870, 681.4271
1056.352, 661.9760
1056.834, 604.5112
1057.316, 563.2706
1057.798, 591.5568
1058.280, 656.4258
1058.762, 673.4423
1059.245, 647.4821
1059.727, 618.9540
1060.209, 591.0423
1060.691, 591.9951
1061.173, 628.5547
1061.655, 672.9582
1062.137, 706.7012
1062.619, 727.3740
1063.102, 729.1943
1063.584, 714.5866
1064.066, 678.9766
1064.548, 633.4251
1065.030, 629.5820
1065.512, 672.1249
1065.994, 716.6808
1066.476, 738.3531
1066.958, 745.4684
1067.441, 740.6923
1067.923, 732.6758
1068.405, 742.1236
1068.887, 758.5682
1069.369, 753.6671
1069.851, 730.2598
1070.333, 717.4095
1070.815, 727.4332
1071.297, 737.5561
1071.780, 723.0333
1072.262, 703.9904
1072.744, 707.7666
1073.226, 716.0079
1073.708, 697.0179
1074.190, 661.0800
1074.672, 640.8541
1075.154, 645.1985
1075.637, 654.4620
1076.119, 657.4979
1076.601, 662.0077
1077.083, 675.4344
1077.565, 689.8464
1078.047, 698.8512
1078.529, 703.3624
1079.011, 703.3417
1079.493, 700.0284
1079.976, 703.4702
1080.458, 729.3678
1080.940, 741.6543
1081.422, 721.4020
1081.904, 693.6495
1082.386, 669.2427
1082.868, 647.5957
1083.350, 626.8961
1083.833, 607.4185
1084.315, 589.1375
1084.797, 554.5604
1085.279, 558.1070
1085.761, 642.4628
1086.243, 712.6483
1086.725, 741.7302
1087.207, 747.0121
1087.689, 741.8251
1088.172, 723.2888
1088.654, 676.2302
1089.136, 581.7568
1089.618, 560.5418
1090.100, 652.1089
1090.582, 703.6910
1091.064, 671.7021
1091.546, 627.2314
1092.028, 615.6512
1092.511, 615.5066
1092.993, 583.2187
1093.475, 524.0061
1093.957, 532.8160
1094.439, 615.2817
1094.921, 659.6749
1095.403, 649.1083
1095.885, 646.1630
1096.368, 681.1069
1096.850, 713.5787
1097.332, 692.9926
1097.814, 643.8246
1098.296, 633.9650
1098.778, 654.9853
1099.260, 672.3292
1099.742, 683.4064
1100.224, 692.8588
1100.707, 701.7349
1101.189, 705.9070
1101.671, 702.4179
1102.153, 692.7426
1102.635, 673.4046
1103.117, 652.9005
1103.599, 641.8364
1104.081, 641.5245
1104.563, 661.6248
1105.046, 695.1871
1105.528, 710.9707
1106.010, 694.0685
1106.492, 667.0385
1106.974, 631.2171
1107.456, 607.6909
1107.938, 623.3193
1108.420, 651.4960
1108.903, 661.9225
1109.385, 660.1600
1109.867, 671.2376
1110.349, 701.3439
1110.831, 710.7533
1111.313, 661.9727
1111.795, 627.1217
1112.277, 632.8058
1112.760, 653.0021
1113.242, 680.5351
1113.724, 707.7236
1114.206, 732.0115
1114.688, 750.6447
1115.170, 729.5765
1115.652, 621.8948
1116.134, 573.1015
1116.616, 620.1255
1117.099, 658.4785
1117.581, 653.2210
1118.063, 630.9667
1118.545, 610.4288
1119.027, 593.9439
1119.509, 586.1639
1119.991, 586.4025
1120.473, 615.0312
1120.955, 676.8610
1121.438, 701.6577
1121.920, 673.3838
1122.402, 645.0905
1122.884, 646.2421
1123.366, 663.1077
1123.848, 679.5877
1124.330, 694.9575
1124.812, 710.6689
1125.295, 722.7898
1125.777, 711.9443
1126.259, 682.9216
1126.741, 664.3221
1127.223, 664.8308
1127.705, 671.3015
1128.187, 676.1646
1128.669, 677.1988
1129.151, 658.2565
1129.634, 645.8313
1130.116, 696.5135
1130.598, 764.1611
1131.080, 759.3913
1131.562, 689.2344
1132.044, 634.4998
1132.526, 621.8377
1133.008, 629.5094
1133.490, 678.4049
1133.973, 706.3462
1134.455, 656.4265
1134.937, 598.7836
1135.419, 598.1994
1135.901, 630.5061
1136.383, 636.4056
1136.865, 608.0684
1137.347, 614.4672
1137.830, 694.9925
1138.312, 739.3526
1138.794, 727.6292
1139.276, 699.4446
1139.758, 656.9445
1140.240, 629.1354
1140.722, 650.9460
1141.204, 705.9649
1141.687, 737.4436
1142.169, 744.4332
1142.651, 744.6605
1143.133, 738.8308
1143.615, 701.4111
1144.097, 626.3654
1144.579, 580.0624
1145.061, 604.5869
1145.543, 655.5287
1146.026, 674.4361
1146.508, 674.8923
1146.990, 696.8347
1147.472, 722.8705
1147.954, 698.5270
1148.436, 637.6088
1148.918, 602.0924
1149.400, 608.5452
1149.882, 623.4316
1150.365, 627.3759
1150.847, 629.2551
1151.329, 639.5887
1151.811, 646.7552
1152.293, 635.3557
1152.775, 618.4528
1153.257, 609.0296
1153.739, 610.5860
1154.222, 631.7603
1154.704, 683.8580
1155.186, 710.4224
1155.668, 675.3066
1156.150, 651.8834
1156.632, 672.1801
1157.114, 690.4772
1157.596, 677.2640
1158.078, 654.0711
1158.561, 653.0049
1159.043, 670.4814
1159.525, 673.4131
1160.007, 660.2129
1160.489, 638.0943
1160.971, 604.0876
1161.453, 594.5220
1161.935, 622.3299
1162.417, 650.6203
1162.900, 652.0893
1163.382, 636.5587
1163.864, 606.9512
1164.346, 578.8708
1164.828, 612.5585
1165.310, 682.0525
1165.792, 712.6700
1166.274, 702.5142
1166.757, 685.3185
1167.239, 673.6694
1167.721, 666.4450
1168.203, 665.7953
1168.685, 664.1586
1169.167, 653.5012
1169.649, 641.7784
1170.131, 634.3161
1170.614, 631.3337
1171.096, 633.8517
1171.578, 640.5887
1172.060, 647.1039
1172.542, 653.1212
1173.024, 657.1694
1173.506, 661.5134
1173.988, 659.4539
1174.470, 639.7775
1174.953, 629.6966
1175.435, 649.5115
1175.917, 679.6531
1176.399, 694.0275
1176.881, 694.0023
1177.363, 684.4241
1177.845, 664.5140
1178.327, 662.5586
1178.809, 679.6326
1179.292, 681.3958
1179.774, 659.6538
1180.256, 653.7490
1180.738, 691.9752
1181.220, 734.2259
1181.702, 717.4459
1182.184, 677.7825
1182.666, 682.0741
1183.149, 702.4914
1183.631, 680.0604
1184.113, 631.7953
1184.595, 619.4376
1185.077, 653.8749
##END=



