##NAMES=Hydroxylherderite
##RRUFFID=R060353
##IDEAL CHEMISTRY=CaBe(P^5+^O_4_)(OH)
##LOCALITY=Shigar Valley, northeast of Skardu, Baltistan, Pakistan
##OWNER=RRUFF
##SOURCE=Herb Obodda
##DESCRIPTION=Colorless equant crystal
##STATUS=The identification of this mineral has been confirmed by X-ray diffraction and chemical analysis
##URL=rruff.info/R060353
##MEASURED CHEMISTRY=(Ca_0.99_Mn_0.01_)_Σ=1_Be_1.00_P_1.00_O_4_((OH)_0.52_F_0.48_)_Σ=1_; trace amounts of Na; Be not measured but assumed by stoichiometry; OH estimated by charge balance
91.53320, 1390.900
92.01532, 1371.871
92.49744, 1361.202
92.97955, 1383.079
93.46167, 1414.917
93.94379, 1432.879
94.42590, 1444.660
94.90802, 1452.710
95.39014, 1456.520
95.87225, 1456.227
96.35437, 1452.527
96.83649, 1446.006
97.31860, 1438.227
97.80072, 1430.366
98.28284, 1421.162
98.76495, 1409.792
99.24707, 1399.372
99.72919, 1390.479
100.2113, 1382.523
100.6934, 1374.909
101.1755, 1367.744
101.6577, 1361.486
102.1398, 1356.434
102.6219, 1352.516
103.1040, 1349.910
103.5861, 1349.227
104.0682, 1348.708
104.5504, 1347.028
105.0325, 1344.088
105.5146, 1341.016
105.9967, 1339.312
106.4788, 1339.564
106.9609, 1339.353
107.4431, 1338.170
107.9252, 1336.470
108.4073, 1334.812
108.8894, 1333.296
109.3715, 1331.974
109.8536, 1330.877
110.3358, 1329.861
110.8179, 1329.315
111.3000, 1329.927
111.7821, 1331.522
112.2642, 1332.390
112.7463, 1331.615
113.2285, 1329.889
113.7106, 1327.563
114.1927, 1324.332
114.6748, 1321.512
115.1569, 1321.466
115.6390, 1325.770
116.1212, 1328.746
116.6033, 1327.987
117.0854, 1325.544
117.5675, 1323.267
118.0496, 1322.007
118.5317, 1321.652
119.0139, 1321.706
119.4960, 1322.388
119.9781, 1323.286
120.4602, 1324.488
120.9423, 1325.842
121.4244, 1327.188
121.9066, 1328.465
122.3887, 1329.734
122.8708, 1329.898
123.3529, 1328.609
123.8350, 1326.828
124.3171, 1324.757
124.7993, 1322.513
125.2814, 1320.363
125.7635, 1318.501
126.2456, 1316.942
126.7277, 1316.060
127.2098, 1315.469
127.6920, 1315.723
128.1741, 1318.250
128.6562, 1323.841
129.1383, 1329.145
129.6204, 1328.864
130.1025, 1323.677
130.5847, 1318.982
131.0668, 1317.255
131.5489, 1317.801
132.0310, 1318.226
132.5131, 1318.001
132.9952, 1317.553
133.4774, 1317.131
133.9595, 1316.760
134.4416, 1316.732
134.9237, 1317.689
135.4058, 1319.926
135.8879, 1321.168
136.3701, 1318.793
136.8522, 1316.713
137.3343, 1317.578
137.8164, 1322.000
138.2985, 1328.121
138.7806, 1332.848
139.2628, 1335.489
139.7449, 1337.866
140.2270, 1340.507
140.7091, 1342.880
141.1912, 1344.571
141.6733, 1345.381
142.1555, 1345.322
142.6376, 1344.407
143.1197, 1342.116
143.6018, 1339.445
144.0839, 1335.776
144.5660, 1331.849
145.0482, 1328.849
145.5303, 1327.545
146.0124, 1327.700
146.4945, 1327.527
146.9766, 1326.582
147.4587, 1325.807
147.9409, 1325.860
148.4230, 1326.547
148.9051, 1326.890
149.3872, 1325.912
149.8693, 1323.998
150.3514, 1323.314
150.8336, 1325.321
151.3157, 1327.703
151.7978, 1327.882
152.2799, 1325.450
152.7620, 1323.448
153.2441, 1325.093
153.7263, 1328.749
154.2084, 1331.793
154.6905, 1332.661
155.1726, 1332.417
155.6547, 1333.508
156.1368, 1336.488
156.6190, 1339.880
157.1011, 1343.162
157.5832, 1346.219
158.0653, 1348.758
158.5474, 1349.670
159.0295, 1349.296
159.5117, 1352.219
159.9938, 1360.438
160.4759, 1370.463
160.9580, 1380.977
161.4401, 1392.151
161.9222, 1404.700
162.4044, 1419.490
162.8865, 1437.074
163.3686, 1454.174
163.8507, 1468.106
164.3328, 1483.919
164.8149, 1504.708
165.2971, 1530.198
165.7792, 1557.331
166.2613, 1583.397
166.7434, 1610.259
167.2255, 1628.831
167.7076, 1643.584
168.1898, 1648.789
168.6719, 1638.210
169.1540, 1611.266
169.6361, 1574.900
170.1182, 1537.823
170.6003, 1498.327
171.0825, 1463.192
171.5646, 1432.166
172.0467, 1405.980
172.5288, 1386.206
173.0109, 1373.612
173.4930, 1365.579
173.9752, 1358.406
174.4573, 1351.749
174.9394, 1346.758
175.4215, 1344.474
175.9036, 1344.066
176.3857, 1343.635
176.8679, 1342.427
177.3500, 1341.382
177.8321, 1341.684
178.3142, 1343.346
178.7963, 1345.596
179.2784, 1348.196
179.7606, 1351.111
180.2427, 1353.918
180.7248, 1356.749
181.2069, 1359.166
181.6890, 1360.960
182.1711, 1362.128
182.6533, 1362.456
183.1354, 1361.606
183.6175, 1359.483
184.0996, 1356.963
184.5817, 1353.180
185.0638, 1349.712
185.5460, 1347.400
186.0281, 1346.441
186.5102, 1346.771
186.9923, 1348.463
187.4744, 1351.932
187.9565, 1355.730
188.4387, 1358.633
188.9208, 1362.343
189.4029, 1367.958
189.8850, 1375.869
190.3671, 1385.818
190.8492, 1397.551
191.3314, 1411.405
191.8135, 1426.690
192.2956, 1442.817
192.7777, 1460.318
193.2598, 1481.104
193.7419, 1505.664
194.2241, 1530.872
194.7062, 1549.187
195.1883, 1560.148
195.6704, 1563.317
196.1525, 1557.039
196.6346, 1543.468
197.1168, 1523.812
197.5989, 1498.370
198.0810, 1469.342
198.5631, 1443.056
199.0452, 1418.991
199.5273, 1397.973
200.0095, 1380.170
200.4916, 1365.549
200.9737, 1354.338
201.4558, 1346.959
201.9379, 1342.348
202.4200, 1337.313
202.9022, 1331.239
203.3843, 1325.875
203.8664, 1322.249
204.3485, 1319.866
204.8306, 1317.313
205.3127, 1313.803
205.7949, 1309.995
206.2770, 1307.355
206.7591, 1306.229
207.2412, 1305.349
207.7233, 1303.991
208.2054, 1302.224
208.6876, 1300.520
209.1697, 1299.105
209.6518, 1297.823
210.1339, 1296.361
210.6160, 1294.561
211.0981, 1293.018
211.5803, 1292.428
212.0624, 1292.795
212.5445, 1292.950
213.0266, 1292.426
213.5087, 1291.515
213.9908, 1290.287
214.4730, 1288.640
214.9551, 1287.335
215.4372, 1287.465
215.9193, 1289.302
216.4014, 1290.910
216.8836, 1291.365
217.3657, 1291.607
217.8478, 1292.301
218.3299, 1293.608
218.8120, 1295.123
219.2941, 1296.344
219.7763, 1297.289
220.2584, 1297.832
220.7405, 1297.211
221.2226, 1296.642
221.7047, 1297.145
222.1868, 1298.955
222.6690, 1301.275
223.1511, 1302.977
223.6332, 1304.282
224.1153, 1304.333
224.5974, 1302.104
225.0795, 1299.422
225.5617, 1297.643
226.0438, 1297.135
226.5259, 1297.273
227.0080, 1297.031
227.4901, 1296.487
227.9722, 1295.353
228.4544, 1293.144
228.9365, 1290.740
229.4186, 1288.776
229.9007, 1287.454
230.3828, 1286.621
230.8649, 1286.023
231.3471, 1285.572
231.8292, 1285.566
232.3113, 1285.995
232.7934, 1286.814
233.2755, 1288.264
233.7576, 1290.320
234.2398, 1292.357
234.7219, 1293.300
235.2040, 1292.392
235.6861, 1291.595
236.1682, 1290.320
236.6503, 1289.449
237.1325, 1290.282
237.6146, 1293.062
238.0967, 1296.178
238.5788, 1297.173
239.0609, 1294.928
239.5430, 1292.922
240.0252, 1290.817
240.5073, 1289.215
240.9894, 1288.933
241.4715, 1290.159
241.9536, 1292.064
242.4357, 1293.691
242.9179, 1295.105
243.4000, 1295.862
243.8821, 1295.170
244.3642, 1294.147
244.8463, 1293.997
245.3284, 1294.973
245.8106, 1296.603
246.2927, 1298.474
246.7748, 1300.596
247.2569, 1302.724
247.7390, 1305.013
248.2211, 1307.216
248.7033, 1309.000
249.1854, 1310.294
249.6675, 1311.341
250.1496, 1312.044
250.6317, 1312.535
251.1138, 1313.944
251.5960, 1317.888
252.0781, 1322.302
252.5602, 1324.201
253.0423, 1322.983
253.5244, 1321.155
254.0065, 1321.248
254.4887, 1322.513
254.9708, 1322.789
255.4529, 1321.157
255.9350, 1318.394
256.4171, 1315.386
256.8992, 1312.061
257.3813, 1308.958
257.8635, 1306.311
258.3456, 1304.155
258.8277, 1302.734
259.3098, 1302.859
259.7919, 1303.326
260.2740, 1302.174
260.7562, 1299.012
261.2383, 1295.891
261.7204, 1294.182
262.2025, 1293.148
262.6846, 1291.915
263.1667, 1290.150
263.6489, 1288.171
264.1310, 1286.299
264.6131, 1284.447
265.0952, 1283.076
265.5773, 1283.148
266.0594, 1283.525
266.5416, 1282.933
267.0237, 1280.738
267.5058, 1278.287
267.9879, 1277.667
268.4700, 1279.391
268.9521, 1280.629
269.4343, 1280.291
269.9164, 1279.141
270.3985, 1277.423
270.8806, 1275.125
271.3627, 1272.979
271.8448, 1271.990
272.3270, 1272.344
272.8091, 1272.841
273.2912, 1273.842
273.7733, 1274.468
274.2554, 1273.924
274.7375, 1272.104
275.2197, 1269.940
275.7018, 1268.527
276.1839, 1268.025
276.6660, 1267.232
277.1481, 1264.886
277.6302, 1263.038
278.1124, 1263.180
278.5945, 1265.200
279.0766, 1267.468
279.5587, 1268.405
280.0408, 1267.906
280.5229, 1267.114
281.0051, 1265.615
281.4872, 1264.223
281.9693, 1263.572
282.4514, 1263.425
282.9335, 1262.913
283.4156, 1260.910
283.8978, 1257.353
284.3799, 1255.372
284.8620, 1256.637
285.3441, 1257.893
285.8262, 1257.647
286.3083, 1256.492
286.7905, 1255.850
287.2726, 1256.813
287.7547, 1259.212
288.2368, 1261.434
288.7189, 1262.947
289.2010, 1264.950
289.6832, 1268.944
290.1653, 1273.389
290.6474, 1275.736
291.1295, 1274.194
291.6116, 1270.004
292.0938, 1268.320
292.5759, 1271.366
293.0580, 1273.874
293.5401, 1274.579
294.0222, 1274.343
294.5043, 1273.999
294.9865, 1273.900
295.4686, 1274.168
295.9507, 1275.264
296.4328, 1278.305
296.9149, 1280.113
297.3970, 1279.560
297.8792, 1278.221
298.3613, 1277.401
298.8434, 1277.503
299.3255, 1278.122
299.8076, 1278.698
300.2897, 1279.554
300.7719, 1279.559
301.2540, 1278.111
301.7361, 1276.337
302.2182, 1275.035
302.7003, 1274.280
303.1824, 1273.481
303.6646, 1271.819
304.1467, 1268.927
304.6288, 1266.514
305.1109, 1264.912
305.5930, 1263.447
306.0751, 1261.866
306.5573, 1260.145
307.0394, 1258.352
307.5215, 1256.520
308.0036, 1254.617
308.4857, 1252.959
308.9678, 1252.069
309.4500, 1250.906
309.9321, 1248.937
310.4142, 1246.454
310.8963, 1244.038
311.3784, 1242.042
311.8605, 1240.461
312.3427, 1239.289
312.8248, 1238.289
313.3069, 1238.068
313.7890, 1239.774
314.2711, 1242.004
314.7532, 1242.675
315.2354, 1240.673
315.7175, 1237.259
316.1996, 1236.211
316.6817, 1239.668
317.1638, 1242.188
317.6459, 1243.193
318.1281, 1243.113
318.6102, 1241.780
319.0923, 1239.296
319.5744, 1236.920
320.0565, 1236.943
320.5386, 1240.690
321.0208, 1243.818
321.5029, 1245.958
321.9850, 1247.670
322.4671, 1249.050
322.9492, 1250.251
323.4313, 1251.708
323.9135, 1254.240
324.3956, 1258.425
324.8777, 1260.636
325.3598, 1258.453
325.8419, 1256.532
326.3240, 1256.674
326.8062, 1258.643
327.2883, 1261.333
327.7704, 1264.070
328.2525, 1266.809
328.7346, 1268.815
329.2167, 1268.634
329.6989, 1269.418
330.1810, 1271.875
330.6631, 1275.778
331.1452, 1280.962
331.6273, 1287.491
332.1094, 1294.750
332.5916, 1300.615
333.0737, 1303.373
333.5558, 1307.747
334.0379, 1315.855
334.5200, 1325.028
335.0021, 1333.116
335.4843, 1339.398
335.9664, 1343.696
336.4485, 1345.482
336.9306, 1344.164
337.4127, 1342.027
337.8948, 1339.710
338.3770, 1336.355
338.8591, 1331.119
339.3412, 1324.075
339.8233, 1316.284
340.3055, 1308.668
340.7876, 1301.277
341.2697, 1293.787
341.7518, 1284.967
342.2339, 1277.396
342.7160, 1273.171
343.1982, 1271.047
343.6803, 1267.911
344.1624, 1261.129
344.6445, 1251.732
345.1266, 1245.010
345.6087, 1242.347
346.0909, 1240.277
346.5730, 1237.500
347.0551, 1234.582
347.5372, 1232.364
348.0193, 1231.286
348.5014, 1230.648
348.9836, 1229.055
349.4657, 1226.164
349.9478, 1223.493
350.4299, 1221.683
350.9120, 1220.087
351.3941, 1218.297
351.8763, 1216.234
352.3584, 1213.958
352.8405, 1211.452
353.3226, 1208.697
353.8047, 1206.072
354.2868, 1203.439
354.7690, 1201.178
355.2511, 1199.532
355.7332, 1198.442
356.2153, 1197.664
356.6974, 1197.296
357.1795, 1197.154
357.6617, 1196.468
358.1438, 1195.053
358.6259, 1193.463
359.1080, 1192.194
359.5901, 1190.949
360.0722, 1189.176
360.5544, 1186.487
361.0365, 1183.408
361.5186, 1180.298
362.0007, 1177.016
362.4828, 1175.007
362.9649, 1175.985
363.4471, 1177.939
363.9292, 1178.556
364.4113, 1177.428
364.8934, 1175.738
365.3755, 1174.503
365.8576, 1173.547
366.3398, 1171.662
366.8219, 1167.760
367.3040, 1164.081
367.7861, 1163.197
368.2682, 1164.845
368.7503, 1166.728
369.2325, 1168.282
369.7146, 1169.400
370.1967, 1169.882
370.6788, 1169.698
371.1609, 1168.974
371.6430, 1167.502
372.1252, 1165.531
372.6073, 1163.936
373.0894, 1163.229
373.5715, 1162.620
374.0536, 1161.266
374.5357, 1159.343
375.0179, 1158.000
375.5000, 1158.141
375.9821, 1158.897
376.4642, 1158.068
376.9463, 1154.868
377.4284, 1152.134
377.9106, 1151.357
378.3927, 1151.639
378.8748, 1151.344
379.3569, 1149.990
379.8390, 1148.404
380.3211, 1147.684
380.8033, 1148.016
381.2854, 1148.199
381.7675, 1148.269
382.2496, 1148.080
382.7317, 1147.381
383.2138, 1146.228
383.6960, 1145.021
384.1781, 1143.995
384.6602, 1143.169
385.1423, 1142.778
385.6244, 1142.620
386.1065, 1143.001
386.5887, 1144.827
387.0708, 1147.109
387.5529, 1148.032
388.0350, 1146.752
388.5171, 1144.239
388.9992, 1142.625
389.4814, 1142.863
389.9635, 1142.587
390.4456, 1141.643
390.9277, 1140.306
391.4098, 1138.417
391.8919, 1136.179
392.3741, 1134.428
392.8562, 1134.088
393.3383, 1135.323
393.8204, 1136.779
394.3025, 1139.239
394.7846, 1141.114
395.2668, 1141.588
395.7489, 1141.113
396.2310, 1140.633
396.7131, 1140.733
397.1952, 1141.073
397.6773, 1140.393
398.1595, 1137.676
398.6416, 1135.613
399.1237, 1134.738
399.6058, 1134.450
400.0879, 1134.180
400.5700, 1133.817
401.0522, 1133.741
401.5343, 1134.664
402.0164, 1136.880
402.4985, 1138.289
402.9806, 1138.011
403.4627, 1137.640
403.9449, 1137.897
404.4270, 1138.619
404.9091, 1139.283
405.3912, 1139.559
405.8733, 1139.544
406.3554, 1139.619
406.8376, 1139.992
407.3197, 1139.914
407.8018, 1138.836
408.2839, 1137.281
408.7660, 1135.455
409.2481, 1133.188
409.7303, 1131.766
410.2124, 1133.090
410.6945, 1136.946
411.1766, 1140.003
411.6587, 1141.572
412.1408, 1142.076
412.6230, 1141.412
413.1051, 1139.829
413.5872, 1139.261
414.0693, 1141.426
414.5514, 1144.774
415.0335, 1146.705
415.5157, 1146.966
415.9978, 1147.015
416.4799, 1147.781
416.9620, 1149.043
417.4441, 1150.021
417.9262, 1150.092
418.4084, 1150.669
418.8905, 1152.214
419.3726, 1154.865
419.8547, 1159.451
420.3368, 1166.670
420.8189, 1174.529
421.3011, 1179.369
421.7832, 1180.081
422.2653, 1182.678
422.7474, 1189.021
423.2295, 1196.687
423.7116, 1203.837
424.1938, 1210.264
424.6759, 1216.560
425.1580, 1223.376
425.6401, 1230.585
426.1222, 1235.982
426.6043, 1241.096
427.0865, 1242.952
427.5686, 1239.759
428.0507, 1233.176
428.5328, 1224.975
429.0149, 1215.883
429.4970, 1206.670
429.9792, 1198.681
430.4613, 1192.468
430.9434, 1186.231
431.4255, 1179.260
431.9076, 1172.859
432.3897, 1167.972
432.8719, 1164.361
433.3540, 1160.997
433.8361, 1156.990
434.3182, 1152.572
434.8003, 1149.367
435.2824, 1147.769
435.7646, 1146.933
436.2467, 1147.044
436.7288, 1147.519
437.2109, 1147.639
437.6930, 1147.169
438.1751, 1146.772
438.6573, 1147.356
439.1394, 1148.990
439.6215, 1150.681
440.1036, 1152.350
440.5857, 1153.993
441.0678, 1155.033
441.5500, 1155.899
442.0321, 1158.142
442.5142, 1163.396
442.9963, 1170.190
443.4784, 1175.537
443.9605, 1179.125
444.4427, 1183.753
444.9248, 1191.344
445.4069, 1200.620
445.8890, 1209.345
446.3711, 1217.621
446.8532, 1224.899
447.3354, 1230.846
447.8175, 1235.558
448.2996, 1239.302
448.7817, 1242.167
449.2638, 1243.883
449.7459, 1244.359
450.2281, 1243.503
450.7102, 1240.057
451.1923, 1232.666
451.6744, 1223.826
452.1565, 1214.945
452.6386, 1205.923
453.1208, 1196.017
453.6029, 1184.632
454.0850, 1172.649
454.5671, 1162.520
455.0492, 1154.943
455.5313, 1148.452
456.0135, 1143.672
456.4956, 1139.532
456.9777, 1134.982
457.4598, 1130.012
457.9419, 1125.414
458.4240, 1121.938
458.9062, 1119.605
459.3883, 1117.621
459.8704, 1116.538
460.3525, 1115.178
460.8346, 1112.687
461.3167, 1109.999
461.7989, 1108.682
462.2810, 1109.360
462.7631, 1110.240
463.2452, 1107.894
463.7273, 1101.409
464.2094, 1097.156
464.6916, 1097.625
465.1737, 1098.992
465.6558, 1099.274
466.1379, 1098.543
466.6200, 1097.461
467.1021, 1095.883
467.5843, 1094.404
468.0664, 1094.744
468.5485, 1097.301
469.0306, 1098.740
469.5127, 1096.792
469.9948, 1093.269
470.4770, 1091.039
470.9591, 1090.384
471.4412, 1090.338
471.9233, 1090.637
472.4054, 1091.175
472.8875, 1091.809
473.3697, 1092.532
473.8518, 1093.174
474.3339, 1093.635
474.8160, 1093.886
475.2981, 1093.717
475.7802, 1093.320
476.2624, 1092.313
476.7445, 1089.438
477.2266, 1085.984
477.7087, 1084.796
478.1908, 1087.028
478.6729, 1090.531
479.1551, 1091.359
479.6372, 1088.006
480.1193, 1085.396
480.6014, 1083.214
481.0835, 1081.923
481.5656, 1082.402
482.0478, 1084.042
482.5299, 1085.316
483.0120, 1085.196
483.4941, 1084.004
483.9762, 1082.897
484.4583, 1081.816
484.9405, 1080.970
485.4226, 1080.864
485.9047, 1080.684
486.3868, 1079.594
486.8689, 1077.575
487.3510, 1075.630
487.8332, 1074.378
488.3153, 1073.865
488.7974, 1074.589
489.2795, 1077.234
489.7616, 1079.462
490.2437, 1079.495
490.7259, 1078.256
491.2080, 1077.022
491.6901, 1075.994
492.1722, 1075.052
492.6543, 1073.987
493.1364, 1072.938
493.6186, 1072.435
494.1007, 1072.719
494.5828, 1073.075
495.0649, 1072.485
495.5470, 1070.801
496.0291, 1070.178
496.5113, 1072.104
496.9934, 1073.787
497.4755, 1073.253
497.9576, 1071.169
498.4397, 1069.241
498.9218, 1068.284
499.4040, 1068.037
499.8861, 1067.972
500.3682, 1068.434
500.8503, 1068.424
501.3324, 1066.957
501.8145, 1065.901
502.2967, 1066.761
502.7788, 1069.131
503.2609, 1071.453
503.7430, 1072.635
504.2251, 1072.958
504.7072, 1073.670
505.1894, 1075.455
505.6715, 1076.030
506.1536, 1073.277
506.6357, 1070.128
507.1178, 1068.902
507.5999, 1069.870
508.0821, 1071.701
508.5642, 1074.033
509.0463, 1076.463
509.5284, 1077.536
510.0105, 1076.841
510.4926, 1076.255
510.9748, 1076.913
511.4569, 1078.531
511.9390, 1080.301
512.4211, 1081.836
512.9032, 1084.142
513.3853, 1088.002
513.8674, 1092.876
514.3495, 1097.697
514.8317, 1102.266
515.3138, 1107.190
515.7959, 1112.987
516.2780, 1119.661
516.7601, 1127.787
517.2422, 1139.427
517.7244, 1150.005
518.2065, 1158.400
518.6886, 1164.644
519.1707, 1169.303
519.6528, 1172.492
520.1349, 1173.048
520.6171, 1168.792
521.0992, 1158.689
521.5813, 1148.030
522.0634, 1136.734
522.5455, 1124.919
523.0276, 1111.309
523.5098, 1097.395
523.9919, 1085.973
524.4740, 1078.368
524.9561, 1073.305
525.4382, 1068.905
525.9203, 1065.181
526.4025, 1063.030
526.8846, 1063.688
527.3667, 1064.640
527.8488, 1063.113
528.3309, 1059.512
528.8130, 1056.400
529.2952, 1054.321
529.7773, 1053.193
530.2594, 1053.107
530.7415, 1053.951
531.2236, 1055.544
531.7057, 1058.098
532.1879, 1060.506
532.6700, 1060.518
533.1521, 1056.714
533.6342, 1053.640
534.1163, 1051.412
534.5984, 1049.918
535.0806, 1049.623
535.5627, 1050.037
536.0448, 1049.779
536.5269, 1047.889
537.0090, 1045.207
537.4911, 1044.492
537.9733, 1047.025
538.4554, 1048.685
538.9375, 1048.429
539.4196, 1047.664
539.9017, 1047.217
540.3839, 1047.069
540.8660, 1046.740
541.3481, 1045.774
541.8302, 1044.503
542.3123, 1043.700
542.7944, 1043.413
543.2766, 1043.176
543.7587, 1042.651
544.2408, 1042.247
544.7229, 1042.720
545.2050, 1044.237
545.6871, 1045.189
546.1693, 1044.575
546.6514, 1043.402
547.1335, 1042.886
547.6156, 1042.979
548.0977, 1042.661
548.5798, 1041.168
549.0620, 1039.036
549.5441, 1038.090
550.0262, 1039.790
550.5083, 1040.744
550.9904, 1040.085
551.4725, 1039.308
551.9547, 1039.942
552.4368, 1041.652
552.9189, 1042.651
553.4010, 1041.383
553.8831, 1038.630
554.3652, 1037.690
554.8474, 1039.323
555.3295, 1040.877
555.8116, 1041.789
556.2937, 1042.316
556.7758, 1042.667
557.2579, 1042.832
557.7401, 1042.545
558.2222, 1040.900
558.7043, 1038.996
559.1864, 1039.031
559.6685, 1041.068
560.1506, 1042.945
560.6328, 1043.204
561.1149, 1043.030
561.5970, 1045.544
562.0791, 1052.030
562.5612, 1056.541
563.0433, 1056.367
563.5255, 1054.993
564.0076, 1055.258
564.4897, 1057.150
564.9718, 1059.321
565.4539, 1060.938
565.9360, 1062.120
566.4182, 1063.194
566.9003, 1063.782
567.3824, 1065.035
567.8645, 1067.685
568.3466, 1070.412
568.8287, 1071.901
569.3109, 1072.619
569.7930, 1074.346
570.2751, 1078.474
570.7572, 1084.024
571.2393, 1088.731
571.7214, 1092.435
572.2036, 1096.943
572.6857, 1102.557
573.1678, 1109.491
573.6499, 1118.082
574.1320, 1128.236
574.6141, 1139.228
575.0963, 1151.646
575.5784, 1164.152
576.0605, 1175.629
576.5426, 1186.160
577.0247, 1196.552
577.5068, 1207.239
577.9890, 1217.241
578.4711, 1224.688
578.9532, 1228.954
579.4353, 1232.083
579.9174, 1233.493
580.3995, 1234.516
580.8817, 1235.787
581.3638, 1237.148
581.8459, 1237.827
582.3280, 1237.307
582.8101, 1237.234
583.2922, 1240.794
583.7744, 1248.272
584.2565, 1255.092
584.7386, 1260.475
585.2207, 1265.444
585.7029, 1271.442
586.1850, 1277.642
586.6671, 1281.827
587.1492, 1283.443
587.6313, 1282.947
588.1135, 1280.858
588.5956, 1276.893
589.0777, 1270.271
589.5598, 1260.802
590.0419, 1249.026
590.5240, 1235.237
591.0062, 1219.385
591.4883, 1204.005
591.9704, 1189.096
592.4525, 1174.584
592.9346, 1159.560
593.4167, 1145.400
593.8989, 1133.727
594.3810, 1124.850
594.8631, 1117.450
595.3452, 1110.033
595.8273, 1102.773
596.3094, 1097.887
596.7916, 1096.800
597.2737, 1094.811
597.7558, 1089.297
598.2379, 1082.096
598.7200, 1074.884
599.2021, 1067.818
599.6843, 1060.902
600.1664, 1053.728
600.6485, 1046.864
601.1306, 1041.180
601.6127, 1036.689
602.0948, 1032.703
602.5770, 1028.851
603.0591, 1025.208
603.5412, 1021.997
604.0233, 1019.432
604.5054, 1016.976
604.9875, 1014.505
605.4697, 1012.233
605.9518, 1010.574
606.4339, 1009.231
606.9160, 1007.349
607.3981, 1004.336
607.8802, 1001.089
608.3624, 999.6353
608.8445, 1000.274
609.3266, 1000.387
609.8087, 999.3525
610.2908, 997.9861
610.7729, 997.2223
611.2551, 996.6642
611.7372, 995.0164
612.2193, 991.0409
612.7014, 987.0182
613.1835, 984.4901
613.6656, 983.1301
614.1478, 982.3588
614.6299, 982.0276
615.1120, 981.9206
615.5941, 981.9178
616.0762, 982.0168
616.5583, 981.3431
617.0405, 979.1551
617.5226, 977.1039
618.0047, 975.4359
618.4868, 974.0275
618.9689, 972.7291
619.4510, 971.5352
619.9332, 970.6000
620.4153, 970.2017
620.8974, 970.1396
621.3795, 969.6051
621.8616, 968.4836
622.3438, 967.5828
622.8259, 967.4900
623.3080, 967.5206
623.7901, 966.7932
624.2722, 965.2980
624.7543, 963.4993
625.2365, 960.7971
625.7186, 958.4379
626.2007, 957.8822
626.6828, 958.5529
627.1649, 958.6188
627.6470, 957.2842
628.1292, 955.6667
628.6113, 955.6756
629.0934, 957.8390
629.5755, 959.3810
630.0576, 960.3392
630.5397, 960.5546
631.0219, 959.4857
631.5040, 957.8087
631.9861, 956.4391
632.4682, 955.6464
632.9503, 954.9839
633.4324, 954.0456
633.9146, 952.9115
634.3967, 951.8412
634.8788, 950.8664
635.3609, 949.9386
635.8430, 949.0860
636.3251, 948.2365
636.8073, 947.0823
637.2894, 945.0731
637.7715, 944.0740
638.2536, 945.4442
638.7357, 947.0368
639.2178, 946.9291
639.7000, 945.5523
640.1821, 944.6717
640.6642, 945.2948
641.1463, 946.4788
641.6284, 946.1315
642.1105, 943.8492
642.5927, 942.2175
643.0748, 941.9957
643.5569, 941.7688
644.0390, 940.5524
644.5211, 938.7977
645.0032, 937.4761
645.4854, 937.0333
645.9675, 936.5309
646.4496, 934.9769
646.9317, 933.0421
647.4138, 932.3213
647.8959, 932.9332
648.3781, 932.9347
648.8602, 930.6192
649.3423, 926.7679
649.8244, 925.1857
650.3065, 928.5292
650.7886, 930.1763
651.2708, 928.3016
651.7529, 926.1173
652.2350, 925.8538
652.7171, 927.1619
653.1992, 928.5098
653.6813, 929.1807
654.1635, 929.2689
654.6456, 928.9174
655.1277, 928.1180
655.6098, 926.6791
656.0919, 924.3269
656.5740, 921.9885
657.0562, 920.3707
657.5383, 919.4864
658.0204, 919.0734
658.5025, 919.4074
658.9846, 919.8682
659.4667, 920.5112
659.9489, 921.0508
660.4310, 921.1190
660.9131, 920.7344
661.3952, 920.2557
661.8773, 919.9685
662.3594, 919.7326
662.8416, 918.9540
663.3237, 917.3301
663.8058, 916.3232
664.2879, 917.0046
664.7700, 917.5228
665.2521, 916.0976
665.7343, 913.3745
666.2164, 911.5970
666.6985, 911.8557
667.1806, 912.6125
667.6627, 913.0264
668.1448, 913.1056
668.6270, 912.6965
669.1091, 911.8245
669.5912, 911.1305
670.0733, 911.2790
670.5554, 912.0608
671.0375, 911.8955
671.5197, 909.6360
672.0018, 908.3241
672.4839, 908.8255
672.9660, 909.8147
673.4481, 910.5408
673.9302, 910.9452
674.4124, 911.2053
674.8945, 911.4767
675.3766, 911.5211
675.8587, 910.9758
676.3408, 909.9230
676.8229, 908.5048
677.3051, 906.5939
677.7872, 905.4021
678.2693, 906.3062
678.7514, 909.0440
679.2335, 910.5417
679.7156, 910.6363
680.1978, 909.8672
680.6799, 907.0368
681.1620, 904.3282
681.6441, 903.8411
682.1262, 905.3044
682.6083, 907.0927
683.0905, 908.4222
683.5726, 908.9612
684.0547, 907.5409
684.5368, 904.1696
685.0189, 902.0926
685.5010, 902.3492
685.9832, 903.0413
686.4653, 902.4050
686.9474, 900.8093
687.4295, 900.1918
687.9116, 901.6610
688.3937, 902.6559
688.8759, 902.1631
689.3580, 901.0326
689.8401, 899.9721
690.3222, 899.1218
690.8043, 898.4332
691.2864, 897.8624
691.7686, 897.4733
692.2507, 897.5546
692.7328, 898.2659
693.2149, 898.3875
693.6970, 897.2603
694.1791, 896.2357
694.6613, 896.3898
695.1434, 897.3120
695.6255, 898.1912
696.1076, 899.1964
696.5897, 899.5410
697.0718, 897.9753
697.5540, 896.0679
698.0361, 896.0040
698.5182, 897.6423
699.0003, 899.1576
699.4824, 899.4022
699.9645, 898.9670
700.4467, 899.3830
700.9288, 901.0236
701.4109, 902.1356
701.8930, 902.6565
702.3751, 902.5663
702.8572, 901.6061
703.3394, 900.1609
703.8215, 898.9180
704.3036, 898.1197
704.7857, 897.1385
705.2678, 895.1494
705.7499, 893.0294
706.2321, 892.0931
706.7142, 892.2778
707.1963, 892.7411
707.6784, 893.0798
708.1605, 893.2213
708.6426, 892.9195
709.1248, 891.8289
709.6069, 891.5656
710.0890, 893.6765
710.5711, 894.7614
711.0532, 893.0069
711.5353, 889.8878
712.0175, 887.2434
712.4996, 885.4256
712.9817, 883.9561
713.4638, 882.5258
713.9459, 881.2571
714.4280, 880.4255
714.9102, 879.9543
715.3923, 879.4890
715.8744, 878.9029
716.3565, 878.0793
716.8386, 876.7280
717.3207, 874.6619
717.8029, 873.4684
718.2850, 874.0576
718.7671, 874.4172
719.2492, 874.4346
719.7313, 873.8054
720.2134, 871.7499
720.6956, 868.4205
721.1777, 865.7492
721.6598, 865.2066
722.1419, 865.7130
722.6240, 866.0642
723.1061, 866.2774
723.5883, 866.3826
724.0704, 866.3733
724.5525, 866.5370
725.0346, 867.3223
725.5167, 868.6815
725.9988, 868.9166
726.4810, 867.1290
726.9631, 865.4823
727.4452, 863.9048
727.9273, 862.8103
728.4094, 862.8686
728.8915, 863.7439
729.3737, 864.1989
729.8558, 863.5689
730.3379, 862.4500
730.8200, 861.2905
731.3021, 860.1659
731.7842, 859.2526
732.2664, 858.5873
732.7485, 858.2941
733.2306, 858.6006
733.7127, 859.2098
734.1948, 858.8829
734.6769, 856.6859
735.1591, 855.2653
735.6412, 855.2794
736.1233, 855.4308
736.6054, 855.2220
737.0875, 854.6403
737.5696, 853.6063
738.0518, 851.9719
738.5339, 850.6198
739.0160, 850.5286
739.4981, 851.0822
739.9802, 851.2336
740.4623, 850.9010
740.9445, 850.0307
741.4266, 848.4406
741.9087, 847.0491
742.3908, 847.7773
742.8729, 851.6007
743.3550, 853.3012
743.8372, 850.7629
744.3193, 848.5911
744.8014, 848.2248
745.2835, 848.7225
745.7656, 849.2327
746.2477, 849.5814
746.7299, 849.4980
747.2120, 847.9305
747.6941, 846.5374
748.1762, 848.0354
748.6583, 851.3733
749.1404, 852.9918
749.6226, 851.9009
750.1047, 850.1858
750.5868, 850.0043
751.0689, 851.1845
751.5510, 851.8192
752.0331, 851.7325
752.5153, 851.4295
752.9974, 850.8360
753.4795, 850.1783
753.9616, 849.3826
754.4437, 848.6246
754.9258, 848.4399
755.4080, 849.1725
755.8901, 850.1445
756.3722, 851.2522
756.8543, 852.1293
757.3364, 851.8707
757.8185, 850.6580
758.3007, 849.8975
758.7828, 850.4658
759.2649, 851.8436
759.7470, 852.8688
760.2291, 853.3758
760.7112, 854.4211
761.1934, 856.4321
761.6755, 858.3714
762.1576, 860.6874
762.6397, 862.2203
763.1218, 860.7267
763.6039, 855.5479
764.0861, 851.8679
764.5682, 852.4612
765.0503, 854.3090
765.5324, 855.4329
766.0145, 855.9367
766.4966, 856.3467
766.9788, 856.7864
767.4609, 856.9029
767.9430, 856.3705
768.4251, 855.1941
768.9072, 853.1735
769.3893, 850.0280
769.8715, 847.5212
770.3536, 846.1013
770.8357, 845.4298
771.3178, 845.7460
771.7999, 846.6990
772.2820, 846.4324
772.7642, 843.5403
773.2463, 841.1725
773.7284, 840.9198
774.2105, 840.9680
774.6926, 839.4371
775.1747, 836.7308
775.6569, 834.5511
776.1390, 833.7783
776.6211, 833.5202
777.1032, 832.5018
777.5853, 830.8842
778.0674, 829.5690
778.5496, 828.6359
779.0317, 827.8517
779.5138, 827.0331
779.9959, 826.4166
780.4780, 826.6076
780.9601, 828.1608
781.4423, 828.1921
781.9244, 825.5253
782.4065, 822.8461
782.8886, 820.8623
783.3707, 819.3876
783.8528, 818.0422
784.3350, 816.8657
784.8171, 816.4330
785.2992, 817.6396
785.7813, 819.1509
786.2634, 818.9157
786.7455, 817.5090
787.2277, 816.9545
787.7098, 817.6412
788.1919, 818.3576
788.6740, 818.1893
789.1561, 817.2620
789.6382, 815.9285
790.1204, 813.6581
790.6025, 812.2802
791.0846, 812.3755
791.5667, 812.8666
792.0488, 813.7022
792.5309, 814.4678
793.0131, 814.3696
793.4952, 813.1224
793.9773, 812.2025
794.4594, 812.7745
794.9415, 813.5815
795.4236, 813.4003
795.9058, 812.5040
796.3879, 811.7135
796.8700, 811.2599
797.3521, 810.6502
797.8342, 809.2695
798.3163, 807.3252
798.7985, 805.9764
799.2806, 805.3489
799.7627, 804.5382
800.2448, 803.2584
800.7269, 801.8582
801.2090, 800.6539
801.6912, 799.5838
802.1733, 798.2810
802.6554, 795.8498
803.1375, 794.5999
803.6196, 795.9172
804.1017, 797.6917
804.5839, 798.3367
805.0660, 798.2390
805.5481, 798.6038
806.0302, 799.8888
806.5123, 801.0411
806.9944, 801.1943
807.4766, 800.3911
807.9587, 798.2557
808.4408, 794.9603
808.9229, 792.3517
809.4050, 791.0994
809.8871, 790.9236
810.3693, 791.7380
810.8514, 793.5219
811.3335, 793.9874
811.8156, 792.4066
812.2977, 790.7155
812.7798, 789.1320
813.2620, 787.5843
813.7441, 785.3662
814.2262, 783.1623
814.7083, 783.0604
815.1904, 786.5636
815.6725, 789.8282
816.1547, 790.6923
816.6368, 790.1885
817.1189, 789.1839
817.6010, 787.9102
818.0831, 786.6060
818.5652, 785.3755
819.0474, 784.2627
819.5295, 783.0881
820.0116, 781.9921
820.4937, 782.5613
820.9758, 785.1244
821.4579, 787.4493
821.9401, 789.0611
822.4222, 789.7667
822.9043, 789.1487
823.3864, 787.2599
823.8685, 785.5671
824.3506, 784.3828
824.8328, 782.9698
825.3149, 780.6210
825.7970, 778.5446
826.2791, 777.5307
826.7612, 777.5154
827.2433, 778.4053
827.7255, 780.3418
828.2076, 781.8301
828.6897, 780.9877
829.1718, 779.1937
829.6539, 779.1439
830.1360, 780.4424
830.6182, 780.4884
831.1003, 778.2883
831.5824, 775.5131
832.0645, 774.2107
832.5466, 774.2289
833.0287, 773.7841
833.5109, 772.7184
833.9930, 771.5706
834.4751, 769.7158
834.9572, 768.6921
835.4393, 770.9578
835.9214, 775.0680
836.4036, 776.6514
836.8857, 774.1550
837.3678, 771.6042
837.8499, 769.5325
838.3320, 768.1586
838.8141, 768.1133
839.2963, 768.7562
839.7784, 769.0274
840.2605, 768.5831
840.7426, 767.6541
841.2247, 766.1429
841.7068, 764.4307
842.1890, 763.1681
842.6711, 762.3655
843.1532, 762.3026
843.6353, 763.0797
844.1174, 763.6511
844.5995, 762.9794
845.0817, 761.4537
845.5638, 760.9485
846.0459, 762.0207
846.5280, 762.5123
847.0101, 761.6877
847.4922, 761.0090
847.9744, 761.5268
848.4565, 762.5266
848.9386, 763.0170
849.4207, 762.9464
849.9028, 762.1944
850.3849, 759.9391
850.8671, 757.8484
851.3492, 756.7919
851.8313, 756.5731
852.3134, 757.2360
852.7955, 758.5048
853.2776, 759.3161
853.7598, 758.8574
854.2419, 757.7851
854.7240, 756.9391
855.2061, 756.3281
855.6882, 756.1401
856.1703, 756.3795
856.6525, 756.4465
857.1346, 756.0123
857.6167, 755.1647
858.0988, 753.9589
858.5809, 752.1986
859.0630, 751.4442
859.5452, 752.4605
860.0273, 753.1178
860.5094, 752.3184
860.9915, 751.2665
861.4736, 751.0341
861.9557, 751.5351
862.4379, 752.1166
862.9200, 753.1228
863.4021, 753.5650
863.8842, 752.9710
864.3663, 751.7913
864.8484, 750.0145
865.3306, 748.0510
865.8127, 746.7023
866.2948, 746.2770
866.7769, 746.1927
867.2590, 745.9098
867.7411, 745.5491
868.2233, 745.5795
868.7054, 745.8386
869.1875, 745.3246
869.6696, 743.7398
870.1517, 741.8066
870.6339, 740.0958
871.1160, 738.7388
871.5981, 738.5155
872.0802, 739.9566
872.5623, 740.5299
873.0444, 739.3076
873.5266, 738.3580
874.0087, 739.4806
874.4908, 741.3279
874.9729, 741.2803
875.4550, 738.9462
875.9371, 736.9705
876.4193, 735.7870
876.9014, 734.9295
877.3835, 734.2905
877.8656, 733.8331
878.3477, 733.4902
878.8298, 733.2891
879.3120, 733.4343
879.7941, 734.2480
880.2762, 734.8431
880.7583, 733.7513
881.2404, 732.1219
881.7225, 732.3889
882.2047, 734.2581
882.6868, 735.3797
883.1689, 734.7408
883.6510, 733.5405
884.1331, 733.3676
884.6152, 734.0240
885.0974, 733.9076
885.5795, 732.8917
886.0616, 732.0859
886.5437, 731.8682
887.0258, 731.6360
887.5079, 730.9351
887.9901, 729.8157
888.4722, 728.4485
888.9543, 726.4894
889.4364, 724.9451
889.9185, 724.0205
890.4006, 723.2779
890.8828, 722.4924
891.3649, 721.8248
891.8470, 721.2965
892.3291, 720.9796
892.8112, 721.5060
893.2933, 724.3168
893.7755, 726.7015
894.2576, 726.9612
894.7397, 725.8292
895.2218, 723.4584
895.7039, 720.5570
896.1860, 719.1173
896.6682, 720.1388
897.1503, 721.6496
897.6324, 720.8410
898.1145, 721.2646
898.5966, 721.0893
899.0787, 719.7156
899.5609, 719.7723
900.0430, 717.4703
900.5251, 715.5969
901.0072, 717.1049
901.4893, 721.0588
901.9714, 722.9063
902.4536, 722.2555
902.9357, 720.7813
903.4178, 717.8366
903.8999, 715.5287
904.3820, 715.6487
904.8641, 716.7217
905.3463, 715.8232
905.8284, 712.5181
906.3105, 710.9806
906.7926, 713.5104
907.2747, 715.2902
907.7568, 714.1882
908.2390, 712.2787
908.7211, 711.4196
909.2032, 711.4234
909.6853, 711.0404
910.1674, 709.6827
910.6495, 708.5029
911.1317, 708.4008
911.6138, 708.7659
912.0959, 709.0092
912.5780, 709.1162
913.0601, 709.0605
913.5422, 708.8953
914.0244, 709.1442
914.5065, 710.6569
914.9886, 712.1854
915.4707, 710.2684
915.9528, 705.6571
916.4349, 703.3596
916.9171, 704.0791
917.3992, 705.3627
917.8813, 706.0095
918.3634, 705.9869
918.8455, 705.1503
919.3276, 703.4382
919.8098, 701.9066
920.2919, 700.3165
920.7740, 699.5951
921.2561, 700.7225
921.7382, 701.8019
922.2203, 700.6994
922.7025, 698.2502
923.1846, 697.8099
923.6667, 700.8577
924.1488, 702.6811
924.6309, 703.0267
925.1130, 701.8641
925.5952, 697.6603
926.0773, 692.8641
926.5594, 690.5071
927.0415, 690.7408
927.5236, 691.4216
928.0057, 692.3407
928.4879, 692.4267
928.9700, 689.6532
929.4521, 686.5906
929.9342, 686.7615
930.4163, 689.3408
930.8984, 691.4379
931.3806, 691.9373
931.8627, 691.5027
932.3448, 690.4651
932.8269, 689.1503
933.3090, 688.3580
933.7911, 687.9119
934.2733, 686.9416
934.7554, 685.3177
935.2375, 683.9005
935.7196, 683.2736
936.2017, 683.1915
936.6838, 683.1215
937.1660, 683.0428
937.6481, 683.5762
938.1302, 685.0004
938.6123, 685.7576
939.0944, 685.1609
939.5765, 684.0666
940.0587, 683.2766
940.5408, 682.7584
941.0229, 682.3148
941.5050, 682.0562
941.9871, 681.6708
942.4692, 680.9136
942.9514, 680.2966
943.4335, 680.0477
943.9156, 680.0362
944.3977, 680.2006
944.8798, 680.5204
945.3619, 680.5411
945.8441, 679.7238
946.3262, 679.1636
946.8083, 679.4603
947.2904, 679.9840
947.7725, 680.2527
948.2546, 680.2968
948.7368, 680.2810
949.2189, 680.2543
949.7010, 680.2981
950.1831, 680.9388
950.6652, 681.2535
951.1473, 679.5063
951.6295, 677.0944
952.1116, 676.9706
952.5937, 679.0582
953.0758, 680.6445
953.5579, 680.1516
954.0400, 678.7936
954.5222, 677.8751
955.0043, 677.4876
955.4864, 678.1808
955.9685, 679.7879
956.4506, 681.1574
956.9327, 681.9403
957.4149, 682.0233
957.8970, 681.1815
958.3791, 679.8246
958.8612, 679.3244
959.3433, 679.7722
959.8254, 679.5707
960.3076, 678.3288
960.7897, 677.7751
961.2718, 678.8448
961.7539, 680.5419
962.2360, 681.6754
962.7181, 682.2600
963.2003, 682.5082
963.6824, 682.2666
964.1645, 681.9786
964.6466, 680.9503
965.1287, 680.8027
965.6108, 682.6451
966.0930, 685.8000
966.5751, 689.7167
967.0572, 694.5759
967.5393, 697.9370
968.0214, 698.0071
968.5035, 698.5928
968.9857, 700.8930
969.4678, 703.9310
969.9499, 707.1475
970.4320, 710.4534
970.9141, 713.9111
971.3962, 717.5446
971.8784, 721.0482
972.3605, 723.5093
972.8426, 726.5848
973.3247, 731.4602
973.8068, 737.5791
974.2889, 744.5368
974.7711, 752.0403
975.2532, 759.5908
975.7353, 766.9189
976.2174, 774.5262
976.6995, 782.2744
977.1816, 790.9895
977.6638, 802.9291
978.1459, 816.6271
978.6280, 828.1089
979.1101, 836.7869
979.5922, 844.9216
980.0743, 854.0646
980.5565, 863.5510
981.0386, 872.5091
981.5207, 880.8273
982.0028, 887.9542
982.4849, 893.8986
982.9670, 899.2524
983.4492, 904.1977
983.9313, 908.4430
984.4134, 911.7148
984.8955, 914.1062
985.3776, 916.0452
985.8597, 917.5526
986.3419, 917.6237
986.8240, 915.9897
987.3061, 914.1434
987.7882, 912.7949
988.2703, 911.2181
988.7524, 908.3148
989.2346, 904.3102
989.7167, 901.8171
990.1988, 901.2382
990.6809, 900.9548
991.1630, 900.9299
991.6451, 900.9232
992.1273, 900.3254
992.6094, 900.1198
993.0915, 901.8910
993.5736, 905.7203
994.0557, 909.8102
994.5378, 914.0327
995.0200, 918.6793
995.5021, 923.5311
995.9842, 929.0549
996.4663, 934.8459
996.9484, 941.7723
997.4305, 951.8515
997.9127, 965.5000
998.3948, 977.9969
998.8769, 986.6788
999.3590, 996.7156
999.8411, 1009.768
1000.323, 1024.769
1000.805, 1040.437
1001.287, 1057.500
1001.770, 1078.040
1002.252, 1102.731
1002.734, 1126.103
1003.216, 1143.578
1003.698, 1161.656
1004.180, 1184.335
1004.662, 1209.370
1005.144, 1236.318
1005.627, 1262.970
1006.109, 1285.162
1006.591, 1301.574
1007.073, 1311.196
1007.555, 1313.046
1008.037, 1308.009
1008.519, 1296.506
1009.001, 1278.832
1009.483, 1254.413
1009.966, 1224.304
1010.448, 1191.069
1010.930, 1156.049
1011.412, 1120.219
1011.894, 1083.261
1012.376, 1047.360
1012.858, 1015.423
1013.340, 987.1187
1013.823, 961.3206
1014.305, 937.7606
1014.787, 916.0852
1015.269, 896.1794
1015.751, 878.6188
1016.233, 865.1556
1016.715, 854.5280
1017.197, 843.3399
1017.679, 831.7211
1018.162, 819.7302
1018.644, 807.6002
1019.126, 797.4224
1019.608, 790.7123
1020.090, 786.1075
1020.572, 781.2968
1021.054, 776.4516
1021.536, 772.7786
1022.018, 770.2512
1022.501, 767.6432
1022.983, 764.6143
1023.465, 761.9171
1023.947, 760.1861
1024.429, 758.7969
1024.911, 756.2346
1025.393, 753.9506
1025.875, 751.6470
1026.358, 748.2032
1026.840, 745.9820
1027.322, 742.4796
1027.804, 738.3937
1028.286, 734.2339
1028.768, 729.9232
1029.250, 725.1108
1029.732, 719.6193
1030.214, 715.2256
1030.697, 712.0942
1031.179, 709.7480
1031.661, 708.7814
1032.143, 706.7865
1032.625, 701.3976
1033.107, 693.9277
1033.589, 688.1656
1034.071, 684.4938
1034.553, 680.7364
1035.036, 676.2455
1035.518, 673.0847
1036.000, 672.4986
1036.482, 672.3702
1036.964, 671.3882
1037.446, 669.4509
1037.928, 666.1810
1038.410, 661.0777
1038.893, 656.3618
1039.375, 651.4803
1039.857, 647.9209
1040.339, 647.6205
1040.821, 647.1039
1041.303, 642.9750
1041.785, 636.7066
1042.267, 632.5930
1042.750, 631.1830
1043.232, 630.0834
1043.714, 630.0439
1044.196, 629.2673
1044.678, 626.8309
1045.160, 623.9942
1045.642, 621.3676
1046.124, 619.1116
1046.606, 617.7137
1047.089, 617.5839
1047.571, 616.6486
1048.053, 613.3474
1048.535, 611.0342
1049.017, 611.9415
1049.499, 612.9269
1049.981, 610.5626
1050.463, 606.7231
1050.945, 606.1780
1051.428, 610.2023
1051.910, 612.6078
1052.392, 611.6057
1052.874, 609.6810
1053.356, 606.8751
1053.838, 604.1470
1054.320, 602.1178
1054.802, 600.7487
1055.285, 599.9188
1055.767, 599.6432
1056.249, 599.5107
1056.731, 599.5067
1057.213, 599.5066
1057.695, 599.6869
1058.177, 599.6438
1058.659, 598.9941
1059.141, 597.9192
1059.624, 596.4547
1060.106, 594.6136
1060.588, 594.0794
1061.070, 596.6540
1061.552, 598.9451
1062.034, 600.1165
1062.516, 600.0154
1062.998, 597.2964
1063.480, 593.7700
1063.963, 592.5463
1064.445, 594.0527
1064.927, 595.8871
1065.409, 598.3658
1065.891, 599.3876
1066.373, 596.9937
1066.855, 593.8865
1067.337, 591.7183
1067.820, 590.4781
1068.302, 590.0403
1068.784, 590.2898
1069.266, 590.6600
1069.748, 591.3658
1070.230, 591.4052
1070.712, 589.4557
1071.194, 587.5626
1071.677, 587.6487
1072.159, 588.5615
1072.641, 588.5394
1073.123, 587.4619
1073.605, 586.2834
1074.087, 585.2053
1074.569, 584.4261
1075.051, 584.2359
1075.533, 584.1717
1076.016, 583.5536
1076.498, 583.0829
1076.980, 583.9904
1077.462, 586.0037
1077.944, 587.5653
1078.426, 588.2001
1078.908, 588.1837
1079.390, 586.6393
1079.873, 585.6172
1080.355, 586.7996
1080.837, 589.0275
1081.319, 591.0251
1081.801, 592.7486
1082.283, 594.5572
1082.765, 596.4855
1083.247, 598.9823
1083.729, 602.6106
1084.212, 606.4265
1084.694, 609.8483
1085.176, 613.2073
1085.658, 617.7161
1086.140, 622.2682
1086.622, 623.9435
1087.104, 621.9427
1087.586, 619.9922
1088.068, 620.2480
1088.551, 620.1807
1089.033, 618.4102
1089.515, 615.8895
1089.997, 613.3229
1090.479, 610.7074
1090.961, 607.8156
1091.443, 604.6279
1091.925, 601.6366
1092.408, 599.2373
1092.890, 596.7772
1093.372, 593.9736
1093.854, 591.0491
1094.336, 588.3129
1094.818, 585.4544
1095.300, 581.4287
1095.782, 576.5189
1096.265, 573.4360
1096.747, 573.8161
1097.229, 574.4280
1097.711, 574.5135
1098.193, 574.1655
1098.675, 573.2674
1099.157, 572.0848
1099.639, 570.8206
1100.121, 569.5423
1100.604, 568.2873
1101.086, 566.7091
1101.568, 566.2452
1102.050, 568.0721
1102.532, 570.0811
1103.014, 571.6861
1103.496, 572.7819
1103.978, 573.7059
1104.460, 574.0052
1104.943, 572.1992
1105.425, 567.5247
1105.907, 564.0928
1106.389, 562.9586
1106.871, 562.7055
1107.353, 563.3538
1107.835, 564.3175
1108.317, 565.5624
1108.800, 566.6961
1109.282, 566.9323
1109.764, 566.1798
1110.246, 565.7401
1110.728, 566.2094
1111.210, 566.2850
1111.692, 565.8771
1112.174, 564.9464
1112.656, 563.0501
1113.139, 560.8991
1113.621, 559.2298
1114.103, 558.0703
1114.585, 557.5402
1115.067, 557.9809
1115.549, 558.4377
1116.031, 558.8077
1116.513, 559.3318
1116.995, 559.8654
1117.478, 560.8240
1117.960, 562.8691
1118.442, 565.5682
1118.924, 567.6199
1119.406, 569.0914
1119.888, 569.5598
1120.370, 568.1658
1120.852, 567.5838
1121.335, 568.6085
1121.817, 570.1469
1122.299, 571.4396
1122.781, 572.8606
1123.263, 575.1890
1123.745, 578.4467
1124.227, 581.1628
1124.709, 583.0286
1125.192, 585.3929
1125.674, 588.3648
1126.156, 591.9466
1126.638, 596.1131
1127.120, 600.9347
1127.602, 606.4573
1128.084, 612.7324
1128.566, 620.3800
1129.048, 629.7566
1129.531, 637.6336
1130.013, 644.0928
1130.495, 647.7149
1130.977, 648.0705
1131.459, 645.1157
1131.941, 638.4562
1132.423, 629.6593
1132.905, 622.2595
1133.387, 616.1088
1133.870, 608.1235
1134.352, 598.4157
1134.834, 590.4714
1135.316, 584.9792
1135.798, 581.1484
1136.280, 578.5861
1136.762, 576.9387
1137.244, 575.9318
1137.727, 575.2892
1138.209, 573.7615
1138.691, 571.8378
1139.173, 571.7122
1139.655, 573.4526
1140.137, 576.3460
1140.619, 580.0066
1141.101, 583.0446
1141.583, 584.2307
1142.066, 584.5446
1142.548, 585.4668
1143.030, 586.6215
1143.512, 587.6270
1143.994, 588.1074
1144.476, 586.8331
1144.958, 583.9583
1145.440, 581.3688
1145.922, 580.0472
1146.405, 578.5974
1146.887, 576.1052
1147.369, 572.4162
1147.851, 566.7406
1148.333, 560.1354
1148.815, 553.7891
1149.297, 548.0790
1149.779, 543.2129
1150.262, 539.3401
1150.744, 536.9988
1151.226, 536.8439
1151.708, 537.7957
1152.190, 540.5949
1152.672, 542.7820
1153.154, 541.5255
1153.636, 538.7408
1154.119, 537.2180
1154.601, 537.0985
1155.083, 537.1172
1155.565, 537.0660
1156.047, 536.6164
1156.529, 535.6544
1157.011, 534.2764
1157.493, 532.0373
1157.975, 529.8484
1158.458, 528.2768
1158.940, 527.3995
1159.422, 527.5532
1159.904, 528.8951
1160.386, 529.2535
1160.868, 527.5940
1161.350, 526.2487
1161.832, 525.4596
1162.314, 525.0344
1162.797, 525.0751
1163.279, 525.2877
1163.761, 525.5410
1164.243, 525.6834
1164.725, 524.8959
1165.207, 522.6575
1165.689, 521.3648
1166.171, 521.3297
1166.654, 521.2847
1167.136, 520.8206
1167.618, 520.6739
1168.100, 521.4466
1168.582, 522.5374
1169.064, 522.8366
1169.546, 522.4931
1170.028, 523.1536
1170.510, 524.8710
1170.993, 524.9564
1171.475, 523.0948
1171.957, 521.4622
1172.439, 520.8619
1172.921, 520.8748
1173.403, 521.1830
1173.885, 521.6075
1174.367, 522.1343
1174.849, 522.4095
1175.332, 520.4206
1175.814, 517.0623
1176.296, 516.2933
1176.778, 518.3455
1177.260, 520.1196
1177.742, 520.1222
1178.224, 519.5364
1178.706, 519.4168
1179.189, 519.4436
1179.671, 519.0848
1180.153, 518.6873
1180.635, 518.9873
1181.117, 519.6113
1181.599, 519.4558
1182.081, 518.5037
1182.563, 518.1716
1183.046, 519.5397
1183.528, 520.2299
1184.010, 517.6873
1184.492, 515.3212
1184.974, 516.1038
1185.456, 517.7149
1185.938, 517.6863
1186.420, 516.3860
1186.902, 514.9949
1187.385, 513.6593
1187.867, 513.3226
1188.349, 515.0750
1188.831, 516.4647
1189.313, 516.8007
1189.795, 516.9630
1190.277, 517.5210
1190.759, 517.9589
1191.241, 517.3992
1191.724, 516.3168
1192.206, 516.7520
1192.688, 516.9514
1193.170, 516.9426
1193.652, 518.7282
1194.134, 518.0934
1194.616, 519.4610
1195.098, 521.0709
1195.581, 522.0892
1196.063, 522.3490
1196.545, 521.5090
1197.027, 519.8369
1197.509, 518.2713
1197.991, 516.8589
1198.473, 516.7723
1198.955, 517.9123
1199.438, 517.8599
1199.920, 516.0508
1200.402, 514.3524
1200.884, 514.0075
1201.366, 514.4076
1201.848, 515.0538
1202.330, 515.6740
1202.812, 515.8055
1203.294, 515.4833
1203.776, 514.5018
1204.259, 513.1854
1204.741, 512.2643
1205.223, 512.0036
1205.705, 512.6379
1206.187, 514.8572
1206.669, 516.5344
1207.151, 515.4172
1207.633, 514.0339
1208.116, 514.5818
1208.598, 515.8315
1209.080, 516.5984
1209.562, 516.6613
1210.044, 515.6215
1210.526, 513.2592
1211.008, 511.9200
1211.490, 513.1829
1211.973, 513.7634
1212.455, 512.2993
1212.937, 510.9746
1213.419, 511.0350
1213.901, 511.3511
1214.383, 510.8817
1214.865, 509.7199
1215.347, 508.0060
1215.829, 507.7701
1216.312, 507.2874
1216.794, 506.5282
1217.276, 507.4332
1217.758, 506.6476
1218.240, 506.8080
1218.722, 509.4168
1219.204, 512.0782
1219.686, 512.1335
1220.168, 510.2415
1220.651, 507.3763
1221.133, 504.0951
1221.615, 502.6680
1222.097, 502.9865
1222.579, 504.7473
1223.061, 507.4095
1223.543, 508.8419
1224.025, 508.0360
1224.508, 506.3445
1224.990, 504.0671
1225.472, 502.5643
1225.954, 504.4130
1226.436, 506.7524
1226.918, 506.0697
1227.400, 503.5940
1227.882, 501.5778
1228.365, 500.2917
1228.847, 498.9370
1229.329, 497.2070
1229.811, 495.7918
1230.293, 494.7515
1230.775, 494.2228
1231.257, 494.4593
1231.739, 494.9956
1232.221, 496.1636
1232.703, 496.9923
1233.186, 495.7963
1233.668, 493.0564
1234.150, 492.0929
1234.632, 493.5365
1235.114, 494.3203
1235.596, 494.3959
1236.078, 493.7331
1236.560, 492.1212
1237.043, 491.3622
1237.525, 492.6435
1238.007, 494.2980
1238.489, 494.1492
1238.971, 492.7394
1239.453, 491.2496
1239.935, 489.8332
1240.417, 489.0438
1240.900, 488.8523
1241.382, 489.0954
1241.864, 489.6765
1242.346, 490.4028
1242.828, 491.1852
1243.310, 491.9823
1243.792, 492.9704
1244.274, 493.7129
1244.756, 493.9584
1245.239, 493.7032
1245.721, 492.6348
1246.203, 491.2495
1246.685, 490.0195
1247.167, 489.1581
1247.649, 489.4274
1248.131, 491.7146
1248.613, 492.5941
1249.095, 490.2665
1249.578, 488.6303
1250.060, 488.8302
1250.542, 489.0463
1251.024, 488.1017
1251.506, 487.1708
1251.988, 487.7972
1252.470, 489.4873
1252.952, 490.3299
1253.435, 490.3112
1253.917, 490.0198
1254.399, 489.4799
1254.881, 489.0731
1255.363, 488.8978
1255.845, 489.3838
1256.327, 490.7042
1256.809, 491.7827
1257.292, 491.4342
1257.774, 490.6880
1258.256, 490.9659
1258.738, 491.7334
1259.220, 492.1779
1259.702, 492.5751
1260.184, 493.3999
1260.666, 494.7128
1261.148, 496.7137
1261.630, 499.4681
1262.113, 501.1627
1262.595, 500.7786
1263.077, 499.7828
1263.559, 498.1763
1264.041, 496.5624
1264.523, 494.6313
1265.005, 493.4351
1265.487, 494.4001
1265.970, 493.7852
1266.452, 494.3094
1266.934, 495.4218
1267.416, 495.6433
1267.898, 497.7851
1268.380, 498.8489
1268.862, 498.5294
1269.344, 497.3569
1269.827, 495.4879
1270.309, 493.7185
1270.791, 492.5497
1271.273, 492.4266
1271.755, 494.8689
1272.237, 498.1333
1272.719, 499.1859
1273.201, 498.5809
1273.683, 496.3052
1274.166, 493.5851
1274.648, 493.0826
1275.130, 494.9476
1275.612, 497.0713
1276.094, 499.0302
1276.576, 499.5956
1277.058, 496.4211
1277.540, 494.3275
1278.022, 496.1617
1278.505, 498.5826
1278.987, 499.3178
1279.469, 499.5284
1279.951, 500.9568
1280.433, 500.1463
1280.915, 502.4774
1281.397, 499.1449
1281.879, 497.4590
1282.362, 497.5709
1282.844, 497.5852
1283.326, 497.1918
1283.808, 496.8508
1284.290, 496.7136
1284.772, 496.0851
1285.254, 494.1621
1285.736, 490.9307
##END=



