##NAMES=Hydrotalcite
##RRUFFID=R050457
##IDEAL CHEMISTRY=Mg_6_Al_2_CO_3_(OH)_16_(H_2_O)_4_
##LOCALITY=Snarum, Norway
##OWNER=RRUFF
##SOURCE=University of Arizona Mineral Museum
##DESCRIPTION=Pearly-white foliated mass
##STATUS=The identification of this mineral has been confirmed by X-ray diffraction and chemical analysis
##URL=rruff.info/R050457
##MEASURED CHEMISTRY=Mg_6.00_(Al_1.60_Fe^3+^_0.40_)_Σ=2_(CO_3_)(OH)_16_·4H_2_O
117.8891, 39.47248
118.3712, 39.47742
118.8533, 39.79230
119.3354, 40.18280
119.8175, 40.42154
120.2996, 40.52119
120.7818, 40.59140
121.2639, 40.73004
121.7460, 40.94198
122.2281, 41.08411
122.7102, 41.12109
123.1923, 41.07875
123.6745, 40.91327
124.1566, 40.63047
124.6387, 40.34789
125.1208, 40.24681
125.6029, 40.42971
126.0850, 40.58728
126.5672, 40.73016
127.0493, 40.82446
127.5314, 40.82121
128.0135, 40.70398
128.4956, 40.52218
128.9777, 40.41257
129.4599, 40.47887
129.9420, 40.50808
130.4241, 40.49476
130.9062, 40.43390
131.3883, 40.31614
131.8705, 40.13227
132.3526, 39.89079
132.8347, 39.63806
133.3168, 39.29451
133.7989, 39.01747
134.2810, 38.87825
134.7632, 38.86683
135.2453, 38.93806
135.7274, 39.12804
136.2095, 39.36666
136.6916, 39.43117
137.1737, 39.18420
137.6559, 38.83469
138.1380, 38.58982
138.6201, 38.46257
139.1022, 38.37849
139.5843, 38.30632
140.0664, 38.24187
140.5486, 38.18213
141.0307, 38.13089
141.5128, 38.08256
141.9949, 38.02649
142.4770, 37.98505
142.9591, 37.89532
143.4413, 37.72593
143.9234, 37.49807
144.4055, 37.24073
144.8876, 36.94359
145.3697, 36.60557
145.8518, 36.43795
146.3340, 36.74314
146.8161, 36.95988
147.2982, 36.89923
147.7803, 36.58768
148.2624, 36.14828
148.7445, 35.66963
149.2267, 35.08584
149.7088, 34.78343
150.1909, 34.90823
150.6730, 35.12801
151.1551, 35.32541
151.6372, 35.45466
152.1194, 35.45219
152.6015, 35.21436
153.0836, 34.58630
153.5657, 34.14757
154.0478, 34.09394
154.5299, 34.13575
155.0121, 33.97501
155.4942, 33.53126
155.9763, 32.94856
156.4584, 32.38813
156.9405, 31.82153
157.4227, 31.42208
157.9048, 31.36335
158.3869, 31.50011
158.8690, 31.51498
159.3511, 31.28750
159.8332, 30.96842
160.3154, 30.73700
160.7975, 30.59190
161.2796, 30.48527
161.7617, 30.42913
162.2438, 30.41318
162.7259, 30.30270
163.2081, 29.97387
163.6902, 29.60986
164.1723, 29.34764
164.6544, 29.19831
165.1365, 29.10071
165.6186, 28.99931
166.1008, 28.89966
166.5829, 28.77235
167.0650, 28.58047
167.5471, 28.38113
168.0292, 28.21781
168.5113, 28.09957
168.9935, 27.99412
169.4756, 27.84572
169.9577, 27.62612
170.4398, 27.41419
170.9219, 27.18822
171.4040, 26.98567
171.8862, 26.84709
172.3683, 26.78559
172.8504, 26.77079
173.3325, 26.73019
173.8146, 26.64227
174.2967, 26.55110
174.7789, 26.50001
175.2610, 26.43292
175.7431, 26.25960
176.2252, 25.93180
176.7073, 25.51984
177.1894, 25.26235
177.6716, 25.23706
178.1537, 25.24737
178.6358, 25.29464
179.1179, 25.35132
179.6000, 25.36202
180.0821, 25.29455
180.5643, 25.16812
181.0464, 25.04222
181.5285, 24.89119
182.0106, 24.77353
182.4927, 24.71079
182.9749, 24.70250
183.4570, 24.76284
183.9391, 24.96534
184.4212, 25.19405
184.9033, 25.20791
185.3854, 24.88526
185.8676, 24.54261
186.3497, 24.50523
186.8318, 24.78508
187.3139, 24.94476
187.7960, 24.65534
188.2781, 24.19544
188.7603, 23.86421
189.2424, 23.73240
189.7245, 23.70935
190.2066, 23.69909
190.6887, 23.71549
191.1708, 23.69167
191.6530, 23.52601
192.1351, 23.34592
192.6172, 23.28711
193.0993, 23.41525
193.5814, 23.61531
194.0635, 23.63593
194.5457, 23.34669
195.0278, 23.13747
195.5099, 23.13144
195.9920, 23.21390
196.4741, 23.28222
196.9562, 23.29172
197.4384, 23.25242
197.9205, 23.19048
198.4026, 23.08237
198.8847, 22.98283
199.3668, 22.87609
199.8489, 22.78844
200.3311, 22.76507
200.8132, 22.83141
201.2953, 22.95043
201.7774, 22.97467
202.2595, 22.78210
202.7416, 22.62452
203.2238, 22.55788
203.7059, 22.53412
204.1880, 22.46729
204.6701, 22.30550
205.1522, 22.09103
205.6344, 22.02037
206.1165, 22.26327
206.5986, 22.43897
207.0807, 22.43331
207.5628, 22.30642
208.0449, 22.17157
208.5271, 22.08818
209.0092, 22.03891
209.4913, 21.95121
209.9734, 21.73484
210.4555, 21.59237
210.9376, 21.67290
211.4198, 21.89588
211.9019, 22.02449
212.3840, 21.90548
212.8661, 21.64319
213.3482, 21.53757
213.8303, 21.65907
214.3125, 21.80891
214.7946, 21.90645
215.2767, 21.94956
215.7588, 21.91738
216.2409, 21.76888
216.7230, 21.55687
217.2052, 21.37467
217.6873, 21.21210
218.1694, 21.10654
218.6515, 21.10720
219.1336, 21.21048
219.6157, 21.32307
220.0979, 21.43490
220.5800, 21.52115
221.0621, 21.55721
221.5442, 21.53753
222.0263, 21.47858
222.5084, 21.36453
222.9906, 21.18296
223.4727, 21.07945
223.9548, 21.21023
224.4369, 21.37171
224.9190, 21.38493
225.4011, 21.20985
225.8833, 21.01681
226.3654, 21.05159
226.8475, 21.38801
227.3296, 21.59341
227.8117, 21.46736
228.2938, 21.25076
228.7760, 21.04999
229.2581, 20.89438
229.7402, 20.81517
230.2223, 20.88980
230.7044, 21.20298
231.1866, 21.39710
231.6687, 21.35507
232.1508, 21.24879
232.6329, 21.15484
233.1150, 21.09808
233.5971, 21.09063
234.0793, 21.17490
234.5614, 21.44578
235.0435, 21.56571
235.5256, 21.46641
236.0077, 21.28523
236.4898, 21.07149
236.9720, 20.85106
237.4541, 20.65644
237.9362, 20.53271
238.4183, 20.49501
238.9004, 20.50235
239.3825, 20.59667
239.8647, 20.69611
240.3468, 20.72916
240.8289, 20.69650
241.3110, 20.67139
241.7931, 20.75739
242.2752, 21.03702
242.7574, 21.17784
243.2395, 21.11438
243.7216, 20.98416
244.2037, 20.82649
244.6858, 20.66968
245.1679, 20.58643
245.6501, 20.67689
246.1322, 21.01876
246.6143, 21.20880
247.0964, 21.15133
247.5785, 21.03249
248.0606, 20.98042
248.5428, 21.00220
249.0249, 21.01880
249.5070, 20.95399
249.9891, 20.79310
250.4712, 20.61882
250.9533, 20.38824
251.4355, 20.17752
251.9176, 20.04382
252.3997, 19.98618
252.8818, 19.95503
253.3639, 19.90163
253.8460, 19.83059
254.3282, 19.83953
254.8103, 20.02700
255.2924, 20.21496
255.7745, 20.25169
256.2566, 20.14801
256.7387, 20.06320
257.2209, 20.13893
257.7030, 20.33492
258.1851, 20.38812
258.6672, 20.20393
259.1493, 19.95386
259.6314, 19.71246
260.1136, 19.48855
260.5957, 19.35113
261.0778, 19.36884
261.5599, 19.50222
262.0420, 19.59809
262.5241, 19.61770
263.0063, 19.64412
263.4884, 19.78518
263.9705, 20.01867
264.4526, 20.13990
264.9347, 19.99915
265.4168, 19.71498
265.8990, 19.52789
266.3811, 19.46023
266.8632, 19.44429
267.3453, 19.45315
267.8275, 19.48183
268.3096, 19.48648
268.7917, 19.42960
269.2738, 19.36127
269.7559, 19.34879
270.2380, 19.40083
270.7202, 19.46737
271.2023, 19.52366
271.6844, 19.56859
272.1665, 19.59620
272.6486, 19.61337
273.1307, 19.59903
273.6129, 19.51296
274.0950, 19.35614
274.5771, 19.24109
275.0592, 19.27649
275.5413, 19.43231
276.0234, 19.52462
276.5056, 19.47503
276.9877, 19.42508
277.4698, 19.52145
277.9519, 19.72960
278.4340, 19.87600
278.9161, 19.81591
279.3983, 19.59655
279.8804, 19.42273
280.3625, 19.29409
280.8446, 19.23855
281.3267, 19.30407
281.8088, 19.44655
282.2910, 19.56327
282.7731, 19.59303
283.2552, 19.55458
283.7373, 19.49743
284.2194, 19.38373
284.7015, 19.32677
285.1837, 19.43542
285.6658, 19.61633
286.1479, 19.72341
286.6300, 19.66452
287.1121, 19.51681
287.5942, 19.45298
288.0764, 19.49111
288.5585, 19.57528
289.0406, 19.75920
289.5227, 19.94486
290.0048, 20.01537
290.4869, 19.91824
290.9691, 19.73346
291.4512, 19.58387
291.9333, 19.46247
292.4154, 19.40198
292.8975, 19.46382
293.3796, 19.55755
293.8618, 19.62337
294.3439, 19.64595
294.8260, 19.63121
295.3081, 19.56358
295.7902, 19.41655
296.2723, 19.34340
296.7545, 19.45222
297.2366, 19.58512
297.7187, 19.63980
298.2008, 19.61365
298.6829, 19.59215
299.1650, 19.68930
299.6472, 19.92681
300.1293, 20.07867
300.6114, 20.10158
301.0935, 20.05421
301.5756, 19.91198
302.0577, 19.70955
302.5399, 19.54170
303.0220, 19.50766
303.5041, 19.59897
303.9862, 19.61548
304.4683, 19.46013
304.9504, 19.34191
305.4326, 19.38334
305.9147, 19.51081
306.3968, 19.58063
306.8789, 19.48949
307.3610, 19.28361
307.8431, 19.16854
308.3253, 19.21122
308.8074, 19.24323
309.2895, 19.19587
309.7716, 19.12023
310.2537, 19.08729
310.7358, 19.13366
311.2180, 19.21045
311.7001, 19.19936
312.1822, 19.04335
312.6643, 18.92506
313.1464, 18.91729
313.6285, 18.93390
314.1107, 18.89388
314.5928, 18.77740
315.0749, 18.64790
315.5570, 18.59643
316.0392, 18.63714
316.5213, 18.70559
317.0034, 18.82821
317.4855, 18.95199
317.9676, 19.05955
318.4497, 19.14340
318.9319, 19.19080
319.4140, 19.17718
319.8961, 19.09494
320.3782, 19.02874
320.8603, 19.00968
321.3424, 18.97772
321.8246, 18.87895
322.3067, 18.74568
322.7888, 18.65655
323.2709, 18.67622
323.7530, 18.79137
324.2351, 18.91136
324.7173, 19.10122
325.1994, 19.19635
325.6815, 19.08311
326.1636, 18.87241
326.6457, 18.72472
327.1278, 18.72893
327.6100, 18.81422
328.0921, 18.79107
328.5742, 18.56677
329.0563, 18.43771
329.5384, 18.56848
330.0205, 18.75975
330.5027, 18.82557
330.9848, 18.71343
331.4669, 18.54348
331.9490, 18.49092
332.4311, 18.58783
332.9132, 18.66128
333.3954, 18.68869
333.8775, 18.68326
334.3596, 18.61434
334.8417, 18.49820
335.3238, 18.42304
335.8059, 18.50958
336.2881, 18.76163
336.7702, 18.91545
337.2523, 18.93502
337.7344, 18.87882
338.2165, 18.72745
338.6986, 18.52482
339.1808, 18.36793
339.6629, 18.34011
340.1450, 18.39736
340.6271, 18.35960
341.1092, 18.15188
341.5913, 17.99545
342.0735, 18.01798
342.5556, 18.11812
343.0377, 18.16979
343.5198, 18.11804
344.0019, 18.02491
344.4840, 17.99468
344.9662, 18.04325
345.4483, 18.08354
345.9304, 18.05924
346.4125, 18.03524
346.8946, 18.08151
347.3767, 18.20807
347.8589, 18.30919
348.3410, 18.23830
348.8231, 18.00205
349.3052, 17.88506
349.7873, 18.00243
350.2694, 18.16708
350.7516, 18.28730
351.2337, 18.35221
351.7158, 18.32793
352.1979, 18.13412
352.6800, 17.83102
353.1621, 17.61159
353.6443, 17.47685
354.1264, 17.43412
354.6085, 17.53520
355.0906, 17.71758
355.5727, 17.89736
356.0548, 18.08584
356.5370, 18.21369
357.0191, 18.13465
357.5012, 17.82408
357.9833, 17.59016
358.4654, 17.63749
358.9475, 17.78403
359.4297, 17.79915
359.9118, 17.63697
360.3939, 17.46877
360.8760, 17.42412
361.3581, 17.48447
361.8402, 17.55847
362.3224, 17.63433
362.8045, 17.70356
363.2866, 17.77181
363.7687, 17.83646
364.2508, 17.85144
364.7329, 17.75198
365.2151, 17.60567
365.6972, 17.53230
366.1793, 17.55008
366.6614, 17.58806
367.1436, 17.58246
367.6257, 17.55527
368.1078, 17.57566
368.5899, 17.73779
369.0720, 17.87997
369.5541, 17.83367
370.0363, 17.62743
370.5184, 17.44999
371.0005, 17.38930
371.4826, 17.41368
371.9647, 17.44852
372.4468, 17.49832
372.9290, 17.54565
373.4111, 17.59436
373.8932, 17.63412
374.3753, 17.63638
374.8574, 17.58908
375.3395, 17.53350
375.8217, 17.53590
376.3038, 17.60946
376.7859, 17.61563
377.2680, 17.46482
377.7501, 17.29322
378.2322, 17.21035
378.7144, 17.22257
379.1965, 17.29300
379.6786, 17.40668
380.1607, 17.55745
380.6428, 17.67646
381.1249, 17.79687
381.6071, 17.85492
382.0892, 17.80038
382.5713, 17.67069
383.0534, 17.52357
383.5355, 17.37909
384.0176, 17.25991
384.4998, 17.21892
384.9819, 17.37042
385.4640, 17.41031
385.9461, 17.21592
386.4282, 16.97956
386.9103, 16.87558
387.3925, 16.92313
387.8746, 17.01990
388.3567, 17.05707
388.8388, 17.02311
389.3209, 17.01285
389.8030, 17.06357
390.2852, 17.09621
390.7673, 17.06468
391.2494, 16.99297
391.7315, 16.92814
392.2136, 16.89683
392.6957, 16.89689
393.1779, 16.92086
393.6600, 16.97229
394.1421, 17.04637
394.6242, 17.23590
395.1063, 17.39416
395.5884, 17.34125
396.0706, 17.05294
396.5527, 16.71427
397.0348, 16.58316
397.5169, 16.72585
397.9990, 16.81447
398.4811, 16.84404
398.9633, 16.82040
399.4454, 16.69798
399.9275, 16.51954
400.4096, 16.38558
400.8917, 16.37896
401.3738, 16.46391
401.8560, 16.47503
402.3381, 16.34256
402.8202, 16.27126
403.3023, 16.38600
403.7844, 16.55552
404.2665, 16.63869
404.7487, 16.59063
405.2308, 16.49551
405.7129, 16.46468
406.1950, 16.50371
406.6771, 16.49410
407.1592, 16.34498
407.6414, 16.21608
408.1235, 16.25746
408.6056, 16.43748
409.0877, 16.57562
409.5698, 16.52546
410.0519, 16.36629
410.5341, 16.29084
411.0162, 16.32158
411.4983, 16.36696
411.9804, 16.36303
412.4625, 16.33967
412.9446, 16.35482
413.4268, 16.45580
413.9089, 16.53221
414.3910, 16.44462
414.8731, 16.23715
415.3553, 16.13571
415.8374, 16.24338
416.3195, 16.43533
416.8016, 16.54853
417.2837, 16.59301
417.7658, 16.54841
418.2480, 16.29736
418.7301, 16.01346
419.2122, 15.92981
419.6943, 16.06221
420.1764, 16.20085
420.6585, 16.16566
421.1407, 15.97992
421.6228, 15.91846
422.1049, 16.06668
422.5870, 16.23099
423.0691, 16.37579
423.5512, 16.47746
424.0334, 16.47164
424.5155, 16.32726
424.9976, 16.13690
425.4797, 16.07543
425.9618, 16.21626
426.4439, 16.35115
426.9261, 16.53074
427.4082, 16.66706
427.8903, 16.65204
428.3724, 16.51638
428.8545, 16.41582
429.3366, 16.49091
429.8188, 16.72989
430.3009, 16.86068
430.7830, 16.70818
431.2651, 16.63977
431.7472, 16.81890
432.2293, 17.07269
432.7115, 17.16512
433.1936, 17.01319
433.6757, 16.77370
434.1578, 16.72494
434.6399, 16.94748
435.1220, 17.07439
435.6042, 16.97096
436.0863, 16.85587
436.5684, 16.83474
437.0505, 16.89554
437.5326, 16.96941
438.0147, 17.01363
438.4969, 17.03355
438.9790, 17.04861
439.4611, 17.06142
439.9432, 17.06256
440.4253, 17.01209
440.9074, 16.96437
441.3896, 16.98927
441.8717, 17.11167
442.3538, 17.24732
442.8359, 17.30961
443.3180, 17.31401
443.8001, 17.35362
444.2823, 17.46078
444.7644, 17.58104
445.2465, 17.68539
445.7286, 17.76860
446.2107, 17.77717
446.6928, 17.59407
447.1750, 17.39869
447.6571, 17.40896
448.1392, 17.60600
448.6213, 17.77559
449.1034, 17.78731
449.5855, 17.71216
450.0677, 17.76829
450.5498, 18.07237
451.0319, 18.24215
451.5140, 18.08479
451.9961, 17.78414
452.4782, 17.54470
452.9604, 17.41009
453.4425, 17.34974
453.9246, 17.33878
454.4067, 17.38165
454.8888, 17.43057
455.3709, 17.50595
455.8531, 17.56426
456.3352, 17.57160
456.8173, 17.55484
457.2994, 17.56716
457.7815, 17.63349
458.2636, 17.71687
458.7458, 17.72738
459.2279, 17.57751
459.7100, 17.54227
460.1921, 17.75134
460.6742, 17.95933
461.1563, 18.01920
461.6385, 17.94054
462.1206, 17.81755
462.6027, 17.71597
463.0848, 17.63136
463.5669, 17.52724
464.0491, 17.34775
464.5312, 17.26713
465.0133, 17.43271
465.4954, 17.67422
465.9775, 17.82663
466.4597, 17.85148
466.9418, 17.80972
467.4239, 17.71610
467.9060, 17.58877
468.3881, 17.56164
468.8702, 17.69329
469.3524, 17.85159
469.8345, 17.97093
470.3166, 18.03655
470.7987, 17.97547
471.2808, 17.61730
471.7629, 17.24407
472.2451, 17.14804
472.7272, 17.27931
473.2093, 17.38285
473.6914, 17.35233
474.1735, 17.23953
474.6556, 17.14138
475.1378, 17.07039
475.6199, 16.97093
476.1020, 16.75978
476.5841, 16.56708
477.0662, 16.56006
477.5483, 16.71478
478.0305, 16.81938
478.5126, 16.70029
478.9947, 16.39013
479.4768, 16.18219
479.9589, 16.15247
480.4410, 16.13172
480.9232, 16.11644
481.4053, 16.09054
481.8874, 16.01858
482.3695, 15.90133
482.8516, 15.80411
483.3337, 15.81788
483.8159, 15.95989
484.2980, 16.06870
484.7801, 16.18586
485.2622, 16.21476
485.7443, 16.02271
486.2264, 15.74662
486.7086, 15.61953
487.1907, 15.76222
487.6728, 16.00433
488.1549, 16.08598
488.6370, 15.99481
489.1191, 15.94942
489.6013, 16.04361
490.0834, 16.14585
490.5655, 16.13195
491.0476, 16.01653
491.5297, 15.89967
492.0118, 15.80870
492.4940, 15.74511
492.9761, 15.71626
493.4582, 15.72106
493.9403, 15.74735
494.4224, 15.80639
494.9045, 15.86724
495.3867, 15.83699
495.8688, 15.66223
496.3509, 15.54492
496.8330, 15.54153
497.3151, 15.61266
497.7972, 15.75270
498.2794, 15.94211
498.7615, 16.09329
499.2436, 16.12394
499.7257, 16.04177
500.2078, 15.98987
500.6899, 16.01684
501.1721, 16.01505
501.6542, 15.91976
502.1363, 15.81081
502.6184, 15.77146
503.1005, 15.82414
503.5826, 15.93903
504.0648, 16.10623
504.5469, 16.34164
505.0290, 16.46524
505.5111, 16.38682
505.9932, 16.30529
506.4753, 16.29608
506.9575, 16.33578
507.4396, 16.38247
507.9217, 16.41699
508.4038, 16.46641
508.8859, 16.57842
509.3680, 16.74864
509.8502, 16.89899
510.3323, 17.02762
510.8144, 17.10749
511.2965, 17.05754
511.7786, 16.91146
512.2607, 16.87167
512.7429, 17.09280
513.2250, 17.35690
513.7071, 17.44971
514.1892, 17.41148
514.6713, 17.44698
515.1534, 17.66615
515.6356, 17.95095
516.1177, 18.05765
516.5998, 17.85212
517.0819, 17.77178
517.5640, 17.92822
518.0461, 18.13111
518.5283, 18.23384
519.0104, 18.26074
519.4925, 18.33365
519.9746, 18.53861
520.4567, 18.83388
520.9388, 19.06452
521.4210, 19.20895
521.9031, 19.32524
522.3852, 19.38766
522.8673, 19.45286
523.3494, 19.57712
523.8315, 19.75157
524.3137, 19.90327
524.7958, 19.90854
525.2779, 19.85473
525.7600, 20.12444
526.2421, 20.84893
526.7242, 21.39517
527.2064, 21.30121
527.6885, 20.97114
528.1706, 20.93377
528.6527, 21.27295
529.1348, 21.63775
529.6169, 21.78861
530.0991, 21.87249
530.5812, 22.00051
531.0633, 22.39330
531.5454, 22.65333
532.0275, 22.78773
532.5096, 22.42021
532.9918, 22.70083
533.4739, 22.72169
533.9560, 22.73190
534.4381, 23.10371
534.9202, 22.80921
535.4023, 23.17528
535.8845, 23.27768
536.3666, 23.50074
536.8487, 23.46248
537.3308, 23.50493
537.8129, 23.80880
538.2951, 23.50300
538.7772, 23.49282
539.2593, 23.67216
539.7415, 23.92076
540.2236, 24.12583
540.7057, 24.25523
541.1878, 24.30896
541.6699, 24.23214
542.1520, 24.05593
542.6342, 24.01487
543.1163, 24.17006
543.5984, 24.35218
544.0805, 24.51614
544.5626, 24.61752
545.0447, 24.54631
545.5269, 24.20309
546.0090, 23.84752
546.4911, 23.64327
546.9732, 23.52762
547.4553, 23.38740
547.9374, 23.19690
548.4196, 22.97748
548.9017, 22.75243
549.3838, 22.52192
549.8659, 22.23831
550.3480, 21.88749
550.8301, 21.50953
551.3123, 21.04864
551.7944, 20.59760
552.2765, 20.32026
552.7586, 20.23660
553.2407, 20.13612
553.7228, 19.71667
554.2050, 18.94760
554.6871, 18.43167
555.1692, 18.31289
555.6513, 18.25457
556.1334, 18.14791
556.6155, 18.01908
557.0977, 17.91619
557.5798, 17.86051
558.0619, 17.76485
558.5440, 17.51655
559.0261, 17.15886
559.5082, 16.84722
559.9904, 16.60596
560.4725, 16.39993
560.9546, 16.19596
561.4367, 16.00773
561.9188, 15.88200
562.4009, 15.84614
562.8831, 15.83982
563.3652, 15.90081
563.8473, 15.95347
564.3294, 15.85691
564.8115, 15.59724
565.2936, 15.33169
565.7758, 15.22014
566.2579, 15.26279
566.7400, 15.30132
567.2221, 15.43925
567.7042, 15.43990
568.1863, 15.11318
568.6685, 14.71465
569.1506, 14.52265
569.6327, 14.58779
570.1148, 14.72172
570.5969, 14.74127
571.0790, 14.66727
571.5612, 14.64845
572.0433, 14.72869
572.5254, 14.73763
573.0075, 14.48707
573.4896, 14.15679
573.9717, 14.02258
574.4539, 14.14678
574.9360, 14.32029
575.4181, 14.53071
575.9002, 14.69215
576.3823, 14.60858
576.8644, 14.28937
577.3466, 14.06235
577.8287, 14.19342
578.3108, 14.58165
578.7929, 14.72911
579.2750, 14.36132
579.7571, 14.10759
580.2393, 14.08534
580.7214, 14.12529
581.2035, 14.08446
581.6856, 13.96732
582.1677, 13.87803
582.6498, 13.90238
583.1320, 14.00636
583.6141, 14.07170
584.0962, 14.08810
584.5783, 14.10304
585.0604, 14.15984
585.5425, 14.19446
586.0247, 14.12004
586.5068, 13.94826
586.9889, 13.83755
587.4710, 13.93241
587.9531, 14.07434
588.4352, 14.04471
588.9174, 13.87480
589.3995, 13.77218
589.8816, 13.83523
590.3637, 13.98482
590.8458, 14.08917
591.3279, 14.14014
591.8101, 14.16061
592.2922, 14.14198
592.7743, 14.10204
593.2564, 14.04936
593.7385, 13.98262
594.2206, 13.87600
594.7028, 13.71699
595.1849, 13.58245
595.6670, 13.63525
596.1491, 13.91342
596.6312, 14.09394
597.1133, 14.12053
597.5955, 14.09064
598.0776, 14.04653
598.5597, 13.99187
599.0418, 13.92469
599.5239, 13.81863
600.0060, 13.75899
600.4882, 13.87131
600.9703, 14.07576
601.4524, 14.15990
601.9345, 14.07900
602.4166, 13.97202
602.8987, 13.96944
603.3809, 14.05906
603.8630, 14.05963
604.3451, 13.85153
604.8272, 13.72030
605.3093, 13.78108
605.7914, 13.90429
606.2736, 13.97346
606.7557, 13.96770
607.2378, 13.91521
607.7199, 13.81708
608.2020, 13.70202
608.6841, 13.74536
609.1663, 14.04163
609.6484, 14.22183
610.1305, 14.06284
610.6126, 13.82214
611.0947, 13.73065
611.5768, 13.79044
612.0590, 13.83260
612.5411, 13.74737
613.0232, 13.63393
613.5053, 13.59840
613.9874, 13.63603
614.4695, 13.71831
614.9517, 13.84220
615.4338, 13.96993
615.9159, 14.03922
616.3980, 14.03171
616.8801, 14.02463
617.3622, 13.97615
617.8444, 13.97196
618.3265, 14.14365
618.8086, 14.35365
619.2907, 14.36287
619.7728, 14.08755
620.2549, 13.72123
620.7371, 13.47445
621.2192, 13.34805
621.7013, 13.39115
622.1834, 13.68266
622.6655, 13.97011
623.1476, 14.10756
623.6298, 14.14554
624.1119, 14.15694
624.5940, 14.14254
625.0761, 14.11950
625.5582, 14.08327
626.0403, 14.04950
626.5225, 14.04636
627.0046, 14.07051
627.4867, 14.08500
627.9688, 14.06398
628.4509, 14.02124
628.9330, 14.00412
629.4152, 14.04965
629.8973, 14.05257
630.3794, 13.93514
630.8615, 13.84875
631.3436, 13.92428
631.8257, 14.09967
632.3079, 14.21614
632.7900, 14.19940
633.2721, 14.08571
633.7542, 13.89361
634.2363, 13.63454
634.7184, 13.41019
635.2006, 13.23150
635.6827, 13.11537
636.1648, 13.07857
636.6469, 13.12411
637.1291, 13.23110
637.6112, 13.50237
638.0933, 13.70934
638.5754, 13.75969
639.0576, 13.71576
639.5397, 13.61919
640.0218, 13.49477
640.5039, 13.40246
640.9860, 13.40434
641.4681, 13.46525
641.9503, 13.37763
642.4324, 13.00054
642.9145, 12.82946
643.3966, 13.21980
643.8787, 13.65451
644.3608, 13.76562
644.8430, 13.59301
645.3251, 13.41891
645.8072, 13.34715
646.2893, 13.33708
646.7714, 13.36618
647.2535, 13.42404
647.7357, 13.48462
648.2178, 13.54227
648.6999, 13.57147
649.1820, 13.53255
649.6641, 13.41918
650.1462, 13.37028
650.6284, 13.48711
651.1105, 13.53877
651.5926, 13.37050
652.0747, 13.18132
652.5568, 13.20721
653.0389, 13.45516
653.5211, 13.70721
654.0032, 13.79904
654.4853, 13.75933
654.9674, 13.63219
655.4495, 13.40319
655.9316, 13.25355
656.4138, 13.26380
656.8959, 13.35594
657.3780, 13.44831
657.8601, 13.54122
658.3422, 13.60319
658.8243, 13.61066
659.3065, 13.60570
659.7886, 13.61921
660.2707, 13.63372
660.7528, 13.59525
661.2349, 13.49831
661.7170, 13.44090
662.1992, 13.56825
662.6813, 13.86500
663.1634, 13.94228
663.6455, 13.67150
664.1276, 13.43514
664.6097, 13.34571
665.0919, 13.35095
665.5740, 13.45784
666.0561, 13.65574
666.5382, 13.77060
667.0203, 13.65513
667.5024, 13.46967
667.9846, 13.37756
668.4667, 13.36442
668.9488, 13.36931
669.4309, 13.37196
669.9130, 13.35994
670.3951, 13.30530
670.8773, 13.19075
671.3594, 13.17525
671.8415, 13.36833
672.3236, 13.53392
672.8057, 13.66581
673.2878, 13.72088
673.7700, 13.59233
674.2521, 13.29335
674.7342, 13.06922
675.2163, 13.20265
675.6984, 13.50396
676.1805, 13.52362
676.6627, 13.27572
677.1448, 13.20737
677.6269, 13.55410
678.1090, 13.98709
678.5911, 14.02733
679.0732, 13.57868
679.5554, 13.26287
680.0375, 13.08356
680.5196, 13.02644
681.0017, 13.16917
681.4838, 13.39123
681.9659, 13.55798
682.4481, 13.63326
682.9302, 13.64546
683.4123, 13.59566
683.8944, 13.50894
684.3765, 13.49437
684.8586, 13.56476
685.3408, 13.63423
685.8229, 13.68416
686.3050, 13.70866
686.7871, 13.68361
687.2692, 13.61084
687.7513, 13.57255
688.2335, 13.61510
688.7156, 13.65883
689.1977, 13.63987
689.6798, 13.60205
690.1619, 13.63000
690.6440, 13.73558
691.1262, 13.83746
691.6083, 13.85148
692.0904, 13.78982
692.5725, 13.74248
693.0546, 13.72547
693.5367, 13.67441
694.0189, 13.52132
694.5010, 13.37113
694.9831, 13.31967
695.4652, 13.35989
695.9473, 13.42453
696.4294, 13.56979
696.9116, 13.65824
697.3937, 13.53720
697.8758, 13.30912
698.3579, 13.15320
698.8400, 13.11327
699.3221, 13.15461
699.8043, 13.26454
700.2864, 13.41921
700.7685, 13.41543
701.2506, 13.11751
701.7327, 12.94956
702.2148, 13.12645
702.6970, 13.35077
703.1791, 13.46254
703.6612, 13.45819
704.1433, 13.36286
704.6254, 13.09326
705.1075, 12.85893
705.5897, 12.87062
706.0718, 13.03561
706.5539, 13.16052
707.0360, 13.21036
707.5181, 13.27085
708.0002, 13.42828
708.4824, 13.63893
708.9645, 13.67328
709.4466, 13.40877
709.9287, 13.20167
710.4108, 13.05205
710.8929, 12.99379
711.3751, 13.11740
711.8572, 13.34494
712.3393, 13.48568
712.8214, 13.45979
713.3035, 13.36158
713.7856, 13.22262
714.2678, 13.08342
714.7499, 13.03048
715.2320, 13.07451
715.7141, 13.19224
716.1962, 13.38856
716.6783, 13.60757
717.1605, 13.67407
717.6426, 13.48352
718.1247, 13.34302
718.6068, 13.29263
719.0889, 13.24880
719.5710, 13.16121
720.0532, 13.05793
720.5353, 12.99124
721.0174, 12.97886
721.4995, 12.98570
721.9816, 12.98686
722.4637, 12.98627
722.9459, 13.00151
723.4280, 13.02982
723.9101, 13.01825
724.3922, 12.92800
724.8743, 12.82666
725.3564, 12.85358
725.8386, 13.07533
726.3207, 13.18486
726.8028, 13.04487
727.2849, 12.95584
727.7670, 13.07561
728.2491, 13.26241
728.7313, 13.34479
729.2134, 13.29145
729.6955, 13.18553
730.1776, 13.01793
730.6597, 12.87023
731.1418, 12.93664
731.6240, 13.16779
732.1061, 13.25364
732.5882, 13.07345
733.0703, 12.80759
733.5524, 12.66422
734.0345, 12.64547
734.5167, 12.69988
734.9988, 12.95869
735.4809, 13.11805
735.9631, 13.08114
736.4452, 12.96663
736.9273, 12.83611
737.4094, 12.71583
737.8915, 12.65650
738.3737, 12.69653
738.8558, 12.79298
739.3379, 12.94304
739.8200, 13.11035
740.3021, 13.15217
740.7842, 13.04135
741.2664, 12.97218
741.7485, 13.12769
742.2306, 13.43109
742.7127, 13.49454
743.1948, 13.10785
743.6769, 12.86360
744.1591, 12.89443
744.6412, 12.96714
745.1233, 12.94702
745.6054, 12.88102
746.0875, 12.88636
746.5696, 13.01331
747.0518, 13.15609
747.5339, 13.26774
748.0160, 13.32636
748.4981, 13.23302
748.9802, 13.01830
749.4623, 12.93939
749.9445, 13.14499
750.4266, 13.45146
750.9087, 13.50155
751.3908, 13.21445
751.8729, 13.05624
752.3550, 13.11380
752.8372, 12.94137
753.3193, 13.22581
753.8014, 13.37834
754.2835, 13.40613
754.7656, 12.93056
755.2477, 13.10883
755.7299, 13.02743
756.2120, 12.93699
756.6941, 13.21209
757.1762, 12.81839
757.6583, 13.09108
758.1404, 13.10012
758.6226, 13.23227
759.1047, 13.10314
759.5868, 13.05691
760.0689, 13.27542
760.5510, 13.34996
761.0331, 13.19728
761.5153, 13.34724
761.9974, 12.96116
762.4795, 13.04863
762.9616, 13.34136
763.4437, 13.21031
763.9258, 13.37349
764.4080, 13.42694
764.8901, 12.97571
765.3722, 13.40676
765.8543, 13.45866
766.3364, 13.12122
766.8185, 13.25579
767.3007, 13.16665
767.7828, 13.04656
768.2649, 13.03484
768.7470, 13.13735
769.2291, 13.18359
769.7112, 13.15541
770.1934, 13.09631
770.6755, 12.97385
771.1576, 12.86786
771.6397, 12.95357
772.1218, 13.27835
772.6039, 13.44791
773.0861, 13.25962
773.5682, 13.05201
774.0503, 13.01911
774.5324, 13.07186
775.0145, 13.06512
775.4966, 12.97649
775.9788, 12.90420
776.4609, 12.94355
776.9430, 13.04316
777.4251, 13.06617
777.9072, 12.75979
778.3893, 13.06810
778.8715, 13.24282
779.3536, 13.29111
779.8357, 12.83437
780.3178, 13.02978
780.7999, 12.96384
781.2820, 12.88718
781.7642, 13.17439
782.2463, 12.79110
782.7284, 13.07253
783.2105, 13.08862
783.6926, 13.22615
784.1747, 13.10071
784.6569, 13.05649
785.1390, 13.27533
785.6211, 13.34851
786.1032, 13.19280
786.5853, 13.33805
787.0674, 12.94557
787.5496, 13.02496
788.0317, 13.30793
788.5138, 13.16544
788.9959, 13.31550
789.4780, 13.35414
789.9601, 12.88643
790.4423, 13.29931
790.9244, 13.33136
791.4065, 12.97239
791.8886, 13.35510
792.3707, 13.05003
792.8528, 12.99046
793.3350, 13.11564
793.8171, 13.04822
794.2992, 13.28446
794.7813, 13.22816
795.2634, 13.14573
795.7455, 13.17736
796.2277, 12.88578
796.7098, 13.19381
797.1919, 13.09226
797.6740, 13.30275
798.1561, 13.33737
798.6382, 13.24095
799.1204, 13.18465
799.6025, 13.18775
800.0846, 13.20303
800.5667, 13.21628
801.0488, 13.22128
801.5309, 13.19798
802.0131, 13.13664
802.4952, 13.10971
802.9773, 13.17673
803.4594, 13.21792
803.9415, 13.17099
804.4236, 13.07625
804.9058, 12.95691
805.3879, 12.83504
805.8700, 12.77649
806.3521, 12.84900
806.8342, 12.97507
807.3163, 13.03069
807.7985, 13.03483
808.2806, 13.07804
808.7627, 13.17778
809.2448, 13.25673
809.7269, 13.25761
810.2090, 13.20154
810.6912, 13.14951
811.1733, 13.08521
811.6554, 13.06374
812.1375, 13.11871
812.6196, 13.17882
813.1017, 13.24193
813.5839, 13.28244
814.0660, 13.24235
814.5481, 13.11005
815.0302, 13.03598
815.5123, 13.15887
815.9944, 13.29339
816.4766, 13.28632
816.9587, 13.18512
817.4408, 13.06103
817.9229, 12.94237
818.4050, 12.86354
818.8871, 12.84989
819.3693, 12.90235
819.8514, 13.07783
820.3335, 13.38888
820.8156, 13.47462
821.2977, 13.20699
821.7798, 12.93327
822.2620, 12.89792
822.7441, 13.01948
823.2262, 13.05688
823.7083, 12.95978
824.1904, 12.89602
824.6725, 12.87142
825.1547, 12.87910
825.6368, 12.95799
826.1189, 13.04613
826.6010, 13.04681
827.0831, 12.95069
827.5652, 12.87023
828.0474, 12.88368
828.5295, 12.94694
829.0116, 13.04316
829.4937, 13.14232
829.9758, 13.13122
830.4579, 12.99974
830.9401, 12.92869
831.4222, 13.07415
831.9043, 13.33883
832.3864, 13.41347
832.8685, 13.24807
833.3506, 13.14520
833.8328, 13.16063
834.3149, 13.17844
834.7971, 13.13020
835.2792, 13.04789
835.7613, 12.98348
836.2434, 12.93333
836.7255, 12.92266
837.2076, 12.94945
837.6898, 13.02388
838.1719, 13.25083
838.6540, 13.47077
839.1361, 13.45006
839.6182, 13.19520
840.1003, 12.94629
840.5825, 12.84869
841.0646, 12.84746
841.5467, 12.90266
842.0288, 12.99073
842.5109, 13.04587
842.9930, 13.05669
843.4752, 12.98654
843.9573, 12.79838
844.4394, 12.57504
844.9215, 12.49877
845.4036, 12.59260
845.8857, 12.72506
846.3679, 12.95809
846.8500, 13.12057
847.3321, 13.12640
847.8142, 13.04630
848.2963, 12.91302
848.7784, 12.73660
849.2606, 12.66968
849.7427, 12.87887
850.2248, 13.03137
850.7069, 12.89527
851.1890, 12.71257
851.6711, 12.80428
852.1533, 13.08408
852.6354, 13.17476
853.1175, 12.87135
853.5996, 12.49009
854.0817, 12.41359
854.5638, 12.53474
855.0460, 12.56700
855.5281, 12.50455
856.0102, 12.48021
856.4923, 12.55095
856.9744, 12.64536
857.4565, 12.67216
857.9387, 12.63349
858.4208, 12.57996
858.9029, 12.47033
859.3850, 12.45094
859.8671, 12.65164
860.3492, 12.83888
860.8314, 12.81052
861.3135, 12.63751
861.7956, 12.50674
862.2777, 12.42954
862.7598, 12.40971
863.2419, 12.52367
863.7241, 12.62171
864.2062, 12.58304
864.6883, 12.46440
865.1704, 12.35567
865.6525, 12.28541
866.1346, 12.26169
866.6168, 12.31839
867.0989, 12.40311
867.5810, 12.42728
868.0631, 12.40808
868.5452, 12.41693
869.0273, 12.46446
869.5095, 12.46374
869.9916, 12.33893
870.4737, 12.16232
870.9558, 12.14652
871.4379, 12.34079
871.9200, 12.39707
872.4022, 12.21457
872.8843, 12.09854
873.3664, 12.26407
873.8485, 12.50601
874.3306, 12.48420
874.8127, 12.18750
875.2949, 12.01119
875.7770, 12.03311
876.2591, 12.11054
876.7412, 12.28703
877.2233, 12.43553
877.7054, 12.42802
878.1876, 12.29573
878.6697, 12.13685
879.1518, 11.97002
879.6339, 11.87959
880.1160, 12.05603
880.5981, 12.27274
881.0803, 12.11755
881.5624, 11.70661
882.0445, 11.51686
882.5266, 11.69990
883.0087, 11.95156
883.4908, 11.94440
883.9730, 11.75506
884.4551, 11.69523
884.9372, 11.77330
885.4193, 11.83955
885.9014, 11.86874
886.3835, 11.87570
886.8657, 11.86663
887.3478, 11.84607
887.8299, 11.82912
888.3120, 11.83485
888.7941, 11.79294
889.2762, 11.65111
889.7584, 11.52553
890.2405, 11.42020
890.7226, 11.36842
891.2047, 11.42902
891.6868, 11.58911
892.1689, 11.72856
892.6511, 11.84814
893.1332, 11.88673
893.6153, 11.72543
894.0974, 11.53163
894.5795, 11.50750
895.0616, 11.61394
895.5438, 11.69209
896.0259, 11.67669
896.5080, 11.61959
896.9901, 11.58525
897.4722, 11.54726
897.9543, 11.40991
898.4365, 11.20026
898.9186, 11.08397
899.4007, 11.10821
899.8828, 11.17595
900.3649, 11.20291
900.8470, 11.20500
901.3292, 11.25006
901.8113, 11.35782
902.2934, 11.40085
902.7755, 11.32914
903.2576, 11.28743
903.7397, 11.39797
904.2219, 11.54177
904.7040, 11.49357
905.1861, 11.20949
905.6682, 11.07288
906.1503, 11.26674
906.6324, 11.37471
907.1146, 11.19143
907.5967, 10.97270
908.0788, 10.93792
908.5609, 11.04766
909.0430, 11.15025
909.5251, 11.20964
910.0073, 11.21430
910.4894, 11.09621
910.9715, 10.97090
911.4536, 10.96420
911.9357, 11.03911
912.4178, 11.12001
912.9000, 11.18070
913.3821, 11.21125
913.8642, 11.20769
914.3463, 11.16239
914.8284, 11.01073
915.3105, 10.79695
915.7927, 10.75479
916.2748, 10.91000
916.7569, 11.04151
917.2390, 11.02452
917.7211, 10.94061
918.2032, 10.93016
918.6854, 10.99769
919.1675, 11.01611
919.6496, 10.97148
920.1317, 10.91775
920.6138, 10.85090
921.0959, 10.80588
921.5781, 10.82717
922.0602, 10.89738
922.5423, 10.93038
923.0244, 10.90304
923.5065, 10.88361
923.9886, 10.85294
924.4708, 10.85531
924.9529, 10.98676
925.4350, 11.11842
925.9171, 11.04847
926.3992, 10.77764
926.8813, 10.57636
927.3635, 10.61342
927.8456, 10.67303
928.3277, 10.57474
928.8098, 10.47482
929.2919, 10.61536
929.7740, 10.90885
930.2562, 11.05644
930.7383, 10.93620
931.2204, 10.77054
931.7025, 10.80026
932.1846, 10.92174
932.6667, 10.93931
933.1489, 10.87550
933.6310, 10.82938
934.1132, 10.82080
934.5953, 10.78311
935.0774, 10.65775
935.5595, 10.50581
936.0416, 10.48407
936.5237, 10.59362
937.0059, 10.68269
937.4880, 10.74836
937.9701, 10.77228
938.4522, 10.74901
938.9343, 10.67079
939.4164, 10.49986
939.8986, 10.24991
940.3807, 10.17165
940.8628, 10.39417
941.3449, 10.53238
941.8270, 10.44919
942.3091, 10.39465
942.7913, 10.57563
943.2734, 10.83572
943.7555, 10.90633
944.2376, 10.74767
944.7197, 10.62873
945.2018, 10.61335
945.6840, 10.61965
946.1661, 10.64829
946.6482, 10.66027
947.1303, 10.60470
947.6124, 10.50242
948.0945, 10.42319
948.5767, 10.39457
949.0588, 10.36841
949.5409, 10.27656
950.0230, 10.20546
950.5051, 10.28175
950.9872, 10.42932
951.4694, 10.48247
951.9515, 10.42517
952.4336, 10.39838
952.9157, 10.51949
953.3978, 10.66004
953.8799, 10.58972
954.3621, 10.40076
954.8442, 10.37896
955.3263, 10.51201
955.8084, 10.52917
956.2905, 10.32286
956.7726, 10.11286
957.2548, 10.16536
957.7369, 10.40990
958.2190, 10.53908
958.7011, 10.54896
959.1832, 10.52275
959.6653, 10.47015
960.1475, 10.38764
960.6296, 10.25752
961.1117, 10.12444
961.5938, 10.06747
962.0759, 10.08792
962.5580, 10.18177
963.0402, 10.43267
963.5223, 10.57484
964.0044, 10.47171
964.4865, 10.33970
964.9686, 10.37475
965.4507, 10.50753
965.9329, 10.50704
966.4150, 10.28167
966.8971, 10.17147
967.3792, 10.30702
967.8613, 10.42911
968.3434, 10.42412
968.8256, 10.37516
969.3077, 10.34910
969.7898, 10.35781
970.2719, 10.42363
970.7540, 10.61702
971.2361, 10.72729
971.7183, 10.61178
972.2004, 10.43360
972.6825, 10.25350
973.1646, 10.13043
973.6467, 10.16953
974.1288, 10.36810
974.6110, 10.56718
975.0931, 10.69480
975.5752, 10.75100
976.0573, 10.66274
976.5394, 10.54616
977.0215, 10.60247
977.5037, 10.79407
977.9858, 10.92857
978.4679, 10.94447
978.9500, 11.00025
979.4321, 11.28564
979.9142, 11.67959
980.3964, 11.95554
980.8785, 12.12757
981.3606, 12.21927
981.8427, 12.24539
982.3248, 12.28327
982.8069, 12.37216
983.2891, 12.52620
983.7712, 12.80154
984.2533, 13.16667
984.7354, 13.35861
985.2175, 13.36924
985.6996, 13.50569
986.1818, 13.84437
986.6639, 14.26189
987.1460, 14.68682
987.6281, 15.09382
988.1102, 15.39769
988.5923, 15.56101
989.0745, 15.94626
989.5566, 16.66956
990.0387, 17.26832
990.5208, 17.57355
991.0029, 17.78454
991.4850, 18.07597
991.9672, 18.41025
992.4493, 18.66064
992.9314, 18.95289
993.4135, 18.85271
993.8956, 18.16274
994.3777, 17.34518
994.8599, 16.42875
995.3420, 15.53442
995.8241, 14.77421
996.3062, 14.13814
996.7883, 13.53033
997.2704, 12.90403
997.7526, 12.37728
998.2347, 12.00723
998.7168, 11.69065
999.1989, 11.33219
999.6810, 11.02227
1000.163, 10.91779
1000.645, 10.99945
1001.127, 11.02686
1001.609, 10.89255
1002.092, 10.74944
1002.574, 10.65461
1003.056, 10.57817
1003.538, 10.48660
1004.020, 10.40243
1004.502, 10.37214
1004.984, 10.39969
1005.466, 10.43528
1005.949, 10.48836
1006.431, 10.48944
1006.913, 10.31542
1007.395, 10.11426
1007.877, 10.06635
1008.359, 10.14286
1008.841, 10.24842
1009.323, 10.34777
1009.805, 10.42145
1010.288, 10.44573
1010.770, 10.44562
1011.252, 10.45513
1011.734, 10.46022
1012.216, 10.41925
1012.698, 10.34655
1013.180, 10.30404
1013.662, 10.31730
1014.145, 10.36688
1014.627, 10.45804
1015.109, 10.55031
1015.591, 10.54421
1016.073, 10.47019
1016.555, 10.43574
1017.037, 10.44724
1017.519, 10.41171
1018.001, 10.28061
1018.484, 10.18609
1018.966, 10.36232
1019.448, 10.68937
1019.930, 10.67003
1020.412, 10.35309
1020.894, 10.21075
1021.376, 10.32221
1021.858, 10.44092
1022.341, 10.42317
1022.823, 10.35522
1023.305, 10.38270
1023.787, 10.49073
1024.269, 10.52872
1024.751, 10.49388
1025.233, 10.43491
1025.715, 10.35178
1026.198, 10.32355
1026.680, 10.41449
1027.162, 10.54949
1027.644, 10.58514
1028.126, 10.51950
1028.608, 10.44274
1029.090, 10.35328
1029.572, 10.25765
1030.054, 10.14608
1030.536, 10.06162
1031.019, 10.03210
1031.501, 10.05197
1031.983, 10.12194
1032.465, 10.25934
1032.947, 10.29666
1033.429, 10.17576
1033.911, 10.10735
1034.393, 10.14556
1034.876, 10.23349
1035.358, 10.35116
1035.840, 10.47611
1036.322, 10.55502
1036.804, 10.58413
1037.286, 10.58506
1037.768, 10.54498
1038.250, 10.49871
1038.733, 10.43555
1039.215, 10.39024
1039.697, 10.39572
1040.179, 10.43515
1040.661, 10.46239
1041.143, 10.46333
1041.625, 10.50472
1042.107, 10.63716
1042.589, 10.74055
1043.072, 10.80466
1043.554, 10.82029
1044.036, 10.75253
1044.518, 10.63634
1045.000, 10.54706
1045.482, 10.47634
1045.964, 10.47781
1046.446, 10.55194
1046.928, 10.70324
1047.411, 11.01640
1047.893, 11.32899
1048.375, 11.50465
1048.857, 11.59259
1049.339, 11.72771
1049.821, 11.94554
1050.303, 12.09357
1050.785, 12.06088
1051.268, 12.07108
1051.750, 12.19552
1052.232, 12.38897
1052.714, 12.67407
1053.196, 12.98351
1053.678, 13.16391
1054.160, 13.17165
1054.642, 13.19841
1055.125, 13.24910
1055.607, 13.37746
1056.089, 13.67468
1056.571, 13.99282
1057.053, 14.24123
1057.535, 14.40720
1058.017, 14.46222
1058.499, 14.38657
1058.981, 14.36631
1059.464, 14.51603
1059.946, 14.65603
1060.428, 14.78567
1060.910, 14.81071
1061.392, 14.55497
1061.874, 14.16741
1062.356, 13.99728
1062.838, 14.12497
1063.320, 14.08819
1063.803, 13.59705
1064.285, 13.06960
1064.767, 12.62535
1065.249, 12.28378
1065.731, 12.14386
1066.213, 12.08871
1066.695, 11.87693
1067.177, 11.46506
1067.660, 11.10573
1068.142, 10.93709
1068.624, 10.79470
1069.106, 10.56552
1069.588, 10.36586
1070.070, 10.35029
1070.552, 10.41401
1071.034, 10.34236
1071.516, 10.10451
1071.999, 9.892268
1072.481, 9.763064
1072.963, 9.706048
1073.445, 9.768061
1073.927, 9.850146
1074.409, 9.879039
1074.891, 9.866068
1075.373, 9.839101
1075.855, 9.802927
1076.338, 9.745266
1076.820, 9.608293
1077.302, 9.536198
1077.784, 9.668024
1078.266, 9.822724
1078.748, 9.869045
1079.230, 9.837854
1079.712, 9.783401
1080.195, 9.715903
1080.677, 9.626114
1081.159, 9.490252
1081.641, 9.376449
1082.123, 9.302894
1082.605, 9.278752
1083.087, 9.328256
1083.569, 9.420872
1084.052, 9.541168
1084.534, 9.668635
1085.016, 9.740202
1085.498, 9.730453
1085.980, 9.675473
1086.462, 9.511219
1086.944, 9.395185
1087.426, 9.492148
1087.908, 9.651983
1088.391, 9.677067
1088.873, 9.591479
1089.355, 9.557858
1089.837, 9.636120
1090.319, 9.708269
1090.801, 9.711579
1091.283, 9.714422
1091.765, 9.790038
1092.248, 9.856232
1092.730, 9.794923
1093.212, 9.656484
1093.694, 9.603509
1094.176, 9.689338
1094.658, 9.728667
1095.140, 9.604776
1095.622, 9.485675
1096.104, 9.460221
1096.587, 9.459779
1097.069, 9.374694
1097.551, 9.282565
1098.033, 9.399078
1098.515, 9.773106
1098.997, 9.982829
1099.479, 9.744317
1099.961, 9.545693
1100.443, 9.607588
1100.926, 9.709414
1101.408, 9.676313
1101.890, 9.586008
1102.372, 9.590847
1102.854, 9.700581
1103.336, 9.759171
1103.818, 9.697252
1104.300, 9.632786
1104.783, 9.597912
1105.265, 9.559501
1105.747, 9.457550
1106.229, 9.368982
1106.711, 9.415210
1107.193, 9.578723
1107.675, 9.689931
1108.157, 9.731543
1108.640, 9.712955
1109.122, 9.614145
1109.604, 9.481409
1110.086, 9.254621
1110.568, 9.065094
1111.050, 9.068469
1111.532, 9.217962
1112.014, 9.325311
1112.496, 9.371164
1112.979, 9.405303
1113.461, 9.453014
1113.943, 9.456875
1114.425, 9.404799
1114.907, 9.302567
1115.389, 9.079202
1115.871, 8.833523
1116.353, 8.814252
1116.835, 9.080537
1117.318, 9.220185
1117.800, 9.162869
1118.282, 9.107153
1118.764, 9.072649
1119.246, 9.061553
1119.728, 9.097972
1120.210, 9.134768
1120.692, 9.078803
1121.175, 8.934221
1121.657, 8.932765
1122.139, 9.165279
1122.621, 9.286717
1123.103, 9.242704
1123.585, 9.145009
1124.067, 9.013387
1124.549, 8.899070
1125.031, 8.755534
1125.514, 8.876179
1125.996, 8.941780
1126.478, 8.955285
1126.960, 8.760663
1127.442, 8.834794
1127.924, 8.801222
1128.406, 8.763231
1128.888, 8.875190
1129.370, 8.710837
1129.853, 8.820407
1130.335, 8.820639
1130.817, 8.870915
1131.299, 8.812823
1131.781, 8.788202
1132.263, 8.871987
1132.745, 8.895746
1133.227, 8.825178
1133.710, 8.878627
1134.192, 8.710489
1134.674, 8.736806
1135.156, 8.847019
1135.638, 8.781901
1136.120, 8.837340
1136.602, 8.846864
1137.084, 8.647723
1137.567, 8.811461
1138.049, 8.818273
1138.531, 8.663941
1139.013, 8.815258
1139.495, 8.683142
1139.977, 8.652192
1140.459, 8.768611
1140.941, 8.817887
1141.423, 8.845797
1141.906, 8.854849
1142.388, 8.843750
1142.870, 8.784648
1143.352, 8.645602
1143.834, 8.550925
1144.316, 8.713591
1144.798, 8.964084
1145.280, 9.051373
1145.762, 9.023726
1146.245, 8.986592
1146.727, 8.949604
1147.209, 8.853274
1147.691, 8.675809
1148.173, 8.559600
1148.655, 8.679532
1149.137, 8.830965
1149.619, 8.846978
1150.102, 8.785701
1150.584, 8.675539
1151.066, 8.556520
1151.548, 8.482173
1152.030, 8.465520
1152.512, 8.509069
1152.994, 8.657443
1153.476, 8.775979
1153.958, 8.767627
1154.441, 8.741363
1154.923, 8.774400
1155.405, 8.828897
1155.887, 8.873993
1156.369, 8.894087
1156.851, 8.842605
1157.333, 8.675477
1157.815, 8.576364
1158.297, 8.654901
1158.780, 8.712036
1159.262, 8.669233
1159.744, 8.599003
1160.226, 8.543851
1160.708, 8.502209
1161.190, 8.471066
1161.672, 8.451635
1162.154, 8.419524
1162.637, 8.325156
1163.119, 8.317505
1163.601, 8.485671
1164.083, 8.600340
1164.565, 8.534307
1165.047, 8.421633
1165.529, 8.385630
1166.011, 8.428957
1166.494, 8.594070
1166.976, 8.952068
1167.458, 9.050138
1167.940, 8.831347
1168.422, 8.620340
1168.904, 8.480259
1169.386, 8.455530
1169.868, 8.599655
1170.350, 8.780619
1170.833, 8.758427
1171.315, 8.582056
1171.797, 8.553656
1172.279, 8.657803
1172.761, 8.728488
1173.243, 8.744386
1173.725, 8.696179
1174.207, 8.582658
1174.689, 8.474781
1175.172, 8.428571
1175.654, 8.451269
1176.136, 8.633453
1176.618, 8.858743
1177.100, 8.801536
1177.582, 8.561554
1178.064, 8.444705
1178.546, 8.499816
1179.029, 8.623068
1179.511, 8.769834
1179.993, 8.870301
1180.475, 8.805829
1180.957, 8.729098
1181.439, 8.853003
1181.921, 9.007359
1182.403, 8.951910
1182.885, 8.754300
1183.368, 8.560217
1183.850, 8.420026
1184.332, 8.447089
1184.814, 8.879504
1185.296, 9.135254
1185.778, 8.795864
1186.260, 8.416569
1186.742, 8.295568
1187.225, 8.339176
1187.707, 8.527492
1188.189, 8.771697
1188.671, 8.774322
1189.153, 8.392353
1189.635, 8.220786
1190.117, 8.500004
1190.599, 8.680538
1191.082, 8.614740
1191.564, 8.527011
1192.046, 8.533961
1192.528, 8.589397
1193.010, 8.639194
1193.492, 8.680004
1193.974, 8.679577
1194.456, 8.627532
1194.938, 8.589898
1195.421, 8.572059
1195.903, 8.552692
1196.385, 8.523363
1196.867, 8.506664
1197.349, 8.520067
1197.831, 8.553851
1198.313, 8.597600
1198.795, 8.644891
1199.277, 8.648199
1199.760, 8.623282
1200.242, 8.674279
1200.724, 8.794366
1201.206, 8.853455
1201.688, 8.805347
1202.170, 8.720599
1202.652, 8.640097
1203.134, 8.596439
1203.617, 8.689655
1204.099, 8.800081
1204.581, 8.682891
1205.063, 8.486423
1205.545, 8.553631
1206.027, 8.839717
1206.509, 8.982758
1206.991, 8.841824
1207.474, 8.695762
1207.956, 8.690740
1208.438, 8.720753
1208.920, 8.751393
1209.402, 8.775150
1209.884, 8.848920
1210.366, 8.877460
1210.848, 8.637491
1211.330, 8.165684
1211.813, 7.941001
1212.295, 8.148046
1212.777, 8.334934
1213.259, 8.528186
1213.741, 8.632519
1214.223, 8.569442
1214.705, 8.497884
1215.187, 8.530724
1215.669, 8.620623
1216.152, 8.686500
1216.634, 8.727820
1217.116, 8.728992
1217.598, 8.687912
1218.080, 8.635845
1218.562, 8.576361
1219.044, 8.478973
1219.526, 8.330549
1220.009, 8.215013
1220.491, 8.200430
1220.973, 8.256336
1221.455, 8.367660
1221.937, 8.491858
1222.419, 8.495733
1222.901, 8.426074
1223.383, 8.414989
1223.865, 8.463655
1224.348, 8.499225
1224.830, 8.496643
1225.312, 8.484060
1225.794, 8.481728
1226.276, 8.473580
1226.758, 8.422305
1227.240, 8.385151
1227.722, 8.402246
1228.204, 8.472709
1228.687, 8.648149
1229.169, 8.867552
1229.651, 8.932494
1230.133, 8.778972
1230.615, 8.633314
1231.097, 8.504291
1231.579, 8.433208
1232.061, 8.458816
1232.544, 8.506374
1233.026, 8.555326
1233.508, 8.595825
1233.990, 8.618650
1234.472, 8.622999
1234.954, 8.600689
1235.436, 8.544970
1235.918, 8.508431
1236.401, 8.491354
1236.883, 8.489898
1237.365, 8.503345
1237.847, 8.548224
1238.329, 8.638010
1238.811, 8.668039
1239.293, 8.484761
1239.775, 8.219050
1240.257, 8.153859
1240.740, 8.213415
1241.222, 8.217936
1241.704, 8.188785
1242.186, 8.220515
1242.668, 8.322125
1243.150, 8.462913
1243.632, 8.640894
1244.114, 8.703871
1244.596, 8.426349
1245.079, 8.159276
1245.561, 8.135706
1246.043, 8.206986
1246.525, 8.269997
1247.007, 8.326516
1247.489, 8.404799
1247.971, 8.498510
1248.453, 8.552560
1248.936, 8.543623
1249.418, 8.537320
1249.900, 8.527495
1250.382, 8.535592
1250.864, 8.578229
1251.346, 8.615660
1251.828, 8.633574
1252.310, 8.610183
1252.792, 8.493420
1253.275, 8.335527
1253.757, 8.390076
1254.239, 8.632231
1254.721, 8.746380
1255.203, 8.728725
1255.685, 8.654110
1256.167, 8.553598
1256.649, 8.518695
1257.131, 8.597331
1257.614, 8.702656
1258.096, 8.764650
1258.578, 8.788316
1259.060, 8.791747
1259.542, 8.750443
1260.024, 8.580292
1260.506, 8.371469
1260.988, 8.278987
1261.471, 8.305419
1261.953, 8.353323
1262.435, 8.396444
1262.917, 8.464677
1263.399, 8.652818
1263.881, 8.740799
1264.363, 8.545741
1264.845, 8.388732
1265.328, 8.466613
1265.810, 8.622033
1266.292, 8.682709
1266.774, 8.667367
1267.256, 8.644072
1267.738, 8.609143
1268.220, 8.613171
1268.702, 8.658008
1269.184, 8.682828
1269.667, 8.676371
1270.149, 8.633264
1270.631, 8.551660
1271.113, 8.497351
1271.595, 8.544275
1272.077, 8.623964
1272.559, 8.642322
1273.041, 8.621214
1273.523, 8.579609
1274.006, 8.530658
1274.488, 8.474899
1274.970, 8.432437
1275.452, 8.470079
1275.934, 8.605679
1276.416, 8.691022
1276.898, 8.645585
1277.380, 8.580782
1277.863, 8.527472
1278.345, 8.460098
1278.827, 8.308815
1279.309, 8.197989
1279.791, 8.243839
1280.273, 8.393506
1280.755, 8.541412
1281.237, 8.686728
1281.719, 8.739826
1282.202, 8.689409
1282.684, 8.741104
1283.166, 8.913503
1283.648, 8.941013
1284.130, 8.745157
1284.612, 8.533674
1285.094, 8.442246
1285.576, 8.459836
1286.059, 8.655593
1286.541, 8.874188
1287.023, 8.943946
1287.505, 8.863445
##END=



