##NAMES=Hydroxylbastnasite-(Ce)
##RRUFFID=R060283
##IDEAL CHEMISTRY=CeCO_3_(OH)
##LOCALITY=Trimouns, Luzenac, France
##OWNER=RRUFF
##SOURCE=Herb Obodda
##DESCRIPTION=Brown hexagonal tablet
##STATUS=The identification of this mineral has been confirmed by X-ray diffraction and chemical analysis
##URL=rruff.info/R060283
##MEASURED CHEMISTRY=(Ce_0.50_Nd_0.24_(La,Pr)_0.23_Y_0.03_)_Σ=1_CO_3_((OH)_0.65_F_0.35_)_Σ=1_
139.5374, 11460.91
140.0195, 11566.39
140.5016, 11686.19
140.9837, 11751.67
141.4658, 11733.29
141.9480, 11708.10
142.4301, 11731.14
142.9122, 11827.73
143.3943, 11918.56
143.8764, 11994.55
144.3585, 12055.33
144.8407, 12113.24
145.3228, 12157.40
145.8049, 12206.63
146.2870, 12278.26
146.7691, 12378.34
147.2512, 12491.70
147.7334, 12618.73
148.2155, 12765.93
148.6976, 12902.91
149.1797, 13011.39
149.6618, 13115.28
150.1439, 13244.95
150.6261, 13436.53
151.1082, 13619.98
151.5903, 13774.03
152.0724, 13883.08
152.5545, 13995.97
153.0366, 14121.06
153.5188, 14251.50
154.0009, 14373.28
154.4830, 14490.70
154.9651, 14595.63
155.4472, 14687.11
155.9293, 14776.75
156.4115, 14835.13
156.8936, 14840.89
157.3757, 14806.95
157.8578, 14778.49
158.3399, 14785.28
158.8220, 14792.08
159.3042, 14775.83
159.7863, 14696.94
160.2684, 14627.56
160.7505, 14592.28
161.2326, 14588.30
161.7148, 14597.00
162.1969, 14622.79
162.6790, 14652.82
163.1611, 14674.38
163.6432, 14657.31
164.1253, 14651.51
164.6075, 14689.03
165.0896, 14771.20
165.5717, 14860.46
166.0538, 14929.28
166.5359, 14993.27
167.0180, 15074.72
167.5002, 15188.49
167.9823, 15320.25
168.4644, 15462.41
168.9465, 15615.70
169.4286, 15770.45
169.9107, 15924.77
170.3929, 16074.89
170.8750, 16216.99
171.3571, 16340.64
171.8392, 16457.18
172.3213, 16578.29
172.8034, 16704.49
173.2856, 16834.14
173.7677, 16964.93
174.2498, 17097.95
174.7319, 17234.41
175.2140, 17386.25
175.6961, 17539.66
176.1783, 17670.69
176.6604, 17767.68
177.1425, 17851.56
177.6246, 17948.20
178.1067, 18054.68
178.5888, 18158.68
179.0710, 18232.41
179.5531, 18295.50
180.0352, 18394.23
180.5173, 18553.32
180.9994, 18738.17
181.4815, 18889.42
181.9637, 19009.07
182.4458, 19117.86
182.9279, 19231.64
183.4100, 19349.60
183.8921, 19470.51
184.3742, 19593.88
184.8564, 19720.32
185.3385, 19847.92
185.8206, 19977.81
186.3027, 20108.58
186.7848, 20252.10
187.2669, 20403.09
187.7491, 20526.58
188.2312, 20603.65
188.7133, 20643.24
189.1954, 20681.35
189.6775, 20719.97
190.1596, 20746.77
190.6418, 20746.25
191.1239, 20718.58
191.6060, 20674.87
192.0881, 20620.55
192.5702, 20554.77
193.0523, 20468.20
193.5345, 20359.01
194.0166, 20234.61
194.4987, 20101.37
194.9808, 19957.93
195.4629, 19825.52
195.9450, 19720.02
196.4272, 19639.50
196.9093, 19553.81
197.3914, 19457.38
197.8735, 19363.06
198.3556, 19300.17
198.8378, 19273.65
199.3199, 19248.46
199.8020, 19207.02
200.2841, 19149.14
200.7662, 19081.37
201.2483, 18998.22
201.7305, 18910.74
202.2126, 18849.26
202.6947, 18819.43
203.1768, 18794.54
203.6589, 18758.96
204.1410, 18711.95
204.6232, 18660.81
205.1053, 18602.70
205.5874, 18542.39
206.0695, 18494.32
206.5516, 18457.39
207.0337, 18435.57
207.5159, 18437.49
207.9980, 18470.63
208.4801, 18491.69
208.9622, 18494.29
209.4443, 18480.80
209.9264, 18457.73
210.4086, 18414.37
210.8907, 18382.96
211.3728, 18391.77
211.8549, 18451.17
212.3370, 18515.98
212.8191, 18581.32
213.3013, 18646.79
213.7834, 18711.04
214.2655, 18765.78
214.7476, 18833.03
215.2297, 18933.43
215.7118, 19078.11
216.1940, 19228.78
216.6761, 19381.41
217.1582, 19536.16
217.6403, 19678.89
218.1224, 19798.03
218.6045, 19918.37
219.0867, 20062.83
219.5688, 20231.56
220.0509, 20423.38
220.5330, 20642.52
221.0151, 20892.84
221.4972, 21118.02
221.9794, 21308.67
222.4615, 21486.83
222.9436, 21676.14
223.4257, 21873.04
223.9078, 22092.35
224.3899, 22340.96
224.8721, 22625.60
225.3542, 22893.22
225.8363, 23140.38
226.3184, 23375.98
226.8005, 23614.55
227.2826, 23855.11
227.7648, 24097.38
228.2469, 24339.74
228.7290, 24579.69
229.2111, 24831.83
229.6932, 25097.13
230.1753, 25370.79
230.6575, 25652.48
231.1396, 25949.69
231.6217, 26237.97
232.1038, 26507.15
232.5859, 26751.37
233.0681, 27008.43
233.5502, 27282.30
234.0323, 27564.97
234.5144, 27848.99
234.9965, 28131.19
235.4786, 28416.78
235.9608, 28707.41
236.4429, 28997.83
236.9250, 29300.70
237.4071, 29617.56
237.8892, 29943.89
238.3713, 30274.13
238.8535, 30614.98
239.3356, 30948.45
239.8177, 31267.65
240.2998, 31570.15
240.7819, 31870.87
241.2640, 32178.81
241.7462, 32484.53
242.2283, 32774.16
242.7104, 33045.54
243.1925, 33304.14
243.6746, 33548.37
244.1567, 33771.44
244.6389, 34010.35
245.1210, 34284.09
245.6031, 34561.88
246.0852, 34785.39
246.5673, 34936.35
247.0494, 35064.22
247.5316, 35188.23
248.0137, 35317.25
248.4958, 35411.07
248.9779, 35458.78
249.4600, 35476.87
249.9421, 35496.36
250.4243, 35527.76
250.9064, 35542.22
251.3885, 35530.11
251.8706, 35490.92
252.3527, 35422.24
252.8348, 35308.17
253.3170, 35174.77
253.7991, 35078.02
254.2812, 35047.89
254.7633, 34998.73
255.2454, 34890.69
255.7275, 34701.95
256.2097, 34540.01
256.6918, 34416.21
257.1739, 34313.26
257.6560, 34197.32
258.1381, 34062.20
258.6202, 33926.25
259.1024, 33794.62
259.5845, 33669.23
260.0666, 33545.16
260.5487, 33420.31
261.0308, 33298.64
261.5129, 33182.71
261.9951, 33075.70
262.4772, 32969.20
262.9593, 32859.53
263.4414, 32742.74
263.9235, 32636.62
264.4056, 32538.62
264.8878, 32452.52
265.3699, 32388.03
265.8520, 32355.69
266.3341, 32313.31
266.8162, 32243.04
267.2983, 32142.49
267.7805, 32032.72
268.2626, 31913.16
268.7447, 31785.95
269.2268, 31653.34
269.7089, 31513.61
270.1910, 31375.46
270.6732, 31247.84
271.1553, 31135.77
271.6374, 30985.73
272.1195, 30788.43
272.6016, 30566.38
273.0837, 30363.70
273.5659, 30183.83
274.0480, 30001.62
274.5301, 29810.38
275.0122, 29611.46
275.4943, 29378.68
275.9764, 29100.12
276.4586, 28810.15
276.9407, 28566.96
277.4228, 28380.35
277.9049, 28181.91
278.3870, 27938.24
278.8691, 27652.30
279.3513, 27394.39
279.8334, 27169.32
280.3155, 26959.85
280.7976, 26747.39
281.2797, 26534.21
281.7618, 26307.45
282.2440, 26050.90
282.7261, 25771.82
283.2082, 25527.02
283.6903, 25319.57
284.1724, 25135.15
284.6545, 24957.47
285.1367, 24788.13
285.6188, 24628.74
286.1009, 24483.02
286.5830, 24348.20
287.0652, 24211.39
287.5473, 24073.16
288.0294, 23936.83
288.5115, 23807.41
288.9936, 23683.76
289.4757, 23561.63
289.9579, 23433.88
290.4400, 23307.38
290.9221, 23201.38
291.4042, 23117.20
291.8863, 23037.11
292.3684, 22939.16
292.8506, 22828.69
293.3327, 22727.20
293.8148, 22640.08
294.2969, 22566.18
294.7790, 22501.58
295.2611, 22446.08
295.7433, 22400.79
296.2254, 22377.95
296.7075, 22366.63
297.1896, 22335.74
297.6717, 22263.04
298.1538, 22176.94
298.6360, 22119.89
299.1181, 22090.21
299.6002, 22074.07
300.0823, 22066.05
300.5644, 22063.21
301.0465, 22057.72
301.5287, 22037.15
302.0108, 22026.15
302.4929, 22068.81
302.9750, 22155.23
303.4571, 22226.23
303.9392, 22225.75
304.4214, 22191.17
304.9035, 22173.65
305.3856, 22191.85
305.8677, 22220.26
306.3498, 22232.77
306.8319, 22235.37
307.3141, 22249.71
307.7962, 22303.82
308.2783, 22368.52
308.7604, 22413.13
309.2425, 22420.94
309.7246, 22429.14
310.2068, 22470.45
310.6889, 22531.94
311.1710, 22580.50
311.6531, 22584.74
312.1352, 22579.44
312.6173, 22589.64
313.0995, 22621.00
313.5816, 22662.71
314.0637, 22722.82
314.5458, 22789.21
315.0279, 22839.62
315.5100, 22848.04
315.9922, 22851.39
316.4743, 22870.36
316.9564, 22910.96
317.4385, 22952.16
317.9206, 22989.81
318.4027, 23023.28
318.8849, 23051.71
319.3670, 23060.81
319.8491, 23077.21
320.3312, 23118.64
320.8133, 23194.19
321.2954, 23247.27
321.7776, 23245.02
322.2597, 23223.78
322.7418, 23222.30
323.2239, 23255.50
323.7060, 23299.64
324.1881, 23356.55
324.6703, 23428.50
325.1524, 23483.07
325.6345, 23497.21
326.1166, 23503.53
326.5987, 23528.45
327.0808, 23584.81
327.5630, 23645.03
328.0451, 23713.82
328.5272, 23789.75
329.0093, 23841.20
329.4914, 23852.55
329.9735, 23852.57
330.4557, 23858.46
330.9378, 23866.34
331.4199, 23887.49
331.9020, 23927.47
332.3841, 23982.23
332.8662, 24033.03
333.3484, 24081.18
333.8305, 24122.59
334.3126, 24155.50
334.7947, 24179.52
335.2768, 24196.19
335.7589, 24208.74
336.2411, 24212.18
336.7232, 24183.85
337.2053, 24104.82
337.6874, 24050.09
338.1695, 24072.85
338.6516, 24187.98
339.1338, 24240.18
339.6159, 24206.33
340.0980, 24140.85
340.5801, 24144.60
341.0622, 24226.15
341.5443, 24298.48
342.0265, 24325.70
342.5086, 24311.30
342.9907, 24287.03
343.4728, 24251.40
343.9549, 24212.49
344.4370, 24176.43
344.9192, 24144.23
345.4013, 24126.00
345.8834, 24140.69
346.3655, 24167.97
346.8476, 24146.10
347.3297, 24073.86
347.8119, 23992.20
348.2940, 23945.02
348.7761, 23920.27
349.2582, 23882.58
349.7403, 23816.64
350.2224, 23737.54
350.7046, 23661.39
351.1867, 23588.41
351.6688, 23525.49
352.1509, 23484.79
352.6330, 23455.29
353.1151, 23421.66
353.5973, 23383.15
354.0794, 23334.68
354.5615, 23266.45
355.0436, 23183.38
355.5258, 23100.44
356.0079, 23031.62
356.4900, 22963.33
356.9721, 22876.70
357.4542, 22757.00
357.9363, 22659.14
358.4185, 22631.45
358.9006, 22644.61
359.3827, 22647.95
359.8648, 22613.89
360.3469, 22571.12
360.8290, 22535.78
361.3112, 22511.02
361.7933, 22479.62
362.2754, 22437.32
362.7575, 22384.88
363.2396, 22322.86
363.7217, 22213.93
364.2039, 22133.70
364.6860, 22123.10
365.1681, 22183.21
365.6502, 22203.28
366.1323, 22132.40
366.6144, 22040.98
367.0966, 21977.37
367.5787, 21974.09
368.0608, 21961.26
368.5429, 21924.97
369.0250, 21872.58
369.5071, 21844.79
369.9893, 21871.57
370.4714, 21888.27
370.9535, 21858.39
371.4356, 21747.13
371.9177, 21671.47
372.3998, 21648.68
372.8820, 21654.09
373.3641, 21628.55
373.8462, 21555.07
374.3283, 21495.42
374.8104, 21484.95
375.2925, 21531.00
375.7747, 21534.40
376.2568, 21485.14
376.7389, 21413.12
377.2210, 21356.77
377.7031, 21316.80
378.1852, 21282.53
378.6674, 21251.19
379.1495, 21222.81
379.6316, 21197.68
380.1137, 21176.56
380.5958, 21153.64
381.0779, 21121.34
381.5601, 21081.56
382.0422, 21046.32
382.5243, 21018.02
383.0064, 20994.81
383.4885, 20971.38
383.9706, 20948.56
384.4528, 20934.12
384.9349, 20947.16
385.4170, 20968.43
385.8991, 20966.36
386.3812, 20934.75
386.8633, 20884.19
387.3455, 20809.01
387.8276, 20721.90
388.3097, 20650.71
388.7918, 20607.19
389.2739, 20587.65
389.7560, 20601.29
390.2382, 20652.92
390.7203, 20687.47
391.2024, 20668.29
391.6845, 20618.16
392.1666, 20562.89
392.6487, 20490.91
393.1309, 20434.39
393.6130, 20412.03
394.0951, 20421.24
394.5772, 20432.72
395.0593, 20443.07
395.5414, 20450.78
396.0236, 20454.78
396.5057, 20452.03
396.9878, 20449.02
397.4699, 20458.16
397.9520, 20468.98
398.4341, 20448.11
398.9163, 20358.23
399.3984, 20275.24
399.8805, 20225.73
400.3626, 20215.43
400.8447, 20224.04
401.3268, 20266.52
401.8090, 20316.85
402.2911, 20338.98
402.7732, 20327.73
403.2553, 20300.27
403.7374, 20254.19
404.2195, 20191.48
404.7017, 20150.10
405.1838, 20133.42
405.6659, 20128.79
406.1480, 20128.97
406.6301, 20134.18
407.1122, 20130.74
407.5944, 20115.85
408.0765, 20091.14
408.5586, 20056.88
409.0407, 20013.18
409.5228, 19972.84
410.0049, 19945.29
410.4871, 19928.03
410.9692, 19915.91
411.4513, 19910.22
411.9334, 19902.17
412.4155, 19874.48
412.8976, 19834.80
413.3798, 19806.04
413.8619, 19818.37
414.3440, 19834.92
414.8261, 19809.74
415.3082, 19741.99
415.7903, 19677.00
416.2725, 19652.95
416.7546, 19644.45
417.2367, 19621.78
417.7188, 19558.05
418.2009, 19498.33
418.6830, 19470.60
419.1652, 19465.97
419.6473, 19452.90
420.1294, 19395.74
420.6115, 19345.65
421.0936, 19334.63
421.5757, 19394.20
422.0579, 19434.33
422.5400, 19440.67
423.0221, 19421.39
423.5042, 19389.46
423.9863, 19332.29
424.4684, 19277.48
424.9506, 19226.94
425.4327, 19180.16
425.9148, 19154.99
426.3969, 19165.19
426.8791, 19181.30
427.3612, 19174.77
427.8433, 19133.93
428.3254, 19108.07
428.8075, 19108.44
429.2896, 19126.81
429.7718, 19136.69
430.2539, 19138.13
430.7360, 19131.51
431.2181, 19104.54
431.7002, 19060.95
432.1823, 19064.96
432.6645, 19130.51
433.1466, 19207.83
433.6287, 19224.44
434.1108, 19189.99
434.5929, 19151.54
435.0750, 19128.23
435.5572, 19113.30
436.0393, 19096.40
436.5214, 19077.50
437.0035, 19055.81
437.4856, 19027.17
437.9677, 18996.65
438.4499, 18971.36
438.9320, 18953.25
439.4141, 18940.61
439.8962, 18928.53
440.3783, 18920.70
440.8604, 18926.31
441.3426, 18974.75
441.8247, 19018.55
442.3068, 19027.55
442.7889, 18991.94
443.2710, 18953.06
443.7531, 18906.71
444.2353, 18868.71
444.7174, 18855.77
445.1995, 18905.02
445.6816, 18941.73
446.1637, 18949.59
446.6458, 18931.18
447.1280, 18912.62
447.6101, 18883.81
448.0922, 18866.02
448.5743, 18875.78
449.0564, 18934.20
449.5385, 18962.34
450.0207, 18949.17
450.5028, 18913.12
450.9849, 18885.13
451.4670, 18864.26
451.9491, 18858.09
452.4312, 18878.19
452.9134, 18918.79
453.3955, 18930.17
453.8776, 18908.55
454.3597, 18884.63
454.8418, 18890.42
455.3239, 18920.23
455.8061, 18952.53
456.2882, 18988.63
456.7703, 19015.96
457.2524, 19007.88
457.7345, 18972.40
458.2166, 18941.89
458.6988, 18943.34
459.1809, 18956.21
459.6630, 18959.39
460.1451, 18950.43
460.6272, 18934.03
461.1093, 18903.85
461.5915, 18870.92
462.0736, 18849.57
462.5557, 18854.25
463.0378, 18861.78
463.5199, 18863.53
464.0020, 18860.26
464.4842, 18858.96
464.9663, 18845.26
465.4484, 18845.68
465.9305, 18878.25
466.4126, 18992.29
466.8947, 19052.05
467.3769, 19029.51
467.8590, 18965.04
468.3411, 18924.69
468.8232, 18922.48
469.3053, 18916.29
469.7874, 18889.73
470.2696, 18845.10
470.7517, 18829.99
471.2338, 18853.22
471.7159, 18878.90
472.1980, 18866.97
472.6801, 18818.85
473.1623, 18801.68
473.6444, 18833.86
474.1265, 18883.07
474.6086, 18889.19
475.0907, 18858.57
475.5728, 18832.47
476.0550, 18832.60
476.5371, 18851.21
477.0192, 18884.37
477.5013, 18932.46
477.9834, 18966.31
478.4655, 18947.96
478.9477, 18906.61
479.4298, 18880.98
479.9119, 18890.63
480.3940, 18908.04
480.8761, 18925.64
481.3582, 18940.61
481.8404, 18944.55
482.3225, 18925.10
482.8046, 18901.89
483.2867, 18880.58
483.7688, 18856.88
484.2509, 18851.83
484.7331, 18890.68
485.2152, 18936.83
485.6973, 18955.33
486.1794, 18924.13
486.6615, 18902.98
487.1436, 18901.88
487.6258, 18917.18
488.1079, 18933.28
488.5900, 18951.79
489.0721, 18966.30
489.5542, 18973.81
490.0363, 18974.38
490.5185, 18966.78
491.0006, 18949.88
491.4827, 18928.65
491.9648, 18904.84
492.4469, 18880.54
492.9290, 18868.92
493.4112, 18881.63
493.8933, 18903.49
494.3754, 18909.38
494.8575, 18901.69
495.3396, 18895.22
495.8217, 18903.17
496.3039, 18915.77
496.7860, 18921.44
497.2681, 18916.69
497.7502, 18912.51
498.2324, 18914.02
498.7145, 18919.84
499.1966, 18928.16
499.6787, 18955.20
500.1608, 18967.66
500.6429, 18943.05
501.1251, 18884.95
501.6072, 18851.87
502.0893, 18866.52
502.5714, 18890.04
503.0535, 18903.30
503.5356, 18895.43
504.0178, 18906.13
504.4999, 18950.85
504.9820, 18999.86
505.4641, 19000.70
505.9462, 18941.40
506.4283, 18896.65
506.9105, 18891.28
507.3926, 18916.25
507.8747, 18941.60
508.3568, 18968.08
508.8389, 18981.49
509.3210, 18961.15
509.8032, 18919.81
510.2853, 18895.02
510.7674, 18894.80
511.2495, 18896.92
511.7316, 18867.42
512.2137, 18823.89
512.6959, 18802.45
513.1780, 18839.95
513.6601, 18886.07
514.1422, 18904.61
514.6243, 18899.79
515.1064, 18902.90
515.5886, 18958.55
516.0707, 19003.26
516.5528, 18989.54
517.0349, 18857.55
517.5170, 18779.88
517.9991, 18820.04
518.4813, 18905.35
518.9634, 18942.69
519.4455, 18894.29
519.9276, 18863.79
520.4097, 18880.97
520.8918, 18935.44
521.3740, 18957.84
521.8561, 18940.94
522.3382, 18915.88
522.8203, 18900.04
523.3024, 18893.38
523.7845, 18893.23
524.2667, 18899.66
524.7488, 18912.13
525.2309, 18935.40
525.7130, 18965.48
526.1951, 18987.89
526.6772, 18996.12
527.1594, 18995.99
527.6415, 18992.19
528.1236, 18985.28
528.6057, 18977.65
529.0878, 18968.27
529.5699, 18960.29
530.0521, 18956.78
530.5342, 18959.07
531.0163, 18961.35
531.4984, 18967.69
531.9805, 18970.56
532.4626, 18962.08
532.9448, 18912.11
533.4269, 18886.20
533.9090, 18902.66
534.3911, 18949.68
534.8732, 18979.20
535.3553, 18980.71
535.8375, 18985.38
536.3196, 19013.56
536.8017, 19068.28
537.2838, 19082.13
537.7659, 19044.51
538.2480, 19001.41
538.7302, 19012.57
539.2123, 19068.48
539.6944, 19099.46
540.1765, 19081.11
540.6586, 19048.51
541.1407, 19052.11
541.6229, 19084.14
542.1050, 19116.49
542.5871, 19138.84
543.0692, 19151.68
543.5513, 19151.28
544.0334, 19137.67
544.5156, 19126.57
544.9977, 19120.30
545.4798, 19122.49
545.9619, 19137.60
546.4440, 19189.15
546.9261, 19219.81
547.4083, 19207.60
547.8904, 19172.23
548.3725, 19148.07
548.8546, 19130.15
549.3367, 19132.05
549.8188, 19163.47
550.3010, 19221.04
550.7831, 19264.52
551.2652, 19291.11
551.7473, 19313.04
552.2294, 19340.83
552.7115, 19373.15
553.1937, 19395.00
553.6758, 19404.77
554.1579, 19405.79
554.6400, 19392.48
555.1221, 19372.74
555.6042, 19369.54
556.0864, 19397.33
556.5685, 19438.80
557.0506, 19486.01
557.5327, 19535.02
558.0148, 19570.29
558.4969, 19569.96
558.9791, 19564.35
559.4612, 19575.52
559.9433, 19611.59
560.4254, 19633.53
560.9075, 19618.20
561.3896, 19594.65
561.8718, 19588.04
562.3539, 19603.42
562.8360, 19628.22
563.3181, 19666.60
563.8002, 19711.17
564.2823, 19742.30
564.7645, 19755.69
565.2466, 19773.85
565.7287, 19805.65
566.2108, 19849.33
566.6929, 19907.76
567.1750, 19982.28
567.6572, 20029.80
568.1393, 19986.14
568.6214, 19893.35
569.1035, 19839.11
569.5856, 19842.26
570.0677, 19861.53
570.5499, 19863.41
571.0320, 19858.57
571.5141, 19863.88
571.9962, 19892.80
572.4783, 19925.75
572.9604, 19965.44
573.4426, 20006.11
573.9247, 20020.10
574.4068, 19964.38
574.8889, 19916.28
575.3710, 19906.90
575.8531, 19943.30
576.3353, 19984.13
576.8174, 20038.45
577.2995, 20083.15
577.7816, 20090.75
578.2637, 20056.98
578.7458, 20030.48
579.2280, 20018.24
579.7101, 20016.31
580.1922, 20021.38
580.6743, 20031.98
581.1564, 20039.85
581.6385, 20044.10
582.1207, 20041.88
582.6028, 20027.40
583.0849, 20001.78
583.5670, 19972.84
584.0491, 19940.75
584.5313, 19910.03
585.0134, 19883.21
585.4955, 19859.14
585.9776, 19844.23
586.4597, 19849.93
586.9418, 19861.68
587.4240, 19862.79
587.9061, 19846.57
588.3882, 19829.44
588.8703, 19812.25
589.3524, 19795.50
589.8345, 19782.49
590.3167, 19775.97
590.7988, 19761.87
591.2809, 19727.31
591.7630, 19679.30
592.2451, 19664.20
592.7272, 19683.69
593.2094, 19695.72
593.6915, 19658.26
594.1736, 19589.90
594.6557, 19518.29
595.1378, 19442.25
595.6199, 19393.39
596.1021, 19421.60
596.5842, 19485.51
597.0663, 19526.29
597.5484, 19516.62
598.0305, 19488.23
598.5126, 19434.96
598.9948, 19366.84
599.4769, 19326.24
599.9590, 19339.59
600.4411, 19350.76
600.9232, 19340.11
601.4053, 19305.85
601.8875, 19277.19
602.3696, 19254.73
602.8517, 19236.94
603.3339, 19227.94
603.8160, 19226.13
604.2981, 19205.30
604.7802, 19156.76
605.2623, 19109.88
605.7444, 19112.79
606.2266, 19148.91
606.7087, 19173.52
607.1908, 19163.91
607.6729, 19143.42
608.1550, 19127.05
608.6371, 19114.59
609.1193, 19104.78
609.6014, 19110.85
610.0835, 19107.65
610.5656, 19074.97
611.0477, 19004.66
611.5298, 18962.22
612.0120, 18969.96
612.4941, 18986.05
612.9762, 18980.83
613.4583, 18944.29
613.9404, 18923.46
614.4225, 18923.07
614.9047, 18933.97
615.3868, 18948.19
615.8689, 18964.77
616.3510, 18968.07
616.8331, 18948.38
617.3152, 18919.93
617.7974, 18903.74
618.2795, 18897.76
618.7616, 18892.93
619.2437, 18874.62
619.7258, 18862.79
620.2079, 18884.78
620.6901, 18940.96
621.1722, 18969.51
621.6543, 18928.25
622.1364, 18866.76
622.6185, 18815.46
623.1006, 18771.56
623.5828, 18748.03
624.0649, 18750.96
624.5470, 18768.65
625.0291, 18788.70
625.5112, 18811.75
625.9933, 18835.90
626.4755, 18865.72
626.9576, 18889.47
627.4397, 18875.29
627.9218, 18827.72
628.4039, 18781.49
628.8860, 18754.38
629.3682, 18738.00
629.8503, 18716.38
630.3324, 18692.11
630.8145, 18685.98
631.2966, 18742.07
631.7787, 18798.41
632.2609, 18801.50
632.7430, 18723.77
633.2251, 18675.31
633.7072, 18710.91
634.1893, 18764.09
634.6714, 18778.93
635.1536, 18735.01
635.6357, 18695.64
636.1178, 18660.25
636.5999, 18637.14
637.0820, 18656.18
637.5641, 18720.22
638.0463, 18748.71
638.5284, 18694.29
639.0105, 18607.07
639.4926, 18597.51
639.9747, 18652.67
640.4568, 18697.71
640.9390, 18668.45
641.4211, 18620.71
641.9032, 18610.39
642.3853, 18641.37
642.8674, 18667.78
643.3495, 18657.94
643.8317, 18646.08
644.3138, 18658.84
644.7959, 18731.17
645.2780, 18763.57
645.7601, 18731.37
646.2422, 18680.89
646.7244, 18673.34
647.2065, 18722.49
647.6886, 18738.85
648.1707, 18694.03
648.6528, 18626.62
649.1349, 18620.54
649.6171, 18667.73
650.0992, 18710.59
650.5813, 18710.89
651.0634, 18699.25
651.5455, 18716.99
652.0276, 18758.83
652.5098, 18795.55
652.9919, 18815.67
653.4740, 18822.69
653.9561, 18814.84
654.4382, 18788.47
654.9203, 18769.00
655.4025, 18757.89
655.8846, 18755.87
656.3667, 18762.86
656.8488, 18776.53
657.3309, 18809.68
657.8130, 18870.18
658.2952, 18937.03
658.7773, 18982.54
659.2594, 19007.74
659.7415, 19017.89
660.2236, 19007.20
660.7057, 18994.19
661.1879, 19009.56
661.6700, 19044.84
662.1521, 19076.37
662.6342, 19090.18
663.1163, 19098.72
663.5984, 19108.72
664.0806, 19120.20
664.5627, 19131.42
665.0448, 19138.09
665.5269, 19148.01
666.0090, 19167.09
666.4911, 19198.09
666.9733, 19214.89
667.4554, 19211.79
667.9375, 19205.81
668.4196, 19215.65
668.9017, 19240.26
669.3839, 19244.40
669.8660, 19222.15
670.3481, 19192.59
670.8302, 19167.08
671.3123, 19151.91
671.7944, 19162.05
672.2766, 19211.10
672.7587, 19271.98
673.2408, 19344.54
673.7229, 19414.36
674.2050, 19454.79
674.6871, 19420.50
675.1693, 19396.95
675.6514, 19417.36
676.1335, 19470.75
676.6156, 19497.52
677.0977, 19485.91
677.5798, 19474.12
678.0620, 19475.95
678.5441, 19491.55
679.0262, 19527.65
679.5083, 19586.01
679.9904, 19641.06
680.4725, 19661.65
680.9547, 19668.18
681.4368, 19697.92
681.9189, 19756.11
682.4010, 19825.75
682.8831, 19909.02
683.3652, 19990.84
683.8474, 20054.24
684.3295, 20082.39
684.8116, 20112.70
685.2937, 20136.27
685.7758, 20171.53
686.2579, 20253.00
686.7401, 20417.88
687.2222, 20523.00
687.7043, 20528.72
688.1864, 20472.40
688.6685, 20430.68
689.1506, 20404.46
689.6328, 20409.80
690.1149, 20486.35
690.5970, 20577.54
691.0791, 20589.03
691.5612, 20533.98
692.0433, 20479.67
692.5255, 20469.43
693.0076, 20464.94
693.4897, 20435.66
693.9718, 20375.59
694.4539, 20339.46
694.9360, 20372.66
695.4182, 20396.22
695.9003, 20361.53
696.3824, 20248.75
696.8645, 20166.33
697.3466, 20121.49
697.8287, 20088.03
698.3109, 20039.19
698.7930, 19977.12
699.2751, 19910.91
699.7572, 19840.43
700.2393, 19774.91
700.7214, 19717.28
701.2036, 19672.90
701.6857, 19650.91
702.1678, 19664.46
702.6499, 19689.38
703.1320, 19734.51
703.6141, 19784.05
704.0963, 19795.13
704.5784, 19713.73
705.0605, 19676.18
705.5426, 19729.64
706.0247, 19848.02
706.5068, 19910.41
706.9890, 19911.64
707.4711, 19903.29
707.9532, 19902.89
708.4353, 19914.37
708.9174, 19948.32
709.3995, 20004.24
709.8817, 20077.17
710.3638, 20167.05
710.8459, 20269.81
711.3280, 20379.32
711.8101, 20495.05
712.2922, 20625.28
712.7744, 20755.23
713.2565, 20915.20
713.7386, 21127.79
714.2207, 21416.07
714.7028, 21697.92
715.1849, 21971.38
715.6671, 22246.66
716.1492, 22532.91
716.6313, 22830.79
717.1134, 23186.76
717.5955, 23616.21
718.0776, 24070.85
718.5598, 24473.78
719.0419, 24855.92
719.5240, 25275.77
720.0061, 25775.13
720.4882, 26296.19
720.9703, 26815.94
721.4525, 27341.56
721.9346, 27891.77
722.4167, 28488.43
722.8988, 29096.51
723.3809, 29727.47
723.8630, 30363.77
724.3452, 30940.86
724.8273, 31458.35
725.3094, 31910.59
725.7915, 32331.65
726.2736, 32667.42
726.7557, 32765.91
727.2379, 32638.40
727.7200, 32373.89
728.2021, 32026.79
728.6842, 31571.43
729.1663, 30950.21
729.6484, 30156.99
730.1306, 29357.90
730.6127, 28556.46
731.0948, 27799.98
731.5769, 27103.63
732.0590, 26455.87
732.5411, 25899.08
733.0233, 25452.30
733.5054, 25053.76
733.9875, 24647.03
734.4696, 24234.82
734.9517, 23845.26
735.4338, 23475.00
735.9160, 23152.53
736.3981, 22940.21
736.8802, 22783.85
737.3623, 22602.80
737.8444, 22363.55
738.3265, 22119.47
738.8087, 21880.25
739.2908, 21649.25
739.7729, 21435.30
740.2550, 21249.22
740.7371, 21055.95
741.2192, 20842.66
741.7014, 20627.49
742.1835, 20445.18
742.6656, 20296.67
743.1477, 20180.49
743.6299, 20100.81
744.1120, 20045.70
744.5941, 20009.12
745.0762, 19983.34
745.5583, 19943.13
746.0405, 19861.55
746.5226, 19776.05
747.0047, 19705.71
747.4868, 19649.54
747.9689, 19600.84
748.4510, 19569.30
748.9332, 19532.34
749.4153, 19484.07
749.8974, 19424.58
750.3795, 19351.09
750.8616, 19262.60
751.3438, 19170.39
751.8259, 19074.69
752.3080, 18982.36
752.7901, 18911.40
753.2722, 18861.46
753.7543, 18812.59
754.2365, 18746.39
754.7186, 18679.13
755.2007, 18624.20
755.6828, 18583.29
756.1649, 18550.95
756.6470, 18530.75
757.1292, 18514.50
757.6113, 18495.25
758.0934, 18468.25
758.5755, 18464.07
759.0576, 18489.14
759.5397, 18515.38
760.0219, 18501.76
760.5040, 18464.71
760.9861, 18464.05
761.4682, 18516.59
761.9503, 18564.02
762.4324, 18539.99
762.9146, 18493.58
763.3967, 18484.50
763.8788, 18561.35
764.3609, 18620.16
764.8430, 18628.00
765.3251, 18618.23
765.8073, 18629.24
766.2894, 18667.23
766.7715, 18701.31
767.2536, 18726.76
767.7357, 18747.13
768.2178, 18764.48
768.7000, 18781.11
769.1821, 18806.54
769.6642, 18847.26
770.1463, 18892.59
770.6284, 18936.52
771.1105, 18977.98
771.5927, 19014.87
772.0748, 19048.75
772.5569, 19075.21
773.0390, 19089.83
773.5211, 19097.01
774.0032, 19110.55
774.4854, 19136.98
774.9675, 19142.85
775.4496, 19108.08
775.9317, 19055.16
776.4138, 19045.21
776.8959, 19071.31
777.3781, 19095.52
777.8602, 19090.51
778.3423, 19081.21
778.8244, 19091.46
779.3065, 19116.57
779.7886, 19135.84
780.2708, 19144.31
780.7529, 19144.01
781.2350, 19134.42
781.7171, 19116.47
782.1992, 19098.26
782.6813, 19079.79
783.1635, 19061.96
783.6456, 19050.61
784.1277, 19039.56
784.6098, 18994.36
785.0919, 18920.67
785.5740, 18872.14
786.0562, 18915.63
786.5383, 18975.18
787.0204, 18981.91
787.5025, 18931.98
787.9846, 18889.39
788.4667, 18886.29
788.9489, 18876.93
789.4310, 18834.52
789.9131, 18755.68
790.3952, 18720.70
790.8773, 18738.78
791.3594, 18759.10
791.8416, 18750.56
792.3237, 18714.22
792.8058, 18634.54
793.2879, 18511.55
793.7700, 18419.62
794.2521, 18444.46
794.7343, 18498.88
795.2164, 18508.06
795.6985, 18450.18
796.1806, 18406.17
796.6627, 18395.78
797.1448, 18388.92
797.6270, 18365.34
798.1091, 18322.18
798.5912, 18288.03
799.0733, 18265.15
799.5554, 18238.35
800.0375, 18183.84
800.5197, 18117.63
801.0018, 18073.00
801.4839, 18057.01
801.9660, 18042.71
802.4481, 18011.76
802.9302, 17976.63
803.4124, 17949.09
803.8945, 17940.74
804.3766, 17915.85
804.8587, 17865.59
805.3408, 17810.47
805.8229, 17771.54
806.3051, 17748.63
806.7872, 17716.37
807.2693, 17671.60
807.7514, 17622.75
808.2335, 17573.36
808.7156, 17526.79
809.1978, 17487.91
809.6799, 17457.57
810.1620, 17435.45
810.6441, 17438.35
811.1262, 17439.61
811.6083, 17410.12
812.0905, 17320.07
812.5726, 17269.99
813.0547, 17273.96
813.5368, 17295.51
814.0189, 17300.31
814.5010, 17287.20
814.9832, 17240.57
815.4653, 17149.74
815.9474, 17066.74
816.4295, 17051.08
816.9116, 17066.13
817.3937, 17065.96
817.8759, 17030.96
818.3580, 16997.02
818.8401, 16973.06
819.3222, 16952.47
819.8043, 16929.92
820.2864, 16906.31
820.7686, 16872.78
821.2507, 16823.58
821.7328, 16780.16
822.2149, 16782.22
822.6970, 16811.79
823.1791, 16824.31
823.6613, 16809.54
824.1434, 16776.82
824.6255, 16704.59
825.1076, 16630.44
825.5897, 16597.34
826.0718, 16658.11
826.5540, 16694.70
827.0361, 16697.13
827.5182, 16686.83
828.0003, 16690.51
828.4824, 16707.91
828.9645, 16718.53
829.4467, 16718.23
829.9288, 16715.04
830.4109, 16722.43
830.8930, 16731.59
831.3751, 16725.48
831.8572, 16684.65
832.3394, 16663.09
832.8215, 16694.88
833.3036, 16747.46
833.7857, 16784.36
834.2678, 16800.28
834.7499, 16815.28
835.2321, 16831.72
835.7142, 16844.35
836.1963, 16842.80
836.6784, 16831.37
837.1605, 16825.17
837.6426, 16826.69
838.1248, 16835.76
838.6069, 16862.12
839.0890, 16891.25
839.5711, 16905.08
840.0532, 16878.00
840.5353, 16876.75
841.0175, 16911.90
841.4996, 16966.49
841.9817, 17029.81
842.4638, 17103.41
842.9459, 17150.37
843.4280, 17163.37
843.9102, 17169.67
844.3923, 17197.15
844.8744, 17238.84
845.3565, 17288.45
845.8386, 17353.59
846.3207, 17393.89
846.8029, 17373.02
847.2850, 17332.62
847.7671, 17308.26
848.2492, 17301.34
848.7313, 17311.04
849.2134, 17343.15
849.6956, 17376.99
850.1777, 17396.19
850.6598, 17400.34
851.1419, 17382.15
851.6240, 17338.15
852.1061, 17298.43
852.5883, 17297.20
853.0704, 17303.66
853.5525, 17290.69
854.0346, 17253.67
854.5167, 17192.65
854.9988, 17066.86
855.4810, 16970.53
855.9631, 17000.18
856.4452, 17159.26
856.9273, 17192.87
857.4094, 17087.01
857.8915, 16966.66
858.3737, 16944.04
858.8558, 16971.42
859.3379, 16996.26
859.8200, 17013.14
860.3021, 17011.90
860.7842, 16960.82
861.2664, 16915.00
861.7485, 16908.97
862.2306, 16948.06
862.7127, 16969.33
863.1948, 16967.82
863.6769, 16971.15
864.1591, 17002.69
864.6412, 17052.93
865.1233, 17101.31
865.6054, 17147.59
866.0875, 17193.46
866.5696, 17240.56
867.0518, 17287.75
867.5339, 17338.58
868.0160, 17393.93
868.4981, 17427.72
868.9802, 17431.63
869.4623, 17432.65
869.9445, 17452.46
870.4266, 17479.10
870.9087, 17447.70
871.3908, 17362.69
871.8729, 17276.10
872.3550, 17220.38
872.8372, 17174.94
873.3193, 17126.94
873.8014, 17074.73
874.2835, 17014.99
874.7656, 16934.77
875.2477, 16861.66
875.7299, 16804.84
876.2120, 16760.09
876.6941, 16703.68
877.1762, 16635.85
877.6583, 16586.95
878.1404, 16583.09
878.6226, 16592.38
879.1047, 16571.98
879.5868, 16530.69
880.0689, 16490.65
880.5510, 16455.81
881.0331, 16428.73
881.5153, 16417.29
881.9974, 16411.79
882.4795, 16391.30
882.9616, 16353.23
883.4437, 16311.80
883.9258, 16264.76
884.4080, 16228.06
884.8901, 16240.35
885.3723, 16282.24
885.8544, 16308.55
886.3365, 16300.47
886.8186, 16278.80
887.3007, 16239.16
887.7828, 16196.95
888.2650, 16175.57
888.7471, 16188.95
889.2292, 16183.50
889.7113, 16147.07
890.1934, 16108.43
890.6755, 16116.06
891.1577, 16152.42
891.6398, 16159.79
892.1219, 16123.17
892.6040, 16078.89
893.0861, 16038.39
893.5682, 16010.60
894.0504, 16005.95
894.5325, 16035.58
895.0146, 16067.03
895.4967, 16107.74
895.9788, 16136.46
896.4609, 16126.64
896.9431, 16085.88
897.4252, 16061.40
897.9073, 16055.81
898.3894, 16057.61
898.8715, 16064.45
899.3536, 16070.12
899.8358, 16066.09
900.3179, 16050.08
900.8000, 16047.18
901.2821, 16073.14
901.7642, 16092.52
902.2463, 16086.65
902.7285, 16059.48
903.2106, 16040.43
903.6927, 16029.25
904.1748, 16017.39
904.6569, 15994.47
905.1390, 15972.00
905.6212, 15964.77
906.1033, 15969.21
906.5854, 15968.54
907.0675, 15955.71
907.5496, 15939.51
908.0317, 15918.74
908.5139, 15897.42
908.9960, 15890.04
909.4781, 15896.73
909.9602, 15900.65
910.4423, 15894.04
910.9244, 15884.98
911.4066, 15876.54
911.8887, 15874.03
912.3708, 15887.23
912.8529, 15950.73
913.3350, 15989.59
913.8171, 15980.42
914.2993, 15948.17
914.7814, 15922.48
915.2635, 15903.27
915.7456, 15891.53
916.2277, 15887.41
916.7098, 15890.70
917.1920, 15908.73
917.6741, 15931.06
918.1562, 15943.08
918.6383, 15942.20
919.1204, 15929.01
919.6025, 15882.31
920.0847, 15840.93
920.5668, 15835.44
921.0489, 15873.87
921.5310, 15888.31
922.0131, 15876.37
922.4952, 15860.29
922.9774, 15856.83
923.4595, 15861.25
923.9416, 15869.15
924.4237, 15879.59
924.9058, 15885.13
925.3879, 15885.05
925.8701, 15876.34
926.3522, 15850.97
926.8343, 15813.76
927.3164, 15807.86
927.7985, 15836.33
928.2806, 15868.00
928.7628, 15895.44
929.2449, 15910.99
929.7270, 15887.63
930.2091, 15842.08
930.6912, 15819.09
931.1733, 15862.85
931.6555, 15901.85
932.1376, 15909.88
932.6197, 15902.00
933.1018, 15906.35
933.5839, 15927.45
934.0660, 15919.42
934.5482, 15862.09
935.0303, 15810.02
935.5124, 15859.29
935.9945, 15956.00
936.4766, 16001.81
936.9587, 15956.31
937.4409, 15910.04
937.9230, 15883.02
938.4051, 15873.47
938.8872, 15882.95
939.3693, 15916.12
939.8514, 15943.20
940.3336, 15964.39
940.8157, 15975.64
941.2978, 15966.39
941.7799, 15948.65
942.2620, 15938.41
942.7441, 15936.76
943.2263, 15941.51
943.7084, 15961.38
944.1905, 15977.16
944.6726, 15978.04
945.1547, 15967.79
945.6368, 15970.74
946.1190, 15987.46
946.6011, 16008.05
947.0832, 16027.38
947.5653, 16049.05
948.0474, 16088.26
948.5295, 16133.30
949.0117, 16156.99
949.4938, 16131.97
949.9759, 16106.80
950.4580, 16087.30
950.9401, 16075.02
951.4222, 16074.34
951.9044, 16085.41
952.3865, 16095.17
952.8686, 16100.26
953.3507, 16109.94
953.8328, 16132.18
954.3149, 16165.80
954.7971, 16218.45
955.2792, 16308.28
955.7613, 16345.96
956.2434, 16282.00
956.7255, 16207.48
957.2076, 16174.97
957.6898, 16183.58
958.1719, 16205.80
958.6540, 16241.58
959.1361, 16275.73
959.6182, 16305.81
960.1003, 16323.59
960.5825, 16312.88
961.0646, 16279.73
961.5467, 16260.25
962.0288, 16260.38
962.5109, 16278.48
962.9930, 16326.33
963.4752, 16381.41
963.9573, 16373.17
964.4394, 16313.64
964.9215, 16278.23
965.4036, 16300.25
965.8857, 16337.10
966.3679, 16362.73
966.8500, 16378.98
967.3321, 16387.98
967.8142, 16383.72
968.2963, 16384.80
968.7784, 16394.93
969.2606, 16403.03
969.7427, 16396.18
970.2248, 16377.81
970.7069, 16357.58
971.1890, 16336.44
971.6711, 16321.94
972.1533, 16322.93
972.6354, 16329.21
973.1175, 16339.47
973.5996, 16352.52
974.0817, 16341.45
974.5638, 16298.50
975.0460, 16259.23
975.5281, 16240.44
976.0102, 16232.37
976.4923, 16209.17
976.9744, 16178.53
977.4565, 16163.12
977.9387, 16209.17
978.4208, 16229.59
978.9029, 16162.40
979.3850, 16067.28
979.8671, 16031.01
980.3492, 16069.24
980.8314, 16071.17
981.3135, 16018.80
981.7956, 15955.71
982.2777, 15928.08
982.7598, 15920.55
983.2419, 15913.24
983.7241, 15903.75
984.2062, 15889.62
984.6883, 15865.82
985.1704, 15841.77
985.6525, 15825.54
986.1346, 15814.47
986.6168, 15772.23
987.0989, 15700.13
987.5810, 15638.11
988.0631, 15615.29
988.5452, 15607.83
989.0273, 15599.18
989.5095, 15588.01
989.9916, 15571.11
990.4737, 15545.91
990.9558, 15516.90
991.4379, 15481.70
991.9200, 15447.49
992.4022, 15427.92
992.8843, 15419.90
993.3664, 15409.61
993.8485, 15394.62
994.3306, 15377.25
994.8127, 15362.56
995.2949, 15343.76
995.7770, 15312.80
996.2591, 15267.31
996.7412, 15225.26
997.2233, 15183.97
997.7054, 15157.32
998.1876, 15168.24
998.6697, 15193.99
999.1518, 15176.54
999.6339, 15126.66
1000.116, 15087.54
1000.598, 15096.34
1001.080, 15097.93
1001.562, 15060.77
1002.044, 15010.12
1002.527, 14994.24
1003.009, 15016.05
1003.491, 15033.50
1003.973, 15039.95
1004.455, 15035.49
1004.937, 15016.87
1005.419, 14988.86
1005.901, 14957.16
1006.384, 14922.37
1006.866, 14884.50
1007.348, 14831.55
1007.830, 14794.29
1008.312, 14799.82
1008.794, 14837.30
1009.276, 14836.06
1009.758, 14801.03
1010.240, 14773.46
1010.723, 14791.37
1011.205, 14810.58
1011.687, 14789.42
1012.169, 14749.67
1012.651, 14753.69
1013.133, 14826.15
1013.615, 14872.11
1014.097, 14874.64
1014.580, 14853.95
1015.062, 14834.44
1015.544, 14813.29
1016.026, 14784.15
1016.508, 14745.04
1016.990, 14703.47
1017.472, 14644.07
1017.954, 14601.54
1018.436, 14602.07
1018.919, 14642.78
1019.401, 14655.55
1019.883, 14640.29
1020.365, 14630.96
1020.847, 14666.76
1021.329, 14701.55
1021.811, 14679.92
1022.293, 14621.77
1022.776, 14575.27
1023.258, 14542.36
1023.740, 14538.20
1024.222, 14578.77
1024.704, 14624.37
1025.186, 14612.01
1025.668, 14558.34
1026.150, 14521.04
1026.632, 14508.90
1027.115, 14500.71
1027.597, 14483.81
1028.079, 14466.41
1028.561, 14451.81
1029.043, 14440.29
1029.525, 14441.89
1030.007, 14457.56
1030.489, 14479.58
1030.972, 14515.83
1031.454, 14543.53
1031.936, 14517.50
1032.418, 14460.37
1032.900, 14421.07
1033.382, 14426.06
1033.864, 14435.57
1034.346, 14451.66
1034.828, 14462.01
1035.311, 14442.46
1035.793, 14400.84
1036.275, 14397.05
1036.757, 14436.05
1037.239, 14471.94
1037.721, 14476.28
1038.203, 14462.40
1038.685, 14430.04
1039.167, 14383.66
1039.650, 14356.71
1040.132, 14350.09
1040.614, 14363.71
1041.096, 14409.45
1041.578, 14454.71
1042.060, 14426.81
1042.542, 14364.22
1043.024, 14341.75
1043.507, 14413.22
1043.989, 14463.22
1044.471, 14470.86
1044.953, 14452.03
1045.435, 14405.27
1045.917, 14335.45
1046.399, 14314.40
1046.881, 14341.29
1047.364, 14368.93
1047.846, 14355.06
1048.328, 14340.56
1048.810, 14368.29
1049.292, 14421.29
1049.774, 14419.21
1050.256, 14334.66
1050.738, 14295.29
1051.220, 14337.04
1051.703, 14405.05
1052.185, 14420.51
1052.667, 14406.55
1053.149, 14401.26
1053.631, 14413.37
1054.113, 14428.15
1054.595, 14434.85
1055.077, 14452.27
1055.559, 14501.16
1056.042, 14571.07
1056.524, 14580.41
1057.006, 14537.04
1057.488, 14505.36
1057.970, 14525.01
1058.452, 14562.67
1058.934, 14604.80
1059.416, 14648.90
1059.899, 14689.95
1060.381, 14727.80
1060.863, 14763.22
1061.345, 14796.02
1061.827, 14828.00
1062.309, 14862.13
1062.791, 14896.75
1063.273, 14924.48
1063.755, 14945.63
1064.238, 14982.52
1064.720, 15023.30
1065.202, 15106.47
1065.684, 15244.54
1066.166, 15431.41
1066.648, 15640.12
1067.130, 15876.97
1067.612, 16188.94
1068.094, 16598.06
1068.577, 17069.90
1069.059, 17569.07
1069.541, 18138.49
1070.023, 18814.94
1070.505, 19599.61
1070.987, 20508.75
1071.469, 21555.53
1071.951, 22700.56
1072.434, 23917.85
1072.916, 25230.36
1073.398, 26682.17
1073.880, 28273.51
1074.362, 29982.13
1074.844, 31848.56
1075.326, 33810.52
1075.808, 35893.82
1076.291, 38051.37
1076.773, 40313.68
1077.255, 42605.43
1077.737, 44712.42
1078.219, 46591.18
1078.701, 48083.27
1079.183, 49073.26
1079.665, 49623.52
1080.147, 49783.82
1080.630, 49576.29
1081.112, 49086.83
1081.594, 48322.91
1082.076, 47499.80
1082.558, 46638.61
1083.040, 45863.80
1083.522, 45227.02
1084.004, 44770.90
1084.486, 44574.58
1084.969, 44693.54
1085.451, 44936.22
1085.933, 45349.06
1086.415, 45702.94
1086.897, 45883.39
1087.379, 45856.29
1087.861, 45557.92
1088.343, 44996.25
1088.826, 44207.45
1089.308, 43045.69
1089.790, 41860.96
1090.272, 40673.36
1090.754, 39548.46
1091.236, 38522.74
1091.718, 37638.64
1092.200, 37115.75
1092.682, 37001.79
1093.165, 37091.87
1093.647, 37304.93
1094.129, 37645.80
1094.611, 38138.50
1095.093, 38763.20
1095.575, 39441.35
1096.057, 40177.58
1096.539, 40870.25
1097.022, 41519.17
1097.504, 42005.25
1097.986, 42245.15
1098.468, 42221.53
1098.950, 41904.68
1099.432, 41291.58
1099.914, 40345.99
1100.396, 39045.86
1100.879, 37543.32
1101.361, 35914.96
1101.843, 34183.88
1102.325, 32308.93
1102.807, 30326.56
1103.289, 28411.98
1103.771, 26568.36
1104.253, 24858.76
1104.735, 23260.34
1105.218, 21784.46
1105.700, 20471.26
1106.182, 19303.24
1106.664, 18250.03
1107.146, 17295.24
1107.628, 16482.00
1108.110, 15865.17
1108.592, 15356.26
1109.074, 14919.05
1109.557, 14546.50
1110.039, 14249.37
1110.521, 14025.86
1111.003, 13847.47
1111.485, 13714.36
1111.967, 13603.55
1112.449, 13497.42
1112.931, 13402.42
1113.414, 13328.96
1113.896, 13284.96
1114.378, 13222.78
1114.860, 13137.14
1115.342, 13056.39
1115.824, 12997.59
1116.306, 12952.42
1116.788, 12904.76
1117.271, 12860.81
1117.753, 12833.84
1118.235, 12855.56
1118.717, 12851.96
1119.199, 12809.85
1119.681, 12758.36
1120.163, 12724.64
1120.645, 12704.98
1121.127, 12695.57
1121.609, 12693.22
1122.092, 12674.60
1122.574, 12610.80
1123.056, 12549.39
1123.538, 12502.95
1124.020, 12470.39
1124.502, 12449.97
1124.984, 12441.56
1125.466, 12450.10
1125.949, 12479.85
1126.431, 12495.83
1126.913, 12458.56
1127.395, 12411.05
1127.877, 12386.00
1128.359, 12380.51
1128.841, 12363.80
1129.323, 12334.45
1129.806, 12322.16
1130.288, 12348.52
1130.770, 12373.03
1131.252, 12341.37
1131.734, 12289.29
1132.216, 12268.08
1132.698, 12300.27
1133.180, 12296.75
1133.662, 12250.11
1134.145, 12199.02
1134.627, 12166.35
1135.109, 12145.13
1135.591, 12123.05
1136.073, 12103.72
1136.555, 12096.88
1137.037, 12133.05
1137.519, 12136.59
1138.001, 12093.30
1138.484, 12037.67
1138.966, 12002.21
1139.448, 11983.29
1139.930, 11980.00
1140.412, 11989.14
1140.894, 11986.40
1141.376, 11948.35
1141.858, 11913.72
1142.341, 11891.83
1142.823, 11879.40
1143.305, 11871.71
1143.787, 11868.06
1144.269, 11865.94
1144.751, 11865.32
1145.233, 11861.84
1145.715, 11852.13
1146.198, 11839.44
1146.680, 11825.66
1147.162, 11810.63
1147.644, 11793.99
1148.126, 11775.69
1148.608, 11754.07
1149.090, 11721.41
1149.572, 11703.68
1150.054, 11752.16
1150.536, 11802.14
1151.019, 11784.31
1151.501, 11691.53
1151.983, 11627.35
1152.465, 11592.24
1152.947, 11566.18
1153.429, 11537.66
1153.911, 11514.13
1154.393, 11503.44
1154.876, 11502.76
1155.358, 11509.14
1155.840, 11528.43
1156.322, 11532.27
1156.804, 11517.21
1157.286, 11502.77
1157.768, 11514.00
1158.250, 11528.31
1158.733, 11508.30
1159.215, 11465.17
1159.697, 11445.55
1160.179, 11480.14
1160.661, 11481.90
1161.143, 11431.28
1161.625, 11372.74
1162.107, 11363.29
1162.589, 11377.85
1163.072, 11377.86
1163.554, 11360.05
1164.036, 11328.68
1164.518, 11259.71
1165.000, 11223.52
1165.482, 11250.10
1165.964, 11296.57
1166.446, 11274.87
1166.928, 11214.91
1167.411, 11187.85
1167.893, 11212.68
1168.375, 11226.17
1168.857, 11195.29
1169.339, 11164.78
1169.821, 11152.70
1170.303, 11152.10
1170.785, 11142.98
1171.268, 11127.73
1171.750, 11114.58
1172.232, 11108.97
1172.714, 11098.61
1173.196, 11071.55
1173.678, 11045.42
1174.160, 11035.31
1174.642, 11036.25
1175.125, 11008.09
1175.607, 10957.56
1176.089, 10923.43
1176.571, 10944.49
1177.053, 10958.18
1177.535, 10921.86
1178.017, 10876.80
1178.499, 10865.82
1178.981, 10888.19
1179.464, 10882.89
1179.946, 10850.80
1180.428, 10819.15
1180.910, 10797.63
1181.392, 10789.28
1181.874, 10813.03
1182.356, 10842.06
1182.838, 10831.89
1183.320, 10780.79
1183.803, 10734.80
1184.285, 10697.04
1184.767, 10679.88
1185.249, 10717.88
1185.731, 10755.08
1186.213, 10745.42
1186.695, 10704.79
1187.177, 10683.99
1187.660, 10685.86
1188.142, 10656.66
1188.624, 10583.29
1189.106, 10515.96
1189.588, 10501.38
1190.070, 10509.44
1190.552, 10524.68
1191.034, 10542.01
1191.516, 10534.30
1191.999, 10497.92
1192.481, 10470.82
1192.963, 10463.38
1193.445, 10463.93
1193.927, 10468.68
1194.409, 10470.25
1194.891, 10461.68
1195.373, 10442.43
1195.855, 10408.34
1196.338, 10356.72
1196.820, 10312.47
1197.302, 10287.30
1197.784, 10270.12
1198.266, 10249.23
1198.748, 10229.07
1199.230, 10216.91
1199.712, 10215.97
1200.195, 10206.92
1200.677, 10189.19
1201.159, 10166.62
1201.641, 10135.42
1202.123, 10108.02
1202.605, 10099.15
1203.087, 10103.93
1203.569, 10116.97
1204.052, 10150.85
1204.534, 10150.10
1205.016, 10111.10
1205.498, 10059.08
1205.980, 9993.002
1206.462, 9937.687
1206.944, 9928.275
1207.426, 9950.449
1207.908, 9974.651
1208.391, 10010.37
1208.873, 10006.57
1209.355, 9954.207
1209.837, 9899.311
1210.319, 9888.402
1210.801, 9890.870
1211.283, 9868.748
1211.765, 9829.776
1212.247, 9806.328
1212.730, 9806.043
1213.212, 9803.991
1213.694, 9797.829
1214.176, 9788.760
1214.658, 9779.193
1215.140, 9766.246
1215.622, 9741.162
1216.104, 9707.830
1216.587, 9693.005
1217.069, 9708.590
1217.551, 9702.530
1218.033, 9661.728
1218.515, 9617.770
1218.997, 9619.408
1219.479, 9628.109
1219.961, 9589.070
1220.443, 9504.188
1220.926, 9457.930
1221.408, 9461.500
1221.890, 9475.568
1222.372, 9496.635
1222.854, 9505.563
1223.336, 9469.060
1223.818, 9414.172
1224.300, 9367.836
1224.782, 9334.073
1225.265, 9319.226
1225.747, 9327.622
1226.229, 9333.032
1226.711, 9326.950
1227.193, 9315.970
1227.675, 9310.639
1228.157, 9303.409
1228.639, 9281.894
1229.122, 9242.535
1229.604, 9218.974
1230.086, 9212.750
1230.568, 9212.622
1231.050, 9219.293
1231.532, 9219.589
1232.014, 9194.854
1232.496, 9156.838
1232.979, 9115.354
1233.461, 9068.841
1233.943, 9049.941
1234.425, 9062.400
1234.907, 9065.899
1235.389, 9036.334
1235.871, 8997.960
1236.353, 8975.907
##END=



