##NAMES=Hydroxylellestadite
##RRUFFID=R060769
##IDEAL CHEMISTRY=Ca_5_(SiO_4_)_1.5_(S^6+^O_4_)_1.5_(OH)
##LOCALITY=Crestmore, Riverside County, California, USA
##OWNER=RRUFF
##SOURCE=Michael Scott
##DESCRIPTION=Transparent tan-yellow prismatic crystals in blue calcite
##STATUS=The identification of this mineral is confirmed by single-crystal X-ray diffraction and chemical analysis.
##URL=rruff.info/R060769
##MEASURED CHEMISTRY=Ca_5.00_((SiO_4_)_1.23_(SO_4_)_1.09_(PO_4_)_0.68_)_Σ=3_((OH)_0.89_Cl_0.11_)_Σ=1_; OH estimated by difference and stoichiometry
107.064, 269.863
107.546, 270.284
108.028, 269.925
108.511, 269.974
108.993, 273.449
109.475, 281.104
109.957, 288.997
110.439, 293.318
110.921, 296.497
111.403, 305.263
111.885, 322.816
112.368, 347.536
112.850, 374.424
113.332, 403.190
113.814, 434.763
114.296, 468.861
114.778, 505.810
115.260, 549.202
115.742, 614.224
116.224, 678.848
116.706, 711.244
117.189, 702.349
117.671, 669.816
118.153, 625.603
118.635, 567.476
119.117, 513.018
119.599, 467.755
120.081, 432.293
120.563, 409.814
121.046, 403.294
121.528, 407.675
122.010, 413.427
122.492, 416.613
122.974, 432.292
123.456, 463.865
123.938, 510.373
124.420, 572.882
124.902, 652.409
125.385, 747.779
125.867, 855.607
126.349, 981.248
126.831, 1112.545
127.313, 1257.918
127.795, 1403.939
128.277, 1531.064
128.760, 1622.222
129.242, 1684.253
129.724, 1761.751
130.206, 1878.363
130.688, 1984.360
131.170, 2084.080
131.652, 2163.577
132.134, 2199.247
132.616, 2169.393
133.098, 2074.000
133.581, 1973.838
134.063, 1868.745
134.545, 1758.357
135.027, 1635.653
135.509, 1506.107
135.991, 1381.486
136.473, 1270.205
136.955, 1170.174
137.438, 1101.949
137.920, 1078.877
138.402, 1071.969
138.884, 1072.973
139.366, 1080.528
139.848, 1096.106
140.330, 1121.131
140.812, 1156.219
141.294, 1199.685
141.777, 1247.602
142.259, 1304.676
142.741, 1376.980
143.223, 1462.785
143.705, 1552.586
144.187, 1636.841
144.669, 1714.198
145.151, 1789.977
145.633, 1867.128
146.116, 1940.694
146.598, 2007.191
147.080, 2066.284
147.562, 2121.035
148.044, 2176.402
148.526, 2236.388
149.008, 2280.504
149.490, 2309.788
149.973, 2323.515
150.455, 2318.945
150.937, 2295.903
151.419, 2260.910
151.901, 2219.452
152.383, 2167.400
152.865, 2124.734
153.347, 2096.267
153.829, 2076.261
154.312, 2060.151
154.794, 2047.176
155.276, 2034.920
155.758, 2019.585
156.240, 1999.905
156.722, 1983.757
157.204, 1971.924
157.686, 1964.385
158.169, 1961.514
158.651, 1963.548
159.133, 1969.343
159.615, 1976.389
160.097, 1983.329
160.579, 1999.180
161.061, 2035.279
161.543, 2079.783
162.025, 2113.468
162.508, 2131.147
162.990, 2138.801
163.472, 2140.732
163.954, 2136.660
164.436, 2136.220
164.918, 2146.081
165.400, 2161.490
165.882, 2171.838
166.365, 2172.847
166.847, 2172.298
167.329, 2180.041
167.811, 2195.657
168.293, 2212.787
168.775, 2230.478
169.257, 2247.815
169.739, 2262.243
170.221, 2273.250
170.704, 2281.049
171.186, 2284.998
171.668, 2285.241
172.150, 2286.551
172.632, 2293.308
173.114, 2303.308
173.596, 2309.180
174.078, 2308.426
174.561, 2304.704
175.043, 2301.482
175.525, 2298.742
176.007, 2296.332
176.489, 2293.261
176.971, 2290.203
177.453, 2290.203
177.935, 2295.379
178.417, 2301.623
178.900, 2303.845
179.382, 2302.554
179.864, 2304.124
180.346, 2314.597
180.828, 2331.955
181.310, 2345.723
181.792, 2351.801
182.274, 2357.262
182.757, 2367.890
183.239, 2383.202
183.721, 2399.571
184.203, 2415.001
184.685, 2429.604
185.167, 2444.467
185.649, 2461.603
186.131, 2476.246
186.613, 2483.642
187.096, 2484.988
187.578, 2487.481
188.060, 2496.411
188.542, 2510.820
189.024, 2525.148
189.506, 2539.497
189.988, 2552.721
190.470, 2565.656
190.952, 2577.584
191.435, 2585.844
191.917, 2585.267
192.399, 2577.991
192.881, 2577.853
193.363, 2589.632
193.845, 2603.842
194.327, 2615.159
194.809, 2623.987
195.292, 2631.930
195.774, 2640.987
196.256, 2650.461
196.738, 2655.237
197.220, 2649.986
197.702, 2647.482
198.184, 2654.877
198.666, 2670.200
199.148, 2688.168
199.631, 2710.275
200.113, 2733.691
200.595, 2742.797
201.077, 2727.840
201.559, 2712.626
202.041, 2708.602
202.523, 2713.524
203.005, 2722.763
203.488, 2736.632
203.970, 2752.868
204.452, 2762.486
204.934, 2764.096
205.416, 2760.491
205.898, 2749.680
206.380, 2735.628
206.862, 2725.415
207.344, 2722.946
207.827, 2726.986
208.309, 2735.404
208.791, 2753.464
209.273, 2765.438
209.755, 2759.529
210.237, 2744.700
210.719, 2734.246
211.201, 2734.175
211.684, 2742.320
212.166, 2756.458
212.648, 2784.122
213.130, 2800.294
213.612, 2783.780
214.094, 2754.417
214.576, 2736.449
215.058, 2741.564
215.540, 2760.584
216.023, 2776.845
216.505, 2789.815
216.987, 2801.533
217.469, 2812.378
217.951, 2822.719
218.433, 2832.915
218.915, 2843.215
219.397, 2853.198
219.880, 2863.044
220.362, 2873.864
220.844, 2880.442
221.326, 2877.154
221.808, 2870.573
222.290, 2864.740
222.772, 2859.828
223.254, 2859.414
223.736, 2871.538
224.219, 2899.218
224.701, 2919.267
225.183, 2918.553
225.665, 2910.733
226.147, 2905.335
226.629, 2904.000
227.111, 2904.792
227.593, 2906.381
228.076, 2908.791
228.558, 2910.487
229.040, 2909.430
229.522, 2908.870
230.004, 2911.193
230.486, 2916.599
230.968, 2924.139
231.450, 2934.222
231.932, 2946.545
232.415, 2956.794
232.897, 2962.644
233.379, 2967.845
233.861, 2975.807
234.343, 2986.327
234.825, 2996.546
235.307, 3006.306
235.789, 3014.703
236.271, 3016.207
236.754, 3004.323
237.236, 2994.412
237.718, 3001.443
238.200, 3021.680
238.682, 3038.494
239.164, 3041.656
239.646, 3035.437
240.128, 3029.246
240.611, 3021.252
241.093, 3019.298
241.575, 3034.811
242.057, 3061.341
242.539, 3082.614
243.021, 3087.693
243.503, 3085.863
243.985, 3093.326
244.467, 3112.455
244.950, 3131.035
245.432, 3140.858
245.914, 3144.199
246.396, 3144.548
246.878, 3138.000
247.360, 3132.185
247.842, 3136.699
248.324, 3151.810
248.807, 3168.006
249.289, 3179.785
249.771, 3189.269
250.253, 3201.277
250.735, 3216.823
251.217, 3233.900
251.699, 3252.038
252.181, 3270.833
252.663, 3287.955
253.146, 3301.223
253.628, 3312.982
254.110, 3328.708
254.592, 3351.555
255.074, 3371.017
255.556, 3377.850
256.038, 3376.809
256.520, 3381.147
257.003, 3395.795
257.485, 3416.584
257.967, 3438.073
258.449, 3462.002
258.931, 3480.326
259.413, 3486.167
259.895, 3486.240
260.377, 3490.625
260.859, 3501.786
261.341, 3517.032
261.824, 3533.192
262.306, 3549.998
262.788, 3569.482
263.270, 3597.146
263.752, 3624.778
264.234, 3643.331
264.716, 3652.046
265.198, 3658.062
265.681, 3668.154
266.163, 3683.045
266.645, 3695.140
267.127, 3697.392
267.609, 3702.866
268.091, 3723.587
268.573, 3756.334
269.055, 3786.658
269.538, 3803.863
270.020, 3808.622
270.502, 3813.534
270.984, 3812.799
271.466, 3818.210
271.948, 3837.901
272.430, 3866.315
272.912, 3893.345
273.394, 3913.627
273.877, 3928.167
274.359, 3940.376
274.841, 3949.167
275.323, 3956.790
275.805, 3957.657
276.287, 3959.691
276.769, 3974.380
277.251, 4005.488
277.733, 4043.307
278.216, 4069.201
278.698, 4073.304
279.180, 4081.255
279.662, 4093.665
280.144, 4108.989
280.626, 4126.533
281.108, 4145.903
281.590, 4166.841
282.073, 4189.754
282.555, 4216.512
283.037, 4237.766
283.519, 4249.515
284.001, 4259.623
284.483, 4269.561
284.965, 4280.524
285.447, 4294.446
285.930, 4313.661
286.412, 4337.722
286.894, 4359.090
287.376, 4377.744
287.858, 4393.242
288.340, 4405.700
288.822, 4415.009
289.304, 4420.223
289.786, 4419.799
290.268, 4416.926
290.751, 4419.829
291.233, 4429.425
291.715, 4443.257
292.197, 4463.244
292.679, 4485.544
293.161, 4507.021
293.643, 4526.888
294.125, 4545.042
294.608, 4561.095
295.090, 4574.950
295.572, 4587.744
296.054, 4597.343
296.536, 4608.027
297.018, 4623.593
297.500, 4644.215
297.982, 4666.228
298.465, 4686.110
298.947, 4704.857
299.429, 4728.638
299.911, 4763.496
300.393, 4793.515
300.875, 4795.501
301.357, 4777.499
301.839, 4776.300
302.321, 4822.182
302.804, 4885.361
303.286, 4920.713
303.768, 4923.553
304.250, 4921.772
304.732, 4932.144
305.214, 4953.409
305.696, 4978.656
306.178, 5017.612
306.660, 5051.866
307.143, 5066.948
307.625, 5066.001
308.107, 5060.281
308.589, 5052.966
309.071, 5046.703
309.553, 5050.214
310.035, 5070.567
310.517, 5086.026
311.000, 5087.617
311.482, 5081.881
311.964, 5077.369
312.446, 5076.567
312.928, 5078.818
313.410, 5084.179
313.892, 5097.631
314.374, 5100.021
314.857, 5079.941
315.339, 5057.542
315.821, 5049.384
316.303, 5054.782
316.785, 5060.384
317.267, 5053.743
317.749, 5034.022
318.231, 5019.514
318.713, 5011.364
319.195, 5006.811
319.678, 5009.583
320.160, 5014.800
320.642, 5013.562
321.124, 5000.349
321.606, 4979.523
322.088, 4965.333
322.570, 4959.690
323.052, 4958.121
323.535, 4964.578
324.017, 4971.565
324.499, 4973.015
324.981, 4967.166
325.463, 4955.353
325.945, 4936.954
326.427, 4909.675
326.909, 4888.950
327.392, 4880.138
327.874, 4875.271
328.356, 4871.146
328.838, 4867.460
329.320, 4864.422
329.802, 4864.200
330.284, 4865.162
330.766, 4859.745
331.248, 4845.490
331.731, 4830.320
332.213, 4821.126
332.695, 4813.949
333.177, 4801.291
333.659, 4777.823
334.141, 4751.734
334.623, 4731.471
335.105, 4716.998
335.587, 4706.757
336.070, 4702.422
336.552, 4700.341
337.034, 4694.530
337.516, 4685.672
337.998, 4671.805
338.480, 4646.646
338.962, 4616.899
339.444, 4596.253
339.927, 4588.703
340.409, 4585.171
340.891, 4574.615
341.373, 4555.042
341.855, 4538.555
342.337, 4531.054
342.819, 4522.514
343.301, 4500.098
343.784, 4467.673
344.266, 4445.059
344.748, 4449.138
345.230, 4475.852
345.712, 4481.152
346.194, 4439.520
346.676, 4407.465
347.158, 4399.937
347.640, 4407.301
348.122, 4419.646
348.605, 4432.699
349.087, 4441.296
349.569, 4434.122
350.051, 4401.714
350.533, 4373.711
351.015, 4345.539
351.497, 4325.772
351.979, 4324.766
352.462, 4339.790
352.944, 4356.253
353.426, 4364.331
353.908, 4363.683
354.390, 4345.425
354.872, 4293.009
355.354, 4247.022
355.836, 4224.817
356.319, 4219.425
356.801, 4221.008
357.283, 4229.125
357.765, 4237.005
358.247, 4234.600
358.729, 4221.472
359.211, 4203.414
359.693, 4177.935
360.175, 4151.761
360.658, 4133.869
361.140, 4125.731
361.622, 4118.868
362.104, 4108.052
362.586, 4095.534
363.068, 4086.419
363.550, 4082.005
364.032, 4078.647
364.514, 4071.970
364.997, 4061.895
365.479, 4056.298
365.961, 4063.964
366.443, 4069.030
366.925, 4056.321
367.407, 4030.961
367.889, 4011.406
368.371, 4008.886
368.853, 4018.701
369.336, 4022.941
369.818, 4015.090
370.300, 4009.664
370.782, 4009.310
371.264, 4010.997
371.746, 4011.307
372.228, 4009.617
372.711, 4008.288
373.193, 4010.713
373.675, 4018.094
374.157, 4023.748
374.639, 4028.143
375.121, 4030.255
375.603, 4028.200
376.085, 4023.525
376.567, 4019.658
377.049, 4019.096
377.532, 4020.183
378.014, 4017.536
378.496, 4008.851
378.978, 4003.101
379.460, 4002.023
379.942, 4006.264
380.424, 4020.833
380.906, 4048.747
381.389, 4070.263
381.871, 4066.411
382.353, 4042.535
382.835, 4016.846
383.317, 3988.276
383.799, 3969.184
384.281, 3980.192
384.763, 4016.205
385.246, 4043.483
385.728, 4052.353
386.210, 4053.173
386.692, 4047.144
387.174, 4038.226
387.656, 4044.819
388.138, 4080.268
388.620, 4134.614
389.102, 4171.107
389.585, 4169.212
390.067, 4177.325
390.549, 4211.835
391.031, 4252.853
391.513, 4277.194
391.995, 4281.278
392.477, 4282.432
392.959, 4302.204
393.441, 4344.792
393.924, 4378.946
394.406, 4394.990
394.888, 4411.836
395.370, 4433.486
395.852, 4460.561
396.334, 4495.208
396.816, 4540.894
397.298, 4588.524
397.780, 4616.488
398.263, 4619.822
398.745, 4622.369
399.227, 4619.074
399.709, 4625.805
400.191, 4669.174
400.673, 4751.076
401.155, 4809.167
401.638, 4784.006
402.120, 4707.478
402.602, 4660.349
403.084, 4654.527
403.566, 4657.857
404.048, 4645.205
404.530, 4620.603
405.012, 4606.501
405.494, 4617.291
405.977, 4625.819
406.459, 4614.017
406.941, 4589.370
407.423, 4568.702
407.905, 4558.580
408.387, 4555.505
408.869, 4553.674
409.351, 4555.926
409.833, 4553.172
410.316, 4540.127
410.798, 4526.725
411.280, 4520.733
411.762, 4520.721
412.244, 4519.049
412.726, 4509.024
413.208, 4492.770
413.690, 4485.122
414.172, 4493.895
414.655, 4497.988
415.137, 4482.123
415.619, 4465.109
416.101, 4469.934
416.583, 4502.809
417.065, 4537.272
417.547, 4545.030
418.029, 4529.039
418.512, 4515.898
418.994, 4510.870
419.476, 4505.679
419.958, 4488.243
420.440, 4463.829
420.922, 4451.305
421.404, 4465.288
421.886, 4484.718
422.368, 4492.974
422.851, 4491.551
423.333, 4487.945
423.815, 4486.186
424.297, 4482.395
424.779, 4466.423
425.261, 4421.238
425.743, 4398.166
426.225, 4417.544
426.708, 4447.778
427.190, 4467.215
427.672, 4472.842
428.154, 4468.471
428.636, 4455.536
429.118, 4435.381
429.600, 4423.442
430.082, 4428.022
430.565, 4429.197
431.047, 4421.715
431.529, 4409.681
432.011, 4396.521
432.493, 4383.253
432.975, 4371.369
433.457, 4365.606
433.939, 4364.954
434.421, 4353.734
434.904, 4323.589
435.386, 4294.076
435.868, 4282.258
436.350, 4283.127
436.832, 4283.084
437.314, 4280.396
437.796, 4274.136
438.278, 4261.330
438.760, 4243.698
439.243, 4228.098
439.725, 4217.402
440.207, 4209.694
440.689, 4201.146
441.171, 4188.138
441.653, 4182.967
442.135, 4194.381
442.617, 4207.021
443.099, 4211.462
443.582, 4207.054
444.064, 4194.935
444.546, 4174.006
445.028, 4148.332
445.510, 4139.480
445.992, 4155.723
446.474, 4174.611
446.957, 4196.564
447.439, 4216.049
447.921, 4224.773
448.403, 4222.425
448.885, 4224.167
449.367, 4246.006
449.849, 4283.398
450.331, 4316.237
450.813, 4340.878
451.296, 4368.224
451.778, 4403.546
452.260, 4447.782
452.742, 4503.773
453.224, 4579.352
453.706, 4656.639
454.188, 4724.590
454.670, 4787.807
455.152, 4853.635
455.635, 4924.060
456.117, 5003.169
456.599, 5098.459
457.081, 5216.741
457.563, 5318.301
458.045, 5399.076
458.527, 5470.158
459.009, 5536.957
459.491, 5596.917
459.974, 5644.010
460.456, 5675.019
460.938, 5693.144
461.420, 5702.895
461.902, 5702.980
462.384, 5700.978
462.866, 5705.733
463.348, 5700.593
463.831, 5670.876
464.313, 5620.810
464.795, 5570.044
465.277, 5533.154
465.759, 5498.141
466.241, 5447.572
466.723, 5382.057
467.205, 5311.560
467.687, 5237.368
468.170, 5163.571
468.652, 5100.059
469.134, 5051.257
469.616, 4998.953
470.098, 4938.413
470.580, 4874.862
471.062, 4812.718
471.544, 4752.121
472.026, 4689.365
472.509, 4621.465
472.991, 4549.973
473.473, 4487.892
473.955, 4447.331
474.437, 4395.122
474.919, 4313.938
475.401, 4228.766
475.883, 4161.705
476.366, 4115.264
476.848, 4072.916
477.330, 4024.400
477.812, 3969.410
478.294, 3904.996
478.776, 3828.283
479.258, 3754.816
479.740, 3693.443
480.223, 3641.902
480.705, 3594.356
481.187, 3552.840
481.669, 3511.008
482.151, 3467.178
482.633, 3421.389
483.115, 3371.686
483.597, 3318.759
484.079, 3269.848
484.561, 3232.916
485.044, 3208.076
485.526, 3180.086
486.008, 3141.210
486.490, 3108.382
486.972, 3084.744
487.454, 3068.495
487.936, 3060.805
488.418, 3061.227
488.901, 3058.649
489.383, 3036.743
489.865, 2997.867
490.347, 2969.634
490.829, 2956.855
491.311, 2947.677
491.793, 2933.650
492.275, 2917.846
492.758, 2906.885
493.240, 2905.151
493.722, 2903.005
494.204, 2894.433
494.686, 2881.747
495.168, 2867.914
495.650, 2853.841
496.132, 2842.375
496.614, 2837.281
497.097, 2839.314
497.579, 2839.420
498.061, 2832.148
498.543, 2829.337
499.025, 2842.512
499.507, 2858.689
499.989, 2857.888
500.471, 2834.063
500.953, 2806.344
501.436, 2798.423
501.918, 2810.031
502.400, 2825.409
502.882, 2848.877
503.364, 2866.177
503.846, 2862.129
504.328, 2845.744
504.810, 2835.442
505.293, 2838.608
505.775, 2842.345
506.257, 2833.985
506.739, 2821.456
507.221, 2822.621
507.703, 2841.844
508.185, 2866.212
508.667, 2882.135
509.150, 2889.243
509.632, 2892.666
510.114, 2885.836
510.596, 2883.134
511.078, 2892.755
511.560, 2906.757
512.042, 2914.895
512.524, 2914.055
513.006, 2909.474
513.489, 2904.620
513.971, 2900.010
514.453, 2904.864
514.935, 2923.382
515.417, 2943.494
515.899, 2957.435
516.381, 2967.441
516.863, 2977.404
517.346, 2984.400
517.828, 2996.949
518.310, 3028.917
518.792, 3066.168
519.274, 3082.581
519.756, 3073.996
520.238, 3059.432
520.720, 3056.564
521.202, 3065.321
521.685, 3078.876
522.167, 3101.243
522.649, 3123.791
523.131, 3145.213
523.613, 3166.128
524.095, 3188.066
524.577, 3211.089
525.059, 3232.909
525.541, 3252.317
526.024, 3268.904
526.506, 3279.403
526.988, 3281.902
527.470, 3286.663
527.952, 3302.192
528.434, 3322.808
528.916, 3333.346
529.398, 3325.967
529.880, 3325.999
530.363, 3351.911
530.845, 3382.717
531.327, 3394.927
531.809, 3387.750
532.291, 3375.248
532.773, 3367.702
533.255, 3364.125
533.737, 3360.078
534.219, 3358.790
534.702, 3350.699
535.184, 3324.225
535.666, 3298.434
536.148, 3291.964
536.630, 3302.694
537.112, 3307.440
537.594, 3287.895
538.076, 3255.304
538.559, 3228.027
539.041, 3205.769
539.523, 3182.135
540.005, 3153.733
540.487, 3123.218
540.969, 3094.607
541.451, 3067.457
541.933, 3044.022
542.416, 3030.366
542.898, 3014.789
543.380, 2987.422
543.862, 2952.685
544.344, 2921.073
544.826, 2898.144
545.308, 2879.817
545.790, 2859.750
546.273, 2838.393
546.755, 2810.800
547.237, 2764.478
547.719, 2727.579
548.201, 2727.361
548.683, 2750.969
549.165, 2762.299
549.647, 2745.196
550.129, 2721.953
550.612, 2708.758
551.094, 2700.732
551.576, 2684.191
552.058, 2656.013
552.540, 2632.039
553.022, 2631.058
553.504, 2654.375
553.986, 2667.996
554.468, 2660.727
554.951, 2656.375
555.433, 2659.256
555.915, 2667.014
556.397, 2680.455
556.879, 2698.628
557.361, 2710.317
557.843, 2697.060
558.325, 2670.310
558.807, 2668.919
559.290, 2697.140
559.772, 2722.723
560.254, 2727.320
560.736, 2719.658
561.218, 2720.532
561.700, 2730.779
562.182, 2745.503
562.664, 2774.319
563.146, 2799.023
563.629, 2797.995
564.111, 2779.301
564.593, 2770.210
565.075, 2787.396
565.557, 2819.363
566.039, 2840.434
566.521, 2848.708
567.003, 2855.070
567.486, 2860.972
567.968, 2865.208
568.450, 2866.371
568.932, 2865.248
569.414, 2864.311
569.896, 2860.570
570.378, 2861.390
570.860, 2873.200
571.343, 2893.132
571.825, 2917.713
572.307, 2945.592
572.789, 2970.794
573.271, 2987.419
573.753, 2995.371
574.235, 2995.817
574.717, 2975.909
575.200, 2965.775
575.682, 2975.601
576.164, 2994.696
576.646, 3015.606
577.128, 3036.084
577.610, 3050.418
578.092, 3050.910
578.574, 3043.604
579.056, 3041.656
579.539, 3045.147
580.021, 3044.762
580.503, 3035.839
580.985, 3021.228
581.467, 3006.464
581.949, 2991.635
582.431, 2976.238
582.913, 2959.726
583.395, 2943.154
583.878, 2927.561
584.360, 2912.255
584.842, 2897.008
585.324, 2882.117
585.806, 2862.776
586.288, 2829.968
586.770, 2784.394
587.252, 2740.455
587.734, 2697.998
588.217, 2661.978
588.699, 2641.185
589.181, 2629.064
589.663, 2602.633
590.145, 2546.213
590.627, 2500.109
591.109, 2485.537
591.591, 2481.456
592.073, 2463.776
592.556, 2432.813
593.038, 2406.123
593.520, 2397.309
594.002, 2400.075
594.484, 2392.153
594.966, 2368.087
595.448, 2353.589
595.930, 2358.448
596.413, 2369.454
596.895, 2375.454
597.377, 2377.995
597.859, 2384.961
598.341, 2404.582
598.823, 2423.451
599.305, 2429.329
599.787, 2428.469
600.269, 2432.719
600.752, 2445.169
601.234, 2462.483
601.716, 2482.132
602.198, 2503.948
602.680, 2521.168
603.162, 2530.339
603.644, 2540.450
604.127, 2555.013
604.609, 2570.538
605.091, 2584.952
605.573, 2597.785
606.055, 2606.728
606.537, 2604.686
607.019, 2601.931
607.501, 2613.958
607.983, 2637.640
608.466, 2656.218
608.948, 2662.466
609.430, 2666.976
609.912, 2686.964
610.394, 2727.499
610.876, 2758.522
611.358, 2766.760
611.840, 2780.518
612.322, 2810.133
612.805, 2848.508
613.287, 2884.040
613.769, 2914.047
614.251, 2953.291
614.733, 3016.294
615.215, 3095.692
615.697, 3179.470
616.179, 3266.078
616.661, 3350.976
617.144, 3431.468
617.626, 3507.688
618.108, 3577.610
618.590, 3630.953
619.072, 3703.887
619.554, 3821.001
620.036, 3930.821
620.518, 4008.423
621.000, 4062.656
621.483, 4108.697
621.965, 4151.267
622.447, 4193.167
622.929, 4239.636
623.411, 4287.769
623.893, 4331.288
624.375, 4370.583
624.857, 4391.312
625.340, 4381.703
625.822, 4350.075
626.304, 4320.875
626.786, 4299.168
627.268, 4270.689
627.750, 4227.596
628.232, 4184.993
628.714, 4159.074
629.196, 4139.958
629.679, 4103.200
630.161, 4035.688
630.643, 3959.777
631.125, 3905.197
631.607, 3867.303
632.089, 3819.656
632.571, 3757.603
633.054, 3695.945
633.536, 3645.770
634.018, 3603.404
634.500, 3552.956
634.982, 3484.033
635.464, 3423.263
635.946, 3368.698
636.428, 3326.374
636.910, 3298.422
637.393, 3286.315
637.875, 3295.080
638.357, 3330.677
638.839, 3374.525
639.321, 3397.837
639.803, 3404.503
640.285, 3421.531
640.767, 3455.363
641.250, 3487.327
641.732, 3504.770
642.214, 3509.091
642.696, 3506.931
643.178, 3505.536
643.660, 3488.046
644.142, 3446.411
644.624, 3393.878
645.106, 3339.251
645.589, 3282.480
646.071, 3220.679
646.553, 3153.228
647.035, 3077.356
647.517, 2984.426
647.999, 2877.818
648.481, 2778.406
648.963, 2689.965
649.445, 2606.137
649.928, 2523.375
650.410, 2440.991
650.892, 2356.501
651.374, 2254.391
651.856, 2171.451
652.338, 2122.468
652.820, 2083.035
653.302, 2035.545
653.784, 1982.987
654.267, 1938.353
654.749, 1909.224
655.231, 1886.691
655.713, 1859.558
656.195, 1829.026
656.677, 1800.403
657.159, 1774.408
657.641, 1749.560
658.123, 1723.646
658.606, 1698.525
659.088, 1681.831
659.570, 1678.708
660.052, 1677.018
660.534, 1681.036
661.016, 1682.361
661.498, 1673.248
661.981, 1657.398
662.463, 1643.957
662.945, 1636.448
663.427, 1633.471
663.909, 1636.207
664.391, 1642.068
664.873, 1643.828
665.355, 1640.531
665.837, 1634.833
666.320, 1628.301
666.802, 1620.955
667.284, 1612.371
667.766, 1597.951
668.248, 1591.074
668.730, 1599.231
669.212, 1607.115
669.694, 1605.282
670.177, 1598.147
670.659, 1595.972
671.141, 1603.597
671.623, 1610.040
672.105, 1604.787
672.587, 1593.603
673.069, 1586.480
673.551, 1584.056
674.033, 1582.577
674.516, 1579.844
674.998, 1576.959
675.480, 1577.109
675.962, 1582.715
676.444, 1583.716
676.926, 1575.305
677.408, 1568.041
677.890, 1568.031
678.372, 1571.397
678.855, 1571.553
679.337, 1566.406
679.819, 1563.150
680.301, 1567.109
680.783, 1573.518
681.265, 1578.793
681.747, 1581.873
682.229, 1580.187
682.711, 1572.527
683.194, 1562.576
683.676, 1556.250
684.158, 1553.836
684.640, 1549.866
685.122, 1541.361
685.604, 1538.006
686.086, 1548.664
686.568, 1564.153
687.050, 1571.733
687.533, 1570.914
688.015, 1564.848
688.497, 1547.149
688.979, 1531.438
689.461, 1527.666
689.943, 1531.587
690.425, 1535.488
690.907, 1537.061
691.390, 1539.162
691.872, 1546.454
692.354, 1556.744
692.836, 1559.042
693.318, 1552.455
693.800, 1546.748
694.282, 1544.866
694.764, 1545.930
695.247, 1549.610
695.729, 1556.397
696.211, 1560.759
696.693, 1564.033
697.175, 1563.302
697.657, 1555.192
698.139, 1544.302
698.621, 1532.409
699.104, 1521.623
699.586, 1518.719
700.068, 1533.005
700.550, 1552.133
701.032, 1557.914
701.514, 1552.770
701.996, 1546.157
702.478, 1540.177
702.960, 1534.512
703.443, 1528.409
703.925, 1522.525
704.407, 1521.660
704.889, 1531.113
705.371, 1535.835
705.853, 1530.014
706.335, 1523.028
706.817, 1520.786
707.299, 1521.781
707.782, 1520.968
708.264, 1515.174
708.746, 1510.939
709.228, 1512.955
709.710, 1518.541
710.192, 1524.686
710.674, 1530.868
711.156, 1537.770
711.638, 1546.079
712.121, 1552.946
712.603, 1551.476
713.085, 1540.695
713.567, 1533.841
714.049, 1533.121
714.531, 1532.844
715.013, 1530.380
715.495, 1526.215
715.977, 1521.011
716.460, 1513.904
716.942, 1508.899
717.424, 1508.335
717.906, 1508.162
718.388, 1504.917
718.870, 1500.897
719.352, 1501.139
719.834, 1506.624
720.317, 1510.750
720.799, 1503.280
721.281, 1491.349
721.763, 1495.784
722.245, 1514.552
722.727, 1523.022
723.209, 1511.849
723.691, 1492.431
724.174, 1476.433
724.656, 1463.682
725.138, 1463.925
725.620, 1492.469
726.102, 1510.739
726.584, 1505.166
727.066, 1493.427
727.548, 1489.367
728.031, 1491.793
728.513, 1490.559
728.995, 1478.624
729.477, 1466.896
729.959, 1462.983
730.441, 1463.532
730.923, 1464.588
731.405, 1465.158
731.887, 1464.252
732.370, 1460.908
732.852, 1457.163
733.334, 1457.753
733.816, 1462.821
734.298, 1468.830
734.780, 1477.387
735.262, 1480.509
735.744, 1469.906
736.226, 1452.376
736.709, 1445.880
737.191, 1457.828
737.673, 1460.998
738.155, 1440.947
738.637, 1425.547
739.119, 1436.569
739.601, 1457.604
740.083, 1462.614
740.565, 1445.535
741.048, 1425.952
741.530, 1416.610
742.012, 1414.431
742.494, 1417.993
742.976, 1425.143
743.458, 1428.315
743.940, 1425.170
744.422, 1417.420
744.904, 1405.283
745.387, 1390.182
745.869, 1387.034
746.351, 1401.064
746.833, 1412.118
747.315, 1416.079
747.797, 1415.786
748.279, 1410.635
748.761, 1402.714
749.244, 1400.615
749.726, 1410.981
750.208, 1418.749
750.690, 1418.294
751.172, 1414.489
751.654, 1411.801
752.136, 1409.440
752.618, 1403.926
753.101, 1393.493
753.583, 1381.191
754.065, 1368.294
754.547, 1356.606
755.029, 1351.967
755.511, 1354.446
755.993, 1360.056
756.475, 1367.843
756.958, 1373.842
757.440, 1371.465
757.922, 1359.712
758.404, 1347.539
758.886, 1330.471
759.368, 1320.387
759.850, 1329.429
760.332, 1340.897
760.814, 1337.529
761.297, 1320.506
761.779, 1309.726
762.261, 1317.647
762.743, 1323.682
763.225, 1314.032
763.707, 1299.807
764.189, 1293.600
764.671, 1296.034
765.153, 1301.898
765.636, 1309.245
766.118, 1314.400
766.600, 1309.235
767.082, 1296.804
767.564, 1290.779
768.046, 1292.793
768.528, 1294.853
769.010, 1292.439
769.492, 1287.374
769.975, 1283.220
770.457, 1279.904
770.939, 1277.874
771.421, 1277.883
771.903, 1278.122
772.385, 1280.421
772.867, 1281.155
773.349, 1274.897
773.831, 1261.396
774.314, 1250.473
774.796, 1242.707
775.278, 1240.298
775.760, 1251.990
776.242, 1265.351
776.724, 1262.244
777.206, 1243.390
777.688, 1225.582
778.171, 1219.724
778.653, 1220.426
779.135, 1221.211
779.617, 1221.705
780.099, 1219.976
780.581, 1215.796
781.063, 1211.725
781.545, 1209.432
782.028, 1207.800
782.510, 1204.147
782.992, 1197.731
783.474, 1192.405
783.956, 1188.750
784.438, 1185.234
784.920, 1180.427
785.402, 1175.938
785.885, 1174.786
786.367, 1177.335
786.849, 1176.203
787.331, 1163.356
787.813, 1154.405
788.295, 1161.850
788.777, 1173.144
789.259, 1172.977
789.741, 1161.571
790.224, 1150.734
790.706, 1147.917
791.188, 1146.870
791.670, 1138.672
792.152, 1126.791
792.634, 1119.654
793.116, 1118.047
793.598, 1119.859
794.080, 1124.416
794.563, 1128.312
795.045, 1123.962
795.527, 1110.271
796.009, 1100.931
796.491, 1098.148
796.973, 1092.985
797.455, 1079.270
797.937, 1064.403
798.419, 1059.303
798.902, 1065.225
799.384, 1066.231
799.866, 1054.753
800.348, 1048.172
800.830, 1054.629
801.312, 1064.318
801.794, 1070.669
802.276, 1072.776
802.758, 1070.480
803.241, 1062.094
803.723, 1053.448
804.205, 1047.109
804.687, 1043.953
805.169, 1047.578
805.651, 1055.595
806.133, 1059.441
806.615, 1055.511
807.098, 1050.317
807.580, 1054.245
808.062, 1064.573
808.544, 1065.492
809.026, 1056.772
809.508, 1049.774
809.990, 1047.722
810.472, 1050.282
810.955, 1058.541
811.437, 1071.414
811.919, 1076.742
812.401, 1070.996
812.883, 1064.563
813.365, 1056.181
813.847, 1049.965
814.329, 1046.737
814.812, 1047.561
815.294, 1055.806
815.776, 1075.311
816.258, 1091.010
816.740, 1096.879
817.222, 1099.756
817.704, 1103.187
818.186, 1106.999
818.668, 1111.288
819.151, 1115.660
819.633, 1117.122
820.115, 1109.256
820.597, 1101.199
821.079, 1106.142
821.561, 1120.339
822.043, 1135.678
822.525, 1150.127
823.007, 1161.086
823.490, 1166.321
823.972, 1169.122
824.454, 1177.510
824.936, 1191.572
825.418, 1202.083
825.900, 1207.016
826.382, 1214.846
826.864, 1229.289
827.346, 1249.216
827.829, 1273.717
828.311, 1303.760
828.793, 1330.836
829.275, 1351.527
829.757, 1373.713
830.239, 1399.362
830.721, 1426.573
831.203, 1453.139
831.685, 1479.872
832.168, 1510.003
832.650, 1544.889
833.132, 1582.176
833.614, 1618.233
834.096, 1659.170
834.578, 1714.068
835.060, 1777.158
835.542, 1833.930
836.024, 1880.124
836.507, 1929.663
836.989, 1993.042
837.471, 2067.773
837.953, 2153.950
838.435, 2247.947
838.917, 2338.335
839.399, 2423.028
839.881, 2513.777
840.364, 2620.442
840.846, 2737.911
841.328, 2852.601
841.810, 2963.901
842.292, 3083.487
842.774, 3212.360
843.256, 3348.578
843.738, 3491.756
844.221, 3640.691
844.703, 3792.766
845.185, 3948.272
845.667, 4103.399
846.149, 4252.159
846.631, 4410.363
847.113, 4597.706
847.595, 4783.798
848.078, 4937.070
848.560, 5064.262
849.042, 5202.864
849.524, 5371.166
850.006, 5531.982
850.488, 5676.874
850.970, 5809.573
851.452, 5932.088
851.934, 6043.825
852.417, 6143.672
852.899, 6231.735
853.381, 6303.267
853.863, 6351.090
854.345, 6384.521
854.827, 6413.098
855.309, 6434.900
855.791, 6453.744
856.273, 6464.637
856.756, 6437.111
857.238, 6342.462
857.720, 6217.542
858.202, 6130.488
858.684, 6070.118
859.166, 5987.445
859.648, 5878.250
860.130, 5756.382
860.612, 5627.313
861.095, 5493.089
861.577, 5356.173
862.059, 5217.018
862.541, 5074.239
863.023, 4927.549
863.505, 4778.917
863.987, 4632.800
864.469, 4477.763
864.951, 4298.991
865.434, 4103.086
865.916, 3929.959
866.398, 3789.505
866.880, 3655.486
867.362, 3536.576
867.844, 3413.989
868.326, 3273.827
868.808, 3129.737
869.291, 2999.159
869.773, 2883.842
870.255, 2778.109
870.737, 2688.383
871.219, 2598.341
871.701, 2496.175
872.183, 2393.966
872.665, 2300.695
873.148, 2217.803
873.630, 2145.290
874.112, 2083.676
874.594, 2028.271
875.076, 1975.198
875.558, 1925.738
876.040, 1883.689
876.522, 1846.019
877.005, 1804.101
877.487, 1756.095
877.969, 1709.565
878.451, 1669.868
878.933, 1637.409
879.415, 1615.177
879.897, 1601.158
880.379, 1586.394
880.861, 1569.804
881.344, 1556.196
881.826, 1548.638
882.308, 1543.910
882.790, 1536.568
883.272, 1526.675
883.754, 1515.723
884.236, 1503.293
884.718, 1492.655
885.200, 1484.516
885.683, 1479.197
886.165, 1476.887
886.647, 1477.713
887.129, 1483.236
887.611, 1499.669
888.093, 1505.802
888.575, 1490.869
889.057, 1479.185
889.539, 1487.708
890.022, 1503.707
890.504, 1504.702
890.986, 1487.545
891.468, 1483.111
891.950, 1509.234
892.432, 1527.223
892.914, 1518.714
893.396, 1505.445
893.878, 1504.802
894.361, 1514.364
894.843, 1524.574
895.325, 1534.936
895.807, 1539.392
896.289, 1527.985
896.771, 1517.207
897.253, 1519.949
897.735, 1530.807
898.218, 1542.443
898.700, 1552.510
899.182, 1558.912
899.664, 1560.179
900.146, 1557.753
900.628, 1544.215
901.110, 1532.791
901.592, 1545.201
902.075, 1579.155
902.557, 1629.184
903.039, 1691.766
903.521, 1729.084
904.003, 1677.712
904.485, 1580.661
904.967, 1535.320
905.449, 1532.271
905.932, 1537.114
906.414, 1541.783
906.896, 1545.552
907.378, 1548.151
907.860, 1548.176
908.342, 1539.260
908.824, 1522.952
909.306, 1523.970
909.788, 1544.862
910.271, 1553.744
910.753, 1536.494
911.235, 1517.143
911.717, 1523.416
912.199, 1549.654
912.681, 1558.808
913.163, 1546.541
913.645, 1535.636
914.127, 1527.285
914.610, 1523.950
915.092, 1529.456
915.574, 1537.964
916.056, 1538.868
916.538, 1530.721
917.020, 1525.596
917.502, 1522.721
917.984, 1524.188
918.466, 1531.563
918.949, 1542.279
919.431, 1559.866
919.913, 1578.977
920.395, 1582.376
920.877, 1558.228
921.359, 1547.285
921.841, 1564.482
922.323, 1581.805
922.805, 1587.397
923.288, 1588.243
923.770, 1591.611
924.252, 1597.840
924.734, 1604.659
925.216, 1615.990
925.698, 1620.471
926.180, 1603.604
926.662, 1588.863
927.145, 1598.222
927.627, 1620.062
928.109, 1633.011
928.591, 1632.973
929.073, 1633.157
929.555, 1640.088
930.037, 1649.807
930.519, 1660.460
931.002, 1671.781
931.484, 1685.078
931.966, 1698.580
932.448, 1707.275
932.930, 1709.031
933.412, 1709.154
933.894, 1708.214
934.376, 1711.037
934.859, 1727.751
935.341, 1751.100
935.823, 1763.845
936.305, 1766.226
936.787, 1776.467
937.269, 1806.166
937.751, 1844.065
938.233, 1877.128
938.715, 1908.009
939.198, 1942.202
939.680, 1979.794
940.162, 2018.077
940.644, 2056.889
941.126, 2103.985
941.608, 2167.049
942.090, 2239.621
942.572, 2306.369
943.054, 2370.515
943.537, 2447.897
944.019, 2539.455
944.501, 2633.883
944.983, 2726.235
945.465, 2828.831
945.947, 2957.728
946.429, 3106.638
946.911, 3249.134
947.393, 3385.154
947.876, 3535.108
948.358, 3703.437
948.840, 3868.981
949.322, 4018.698
949.804, 4164.362
950.286, 4328.198
950.768, 4509.284
951.250, 4682.054
951.732, 4846.903
952.215, 4999.184
952.697, 5136.894
953.179, 5268.700
953.661, 5402.406
954.143, 5534.318
954.625, 5654.726
955.107, 5764.694
955.589, 5860.509
956.072, 5940.177
956.554, 6012.634
957.036, 6087.956
957.518, 6142.875
958.000, 6154.324
958.482, 6128.131
958.964, 6088.417
959.446, 6030.646
959.929, 5971.667
960.411, 5911.751
960.893, 5852.214
961.375, 5807.781
961.857, 5748.256
962.339, 5634.612
962.821, 5470.750
963.303, 5308.401
963.786, 5151.402
964.268, 4987.933
964.750, 4815.188
965.232, 4638.531
965.714, 4452.310
966.196, 4268.116
966.678, 4104.963
967.160, 3962.533
967.642, 3813.400
968.125, 3645.692
968.607, 3488.531
969.089, 3356.691
969.571, 3224.482
970.053, 3071.313
970.535, 2911.955
971.017, 2771.068
971.499, 2651.050
971.981, 2539.992
972.464, 2436.978
972.946, 2342.971
973.428, 2258.478
973.910, 2183.443
974.392, 2117.666
974.874, 2061.277
975.356, 2014.777
975.838, 1979.575
976.320, 1946.052
976.803, 1909.241
977.285, 1877.743
977.767, 1858.619
978.249, 1842.654
978.731, 1817.622
979.213, 1789.680
979.695, 1776.833
980.177, 1784.276
980.659, 1798.542
981.142, 1822.815
981.624, 1845.102
982.106, 1854.102
982.588, 1862.953
983.070, 1881.273
983.552, 1911.392
984.034, 1957.356
984.516, 2024.458
984.999, 2094.102
985.481, 2155.817
985.963, 2223.775
986.445, 2302.719
986.927, 2394.325
987.409, 2496.260
987.891, 2611.744
988.373, 2755.536
988.856, 2936.061
989.338, 3133.454
989.820, 3328.567
990.302, 3549.193
990.784, 3812.559
991.266, 4113.730
991.748, 4448.695
992.230, 4815.478
992.713, 5203.200
993.195, 5601.523
993.677, 6041.376
994.159, 6536.934
994.641, 7078.636
995.123, 7678.478
995.605, 8313.906
996.087, 8945.172
996.569, 9570.107
997.052, 10225.200
997.534, 10937.630
998.016, 11651.320
998.498, 12349.100
998.980, 13021.360
999.462, 13663.700
999.944, 14272.610
1000.426, 14860.650
1000.908, 15420.150
1001.391, 15898.420
1001.873, 16270.150
1002.355, 16562.100
1002.837, 16797.680
1003.319, 16950.029
1003.801, 16994.770
1004.283, 16942.420
1004.765, 16810.100
1005.247, 16601.080
1005.730, 16311.060
1006.212, 15942.280
1006.694, 15488.240
1007.176, 14911.100
1007.658, 14282.910
1008.140, 13665.740
1008.622, 13044.240
1009.104, 12376.010
1009.587, 11660.750
1010.069, 10951.300
1010.551, 10263.350
1011.033, 9602.630
1011.515, 8976.475
1011.997, 8373.870
1012.479, 7771.593
1012.961, 7192.757
1013.443, 6682.814
1013.926, 6245.507
1014.408, 5828.883
1014.890, 5389.610
1015.372, 4991.838
1015.854, 4673.117
1016.336, 4397.560
1016.818, 4143.446
1017.300, 3911.874
1017.783, 3710.257
1018.265, 3539.810
1018.747, 3390.739
1019.229, 3266.761
1019.711, 3154.166
1020.193, 3038.971
1020.675, 2942.217
1021.157, 2890.637
1021.639, 2862.693
1022.122, 2820.356
1022.604, 2759.483
1023.086, 2713.912
1023.568, 2704.120
1024.050, 2696.146
1024.532, 2679.824
1025.014, 2661.514
1025.496, 2640.083
1025.979, 2622.371
1026.461, 2621.922
1026.943, 2639.249
1027.425, 2648.961
1027.907, 2635.098
1028.389, 2627.713
1028.871, 2637.377
1029.353, 2652.020
1029.835, 2669.137
1030.318, 2684.006
1030.800, 2688.436
1031.282, 2682.406
1031.764, 2680.575
1032.246, 2690.372
1032.728, 2696.686
1033.210, 2687.355
1033.692, 2684.808
1034.175, 2708.983
1034.657, 2741.929
1035.139, 2756.885
1035.621, 2753.921
1036.103, 2760.265
1036.585, 2793.741
1037.067, 2811.904
1037.549, 2791.497
1038.031, 2778.774
1038.514, 2803.231
1038.996, 2839.611
1039.478, 2854.185
1039.960, 2849.489
1040.442, 2861.768
1040.924, 2915.644
1041.406, 2941.089
1041.888, 2911.126
1042.370, 2889.987
1042.853, 2904.423
1043.335, 2936.956
1043.817, 2973.179
1044.299, 3011.083
1044.781, 3035.800
1045.263, 3041.158
1045.745, 3048.870
1046.227, 3061.012
1046.710, 3071.226
1047.192, 3072.953
1047.674, 3079.859
1048.156, 3109.079
1048.638, 3153.160
1049.120, 3177.325
1049.602, 3173.195
1050.084, 3185.797
1050.567, 3220.251
1051.049, 3255.574
1051.531, 3284.727
1052.013, 3315.717
1052.495, 3358.330
1052.977, 3403.821
1053.459, 3421.271
1053.941, 3405.995
1054.423, 3424.498
1054.906, 3482.201
1055.388, 3524.746
1055.870, 3535.362
1056.352, 3543.722
1056.834, 3571.543
1057.316, 3612.179
1057.798, 3654.058
1058.280, 3696.897
1058.762, 3740.026
1059.245, 3783.206
1059.727, 3820.685
1060.209, 3851.494
1060.691, 3880.443
1061.173, 3909.998
1061.655, 3944.191
1062.137, 3994.306
1062.619, 4053.163
1063.102, 4092.620
1063.584, 4116.102
1064.066, 4138.386
1064.548, 4162.013
1065.030, 4183.938
1065.512, 4202.650
1065.994, 4224.386
1066.476, 4260.997
1066.958, 4301.488
1067.441, 4315.002
1067.923, 4319.233
1068.405, 4359.211
1068.887, 4430.981
1069.369, 4501.339
1069.851, 4557.410
1070.333, 4603.104
1070.815, 4639.925
1071.297, 4670.138
1071.780, 4694.621
1072.262, 4714.885
1072.744, 4727.294
1073.226, 4739.066
1073.708, 4770.081
1074.190, 4821.990
1074.672, 4865.930
1075.154, 4878.684
1075.637, 4891.228
1076.119, 4932.390
1076.601, 4974.771
1077.083, 4984.827
1077.565, 4983.753
1078.047, 5007.676
1078.529, 5058.059
1079.011, 5108.219
1079.493, 5149.995
1079.976, 5188.937
1080.458, 5222.937
1080.940, 5259.356
1081.422, 5305.146
1081.904, 5353.126
1082.386, 5397.203
1082.868, 5436.238
1083.350, 5466.064
1083.833, 5475.033
1084.315, 5507.160
1084.797, 5585.473
1085.279, 5662.801
1085.761, 5731.349
1086.243, 5789.463
1086.725, 5836.457
1087.207, 5871.915
1087.689, 5892.512
1088.172, 5894.156
1088.654, 5907.180
1089.136, 5933.088
1089.618, 5967.270
1090.100, 6011.600
1090.582, 6057.422
1091.064, 6097.531
1091.546, 6140.228
1092.028, 6199.288
1092.511, 6272.785
1092.993, 6344.286
1093.475, 6413.849
1093.957, 6477.966
1094.439, 6535.134
1094.921, 6601.882
1095.403, 6686.843
1095.885, 6774.201
1096.368, 6848.826
1096.850, 6912.426
1097.332, 6967.658
1097.814, 7016.157
1098.296, 7065.081
1098.778, 7115.556
1099.260, 7171.577
1099.742, 7234.220
1100.224, 7302.757
1100.707, 7376.036
1101.189, 7457.571
1101.671, 7565.776
1102.153, 7677.907
1102.635, 7740.613
1103.117, 7776.142
1103.599, 7840.291
1104.081, 7935.425
1104.563, 8027.028
1105.046, 8100.583
1105.528, 8165.787
1106.010, 8230.268
1106.492, 8289.687
1106.974, 8336.475
1107.456, 8378.239
1107.938, 8413.301
1108.420, 8453.803
1108.903, 8529.488
1109.385, 8645.497
1109.867, 8754.046
1110.349, 8839.205
1110.831, 8909.665
1111.313, 8946.912
1111.795, 8993.732
1112.277, 9091.854
1112.760, 9206.166
1113.242, 9284.570
1113.724, 9329.983
1114.206, 9394.355
1114.688, 9506.262
1115.170, 9589.083
1115.652, 9624.933
1116.134, 9660.395
1116.616, 9706.268
1117.099, 9760.249
1117.581, 9821.877
1118.063, 9888.981
1118.545, 9957.186
1119.027, 10026.450
1119.509, 10095.510
1119.991, 10163.700
1120.473, 10235.610
1120.955, 10312.770
1121.438, 10390.000
1121.920, 10463.980
1122.402, 10541.540
1122.884, 10635.950
1123.366, 10738.640
1123.848, 10813.960
1124.330, 10868.330
1124.812, 10927.790
1125.295, 10996.040
1125.777, 11079.180
1126.259, 11177.930
1126.741, 11282.960
1127.223, 11387.490
1127.705, 11492.830
1128.187, 11599.340
1128.669, 11706.740
1129.151, 11816.490
1129.634, 11925.960
1130.116, 12033.190
1130.598, 12135.550
1131.080, 12223.530
1131.562, 12290.510
1132.044, 12364.170
1132.526, 12467.520
1133.008, 12572.960
1133.490, 12665.500
1133.973, 12752.270
1134.455, 12829.990
1134.937, 12910.450
1135.419, 13021.130
1135.901, 13166.510
1136.383, 13292.390
1136.865, 13367.400
1137.347, 13464.120
1137.830, 13604.470
1138.312, 13742.760
1138.794, 13857.330
1139.276, 13967.520
1139.758, 14100.920
1140.240, 14243.180
1140.722, 14332.030
1141.204, 14351.520
1141.687, 14429.920
1142.169, 14576.760
1142.651, 14707.210
1143.133, 14799.720
1143.615, 14887.570
1144.097, 14989.210
1144.579, 15114.300
1145.061, 15290.840
1145.543, 15492.100
1146.026, 15638.460
1146.508, 15741.070
1146.990, 15817.930
1147.472, 15885.930
1147.954, 16006.730
1148.436, 16193.230
1148.918, 16359.600
1149.400, 16429.840
1149.882, 16492.811
1150.365, 16640.760
1150.847, 16814.090
1151.329, 16959.189
1151.811, 17082.580
1152.293, 17192.680
1152.775, 17297.369
1153.257, 17414.811
1153.739, 17549.990
1154.222, 17695.359
1154.704, 17868.711
1155.186, 18023.410
1155.668, 18128.631
1156.150, 18228.869
1156.632, 18344.820
1157.114, 18481.020
1157.596, 18651.320
1158.078, 18853.250
1158.561, 19025.930
1159.043, 19153.561
1159.525, 19315.570
1160.007, 19531.529
1160.489, 19701.330
1160.971, 19781.510
1161.453, 19863.090
1161.935, 20024.369
1162.417, 20219.859
1162.900, 20346.311
1163.382, 20427.660
1163.864, 20580.449
1164.346, 20787.730
1164.828, 20993.410
1165.310, 21180.381
1165.792, 21306.090
1166.274, 21357.949
1166.757, 21426.811
1167.239, 21600.330
1167.721, 21801.100
1168.203, 21957.039
1168.685, 22098.391
1169.167, 22255.180
1169.649, 22422.010
1170.131, 22589.400
1170.614, 22752.881
1171.096, 22898.461
1171.578, 23010.199
1172.060, 23142.891
1172.542, 23329.199
1173.024, 23508.980
1173.506, 23669.240
1173.988, 23809.490
1174.470, 23918.051
1174.953, 24018.039
1175.435, 24149.090
1175.917, 24308.061
1176.399, 24439.420
1176.881, 24534.609
1177.363, 24673.311
1177.845, 24868.529
1178.327, 25017.100
1178.809, 25083.869
1179.292, 25138.789
1179.774, 25234.631
1180.256, 25355.070
1180.738, 25478.539
1181.220, 25603.381
1181.702, 25727.990
1182.184, 25847.490
1182.666, 25947.760
1183.149, 26031.221
1183.631, 26103.270
1184.113, 26167.850
1184.595, 26248.080
1185.077, 26368.160
1185.559, 26489.381
1186.041, 26594.600
1186.523, 26687.301
1187.005, 26765.020
1187.488, 26834.971
1187.970, 26894.141
1188.452, 26952.510
1188.934, 27055.061
1189.416, 27228.230
1189.898, 27337.891
1190.380, 27359.840
1190.862, 27373.270
1191.344, 27381.561
1191.827, 27410.250
1192.309, 27479.070
1192.791, 27546.520
1193.273, 27559.641
1193.755, 27542.301
1194.237, 27566.721
1194.719, 27626.260
1195.201, 27694.730
1195.684, 27765.461
1196.166, 27813.430
1196.648, 27837.180
1197.130, 27860.211
1197.612, 27894.070
1198.094, 27921.891
1198.576, 27918.760
1199.058, 27915.430
1199.541, 27942.150
1200.023, 27976.949
1200.505, 27998.770
1200.987, 28012.170
1201.469, 28033.631
1201.951, 28059.551
1202.433, 28056.400
1202.915, 28013.430
1203.397, 27952.801
1203.880, 27858.881
1204.362, 27779.949
1204.844, 27729.400
1205.326, 27692.689
1205.808, 27664.539
1206.290, 27638.760
1206.772, 27605.881
1207.254, 27567.990
1207.736, 27532.869
1208.219, 27500.840
1208.701, 27473.801
1209.183, 27451.301
1209.665, 27432.160
1210.147, 27414.961
1210.629, 27397.910
1211.111, 27382.490
1211.593, 27338.510
1212.076, 27192.320
1212.558, 27055.029
1213.040, 27053.561
1213.522, 27091.859
1214.004, 27070.580
1214.486, 27008.420
1214.968, 26946.449
1215.450, 26892.670
1215.932, 26864.301
1216.415, 26909.529
1216.897, 26882.109
1217.379, 26732.381
1217.861, 26600.859
1218.343, 26522.381
1218.825, 26465.920
1219.307, 26416.010
1219.789, 26368.150
1220.271, 26315.590
1220.754, 26259.500
1221.236, 26207.891
1221.718, 26157.449
1222.200, 26088.881
1222.682, 26003.930
1223.164, 25905.289
1223.646, 25802.760
1224.128, 25750.939
1224.611, 25785.699
1225.093, 25799.779
1225.575, 25680.381
1226.057, 25546.240
1226.539, 25480.760
1227.021, 25440.039
1227.503, 25392.619
1227.985, 25337.141
1228.468, 25276.199
1228.950, 25210.211
1229.432, 25141.480
1229.914, 25074.529
1230.396, 24991.420
1230.878, 24886.090
1231.360, 24781.391
1231.842, 24675.301
1232.324, 24612.510
1232.807, 24623.750
1233.289, 24639.619
1233.771, 24569.561
1234.253, 24459.000
1234.735, 24418.910
1235.217, 24414.971
1235.699, 24356.891
1236.181, 24269.350
1236.663, 24234.381
1237.146, 24247.721
1237.628, 24233.400
1238.110, 24162.311
1238.592, 24093.211
1239.074, 24053.400
1239.556, 24021.080
1240.038, 24005.670
1240.520, 23975.010
1241.003, 23890.221
1241.485, 23798.721
1241.967, 23741.881
1242.449, 23717.631
1242.931, 23726.820
1243.413, 23772.461
1243.895, 23776.400
1244.377, 23738.660
1244.859, 23681.199
1245.342, 23610.189
1245.824, 23555.961
1246.306, 23529.551
1246.788, 23513.859
1247.270, 23501.131
1247.752, 23473.660
1248.234, 23382.779
1248.716, 23297.881
1249.198, 23312.551
1249.681, 23357.320
1250.163, 23339.180
1250.645, 23281.119
1251.127, 23257.820
1251.609, 23278.869
1252.091, 23272.010
##END=



