##NAMES=Hydrocerussite
##RRUFFID=R080104
##IDEAL CHEMISTRY=Pb^2+^_3_(CO_3_)_2_(OH)_2_
##LOCALITY=St. Anthony deposit, Tiger, Mammoth District, Pinal County, Arizona
##OWNER=RRUFF
##SOURCE=Evan Jones
##DESCRIPTION=Colorless pyramidal crystals associated with diaboleite
##STATUS=The identification of this mineral has been confirmed only by single crystal X-ray diffraction.
##URL=rruff.info/R080104
92.52344, 2136.699
93.00555, 2111.619
93.48767, 2115.677
93.96979, 2201.665
94.45190, 2287.823
94.93402, 2363.426
95.41614, 2400.934
95.89825, 2414.430
96.38037, 2424.736
96.86249, 2431.122
97.34460, 2432.445
97.82672, 2427.050
98.30884, 2424.533
98.79095, 2429.501
99.27307, 2435.626
99.75519, 2434.530
100.2373, 2427.915
100.7194, 2419.771
101.2015, 2419.226
101.6837, 2428.212
102.1658, 2441.081
102.6479, 2453.496
103.1300, 2465.048
103.6121, 2478.374
104.0942, 2496.901
104.5764, 2518.191
105.0585, 2538.598
105.5406, 2555.958
106.0227, 2571.396
106.5048, 2588.352
106.9869, 2607.428
107.4691, 2625.663
107.9512, 2643.130
108.4333, 2659.077
108.9154, 2671.696
109.3975, 2678.713
109.8796, 2679.131
110.3618, 2679.867
110.8439, 2683.295
111.3260, 2685.006
111.8081, 2682.421
112.2902, 2675.535
112.7723, 2666.433
113.2544, 2658.070
113.7366, 2651.640
114.2187, 2643.594
114.7008, 2632.931
115.1829, 2621.251
115.6650, 2610.031
116.1471, 2599.755
116.6293, 2589.968
117.1114, 2579.632
117.5935, 2568.854
118.0756, 2557.479
118.5577, 2544.276
119.0398, 2530.298
119.5220, 2517.989
120.0041, 2508.727
120.4862, 2501.804
120.9683, 2495.073
121.4504, 2488.246
121.9325, 2482.016
122.4147, 2476.939
122.8968, 2473.021
123.3789, 2469.985
123.8610, 2468.183
124.3431, 2467.050
124.8252, 2466.443
125.3074, 2466.931
125.7895, 2467.162
126.2716, 2464.788
126.7537, 2461.221
127.2358, 2451.678
127.7179, 2437.281
128.2001, 2416.880
128.6822, 2388.758
129.1643, 2351.872
129.6464, 2306.292
130.1285, 2254.767
130.6107, 2193.340
131.0928, 2128.818
131.5749, 2061.043
132.0570, 1991.468
132.5391, 1921.816
133.0212, 1853.919
133.5034, 1787.438
133.9855, 1724.225
134.4676, 1662.196
134.9497, 1604.237
135.4318, 1552.388
135.9139, 1506.746
136.3960, 1465.252
136.8782, 1426.117
137.3603, 1389.484
137.8424, 1355.943
138.3245, 1326.440
138.8066, 1299.783
139.2887, 1274.954
139.7709, 1251.884
140.2530, 1230.516
140.7351, 1211.158
141.2172, 1193.671
141.6993, 1176.970
142.1814, 1160.388
142.6636, 1144.283
143.1457, 1129.895
143.6278, 1117.967
144.1099, 1107.663
144.5920, 1098.127
145.0741, 1089.363
145.5563, 1080.911
146.0384, 1072.099
146.5205, 1062.764
147.0026, 1054.649
147.4847, 1048.677
147.9668, 1043.664
148.4490, 1039.203
148.9311, 1035.179
149.4132, 1031.438
149.8953, 1027.755
150.3774, 1024.030
150.8595, 1020.558
151.3417, 1017.187
151.8238, 1014.114
152.3059, 1011.557
152.7880, 1009.600
153.2701, 1008.052
153.7522, 1006.468
154.2344, 1004.713
154.7165, 1003.085
155.1986, 1001.842
155.6807, 1000.659
156.1628, 999.0395
156.6449, 996.6976
157.1271, 993.8924
157.6092, 991.7118
158.0913, 990.3273
158.5734, 989.2127
159.0555, 988.6605
159.5376, 988.3448
160.0198, 987.3682
160.5019, 985.1197
160.9840, 981.8498
161.4661, 978.7440
161.9482, 975.5729
162.4303, 972.7719
162.9125, 971.1046
163.3946, 970.5018
163.8767, 969.2442
164.3588, 966.0270
164.8409, 961.5277
165.3230, 956.8985
165.8052, 952.4597
166.2873, 947.8541
166.7694, 942.6274
167.2515, 936.6221
167.7336, 930.4551
168.2157, 924.9001
168.6979, 919.2400
169.1800, 912.4479
169.6621, 903.8542
170.1442, 894.0162
170.6263, 884.4813
171.1084, 875.6563
171.5906, 866.4860
172.0727, 856.6210
172.5548, 846.2433
173.0369, 835.5699
173.5190, 824.7132
174.0011, 813.6765
174.4833, 802.5213
174.9654, 791.4124
175.4475, 779.8987
175.9296, 767.5683
176.4117, 754.7885
176.8938, 742.1115
177.3760, 729.9896
177.8581, 718.4427
178.3402, 706.6543
178.8223, 694.3259
179.3044, 682.1050
179.7865, 670.2352
180.2687, 658.7042
180.7508, 647.4258
181.2329, 636.3782
181.7150, 625.5302
182.1971, 615.1437
182.6792, 605.1177
183.1614, 595.5682
183.6435, 586.6970
184.1256, 578.4755
184.6077, 570.5043
185.0898, 562.4476
185.5719, 554.3113
186.0541, 546.2988
186.5362, 538.4529
187.0183, 530.7163
187.5004, 522.9122
187.9825, 514.9686
188.4646, 507.5191
188.9468, 501.5150
189.4289, 496.6186
189.9110, 491.3389
190.3931, 484.7228
190.8752, 477.7263
191.3573, 471.8767
191.8395, 467.5417
192.3216, 463.6402
192.8037, 459.5421
193.2858, 455.2681
193.7679, 450.7764
194.2500, 445.7706
194.7322, 440.5167
195.2143, 435.7677
195.6964, 431.5419
196.1785, 427.9353
196.6606, 425.2646
197.1427, 423.1505
197.6249, 420.7815
198.1070, 417.5209
198.5891, 413.4649
199.0712, 409.5768
199.5533, 405.7018
200.0354, 402.2125
200.5176, 399.4049
200.9997, 397.1038
201.4818, 394.9370
201.9639, 392.6233
202.4460, 390.1548
202.9281, 387.8182
203.4103, 385.9052
203.8924, 383.8781
204.3745, 381.4715
204.8566, 378.7898
205.3387, 376.1702
205.8208, 373.9161
206.3030, 372.0649
206.7851, 370.1642
207.2672, 368.2460
207.7493, 366.2570
208.2314, 364.1534
208.7135, 361.9621
209.1957, 359.7568
209.6778, 357.5965
210.1599, 355.4813
210.6420, 353.4598
211.1241, 351.7409
211.6062, 349.9230
212.0884, 347.6206
212.5705, 344.9411
213.0526, 342.4108
213.5347, 340.5230
214.0168, 339.3765
214.4989, 338.0971
214.9811, 336.6653
215.4632, 335.1273
215.9453, 333.5626
216.4274, 331.9557
216.9095, 330.1279
217.3916, 327.7939
217.8737, 324.9605
218.3559, 322.6932
218.8380, 321.3386
219.3201, 320.3275
219.8022, 319.2025
220.2843, 317.9303
220.7664, 316.6468
221.2486, 315.5447
221.7307, 314.5292
222.2128, 313.2451
222.6949, 311.4573
223.1770, 309.4677
223.6591, 307.5381
224.1413, 305.6464
224.6234, 304.0064
225.1055, 302.9332
225.5876, 302.2242
226.0697, 301.5614
226.5518, 301.0781
227.0340, 300.4873
227.5161, 299.2303
227.9982, 297.0908
228.4803, 295.0314
228.9624, 293.7704
229.4445, 292.9048
229.9267, 291.9014
230.4088, 290.4986
230.8909, 288.9230
231.3730, 287.6802
231.8551, 286.9659
232.3372, 286.0899
232.8194, 284.6230
233.3015, 282.8869
233.7836, 281.2380
234.2657, 279.8335
234.7478, 278.5839
235.2299, 277.3067
235.7121, 276.0309
236.1942, 274.6481
236.6763, 273.0099
237.1584, 271.3134
237.6405, 269.7655
238.1227, 268.4569
238.6048, 267.3115
239.0869, 266.1393
239.5690, 264.8983
240.0511, 263.6985
240.5332, 262.6028
241.0154, 261.5345
241.4975, 260.4131
241.9796, 259.2030
242.4617, 257.9637
242.9438, 256.8767
243.4259, 256.1325
243.9081, 255.2286
244.3902, 254.0524
244.8723, 252.7412
245.3544, 251.3299
245.8365, 249.8385
246.3186, 248.4530
246.8008, 247.6130
247.2829, 247.8967
247.7650, 247.9163
248.2471, 247.5076
248.7292, 246.8795
249.2113, 246.1730
249.6935, 245.4478
250.1756, 244.7527
250.6577, 244.1640
251.1398, 243.3726
251.6219, 243.2175
252.1040, 244.1857
252.5862, 245.4975
253.0683, 246.4513
253.5504, 246.8447
254.0325, 246.9759
254.5146, 247.3190
254.9967, 247.9304
255.4789, 248.7021
255.9610, 249.8472
256.4431, 251.0268
256.9252, 251.7384
257.4073, 251.9194
257.8894, 252.2676
258.3716, 253.7955
258.8537, 257.1974
259.3358, 260.0266
259.8179, 261.8518
260.3000, 263.3757
260.7821, 265.1377
261.2643, 267.2500
261.7464, 269.6416
262.2285, 272.3279
262.7106, 275.4483
263.1927, 278.1344
263.6748, 280.0388
264.1570, 281.7074
264.6391, 283.5859
265.1212, 285.7185
265.6033, 287.8821
266.0854, 289.8608
266.5675, 291.6329
267.0497, 293.3458
267.5318, 294.7257
268.0139, 296.2297
268.4960, 298.5938
268.9781, 301.7646
269.4602, 304.3759
269.9424, 305.2491
270.4245, 304.5180
270.9066, 303.9520
271.3887, 303.9070
271.8708, 303.7962
272.3529, 303.1510
272.8351, 301.9930
273.3172, 300.6861
273.7993, 299.5944
274.2814, 298.4259
274.7635, 296.4235
275.2456, 293.0323
275.7278, 289.4227
276.2099, 286.4977
276.6920, 284.1654
277.1741, 281.6733
277.6562, 278.7123
278.1383, 275.3188
278.6205, 271.7200
279.1026, 267.7952
279.5847, 263.8495
280.0668, 260.1233
280.5489, 256.5587
281.0310, 252.8553
281.5132, 248.6928
281.9953, 244.5827
282.4774, 241.3132
282.9595, 239.0269
283.4416, 236.7229
283.9237, 233.6944
284.4059, 230.1215
284.8880, 226.7447
285.3701, 223.8406
285.8522, 221.0743
286.3343, 217.9563
286.8164, 214.5121
287.2986, 211.3885
287.7807, 209.1367
288.2628, 207.4987
288.7449, 205.6450
289.2270, 203.3824
289.7091, 201.0209
290.1913, 198.7004
290.6734, 196.4587
291.1555, 194.4072
291.6376, 192.6780
292.1197, 191.1829
292.6018, 189.7122
293.0840, 188.3022
293.5661, 186.8297
294.0482, 185.0153
294.5303, 183.0978
295.0124, 181.5321
295.4945, 180.7029
295.9767, 180.2331
296.4588, 179.3938
296.9409, 178.0475
297.4230, 176.8040
297.9051, 176.2061
298.3872, 175.8183
298.8694, 175.0731
299.3515, 173.6561
299.8336, 172.0875
300.3157, 171.0581
300.7978, 170.6266
301.2799, 170.3538
301.7621, 170.2885
302.2442, 170.1920
302.7263, 169.8223
303.2084, 169.1123
303.6905, 168.2640
304.1726, 167.4363
304.6548, 166.6283
305.1369, 165.9033
305.6190, 165.3054
306.1011, 164.7774
306.5832, 164.3265
307.0653, 163.9447
307.5475, 163.4843
308.0296, 162.7417
308.5117, 161.7537
308.9938, 160.9573
309.4759, 160.5208
309.9580, 160.1672
310.4402, 159.7611
310.9223, 159.2893
311.4044, 158.7126
311.8865, 157.9526
312.3686, 157.0571
312.8507, 156.2359
313.3329, 155.5581
313.8150, 154.8364
314.2971, 153.8961
314.7792, 152.8465
315.2613, 151.8884
315.7434, 151.1394
316.2256, 150.5150
316.7077, 149.8504
317.1898, 149.1556
317.6719, 148.3694
318.1540, 147.3725
318.6361, 146.3061
319.1183, 145.3334
319.6004, 144.5180
320.0825, 143.7540
320.5646, 142.8493
321.0467, 141.7561
321.5288, 140.8310
322.0110, 140.3891
322.4931, 140.0410
322.9752, 139.4857
323.4573, 138.6768
323.9394, 137.7693
324.4215, 136.8819
324.9037, 136.0198
325.3858, 135.1758
325.8679, 134.3290
326.3500, 133.5292
326.8321, 132.8474
327.3142, 132.2595
327.7964, 131.6312
328.2785, 130.8131
328.7606, 129.8618
329.2427, 129.0705
329.7248, 128.5717
330.2069, 128.0327
330.6891, 127.1625
331.1712, 126.1099
331.6533, 125.1940
332.1354, 124.6439
332.6175, 124.2770
333.0996, 123.6722
333.5818, 122.7134
334.0639, 121.8844
334.5460, 121.5662
335.0281, 121.4691
335.5102, 121.2916
335.9923, 120.9522
336.4745, 120.5181
336.9566, 120.0123
337.4387, 119.4253
337.9208, 118.9645
338.4029, 118.8331
338.8850, 118.7613
339.3671, 118.4344
339.8492, 117.8044
340.3314, 117.2388
340.8135, 117.0638
341.2956, 117.2184
341.7777, 117.3537
342.2598, 117.4852
342.7419, 117.4604
343.2241, 117.0877
343.7062, 116.4319
344.1883, 115.8200
344.6704, 115.3320
345.1525, 115.0070
345.6346, 115.0422
346.1168, 115.6049
346.5989, 116.0185
347.0810, 115.5140
347.5631, 114.5399
348.0452, 113.8748
348.5273, 113.8311
349.0095, 114.0760
349.4916, 114.3107
349.9737, 114.5372
350.4558, 114.6292
350.9379, 114.4278
351.4200, 114.1121
351.9022, 113.9553
352.3843, 113.9713
352.8664, 114.1445
353.3485, 114.5969
353.8306, 115.2325
354.3127, 115.6409
354.7949, 115.6295
355.2770, 115.4858
355.7591, 115.5215
356.2412, 115.7198
356.7233, 116.1375
357.2054, 117.0727
357.6876, 118.1524
358.1697, 118.7073
358.6518, 118.5955
359.1339, 118.3628
359.6160, 118.4463
360.0981, 118.8144
360.5803, 119.2802
361.0624, 119.8588
361.5445, 120.5000
362.0266, 121.1741
362.5087, 121.8781
362.9908, 122.5851
363.4730, 123.2748
363.9551, 123.9610
364.4372, 124.6885
364.9193, 125.4170
365.4014, 126.2388
365.8835, 127.3064
366.3657, 128.4785
366.8478, 129.3954
367.3299, 129.8754
367.8120, 130.3100
368.2941, 131.4093
368.7762, 133.3606
369.2584, 135.0872
369.7405, 136.2615
370.2226, 137.2462
370.7047, 138.3813
371.1868, 139.7171
371.6689, 141.0961
372.1511, 142.3622
372.6332, 143.5130
373.1153, 144.8992
373.5974, 146.7552
374.0795, 148.6042
374.5616, 150.1687
375.0438, 151.5407
375.5259, 152.9786
376.0080, 154.6042
376.4901, 156.4137
376.9722, 158.3986
377.4543, 160.7234
377.9365, 163.0006
378.4186, 165.1784
378.9007, 167.2964
379.3828, 169.3499
379.8649, 171.3480
380.3470, 173.3777
380.8292, 175.5762
381.3113, 178.0754
381.7934, 180.3635
382.2755, 182.4490
382.7576, 184.3523
383.2397, 185.8544
383.7219, 187.1375
384.2040, 188.7377
384.6861, 191.1392
385.1682, 194.2643
385.6503, 196.7832
386.1324, 197.9432
386.6146, 199.3010
387.0967, 201.3670
387.5788, 203.6854
388.0609, 205.6569
388.5430, 207.0203
389.0251, 208.0181
389.5073, 209.1527
389.9894, 210.5632
390.4715, 211.8152
390.9536, 213.0240
391.4357, 213.9875
391.9178, 214.4904
392.4000, 214.5689
392.8821, 214.5138
393.3642, 214.6586
393.8463, 215.0198
394.3284, 214.9716
394.8105, 214.2247
395.2927, 213.3679
395.7748, 212.5020
396.2569, 211.6870
396.7390, 211.0622
397.2211, 210.7888
397.7032, 210.5473
398.1854, 209.5129
398.6675, 207.3498
399.1496, 205.4038
399.6317, 204.3983
400.1138, 203.5327
400.5959, 202.1947
401.0781, 200.2859
401.5602, 198.1537
402.0423, 196.0406
402.5244, 193.9603
403.0065, 192.0268
403.4886, 190.3044
403.9708, 188.6760
404.4529, 187.1625
404.9350, 185.6851
405.4171, 183.9914
405.8992, 181.8699
406.3813, 179.5316
406.8635, 177.2619
407.3456, 175.0553
407.8277, 172.9419
408.3098, 170.9620
408.7919, 169.0530
409.2740, 167.1247
409.7562, 165.1746
410.2383, 163.1820
410.7204, 161.0915
411.2025, 158.9345
411.6846, 156.7944
412.1667, 154.6979
412.6489, 152.5746
413.1310, 150.2594
413.6131, 147.7440
414.0952, 145.4651
414.5773, 143.7049
415.0594, 142.0712
415.5416, 140.1884
416.0237, 138.0628
416.5058, 135.9597
416.9879, 134.0626
417.4700, 132.3292
417.9521, 130.5211
418.4343, 128.6354
418.9164, 126.6947
419.3985, 124.5812
419.8806, 122.4487
420.3627, 120.5659
420.8448, 119.0106
421.3270, 117.6092
421.8091, 116.1008
422.2912, 114.4302
422.7733, 112.8281
423.2554, 111.3470
423.7375, 109.8883
424.2197, 108.4487
424.7018, 106.9976
425.1839, 105.4443
425.6660, 103.6988
426.1481, 101.8247
426.6302, 100.2070
427.1124, 98.99204
427.5945, 97.89804
428.0766, 96.92073
428.5587, 96.03448
429.0408, 95.19901
429.5229, 94.40797
430.0051, 93.69033
430.4872, 93.08004
430.9693, 92.57536
431.4514, 92.19709
431.9335, 92.08656
432.4156, 91.98186
432.8978, 91.74771
433.3799, 91.43179
433.8620, 91.15836
434.3441, 90.98576
434.8262, 90.92522
435.3083, 90.99621
435.7905, 91.16621
436.2726, 91.56094
436.7547, 92.49443
437.2368, 93.53430
437.7189, 94.28205
438.2010, 94.65372
438.6832, 94.89410
439.1653, 95.36815
439.6474, 95.94968
440.1295, 95.95174
440.6116, 95.24364
441.0938, 93.97282
441.5759, 92.12229
442.0580, 89.81580
442.5401, 87.34322
443.0222, 84.74197
443.5043, 82.04980
443.9865, 79.25965
444.4686, 76.39037
444.9507, 73.47411
445.4328, 70.44397
445.9149, 67.46335
446.3970, 64.94219
446.8792, 62.97285
447.3613, 61.09819
447.8434, 59.17886
448.3255, 57.29455
448.8076, 55.52602
449.2897, 53.88350
449.7719, 52.38319
450.2540, 51.04756
450.7361, 49.87901
451.2182, 48.78968
451.7003, 47.79219
452.1824, 46.84670
452.6646, 45.91707
453.1467, 45.02898
453.6288, 44.22470
454.1109, 43.52060
454.5930, 42.92756
455.0751, 42.48061
455.5573, 42.33602
456.0394, 42.02771
456.5215, 41.39259
457.0036, 40.76009
457.4857, 40.34860
457.9678, 40.12683
458.4500, 39.90921
458.9321, 39.54247
459.4142, 39.06522
459.8963, 38.70665
460.3784, 38.52365
460.8605, 38.36378
461.3427, 38.24170
461.8248, 38.08939
462.3069, 37.80198
462.7890, 37.35415
463.2711, 36.91680
463.7532, 36.70677
464.2354, 36.70288
464.7175, 36.61297
465.1996, 36.35583
465.6817, 36.08585
466.1638, 35.91547
466.6459, 35.81687
467.1281, 35.72316
467.6102, 35.60594
468.0923, 35.49026
468.5744, 35.40920
469.0565, 35.35883
469.5386, 35.30430
470.0208, 35.22424
470.5029, 35.14258
470.9850, 35.12381
471.4671, 35.19437
471.9492, 35.17998
472.4313, 34.95264
472.9135, 34.66748
473.3956, 34.51359
473.8777, 34.49527
474.3598, 34.45717
474.8419, 34.26882
475.3240, 33.95357
475.8062, 33.74718
476.2883, 33.72221
476.7704, 33.70028
477.2525, 33.63713
477.7346, 33.56247
478.2167, 33.52987
478.6989, 33.54702
479.1810, 33.55001
479.6631, 33.44684
480.1452, 33.20869
480.6273, 33.01499
481.1094, 32.80968
481.5916, 32.70911
482.0737, 32.85698
482.5558, 33.11807
483.0379, 33.25105
483.5200, 33.12826
484.0021, 32.88435
484.4843, 32.78663
484.9664, 32.87394
485.4485, 32.92536
485.9306, 32.85400
486.4127, 32.77232
486.8948, 32.74650
487.3770, 32.77702
487.8591, 32.84318
488.3412, 32.98477
488.8233, 33.13844
489.3054, 33.16552
489.7875, 33.05470
490.2697, 32.91820
490.7518, 32.79197
491.2339, 32.68843
491.7160, 32.61857
492.1981, 32.57603
492.6802, 32.58634
493.1624, 32.70159
493.6445, 32.86154
494.1266, 32.99793
494.6087, 33.09706
495.0908, 33.10991
495.5729, 32.97131
496.0551, 32.68404
496.5372, 32.48071
497.0193, 32.35769
497.5014, 32.30790
497.9835, 32.37816
498.4656, 32.50309
498.9478, 32.61875
499.4299, 32.69759
499.9120, 32.69490
500.3941, 32.51271
500.8762, 32.04857
501.3583, 31.81069
501.8405, 31.98108
502.3226, 32.19374
502.8047, 32.38387
503.2868, 32.51240
503.7689, 32.51333
504.2510, 32.34030
504.7331, 32.08696
505.2152, 31.92160
505.6974, 31.85381
506.1795, 31.81759
506.6616, 31.87799
507.1437, 31.88818
507.6258, 31.68217
508.1079, 31.30545
508.5901, 31.01794
509.0722, 31.04722
509.5543, 31.18771
510.0364, 31.09391
510.5185, 30.76890
511.0006, 30.52400
511.4828, 30.53429
511.9649, 30.68739
512.4470, 30.75859
512.9291, 30.75956
513.4113, 30.66717
513.8934, 30.37858
514.3755, 30.05183
514.8576, 29.87510
515.3397, 29.84774
515.8218, 29.81835
516.3040, 29.66478
516.7861, 29.41449
517.2682, 29.26886
517.7503, 29.39057
518.2324, 29.41392
518.7145, 29.24049
519.1967, 28.99311
519.6788, 28.76562
520.1609, 28.58611
520.6430, 28.46005
521.1251, 28.40536
521.6072, 28.41904
522.0894, 28.40798
522.5715, 28.38173
523.0536, 28.31234
523.5357, 28.15384
524.0178, 27.96955
524.4999, 27.84666
524.9821, 27.81365
525.4642, 27.77081
525.9463, 27.61208
526.4284, 27.36206
526.9105, 27.10982
527.3926, 26.84545
527.8748, 26.65223
528.3569, 26.65072
528.8390, 26.77957
529.3211, 26.82505
529.8032, 26.76055
530.2853, 26.61526
530.7675, 26.34131
531.2496, 26.00859
531.7317, 25.77256
532.2138, 25.67876
532.6959, 25.61249
533.1780, 25.41848
533.6602, 25.05240
534.1423, 24.83848
534.6244, 24.83686
535.1065, 24.89366
535.5886, 25.03416
536.0707, 25.17094
536.5529, 25.15825
537.0350, 24.94225
537.5171, 24.64422
537.9992, 24.46622
538.4813, 24.43810
538.9634, 24.37516
539.4456, 24.21227
539.9277, 24.07951
540.4098, 24.08199
540.8919, 24.15183
541.3740, 24.14306
541.8561, 23.96918
542.3383, 23.75767
542.8204, 23.68923
543.3025, 23.74455
543.7846, 23.73018
544.2667, 23.57836
544.7488, 23.38351
545.2310, 23.24826
545.7131, 23.16562
546.1952, 23.07610
546.6773, 22.91910
547.1594, 22.80117
547.6415, 22.84017
548.1237, 22.97275
548.6058, 23.03081
549.0879, 22.94448
549.5700, 22.79585
550.0521, 22.71873
550.5342, 22.73310
551.0164, 22.76274
551.4985, 22.87352
551.9806, 22.93075
552.4627, 22.85245
552.9448, 22.68108
553.4269, 22.49480
553.9091, 22.32904
554.3912, 22.18117
554.8733, 22.04452
555.3554, 21.91614
555.8375, 21.81729
556.3196, 21.77447
556.8018, 21.73470
557.2839, 21.63767
557.7660, 21.51443
558.2481, 21.45711
558.7302, 21.53639
559.2123, 21.64980
559.6945, 21.73106
560.1766, 21.76619
560.6587, 21.66700
561.1408, 21.37938
561.6229, 21.03870
562.1050, 20.80030
562.5872, 20.67707
563.0693, 20.61696
563.5514, 20.66413
564.0335, 20.72999
564.5156, 20.79688
564.9977, 20.84456
565.4799, 20.83533
565.9620, 20.75508
566.4441, 20.64072
566.9262, 20.55011
567.4083, 20.48936
567.8904, 20.42677
568.3726, 20.32095
568.8547, 20.25836
569.3368, 20.32881
569.8189, 20.44711
570.3010, 20.46363
570.7831, 20.31064
571.2653, 20.10912
571.7474, 19.98865
572.2295, 19.94473
572.7116, 19.95318
573.1937, 20.04193
573.6758, 20.10295
574.1580, 20.01871
574.6401, 19.82606
575.1222, 19.66878
575.6043, 19.53973
576.0864, 19.47200
576.5685, 19.54997
577.0507, 19.68148
577.5328, 19.68703
578.0149, 19.52910
578.4970, 19.35473
578.9791, 19.32601
579.4612, 19.44979
579.9434, 19.54722
580.4255, 19.69810
580.9076, 19.72400
581.3897, 19.46372
581.8718, 19.12847
582.3539, 18.95432
582.8361, 18.98905
583.3182, 19.09823
583.8003, 19.17902
584.2824, 19.22647
584.7645, 19.17780
585.2466, 18.97438
585.7288, 18.84342
586.2108, 18.95586
586.6929, 19.18184
587.1750, 19.32513
587.6572, 19.34701
588.1393, 19.39708
588.6214, 19.60615
589.1035, 19.85073
589.5856, 19.93145
590.0677, 19.85068
590.5499, 19.80059
591.0320, 19.91106
591.5141, 20.13834
591.9962, 20.32004
592.4783, 20.46989
592.9604, 20.54679
593.4426, 20.44042
593.9247, 20.35249
594.4068, 20.44554
594.8889, 20.68991
595.3710, 20.94135
595.8531, 21.09785
596.3353, 21.21872
596.8174, 21.46224
597.2995, 21.85255
597.7816, 22.22306
598.2637, 22.53855
598.7458, 22.81885
599.2280, 23.03144
599.7101, 23.20724
600.1922, 23.51947
600.6743, 24.14157
601.1564, 24.81764
601.6385, 25.34198
602.1207, 25.74556
602.6028, 26.11450
603.0849, 26.47202
603.5670, 26.84475
604.0491, 27.26872
604.5313, 27.75235
605.0134, 28.23515
605.4955, 28.75236
605.9776, 29.23013
606.4597, 29.74570
606.9418, 30.16652
607.4240, 30.26729
607.9061, 30.00521
608.3882, 29.63752
608.8703, 29.53764
609.3524, 29.66214
609.8345, 29.35356
610.3167, 28.42138
610.7988, 27.51455
611.2809, 27.01967
611.7630, 26.71041
612.2451, 26.27355
612.7272, 25.65965
613.2094, 25.04185
613.6915, 24.40984
614.1736, 23.86555
614.6557, 23.56674
615.1378, 23.50159
615.6199, 23.53667
616.1021, 23.59981
616.5842, 23.68528
617.0663, 23.77256
617.5484, 23.80781
618.0305, 23.94321
618.5126, 24.38657
618.9948, 24.72850
619.4769, 24.70837
619.9590, 24.39758
620.4411, 24.00539
620.9232, 23.63816
621.4053, 23.22487
621.8875, 22.62737
622.3696, 21.85009
622.8517, 21.06516
623.3338, 20.27132
623.8159, 19.53629
624.2980, 18.91929
624.7802, 18.41047
625.2623, 17.99152
625.7444, 17.72705
626.2265, 17.46964
626.7086, 17.09094
627.1907, 16.70197
627.6729, 16.51120
628.1550, 16.53035
628.6371, 16.52068
629.1192, 16.25278
629.6013, 15.77345
630.0834, 15.48282
630.5656, 15.50163
631.0477, 15.51145
631.5298, 15.46110
632.0119, 15.39040
632.4940, 15.30502
632.9761, 15.22090
633.4583, 15.19221
633.9404, 15.28986
634.4225, 15.42877
634.9046, 15.47827
635.3867, 15.44161
635.8688, 15.35124
636.3510, 15.20383
636.8331, 15.03693
637.3152, 14.87785
637.7973, 14.72218
638.2794, 14.66397
638.7615, 14.77980
639.2437, 14.90882
639.7258, 15.01521
640.2079, 15.08166
640.6900, 15.06763
641.1721, 14.97346
641.6542, 14.87525
642.1364, 14.85804
642.6185, 14.91498
643.1006, 14.95387
643.5827, 14.95372
644.0648, 14.98205
644.5469, 15.11790
645.0291, 15.25794
645.5112, 15.31250
645.9933, 15.27473
646.4754, 15.18157
646.9575, 14.97406
647.4396, 14.77358
647.9218, 14.72526
648.4039, 14.80723
648.8860, 14.93390
649.3681, 15.08141
649.8502, 15.17507
650.3323, 15.08137
650.8145, 14.72851
651.2966, 14.51921
651.7787, 14.51657
652.2608, 14.57813
652.7429, 14.75450
653.2250, 14.92885
653.7072, 14.93377
654.1893, 14.73481
654.6714, 14.50209
655.1535, 14.36702
655.6356, 14.32619
656.1177, 14.40512
656.5999, 14.62555
657.0820, 14.78075
657.5641, 14.76075
658.0462, 14.63440
658.5283, 14.50981
659.0104, 14.37363
659.4926, 14.29877
659.9747, 14.34464
660.4568, 14.40858
660.9389, 14.40660
661.4210, 14.37621
661.9031, 14.40060
662.3853, 14.51230
662.8674, 14.67625
663.3495, 14.85060
663.8316, 15.03645
664.3137, 15.22504
664.7958, 15.44560
665.2780, 15.61472
665.7601, 15.59938
666.2422, 15.55965
666.7243, 15.69841
667.2064, 16.05367
667.6885, 16.43908
668.1707, 16.80656
668.6528, 17.13352
669.1349, 17.36332
669.6170, 17.52073
670.0991, 17.71388
670.5812, 17.99345
671.0634, 18.31741
671.5455, 18.59620
672.0276, 18.75968
672.5097, 19.14067
672.9918, 19.94890
673.4739, 20.74814
673.9561, 21.36622
674.4382, 21.91421
674.9203, 22.50373
675.4024, 23.16121
675.8845, 23.99773
676.3666, 25.17068
676.8488, 26.56219
677.3309, 27.99027
677.8130, 29.43738
678.2951, 30.72481
678.7772, 31.79184
679.2593, 32.62218
679.7415, 33.19979
680.2236, 33.50920
680.7057, 33.56346
681.1878, 33.41694
681.6699, 32.96513
682.1520, 32.02015
682.6342, 30.78983
683.1163, 29.51890
683.5984, 28.29001
684.0805, 27.21170
684.5626, 26.46981
685.0447, 25.99220
685.5269, 25.32944
686.0090, 24.41178
686.4911, 23.66117
686.9732, 23.29483
687.4553, 23.16715
687.9374, 23.07138
688.4196, 23.01269
688.9017, 22.93631
689.3838, 22.69398
689.8659, 22.57183
690.3480, 22.83000
690.8301, 23.30184
691.3123, 23.67203
691.7944, 23.84942
692.2765, 24.03346
692.7586, 24.48597
693.2407, 25.18157
693.7228, 25.75302
694.2050, 26.20424
694.6871, 26.52629
695.1692, 26.59593
695.6513, 26.62471
696.1334, 26.92514
696.6155, 27.49369
697.0977, 27.79599
697.5798, 27.55003
698.0619, 27.10120
698.5440, 26.66942
699.0261, 26.23322
699.5082, 25.69330
699.9904, 25.03483
700.4725, 24.43085
700.9546, 24.09413
701.4367, 23.99996
701.9188, 23.74039
702.4009, 23.17883
702.8831, 22.72553
703.3652, 22.40538
703.8473, 22.29118
704.3294, 22.54757
704.8115, 23.11266
705.2936, 23.60605
705.7758, 23.83657
706.2579, 23.97600
706.7400, 24.19117
707.2221, 24.42015
707.7042, 24.53867
708.1863, 24.51503
708.6685, 24.36852
709.1506, 24.12787
709.6327, 23.77656
710.1148, 23.17589
710.5969, 22.19889
711.0790, 21.20460
711.5612, 20.19560
712.0433, 19.21900
712.5254, 18.30582
713.0075, 17.45705
713.4896, 16.65441
713.9717, 15.81179
714.4539, 15.16212
714.9360, 15.01306
715.4181, 15.19417
715.9002, 15.33954
716.3823, 15.38761
716.8644, 15.40448
717.3466, 15.44492
717.8287, 15.48164
718.3108, 15.39941
718.7929, 15.03570
719.2750, 14.86545
719.7571, 15.01781
720.2393, 15.23839
720.7214, 15.46488
721.2035, 15.65334
721.6856, 15.73151
722.1677, 15.66246
722.6498, 15.55001
723.1320, 15.46768
723.6141, 15.40775
724.0962, 15.31988
724.5783, 15.21238
725.0604, 15.26367
725.5425, 15.61055
726.0247, 16.04916
726.5068, 16.13884
726.9889, 15.68880
727.4710, 15.47235
727.9531, 15.65570
728.4352, 15.87836
728.9174, 16.05159
729.3995, 16.18247
729.8816, 16.27612
730.3637, 16.33568
730.8458, 16.39563
731.3279, 16.51861
731.8101, 16.63800
732.2922, 16.61632
732.7743, 16.47521
733.2564, 16.35439
733.7385, 16.29938
734.2206, 16.32248
734.7028, 16.45390
735.1849, 16.70461
735.6670, 16.89800
736.1491, 17.04678
736.6312, 17.11628
737.1133, 17.03833
737.5955, 16.92571
738.0776, 16.85912
738.5597, 16.85083
739.0418, 16.90119
739.5239, 17.06283
740.0060, 17.21862
740.4882, 17.18790
740.9703, 17.03963
741.4524, 17.01463
741.9345, 17.16200
742.4166, 17.28262
742.8987, 17.19715
743.3809, 16.95841
743.8630, 16.83140
744.3451, 16.86766
744.8272, 16.92415
745.3093, 16.94574
745.7914, 17.02976
746.2736, 17.34316
746.7557, 17.73532
747.2378, 17.87268
747.7199, 17.59194
748.2020, 17.29690
748.6841, 17.34536
749.1663, 17.56220
749.6484, 17.65183
750.1305, 17.60214
750.6126, 17.51842
751.0947, 17.45024
751.5768, 17.40276
752.0590, 17.39338
752.5411, 17.44346
753.0232, 17.42632
753.5053, 17.24126
753.9874, 17.12549
754.4695, 17.17721
754.9517, 17.31319
755.4338, 17.46362
755.9159, 17.61655
756.3980, 17.73937
756.8801, 17.80972
757.3622, 17.84958
757.8444, 17.89993
758.3265, 17.93381
758.8086, 17.85526
759.2907, 17.65038
759.7728, 17.45860
760.2549, 17.41918
760.7371, 17.51004
761.2192, 17.59472
761.7013, 17.66288
762.1834, 17.75660
762.6655, 17.94747
763.1476, 18.09693
763.6298, 18.06530
764.1119, 17.92294
764.5940, 17.87249
765.0761, 18.00105
765.5582, 18.13205
766.0403, 18.16174
766.5225, 18.16134
767.0046, 18.20739
767.4867, 18.30101
767.9688, 18.42085
768.4509, 18.55787
768.9330, 18.67880
769.4152, 18.71525
769.8973, 18.66313
770.3794, 18.63374
770.8615, 18.61815
771.3436, 18.65791
771.8257, 18.80941
772.3079, 18.99852
772.7900, 19.14298
773.2721, 19.25158
773.7542, 19.21799
774.2363, 18.80212
774.7184, 18.48733
775.2006, 18.58646
775.6827, 18.89865
776.1648, 19.19456
776.6469, 19.40693
777.1290, 19.51318
777.6111, 19.45201
778.0933, 19.33468
778.5754, 19.46459
779.0575, 19.82882
779.5396, 20.03585
780.0217, 19.97374
780.5038, 19.88542
780.9860, 19.97888
781.4681, 20.19623
781.9502, 20.28234
782.4323, 20.11112
782.9144, 20.02035
783.3965, 20.04234
783.8787, 20.13016
784.3608, 20.31657
784.8429, 20.53191
785.3250, 20.65238
785.8071, 20.63865
786.2892, 20.59945
786.7714, 20.62128
787.2535, 20.68283
787.7356, 20.76713
788.2177, 20.86242
788.6998, 20.89001
789.1819, 20.81589
789.6641, 20.71343
790.1462, 20.67002
790.6283, 20.68550
791.1104, 20.71710
791.5925, 20.75751
792.0746, 20.82687
792.5568, 20.97676
793.0389, 21.11451
793.5210, 21.17512
794.0031, 21.16765
794.4852, 21.11947
794.9673, 20.96736
795.4495, 20.91738
795.9316, 21.22034
796.4137, 21.62839
796.8958, 21.82498
797.3779, 21.80347
797.8600, 21.68655
798.3422, 21.53434
798.8243, 21.38734
799.3064, 21.30882
799.7885, 21.29907
800.2706, 21.35597
800.7527, 21.51794
801.2349, 21.62388
801.7170, 21.57220
802.1991, 21.46659
802.6812, 21.46213
803.1633, 21.55937
803.6454, 21.61009
804.1276, 21.60769
804.6097, 21.54863
805.0918, 21.39510
805.5739, 21.20921
806.0560, 20.83498
806.5381, 20.45542
807.0203, 20.82145
807.5024, 22.65074
807.9845, 24.55647
808.4666, 24.31760
808.9487, 22.47367
809.4308, 21.09190
809.9130, 20.41590
810.3951, 20.07192
810.8772, 19.89482
811.3593, 19.80049
811.8414, 19.61009
812.3235, 19.27781
812.8057, 19.01808
813.2878, 18.90653
813.7699, 18.77249
814.2520, 18.52390
814.7341, 18.26124
815.2162, 18.09066
815.6984, 18.01608
816.1805, 17.96127
816.6626, 17.97002
817.1447, 17.90981
817.6268, 17.60200
818.1089, 17.19654
818.5911, 16.91104
819.0732, 16.78237
819.5553, 16.78347
820.0374, 16.91044
820.5195, 17.08225
821.0016, 17.10644
821.4838, 16.97650
821.9659, 16.94875
822.4480, 17.07047
822.9301, 17.19792
823.4122, 17.26498
823.8943, 17.28922
824.3765, 17.28049
824.8586, 17.20966
825.3407, 17.26225
825.8228, 17.50931
826.3049, 17.80157
826.7870, 18.09595
827.2692, 18.40634
827.7513, 18.73618
828.2334, 19.09532
828.7155, 19.51183
829.1976, 20.00065
829.6797, 20.55735
830.1619, 21.16847
830.6440, 21.84468
831.1261, 22.66014
831.6082, 23.59830
832.0903, 24.43748
832.5724, 25.04878
833.0546, 25.51688
833.5367, 26.01339
834.0188, 26.56043
834.5009, 26.98934
834.9830, 27.29525
835.4651, 27.49527
835.9473, 27.65553
836.4294, 27.65915
836.9115, 27.38716
837.3936, 26.84356
837.8757, 26.12409
838.3578, 25.07329
838.8400, 24.06027
839.3221, 23.21292
839.8042, 22.47096
840.2863, 21.83233
840.7684, 21.23919
841.2505, 20.51953
841.7327, 19.55824
842.2148, 18.64911
842.6969, 18.10248
843.1790, 17.89158
843.6611, 18.12299
844.1432, 18.73942
844.6254, 18.88447
845.1075, 18.14006
845.5896, 17.13552
846.0717, 16.71103
846.5538, 16.87078
847.0359, 16.99516
847.5181, 17.10021
848.0002, 17.13474
848.4823, 16.99892
848.9644, 16.87345
849.4465, 16.85584
849.9286, 16.94828
850.4108, 17.15940
850.8929, 17.54118
851.3750, 17.92555
851.8571, 18.30975
852.3392, 18.62523
852.8214, 18.76847
853.3035, 18.81148
853.7856, 18.89705
854.2677, 19.07060
854.7498, 19.28089
855.2319, 19.53622
855.7141, 19.76430
856.1962, 19.74427
856.6783, 19.51816
857.1604, 19.40737
857.6425, 19.49926
858.1246, 19.57908
858.6068, 19.44905
859.0889, 19.19030
859.5710, 19.12504
860.0531, 19.37386
860.5352, 19.49773
861.0173, 19.45012
861.4995, 19.31514
861.9816, 19.03205
862.4637, 18.73523
862.9458, 18.64077
863.4279, 18.78015
863.9100, 18.82102
864.3922, 18.66961
864.8743, 18.41046
865.3564, 18.06663
865.8385, 17.65419
866.3206, 17.14939
866.8027, 16.58621
867.2849, 16.08381
867.7670, 15.72435
868.2491, 15.40622
868.7312, 14.95317
869.2133, 14.44525
869.6954, 14.14412
870.1776, 14.05283
870.6597, 13.94683
871.1418, 13.72468
871.6239, 13.44456
872.1060, 13.17816
872.5881, 12.92626
873.0703, 12.72036
873.5524, 12.57159
874.0345, 12.43942
874.5166, 12.29596
874.9987, 12.18751
875.4808, 12.17373
875.9630, 12.22422
876.4451, 12.25412
876.9272, 12.27548
877.4093, 12.23933
877.8914, 12.11527
878.3735, 11.95239
878.8557, 11.74431
879.3378, 11.53215
879.8199, 11.36184
880.3020, 11.24688
880.7841, 11.20037
881.2662, 11.28944
881.7484, 11.39579
882.2305, 11.36551
882.7126, 11.23912
883.1947, 11.09770
883.6768, 10.96151
884.1589, 10.84683
884.6411, 10.76433
885.1232, 10.71197
885.6053, 10.69917
886.0874, 10.72810
886.5695, 10.71267
887.0516, 10.64829
887.5338, 10.54541
888.0159, 10.38631
888.4980, 10.22670
888.9801, 10.14174
889.4622, 10.13103
889.9443, 10.08687
890.4265, 9.974553
890.9086, 9.879226
891.3907, 9.833666
891.8728, 9.782754
892.3549, 9.661514
892.8370, 9.518640
893.3192, 9.463713
893.8013, 9.532857
894.2834, 9.580739
894.7655, 9.523230
895.2476, 9.427865
895.7297, 9.330933
896.2119, 9.244465
896.6940, 9.189265
897.1761, 9.164264
897.6582, 9.144102
898.1403, 9.113200
898.6224, 9.070918
899.1046, 9.005158
899.5867, 8.925467
900.0688, 8.870815
900.5509, 8.844922
901.0330, 8.855450
901.5151, 8.913903
901.9973, 8.965642
902.4794, 8.920856
902.9615, 8.779386
903.4436, 8.699538
903.9257, 8.713483
904.4078, 8.702862
904.8900, 8.625604
905.3721, 8.540299
905.8542, 8.506590
906.3363, 8.499201
906.8184, 8.434068
907.3005, 8.260791
907.7827, 8.151928
908.2648, 8.135760
908.7469, 8.180454
909.2290, 8.348950
909.7111, 8.523835
910.1932, 8.539379
910.6754, 8.396767
911.1575, 8.271239
911.6396, 8.259799
912.1217, 8.278117
912.6038, 8.268935
913.0859, 8.240465
913.5681, 8.184884
914.0502, 8.120020
914.5323, 8.103228
915.0144, 8.158949
915.4965, 8.242611
915.9786, 8.322936
916.4607, 8.383873
916.9428, 8.349250
917.4249, 8.227160
917.9070, 8.123770
918.3892, 8.063586
918.8713, 8.040735
919.3534, 8.050696
919.8355, 8.094568
920.3176, 8.188958
920.7997, 8.374148
921.2819, 8.456677
921.7640, 8.391736
922.2461, 8.304534
922.7282, 8.212754
923.2103, 8.148608
923.6924, 8.180719
924.1746, 8.301029
924.6567, 8.347315
925.1388, 8.246614
925.6209, 8.164717
926.1030, 8.118159
926.5851, 8.112005
927.0673, 8.183177
927.5494, 8.285449
928.0315, 8.334455
928.5136, 8.308552
928.9957, 8.276411
929.4778, 8.244296
929.9600, 8.250042
930.4421, 8.381216
930.9242, 8.542873
931.4063, 8.579453
931.8884, 8.488425
932.3705, 8.361160
932.8527, 8.239489
933.3348, 8.167247
933.8169, 8.255497
934.2990, 8.425370
934.7811, 8.430292
935.2632, 8.287762
935.7454, 8.206227
936.2275, 8.254397
936.7096, 8.314686
937.1917, 8.254770
937.6738, 8.138849
938.1559, 8.264649
938.6381, 8.684965
939.1202, 8.887141
939.6023, 8.763658
940.0844, 8.598712
940.5665, 8.507117
941.0486, 8.494066
941.5308, 8.581842
942.0129, 8.783153
942.4950, 8.948401
942.9771, 9.064787
943.4592, 9.164875
943.9413, 9.228903
944.4235, 9.302230
944.9056, 9.417878
945.3877, 9.563013
945.8698, 9.700541
946.3519, 9.811049
946.8340, 9.979777
947.3162, 10.18146
947.7983, 10.50027
948.2804, 10.89222
948.7625, 11.48267
949.2446, 12.69323
949.7267, 14.27994
950.2089, 15.21733
950.6910, 14.86907
951.1731, 14.38616
951.6552, 14.57549
952.1373, 15.20986
952.6194, 16.11039
953.1016, 17.19456
953.5837, 18.30697
954.0658, 19.42126
954.5479, 20.70556
955.0300, 22.30232
955.5121, 24.15972
955.9943, 26.21980
956.4764, 28.46200
956.9585, 30.85218
957.4406, 33.38161
957.9227, 35.77919
958.4048, 37.90943
958.8870, 40.10633
959.3691, 42.78757
959.8512, 45.94464
960.3333, 49.48133
960.8154, 53.34969
961.2975, 57.83540
961.7797, 62.91539
962.2618, 68.77773
962.7439, 75.51665
963.2260, 83.05661
963.7081, 91.13013
964.1902, 99.52535
964.6724, 109.6732
965.1545, 121.6637
965.6366, 135.2292
966.1187, 150.8556
966.6008, 167.5107
967.0829, 185.3125
967.5651, 203.5251
968.0472, 220.2523
968.5293, 237.1145
969.0114, 248.0193
969.4935, 252.7332
969.9756, 250.6926
970.4578, 240.1506
970.9399, 223.8121
971.4220, 202.9869
971.9041, 178.8634
972.3862, 154.6721
972.8683, 130.6012
973.3505, 108.8923
973.8326, 90.50305
974.3147, 75.01308
974.7968, 62.49852
975.2789, 52.50363
975.7610, 44.57198
976.2432, 38.45972
976.7253, 33.58867
977.2074, 29.80710
977.6895, 26.77491
978.1716, 24.21479
978.6537, 22.10797
979.1359, 20.46292
979.6180, 19.21339
980.1001, 18.17882
980.5822, 17.28167
981.0643, 16.51494
981.5464, 15.89559
982.0286, 15.38105
982.5107, 14.89907
982.9928, 14.44673
983.4749, 13.99128
983.9570, 13.53418
984.4391, 13.14472
984.9213, 12.86298
985.4034, 12.64402
985.8855, 12.42292
986.3676, 12.20372
986.8497, 12.04305
987.3318, 11.94974
987.8140, 11.78889
988.2961, 11.50435
988.7782, 11.29944
989.2603, 11.32802
989.7424, 11.48388
990.2245, 11.54561
990.7067, 11.49930
991.1888, 11.48424
991.6709, 11.56484
992.1530, 11.50368
992.6351, 11.12281
993.1172, 10.76708
993.5994, 10.71833
994.0815, 10.89425
994.5636, 11.05511
995.0457, 11.23775
995.5278, 11.30020
996.0099, 11.14901
996.4921, 11.00063
996.9742, 10.90100
997.4563, 10.83242
997.9384, 10.79425
998.4205, 10.77442
998.9026, 10.72133
999.3848, 10.56027
999.8669, 10.54392
1000.349, 10.87657
1000.831, 11.18281
1001.313, 11.27045
1001.795, 11.24663
1002.277, 11.20891
1002.760, 11.18001
1003.242, 11.18790
1003.724, 11.26329
1004.206, 11.32086
1004.688, 11.25266
1005.170, 11.22028
1005.652, 11.44495
1006.134, 11.73887
1006.617, 11.77770
1007.099, 11.55890
1007.581, 11.37998
1008.063, 11.39732
1008.545, 11.47572
1009.027, 11.52487
1009.509, 11.56149
1009.991, 11.62019
1010.473, 11.67885
1010.956, 11.67879
1011.438, 11.61357
1011.920, 11.52871
1012.402, 11.42029
1012.884, 11.39152
1013.366, 11.64377
1013.848, 12.03178
1014.330, 12.31063
1014.813, 12.46388
1015.295, 12.48143
1015.777, 12.37889
1016.259, 12.30682
1016.741, 12.39750
1017.223, 12.59140
1017.705, 12.81162
1018.187, 13.03920
1018.669, 13.16782
1019.152, 13.21452
1019.634, 13.36606
1020.116, 13.69057
1020.598, 14.08110
1021.080, 14.41944
1021.562, 14.75063
1022.044, 15.24759
1022.526, 15.88206
1023.008, 16.29801
1023.491, 16.46073
1023.973, 16.71267
1024.455, 17.19600
1024.937, 17.83501
1025.419, 18.56661
1025.901, 19.35725
1026.383, 20.09987
1026.865, 20.80994
1027.348, 21.18618
1027.830, 21.14688
1028.312, 21.05836
1028.794, 21.01759
1029.276, 21.22654
1029.758, 21.95470
1030.240, 23.15931
1030.722, 24.43605
1031.204, 25.67649
1031.687, 27.45949
1032.169, 29.87158
1032.651, 32.75064
1033.133, 36.05582
1033.615, 39.68237
1034.097, 43.30437
1034.579, 47.01897
1035.061, 52.27706
1035.544, 59.21483
1036.026, 67.32524
1036.508, 76.57697
1036.990, 86.97635
1037.472, 98.60571
1037.954, 111.2491
1038.436, 124.6588
1038.918, 138.8066
1039.401, 153.6819
1039.883, 168.8224
1040.365, 185.3158
1040.847, 202.1971
1041.329, 221.7584
1041.811, 244.2658
1042.293, 270.7397
1042.775, 302.4241
1043.257, 339.2388
1043.740, 380.4974
1044.222, 428.7974
1044.704, 477.5251
1045.186, 526.3829
1045.668, 575.8508
1046.150, 625.2601
1046.632, 676.0270
1047.114, 728.3702
1047.596, 782.7055
1048.079, 843.7560
1048.561, 921.0532
1049.043, 991.0893
1049.525, 1062.812
1050.007, 1113.040
1050.489, 1132.161
1050.971, 1123.122
1051.453, 1090.377
1051.936, 1033.592
1052.418, 948.2775
1052.900, 821.2307
1053.382, 686.9960
1053.864, 533.5474
1054.346, 394.1148
1054.828, 282.3253
1055.310, 196.1076
1055.792, 136.7406
1056.275, 101.2238
1056.757, 76.65693
1057.239, 63.33688
1057.721, 54.14911
1058.203, 48.81383
1058.685, 45.23172
1059.167, 42.93052
1059.649, 41.31890
1060.131, 39.82025
1060.614, 38.42719
1061.096, 37.41336
1061.578, 36.90837
1062.060, 36.65448
1062.542, 36.18881
1063.024, 36.38165
1063.506, 38.59615
1063.988, 41.12653
1064.471, 41.89937
1064.953, 41.12953
1065.435, 40.36388
1065.917, 39.91388
1066.399, 39.87040
1066.881, 40.42990
1067.363, 41.21844
1067.845, 42.20980
1068.328, 43.17307
1068.810, 43.86133
1069.292, 44.29881
1069.774, 44.65107
1070.256, 44.96254
1070.738, 45.19202
1071.220, 45.18922
1071.702, 45.25254
1072.184, 45.71001
1072.667, 46.19977
1073.149, 46.34782
1073.631, 46.19067
1074.113, 45.89083
1074.595, 45.47536
1075.077, 45.12429
1075.559, 45.15377
1076.041, 44.98712
1076.523, 44.06494
1077.006, 42.99177
1077.488, 42.42309
1077.970, 42.16847
1078.452, 41.65318
1078.934, 40.74224
1079.416, 39.92562
1079.898, 39.44926
1080.380, 39.07983
1080.862, 38.90800
1081.345, 38.59388
1081.827, 37.54104
1082.309, 36.23191
1082.791, 35.83297
1083.273, 36.44988
1083.755, 36.38650
1084.237, 34.34740
1084.719, 32.29243
1085.202, 31.20895
1085.684, 30.43046
1086.166, 29.46970
1086.648, 28.42097
1087.130, 27.51364
1087.612, 26.76314
1088.094, 25.97821
1088.576, 25.09251
1089.058, 24.16238
1089.541, 23.10916
1090.023, 22.12390
1090.505, 21.39201
1090.987, 20.77701
1091.469, 20.07939
1091.951, 19.30379
1092.433, 18.59222
1092.915, 17.99607
1093.397, 17.45140
1093.880, 16.95390
1094.362, 16.48051
1094.844, 16.04455
1095.326, 15.61100
1095.808, 15.10470
1096.290, 14.57140
1096.772, 14.15503
1097.254, 13.90991
1097.737, 13.69334
1098.219, 13.50897
1098.701, 13.28002
1099.183, 12.88768
1099.665, 12.50819
1100.147, 12.38537
1100.629, 12.37555
1101.111, 12.08902
1101.594, 11.42610
1102.076, 10.96964
1102.558, 11.05251
1103.040, 11.11421
1103.522, 10.91631
1104.004, 10.69059
1104.486, 10.61544
1104.968, 10.61740
1105.450, 10.55629
1105.932, 10.42148
1106.415, 10.33204
1106.897, 10.42531
1107.379, 10.39387
1107.861, 10.04491
1108.343, 9.710896
1108.825, 9.534853
1109.307, 9.486583
1109.789, 9.596395
1110.272, 9.817689
1110.754, 9.854908
1111.236, 9.571529
1111.718, 9.316328
1112.200, 9.091618
1112.682, 8.935715
1113.164, 8.914957
1113.646, 8.921722
1114.129, 8.855950
1114.611, 8.737864
1115.093, 8.637446
1115.575, 8.551055
1116.057, 8.496408
1116.539, 8.467660
1117.021, 8.481695
1117.503, 8.616217
1117.985, 8.704387
1118.468, 8.588665
1118.950, 8.383039
1119.432, 8.326590
1119.914, 8.443852
1120.396, 8.398609
1120.878, 8.044829
1121.360, 7.852021
1121.842, 7.966157
1122.324, 8.081592
1122.807, 8.063794
1123.289, 7.949305
1123.771, 7.748941
1124.253, 7.489904
1124.735, 7.410409
1125.217, 7.570212
1125.699, 7.709125
1126.181, 7.841349
1126.664, 7.859584
1127.146, 7.690448
1127.628, 7.492105
1128.110, 7.409549
1128.592, 7.408408
1129.074, 7.377237
1129.556, 7.303285
1130.038, 7.369601
1130.521, 7.615148
1131.003, 7.691070
1131.485, 7.487039
1131.967, 7.330297
1132.449, 7.453476
1132.931, 7.646410
1133.413, 7.536362
1133.895, 7.183158
1134.377, 7.024283
1134.859, 7.051558
1135.342, 7.017946
1135.824, 6.893469
1136.306, 6.922272
1136.788, 7.216744
1137.270, 7.493669
1137.752, 7.435506
1138.234, 7.180131
1138.716, 7.058420
1139.199, 7.040221
1139.681, 7.001707
1140.163, 6.936844
1140.645, 6.859810
1141.127, 6.777701
1141.609, 6.705354
1142.091, 6.649680
1142.573, 6.632894
1143.056, 6.717146
1143.538, 6.845171
1144.020, 6.915920
1144.502, 6.928385
1144.984, 6.864349
1145.466, 6.744702
1145.948, 6.646516
1146.430, 6.603147
1146.912, 6.611624
1147.395, 6.731295
1147.877, 6.830242
1148.359, 6.691060
1148.841, 6.483984
1149.323, 6.464590
1149.805, 6.577738
1150.287, 6.665468
1150.769, 6.684525
1151.251, 6.644874
1151.734, 6.515316
1152.216, 6.421540
1152.698, 6.486963
1153.180, 6.580874
1153.662, 6.601205
1154.144, 6.579557
1154.626, 6.550952
1155.108, 6.527847
1155.591, 6.531583
1156.073, 6.575038
1156.555, 6.598066
1157.037, 6.574248
1157.519, 6.533037
1158.001, 6.438334
1158.483, 6.378114
1158.965, 6.440684
1159.448, 6.573039
1159.930, 6.712305
1160.412, 6.849806
1160.894, 6.857521
1161.376, 6.563725
1161.858, 6.388700
1162.340, 6.474258
1162.822, 6.547128
1163.304, 6.470660
1163.786, 6.376215
1164.269, 6.394841
1164.751, 6.493103
1165.233, 6.556775
1165.715, 6.579846
1166.197, 6.591532
1166.679, 6.580764
1167.161, 6.596433
1167.643, 6.671834
1168.126, 6.705751
1168.608, 6.621271
1169.090, 6.502775
1169.572, 6.485085
1170.054, 6.546936
1170.536, 6.507151
1171.018, 6.356871
1171.500, 6.324694
1171.983, 6.434426
1172.465, 6.519818
1172.947, 6.522886
1173.429, 6.498313
1173.911, 6.489340
1174.393, 6.493457
1174.875, 6.512696
1175.357, 6.540088
1175.839, 6.551730
1176.322, 6.547055
1176.804, 6.513124
1177.286, 6.457852
1177.768, 6.437003
1178.250, 6.475149
1178.732, 6.533963
1179.214, 6.597155
1179.696, 6.633490
1180.178, 6.571628
1180.661, 6.475401
1181.143, 6.439916
1181.625, 6.455523
1182.107, 6.490119
1182.589, 6.531180
1183.071, 6.542923
1183.553, 6.462750
1184.035, 6.537434
1184.518, 7.236712
1185.000, 7.784774
1185.482, 7.455165
1185.964, 6.835952
1186.446, 6.498322
1186.928, 6.422448
1187.410, 6.445344
1187.892, 6.541420
1188.375, 6.582214
1188.857, 6.489172
1189.339, 6.410821
1189.821, 6.395471
1190.303, 6.380547
1190.785, 6.316827
1191.267, 6.253133
1191.749, 6.249024
1192.231, 6.288602
1192.714, 6.308175
1193.196, 6.295876
1193.678, 6.311843
1194.160, 6.369985
1194.642, 6.417033
1195.124, 6.437173
1195.606, 6.464586
1196.088, 6.528422
1196.570, 6.583156
1197.053, 6.562451
1197.535, 6.479310
1198.017, 6.363920
1198.499, 6.221279
1198.981, 6.301810
1199.463, 6.607717
1199.945, 6.782790
1200.427, 6.731016
1200.910, 6.665652
1201.392, 6.734570
1201.874, 6.860164
1202.356, 6.960505
1202.838, 7.020722
1203.320, 6.979669
1203.802, 6.884050
1204.284, 6.830686
1204.766, 6.827831
1205.249, 6.865958
1205.731, 6.935291
1206.213, 6.987994
1206.695, 6.983118
1207.177, 6.980178
1207.659, 7.077607
1208.141, 7.142004
1208.623, 6.982173
1209.105, 6.772036
1209.588, 6.762224
1210.070, 6.901985
1210.552, 6.952780
1211.034, 6.849048
1211.516, 6.820737
1211.998, 6.994102
1212.480, 7.142542
1212.962, 7.216416
1213.445, 7.246694
1213.927, 7.217689
1214.409, 7.179965
1214.891, 7.195326
1215.373, 7.248059
1215.855, 7.267179
1216.337, 7.246124
1216.819, 7.211728
1217.302, 7.143901
1217.784, 7.162911
1218.266, 7.327947
1218.748, 7.402552
1219.230, 7.237137
1219.712, 7.013364
1220.194, 6.972516
1220.676, 7.050016
1221.158, 7.020280
1221.641, 6.915126
1222.123, 6.926536
1222.605, 7.035423
1223.087, 7.069442
1223.569, 7.001335
1224.051, 6.958128
1224.533, 7.011755
1225.015, 7.091197
1225.497, 7.115326
1225.980, 7.136193
1226.462, 7.279742
1226.944, 7.407652
1227.426, 7.259247
1227.908, 6.980329
1228.390, 6.905867
1228.872, 7.063677
1229.354, 7.204193
1229.837, 7.246315
1230.319, 7.252245
1230.801, 7.241351
1231.283, 7.200745
1231.765, 7.088243
1232.247, 6.980280
1232.729, 6.935688
1233.211, 6.936965
1233.693, 6.934827
1234.176, 6.932725
1234.658, 7.044732
1235.140, 7.348184
1235.622, 7.531178
1236.104, 7.567411
1236.586, 7.516696
1237.068, 7.374029
1237.550, 7.251951
1238.032, 7.232342
1238.515, 7.281664
1238.997, 7.355931
1239.479, 7.444845
1239.961, 7.514737
1240.443, 7.562332
1240.925, 7.563202
1241.407, 7.525106
1241.889, 7.502378
1242.372, 7.501852
1242.854, 7.442426
1243.336, 7.258815
1243.818, 7.096473
1244.300, 7.115602
1244.782, 7.195579
1245.264, 7.199739
1245.746, 7.211043
1246.229, 7.403301
1246.711, 7.655894
1247.193, 7.680652
1247.675, 7.458350
1248.157, 7.314519
1248.639, 7.378686
1249.121, 7.424586
1249.603, 7.387666
1250.085, 7.362740
1250.568, 7.382086
1251.050, 7.419061
1251.532, 7.458821
1252.014, 7.503876
1252.496, 7.563279
1252.978, 7.633090
1253.460, 7.673408
1253.942, 7.686150
1254.424, 7.614041
1254.907, 7.446604
1255.389, 7.459983
1255.871, 7.726114
1256.353, 7.965896
1256.835, 8.000711
1257.317, 7.915370
1257.799, 7.770976
1258.281, 7.627135
1258.764, 7.612031
1259.246, 7.663548
1259.728, 7.652894
1260.210, 7.617691
1260.692, 7.677325
1261.174, 7.836935
1261.656, 8.008507
1262.138, 8.171449
1262.620, 8.265484
1263.103, 8.200429
1263.585, 8.143517
1264.067, 8.174038
1264.549, 8.233649
1265.031, 8.309385
1265.513, 8.369363
1265.995, 8.364601
1266.477, 8.306918
1266.959, 8.256283
1267.442, 8.210940
1267.924, 8.171060
1268.406, 8.120253
1268.888, 8.163974
1269.370, 8.334811
1269.852, 8.501691
1270.334, 8.599797
1270.816, 8.647884
1271.299, 8.649270
1271.781, 8.660864
1272.263, 8.861794
1272.745, 9.134680
1273.227, 9.157889
1273.709, 9.021378
1274.191, 8.966450
1274.673, 9.007169
1275.156, 9.027263
1275.638, 8.991883
1276.120, 8.998269
1276.602, 9.138928
1277.084, 9.264050
1277.566, 9.228969
1278.048, 9.239741
1278.530, 9.488871
1279.012, 9.783133
1279.495, 9.938433
1279.977, 9.980288
1280.459, 9.984253
1280.941, 9.948711
1281.423, 9.939359
1281.905, 9.959311
1282.387, 10.00114
1282.869, 10.06580
1283.351, 10.14618
1283.834, 10.24217
1284.316, 10.33135
1284.798, 10.39451
1285.280, 10.47688
1285.762, 10.63377
1286.244, 10.87162
##END=



