##NAMES=Hydroxylapatite
##RRUFFID=R060180
##IDEAL CHEMISTRY=Ca_5_(P^5+^O_4_)_3_OH
##LOCALITY=Holly Springs, Georgia, USA
##OWNER=RRUFF
##SOURCE=Julian Gray
##DESCRIPTION=Tan colored nodule in talc schist associated with serpentinite
##STATUS=The identification of this mineral has been confirmed by X-ray diffraction and chemical analysis
##URL=rruff.info/R060180
##MEASURED CHEMISTRY=Ca_5.00_(P_1.00_O_4_)_3_((OH)_0.98_Cl_0.02_)
90.26367, 235.0464
90.74579, 234.6485
91.22791, 234.8857
91.71002, 235.6785
92.19214, 236.3205
92.67426, 235.9664
93.15637, 234.9759
93.63850, 234.3344
94.12061, 234.7514
94.60273, 235.6305
95.08485, 235.3093
95.56696, 233.6267
96.04908, 231.8525
96.53120, 231.5489
97.01331, 232.6677
97.49543, 234.1452
97.97755, 235.6105
98.45966, 237.0548
98.94178, 238.6847
99.42390, 240.7178
99.90602, 242.6207
100.3881, 243.2984
100.8703, 242.5125
101.3524, 241.3376
101.8345, 239.9651
102.3166, 238.0014
102.7987, 237.6589
103.2808, 239.4438
103.7630, 242.9574
104.2451, 246.3799
104.7272, 249.6872
105.2093, 252.9789
105.6914, 256.6086
106.1735, 261.8954
106.6557, 265.0923
107.1378, 264.3323
107.6199, 259.3841
108.1020, 258.3271
108.5841, 262.9250
109.0662, 270.4996
109.5484, 278.6998
110.0305, 286.9054
110.5126, 296.4401
110.9947, 307.6003
111.4768, 320.6583
111.9590, 334.5706
112.4411, 347.9530
112.9232, 362.5671
113.4053, 380.2755
113.8874, 400.7958
114.3695, 425.0910
114.8517, 453.5880
115.3338, 486.9062
115.8159, 522.8284
116.2980, 558.4534
116.7801, 596.4861
117.2622, 642.3203
117.7444, 699.5101
118.2265, 764.6231
118.7086, 835.1744
119.1907, 911.4438
119.6728, 993.1624
120.1549, 1079.690
120.6371, 1171.429
121.1192, 1270.442
121.6013, 1379.665
122.0834, 1495.301
122.5655, 1612.700
123.0477, 1730.557
123.5298, 1849.530
124.0119, 1971.725
124.4940, 2096.804
124.9761, 2220.508
125.4582, 2338.239
125.9404, 2451.360
126.4225, 2561.489
126.9046, 2667.099
127.3867, 2770.761
127.8688, 2875.931
128.3509, 2982.504
128.8331, 3091.616
129.3152, 3203.266
129.7973, 3318.503
130.2794, 3439.520
130.7615, 3564.177
131.2436, 3695.090
131.7258, 3840.435
132.2079, 4001.578
132.6900, 4174.047
133.1721, 4353.590
133.6542, 4539.500
134.1364, 4727.748
134.6185, 4919.182
135.1006, 5114.388
135.5827, 5306.329
136.0648, 5496.829
136.5469, 5683.205
137.0291, 5861.563
137.5112, 6032.336
137.9933, 6188.321
138.4754, 6326.573
138.9575, 6445.440
139.4396, 6548.543
139.9218, 6632.142
140.4039, 6699.861
140.8860, 6767.171
141.3681, 6833.441
141.8502, 6899.670
142.3323, 6963.885
142.8145, 7023.942
143.2966, 7089.640
143.7787, 7161.622
144.2608, 7240.521
144.7429, 7325.101
145.2251, 7415.759
145.7072, 7512.803
146.1893, 7617.126
146.6714, 7730.573
147.1535, 7848.279
147.6356, 7968.459
148.1178, 8090.218
148.5999, 8217.420
149.0820, 8351.743
149.5641, 8490.364
150.0462, 8628.679
150.5283, 8766.060
151.0105, 8901.997
151.4926, 8956.288
151.9747, 9000.254
152.4568, 9037.080
152.9389, 9069.267
153.4210, 9094.173
153.9032, 9108.335
154.3853, 9110.538
154.8674, 9103.089
155.3495, 9085.653
155.8316, 9054.151
156.3138, 9022.210
156.7959, 8987.747
157.2780, 8954.229
157.7601, 8928.475
158.2422, 8916.813
158.7243, 8908.901
159.2065, 8898.952
159.6886, 8881.890
160.1707, 8869.640
160.6528, 8866.029
161.1349, 8869.565
161.6170, 8876.641
162.0992, 8886.466
162.5813, 8898.859
163.0634, 8914.274
163.5455, 8937.817
164.0276, 8957.479
164.5097, 8965.210
164.9919, 8963.701
165.4740, 8963.333
165.9561, 8966.726
166.4382, 8974.672
166.9203, 8988.253
167.4025, 9013.396
167.8846, 9038.559
168.3667, 9055.362
168.8488, 9065.095
169.3309, 9075.843
169.8130, 9093.847
170.2952, 9115.290
170.7773, 9135.189
171.2594, 9151.160
171.7415, 9165.528
172.2236, 9180.059
172.7057, 9194.670
173.1879, 9209.416
173.6700, 9223.671
174.1521, 9238.006
174.6342, 9253.479
175.1163, 9272.212
175.5984, 9291.416
176.0806, 9307.112
176.5627, 9319.303
177.0448, 9330.862
177.5269, 9346.698
178.0090, 9364.012
178.4911, 9376.568
178.9733, 9379.107
179.4554, 9376.059
179.9375, 9373.730
180.4196, 9372.215
180.9017, 9372.170
181.3839, 9376.794
181.8660, 9384.322
182.3481, 9388.358
182.8302, 9382.794
183.3123, 9372.162
183.7944, 9367.231
184.2766, 9368.964
184.7587, 9373.275
185.2408, 9375.166
185.7229, 9375.109
186.2050, 9375.824
186.6871, 9376.944
187.1693, 9379.588
187.6514, 9388.496
188.1335, 9404.734
188.6156, 9424.163
189.0977, 9442.011
189.5798, 9458.079
190.0620, 9472.241
190.5441, 9482.057
191.0262, 9488.720
191.5083, 9501.737
191.9904, 9523.160
192.4725, 9547.655
192.9547, 9566.501
193.4368, 9579.783
193.9189, 9590.885
194.4010, 9600.780
194.8831, 9609.692
195.3652, 9620.410
195.8474, 9633.491
196.3295, 9648.061
196.8116, 9662.364
197.2937, 9676.315
197.7758, 9690.596
198.2579, 9705.059
198.7401, 9719.632
199.2222, 9736.279
199.7043, 9755.514
200.1864, 9775.954
200.6685, 9793.979
201.1507, 9808.619
201.6328, 9824.449
202.1149, 9845.848
202.5970, 9873.817
203.0791, 9896.221
203.5612, 9910.662
204.0434, 9919.833
204.5255, 9931.081
205.0076, 9945.327
205.4897, 9958.754
205.9718, 9968.359
206.4539, 9973.274
206.9361, 9980.509
207.4182, 9992.170
207.9003, 10005.98
208.3824, 10014.68
208.8645, 10017.50
209.3466, 10017.47
209.8288, 10015.86
210.3109, 10012.07
210.7930, 10009.10
211.2751, 10006.15
211.7572, 10004.46
212.2393, 10009.12
212.7215, 10021.75
213.2036, 10036.87
213.6857, 10050.76
214.1678, 10062.42
214.6499, 10076.55
215.1321, 10095.24
215.6142, 10116.60
216.0963, 10131.64
216.5784, 10137.77
217.0605, 10142.32
217.5426, 10150.18
218.0248, 10162.63
218.5069, 10174.00
218.9890, 10182.30
219.4711, 10189.12
219.9532, 10203.10
220.4353, 10228.76
220.9175, 10254.55
221.3996, 10272.93
221.8817, 10280.26
222.3638, 10289.46
222.8459, 10301.86
223.3280, 10317.16
223.8102, 10332.92
224.2923, 10350.22
224.7744, 10366.63
225.2565, 10380.02
225.7386, 10388.13
226.2208, 10398.39
226.7029, 10412.13
227.1850, 10428.54
227.6671, 10442.72
228.1492, 10453.27
228.6313, 10463.55
229.1135, 10476.26
229.5956, 10495.10
230.0777, 10508.33
230.5598, 10514.30
231.0419, 10514.04
231.5240, 10511.90
232.0062, 10505.41
232.4883, 10500.67
232.9704, 10501.77
233.4525, 10511.48
233.9346, 10521.18
234.4167, 10530.54
234.8989, 10539.45
235.3810, 10547.24
235.8631, 10553.54
236.3452, 10559.11
236.8273, 10564.58
237.3095, 10570.99
237.7916, 10574.41
238.2737, 10572.75
238.7558, 10567.65
239.2379, 10566.58
239.7200, 10571.89
240.2022, 10577.85
240.6843, 10581.50
241.1664, 10582.51
241.6485, 10581.93
242.1306, 10579.08
242.6127, 10574.83
243.0949, 10572.53
243.5770, 10574.09
244.0591, 10575.43
244.5412, 10574.29
245.0233, 10568.74
245.5054, 10565.27
245.9876, 10562.75
246.4697, 10562.83
246.9518, 10571.64
247.4339, 10595.49
247.9160, 10618.76
248.3981, 10632.76
248.8803, 10630.91
249.3624, 10635.66
249.8445, 10649.70
250.3266, 10669.75
250.8087, 10686.83
251.2909, 10698.33
251.7730, 10710.36
252.2551, 10725.56
252.7372, 10745.11
253.2193, 10764.99
253.7014, 10786.43
254.1836, 10807.43
254.6657, 10822.50
255.1478, 10827.88
255.6299, 10834.03
256.1120, 10846.06
256.5941, 10866.79
257.0763, 10884.11
257.5584, 10896.25
258.0405, 10906.44
258.5226, 10921.44
259.0047, 10944.20
259.4868, 10966.11
259.9690, 10983.36
260.4511, 10994.62
260.9332, 11007.07
261.4153, 11020.04
261.8974, 11034.91
262.3795, 11054.46
262.8617, 11081.12
263.3438, 11106.87
263.8259, 11128.07
264.3080, 11143.11
264.7901, 11165.42
265.2722, 11199.59
265.7544, 11235.43
266.2365, 11256.14
266.7186, 11256.79
267.2007, 11257.30
267.6829, 11264.20
268.1650, 11278.10
268.6471, 11289.46
269.1292, 11297.83
269.6113, 11304.83
270.0934, 11311.83
270.5756, 11318.24
271.0577, 11327.37
271.5398, 11340.69
272.0219, 11358.17
272.5040, 11375.17
272.9861, 11391.25
273.4683, 11407.34
273.9504, 11424.99
274.4325, 11444.59
274.9146, 11462.75
275.3967, 11478.23
275.8788, 11491.46
276.3610, 11505.03
276.8431, 11518.73
277.3252, 11532.98
277.8073, 11549.16
278.2894, 11567.77
278.7715, 11582.91
279.2537, 11592.18
279.7358, 11597.65
280.2179, 11608.23
280.7000, 11624.73
281.1821, 11643.42
281.6642, 11662.91
282.1464, 11683.28
282.6285, 11699.17
283.1106, 11707.86
283.5927, 11713.02
284.0748, 11725.64
284.5569, 11746.39
285.0391, 11767.83
285.5212, 11784.11
286.0033, 11795.61
286.4854, 11808.70
286.9675, 11824.43
287.4496, 11841.31
287.9318, 11857.59
288.4139, 11873.35
288.8960, 11885.63
289.3781, 11891.28
289.8602, 11891.68
290.3424, 11893.60
290.8245, 11897.77
291.3066, 11903.70
291.7887, 11911.92
292.2708, 11922.14
292.7530, 11930.32
293.2351, 11933.22
293.7172, 11932.38
294.1993, 11931.82
294.6814, 11931.59
295.1635, 11932.41
295.6457, 11934.53
296.1278, 11938.16
296.6099, 11944.53
297.0920, 11955.09
297.5741, 11968.38
298.0562, 11982.37
298.5384, 11997.06
299.0205, 12010.14
299.5026, 12018.41
299.9847, 12023.12
300.4668, 12027.79
300.9489, 12032.31
301.4311, 12038.38
301.9132, 12050.01
302.3953, 12067.11
302.8774, 12083.06
303.3595, 12090.36
303.8416, 12093.36
304.3238, 12100.27
304.8059, 12117.54
305.2880, 12135.93
305.7701, 12143.18
306.2522, 12141.25
306.7343, 12141.78
307.2165, 12155.77
307.6986, 12175.52
308.1807, 12191.03
308.6628, 12197.70
309.1449, 12203.12
309.6270, 12213.51
310.1092, 12227.60
310.5913, 12241.24
311.0734, 12249.96
311.5555, 12258.27
312.0376, 12270.55
312.5197, 12289.11
313.0019, 12307.28
313.4840, 12320.06
313.9661, 12329.97
314.4482, 12342.36
314.9304, 12363.28
315.4125, 12384.86
315.8946, 12401.61
316.3767, 12412.14
316.8588, 12422.74
317.3409, 12438.60
317.8231, 12455.69
318.3052, 12468.56
318.7873, 12471.75
319.2694, 12474.05
319.7515, 12478.22
320.2336, 12484.35
320.7158, 12494.00
321.1979, 12509.61
321.6800, 12527.85
322.1621, 12545.70
322.6442, 12562.46
323.1263, 12578.65
323.6085, 12593.02
324.0906, 12605.86
324.5727, 12622.22
325.0548, 12645.30
325.5369, 12670.47
326.0190, 12694.92
326.5012, 12721.41
326.9833, 12744.02
327.4654, 12759.02
327.9475, 12768.96
328.4296, 12783.76
328.9117, 12809.19
329.3939, 12834.37
329.8760, 12855.07
330.3581, 12869.92
330.8402, 12882.20
331.3223, 12889.31
331.8044, 12894.27
332.2866, 12903.57
332.7687, 12919.38
333.2508, 12935.61
333.7329, 12950.72
334.2150, 12964.97
334.6971, 12976.17
335.1793, 12983.74
335.6614, 12988.97
336.1435, 12993.50
336.6256, 12997.71
337.1077, 13000.78
337.5899, 13001.15
338.0720, 12999.55
338.5541, 13007.59
339.0362, 13029.98
339.5183, 13052.74
340.0005, 13060.76
340.4826, 13051.55
340.9647, 13047.08
341.4468, 13051.39
341.9289, 13062.81
342.4110, 13077.68
342.8932, 13096.48
343.3753, 13113.76
343.8574, 13123.12
344.3395, 13125.22
344.8216, 13132.64
345.3037, 13147.17
345.7859, 13165.62
346.2680, 13183.47
346.7501, 13200.65
347.2322, 13216.29
347.7143, 13228.03
348.1964, 13237.72
348.6786, 13253.32
349.1607, 13276.45
349.6428, 13298.55
350.1249, 13309.87
350.6070, 13312.47
351.0891, 13312.69
351.5713, 13309.36
352.0534, 13307.15
352.5355, 13314.53
353.0176, 13331.23
353.4997, 13349.91
353.9818, 13367.16
354.4640, 13382.17
354.9461, 13393.76
355.4282, 13400.84
355.9103, 13405.33
356.3924, 13406.51
356.8745, 13405.83
357.3567, 13408.84
357.8388, 13422.33
358.3209, 13438.90
358.8030, 13451.69
359.2851, 13457.56
359.7672, 13464.68
360.2494, 13478.28
360.7315, 13496.17
361.2136, 13514.07
361.6957, 13530.60
362.1779, 13546.68
362.6600, 13563.03
363.1421, 13579.85
363.6242, 13595.18
364.1063, 13605.85
364.5884, 13615.66
365.0706, 13628.37
365.5527, 13647.93
366.0348, 13666.86
366.5169, 13682.46
366.9990, 13694.94
367.4811, 13709.33
367.9633, 13730.58
368.4454, 13750.75
368.9275, 13765.06
369.4096, 13765.71
369.8917, 13771.17
370.3738, 13784.01
370.8560, 13801.84
371.3381, 13817.82
371.8202, 13831.92
372.3023, 13844.50
372.7844, 13855.60
373.2665, 13865.10
373.7487, 13873.55
374.2308, 13880.89
374.7129, 13887.38
375.1950, 13892.92
375.6771, 13896.52
376.1592, 13902.66
376.6414, 13912.79
377.1235, 13926.74
377.6056, 13943.44
378.0877, 13964.18
378.5698, 13984.24
379.0519, 13999.46
379.5341, 14009.77
380.0162, 14019.07
380.4983, 14027.40
380.9804, 14035.77
381.4625, 14046.24
381.9446, 14058.88
382.4268, 14072.00
382.9089, 14084.58
383.3910, 14096.78
383.8731, 14109.35
384.3553, 14122.09
384.8374, 14135.87
385.3195, 14151.95
385.8016, 14169.84
386.2837, 14188.63
386.7658, 14208.84
387.2480, 14228.96
387.7301, 14246.81
388.2122, 14262.42
388.6943, 14278.30
389.1764, 14297.19
389.6585, 14317.07
390.1407, 14335.08
390.6228, 14350.39
391.1049, 14363.63
391.5870, 14372.64
392.0691, 14379.30
392.5512, 14389.29
393.0334, 14407.89
393.5155, 14428.82
393.9976, 14448.24
394.4797, 14465.37
394.9618, 14481.76
395.4439, 14496.73
395.9261, 14511.60
396.4082, 14528.09
396.8903, 14550.36
397.3724, 14570.85
397.8545, 14585.13
398.3366, 14592.72
398.8188, 14607.62
399.3009, 14639.18
399.7830, 14672.77
400.2651, 14699.04
400.7472, 14712.89
401.2293, 14726.71
401.7115, 14738.56
402.1936, 14750.96
402.6757, 14772.46
403.1578, 14807.54
403.6399, 14843.89
404.1220, 14875.12
404.6042, 14899.46
405.0863, 14930.59
405.5684, 14971.38
406.0505, 15013.63
406.5326, 15044.06
407.0147, 15060.54
407.4969, 15083.10
407.9790, 15120.08
408.4611, 15166.90
408.9432, 15202.79
409.4254, 15226.44
409.9075, 15251.73
410.3896, 15291.10
410.8717, 15342.04
411.3538, 15393.03
411.8359, 15441.05
412.3181, 15490.64
412.8002, 15550.73
413.2823, 15618.01
413.7644, 15683.64
414.2465, 15740.38
414.7286, 15793.42
415.2108, 15851.48
415.6929, 15914.51
416.1750, 15977.23
416.6571, 16035.29
417.1392, 16090.05
417.6213, 16145.31
418.1035, 16200.03
418.5856, 16257.22
419.0677, 16315.79
419.5498, 16377.51
420.0319, 16446.64
420.5140, 16535.89
420.9962, 16626.26
421.4783, 16705.47
421.9604, 16767.09
422.4425, 16829.96
422.9246, 16895.49
423.4067, 16964.55
423.8889, 17039.30
424.3710, 17128.76
424.8531, 17214.38
425.3352, 17292.17
425.8173, 17362.23
426.2994, 17424.12
426.7816, 17476.25
427.2637, 17521.28
427.7458, 17561.80
428.2279, 17602.87
428.7100, 17628.02
429.1921, 17635.39
429.6743, 17626.77
430.1564, 17606.35
430.6385, 17574.98
431.1206, 17528.22
431.6028, 17457.68
432.0849, 17364.43
432.5670, 17288.35
433.0491, 17231.15
433.5312, 17183.55
434.0133, 17135.63
434.4955, 17087.96
434.9776, 17044.03
435.4597, 17004.15
435.9418, 16969.38
436.4239, 16940.24
436.9060, 16917.74
437.3882, 16906.45
437.8703, 16916.97
438.3524, 16937.66
438.8345, 16950.14
439.3166, 16950.83
439.7987, 16953.62
440.2809, 16974.30
440.7630, 17003.34
441.2451, 17025.73
441.7272, 17031.04
442.2093, 17032.09
442.6914, 17034.60
443.1736, 17038.50
443.6557, 17042.84
444.1378, 17052.53
444.6199, 17059.21
445.1020, 17056.82
445.5841, 17038.67
446.0663, 17023.59
446.5484, 17016.69
447.0305, 17014.16
447.5126, 17009.65
447.9947, 17005.52
448.4768, 16996.47
448.9590, 16978.82
449.4411, 16952.26
449.9232, 16932.87
450.4053, 16924.57
450.8874, 16917.04
451.3695, 16901.71
451.8517, 16875.65
452.3338, 16853.48
452.8159, 16837.23
453.2980, 16824.55
453.7801, 16811.23
454.2622, 16797.40
454.7444, 16781.77
455.2265, 16761.73
455.7086, 16739.24
456.1907, 16724.55
456.6729, 16718.06
457.1550, 16713.42
457.6371, 16703.30
458.1192, 16690.47
458.6013, 16681.81
459.0834, 16680.97
459.5656, 16681.45
460.0477, 16675.64
460.5298, 16665.22
461.0119, 16655.48
461.4940, 16648.63
461.9761, 16643.70
462.4583, 16638.94
462.9404, 16633.86
463.4225, 16633.75
463.9046, 16648.10
464.3867, 16665.39
464.8688, 16674.43
465.3510, 16660.42
465.8331, 16651.96
466.3152, 16659.92
466.7973, 16679.10
467.2794, 16690.46
467.7615, 16683.81
468.2437, 16678.24
468.7258, 16680.06
469.2079, 16690.23
469.6900, 16703.06
470.1721, 16719.43
470.6542, 16737.18
471.1364, 16754.51
471.6185, 16771.93
472.1006, 16786.53
472.5827, 16797.16
473.0648, 16805.03
473.5469, 16814.50
474.0291, 16825.97
474.5112, 16835.04
474.9933, 16835.72
475.4754, 16831.25
475.9575, 16836.94
476.4396, 16854.30
476.9218, 16874.54
477.4039, 16886.26
477.8860, 16893.48
478.3681, 16905.78
478.8503, 16928.68
479.3324, 16954.57
479.8145, 16977.38
480.2966, 16997.15
480.7787, 17013.56
481.2608, 17025.08
481.7430, 17034.29
482.2251, 17042.37
482.7072, 17048.99
483.1893, 17056.76
483.6714, 17068.63
484.1535, 17081.26
484.6357, 17091.37
485.1178, 17096.04
485.5999, 17101.46
486.0820, 17108.72
486.5641, 17117.78
487.0462, 17128.11
487.5284, 17139.78
488.0105, 17153.26
488.4926, 17169.92
488.9747, 17190.84
489.4568, 17207.21
489.9389, 17217.09
490.4211, 17225.73
490.9032, 17238.43
491.3853, 17255.24
491.8674, 17274.35
492.3495, 17295.33
492.8316, 17317.92
493.3138, 17343.39
493.7959, 17371.21
494.2780, 17395.23
494.7601, 17407.21
495.2422, 17413.84
495.7243, 17428.52
496.2065, 17452.23
496.6886, 17477.18
497.1707, 17499.44
497.6528, 17518.81
498.1349, 17534.62
498.6170, 17543.27
499.0992, 17553.52
499.5813, 17571.85
500.0634, 17595.54
500.5455, 17618.17
501.0276, 17638.23
501.5097, 17656.21
501.9919, 17672.36
502.4740, 17686.54
502.9561, 17699.38
503.4382, 17709.85
503.9203, 17719.97
504.4025, 17731.73
504.8846, 17748.78
505.3667, 17759.12
505.8488, 17758.05
506.3309, 17752.43
506.8130, 17757.91
507.2952, 17776.56
507.7773, 17797.23
508.2594, 17815.94
508.7415, 17833.12
509.2236, 17852.60
509.7057, 17874.68
510.1879, 17895.74
510.6700, 17912.78
511.1521, 17926.58
511.6342, 17939.28
512.1163, 17950.84
512.5984, 17962.46
513.0806, 17974.04
513.5627, 17986.59
514.0448, 18002.22
514.5269, 18026.43
515.0090, 18050.08
515.4911, 18066.37
515.9733, 18076.02
516.4554, 18084.46
516.9375, 18090.73
517.4196, 18098.49
517.9017, 18110.48
518.3839, 18129.54
518.8660, 18146.26
519.3481, 18158.81
519.8302, 18168.79
520.3123, 18177.38
520.7944, 18182.53
521.2766, 18190.65
521.7587, 18204.35
522.2408, 18221.84
522.7229, 18235.95
523.2050, 18246.24
523.6871, 18256.04
524.1693, 18267.04
524.6514, 18279.19
525.1335, 18292.13
525.6156, 18305.76
526.0977, 18321.60
526.5798, 18343.44
527.0620, 18369.04
527.5441, 18391.54
528.0262, 18409.02
528.5083, 18422.90
528.9904, 18428.95
529.4725, 18431.75
529.9547, 18442.80
530.4368, 18476.79
530.9189, 18513.10
531.4010, 18536.46
531.8831, 18546.67
532.3652, 18558.34
532.8474, 18580.06
533.3295, 18602.25
533.8116, 18618.90
534.2937, 18625.01
534.7758, 18632.87
535.2579, 18644.18
535.7401, 18657.04
536.2222, 18668.40
536.7043, 18678.51
537.1865, 18687.65
537.6686, 18695.13
538.1507, 18702.25
538.6328, 18714.08
539.1149, 18731.21
539.5970, 18751.61
540.0792, 18776.53
540.5613, 18804.40
541.0434, 18825.19
541.5255, 18837.98
542.0076, 18848.43
542.4897, 18860.10
542.9719, 18873.63
543.4540, 18890.66
543.9361, 18911.80
544.4182, 18935.29
544.9003, 18961.14
545.3824, 18987.82
545.8646, 19012.16
546.3467, 19029.46
546.8288, 19046.89
547.3109, 19068.41
547.7930, 19094.07
548.2751, 19117.52
548.7573, 19135.44
549.2394, 19152.83
549.7215, 19172.95
550.2036, 19199.83
550.6857, 19220.68
551.1678, 19234.26
551.6500, 19243.60
552.1321, 19251.99
552.6142, 19259.20
553.0963, 19268.89
553.5784, 19283.84
554.0605, 19300.46
554.5427, 19305.81
555.0248, 19300.80
555.5069, 19301.29
555.9890, 19318.29
556.4711, 19346.42
556.9532, 19379.22
557.4354, 19416.25
557.9175, 19448.90
558.3996, 19466.35
558.8817, 19477.32
559.3638, 19490.65
559.8459, 19506.57
560.3281, 19528.46
560.8102, 19561.94
561.2923, 19601.14
561.7744, 19636.64
562.2565, 19662.72
562.7386, 19689.46
563.2208, 19718.48
563.7029, 19749.79
564.1850, 19785.80
564.6671, 19829.76
565.1492, 19872.27
565.6313, 19908.06
566.1135, 19936.25
566.5956, 19965.48
567.0777, 19994.82
567.5598, 20027.73
568.0419, 20070.76
568.5240, 20121.37
569.0062, 20168.21
569.4883, 20206.71
569.9704, 20244.94
570.4525, 20293.53
570.9346, 20350.00
571.4167, 20405.61
571.8989, 20451.33
572.3810, 20500.20
572.8631, 20564.28
573.3452, 20641.25
573.8273, 20718.63
574.3094, 20785.60
574.7916, 20855.95
575.2737, 20938.97
575.7558, 21041.15
576.2379, 21137.22
576.7200, 21227.46
577.2021, 21309.52
577.6843, 21383.83
578.1664, 21454.25
578.6485, 21502.79
579.1306, 21526.34
579.6127, 21528.55
580.0948, 21514.88
580.5770, 21485.35
581.0591, 21447.74
581.5412, 21396.24
582.0233, 21343.90
582.5054, 21321.38
582.9875, 21326.66
583.4697, 21342.63
583.9518, 21354.37
584.4340, 21372.79
584.9161, 21413.56
585.3982, 21480.64
585.8803, 21548.63
586.3624, 21610.52
586.8445, 21664.61
587.3267, 21709.32
587.8088, 21740.33
588.2909, 21767.38
588.7730, 21793.38
589.2551, 21815.66
589.7372, 21831.03
590.2194, 21846.97
590.7015, 21840.30
591.1836, 21802.70
591.6657, 21737.91
592.1478, 21662.44
592.6299, 21575.25
593.1121, 21488.38
593.5942, 21403.68
594.0763, 21324.65
594.5584, 21266.59
595.0405, 21230.83
595.5226, 21204.87
596.0048, 21176.24
596.4869, 21151.38
596.9690, 21139.76
597.4511, 21145.89
597.9332, 21160.29
598.4153, 21180.63
598.8975, 21205.44
599.3796, 21232.89
599.8617, 21266.60
600.3438, 21299.08
600.8259, 21325.26
601.3080, 21348.14
601.7902, 21379.16
602.2723, 21419.85
602.7544, 21465.47
603.2365, 21515.92
603.7186, 21570.38
604.2007, 21622.07
604.6829, 21670.22
605.1650, 21714.70
605.6471, 21757.62
606.1292, 21796.48
606.6113, 21826.34
607.0934, 21847.70
607.5756, 21849.42
608.0577, 21811.06
608.5398, 21746.75
609.0219, 21680.92
609.5040, 21618.87
609.9861, 21560.24
610.4683, 21500.78
610.9504, 21445.44
611.4325, 21403.76
611.9146, 21385.12
612.3967, 21375.13
612.8788, 21372.91
613.3610, 21377.83
613.8431, 21380.15
614.3252, 21378.67
614.8073, 21377.08
615.2894, 21376.21
615.7715, 21375.74
616.2537, 21382.57
616.7358, 21398.49
617.2179, 21411.57
617.7000, 21404.36
618.1821, 21383.01
618.6642, 21370.44
619.1464, 21370.75
619.6285, 21377.31
620.1106, 21384.70
620.5927, 21393.17
621.0748, 21403.35
621.5569, 21418.87
622.0391, 21432.84
622.5212, 21440.04
623.0033, 21443.34
623.4854, 21451.28
623.9675, 21472.91
624.4496, 21492.20
624.9318, 21502.46
625.4139, 21504.29
625.8960, 21518.09
626.3781, 21549.97
626.8602, 21580.11
627.3423, 21592.46
627.8245, 21587.88
628.3066, 21596.03
628.7887, 21618.48
629.2708, 21647.13
629.7529, 21677.05
630.2350, 21705.96
630.7172, 21728.43
631.1993, 21740.43
631.6815, 21752.43
632.1636, 21774.94
632.6457, 21802.31
633.1278, 21826.07
633.6099, 21841.10
634.0920, 21854.34
634.5742, 21867.71
635.0563, 21881.16
635.5384, 21894.49
636.0205, 21907.54
636.5026, 21921.68
636.9847, 21939.74
637.4669, 21961.07
637.9490, 21970.58
638.4311, 21965.88
638.9132, 21961.94
639.3953, 21970.25
639.8774, 21988.35
640.3596, 22004.11
640.8417, 22016.85
641.3238, 22030.16
641.8059, 22046.91
642.2880, 22066.12
642.7701, 22086.59
643.2523, 22109.46
643.7344, 22129.81
644.2165, 22140.03
644.6986, 22147.98
645.1807, 22164.03
645.6628, 22206.69
646.1450, 22237.03
646.6271, 22242.70
647.1092, 22234.44
647.5913, 22240.10
648.0734, 22264.83
648.5555, 22289.16
649.0377, 22306.21
649.5198, 22318.38
650.0019, 22336.42
650.4840, 22360.53
650.9661, 22385.88
651.4482, 22409.78
651.9304, 22433.08
652.4125, 22458.09
652.8946, 22484.92
653.3767, 22510.54
653.8588, 22534.58
654.3409, 22555.69
654.8231, 22571.79
655.3052, 22579.26
655.7873, 22591.03
656.2694, 22610.57
656.7515, 22635.28
657.2336, 22662.52
657.7158, 22692.35
658.1979, 22724.21
658.6800, 22759.04
659.1621, 22794.02
659.6442, 22825.54
660.1263, 22853.25
660.6085, 22872.72
661.0906, 22877.70
661.5727, 22878.77
662.0548, 22898.48
662.5369, 22931.95
663.0190, 22960.79
663.5012, 22972.82
663.9833, 22978.66
664.4654, 22985.88
664.9475, 22994.76
665.4296, 23003.71
665.9117, 23012.48
666.3939, 23021.84
666.8760, 23032.91
667.3581, 23046.59
667.8402, 23058.23
668.3223, 23064.58
668.8044, 23074.76
669.2866, 23099.15
669.7687, 23138.83
670.2508, 23162.58
670.7329, 23165.44
671.2150, 23165.77
671.6971, 23186.33
672.1793, 23220.42
672.6614, 23251.01
673.1435, 23273.95
673.6256, 23292.52
674.1077, 23309.00
674.5898, 23323.03
675.0720, 23334.01
675.5541, 23337.40
676.0362, 23342.87
676.5183, 23354.33
677.0004, 23370.05
677.4825, 23385.07
677.9647, 23398.94
678.4468, 23413.53
678.9290, 23428.35
679.4111, 23444.75
679.8932, 23472.32
680.3753, 23512.01
680.8574, 23547.49
681.3395, 23566.25
681.8217, 23575.07
682.3038, 23587.68
682.7859, 23603.85
683.2680, 23618.63
683.7501, 23625.07
684.2322, 23630.86
684.7144, 23642.85
685.1965, 23662.27
685.6786, 23683.30
686.1607, 23705.96
686.6428, 23728.11
687.1249, 23748.04
687.6071, 23762.38
688.0892, 23783.45
688.5713, 23815.45
689.0534, 23847.99
689.5355, 23867.01
690.0176, 23873.49
690.4998, 23880.59
690.9819, 23890.11
691.4640, 23903.69
691.9461, 23926.94
692.4282, 23955.51
692.9103, 23979.23
693.3925, 23987.21
693.8746, 23997.27
694.3567, 24022.60
694.8388, 24057.21
695.3209, 24087.34
695.8030, 24103.69
696.2852, 24121.46
696.7673, 24144.91
697.2494, 24172.59
697.7315, 24195.58
698.2136, 24211.41
698.6957, 24230.72
699.1779, 24262.12
699.6600, 24300.77
700.1421, 24321.51
700.6242, 24325.44
701.1063, 24329.55
701.5884, 24345.72
702.0706, 24369.10
702.5527, 24398.29
703.0348, 24433.03
703.5169, 24456.69
703.9990, 24447.16
704.4811, 24433.22
704.9633, 24435.10
705.4454, 24460.36
705.9275, 24486.99
706.4096, 24519.71
706.8917, 24548.18
707.3738, 24559.61
707.8560, 24550.57
708.3381, 24556.56
708.8202, 24582.15
709.3023, 24616.59
709.7844, 24651.99
710.2665, 24685.33
710.7487, 24706.98
711.2308, 24709.39
711.7129, 24712.58
712.1950, 24733.84
712.6771, 24765.90
713.1592, 24797.77
713.6414, 24830.01
714.1235, 24856.73
714.6056, 24869.91
715.0877, 24877.64
715.5698, 24896.59
716.0519, 24931.50
716.5341, 24964.85
717.0162, 24993.40
717.4983, 25016.33
717.9804, 25027.01
718.4625, 25026.53
718.9446, 25029.73
719.4268, 25045.81
719.9089, 25068.21
720.3910, 25090.79
720.8731, 25112.84
721.3552, 25132.18
721.8373, 25143.12
722.3195, 25155.18
722.8016, 25175.79
723.2837, 25205.24
723.7658, 25227.96
724.2479, 25237.87
724.7300, 25248.90
725.2122, 25269.35
725.6943, 25299.56
726.1765, 25317.30
726.6586, 25320.57
727.1407, 25325.37
727.6228, 25348.60
728.1049, 25382.13
728.5870, 25406.50
729.0692, 25420.01
729.5513, 25428.97
730.0334, 25430.36
730.5155, 25433.62
730.9976, 25449.03
731.4797, 25483.43
731.9619, 25513.90
732.4440, 25531.19
732.9261, 25546.93
733.4082, 25571.57
733.8903, 25610.44
734.3724, 25639.76
734.8546, 25656.47
735.3367, 25667.75
735.8188, 25678.27
736.3009, 25690.09
736.7830, 25714.45
737.2651, 25756.39
737.7473, 25802.30
738.2294, 25842.24
738.7115, 25875.92
739.1936, 25902.60
739.6757, 25921.95
740.1578, 25934.00
740.6400, 25927.06
741.1221, 25915.78
741.6042, 25926.62
742.0863, 25973.18
742.5684, 26010.33
743.0505, 26027.53
743.5327, 26034.78
744.0148, 26057.07
744.4969, 26092.71
744.9790, 26123.11
745.4611, 26141.59
745.9432, 26151.29
746.4254, 26151.75
746.9075, 26146.86
747.3896, 26146.57
747.8717, 26158.54
748.3538, 26173.59
748.8359, 26191.74
749.3181, 26211.30
749.8002, 26222.21
750.2823, 26214.94
750.7644, 26216.81
751.2465, 26240.63
751.7286, 26279.98
752.2108, 26299.43
752.6929, 26298.70
753.1750, 26300.55
753.6571, 26318.42
754.1392, 26346.38
754.6213, 26376.26
755.1035, 26407.73
755.5856, 26438.43
756.0677, 26467.15
756.5498, 26494.38
757.0319, 26519.38
757.5140, 26541.68
757.9962, 26567.02
758.4783, 26597.43
758.9604, 26627.48
759.4425, 26655.79
759.9246, 26681.87
760.4067, 26699.52
760.8889, 26707.20
761.3710, 26719.50
761.8531, 26755.30
762.3352, 26800.89
762.8173, 26829.16
763.2994, 26839.17
763.7816, 26845.59
764.2637, 26853.71
764.7458, 26864.81
765.2279, 26881.17
765.7100, 26905.41
766.1921, 26925.76
766.6743, 26942.38
767.1564, 26954.84
767.6385, 26960.60
768.1206, 26958.06
768.6027, 26965.87
769.0848, 26985.32
769.5670, 27007.27
770.0491, 27019.47
770.5312, 27029.00
771.0133, 27052.72
771.4954, 27093.74
771.9775, 27133.35
772.4597, 27154.85
772.9418, 27172.42
773.4240, 27200.21
773.9061, 27250.59
774.3882, 27283.31
774.8703, 27289.71
775.3524, 27287.06
775.8345, 27288.19
776.3167, 27293.19
776.7988, 27304.63
777.2809, 27323.03
777.7630, 27346.82
778.2451, 27376.05
778.7272, 27409.05
779.2094, 27443.97
779.6915, 27481.74
780.1736, 27513.98
780.6557, 27526.67
781.1378, 27535.59
781.6199, 27556.52
782.1021, 27604.14
782.5842, 27642.09
783.0663, 27666.62
783.5484, 27685.13
784.0305, 27703.79
784.5126, 27722.50
784.9948, 27749.20
785.4769, 27787.88
785.9590, 27820.24
786.4411, 27815.25
786.9232, 27791.01
787.4053, 27780.65
787.8875, 27795.56
788.3696, 27816.38
788.8517, 27833.19
789.3338, 27851.21
789.8159, 27877.56
790.2980, 27925.04
790.7802, 27957.49
791.2623, 27968.53
791.7444, 27971.19
792.2265, 27981.03
792.7086, 27997.92
793.1907, 28019.40
793.6729, 28047.20
794.1550, 28071.69
794.6371, 28075.56
795.1192, 28071.04
795.6013, 28079.33
796.0834, 28115.23
796.5656, 28146.72
797.0477, 28155.34
797.5298, 28157.27
798.0119, 28172.92
798.4940, 28210.66
798.9761, 28243.21
799.4583, 28266.86
799.9404, 28287.97
800.4225, 28319.34
800.9046, 28357.77
801.3867, 28383.39
801.8688, 28389.01
802.3510, 28392.25
802.8331, 28408.61
803.3152, 28433.86
803.7973, 28462.15
804.2794, 28494.38
804.7615, 28525.44
805.2437, 28556.85
805.7258, 28585.25
806.2079, 28605.68
806.6900, 28614.63
807.1721, 28630.31
807.6542, 28655.69
808.1364, 28684.72
808.6185, 28712.74
809.1006, 28737.75
809.5827, 28752.46
810.0648, 28752.56
810.5469, 28751.12
811.0291, 28753.83
811.5112, 28762.13
811.9933, 28777.96
812.4754, 28808.78
812.9575, 28836.38
813.4396, 28861.47
813.9218, 28881.73
814.4039, 28891.55
814.8860, 28890.05
815.3681, 28897.86
815.8502, 28918.98
816.3323, 28943.30
816.8145, 28956.97
817.2966, 28966.14
817.7787, 28983.35
818.2608, 29015.12
818.7429, 29043.41
819.2251, 29050.38
819.7072, 29055.02
820.1893, 29077.64
820.6714, 29132.14
821.1536, 29174.60
821.6357, 29202.71
822.1178, 29222.59
822.5999, 29238.62
823.0820, 29251.26
823.5641, 29262.68
824.0463, 29272.17
824.5284, 29287.53
825.0105, 29317.76
825.4926, 29356.57
825.9747, 29398.85
826.4568, 29448.12
826.9390, 29484.37
827.4211, 29490.43
827.9032, 29491.60
828.3853, 29504.22
828.8674, 29529.56
829.3495, 29562.15
829.8317, 29604.16
830.3138, 29642.76
830.7959, 29661.68
831.2780, 29668.29
831.7601, 29678.51
832.2422, 29694.28
832.7244, 29709.58
833.2065, 29716.04
833.6886, 29724.15
834.1707, 29744.25
834.6528, 29782.90
835.1349, 29811.02
835.6171, 29824.35
836.0992, 29834.82
836.5813, 29849.54
837.0634, 29868.24
837.5455, 29886.31
838.0276, 29903.76
838.5098, 29924.88
838.9919, 29954.50
839.4740, 29988.36
839.9561, 30022.41
840.4382, 30056.26
840.9203, 30088.84
841.4025, 30125.29
841.8846, 30154.21
842.3667, 30169.54
842.8488, 30171.60
843.3309, 30173.92
843.8130, 30175.80
844.2952, 30183.27
844.7773, 30204.48
845.2594, 30232.97
845.7415, 30255.32
846.2236, 30271.68
846.7057, 30280.90
847.1879, 30270.62
847.6700, 30264.35
848.1521, 30277.90
848.6342, 30309.66
849.1163, 30339.01
849.5984, 30362.62
850.0806, 30388.26
850.5627, 30417.72
851.0448, 30450.68
851.5269, 30489.67
852.0090, 30533.01
852.4911, 30568.16
852.9733, 30583.04
853.4554, 30591.87
853.9375, 30603.94
854.4196, 30620.11
854.9017, 30642.83
855.3839, 30684.75
855.8660, 30717.73
856.3481, 30734.14
856.8302, 30739.72
857.3123, 30746.23
857.7944, 30753.76
858.2766, 30763.00
858.7587, 30773.19
859.2408, 30788.01
859.7229, 30819.50
860.2050, 30858.85
860.6871, 30887.11
861.1693, 30892.22
861.6514, 30895.17
862.1335, 30899.88
862.6156, 30909.05
863.0977, 30925.89
863.5798, 30953.35
864.0620, 30980.52
864.5441, 31006.73
865.0262, 31032.00
865.5083, 31056.77
865.9904, 31080.92
866.4726, 31105.06
866.9547, 31129.52
867.4368, 31152.03
867.9189, 31164.23
868.4011, 31177.63
868.8832, 31204.83
869.3653, 31258.00
869.8474, 31298.08
870.3295, 31321.88
870.8116, 31337.78
871.2938, 31349.16
871.7759, 31357.19
872.2580, 31375.90
872.7401, 31406.25
873.2222, 31430.00
873.7043, 31418.45
874.1865, 31402.90
874.6686, 31421.36
875.1507, 31477.22
875.6328, 31515.63
876.1149, 31498.91
876.5970, 31488.18
877.0792, 31509.14
877.5613, 31557.90
878.0434, 31595.12
878.5255, 31620.42
879.0076, 31641.66
879.4897, 31658.59
879.9719, 31676.64
880.4540, 31708.57
880.9361, 31749.19
881.4182, 31780.24
881.9003, 31780.13
882.3824, 31784.72
882.8646, 31810.44
883.3467, 31849.10
883.8288, 31880.98
884.3109, 31905.33
884.7930, 31925.40
885.2751, 31938.87
885.7573, 31953.61
886.2394, 31987.78
886.7215, 32033.54
887.2036, 32071.04
887.6857, 32087.55
888.1678, 32104.13
888.6500, 32138.96
889.1321, 32174.97
889.6142, 32187.87
890.0963, 32162.72
890.5784, 32156.75
891.0605, 32178.64
891.5427, 32208.55
892.0248, 32221.64
892.5069, 32224.62
892.9890, 32237.58
893.4711, 32264.02
893.9532, 32294.95
894.4354, 32330.59
894.9175, 32363.55
895.3996, 32385.58
895.8817, 32390.95
896.3638, 32408.50
896.8459, 32441.28
897.3281, 32479.08
897.8102, 32515.82
898.2923, 32551.68
898.7744, 32584.91
899.2565, 32615.88
899.7386, 32652.04
900.2208, 32709.39
900.7029, 32763.84
901.1850, 32794.17
901.6671, 32802.91
902.1492, 32816.89
902.6313, 32841.97
903.1135, 32866.75
903.5956, 32888.28
904.0777, 32908.12
904.5598, 32933.97
905.0419, 32964.39
905.5240, 32986.07
906.0062, 32990.29
906.4883, 32991.10
906.9704, 32996.06
907.4525, 33007.77
907.9346, 33030.39
908.4167, 33083.02
908.8989, 33120.39
909.3810, 33132.22
909.8631, 33136.07
910.3452, 33153.14
910.8273, 33182.65
911.3094, 33217.57
911.7916, 33257.63
912.2737, 33296.28
912.7558, 33331.18
913.2380, 33359.05
913.7201, 33370.57
914.2022, 33357.34
914.6843, 33369.29
915.1664, 33434.72
915.6486, 33500.69
916.1307, 33539.16
916.6128, 33551.74
917.0949, 33561.82
917.5770, 33569.54
918.0591, 33578.32
918.5413, 33592.48
919.0234, 33607.31
919.5055, 33616.09
919.9876, 33620.51
920.4697, 33628.75
920.9518, 33644.34
921.4340, 33662.33
921.9161, 33681.95
922.3982, 33702.66
922.8803, 33724.46
923.3624, 33746.85
923.8445, 33764.78
924.3267, 33774.46
924.8088, 33784.82
925.2909, 33808.69
925.7730, 33838.90
926.2551, 33865.23
926.7372, 33884.20
927.2194, 33901.38
927.7015, 33917.80
928.1836, 33933.92
928.6657, 33949.09
929.1478, 33963.63
929.6299, 33984.81
930.1121, 34013.38
930.5942, 34044.42
931.0763, 34073.51
931.5584, 34103.05
932.0405, 34133.99
932.5226, 34165.99
933.0048, 34208.29
933.4869, 34279.92
933.9690, 34339.09
934.4511, 34363.36
934.9332, 34362.85
935.4153, 34390.82
935.8975, 34446.00
936.3796, 34506.27
936.8617, 34562.84
937.3438, 34617.30
937.8259, 34671.77
938.3080, 34725.23
938.7902, 34774.66
939.2723, 34818.75
939.7544, 34859.20
940.2365, 34891.24
940.7186, 34925.19
941.2007, 34975.34
941.6829, 35041.00
942.1650, 35112.97
942.6471, 35191.63
943.1292, 35270.43
943.6113, 35321.58
944.0934, 35383.68
944.5756, 35502.15
945.0577, 35692.34
945.5398, 35883.00
946.0219, 36055.86
946.5040, 36246.39
946.9861, 36462.31
947.4683, 36712.64
947.9504, 37029.27
948.4325, 37412.45
948.9146, 37856.80
949.3967, 38375.10
949.8788, 38938.65
950.3610, 39551.28
950.8431, 40195.24
951.3252, 40807.48
951.8073, 41387.79
952.2894, 41934.16
952.7715, 42437.10
953.2537, 42920.39
953.7358, 43404.91
954.2179, 43901.37
954.7000, 44448.24
955.1821, 45043.02
955.6642, 45717.49
956.1464, 46489.47
956.6285, 47352.16
957.1106, 48316.70
957.5927, 49394.07
958.0748, 50520.24
958.5569, 51702.39
959.0391, 52925.77
959.5212, 54241.79
960.0033, 55582.68
960.4855, 56831.48
960.9676, 57945.67
961.4497, 58665.10
961.9318, 59087.52
962.4139, 58851.61
962.8961, 57600.23
963.3782, 55551.07
963.8603, 53199.53
964.3424, 50441.70
964.8245, 47894.63
965.3066, 45648.79
965.7888, 43728.73
966.2709, 42191.81
966.7530, 40980.95
967.2351, 40045.89
967.7172, 39409.93
968.1993, 38883.34
968.6815, 38408.05
969.1636, 38003.62
969.6457, 37682.20
970.1278, 37450.00
970.6099, 37234.45
971.0920, 37034.63
971.5742, 36865.23
972.0563, 36746.85
972.5384, 36660.04
973.0205, 36581.60
973.5026, 36512.01
973.9847, 36455.16
974.4669, 36411.69
974.9490, 36383.57
975.4311, 36376.25
975.9132, 36379.96
976.3953, 36374.35
976.8774, 36360.38
977.3596, 36348.50
977.8417, 36340.78
978.3238, 36338.91
978.8059, 36354.89
979.2880, 36372.18
979.7701, 36369.73
980.2523, 36333.59
980.7344, 36315.28
981.2165, 36319.59
981.6986, 36335.49
982.1807, 36361.90
982.6628, 36393.93
983.1450, 36408.18
983.6271, 36406.55
984.1092, 36402.52
984.5913, 36398.52
985.0734, 36399.00
985.5555, 36409.48
986.0377, 36425.75
986.5198, 36436.25
987.0019, 36438.08
987.4840, 36443.86
987.9661, 36455.98
988.4482, 36472.25
988.9304, 36492.77
989.4125, 36514.73
989.8946, 36532.08
990.3767, 36543.79
990.8588, 36554.19
991.3409, 36568.39
991.8231, 36579.22
992.3052, 36580.01
992.7873, 36571.67
993.2694, 36576.94
993.7515, 36596.06
994.2336, 36618.29
994.7158, 36633.83
995.1979, 36652.00
995.6800, 36686.46
996.1621, 36731.54
996.6442, 36774.28
997.1263, 36808.96
997.6085, 36842.46
998.0906, 36875.79
998.5727, 36906.95
999.0548, 36933.93
999.5369, 36957.00
1000.019, 36979.58
1000.501, 37002.78
1000.983, 37015.19
1001.465, 36999.63
1001.948, 36977.72
1002.430, 36962.98
1002.912, 36957.13
1003.394, 36969.32
1003.876, 37007.23
1004.358, 37039.29
1004.840, 37050.71
1005.322, 37053.21
1005.804, 37070.09
1006.287, 37096.95
1006.769, 37123.48
1007.251, 37147.26
1007.733, 37167.62
1008.215, 37180.87
1008.697, 37193.18
1009.179, 37209.52
1009.661, 37229.55
1010.144, 37257.13
1010.626, 37293.16
1011.108, 37327.59
1011.590, 37355.81
1012.072, 37376.20
1012.554, 37379.34
1013.036, 37369.39
1013.518, 37379.37
1014.000, 37423.73
1014.483, 37472.77
1014.965, 37523.37
1015.447, 37570.57
1015.929, 37600.90
1016.411, 37619.46
1016.893, 37642.93
1017.375, 37673.86
1017.857, 37717.51
1018.340, 37793.24
1018.822, 37871.32
1019.304, 37923.29
1019.786, 37943.69
1020.268, 37979.98
1020.750, 38034.50
1021.232, 38087.23
1021.714, 38119.54
1022.196, 38145.57
1022.679, 38190.02
1023.161, 38246.51
1023.643, 38296.77
1024.125, 38327.86
1024.607, 38360.90
1025.089, 38397.74
1025.571, 38440.48
1026.053, 38494.11
1026.536, 38557.11
1027.018, 38627.51
1027.500, 38706.79
1027.982, 38767.52
1028.464, 38778.82
1028.946, 38771.21
1029.428, 38764.30
1029.910, 38759.82
1030.392, 38762.25
1030.875, 38772.74
1031.357, 38784.55
1031.839, 38793.77
1032.321, 38804.67
1032.803, 38818.84
1033.285, 38841.33
1033.767, 38884.66
1034.249, 38966.79
1034.732, 39040.70
1035.214, 39088.16
1035.696, 39130.48
1036.178, 39184.40
1036.660, 39249.57
1037.142, 39316.13
1037.624, 39382.80
1038.106, 39440.18
1038.589, 39472.89
1039.071, 39502.00
1039.553, 39545.73
1040.035, 39599.86
1040.517, 39650.27
1040.999, 39703.61
1041.481, 39731.30
1041.963, 39721.89
1042.445, 39706.50
1042.927, 39729.02
1043.410, 39774.46
1043.892, 39811.60
1044.374, 39834.32
1044.856, 39868.48
1045.338, 39950.80
1045.820, 40015.52
1046.302, 40022.95
1046.784, 39988.89
1047.267, 40010.30
1047.749, 40079.98
1048.231, 40113.86
1048.713, 40066.85
1049.195, 39992.84
1049.677, 39921.50
1050.159, 39854.61
1050.641, 39793.35
1051.124, 39730.85
1051.606, 39695.68
1052.088, 39692.66
1052.570, 39701.54
1053.052, 39711.46
1053.534, 39720.64
1054.016, 39724.83
1054.498, 39724.96
1054.980, 39725.13
1055.463, 39733.36
1055.945, 39732.63
1056.427, 39717.08
1056.909, 39692.87
1057.391, 39666.88
1057.873, 39640.06
1058.355, 39624.72
1058.837, 39623.88
1059.319, 39620.27
1059.802, 39591.41
1060.284, 39562.44
1060.766, 39555.41
1061.248, 39569.69
1061.730, 39577.26
1062.212, 39574.51
1062.694, 39587.73
1063.176, 39634.85
1063.659, 39688.46
1064.141, 39699.05
1064.623, 39691.07
1065.105, 39707.46
1065.587, 39773.18
1066.069, 39831.30
1066.551, 39874.88
1067.033, 39909.93
1067.516, 39932.89
1067.998, 39949.39
1068.480, 39995.72
1068.962, 40066.73
1069.444, 40135.04
1069.926, 40191.51
1070.408, 40234.36
1070.890, 40251.52
1071.372, 40258.71
1071.854, 40279.92
1072.337, 40317.19
1072.819, 40351.93
1073.301, 40382.22
1073.783, 40414.51
1074.265, 40460.21
1074.747, 40507.30
1075.229, 40546.06
1075.711, 40575.31
1076.194, 40593.82
1076.676, 40609.67
1077.158, 40594.80
1077.640, 40535.39
1078.122, 40452.81
1078.604, 40373.04
1079.086, 40300.71
1079.568, 40246.70
1080.051, 40214.42
1080.533, 40192.77
1081.015, 40185.97
1081.497, 40180.93
1081.979, 40170.95
1082.461, 40157.64
1082.943, 40147.23
1083.425, 40140.82
1083.907, 40146.42
1084.390, 40175.43
1084.872, 40207.12
1085.354, 40229.06
1085.836, 40245.44
1086.318, 40260.97
1086.800, 40272.04
1087.282, 40300.54
1087.764, 40349.63
1088.247, 40390.57
1088.729, 40391.30
1089.211, 40377.59
1089.693, 40374.84
1090.175, 40383.38
1090.657, 40402.35
1091.139, 40442.00
1091.621, 40470.52
1092.104, 40479.68
1092.586, 40485.31
1093.068, 40516.35
1093.550, 40558.59
1094.032, 40575.45
1094.514, 40562.75
1094.996, 40553.85
1095.478, 40567.26
1095.960, 40583.13
1096.443, 40591.54
1096.925, 40598.18
1097.407, 40624.01
1097.889, 40665.95
1098.371, 40700.27
1098.853, 40719.73
1099.335, 40734.07
1099.817, 40744.47
1100.299, 40756.85
1100.782, 40779.61
1101.264, 40813.45
1101.746, 40829.09
1102.228, 40825.31
1102.710, 40819.89
1103.192, 40821.14
1103.674, 40825.76
1104.156, 40826.40
1104.639, 40829.23
1105.121, 40845.77
1105.603, 40897.60
1106.085, 40921.57
1106.567, 40910.15
1107.049, 40893.92
1107.531, 40898.05
1108.013, 40914.64
1108.495, 40925.27
1108.978, 40933.26
1109.460, 40952.61
1109.942, 40993.16
1110.424, 41040.63
1110.906, 41098.73
1111.388, 41153.12
1111.870, 41182.95
1112.352, 41192.19
1112.834, 41194.98
1113.317, 41192.89
1113.799, 41199.37
1114.281, 41231.45
1114.763, 41264.11
1115.245, 41285.07
1115.727, 41297.79
1116.209, 41308.79
1116.691, 41318.69
1117.174, 41335.28
1117.656, 41363.14
1118.138, 41385.04
1118.620, 41375.38
1119.102, 41362.08
1119.584, 41373.77
1120.066, 41410.36
1120.548, 41431.29
1121.031, 41433.91
1121.513, 41438.61
1121.995, 41454.75
1122.477, 41471.66
1122.959, 41470.59
1123.441, 41464.24
1123.923, 41471.56
1124.405, 41502.18
1124.887, 41527.14
1125.370, 41542.42
1125.852, 41562.13
1126.334, 41598.54
1126.816, 41642.61
1127.298, 41678.76
1127.780, 41707.21
1128.262, 41727.75
1128.744, 41734.47
1129.227, 41741.30
1129.709, 41747.90
1130.191, 41757.50
1130.673, 41771.50
1131.155, 41790.55
1131.637, 41823.21
1132.119, 41866.03
1132.601, 41900.07
1133.083, 41902.79
1133.566, 41911.28
1134.048, 41948.97
1134.530, 41989.20
1135.012, 41991.18
1135.494, 41959.14
1135.976, 41933.36
1136.458, 41917.63
1136.940, 41921.77
1137.422, 41977.06
1137.905, 42030.38
1138.387, 42044.97
1138.869, 42034.86
1139.351, 42031.35
1139.833, 42034.50
1140.315, 42048.96
1140.797, 42077.19
1141.279, 42106.06
1141.762, 42122.91
1142.244, 42136.00
1142.726, 42151.01
1143.208, 42168.50
1143.690, 42193.16
1144.172, 42226.24
1144.654, 42256.73
1145.136, 42281.17
1145.619, 42299.57
1146.101, 42297.85
1146.583, 42296.60
1147.065, 42327.31
1147.547, 42404.93
1148.029, 42451.27
1148.511, 42456.96
1148.993, 42457.96
1149.475, 42472.23
1149.958, 42487.46
1150.440, 42476.30
1150.922, 42453.73
1151.404, 42448.05
1151.886, 42477.49
1152.368, 42499.14
1152.850, 42511.82
1153.332, 42514.82
1153.814, 42502.74
1154.297, 42484.13
1154.779, 42477.50
1155.261, 42482.30
1155.743, 42496.77
1156.225, 42530.16
1156.707, 42557.75
1157.189, 42574.56
1157.671, 42587.17
1158.154, 42601.04
1158.636, 42615.05
1159.118, 42621.70
1159.600, 42623.45
1160.082, 42633.88
1160.564, 42664.09
1161.046, 42698.84
1161.528, 42741.01
1162.010, 42778.49
1162.493, 42789.64
1162.975, 42780.94
1163.457, 42802.54
1163.939, 42854.13
1164.421, 42896.89
1164.903, 42890.71
1165.385, 42890.59
1165.867, 42929.65
1166.349, 42983.36
1166.832, 43010.04
1167.314, 43011.72
1167.796, 43017.45
1168.278, 43030.52
1168.760, 43035.25
1169.242, 42993.55
1169.724, 42966.85
1170.206, 43013.66
1170.689, 43098.98
1171.171, 43133.83
1171.653, 43119.36
1172.135, 43108.86
1172.617, 43111.60
1173.099, 43124.97
1173.581, 43163.25
1174.063, 43197.61
1174.546, 43190.49
1175.028, 43157.36
1175.510, 43185.89
1175.992, 43280.72
1176.474, 43324.27
1176.956, 43275.97
1177.438, 43213.38
1177.920, 43202.98
1178.402, 43216.87
1178.885, 43232.11
1179.367, 43246.97
1179.849, 43266.08
1180.331, 43290.64
1180.813, 43309.41
1181.295, 43317.31
1181.777, 43322.43
1182.259, 43327.47
1182.742, 43338.21
1183.224, 43366.49
1183.706, 43416.16
1184.188, 43442.73
1184.670, 43443.56
1185.152, 43440.07
1185.634, 43433.11
1186.116, 43440.80
1186.599, 43499.73
1187.081, 43578.31
1187.563, 43633.83
1188.045, 43659.56
1188.527, 43659.33
1189.009, 43625.38
1189.491, 43609.00
1189.973, 43645.16
1190.455, 43705.17
1190.938, 43773.18
1191.420, 43833.73
1191.902, 43859.18
1192.384, 43831.09
1192.866, 43810.13
1193.348, 43796.74
1193.830, 43790.59
1194.312, 43791.94
1194.794, 43800.39
1195.277, 43814.66
1195.759, 43835.97
1196.241, 43867.52
1196.723, 43920.11
1197.205, 43957.98
1197.687, 43979.21
1198.169, 43991.16
1198.651, 43986.29
1199.134, 43984.34
1199.616, 44023.86
1200.098, 44086.20
1200.580, 44122.96
1201.062, 44114.04
1201.544, 44107.91
1202.026, 44105.40
1202.508, 44110.30
1202.990, 44130.65
1203.473, 44156.75
1203.955, 44176.90
1204.437, 44191.77
1204.919, 44205.61
1205.401, 44220.45
1205.883, 44231.01
1206.365, 44236.46
1206.847, 44240.41
1207.329, 44243.26
1207.812, 44249.13
1208.294, 44270.73
1208.776, 44301.81
1209.258, 44311.71
1209.740, 44281.97
1210.222, 44277.52
1210.704, 44311.48
1211.186, 44349.23
1211.669, 44345.57
1212.151, 44332.50
1212.633, 44356.55
1213.115, 44411.53
1213.597, 44446.59
1214.079, 44446.76
1214.561, 44460.05
1215.043, 44494.77
1215.526, 44535.27
1216.008, 44576.32
1216.490, 44605.65
1216.972, 44594.14
1217.454, 44550.35
1217.936, 44546.05
1218.418, 44596.36
1218.900, 44644.30
1219.382, 44682.05
1219.865, 44708.79
1220.347, 44717.21
1220.829, 44719.04
1221.311, 44726.38
1221.793, 44740.33
1222.275, 44759.70
1222.757, 44788.25
1223.239, 44805.74
1223.722, 44805.93
1224.204, 44807.06
1224.686, 44841.30
1225.168, 44878.25
1225.650, 44879.30
1226.132, 44846.79
1226.614, 44839.50
1227.096, 44862.08
1227.578, 44887.17
1228.061, 44909.27
1228.543, 44929.65
1229.025, 44945.50
1229.507, 44962.70
1229.989, 44990.67
1230.471, 45027.05
1230.953, 45048.70
1231.435, 45054.11
1231.917, 45053.72
1232.400, 45047.58
1232.882, 45046.88
1233.364, 45069.61
1233.846, 45096.79
1234.328, 45115.01
1234.810, 45122.83
1235.292, 45107.74
1235.774, 45068.22
1236.257, 45059.45
1236.739, 45102.67
1237.221, 45140.50
1237.703, 45103.67
1238.185, 45059.70
1238.667, 45072.78
1239.149, 45128.19
1239.631, 45158.22
1240.114, 45163.57
1240.596, 45173.86
1241.078, 45197.56
1241.560, 45217.63
1242.042, 45210.15
1242.524, 45204.41
1243.006, 45222.02
1243.488, 45256.02
1243.970, 45282.03
1244.453, 45300.58
1244.935, 45315.89
1245.417, 45327.39
1245.899, 45344.60
1246.381, 45378.63
1246.863, 45415.43
1247.345, 45449.21
1247.827, 45478.87
1248.309, 45497.96
1248.792, 45508.02
1249.274, 45512.46
1249.756, 45510.14
1250.238, 45516.61
1250.720, 45558.40
1251.202, 45587.23
1251.684, 45575.90
1252.166, 45544.83
1252.649, 45546.57
1253.131, 45572.82
1253.613, 45602.14
1254.095, 45631.51
1254.577, 45650.02
1255.059, 45644.54
1255.541, 45640.42
1256.023, 45642.72
1256.505, 45656.63
1256.988, 45710.32
1257.470, 45779.57
1257.952, 45806.13
1258.434, 45772.76
1258.916, 45760.81
1259.398, 45794.89
1259.880, 45822.93
1260.362, 45822.95
1260.844, 45818.94
1261.327, 45861.67
1261.809, 45921.53
1262.291, 45949.68
1262.773, 45934.89
1263.255, 45934.54
1263.737, 45953.92
1264.219, 45977.05
1264.701, 45997.41
1265.184, 46020.76
1265.666, 46051.07
1266.148, 46090.05
1266.630, 46143.92
1267.112, 46213.04
1267.594, 46271.36
1268.076, 46319.98
1268.558, 46345.14
1269.041, 46336.33
1269.523, 46327.44
1270.005, 46366.04
1270.487, 46409.33
1270.969, 46406.36
1271.451, 46368.81
1271.933, 46371.67
1272.415, 46414.54
1272.897, 46435.46
1273.380, 46415.45
1273.862, 46396.96
1274.344, 46422.23
1274.826, 46448.21
1275.308, 46445.21
1275.790, 46422.34
1276.272, 46405.33
1276.754, 46395.38
1277.237, 46402.51
1277.719, 46430.91
1278.201, 46456.11
1278.683, 46466.17
1279.165, 46468.09
1279.647, 46462.52
1280.129, 46453.69
1280.611, 46450.33
1281.094, 46451.08
1281.576, 46451.88
1282.058, 46452.04
1282.540, 46455.12
1283.022, 46458.90
1283.504, 46471.85
1283.986, 46497.68
1284.468, 46529.96
1284.950, 46559.65
1285.432, 46588.40
1285.915, 46622.11
1286.397, 46660.52
1286.879, 46681.61
1287.361, 46679.70
1287.843, 46672.98
1288.325, 46661.07
1288.807, 46663.18
1289.289, 46721.51
1289.772, 46790.55
1290.254, 46821.95
1290.736, 46815.07
1291.218, 46799.33
1291.700, 46771.70
1292.182, 46758.66
1292.664, 46763.94
1293.146, 46790.79
1293.629, 46864.79
1294.111, 46938.37
1294.593, 46984.87
1295.075, 47003.64
1295.557, 46976.96
1296.039, 46911.41
1296.521, 46881.81
1297.003, 46899.86
1297.485, 46932.73
1297.968, 46966.95
1298.450, 46989.17
1298.932, 46991.37
1299.414, 46988.70
1299.896, 47007.15
1300.378, 47039.54
1300.860, 47052.89
1301.342, 47048.14
1301.824, 47057.94
1302.307, 47048.43
##END=



