##NAMES=Hydropyrochlore
##RRUFFID=R060980
##IDEAL CHEMISTRY=(H_2_O,[box])_2_Nb^5+^_2_(O,OH)_6_(H_2_O)
##LOCALITY=Lueshe mine, Kivu, Democratic Republic of the Congo
##OWNER=RRUFF
##SOURCE=Bob Jenkins
##DESCRIPTION=Pale green octahedron
##STATUS=The identification of this mineral is confirmed by single-crystal X-ray diffraction and chemical analysis.
##URL=rruff.info/R060980
##MEASURED CHEMISTRY=((H_2_O)_0.61_K_0.11_Sr_0.07_Ba_0.02_Ca_0.01_[box]_0.18_)(Nb_1.84_Ti_0.16_)(O_4.15_(OH)_1.85_)(H_2_O)
123.9327, 27582.89
124.4148, 28820.58
124.8969, 30030.47
125.3791, 31198.97
125.8612, 32326.90
126.3433, 33400.10
126.8254, 34372.18
127.3075, 35171.16
127.7896, 35865.67
128.2718, 36593.21
128.7539, 37374.47
129.2360, 38133.97
129.7181, 38787.68
130.2002, 39336.95
130.6823, 39838.66
131.1645, 40309.33
131.6466, 40753.16
132.1287, 41192.60
132.6108, 41623.80
133.0929, 42050.81
133.5750, 42476.32
134.0572, 42902.50
134.5393, 43330.68
135.0214, 43767.72
135.5035, 44213.41
135.9856, 44680.21
136.4677, 45163.00
136.9499, 45666.44
137.4320, 46216.16
137.9141, 46821.80
138.3962, 47445.27
138.8783, 48050.68
139.3604, 48628.59
139.8426, 49208.06
140.3247, 49799.26
140.8068, 50397.83
141.2889, 51014.30
141.7710, 51661.51
142.2531, 52310.49
142.7353, 52914.13
143.2174, 53451.48
143.6995, 53966.90
144.1816, 54472.08
144.6637, 54976.96
145.1458, 55453.85
145.6280, 55910.88
146.1101, 56339.07
146.5922, 56713.54
147.0743, 57020.98
147.5564, 57284.16
148.0385, 57513.83
148.5207, 57716.41
149.0028, 57877.15
149.4849, 57980.73
149.9670, 58027.24
150.4491, 58086.52
150.9312, 58184.26
151.4134, 58289.02
151.8955, 58374.77
152.3776, 58387.08
152.8597, 58440.87
153.3418, 58581.16
153.8239, 58840.82
154.3060, 59057.24
154.7882, 59144.44
155.2703, 59196.75
155.7524, 59342.53
156.2345, 59700.29
156.7166, 60075.46
157.1987, 60385.98
157.6809, 60579.96
158.1630, 60791.09
158.6451, 61060.44
159.1272, 61363.16
159.6093, 61648.33
160.0914, 61889.37
160.5736, 62105.11
161.0557, 62306.64
161.5378, 62504.27
162.0199, 62672.90
162.5020, 62788.14
162.9841, 62857.66
163.4663, 62929.50
163.9484, 63046.55
164.4305, 63167.34
164.9126, 63255.20
165.3947, 63299.71
165.8768, 63311.54
166.3590, 63293.38
166.8411, 63247.67
167.3232, 63187.57
167.8053, 63113.66
168.2874, 63034.00
168.7695, 62958.95
169.2517, 62898.96
169.7338, 62843.89
170.2159, 62789.25
170.6980, 62738.00
171.1801, 62674.69
171.6622, 62578.80
172.1444, 62461.49
172.6265, 62347.35
173.1086, 62241.91
173.5907, 62148.71
174.0728, 62074.20
174.5549, 62023.99
175.0371, 61975.26
175.5192, 61905.25
176.0013, 61816.50
176.4834, 61720.32
176.9655, 61626.60
177.4476, 61530.22
177.9298, 61423.39
178.4119, 61303.18
178.8940, 61173.00
179.3761, 61033.35
179.8582, 60885.14
180.3403, 60725.96
180.8224, 60555.96
181.3046, 60374.57
181.7867, 60175.66
182.2688, 59962.01
182.7509, 59728.50
183.2330, 59457.02
183.7151, 59150.88
184.1973, 58834.66
184.6794, 58547.31
185.1615, 58276.80
185.6436, 57982.96
186.1257, 57639.68
186.6078, 57260.48
187.0900, 56889.17
187.5721, 56530.41
188.0542, 56155.91
188.5363, 55712.13
189.0184, 55209.12
189.5005, 54710.27
189.9827, 54257.37
190.4648, 53842.88
190.9469, 53403.85
191.4290, 52941.22
191.9111, 52470.95
192.3932, 52024.10
192.8754, 51604.29
193.3575, 51158.86
193.8396, 50639.26
194.3217, 50048.77
194.8038, 49513.08
195.2859, 49050.38
195.7681, 48635.51
196.2502, 48191.57
196.7323, 47714.43
197.2144, 47258.27
197.6965, 46873.47
198.1786, 46564.13
198.6608, 46225.24
199.1429, 45837.15
199.6250, 45418.41
200.1071, 45010.02
200.5892, 44609.54
201.0714, 44225.36
201.5535, 43856.81
202.0356, 43499.58
202.5177, 43186.97
202.9998, 42933.55
203.4819, 42726.18
203.9641, 42520.12
204.4462, 42321.02
204.9283, 42102.07
205.4104, 41824.00
205.8925, 41466.15
206.3746, 41143.09
206.8568, 40889.82
207.3389, 40700.75
207.8210, 40476.88
208.3031, 40201.89
208.7852, 39922.71
209.2673, 39695.96
209.7494, 39534.96
210.2316, 39387.38
210.7137, 39239.71
211.1958, 39092.94
211.6779, 38961.27
212.1600, 38848.82
212.6421, 38746.39
213.1243, 38639.05
213.6064, 38522.93
214.0885, 38412.94
214.5706, 38309.20
215.0527, 38205.89
215.5348, 38136.90
216.0170, 38117.64
216.4991, 38116.75
216.9812, 38072.28
217.4633, 37956.71
217.9454, 37853.77
218.4275, 37801.65
218.9097, 37822.87
219.3918, 37823.14
219.8739, 37803.00
220.3560, 37762.83
220.8381, 37697.20
221.3202, 37590.86
221.8024, 37490.50
222.2845, 37419.39
222.7666, 37385.66
223.2487, 37363.53
223.7308, 37360.23
224.2129, 37367.90
224.6951, 37359.88
225.1772, 37326.50
225.6593, 37291.83
226.1414, 37267.51
226.6235, 37254.65
227.1056, 37248.32
227.5878, 37250.85
228.0699, 37258.73
228.5520, 37256.73
229.0341, 37234.99
229.5162, 37215.34
229.9983, 37214.30
230.4805, 37250.25
230.9626, 37264.48
231.4447, 37241.52
231.9268, 37188.78
232.4089, 37160.23
232.8910, 37166.46
233.3732, 37184.05
233.8553, 37199.93
234.3374, 37226.21
234.8195, 37227.33
235.3016, 37190.09
235.7837, 37118.27
236.2658, 37063.77
236.7480, 37030.95
237.2301, 37011.47
237.7122, 36998.93
238.1943, 36992.70
238.6764, 36996.51
239.1585, 37018.85
239.6407, 37059.76
240.1228, 37071.04
240.6049, 37026.02
241.0870, 36978.47
241.5691, 36982.20
242.0512, 37077.16
242.5334, 37146.80
243.0155, 37160.36
243.4976, 37114.03
243.9797, 37087.59
244.4618, 37088.10
244.9439, 37099.21
245.4261, 37104.08
245.9082, 37096.86
246.3903, 37091.61
246.8724, 37094.69
247.3545, 37107.91
247.8366, 37102.22
248.3188, 37078.00
248.8009, 37035.93
249.2830, 36970.33
249.7651, 36854.93
250.2472, 36773.11
250.7293, 36757.27
251.2115, 36819.63
251.6936, 36850.72
252.1757, 36843.63
252.6578, 36814.72
253.1399, 36778.90
253.6220, 36723.92
254.1042, 36688.98
254.5863, 36689.68
255.0684, 36732.23
255.5505, 36763.70
256.0326, 36776.21
256.5147, 36783.25
256.9969, 36806.54
257.4790, 36860.24
257.9611, 36896.90
258.4432, 36894.61
258.9253, 36841.78
259.4074, 36817.90
259.8896, 36829.74
260.3717, 36862.09
260.8538, 36898.38
261.3359, 36946.56
261.8180, 36977.91
262.3001, 36975.17
262.7823, 36928.74
263.2644, 36919.64
263.7465, 36970.75
264.2286, 37036.34
264.7107, 37041.31
265.1928, 36966.13
265.6750, 36884.22
266.1571, 36816.22
266.6392, 36763.05
267.1213, 36728.54
267.6034, 36721.58
268.0855, 36725.11
268.5677, 36715.20
269.0498, 36693.49
269.5319, 36655.64
270.0140, 36594.09
270.4961, 36505.58
270.9782, 36434.23
271.4604, 36382.06
271.9425, 36344.16
272.4246, 36314.39
272.9067, 36294.64
273.3888, 36275.90
273.8709, 36258.87
274.3531, 36244.58
274.8352, 36204.10
275.3173, 36125.23
275.7994, 36038.24
276.2815, 35996.84
276.7636, 36009.78
277.2457, 36015.96
277.7278, 35989.51
278.2100, 35929.63
278.6921, 35863.82
279.1742, 35786.42
279.6563, 35712.84
280.1384, 35672.23
280.6205, 35668.26
281.1027, 35660.51
281.5848, 35633.52
282.0669, 35587.86
282.5490, 35533.49
283.0311, 35469.66
283.5132, 35400.33
283.9954, 35331.60
284.4775, 35263.68
284.9596, 35192.24
285.4417, 35115.55
285.9238, 35033.93
286.4059, 34944.08
286.8881, 34843.93
287.3702, 34746.90
287.8523, 34671.36
288.3344, 34616.45
288.8165, 34571.25
289.2986, 34548.77
289.7808, 34535.47
290.2629, 34459.99
290.7450, 34313.31
291.2271, 34151.17
291.7092, 34041.32
292.1913, 33978.47
292.6735, 33925.00
293.1556, 33880.71
293.6377, 33835.22
294.1198, 33752.62
294.6019, 33629.23
295.0840, 33500.47
295.5662, 33412.06
296.0483, 33353.56
296.5304, 33281.21
297.0125, 33158.15
297.4946, 33015.11
297.9767, 32921.28
298.4589, 32878.32
298.9410, 32847.44
299.4231, 32786.41
299.9052, 32705.39
300.3873, 32634.61
300.8694, 32592.85
301.3516, 32562.76
301.8337, 32522.11
302.3158, 32469.49
302.7979, 32404.73
303.2800, 32327.83
303.7621, 32237.20
304.2443, 32127.86
304.7264, 31979.24
305.2085, 31825.23
305.6906, 31705.55
306.1727, 31619.79
306.6548, 31535.50
307.1370, 31435.00
307.6191, 31321.73
308.1012, 31201.30
308.5833, 31076.08
309.0654, 30947.13
309.5475, 30810.19
310.0297, 30668.43
310.5118, 30540.99
310.9939, 30453.60
311.4760, 30383.41
311.9581, 30304.54
312.4402, 30203.71
312.9224, 30098.35
313.4045, 29996.43
313.8866, 29897.00
314.3687, 29799.77
314.8508, 29705.59
315.3329, 29613.01
315.8151, 29520.77
316.2972, 29419.58
316.7793, 29328.68
317.2614, 29264.32
317.7435, 29219.45
318.2256, 29164.81
318.7078, 29066.99
319.1899, 28970.57
319.6720, 28905.66
320.1541, 28903.37
320.6362, 28895.92
321.1183, 28852.36
321.6005, 28787.11
322.0826, 28744.61
322.5647, 28747.42
323.0468, 28765.63
323.5289, 28785.83
324.0110, 28812.98
324.4932, 28830.30
324.9753, 28821.29
325.4574, 28800.14
325.9395, 28799.69
326.4216, 28848.89
326.9037, 28896.80
327.3859, 28924.34
327.8680, 28917.45
328.3501, 28917.04
328.8322, 28925.20
329.3143, 28939.99
329.7964, 28958.87
330.2786, 28994.63
330.7607, 29020.20
331.2428, 29018.39
331.7249, 28966.39
332.2070, 28971.82
332.6891, 29067.16
333.1712, 29201.77
333.6534, 29304.35
334.1355, 29364.33
334.6176, 29413.29
335.0997, 29455.10
335.5818, 29487.08
336.0639, 29538.58
336.5461, 29625.12
337.0282, 29710.85
337.5103, 29746.31
337.9924, 29705.51
338.4745, 29700.81
338.9566, 29771.90
339.4388, 29910.58
339.9209, 30019.56
340.4030, 30093.85
340.8851, 30149.41
341.3672, 30194.83
341.8493, 30229.80
342.3315, 30275.37
342.8136, 30345.54
343.2957, 30427.94
343.7778, 30467.88
344.2599, 30459.17
344.7420, 30457.86
345.2242, 30521.78
345.7063, 30643.02
346.1884, 30746.07
346.6705, 30812.25
347.1526, 30858.43
347.6347, 30916.57
348.1169, 30984.92
348.5990, 31052.54
349.0811, 31111.47
349.5632, 31161.34
350.0453, 31202.03
350.5274, 31231.25
351.0096, 31253.34
351.4917, 31269.15
351.9738, 31281.00
352.4559, 31299.84
352.9380, 31357.05
353.4201, 31417.24
353.9023, 31418.28
354.3844, 31342.97
354.8665, 31266.69
355.3486, 31271.01
355.8307, 31324.12
356.3128, 31360.22
356.7950, 31329.27
357.2771, 31280.10
357.7592, 31254.90
358.2413, 31258.19
358.7234, 31259.55
359.2055, 31218.90
359.6877, 31171.31
360.1698, 31161.92
360.6519, 31265.30
361.1340, 31359.23
361.6161, 31381.08
362.0982, 31330.56
362.5804, 31265.85
363.0625, 31186.64
363.5446, 31111.98
364.0267, 31057.79
364.5088, 31062.61
364.9909, 31051.87
365.4731, 30997.84
365.9552, 30908.45
366.4373, 30834.15
366.9194, 30789.10
367.4015, 30757.57
367.8836, 30730.84
368.3658, 30709.67
368.8479, 30692.26
369.3300, 30687.71
369.8121, 30687.45
370.2942, 30665.69
370.7763, 30597.53
371.2585, 30535.21
371.7406, 30501.68
372.2227, 30514.94
372.7048, 30504.50
373.1869, 30452.12
373.6690, 30386.50
374.1512, 30363.45
374.6333, 30412.14
375.1154, 30432.71
375.5975, 30380.49
376.0796, 30248.59
376.5617, 30159.93
377.0439, 30123.90
377.5260, 30113.72
378.0081, 30106.90
378.4902, 30106.45
378.9723, 30084.04
379.4544, 30024.19
379.9366, 29938.95
380.4187, 29873.39
380.9008, 29829.10
381.3829, 29801.25
381.8650, 29794.55
382.3471, 29804.33
382.8293, 29800.54
383.3114, 29768.07
383.7935, 29730.05
384.2756, 29736.21
384.7577, 29780.97
385.2398, 29816.30
385.7219, 29803.31
386.2040, 29759.57
386.6862, 29718.74
387.1683, 29686.19
387.6504, 29650.38
388.1325, 29593.71
388.6146, 29522.97
389.0967, 29459.18
389.5789, 29426.04
390.0610, 29396.49
390.5431, 29344.68
391.0252, 29267.22
391.5073, 29189.69
391.9894, 29128.74
392.4716, 29076.70
392.9537, 29023.41
393.4358, 28966.20
393.9179, 28907.13
394.4000, 28843.00
394.8821, 28774.77
395.3643, 28715.72
395.8464, 28676.08
396.3285, 28642.85
396.8106, 28606.71
397.2927, 28566.29
397.7748, 28520.86
398.2570, 28470.53
398.7391, 28414.54
399.2212, 28350.61
399.7033, 28260.44
400.1854, 28178.34
400.6675, 28119.72
401.1497, 28100.06
401.6318, 28073.67
402.1139, 28039.83
402.5960, 28000.20
403.0781, 27959.08
403.5602, 27922.77
404.0424, 27871.71
404.5245, 27788.54
405.0066, 27669.28
405.4887, 27602.25
405.9708, 27605.95
406.4529, 27625.25
406.9351, 27593.36
407.4172, 27504.99
407.8993, 27423.88
408.3814, 27368.16
408.8635, 27330.12
409.3456, 27277.21
409.8278, 27207.74
410.3099, 27148.84
410.7920, 27135.79
411.2741, 27154.78
411.7562, 27150.77
412.2383, 27108.39
412.7205, 27051.54
413.2026, 27006.57
413.6847, 26972.94
414.1668, 26949.87
414.6489, 26942.22
415.1310, 26941.78
415.6132, 26941.10
416.0953, 26940.68
416.5774, 26929.01
417.0595, 26883.01
417.5416, 26822.45
418.0237, 26777.29
418.5059, 26776.73
418.9880, 26781.66
419.4701, 26772.11
419.9522, 26748.13
420.4343, 26717.46
420.9164, 26678.81
421.3986, 26638.33
421.8807, 26600.24
422.3628, 26561.43
422.8449, 26531.08
423.3270, 26518.64
423.8091, 26518.12
424.2913, 26508.06
424.7734, 26485.12
425.2555, 26453.64
425.7376, 26410.09
426.2197, 26334.35
426.7018, 26300.33
427.1840, 26338.11
427.6661, 26398.21
428.1482, 26401.91
428.6303, 26310.58
429.1124, 26248.18
429.5945, 26258.16
430.0767, 26335.19
430.5588, 26375.61
431.0409, 26375.07
431.5230, 26348.26
432.0051, 26301.10
432.4872, 26232.98
432.9694, 26170.46
433.4515, 26113.77
433.9336, 26069.24
434.4157, 26059.96
434.8978, 26084.32
435.3799, 26102.72
435.8621, 26086.83
436.3442, 26046.82
436.8263, 26003.80
437.3084, 25957.15
437.7905, 25918.78
438.2726, 25914.11
438.7548, 25926.77
439.2369, 25921.19
439.7190, 25852.25
440.2011, 25777.70
440.6832, 25755.78
441.1653, 25783.35
441.6474, 25805.57
442.1295, 25788.92
442.6117, 25754.95
443.0938, 25722.51
443.5759, 25690.19
444.0580, 25668.24
444.5401, 25658.13
445.0222, 25661.21
445.5044, 25681.75
445.9865, 25753.93
446.4686, 25816.45
446.9507, 25839.52
447.4328, 25800.26
447.9149, 25781.64
448.3971, 25791.80
448.8792, 25818.26
449.3613, 25843.72
449.8434, 25850.97
450.3255, 25891.05
450.8076, 25983.71
451.2898, 26122.88
451.7719, 26242.17
452.2540, 26336.41
452.7361, 26420.60
453.2182, 26506.33
453.7003, 26592.99
454.1825, 26673.77
454.6646, 26743.60
455.1467, 26813.65
455.6288, 26898.30
456.1109, 26998.44
456.5930, 27121.33
457.0752, 27292.84
457.5573, 27485.44
458.0394, 27616.62
458.5215, 27681.23
459.0036, 27758.05
459.4857, 27942.53
459.9679, 28186.51
460.4500, 28396.99
460.9321, 28518.28
461.4142, 28629.18
461.8963, 28802.86
462.3784, 29022.02
462.8606, 29216.90
463.3427, 29325.30
463.8248, 29420.72
464.3069, 29552.91
464.7890, 29744.50
465.2711, 29938.43
465.7533, 30127.08
466.2354, 30308.87
466.7175, 30478.39
467.1996, 30619.11
467.6817, 30763.26
468.1638, 30929.03
468.6460, 31114.76
469.1281, 31256.60
469.6102, 31316.68
470.0923, 31376.53
470.5744, 31504.34
471.0565, 31732.88
471.5387, 31915.42
472.0208, 32030.87
472.5029, 32101.46
472.9850, 32178.75
473.4671, 32264.33
473.9492, 32345.55
474.4314, 32421.95
474.9135, 32491.55
475.3956, 32536.23
475.8777, 32555.23
476.3598, 32568.21
476.8419, 32592.59
477.3241, 32627.78
477.8062, 32672.49
478.2883, 32734.78
478.7704, 32796.00
479.2525, 32828.08
479.7346, 32838.41
480.2168, 32856.38
480.6989, 32904.16
481.1810, 32961.38
481.6631, 33008.60
482.1452, 33037.19
482.6273, 33074.60
483.1095, 33158.64
483.5916, 33247.17
484.0737, 33286.80
484.5558, 33188.50
485.0379, 33120.20
485.5201, 33149.76
486.0022, 33270.66
486.4843, 33326.18
486.9664, 33273.06
487.4485, 33199.88
487.9306, 33151.95
488.4128, 33138.02
488.8949, 33134.89
489.3770, 33151.82
489.8591, 33172.44
490.3412, 33164.39
490.8233, 33123.68
491.3055, 33082.93
491.7876, 33052.60
492.2697, 33031.55
492.7518, 33015.88
493.2339, 33005.61
493.7160, 32994.96
494.1982, 32981.65
494.6803, 32963.50
495.1624, 32932.37
495.6445, 32879.24
496.1266, 32829.28
496.6087, 32818.77
497.0908, 32833.12
497.5729, 32834.64
498.0551, 32782.41
498.5372, 32727.00
499.0193, 32707.55
499.5014, 32727.17
499.9835, 32757.36
500.4656, 32818.88
500.9478, 32868.57
501.4299, 32872.04
501.9120, 32736.85
502.3941, 32654.77
502.8762, 32682.62
503.3583, 32783.23
503.8405, 32849.76
504.3226, 32862.09
504.8047, 32864.93
505.2868, 32872.76
505.7689, 32886.70
506.2510, 32890.26
506.7332, 32880.97
507.2153, 32865.66
507.6974, 32846.83
508.1795, 32824.09
508.6616, 32817.50
509.1437, 32832.64
509.6259, 32864.80
510.1080, 32916.09
510.5901, 32983.51
511.0722, 33030.84
511.5543, 33011.07
512.0364, 32965.75
512.5186, 32968.16
513.0007, 33023.89
513.4828, 33095.32
513.9649, 33178.20
514.4470, 33250.04
514.9291, 33278.38
515.4113, 33194.63
515.8934, 33131.10
516.3755, 33173.22
516.8576, 33288.62
517.3397, 33375.76
517.8218, 33360.09
518.3040, 33350.66
518.7861, 33403.13
519.2682, 33552.48
519.7503, 33652.32
520.2324, 33673.33
520.7145, 33667.64
521.1967, 33686.50
521.6788, 33744.82
522.1609, 33790.40
522.6430, 33814.61
523.1251, 33822.46
523.6072, 33819.03
524.0894, 33798.75
524.5715, 33808.34
525.0536, 33894.96
525.5357, 34038.01
526.0178, 34138.46
526.4999, 34192.08
526.9821, 34222.74
527.4642, 34241.54
527.9463, 34256.47
528.4284, 34284.90
528.9105, 34335.91
529.3926, 34396.52
529.8748, 34457.92
530.3569, 34520.17
530.8390, 34581.76
531.3211, 34635.07
531.8032, 34693.65
532.2853, 34769.09
532.7675, 34866.55
533.2496, 34958.59
533.7317, 35051.95
534.2138, 35132.31
534.6959, 35186.95
535.1780, 35180.18
535.6602, 35202.82
536.1423, 35268.42
536.6244, 35365.65
537.1065, 35468.43
537.5886, 35579.74
538.0707, 35685.15
538.5529, 35773.36
539.0350, 35846.27
539.5171, 35946.48
539.9992, 36077.07
540.4813, 36211.53
540.9634, 36322.86
541.4456, 36416.71
541.9277, 36506.77
542.4098, 36589.05
542.8919, 36682.44
543.3740, 36814.66
543.8561, 36973.91
544.3383, 37130.17
544.8204, 37273.64
545.3025, 37405.74
545.7846, 37524.12
546.2667, 37629.18
546.7488, 37729.71
547.2310, 37827.97
547.7131, 37922.85
548.1952, 38013.52
548.6773, 38078.74
549.1594, 38172.79
549.6415, 38327.22
550.1237, 38499.11
550.6058, 38608.36
551.0879, 38613.36
551.5700, 38651.76
552.0521, 38769.94
552.5342, 38953.79
553.0164, 39109.81
553.4985, 39236.59
553.9806, 39343.70
554.4627, 39421.82
554.9448, 39482.75
555.4269, 39578.93
555.9091, 39718.43
556.3912, 39882.02
556.8733, 40073.62
557.3554, 40271.18
557.8375, 40426.67
558.3196, 40470.50
558.8018, 40513.23
559.2839, 40648.66
559.7660, 40853.64
560.2481, 41038.98
560.7302, 41154.24
561.2123, 41253.26
561.6945, 41362.04
562.1766, 41482.66
562.6587, 41607.42
563.1408, 41699.02
563.6229, 41817.09
564.1050, 42030.52
564.5872, 42416.70
565.0693, 42707.39
565.5514, 42845.08
566.0335, 42889.82
566.5156, 42999.70
566.9977, 43180.38
567.4799, 43362.38
567.9620, 43512.77
568.4441, 43638.65
568.9262, 43750.11
569.4083, 43847.94
569.8904, 43958.74
570.3726, 44122.88
570.8547, 44309.32
571.3368, 44473.36
571.8189, 44594.42
572.3010, 44718.24
572.7831, 44876.45
573.2653, 45055.62
573.7474, 45230.91
574.2295, 45396.96
574.7116, 45558.82
575.1937, 45724.63
575.6758, 45894.25
576.1580, 46041.63
576.6401, 46135.81
577.1222, 46245.66
577.6042, 46407.61
578.0864, 46640.96
578.5685, 46860.81
579.0506, 47073.42
579.5327, 47263.16
580.0148, 47390.70
580.4969, 47458.32
580.9791, 47584.51
581.4612, 47811.41
581.9433, 48084.81
582.4254, 48305.02
582.9075, 48482.05
583.3896, 48656.02
583.8718, 48844.55
584.3539, 49041.21
584.8360, 49250.73
585.3181, 49471.02
585.8002, 49671.91
586.2823, 49803.54
586.7645, 49929.02
587.2466, 50098.71
587.7287, 50359.25
588.2108, 50596.35
588.6929, 50776.40
589.1750, 50934.58
589.6572, 51119.98
590.1393, 51356.93
590.6214, 51572.27
591.1035, 51745.39
591.5856, 51888.21
592.0677, 52050.93
592.5499, 52234.38
593.0320, 52434.31
593.5141, 52653.08
593.9962, 52888.04
594.4783, 53127.21
594.9604, 53373.24
595.4426, 53610.69
595.9247, 53821.31
596.4068, 54018.50
596.8889, 54222.61
597.3710, 54441.73
597.8531, 54665.43
598.3353, 54901.76
598.8174, 55140.20
599.2995, 55362.02
599.7816, 55522.50
600.2637, 55701.82
600.7458, 55936.60
601.2280, 56223.65
601.7101, 56483.72
602.1922, 56699.07
602.6743, 56912.73
603.1564, 57148.79
603.6385, 57416.18
604.1207, 57647.46
604.6028, 57828.68
605.0849, 58019.24
605.5670, 58311.78
606.0491, 58683.52
606.5313, 59008.49
607.0134, 59250.22
607.4955, 59451.89
607.9776, 59654.46
608.4597, 59860.71
608.9418, 60084.75
609.4240, 60357.71
609.9061, 60627.70
610.3882, 60854.29
610.8703, 61041.65
611.3524, 61236.14
611.8345, 61448.73
612.3167, 61677.69
612.7988, 61929.02
613.2809, 62232.98
613.7630, 62485.34
614.2451, 62662.57
614.7272, 62819.09
615.2094, 63014.67
615.6915, 63253.73
616.1736, 63500.01
616.6557, 63749.58
617.1378, 63996.83
617.6199, 64222.70
618.1021, 64431.23
618.5842, 64651.86
619.0663, 64917.11
619.5484, 65189.88
620.0305, 65424.26
620.5126, 65621.02
620.9948, 65809.06
621.4769, 65975.38
621.9590, 66155.72
622.4411, 66389.30
622.9232, 66718.81
623.4053, 66984.02
623.8875, 67089.71
624.3696, 67152.30
624.8517, 67289.43
625.3338, 67558.00
625.8159, 67779.34
626.2980, 67928.51
626.7802, 68027.17
627.2623, 68113.16
627.7444, 68184.45
628.2265, 68278.91
628.7086, 68430.38
629.1907, 68608.93
629.6729, 68725.04
630.1550, 68786.09
630.6371, 68852.67
631.1192, 68987.89
631.6013, 69139.09
632.0834, 69244.89
632.5656, 69293.24
633.0477, 69341.34
633.5298, 69396.41
634.0119, 69473.74
634.4940, 69586.04
634.9761, 69814.01
635.4583, 69972.14
635.9404, 70023.73
636.4225, 70013.52
636.9046, 70010.47
637.3867, 69999.10
637.8688, 70048.09
638.3510, 70205.27
638.8331, 70421.39
639.3152, 70514.41
639.7973, 70486.07
640.2794, 70439.44
640.7615, 70436.01
641.2437, 70458.97
641.7258, 70491.38
642.2079, 70532.94
642.6900, 70551.34
643.1721, 70477.80
643.6542, 70398.07
644.1364, 70402.34
644.6185, 70573.53
645.1006, 70689.77
645.5827, 70649.91
646.0648, 70544.20
646.5469, 70494.06
647.0291, 70539.82
647.5112, 70555.63
647.9933, 70504.55
648.4754, 70416.85
648.9575, 70403.38
649.4396, 70472.34
649.9218, 70498.51
650.4039, 70409.84
650.8860, 70243.95
651.3681, 70097.55
651.8502, 69969.49
652.3323, 69837.88
652.8145, 69691.05
653.2966, 69534.09
653.7787, 69364.92
654.2608, 69181.18
654.7429, 69013.95
655.2250, 68896.46
655.7072, 68790.42
656.1893, 68663.17
656.6714, 68522.53
657.1535, 68343.31
657.6356, 68119.26
658.1177, 67858.23
658.5999, 67563.41
659.0820, 67218.11
659.5641, 66929.30
660.0462, 66754.48
660.5283, 66628.33
661.0104, 66374.76
661.4926, 66007.88
661.9747, 65627.66
662.4568, 65250.30
662.9389, 64915.35
663.4210, 64713.97
663.9031, 64638.91
664.3853, 64519.13
664.8674, 64242.47
665.3495, 63908.12
665.8316, 63572.82
666.3137, 63227.82
666.7958, 62922.06
667.2780, 62681.18
667.7601, 62452.12
668.2422, 62191.49
668.7243, 61894.21
669.2064, 61561.61
669.6885, 61178.98
670.1707, 60781.48
670.6528, 60436.56
671.1349, 60135.09
671.6170, 59802.15
672.0991, 59410.88
672.5812, 58986.05
673.0634, 58540.91
673.5455, 58085.09
674.0276, 57642.71
674.5097, 57244.42
674.9918, 56857.45
675.4739, 56447.81
675.9561, 56021.77
676.4382, 55657.46
676.9203, 55431.97
677.4024, 55206.50
677.8845, 54911.76
678.3666, 54529.31
678.8488, 54144.54
679.3309, 53746.02
679.8130, 53354.46
680.2951, 52988.89
680.7772, 52643.93
681.2593, 52268.16
681.7415, 51844.05
682.2236, 51413.04
682.7057, 51013.63
683.1878, 50638.71
683.6699, 50265.75
684.1520, 49886.42
684.6342, 49505.91
685.1163, 49130.48
685.5984, 48756.70
686.0805, 48362.62
686.5626, 47902.73
687.0447, 47478.66
687.5268, 47136.55
688.0089, 46859.92
688.4910, 46497.46
688.9731, 46018.59
689.4553, 45554.46
689.9374, 45199.34
690.4195, 44923.46
690.9016, 44584.39
691.3837, 44181.96
691.8658, 43780.70
692.3480, 43440.94
692.8301, 43125.68
693.3122, 42785.80
693.7943, 42409.21
694.2764, 42025.65
694.7585, 41635.76
695.2407, 41249.15
695.7228, 40869.92
696.2049, 40524.54
696.6870, 40147.17
697.1691, 39706.97
697.6512, 39256.78
698.1334, 38902.62
698.6155, 38663.61
699.0976, 38378.63
699.5797, 37983.36
700.0618, 37540.48
700.5439, 37172.62
701.0261, 36871.00
701.5082, 36592.62
701.9903, 36334.41
702.4724, 36076.66
702.9545, 35801.66
703.4366, 35511.18
703.9188, 35227.02
704.4009, 34990.16
704.8830, 34732.23
705.3651, 34400.86
705.8472, 33978.20
706.3293, 33619.04
706.8115, 33353.38
707.2936, 33112.76
707.7757, 32849.44
708.2578, 32563.35
708.7399, 32305.86
709.2220, 32086.03
709.7042, 31870.94
710.1863, 31621.84
710.6684, 31354.05
711.1505, 31105.18
711.6326, 30885.58
712.1147, 30674.59
712.5969, 30466.04
713.0790, 30257.06
713.5611, 30044.00
714.0432, 29812.39
714.5253, 29595.82
715.0074, 29400.62
715.4896, 29220.80
715.9717, 29040.41
716.4538, 28862.91
716.9359, 28677.84
717.4180, 28481.79
717.9001, 28276.02
718.3823, 28053.73
718.8644, 27819.10
719.3465, 27597.97
719.8286, 27414.50
720.3107, 27249.52
720.7928, 27092.33
721.2750, 26940.85
721.7571, 26774.00
722.2392, 26555.97
722.7213, 26344.87
723.2034, 26181.51
723.6855, 26080.33
724.1677, 25962.38
724.6498, 25822.85
725.1319, 25674.67
725.6140, 25522.21
726.0961, 25366.97
726.5782, 25218.38
727.0604, 25076.21
727.5425, 24938.04
728.0246, 24807.62
728.5067, 24678.61
728.9888, 24529.76
729.4709, 24348.28
729.9531, 24179.50
730.4352, 24061.49
730.9173, 23971.80
731.3994, 23880.06
731.8815, 23786.11
732.3636, 23681.15
732.8458, 23557.46
733.3279, 23424.43
733.8100, 23303.98
734.2921, 23199.46
734.7742, 23087.40
735.2563, 22957.47
735.7385, 22820.56
736.2206, 22706.22
736.7027, 22611.72
737.1848, 22523.38
737.6669, 22438.12
738.1490, 22352.15
738.6312, 22264.39
739.1133, 22174.42
739.5954, 22080.33
740.0775, 21974.44
740.5596, 21871.39
741.0417, 21776.31
741.5239, 21689.63
742.0060, 21611.75
742.4881, 21543.09
742.9702, 21479.90
743.4523, 21425.00
743.9344, 21375.71
744.4166, 21302.11
744.8987, 21201.06
745.3808, 21108.33
745.8629, 21066.92
746.3450, 21046.88
746.8271, 21008.90
747.3093, 20946.32
747.7914, 20872.33
748.2735, 20789.95
748.7556, 20701.50
749.2377, 20608.18
749.7198, 20495.07
750.2020, 20409.28
750.6841, 20369.43
751.1662, 20337.79
751.6483, 20252.81
752.1304, 20112.54
752.6125, 20039.98
753.0947, 20072.53
753.5768, 20129.95
754.0589, 20101.82
754.5410, 20016.15
755.0231, 19935.55
755.5052, 19881.47
755.9874, 19835.13
756.4695, 19793.21
756.9516, 19750.55
757.4337, 19696.32
757.9158, 19606.55
758.3979, 19537.20
758.8801, 19509.86
759.3622, 19506.00
759.8443, 19463.23
760.3264, 19377.26
760.8085, 19302.28
761.2906, 19259.30
761.7728, 19241.31
762.2549, 19242.10
762.7370, 19257.67
763.2191, 19268.91
763.7012, 19263.73
764.1833, 19251.43
764.6655, 19233.95
765.1476, 19212.13
765.6297, 19196.45
766.1118, 19195.82
766.5939, 19191.29
767.0760, 19169.42
767.5582, 19130.47
768.0403, 19126.84
768.5224, 19163.04
769.0045, 19204.77
769.4866, 19227.32
769.9688, 19237.37
770.4509, 19255.44
770.9330, 19282.00
771.4151, 19300.50
771.8972, 19293.59
772.3793, 19278.13
772.8615, 19266.82
773.3436, 19261.61
773.8257, 19261.89
774.3078, 19272.81
774.7899, 19285.43
775.2720, 19295.90
775.7542, 19306.23
776.2363, 19300.82
776.7184, 19273.66
777.2005, 19253.54
777.6826, 19278.45
778.1647, 19333.57
778.6469, 19382.36
779.1290, 19419.57
779.6111, 19445.18
780.0932, 19445.32
780.5753, 19440.28
781.0574, 19452.80
781.5396, 19502.58
782.0217, 19544.68
782.5038, 19572.38
782.9859, 19593.05
783.4680, 19614.10
783.9501, 19635.06
784.4323, 19661.87
784.9144, 19696.49
785.3965, 19734.84
785.8786, 19772.30
786.3607, 19808.72
786.8428, 19845.19
787.3250, 19887.17
787.8071, 19919.51
788.2892, 19923.04
788.7713, 19912.62
789.2534, 19912.62
789.7355, 19927.75
790.2177, 19954.34
790.6998, 19995.45
791.1819, 20044.65
791.6640, 20088.45
792.1461, 20124.44
792.6282, 20176.72
793.1104, 20263.29
793.5925, 20352.60
794.0746, 20386.73
794.5567, 20379.74
795.0388, 20373.97
795.5209, 20382.57
796.0031, 20404.40
796.4852, 20450.44
796.9672, 20510.58
797.4493, 20554.51
797.9315, 20574.13
798.4136, 20583.98
798.8957, 20579.82
799.3778, 20570.94
799.8599, 20601.57
800.3420, 20672.48
800.8242, 20714.69
801.3063, 20669.95
801.7884, 20599.20
802.2705, 20603.63
802.7526, 20665.54
803.2347, 20726.20
803.7169, 20747.83
804.1990, 20770.06
804.6811, 20820.23
805.1632, 20893.13
805.6453, 20939.00
806.1274, 20952.53
806.6096, 20947.88
807.0917, 20920.90
807.5738, 20881.06
808.0559, 20877.15
808.5380, 20907.61
809.0201, 20942.54
809.5023, 20961.68
809.9844, 20977.31
810.4665, 21009.71
810.9486, 21054.52
811.4307, 21083.95
811.9128, 21076.92
812.3950, 21061.30
812.8771, 21039.77
813.3592, 21014.54
813.8413, 21034.85
814.3234, 21121.84
814.8055, 21185.06
815.2877, 21159.03
815.7698, 21072.99
816.2519, 21041.96
816.7340, 21061.05
817.2161, 21084.17
817.6982, 21077.59
818.1804, 21064.79
818.6625, 21068.55
819.1446, 21089.39
819.6267, 21099.68
820.1088, 21087.38
820.5909, 21069.53
821.0731, 21050.43
821.5552, 21030.51
822.0373, 21013.33
822.5194, 20998.02
823.0015, 20991.03
823.4836, 21003.79
823.9658, 21024.96
824.4479, 21028.89
824.9300, 21016.28
825.4121, 21006.76
825.8942, 21029.43
826.3763, 21042.83
826.8585, 21013.86
827.3406, 20935.03
827.8227, 20876.70
828.3048, 20844.48
828.7869, 20825.19
829.2690, 20822.48
829.7512, 20831.28
830.2333, 20793.92
830.7154, 20711.07
831.1975, 20639.01
831.6796, 20650.78
832.1617, 20675.03
832.6439, 20614.37
833.1260, 20468.60
833.6081, 20354.99
834.0902, 20341.19
834.5723, 20345.11
835.0544, 20331.18
835.5366, 20299.12
836.0187, 20252.96
836.5008, 20186.57
836.9829, 20127.66
837.4650, 20100.21
837.9471, 20091.91
838.4293, 20070.88
838.9114, 20036.94
839.3935, 19993.53
839.8756, 19943.93
840.3577, 19884.88
840.8398, 19801.55
841.3220, 19692.02
841.8041, 19626.19
842.2862, 19641.04
842.7683, 19648.25
843.2504, 19599.42
843.7325, 19502.55
844.2147, 19451.42
844.6968, 19446.50
845.1789, 19431.18
845.6610, 19357.47
846.1431, 19257.93
846.6252, 19165.73
847.1074, 19082.99
847.5895, 19013.42
848.0716, 18970.95
848.5537, 18931.53
849.0358, 18888.30
849.5179, 18841.14
850.0001, 18776.03
850.4822, 18688.54
850.9643, 18603.22
851.4464, 18529.24
851.9285, 18468.04
852.4106, 18433.64
852.8928, 18420.77
853.3749, 18401.32
853.8570, 18354.27
854.3391, 18299.49
854.8212, 18251.31
855.3033, 18208.19
855.7855, 18152.20
856.2676, 18059.83
856.7497, 17994.49
857.2318, 17985.23
857.7139, 18017.91
858.1960, 18038.93
858.6782, 18047.41
859.1603, 18034.07
859.6424, 17975.36
860.1245, 17905.52
860.6066, 17865.41
861.0887, 17846.02
861.5709, 17817.59
862.0530, 17760.38
862.5351, 17703.75
863.0172, 17656.95
863.4993, 17617.02
863.9814, 17570.11
864.4636, 17516.07
864.9457, 17459.79
865.4278, 17401.11
865.9099, 17344.62
866.3920, 17300.21
866.8741, 17266.33
867.3563, 17236.30
867.8384, 17213.53
868.3205, 17188.30
868.8026, 17155.43
869.2847, 17117.73
869.7668, 17082.90
870.2490, 17056.84
870.7311, 17016.46
871.2132, 16947.75
871.6953, 16876.89
872.1774, 16873.56
872.6595, 16919.13
873.1417, 16935.43
873.6238, 16883.48
874.1059, 16815.67
874.5880, 16764.64
875.0701, 16725.99
875.5522, 16693.68
876.0344, 16661.60
876.5165, 16644.08
876.9986, 16651.36
877.4807, 16663.57
877.9628, 16645.08
878.4449, 16598.82
878.9271, 16574.49
879.4092, 16588.00
879.8913, 16600.98
880.3734, 16569.50
880.8555, 16513.71
881.3376, 16459.10
881.8198, 16404.00
882.3019, 16367.25
882.7840, 16363.78
883.2661, 16370.24
883.7482, 16369.12
884.2303, 16360.81
884.7125, 16339.20
885.1946, 16302.23
885.6767, 16260.73
886.1588, 16214.65
886.6409, 16176.42
887.1230, 16176.84
887.6052, 16228.20
888.0873, 16254.87
888.5694, 16198.41
889.0515, 16124.48
889.5336, 16078.81
890.0157, 16066.71
890.4979, 16053.40
890.9800, 16037.42
891.4621, 16024.89
891.9442, 16024.92
892.4263, 16030.44
892.9084, 16020.88
893.3906, 15996.26
893.8727, 15974.51
894.3548, 15965.65
894.8369, 15962.81
895.3190, 15964.87
895.8011, 15971.60
896.2833, 15970.54
896.7654, 15962.61
897.2475, 15945.30
897.7296, 15914.84
898.2117, 15876.11
898.6938, 15851.65
899.1760, 15837.80
899.6581, 15811.34
900.1402, 15740.38
900.6223, 15669.56
901.1044, 15634.81
901.5865, 15627.30
902.0687, 15613.40
902.5508, 15586.17
903.0329, 15557.19
903.5150, 15526.02
903.9971, 15496.41
904.4792, 15479.32
904.9614, 15473.54
905.4435, 15471.81
905.9256, 15472.66
906.4077, 15474.50
906.8898, 15477.55
907.3719, 15480.23
907.8540, 15480.07
908.3361, 15492.30
908.8182, 15477.04
909.3004, 15419.12
909.7825, 15347.13
910.2646, 15295.08
910.7467, 15263.01
911.2288, 15255.58
911.7109, 15278.70
912.1931, 15299.73
912.6752, 15283.90
913.1573, 15248.74
913.6394, 15211.95
914.1215, 15170.35
914.6036, 15149.22
915.0858, 15167.23
915.5679, 15190.27
916.0500, 15196.45
916.5321, 15185.60
917.0142, 15170.99
917.4963, 15153.23
917.9785, 15127.32
918.4606, 15071.63
918.9427, 15016.34
919.4248, 15002.79
919.9069, 15032.12
920.3890, 15058.16
920.8712, 15070.86
921.3533, 15072.26
921.8354, 15060.19
922.3175, 15036.22
922.7996, 15009.78
923.2817, 14979.80
923.7639, 14963.05
924.2460, 14982.87
924.7281, 15007.37
925.2102, 14989.50
925.6923, 14942.22
926.1744, 14902.06
926.6566, 14902.56
927.1387, 14886.82
927.6208, 14829.77
928.1029, 14756.19
928.5850, 14718.93
929.0671, 14721.19
929.5493, 14712.12
930.0314, 14680.41
930.5135, 14633.18
930.9956, 14565.43
931.4777, 14493.50
931.9598, 14447.27
932.4420, 14452.04
932.9241, 14445.48
933.4062, 14411.91
933.8883, 14361.81
934.3704, 14297.39
934.8525, 14215.73
935.3347, 14153.95
935.8168, 14115.95
936.2989, 14077.30
936.7810, 14002.54
937.2631, 13920.74
937.7452, 13876.43
938.2274, 13874.85
938.7095, 13869.80
939.1916, 13860.18
939.6737, 13828.43
940.1558, 13760.40
940.6379, 13660.70
941.1201, 13578.79
941.6022, 13515.54
942.0843, 13459.29
942.5664, 13409.04
943.0485, 13358.88
943.5306, 13299.94
944.0128, 13235.64
944.4949, 13176.09
944.9770, 13123.84
945.4591, 13079.00
945.9412, 13047.49
946.4233, 13019.89
946.9055, 12974.32
947.3876, 12910.78
947.8697, 12850.69
948.3518, 12800.23
948.8339, 12751.29
949.3160, 12693.45
949.7982, 12632.59
950.2803, 12577.49
950.7624, 12539.24
951.2445, 12484.85
951.7266, 12393.62
952.2087, 12303.47
952.6909, 12249.61
953.1730, 12231.83
953.6551, 12200.64
954.1372, 12154.48
954.6193, 12103.44
955.1014, 12057.10
955.5836, 12009.77
956.0657, 11953.59
956.5478, 11888.57
957.0299, 11830.28
957.5120, 11781.36
957.9941, 11740.47
958.4763, 11709.47
958.9584, 11685.82
959.4405, 11666.19
959.9226, 11648.30
960.4047, 11612.36
960.8868, 11537.42
961.3690, 11455.08
961.8511, 11381.37
962.3332, 11319.87
962.8153, 11276.88
963.2974, 11261.53
963.7795, 11252.99
964.2617, 11256.47
964.7438, 11255.43
965.2259, 11222.35
965.7080, 11164.09
966.1901, 11108.46
966.6722, 11060.08
967.1544, 11017.85
967.6365, 10982.75
968.1186, 10952.84
968.6007, 10926.23
969.0828, 10900.84
969.5649, 10891.59
970.0471, 10907.48
970.5292, 10915.02
971.0113, 10889.17
971.4934, 10840.75
971.9755, 10797.49
972.4576, 10760.38
972.9398, 10731.67
973.4219, 10700.49
973.9040, 10690.15
974.3861, 10730.69
974.8682, 10799.75
975.3503, 10836.48
975.8325, 10841.48
976.3146, 10797.94
976.7967, 10676.65
977.2788, 10568.36
977.7609, 10665.39
978.2430, 10859.42
978.7252, 10927.25
979.2073, 10762.49
979.6894, 10602.29
980.1715, 10532.00
980.6536, 10500.60
981.1357, 10476.33
981.6179, 10461.22
982.1000, 10437.43
982.5821, 10404.27
983.0642, 10369.68
983.5463, 10335.77
984.0284, 10307.10
984.5106, 10293.18
984.9927, 10292.04
985.4748, 10286.41
985.9569, 10266.17
986.4390, 10246.95
986.9211, 10232.10
987.4033, 10221.13
987.8854, 10216.67
988.3675, 10216.83
988.8496, 10202.08
989.3317, 10157.75
989.8138, 10114.01
990.2960, 10096.21
990.7781, 10095.80
991.2602, 10102.33
991.7423, 10126.77
992.2244, 10130.96
992.7065, 10105.39
993.1887, 10079.06
993.6708, 10086.41
994.1529, 10115.29
994.6350, 10120.24
995.1171, 10099.81
995.5992, 10076.77
996.0814, 10056.84
996.5635, 10046.23
997.0456, 10031.07
997.5277, 10022.22
998.0098, 10119.53
998.4919, 10364.92
998.9741, 10520.81
999.4562, 10485.89
999.9383, 10352.01
1000.420, 10239.99
1000.903, 10149.37
1001.385, 10076.10
1001.867, 10010.38
1002.349, 9977.642
1002.831, 10004.48
1003.313, 10049.41
1003.795, 10078.98
1004.277, 10093.58
1004.759, 10083.40
1005.242, 10046.02
1005.724, 10013.31
1006.206, 10024.12
1006.688, 10043.14
1007.170, 10029.86
1007.652, 9983.445
1008.134, 9957.170
1008.616, 9973.556
1009.099, 9978.653
1009.581, 9951.594
1010.063, 9905.531
1010.545, 9870.030
1011.027, 9844.729
1011.509, 9830.400
1011.991, 9831.687
1012.473, 9835.723
1012.955, 9838.485
1013.438, 9838.009
1013.920, 9832.758
1014.402, 9824.324
1014.884, 9803.525
1015.366, 9766.732
1015.848, 9732.599
1016.330, 9725.064
1016.812, 9728.387
1017.294, 9708.869
1017.777, 9668.238
1018.259, 9649.352
1018.741, 9699.793
1019.223, 9737.582
1019.705, 9729.785
1020.187, 9691.901
1020.669, 9673.792
1021.151, 9674.754
1021.633, 9683.275
1022.116, 9698.826
1022.598, 9712.973
1023.080, 9712.537
1023.562, 9708.118
1024.044, 9714.531
1024.526, 9746.186
1025.008, 9761.290
1025.490, 9756.327
1025.973, 9743.684
1026.455, 9731.111
1026.937, 9719.284
1027.419, 9711.147
1027.901, 9706.330
1028.383, 9700.729
1028.865, 9691.276
1029.347, 9681.854
1029.829, 9671.444
1030.312, 9663.359
1030.794, 9671.330
1031.276, 9698.195
1031.758, 9704.593
1032.240, 9675.385
1032.722, 9639.161
1033.204, 9623.284
1033.686, 9622.982
1034.169, 9635.447
1034.651, 9671.789
1035.133, 9681.157
1035.615, 9642.998
1036.097, 9606.705
1036.579, 9608.534
1037.061, 9638.563
1037.543, 9646.551
1038.026, 9635.551
1038.508, 9625.577
1038.990, 9636.447
1039.472, 9642.224
1039.954, 9622.682
1040.436, 9590.606
1040.918, 9574.080
1041.400, 9576.348
1041.882, 9579.382
1042.365, 9580.721
1042.847, 9582.604
1043.329, 9592.398
1043.811, 9602.192
1044.293, 9601.920
1044.775, 9590.152
1045.257, 9567.068
1045.739, 9523.457
1046.221, 9481.720
1046.704, 9446.278
1047.186, 9422.375
1047.668, 9440.931
1048.150, 9493.831
1048.632, 9537.560
1049.114, 9552.509
1049.596, 9551.653
1050.078, 9526.831
1050.561, 9497.320
1051.043, 9493.967
1051.525, 9526.993
1052.007, 9543.242
1052.489, 9537.709
1052.971, 9526.204
1053.453, 9518.279
1053.935, 9516.395
1054.417, 9529.237
1054.900, 9555.148
1055.382, 9569.733
1055.864, 9563.008
1056.346, 9546.771
1056.828, 9517.249
1057.310, 9485.982
1057.792, 9489.039
1058.274, 9517.448
1058.756, 9531.592
1059.239, 9517.033
1059.721, 9495.306
1060.203, 9474.281
1060.685, 9456.145
1061.167, 9444.397
1061.649, 9441.443
1062.131, 9424.309
1062.613, 9390.238
1063.096, 9366.983
1063.578, 9380.874
1064.060, 9410.806
1064.542, 9437.589
1065.024, 9458.184
1065.506, 9463.376
1065.988, 9432.238
1066.470, 9413.837
1066.953, 9418.193
1067.435, 9429.822
1067.917, 9425.697
1068.399, 9409.972
1068.881, 9394.468
1069.363, 9380.323
1069.845, 9374.291
1070.327, 9391.272
1070.809, 9406.550
1071.292, 9402.104
1071.774, 9381.853
1072.256, 9374.662
1072.738, 9380.538
1073.220, 9400.220
1073.702, 9444.577
1074.184, 9484.189
1074.666, 9484.342
1075.148, 9460.902
1075.630, 9435.756
1076.113, 9404.426
1076.595, 9392.198
1077.077, 9406.267
1077.559, 9420.688
1078.041, 9411.466
1078.523, 9388.216
1079.005, 9374.160
1079.487, 9367.494
1079.970, 9354.012
1080.452, 9306.521
1080.934, 9278.342
1081.416, 9289.687
1081.898, 9322.046
1082.380, 9344.662
1082.862, 9357.507
1083.344, 9360.642
1083.827, 9352.710
1084.309, 9343.896
1084.791, 9337.809
1085.273, 9337.405
1085.755, 9349.164
1086.237, 9372.771
1086.719, 9384.551
1087.201, 9383.322
1087.683, 9376.973
1088.166, 9364.834
1088.648, 9355.564
1089.130, 9368.007
1089.612, 9390.775
1090.094, 9403.127
1090.576, 9389.392
1091.058, 9383.885
1091.540, 9390.671
1092.022, 9401.910
1092.505, 9416.571
1092.987, 9430.020
1093.469, 9419.577
1093.951, 9388.820
1094.433, 9364.291
1094.915, 9362.689
1095.397, 9366.937
1095.879, 9371.783
1096.362, 9377.443
1096.844, 9385.171
1097.326, 9394.868
1097.808, 9403.054
1098.290, 9409.029
1098.772, 9415.909
1099.254, 9435.979
1099.736, 9451.072
1100.219, 9443.514
1100.701, 9412.045
1101.183, 9377.442
1101.665, 9335.713
1102.147, 9308.597
1102.629, 9307.905
1103.111, 9319.585
1103.593, 9325.308
1104.075, 9328.372
1104.557, 9334.877
1105.040, 9349.476
1105.522, 9358.885
1106.004, 9356.896
1106.486, 9359.056
1106.968, 9384.378
1107.450, 9421.871
1107.932, 9430.141
1108.414, 9413.661
1108.897, 9392.313
1109.379, 9370.034
1109.861, 9352.033
1110.343, 9337.871
1110.825, 9330.658
1111.307, 9337.880
1111.789, 9358.684
1112.271, 9376.186
1112.754, 9388.863
1113.236, 9391.189
1113.718, 9367.885
1114.200, 9342.438
1114.682, 9334.063
1115.164, 9339.303
1115.646, 9335.695
1116.128, 9320.647
1116.610, 9314.898
1117.093, 9327.932
1117.575, 9339.196
1118.057, 9314.635
1118.539, 9278.854
1119.021, 9265.957
1119.503, 9290.278
1119.985, 9293.864
1120.467, 9263.830
1120.949, 9242.784
1121.432, 9260.617
1121.914, 9293.353
1122.396, 9277.455
1122.878, 9235.547
1123.360, 9223.115
1123.842, 9294.507
1124.324, 9342.131
1124.806, 9345.331
1125.289, 9328.516
1125.771, 9299.768
1126.253, 9266.568
1126.735, 9281.395
1127.217, 9338.528
1127.699, 9385.386
1128.181, 9382.691
1128.663, 9372.702
1129.146, 9373.523
1129.628, 9378.103
1130.110, 9373.596
1130.592, 9360.155
1131.074, 9352.315
1131.556, 9352.425
1132.038, 9352.950
1132.520, 9351.733
1133.002, 9345.742
1133.484, 9326.362
1133.967, 9297.963
1134.449, 9293.533
1134.931, 9317.393
1135.413, 9336.694
1135.895, 9342.132
1136.377, 9339.819
1136.859, 9336.585
1137.341, 9329.838
1137.824, 9313.701
1138.306, 9281.720
1138.788, 9265.492
1139.270, 9267.565
1139.752, 9277.186
1140.234, 9292.332
1140.716, 9307.732
1141.198, 9312.524
1141.681, 9310.041
1142.163, 9307.166
1142.645, 9301.703
1143.127, 9306.135
1143.609, 9332.276
1144.091, 9349.254
1144.573, 9322.186
1145.055, 9267.748
1145.537, 9237.676
1146.020, 9230.776
1146.502, 9236.861
1146.984, 9266.833
1147.466, 9288.798
1147.948, 9291.901
1148.430, 9286.452
1148.912, 9286.110
1149.394, 9289.273
1149.876, 9283.793
1150.359, 9268.748
1150.841, 9260.459
1151.323, 9270.694
1151.805, 9288.666
1152.287, 9314.064
1152.769, 9340.571
1153.251, 9351.405
1153.733, 9346.948
1154.216, 9341.081
1154.698, 9335.916
1155.180, 9334.700
1155.662, 9351.762
1156.144, 9364.993
1156.626, 9350.123
1157.108, 9311.155
1157.590, 9281.296
1158.073, 9259.899
1158.555, 9260.968
1159.037, 9299.031
1159.519, 9339.832
1160.001, 9344.438
1160.483, 9332.858
1160.965, 9332.135
1161.447, 9350.538
1161.929, 9344.306
1162.411, 9308.921
1162.894, 9275.292
1163.376, 9261.940
1163.858, 9259.274
1164.340, 9260.327
1164.822, 9261.577
1165.304, 9255.614
1165.786, 9233.675
1166.268, 9219.801
1166.751, 9214.948
1167.233, 9216.634
1167.715, 9226.435
1168.197, 9239.300
1168.679, 9247.374
1169.161, 9250.562
1169.643, 9249.830
1170.125, 9235.729
1170.608, 9233.899
1171.090, 9252.399
1171.572, 9270.945
1172.054, 9253.494
1172.536, 9221.576
1173.018, 9229.291
1173.500, 9275.815
1173.982, 9306.258
1174.464, 9286.031
1174.947, 9266.122
1175.429, 9258.794
1175.911, 9255.863
1176.393, 9235.659
1176.875, 9209.141
1177.357, 9210.152
1177.839, 9245.558
1178.321, 9281.837
1178.803, 9317.553
1179.286, 9334.419
1179.768, 9318.308
1180.250, 9284.539
1180.732, 9272.191
1181.214, 9278.015
1181.696, 9293.598
1182.178, 9322.510
1182.660, 9337.058
1183.142, 9303.601
1183.625, 9273.585
1184.107, 9282.055
1184.589, 9316.265
1185.071, 9302.776
1185.553, 9251.966
1186.035, 9218.842
1186.517, 9231.325
1186.999, 9252.210
1187.482, 9273.000
1187.964, 9286.911
1188.446, 9286.982
1188.928, 9274.142
1189.410, 9265.454
1189.892, 9260.297
1190.374, 9252.495
1190.856, 9229.181
1191.339, 9213.459
1191.821, 9228.093
1192.303, 9248.705
1192.785, 9244.921
1193.267, 9215.575
1193.749, 9205.906
1194.231, 9215.919
1194.713, 9224.377
1195.195, 9211.580
1195.677, 9199.419
1196.160, 9208.373
1196.642, 9222.617
1197.124, 9212.694
1197.606, 9177.058
1198.088, 9157.263
1198.570, 9156.418
1199.052, 9165.830
1199.534, 9197.198
1200.017, 9219.080
1200.499, 9195.875
1200.981, 9150.375
1201.463, 9140.122
1201.945, 9166.611
1202.427, 9197.802
1202.909, 9231.352
1203.391, 9247.250
1203.874, 9210.927
1204.356, 9165.871
1204.838, 9144.520
1205.320, 9143.206
1205.802, 9144.016
1206.284, 9146.893
1206.766, 9153.478
1207.248, 9165.407
1207.730, 9174.201
1208.213, 9168.431
1208.695, 9159.465
1209.177, 9157.440
1209.659, 9161.517
1210.141, 9166.549
1210.623, 9172.858
1211.105, 9165.525
1211.587, 9133.658
1212.069, 9108.064
1212.552, 9132.708
1213.034, 9166.324
1213.516, 9163.974
1213.998, 9127.526
1214.480, 9111.184
1214.962, 9115.465
1215.444, 9117.476
1215.926, 9105.497
1216.409, 9095.104
1216.891, 9106.447
1217.373, 9122.395
1217.855, 9123.584
1218.337, 9108.923
1218.819, 9095.627
1219.301, 9083.627
1219.783, 9079.001
1220.266, 9088.660
1220.748, 9100.306
1221.230, 9108.512
1221.712, 9109.771
1222.194, 9097.519
1222.676, 9068.488
1223.158, 9055.669
1223.640, 9058.967
1224.122, 9067.275
1224.604, 9074.245
1225.087, 9083.518
1225.569, 9100.215
1226.051, 9119.546
1226.533, 9135.938
1227.015, 9150.010
1227.497, 9155.896
1227.979, 9153.536
1228.461, 9139.502
1228.944, 9096.015
1229.426, 9056.635
1229.908, 9041.002
1230.390, 9045.602
1230.872, 9069.047
1231.354, 9114.263
1231.836, 9125.255
1232.318, 9100.209
1232.801, 9077.711
1233.283, 9090.723
1233.765, 9106.919
1234.247, 9104.402
1234.729, 9093.051
1235.211, 9087.947
1235.693, 9088.876
1236.175, 9093.814
1236.657, 9102.324
1237.140, 9107.724
1237.622, 9104.885
1238.104, 9098.243
1238.586, 9086.718
1239.068, 9075.127
1239.550, 9074.027
1240.032, 9082.257
1240.514, 9080.993
1240.996, 9068.558
1241.479, 9055.517
1241.961, 9042.017
1242.443, 9037.916
1242.925, 9053.042
1243.407, 9075.927
1243.889, 9080.769
1244.371, 9071.908
1244.853, 9082.826
1245.336, 9117.604
1245.818, 9140.600
1246.300, 9120.213
1246.782, 9095.378
1247.264, 9076.435
1247.746, 9068.136
1248.228, 9093.594
1248.710, 9139.230
1249.193, 9145.930
1249.675, 9103.833
1250.157, 9064.526
1250.639, 9057.390
1251.121, 9050.434
1251.603, 9029.851
1252.085, 9007.733
1252.567, 9010.438
1253.049, 9031.786
1253.531, 9062.980
1254.014, 9104.673
1254.496, 9120.005
1254.978, 9074.316
1255.460, 9032.435
1255.942, 9012.664
1256.424, 9008.424
1256.906, 9012.212
1257.388, 9021.263
1257.871, 9030.866
1258.353, 9040.383
1258.835, 9049.021
1259.317, 9066.567
1259.799, 9059.450
1260.281, 9004.208
1260.763, 8942.160
1261.245, 8953.239
1261.728, 9000.957
1262.210, 9028.130
1262.692, 9022.529
1263.174, 9015.071
1263.656, 9008.499
1264.138, 8998.397
1264.620, 8980.390
1265.102, 8964.465
1265.584, 8964.507
1266.067, 8975.108
1266.549, 8992.068
1267.031, 9016.185
1267.513, 9023.577
1267.995, 9010.110
1268.477, 9002.383
1268.959, 9009.043
1269.441, 9027.503
1269.923, 9069.829
1270.406, 9112.648
1270.888, 9127.101
1271.370, 9112.699
1271.852, 9093.586
1272.334, 9069.319
1272.816, 9051.642
1273.298, 9045.312
1273.780, 9046.234
1274.263, 9058.089
1274.745, 9070.698
1275.227, 9076.082
1275.709, 9074.534
1276.191, 9065.747
1276.673, 9049.979
1277.155, 9026.176
1277.637, 8986.012
1278.120, 8958.013
1278.602, 8966.305
1279.084, 8985.037
1279.566, 8997.682
1280.048, 9005.507
1280.530, 9017.196
1281.012, 9030.701
1281.494, 9036.937
1281.976, 9026.841
1282.458, 9024.512
1282.941, 9046.405
1283.423, 9065.380
1283.905, 9064.452
1284.387, 9051.600
1284.869, 9050.918
1285.351, 9058.025
1285.833, 9063.453
1286.315, 9067.049
1286.798, 9059.847
1287.280, 9035.379
1287.762, 9015.554
1288.244, 9013.979
1288.726, 9022.392
1289.208, 9032.811
1289.690, 9040.205
1290.172, 9033.369
1290.654, 8999.397
1291.137, 8983.508
1291.619, 8988.671
1292.101, 9006.132
1292.583, 9040.671
1293.065, 9066.396
1293.547, 9035.041
1294.029, 8985.652
1294.511, 8977.388
##END=



