##NAMES=Hydropyrochlore
##RRUFFID=R060980
##IDEAL CHEMISTRY=(H_2_O,[box])_2_Nb^5+^_2_(O,OH)_6_(H_2_O)
##LOCALITY=Lueshe mine, Kivu, Democratic Republic of the Congo
##OWNER=RRUFF
##SOURCE=Bob Jenkins
##DESCRIPTION=Pale green octahedron
##STATUS=The identification of this mineral is confirmed by single-crystal X-ray diffraction and chemical analysis.
##URL=rruff.info/R060980
##MEASURED CHEMISTRY=((H_2_O)_0.61_K_0.11_Sr_0.07_Ba_0.02_Ca_0.01_[box]_0.18_)(Nb_1.84_Ti_0.16_)(O_4.15_(OH)_1.85_)(H_2_O)
157.2047, 25427.58
157.6868, 25434.58
158.1689, 25461.32
158.6510, 25521.85
159.1331, 25608.49
159.6152, 25761.74
160.0974, 26017.10
160.5795, 26297.71
161.0616, 26569.52
161.5437, 26825.10
162.0258, 27070.13
162.5079, 27309.58
162.9901, 27533.30
163.4722, 27778.27
163.9543, 28064.62
164.4364, 28351.73
164.9185, 28613.96
165.4007, 28848.23
165.8828, 29062.09
166.3649, 29266.14
166.8470, 29457.34
167.3291, 29643.12
167.8112, 29838.61
168.2933, 30019.40
168.7755, 30176.81
169.2576, 30306.11
169.7397, 30395.69
170.2218, 30427.80
170.7039, 30376.30
171.1860, 30331.03
171.6682, 30296.79
172.1503, 30265.94
172.6324, 30236.33
173.1145, 30206.63
173.5966, 30171.84
174.0787, 30127.33
174.5609, 30078.56
175.0430, 29998.17
175.5251, 29854.53
176.0072, 29701.34
176.4893, 29577.70
176.9714, 29491.35
177.4536, 29428.34
177.9357, 29376.52
178.4178, 29351.76
178.8999, 29284.32
179.3820, 29140.44
179.8641, 28975.24
180.3463, 28826.02
180.8284, 28701.48
181.3105, 28601.53
181.7926, 28531.09
182.2747, 28508.35
182.7568, 28454.47
183.2390, 28356.46
183.7211, 28234.56
184.2032, 28097.08
184.6853, 27947.21
185.1674, 27802.18
185.6495, 27686.17
186.1317, 27614.23
186.6138, 27509.20
187.0959, 27357.38
187.5780, 27179.90
188.0601, 26982.45
188.5422, 26769.46
189.0244, 26564.84
189.5065, 26404.02
189.9886, 26301.82
190.4707, 26161.19
190.9528, 25954.19
191.4349, 25723.57
191.9170, 25502.09
192.3992, 25295.34
192.8813, 25100.49
193.3634, 24921.89
193.8455, 24764.38
194.3276, 24579.47
194.8097, 24344.83
195.2919, 24096.75
195.7740, 23863.38
196.2561, 23648.03
196.7382, 23442.56
197.2203, 23240.77
197.7024, 23043.02
198.1846, 22847.71
198.6667, 22656.45
199.1488, 22466.55
199.6309, 22271.27
200.1130, 22069.95
200.5951, 21876.91
201.0773, 21703.12
201.5594, 21551.27
202.0415, 21403.23
202.5236, 21268.44
203.0057, 21130.48
203.4878, 20970.04
203.9700, 20788.79
204.4521, 20611.96
204.9342, 20462.56
205.4163, 20338.15
205.8984, 20197.34
206.3805, 20015.79
206.8627, 19837.27
207.3448, 19695.41
207.8269, 19587.57
208.3090, 19485.09
208.7911, 19369.95
209.2732, 19243.14
209.7554, 19115.85
210.2375, 18972.39
210.7196, 18841.06
211.2017, 18741.11
211.6838, 18669.51
212.1659, 18613.00
212.6480, 18568.96
213.1302, 18532.69
213.6123, 18482.03
214.0944, 18399.05
214.5765, 18320.60
215.0586, 18266.30
215.5407, 18232.11
216.0229, 18202.83
216.5050, 18171.07
216.9871, 18138.53
217.4692, 18111.57
217.9513, 18097.54
218.4334, 18080.31
218.9156, 18039.26
219.3977, 17988.93
219.8798, 17970.41
220.3619, 18008.89
220.8440, 18082.95
221.3261, 18130.40
221.8083, 18151.31
222.2904, 18153.05
222.7725, 18123.52
223.2546, 18077.37
223.7367, 18045.76
224.2188, 18043.01
224.7010, 18053.85
225.1831, 18041.17
225.6652, 17991.65
226.1473, 17950.86
226.6294, 17930.36
227.1115, 17923.96
227.5937, 17925.44
228.0758, 17933.75
228.5579, 17942.28
229.0400, 17937.54
229.5221, 17910.33
230.0042, 17894.72
230.4864, 17901.48
230.9685, 17919.46
231.4506, 17939.03
231.9327, 17957.83
232.4148, 17971.26
232.8969, 17972.19
233.3791, 17956.40
233.8612, 17939.88
234.3433, 17914.07
234.8254, 17893.15
235.3075, 17894.22
235.7896, 17918.71
236.2717, 17947.98
236.7539, 17961.28
237.2360, 17952.92
237.7181, 17955.07
238.2002, 17983.66
238.6823, 18010.30
239.1644, 18009.24
239.6466, 17983.05
240.1287, 17960.54
240.6108, 17971.16
241.0929, 18019.88
241.5750, 18027.88
242.0571, 17955.34
242.5393, 17885.52
243.0214, 17858.66
243.5035, 17870.90
243.9856, 17902.61
244.4677, 17943.90
244.9498, 17993.22
245.4320, 18015.01
245.9141, 17994.36
246.3962, 17967.81
246.8783, 17938.76
247.3604, 17912.34
247.8425, 17899.46
248.3247, 17907.87
248.8068, 17930.18
249.2889, 17931.17
249.7710, 17866.09
250.2531, 17831.54
250.7352, 17861.49
251.2174, 17922.79
251.6995, 17972.48
252.1816, 17991.70
252.6637, 17990.77
253.1458, 17995.31
253.6279, 18011.66
254.1101, 18024.69
254.5922, 18033.42
255.0743, 18038.90
255.5564, 18038.94
256.0385, 18033.95
256.5206, 18031.26
257.0027, 18044.30
257.4849, 18087.05
257.9670, 18117.55
258.4491, 18129.18
258.9312, 18136.07
259.4133, 18150.05
259.8954, 18171.12
260.3776, 18187.77
260.8597, 18181.94
261.3418, 18141.35
261.8239, 18135.68
262.3060, 18204.77
262.7881, 18271.76
263.2703, 18306.19
263.7524, 18309.14
264.2345, 18295.46
264.7166, 18275.17
265.1987, 18248.38
265.6808, 18221.54
266.1630, 18184.24
266.6451, 18158.98
267.1272, 18167.90
267.6093, 18191.57
268.0914, 18193.50
268.5735, 18146.00
269.0557, 18066.44
269.5378, 18023.51
270.0199, 18045.15
270.5020, 18057.05
270.9841, 18034.51
271.4662, 17994.61
271.9484, 17954.06
272.4305, 17917.63
272.9126, 17889.66
273.3947, 17885.36
273.8768, 17919.97
274.3589, 17927.02
274.8411, 17858.23
275.3232, 17772.70
275.8053, 17714.93
276.2874, 17695.13
276.7695, 17687.36
277.2516, 17662.79
277.7338, 17620.30
278.2159, 17587.24
278.6980, 17578.24
279.1801, 17571.25
279.6622, 17549.35
280.1443, 17512.58
280.6265, 17472.58
281.1086, 17433.98
281.5907, 17397.73
282.0728, 17370.63
282.5549, 17359.90
283.0370, 17346.03
283.5192, 17304.34
284.0013, 17244.88
284.4834, 17202.29
284.9655, 17218.95
285.4476, 17250.22
285.9297, 17215.02
286.4119, 17100.30
286.8940, 16984.86
287.3761, 16931.33
287.8582, 16915.66
288.3403, 16873.54
288.8224, 16764.73
289.3046, 16655.42
289.7867, 16609.44
290.2688, 16618.68
290.7509, 16623.81
291.2330, 16598.57
291.7151, 16548.62
292.1972, 16489.50
292.6794, 16410.86
293.1615, 16342.42
293.6436, 16304.05
294.1257, 16283.63
294.6078, 16256.52
295.0899, 16214.71
295.5721, 16162.26
296.0542, 16103.87
296.5363, 16032.63
297.0184, 15973.84
297.5005, 15936.55
297.9826, 15909.29
298.4648, 15881.95
298.9469, 15852.37
299.4290, 15820.41
299.9111, 15784.86
300.3932, 15743.77
300.8753, 15711.06
301.3575, 15700.03
301.8396, 15684.47
302.3217, 15646.41
302.8038, 15590.64
303.2859, 15535.13
303.7680, 15493.22
304.2502, 15463.37
304.7323, 15426.27
305.2144, 15373.61
305.6965, 15323.51
306.1786, 15285.11
306.6607, 15249.71
307.1429, 15203.41
307.6250, 15140.04
308.1071, 15067.57
308.5892, 15006.84
309.0713, 14970.65
309.5534, 14922.47
310.0356, 14852.17
310.5177, 14775.69
310.9998, 14703.23
311.4819, 14637.60
311.9640, 14577.03
312.4461, 14520.00
312.9283, 14467.96
313.4104, 14413.18
313.8925, 14345.95
314.3746, 14285.23
314.8567, 14248.48
315.3388, 14227.33
315.8210, 14193.92
316.3031, 14114.52
316.7852, 14006.60
317.2673, 13953.89
317.7494, 13984.78
318.2315, 14016.35
318.7137, 14005.82
319.1958, 13972.60
319.6779, 13945.66
320.1600, 13942.86
320.6421, 13936.88
321.1242, 13875.65
321.6064, 13754.01
322.0885, 13670.10
322.5706, 13678.45
323.0527, 13732.20
323.5348, 13768.98
324.0169, 13786.40
324.4991, 13788.04
324.9812, 13764.19
325.4633, 13725.85
325.9454, 13701.69
326.4275, 13698.48
326.9096, 13710.32
327.3918, 13738.52
327.8739, 13783.37
328.3560, 13812.10
328.8381, 13803.64
329.3202, 13786.07
329.8023, 13793.20
330.2845, 13824.36
330.7666, 13843.97
331.2487, 13820.48
331.7308, 13758.19
332.2129, 13723.89
332.6950, 13728.51
333.1772, 13745.00
333.6593, 13772.41
334.1414, 13803.74
334.6235, 13827.04
335.1056, 13836.86
335.5877, 13836.71
336.0698, 13834.95
336.5519, 13827.11
337.0341, 13824.33
337.5162, 13824.45
337.9983, 13830.98
338.4804, 13853.29
338.9625, 13889.62
339.4446, 13921.48
339.9268, 13923.67
340.4089, 13887.31
340.8910, 13871.68
341.3731, 13890.32
341.8552, 13917.49
342.3373, 13946.23
342.8195, 13976.63
343.3016, 14011.06
343.7837, 14052.03
344.2658, 14097.20
344.7479, 14140.70
345.2300, 14187.49
345.7122, 14220.35
346.1943, 14215.94
346.6764, 14204.03
347.1585, 14218.68
347.6406, 14272.33
348.1227, 14330.46
348.6049, 14353.41
349.0870, 14342.71
349.5691, 14335.75
350.0512, 14336.39
350.5333, 14349.24
351.0154, 14386.80
351.4976, 14446.63
351.9797, 14488.98
352.4618, 14479.93
352.9439, 14448.97
353.4260, 14448.64
353.9081, 14485.75
354.3903, 14518.12
354.8724, 14511.20
355.3545, 14470.26
355.8366, 14442.84
356.3187, 14438.79
356.8008, 14439.04
357.2830, 14438.79
357.7651, 14435.45
358.2472, 14419.54
358.7293, 14384.75
359.2114, 14344.34
359.6935, 14328.41
360.1757, 14368.61
360.6578, 14381.93
361.1399, 14344.56
361.6220, 14292.83
362.1041, 14258.48
362.5862, 14244.85
363.0684, 14233.50
363.5505, 14204.14
364.0326, 14153.79
364.5147, 14116.79
364.9968, 14097.90
365.4789, 14087.71
365.9611, 14086.55
366.4432, 14091.96
366.9253, 14102.64
367.4074, 14119.35
367.8895, 14135.42
368.3716, 14132.58
368.8538, 14102.41
369.3359, 14075.75
369.8180, 14058.21
370.3001, 14047.50
370.7822, 14044.45
371.2643, 14048.82
371.7465, 14054.08
372.2286, 14058.70
372.7107, 14060.79
373.1928, 14048.13
373.6749, 14013.16
374.1570, 13975.87
374.6392, 13948.50
375.1213, 13930.60
375.6034, 13923.52
376.0855, 13947.24
376.5676, 13968.07
377.0497, 13945.28
377.5319, 13884.89
378.0140, 13830.08
378.4961, 13800.90
378.9782, 13791.40
379.4603, 13787.73
379.9424, 13797.15
380.4246, 13797.56
380.9066, 13786.04
381.3888, 13762.12
381.8709, 13720.83
382.3530, 13662.67
382.8351, 13600.10
383.3172, 13545.35
383.7993, 13497.74
384.2815, 13463.34
384.7636, 13450.45
385.2457, 13440.31
385.7278, 13430.90
386.2099, 13418.40
386.6920, 13396.81
387.1742, 13362.41
387.6563, 13318.73
388.1384, 13272.48
388.6205, 13214.08
389.1026, 13175.83
389.5847, 13175.66
390.0669, 13187.36
390.5490, 13195.33
391.0311, 13196.49
391.5132, 13191.56
391.9953, 13180.79
392.4774, 13164.28
392.9596, 13141.70
393.4417, 13109.37
393.9238, 13078.08
394.4059, 13053.83
394.8880, 13035.63
395.3701, 13023.18
395.8523, 13025.40
396.3344, 13024.11
396.8165, 13001.78
397.2986, 12960.97
397.7807, 12913.08
398.2628, 12859.04
398.7450, 12806.24
399.2271, 12773.65
399.7092, 12774.81
400.1913, 12752.08
400.6734, 12670.64
401.1555, 12577.97
401.6377, 12521.34
402.1198, 12502.50
402.6019, 12489.60
403.0840, 12455.73
403.5661, 12401.47
404.0482, 12353.93
404.5304, 12317.14
405.0125, 12282.71
405.4946, 12253.58
405.9767, 12224.58
406.4588, 12189.03
406.9409, 12144.61
407.4231, 12096.35
407.9052, 12051.65
408.3873, 12011.59
408.8694, 11970.37
409.3515, 11920.41
409.8336, 11876.31
410.3158, 11848.16
410.7979, 11833.28
411.2800, 11821.29
411.7621, 11810.59
412.2442, 11797.26
412.7263, 11767.45
413.2085, 11717.71
413.6906, 11683.71
414.1727, 11691.75
414.6548, 11721.33
415.1369, 11729.41
415.6190, 11709.39
416.1012, 11683.93
416.5833, 11663.16
417.0654, 11642.64
417.5475, 11611.95
418.0296, 11569.12
418.5117, 11530.95
418.9939, 11517.58
419.4760, 11533.64
419.9581, 11527.67
420.4402, 11487.23
420.9223, 11441.74
421.4044, 11392.42
421.8866, 11347.96
422.3687, 11324.67
422.8508, 11330.19
423.3329, 11349.88
423.8150, 11353.22
424.2971, 11334.44
424.7793, 11314.70
425.2614, 11296.12
425.7435, 11276.63
426.2256, 11254.32
426.7077, 11229.84
427.1898, 11205.54
427.6719, 11180.86
428.1541, 11158.12
428.6362, 11149.46
429.1183, 11161.45
429.6004, 11156.16
430.0825, 11096.05
430.5646, 11016.55
431.0468, 10978.38
431.5289, 11001.16
432.0110, 11021.38
432.4931, 10997.83
432.9752, 10952.69
433.4573, 10926.92
433.9395, 10928.91
434.4216, 10937.83
434.9037, 10933.73
435.3858, 10915.55
435.8679, 10896.26
436.3500, 10870.12
436.8322, 10849.20
437.3143, 10844.11
437.7964, 10845.93
438.2785, 10839.50
438.7606, 10818.45
439.2427, 10789.60
439.7249, 10766.66
440.2070, 10755.04
440.6891, 10733.30
441.1712, 10676.80
441.6533, 10630.14
442.1354, 10625.55
442.6176, 10651.35
443.0997, 10667.57
443.5818, 10646.16
444.0639, 10603.87
444.5460, 10573.45
445.0281, 10555.44
445.5103, 10544.41
445.9924, 10541.82
446.4745, 10542.58
446.9566, 10538.33
447.4387, 10528.00
447.9208, 10517.49
448.4030, 10505.90
448.8851, 10496.90
449.3672, 10496.04
449.8493, 10503.74
450.3314, 10516.27
450.8135, 10531.58
451.2957, 10549.40
451.7778, 10563.76
452.2599, 10570.31
452.7420, 10579.21
453.2241, 10589.18
453.7062, 10604.05
454.1884, 10629.18
454.6705, 10665.48
455.1526, 10707.48
455.6347, 10747.10
456.1168, 10783.13
456.5989, 10830.09
457.0811, 10895.31
457.5632, 10962.50
458.0453, 11025.83
458.5274, 11085.20
459.0095, 11139.09
459.4916, 11183.14
459.9738, 11228.98
460.4559, 11288.66
460.9380, 11361.03
461.4201, 11439.39
461.9022, 11523.99
462.3843, 11609.96
462.8665, 11694.18
463.3486, 11777.67
463.8307, 11846.08
464.3128, 11881.80
464.7949, 11916.77
465.2770, 11968.84
465.7592, 12037.15
466.2413, 12117.36
466.7234, 12207.90
467.2055, 12304.24
467.6876, 12397.55
468.1697, 12495.46
468.6519, 12573.82
469.1340, 12625.00
469.6161, 12664.85
470.0982, 12699.84
470.5803, 12731.44
471.0624, 12761.02
471.5445, 12789.46
472.0266, 12816.34
472.5088, 12838.16
472.9909, 12852.35
473.4730, 12877.66
473.9551, 12931.72
474.4372, 12992.90
474.9193, 13030.66
475.4015, 13041.60
475.8836, 13049.33
476.3657, 13060.66
476.8478, 13074.81
477.3299, 13089.70
477.8120, 13105.83
478.2942, 13129.02
478.7763, 13166.02
479.2584, 13211.86
479.7405, 13238.35
480.2226, 13231.99
480.7047, 13222.78
481.1869, 13212.09
481.6690, 13200.21
482.1511, 13181.45
482.6332, 13158.62
483.1153, 13148.62
483.5974, 13174.88
484.0796, 13230.72
484.5617, 13259.29
485.0438, 13249.39
485.5259, 13237.09
486.0080, 13240.37
486.4901, 13249.03
486.9723, 13249.47
487.4544, 13236.33
487.9365, 13228.99
488.4186, 13247.74
488.9007, 13278.11
489.3828, 13288.65
489.8650, 13274.47
490.3471, 13263.96
490.8292, 13286.02
491.3113, 13336.53
491.7934, 13345.04
492.2755, 13267.19
492.7577, 13208.35
493.2398, 13209.68
493.7219, 13232.10
494.2040, 13230.08
494.6861, 13193.97
495.1682, 13146.84
495.6504, 13110.71
496.1325, 13085.61
496.6146, 13075.78
497.0967, 13095.32
497.5788, 13106.68
498.0609, 13084.66
498.5431, 13049.07
499.0252, 13027.58
499.5073, 13029.96
499.9894, 13032.62
500.4715, 13018.70
500.9536, 12992.28
501.4358, 12959.75
501.9179, 12921.62
502.4000, 12886.78
502.8821, 12861.97
503.3642, 12847.42
503.8463, 12843.36
504.3285, 12862.41
504.8106, 12875.46
505.2927, 12867.85
505.7748, 12853.50
506.2569, 12848.55
506.7390, 12857.10
507.2212, 12873.46
507.7033, 12893.94
508.1854, 12918.56
508.6675, 12934.37
509.1496, 12941.07
509.6317, 12938.93
510.1139, 12920.14
510.5960, 12896.17
511.0781, 12881.28
511.5602, 12878.41
512.0423, 12884.68
512.5244, 12905.22
513.0065, 12932.07
513.4886, 12948.18
513.9708, 12950.80
514.4529, 12945.79
514.9350, 12936.38
515.4171, 12923.14
515.8992, 12914.12
516.3813, 12912.52
516.8635, 12910.47
517.3456, 12899.84
517.8277, 12891.63
518.3098, 12898.99
518.7919, 12923.23
519.2740, 12953.64
519.7562, 12982.16
520.2383, 13008.14
520.7204, 13024.83
521.2025, 13028.47
521.6846, 13031.24
522.1667, 13035.23
522.6489, 13042.52
523.1310, 13056.86
523.6131, 13079.85
524.0952, 13103.27
524.5773, 13122.59
525.0594, 13139.83
525.5416, 13162.40
526.0237, 13189.37
526.5058, 13201.62
526.9879, 13181.90
527.4700, 13140.32
527.9521, 13124.19
528.4343, 13164.24
528.9164, 13189.82
529.3985, 13182.45
529.8806, 13171.27
530.3627, 13182.99
530.8448, 13215.48
531.3270, 13244.02
531.8091, 13245.35
532.2912, 13232.82
532.7733, 13247.35
533.2554, 13293.58
533.7375, 13338.70
534.2197, 13372.77
534.7018, 13398.93
535.1839, 13418.23
535.6660, 13429.13
536.1481, 13449.71
536.6302, 13491.88
537.1124, 13539.78
537.5945, 13578.97
538.0766, 13611.39
538.5587, 13645.52
539.0408, 13685.49
539.5229, 13731.09
540.0051, 13783.57
540.4872, 13854.52
540.9693, 13904.67
541.4514, 13912.85
541.9335, 13920.07
542.4156, 13946.27
542.8978, 13985.99
543.3799, 14025.11
543.8620, 14059.05
544.3441, 14086.70
544.8262, 14096.01
545.3083, 14093.64
545.7905, 14124.16
546.2726, 14205.61
546.7547, 14294.77
547.2368, 14348.53
547.7189, 14364.44
548.2010, 14380.16
548.6832, 14388.55
549.1653, 14404.57
549.6474, 14432.33
550.1295, 14471.34
550.6116, 14525.45
551.0938, 14593.47
551.5759, 14661.62
552.0580, 14712.10
552.5401, 14745.84
553.0222, 14785.05
553.5043, 14832.78
553.9865, 14880.22
554.4686, 14923.48
554.9507, 14964.40
555.4328, 15004.52
555.9149, 15044.19
556.3970, 15083.36
556.8792, 15105.12
557.3613, 15135.29
557.8434, 15226.87
558.3255, 15372.21
558.8076, 15492.52
559.2897, 15533.65
559.7719, 15520.98
560.2540, 15541.93
560.7361, 15623.21
561.2182, 15691.95
561.7003, 15736.93
562.1824, 15776.63
562.6646, 15820.34
563.1467, 15868.75
563.6288, 15921.52
564.1109, 15980.84
564.5930, 16040.20
565.0751, 16090.78
565.5573, 16132.87
566.0394, 16167.23
566.5215, 16190.96
567.0036, 16215.55
567.4857, 16254.33
567.9678, 16309.11
568.4500, 16362.66
568.9321, 16409.99
569.4142, 16461.92
569.8963, 16526.51
570.3784, 16596.99
570.8605, 16664.70
571.3427, 16726.73
571.8248, 16784.56
572.3069, 16838.56
572.7890, 16889.15
573.2711, 16940.42
573.7532, 16988.96
574.2354, 17046.90
574.7175, 17133.10
575.1996, 17225.03
575.6817, 17289.50
576.1638, 17320.08
576.6459, 17345.03
577.1281, 17360.69
577.6102, 17385.43
578.0923, 17440.58
578.5744, 17523.97
579.0565, 17624.71
579.5386, 17739.13
580.0208, 17853.77
580.5029, 17933.16
580.9850, 17956.71
581.4671, 17996.95
581.9492, 18069.33
582.4313, 18148.19
582.9134, 18226.67
583.3955, 18303.17
583.8776, 18374.71
584.3597, 18438.24
584.8419, 18501.33
585.3240, 18572.02
585.8061, 18648.14
586.2882, 18724.26
586.7703, 18798.97
587.2524, 18877.86
587.7346, 18967.21
588.2167, 19066.30
588.6988, 19155.48
589.1809, 19230.42
589.6630, 19300.94
590.1451, 19365.68
590.6273, 19428.21
591.1094, 19492.02
591.5915, 19556.75
592.0736, 19618.18
592.5557, 19672.38
593.0378, 19721.95
593.5200, 19764.41
594.0021, 19799.99
594.4842, 19873.72
594.9663, 20016.80
595.4484, 20169.16
595.9305, 20245.76
596.4127, 20230.46
596.8948, 20254.02
597.3769, 20342.87
597.8590, 20444.03
598.3411, 20540.50
598.8232, 20632.88
599.3054, 20726.86
599.7875, 20823.14
600.2696, 20913.90
600.7517, 20982.17
601.2338, 21033.27
601.7159, 21118.30
602.1981, 21250.37
602.6802, 21369.87
603.1623, 21440.97
603.6444, 21490.21
604.1265, 21564.59
604.6086, 21670.59
605.0908, 21771.14
605.5729, 21855.90
606.0550, 21933.22
606.5371, 22001.16
607.0192, 22067.24
607.5013, 22153.56
607.9835, 22270.24
608.4656, 22392.85
608.9477, 22473.08
609.4298, 22502.18
609.9119, 22563.76
610.3940, 22681.66
610.8762, 22797.73
611.3583, 22867.87
611.8404, 22917.82
612.3225, 22992.22
612.8046, 23109.00
613.2867, 23215.86
613.7689, 23276.81
614.2510, 23322.50
614.7331, 23385.46
615.2152, 23468.70
615.6973, 23564.23
616.1794, 23668.26
616.6616, 23779.94
617.1437, 23906.76
617.6258, 24069.74
618.1079, 24174.74
618.5900, 24154.73
619.0721, 24139.43
619.5543, 24213.67
620.0364, 24344.09
620.5185, 24451.75
621.0006, 24506.94
621.4827, 24554.03
621.9648, 24619.99
622.4470, 24697.25
622.9291, 24778.00
623.4112, 24859.02
623.8933, 24930.00
624.3754, 24979.06
624.8575, 25016.78
625.3397, 25089.94
625.8218, 25221.99
626.3039, 25338.33
626.7860, 25436.42
627.2681, 25509.84
627.7502, 25534.83
628.2324, 25529.71
628.7145, 25550.94
629.1966, 25624.29
629.6787, 25722.46
630.1608, 25839.16
630.6429, 25960.92
631.1251, 26061.80
631.6072, 26136.21
632.0893, 26177.22
632.5714, 26171.23
633.0535, 26129.64
633.5356, 26134.02
634.0178, 26213.32
634.4999, 26286.45
634.9820, 26327.91
635.4641, 26371.64
635.9462, 26459.61
636.4283, 26575.08
636.9105, 26643.79
637.3926, 26597.90
637.8747, 26537.46
638.3568, 26561.36
638.8389, 26641.46
639.3210, 26710.79
639.8032, 26753.59
640.2853, 26787.07
640.7674, 26827.79
641.2495, 26873.75
641.7316, 26900.99
642.2137, 26902.35
642.6959, 26897.02
643.1780, 26885.59
643.6601, 26871.19
644.1422, 26851.84
644.6243, 26830.68
645.1064, 26820.88
645.5886, 26847.63
646.0707, 26867.67
646.5528, 26827.27
647.0349, 26750.57
647.5170, 26694.83
647.9991, 26673.79
648.4813, 26673.56
648.9634, 26684.96
649.4455, 26705.11
649.9276, 26701.09
650.4097, 26654.88
650.8918, 26616.99
651.3740, 26596.11
651.8561, 26585.35
652.3382, 26591.07
652.8203, 26605.60
653.3024, 26595.62
653.7845, 26527.80
654.2667, 26451.18
654.7488, 26411.43
655.2309, 26392.34
655.7130, 26361.96
656.1951, 26312.76
656.6772, 26249.10
657.1594, 26173.44
657.6415, 26087.84
658.1236, 26008.04
658.6057, 25939.74
659.0878, 25864.81
659.5699, 25776.14
660.0521, 25682.78
660.5342, 25591.80
661.0163, 25502.28
661.4984, 25408.28
661.9805, 25311.21
662.4626, 25206.57
662.9448, 25083.53
663.4269, 24954.93
663.9090, 24842.12
664.3911, 24748.28
664.8732, 24659.32
665.3553, 24565.68
665.8375, 24465.27
666.3196, 24347.47
666.8017, 24206.41
667.2838, 24068.14
667.7659, 23933.78
668.2480, 23807.26
668.7302, 23697.99
669.2123, 23599.46
669.6944, 23487.83
670.1765, 23352.51
670.6586, 23211.50
671.1407, 23067.44
671.6229, 22924.97
672.1050, 22786.93
672.5870, 22655.65
673.0692, 22544.58
673.5513, 22468.19
674.0334, 22399.86
674.5155, 22262.88
674.9976, 22047.39
675.4797, 21862.04
675.9619, 21731.95
676.4440, 21617.52
676.9261, 21502.51
677.4082, 21380.68
677.8903, 21230.26
678.3724, 21027.86
678.8546, 20833.94
679.3367, 20656.94
679.8188, 20499.66
680.3009, 20378.69
680.7830, 20280.47
681.2651, 20169.81
681.7473, 20028.20
682.2294, 19866.81
682.7115, 19696.04
683.1936, 19518.01
683.6757, 19347.46
684.1578, 19188.41
684.6400, 19022.23
685.1221, 18833.25
685.6042, 18632.50
686.0863, 18450.32
686.5684, 18293.05
687.0505, 18142.17
687.5327, 18008.39
688.0148, 17870.04
688.4969, 17718.22
688.9790, 17552.50
689.4611, 17366.15
689.9432, 17154.35
690.4254, 16961.52
690.9075, 16850.15
691.3896, 16781.29
691.8717, 16666.29
692.3538, 16502.99
692.8359, 16328.44
693.3181, 16157.27
693.8002, 15994.80
694.2823, 15849.77
694.7644, 15729.51
695.2465, 15598.38
695.7286, 15451.94
696.2108, 15300.29
696.6929, 15138.13
697.1750, 14975.59
697.6571, 14822.58
698.1392, 14680.86
698.6213, 14548.49
699.1035, 14436.94
699.5856, 14325.10
700.0677, 14186.48
700.5498, 14031.11
701.0319, 13886.40
701.5140, 13760.00
701.9962, 13639.63
702.4783, 13512.80
702.9604, 13379.71
703.4425, 13233.54
703.9246, 13064.23
704.4067, 12910.52
704.8889, 12783.35
705.3710, 12674.79
705.8531, 12586.15
706.3352, 12513.47
706.8173, 12418.50
707.2994, 12275.57
707.7816, 12134.09
708.2637, 12014.15
708.7458, 11905.27
709.2279, 11796.47
709.7100, 11687.24
710.1921, 11585.33
710.6743, 11497.87
711.1564, 11416.24
711.6385, 11318.42
712.1206, 11207.48
712.6027, 11123.89
713.0848, 11080.67
713.5670, 11027.19
714.0491, 10920.24
714.5312, 10775.00
715.0133, 10652.15
715.4954, 10563.66
715.9775, 10480.90
716.4597, 10410.74
716.9418, 10339.09
717.4239, 10253.97
717.9060, 10162.90
718.3881, 10082.39
718.8702, 10018.43
719.3524, 9957.771
719.8345, 9890.435
720.3166, 9820.514
720.7987, 9754.429
721.2808, 9691.769
721.7629, 9627.857
722.2451, 9561.223
722.7272, 9489.880
723.2093, 9409.514
723.6914, 9319.325
724.1735, 9232.560
724.6556, 9147.191
725.1378, 9071.235
725.6199, 9010.893
726.1020, 8959.772
726.5841, 8908.336
727.0662, 8856.667
727.5483, 8811.548
728.0305, 8788.155
728.5126, 8756.507
728.9947, 8693.429
729.4768, 8617.918
729.9589, 8555.821
730.4410, 8510.024
730.9232, 8464.148
731.4053, 8404.614
731.8874, 8339.034
732.3695, 8281.728
732.8516, 8232.122
733.3337, 8185.185
733.8159, 8140.036
734.2980, 8093.870
734.7801, 8043.088
735.2622, 7989.852
735.7443, 7944.683
736.2264, 7916.018
736.7086, 7880.039
737.1907, 7825.569
737.6728, 7773.836
738.1549, 7738.954
738.6370, 7713.881
739.1191, 7682.636
739.6013, 7638.613
740.0834, 7599.708
740.5655, 7588.797
741.0476, 7578.893
741.5297, 7532.880
742.0118, 7461.079
742.4940, 7401.042
742.9761, 7368.000
743.4582, 7342.899
743.9403, 7298.215
744.4224, 7236.816
744.9045, 7186.574
745.3867, 7147.424
745.8688, 7121.032
746.3509, 7113.392
746.8330, 7110.295
747.3151, 7093.596
747.7972, 7062.080
748.2794, 7032.613
748.7615, 7008.926
749.2436, 6982.330
749.7257, 6945.858
750.2078, 6909.310
750.6899, 6888.342
751.1721, 6876.809
751.6542, 6846.100
752.1363, 6768.666
752.6184, 6693.608
753.1005, 6672.040
753.5826, 6683.211
754.0648, 6698.476
754.5469, 6708.970
755.0290, 6688.961
755.5111, 6618.787
755.9932, 6530.853
756.4753, 6497.552
756.9575, 6527.233
757.4396, 6536.219
757.9217, 6514.940
758.4038, 6488.632
758.8859, 6467.128
759.3680, 6449.097
759.8502, 6430.753
760.3323, 6410.261
760.8144, 6399.036
761.2965, 6410.185
761.7786, 6416.733
762.2607, 6404.270
762.7428, 6382.679
763.2249, 6365.192
763.7070, 6352.793
764.1891, 6333.120
764.6713, 6267.316
765.1534, 6291.226
765.6355, 6302.747
766.1176, 6302.547
766.5997, 6255.519
767.0818, 6268.959
767.5640, 6258.165
768.0461, 6246.379
768.5282, 6268.330
769.0103, 6228.112
769.4924, 6236.139
769.9745, 6229.279
770.4567, 6200.461
770.9388, 6176.698
771.4209, 6176.406
771.9030, 6191.039
772.3851, 6200.935
772.8672, 6202.900
773.3494, 6211.200
773.8315, 6242.683
774.3136, 6264.295
774.7957, 6257.899
775.2778, 6232.745
775.7599, 6193.499
776.2421, 6144.937
776.7242, 6113.395
777.2063, 6134.337
777.6884, 6168.128
778.1705, 6155.599
778.6526, 6116.818
779.1348, 6110.712
779.6169, 6147.347
780.0990, 6185.433
780.5811, 6190.733
781.0632, 6174.672
781.5453, 6173.212
782.0275, 6188.202
782.5096, 6204.788
782.9917, 6223.360
783.4738, 6238.232
783.9559, 6244.392
784.4380, 6244.914
784.9202, 6247.407
785.4023, 6252.363
785.8844, 6257.589
786.3665, 6256.258
786.8486, 6262.532
787.3307, 6291.489
787.8129, 6326.775
788.2950, 6346.769
788.7771, 6348.443
789.2592, 6346.804
789.7413, 6351.464
790.2234, 6355.684
790.7056, 6348.371
791.1877, 6337.272
791.6698, 6340.071
792.1519, 6358.046
792.6340, 6376.364
793.1161, 6384.351
793.5983, 6385.200
794.0804, 6386.513
794.5625, 6388.242
795.0446, 6382.785
795.5267, 6366.702
796.0089, 6357.062
796.4910, 6366.447
796.9731, 6384.805
797.4552, 6390.215
797.9373, 6376.891
798.4194, 6369.646
798.9016, 6370.993
799.3837, 6375.415
799.8658, 6386.642
800.3479, 6396.838
800.8300, 6394.329
801.3121, 6379.964
801.7943, 6373.681
802.2764, 6384.694
802.7585, 6402.674
803.2406, 6429.818
803.7227, 6455.761
804.2048, 6464.961
804.6870, 6459.866
805.1691, 6456.040
805.6512, 6462.312
806.1333, 6472.624
806.6154, 6480.214
807.0975, 6485.098
807.5797, 6486.850
808.0618, 6485.583
808.5439, 6482.347
809.0260, 6477.199
809.5081, 6473.104
809.9902, 6475.498
810.4724, 6484.712
810.9545, 6485.362
811.4366, 6469.237
811.9187, 6466.964
812.4008, 6497.755
812.8829, 6532.623
813.3651, 6540.873
813.8472, 6526.639
814.3293, 6520.683
814.8114, 6541.001
815.2935, 6545.334
815.7756, 6512.695
816.2578, 6475.504
816.7399, 6453.386
817.2220, 6444.337
817.7041, 6441.065
818.1862, 6441.683
818.6683, 6445.753
819.1505, 6462.045
819.6326, 6474.620
820.1147, 6458.516
820.5968, 6425.629
821.0789, 6405.155
821.5610, 6404.470
822.0432, 6410.544
822.5253, 6414.926
823.0074, 6413.684
823.4895, 6388.725
823.9716, 6343.369
824.4537, 6325.649
824.9359, 6347.262
825.4180, 6362.960
825.9001, 6339.137
826.3822, 6293.359
826.8643, 6271.156
827.3464, 6277.440
827.8286, 6292.802
828.3107, 6336.867
828.7928, 6358.383
829.2749, 6322.366
829.7570, 6262.705
830.2391, 6217.574
830.7213, 6187.433
831.2034, 6165.232
831.6855, 6157.182
832.1676, 6148.038
832.6497, 6129.513
833.1318, 6110.520
833.6140, 6099.834
834.0961, 6096.186
834.5782, 6093.506
835.0603, 6090.225
835.5424, 6084.458
836.0245, 6073.848
836.5067, 6060.608
836.9888, 6050.429
837.4709, 6040.005
837.9530, 6015.804
838.4351, 5974.359
838.9172, 5934.257
839.3994, 5919.012
839.8815, 5918.161
840.3636, 5896.200
840.8457, 5855.307
841.3278, 5822.270
841.8099, 5802.835
842.2921, 5795.302
842.7742, 5801.748
843.2563, 5813.983
843.7384, 5802.432
844.2205, 5755.388
844.7026, 5729.073
845.1848, 5737.974
845.6669, 5743.942
846.1490, 5725.519
846.6311, 5697.526
847.1132, 5684.230
847.5953, 5687.827
848.0775, 5681.158
848.5596, 5660.021
849.0417, 5632.335
849.5238, 5595.855
850.0059, 5556.895
850.4880, 5513.761
850.9702, 5472.727
851.4523, 5452.952
851.9343, 5469.272
852.4164, 5483.354
852.8986, 5468.263
853.3807, 5445.510
853.8628, 5442.464
854.3449, 5447.628
854.8270, 5425.611
855.3091, 5369.249
855.7913, 5323.583
856.2734, 5343.228
856.7555, 5386.219
857.2376, 5369.557
857.7197, 5310.990
858.2018, 5274.396
858.6840, 5270.104
859.1661, 5265.368
859.6482, 5236.706
860.1303, 5198.809
860.6124, 5187.157
861.0945, 5202.162
861.5767, 5204.586
862.0588, 5193.476
862.5409, 5162.769
863.0230, 5101.010
863.5051, 5038.036
863.9872, 5012.360
864.4694, 5024.238
864.9515, 5039.118
865.4336, 5070.801
865.9157, 5079.238
866.3978, 5036.912
866.8799, 4992.574
867.3621, 4982.742
867.8442, 4993.099
868.3263, 4989.561
868.8084, 4965.689
869.2905, 4940.887
869.7726, 4918.826
870.2548, 4896.113
870.7369, 4869.167
871.2190, 4841.780
871.7011, 4816.575
872.1832, 4794.948
872.6653, 4781.793
873.1475, 4781.020
873.6296, 4786.783
874.1117, 4804.349
874.5938, 4819.921
875.0759, 4811.144
875.5580, 4785.078
876.0402, 4767.308
876.5223, 4768.656
877.0044, 4773.845
877.4865, 4767.171
877.9686, 4753.641
878.4507, 4742.508
878.9329, 4733.078
879.4150, 4722.066
879.8971, 4708.776
880.3792, 4695.342
880.8613, 4683.627
881.3434, 4672.601
881.8256, 4658.667
882.3077, 4642.229
882.7898, 4632.366
883.2719, 4630.803
883.7540, 4627.083
884.2361, 4616.884
884.7183, 4600.125
885.2004, 4574.381
885.6825, 4539.417
886.1646, 4519.882
886.6467, 4521.755
887.1288, 4520.816
887.6110, 4496.026
888.0931, 4470.996
888.5752, 4493.056
889.0573, 4502.728
889.5394, 4500.679
890.0215, 4451.801
890.5037, 4463.391
890.9858, 4450.749
891.4679, 4437.113
891.9500, 4446.652
892.4321, 4454.518
892.9142, 4450.634
893.3964, 4434.922
893.8785, 4424.000
894.3606, 4428.662
894.8427, 4429.709
895.3248, 4420.358
895.8069, 4405.095
896.2891, 4383.549
896.7712, 4360.123
897.2533, 4342.859
897.7354, 4334.017
898.2175, 4328.196
898.6996, 4320.525
899.1818, 4315.859
899.6639, 4321.599
900.1460, 4331.925
900.6281, 4339.450
901.1102, 4341.837
901.5923, 4335.747
902.0745, 4317.574
902.5566, 4298.760
903.0387, 4298.215
903.5208, 4305.182
904.0029, 4293.617
904.4850, 4267.565
904.9672, 4250.898
905.4493, 4250.999
905.9314, 4253.105
906.4135, 4241.161
906.8956, 4223.162
907.3777, 4226.117
907.8599, 4246.433
908.3420, 4245.527
908.8241, 4217.780
909.3062, 4190.903
909.7883, 4179.901
910.2704, 4177.546
910.7526, 4172.611
911.2347, 4165.104
911.7168, 4155.465
912.1989, 4141.327
912.6810, 4140.294
913.1631, 4165.004
913.6453, 4179.394
914.1274, 4146.273
914.6095, 4085.527
915.0916, 4070.743
915.5737, 4128.577
916.0558, 4158.222
916.5380, 4148.775
917.0201, 4129.559
917.5022, 4102.821
917.9843, 4078.750
918.4664, 4073.450
918.9485, 4085.860
919.4307, 4083.251
919.9128, 4051.316
920.3949, 4025.643
920.8770, 4007.394
921.3591, 3998.185
921.8412, 4004.716
922.3234, 4018.207
922.8055, 4026.157
923.2876, 4027.472
923.7697, 4020.391
924.2518, 3995.432
924.7339, 3973.532
925.2161, 3968.940
925.6982, 3965.660
926.1803, 3944.974
926.6624, 3913.398
927.1445, 3892.590
927.6266, 3891.026
928.1088, 3889.982
928.5909, 3877.659
929.0730, 3865.081
929.5551, 3861.710
930.0372, 3862.767
930.5193, 3863.450
931.0015, 3861.324
931.4836, 3850.817
931.9657, 3825.222
932.4478, 3800.260
932.9299, 3791.880
933.4120, 3789.787
933.8942, 3781.894
934.3763, 3768.905
934.8584, 3756.285
935.3405, 3745.035
935.8226, 3729.112
936.3047, 3699.921
936.7869, 3668.541
937.2690, 3650.756
937.7511, 3642.431
938.2332, 3636.873
938.7153, 3632.098
939.1974, 3626.070
939.6796, 3617.809
940.1617, 3602.114
940.6438, 3554.030
941.1259, 3502.811
941.6080, 3556.415
942.0901, 3681.401
942.5722, 3709.839
943.0543, 3617.039
943.5364, 3510.062
944.0186, 3455.156
944.5007, 3430.323
944.9828, 3399.681
945.4649, 3364.860
945.9470, 3338.171
946.4291, 3319.671
946.9113, 3307.944
947.3934, 3303.236
947.8755, 3295.013
948.3576, 3273.657
948.8397, 3243.979
949.3218, 3218.832
949.8040, 3198.326
950.2861, 3181.630
950.7682, 3169.892
951.2503, 3152.995
951.7324, 3126.598
952.2145, 3095.066
952.6967, 3061.849
953.1788, 3028.259
953.6609, 3002.833
954.1430, 2985.650
954.6251, 2979.140
955.1072, 2990.109
955.5894, 2991.272
956.0715, 2966.923
956.5536, 2930.151
957.0357, 2897.895
957.5178, 2870.116
957.9999, 2854.596
958.4821, 2857.170
958.9642, 2858.052
959.4463, 2859.348
959.9284, 2849.322
960.4105, 2813.055
960.8926, 2766.943
961.3748, 2742.915
961.8569, 2744.533
962.3390, 2746.073
962.8211, 2751.720
963.3032, 2749.903
963.7853, 2735.419
964.2675, 2716.151
964.7496, 2695.348
965.2317, 2674.255
965.7138, 2655.447
966.1959, 2636.296
966.6780, 2627.521
967.1602, 2642.356
967.6423, 2650.064
968.1244, 2640.365
968.6065, 2623.073
969.0886, 2602.580
969.5707, 2581.158
970.0529, 2566.767
970.5350, 2565.969
971.0171, 2558.445
971.4992, 2529.037
971.9813, 2509.208
972.4634, 2523.266
972.9456, 2542.978
973.4277, 2539.369
973.9098, 2514.423
974.3919, 2487.312
974.8740, 2453.695
975.3561, 2430.810
975.8383, 2427.966
976.3204, 2429.034
976.8025, 2423.985
977.2846, 2419.649
977.7667, 2429.754
978.2488, 2452.090
978.7310, 2459.748
979.2131, 2434.834
979.6952, 2413.075
980.1773, 2405.855
980.6594, 2401.818
981.1415, 2391.690
981.6237, 2381.554
982.1058, 2382.533
982.5879, 2395.068
983.0700, 2404.759
983.5521, 2411.734
984.0342, 2409.359
984.5164, 2388.434
984.9985, 2364.147
985.4806, 2346.250
985.9627, 2333.521
986.4448, 2321.788
986.9269, 2310.447
987.4091, 2305.094
987.8912, 2317.071
988.3733, 2323.117
988.8554, 2307.688
989.3375, 2287.530
989.8196, 2276.155
990.3018, 2270.987
990.7839, 2265.794
991.2660, 2259.276
991.7481, 2249.066
992.2302, 2225.140
992.7123, 2208.677
993.1945, 2217.952
993.6766, 2232.759
994.1587, 2231.901
994.6408, 2221.947
995.1229, 2221.800
995.6050, 2236.454
996.0872, 2251.274
996.5693, 2264.535
997.0514, 2270.681
997.5335, 2261.483
998.0156, 2247.909
998.4977, 2237.763
998.9799, 2233.111
999.4620, 2238.263
999.9441, 2255.918
1000.426, 2265.857
1000.908, 2253.677
1001.390, 2237.327
1001.873, 2221.166
1002.355, 2211.003
1002.837, 2216.564
1003.319, 2232.518
1003.801, 2244.124
1004.283, 2247.023
1004.765, 2247.487
1005.247, 2253.768
1005.729, 2252.292
1006.212, 2225.364
1006.694, 2193.797
1007.176, 2180.144
1007.658, 2181.885
1008.140, 2185.568
1008.622, 2188.010
1009.104, 2187.978
1009.586, 2182.941
1010.069, 2177.572
1010.551, 2175.262
1011.033, 2173.612
1011.515, 2171.277
1011.997, 2167.050
1012.479, 2157.248
1012.961, 2138.977
1013.443, 2125.435
1013.925, 2123.696
1014.408, 2126.342
1014.890, 2133.767
1015.372, 2139.900
1015.854, 2137.206
1016.336, 2127.745
1016.818, 2119.544
1017.300, 2115.146
1017.782, 2109.297
1018.265, 2091.125
1018.747, 2081.584
1019.229, 2106.594
1019.711, 2134.101
1020.193, 2124.335
1020.675, 2088.534
1021.157, 2069.760
1021.639, 2082.518
1022.121, 2090.828
1022.604, 2079.375
1023.086, 2065.425
1023.568, 2049.104
1024.050, 2040.634
1024.532, 2057.467
1025.014, 2089.250
1025.496, 2105.576
1025.978, 2098.267
1026.460, 2086.094
1026.943, 2063.865
1027.425, 2050.156
1027.907, 2056.471
1028.389, 2070.936
1028.871, 2085.952
1029.353, 2099.813
1029.835, 2109.873
1030.317, 2115.056
1030.800, 2119.707
1031.282, 2130.113
1031.764, 2132.831
1032.246, 2116.555
1032.728, 2097.278
1033.210, 2089.252
1033.692, 2087.981
1034.174, 2079.125
1034.656, 2056.626
1035.139, 2048.474
1035.621, 2071.839
1036.103, 2089.860
1036.585, 2093.162
1037.067, 2088.713
1037.549, 2072.022
1038.031, 2053.625
1038.513, 2061.733
1038.995, 2108.276
1039.478, 2128.601
1039.960, 2099.561
1040.442, 2079.364
1040.924, 2083.883
1041.406, 2091.972
1041.888, 2089.514
1042.370, 2082.511
1042.852, 2084.124
1043.335, 2096.977
1043.817, 2096.012
1044.299, 2072.081
1044.781, 2052.890
1045.263, 2039.254
1045.745, 2037.766
1046.227, 2060.205
1046.709, 2088.435
1047.192, 2089.981
1047.674, 2064.054
1048.156, 2054.527
1048.638, 2069.800
1049.120, 2073.244
1049.602, 2054.364
1050.084, 2039.507
1050.566, 2042.254
1051.048, 2056.341
1051.531, 2076.047
1052.013, 2099.163
1052.495, 2099.278
1052.977, 2071.643
1053.459, 2051.750
1053.941, 2043.107
1054.423, 2046.124
1054.905, 2063.469
1055.387, 2081.101
1055.870, 2081.123
1056.352, 2068.263
1056.834, 2063.301
1057.316, 2066.105
1057.798, 2068.270
1058.280, 2069.153
1058.762, 2061.184
1059.244, 2040.799
1059.727, 2024.709
1060.209, 2030.500
1060.691, 2048.821
1061.173, 2057.061
1061.655, 2056.625
1062.137, 2053.881
1062.619, 2049.649
1063.101, 2045.949
1063.583, 2043.477
1064.066, 2043.682
1064.548, 2048.756
1065.030, 2052.635
1065.512, 2040.586
1065.994, 2021.675
1066.476, 2019.079
1066.958, 2029.658
1067.440, 2041.915
1067.922, 2052.182
1068.405, 2057.039
1068.887, 2053.842
1069.369, 2049.002
1069.851, 2049.484
1070.333, 2052.752
1070.815, 2056.260
1071.297, 2059.378
1071.779, 2062.895
1072.262, 2065.231
1072.744, 2058.886
1073.226, 2039.674
1073.708, 2025.390
1074.190, 2034.051
1074.672, 2048.332
1075.154, 2055.390
1075.636, 2057.849
1076.118, 2058.066
1076.601, 2057.310
1077.083, 2058.514
1077.565, 2062.581
1078.047, 2061.617
1078.529, 2044.089
1079.011, 2030.962
1079.493, 2036.964
1079.975, 2047.066
1080.458, 2051.405
1080.940, 2049.893
1081.422, 2041.042
1081.904, 2025.200
1082.386, 2018.348
1082.868, 2037.667
1083.350, 2045.705
1083.832, 2022.329
1084.314, 2000.813
1084.797, 2001.087
1085.279, 2010.748
1085.761, 2015.687
1086.243, 2015.708
1086.725, 2012.170
1087.207, 2001.171
1087.689, 1994.513
1088.171, 1996.170
1088.653, 1994.351
1089.136, 1979.232
1089.618, 1968.982
1090.100, 1983.818
1090.582, 2013.717
1091.064, 2024.163
1091.546, 2009.889
1092.028, 2008.903
1092.510, 2024.607
1092.993, 2038.531
1093.475, 2047.715
1093.957, 2045.626
1094.439, 2025.549
1094.921, 1999.832
1095.403, 1991.673
1095.885, 1998.667
1096.367, 2001.539
1096.849, 2000.849
1097.332, 2004.217
1097.814, 2012.707
1098.296, 2024.781
1098.778, 2039.816
1099.260, 2050.121
1099.742, 2044.307
1100.224, 2031.708
1100.706, 2035.296
1101.188, 2046.815
1101.671, 2042.580
1102.153, 2025.785
1102.635, 2015.053
1103.117, 2015.760
1103.599, 2020.575
1104.081, 2024.407
1104.563, 2030.511
1105.045, 2047.767
1105.528, 2064.350
1106.010, 2064.488
1106.492, 2054.698
1106.974, 2044.732
1107.456, 2037.626
1107.938, 2037.088
1108.420, 2046.732
1108.902, 2053.479
1109.385, 2047.137
1109.867, 2040.483
1110.349, 2040.275
1110.831, 2043.727
1111.313, 2052.263
1111.795, 2060.974
1112.277, 2056.611
1112.759, 2034.341
1113.241, 2021.784
1113.724, 2026.210
1114.206, 2035.094
1114.688, 2055.882
1115.170, 2069.252
1115.652, 2063.434
1116.134, 2046.367
1116.616, 2024.926
1117.098, 2000.701
1117.580, 1996.721
1118.063, 2020.043
1118.545, 2039.488
1119.027, 2053.966
1119.509, 2061.173
1119.991, 2058.371
1120.473, 2056.383
1120.955, 2066.634
1121.437, 2080.807
1121.920, 2073.010
1122.402, 2046.472
1122.884, 2047.098
1123.366, 2072.509
1123.848, 2085.553
1124.330, 2079.742
1124.812, 2076.248
1125.294, 2087.092
1125.776, 2098.721
1126.259, 2089.328
1126.741, 2073.721
1127.223, 2085.142
1127.705, 2108.300
1128.187, 2111.478
1128.669, 2096.782
1129.151, 2078.150
1129.633, 2061.436
1130.115, 2056.755
1130.598, 2076.825
1131.080, 2098.795
1131.562, 2111.454
1132.044, 2114.125
1132.526, 2099.064
1133.008, 2078.057
1133.490, 2065.858
1133.972, 2063.439
1134.455, 2065.285
1134.937, 2070.813
1135.419, 2078.640
1135.901, 2093.777
1136.383, 2103.976
1136.865, 2100.771
1137.347, 2095.778
1137.829, 2095.314
1138.312, 2099.902
1138.794, 2113.419
1139.276, 2136.940
1139.758, 2140.538
1140.240, 2115.446
1140.722, 2101.694
1141.204, 2105.806
1141.686, 2112.575
1142.168, 2116.470
1142.651, 2117.406
1143.133, 2115.795
1143.615, 2110.195
1144.097, 2090.664
1144.579, 2062.011
1145.061, 2061.798
1145.543, 2085.883
1146.025, 2098.374
1146.507, 2092.859
1146.990, 2089.374
1147.472, 2099.687
1147.954, 2108.562
1148.436, 2094.667
1148.918, 2073.634
1149.400, 2060.300
1149.882, 2057.542
1150.364, 2079.653
1150.847, 2113.171
1151.329, 2122.309
1151.811, 2100.735
1152.293, 2085.672
1152.775, 2101.190
1153.257, 2113.617
1153.739, 2102.593
1154.221, 2091.864
1154.703, 2099.098
1155.186, 2111.507
1155.668, 2114.901
1156.150, 2109.988
1156.632, 2102.726
1157.114, 2092.077
1157.596, 2083.585
1158.078, 2076.431
1158.560, 2073.223
1159.042, 2074.365
1159.525, 2080.872
1160.007, 2096.602
1160.489, 2109.407
1160.971, 2099.632
1161.453, 2073.893
1161.935, 2066.353
1162.417, 2075.433
1162.899, 2078.758
1163.382, 2075.952
1163.864, 2084.526
1164.346, 2107.646
1164.828, 2119.249
1165.310, 2099.601
1165.792, 2071.203
1166.274, 2058.348
1166.756, 2056.596
1167.238, 2065.527
1167.721, 2077.826
1168.203, 2080.835
1168.685, 2076.594
1169.167, 2075.036
1169.649, 2078.821
1170.131, 2081.680
1170.613, 2081.840
1171.095, 2079.043
1171.578, 2069.273
1172.060, 2060.971
1172.542, 2059.111
1173.024, 2061.528
1173.506, 2069.514
1173.988, 2079.547
1174.470, 2075.573
1174.952, 2050.235
1175.434, 2041.555
1175.917, 2056.407
1176.399, 2065.203
1176.881, 2060.910
1177.363, 2054.686
1177.845, 2052.018
1178.327, 2053.757
1178.809, 2062.886
1179.291, 2074.900
1179.773, 2073.253
1180.256, 2061.565
1180.738, 2055.199
1181.220, 2053.800
1181.702, 2048.572
1182.184, 2038.899
1182.666, 2035.614
1183.148, 2045.630
1183.630, 2059.152
1184.113, 2071.994
1184.595, 2079.902
1185.077, 2076.630
1185.559, 2068.472
1186.041, 2061.687
1186.523, 2056.086
1187.005, 2048.703
1187.487, 2039.265
1187.969, 2034.605
1188.452, 2040.407
1188.934, 2043.763
1189.416, 2036.940
1189.898, 2038.014
1190.380, 2058.299
1190.862, 2079.139
1191.344, 2084.176
1191.826, 2080.760
1192.308, 2086.178
1192.791, 2099.863
1193.273, 2105.816
1193.755, 2104.288
1194.237, 2101.943
1194.719, 2099.866
1195.201, 2099.475
1195.683, 2101.365
1196.165, 2107.086
1196.648, 2120.588
1197.130, 2130.332
1197.612, 2112.750
1198.094, 2089.856
1198.576, 2093.024
1199.058, 2110.192
1199.540, 2121.239
1200.022, 2125.502
1200.505, 2131.238
1200.987, 2140.777
1201.469, 2148.322
1201.951, 2152.339
1202.433, 2153.731
1202.915, 2147.903
1203.397, 2145.531
1203.879, 2152.262
1204.361, 2164.292
1204.844, 2180.839
1205.326, 2197.856
1205.808, 2200.629
1206.290, 2187.675
1206.772, 2178.226
1207.254, 2172.166
1207.736, 2175.657
1208.218, 2189.378
1208.700, 2199.542
1209.183, 2199.825
1209.665, 2198.833
1210.147, 2204.538
1210.629, 2214.316
1211.111, 2225.572
1211.593, 2237.483
1212.075, 2249.326
1212.557, 2260.546
1213.040, 2269.244
1213.522, 2276.502
1214.004, 2285.985
1214.486, 2298.354
1214.968, 2315.888
1215.450, 2354.117
1215.932, 2375.803
1216.414, 2358.700
1216.896, 2337.637
1217.379, 2326.531
1217.861, 2322.382
1218.343, 2321.956
1218.825, 2325.937
1219.307, 2338.958
1219.789, 2362.144
1220.271, 2372.865
1220.753, 2371.296
1221.235, 2364.809
1221.718, 2355.670
1222.200, 2354.135
1222.682, 2364.734
1223.164, 2383.361
1223.646, 2410.907
1224.128, 2434.669
1224.610, 2432.546
1225.092, 2424.305
1225.575, 2433.988
1226.057, 2452.788
1226.539, 2470.242
1227.021, 2482.275
1227.503, 2480.109
1227.985, 2458.739
1228.467, 2449.931
1228.949, 2464.707
1229.432, 2484.133
1229.914, 2510.960
1230.396, 2532.497
1230.878, 2541.530
1231.360, 2546.923
1231.842, 2552.843
1232.324, 2569.259
1232.806, 2639.646
1233.288, 2747.479
1233.771, 2750.291
1234.253, 2670.733
1234.735, 2615.002
1235.217, 2595.865
1235.699, 2596.636
1236.181, 2608.988
1236.663, 2615.522
1237.145, 2600.167
1237.627, 2588.493
1238.110, 2602.899
1238.592, 2623.706
1239.074, 2638.766
1239.556, 2651.178
1240.038, 2660.926
1240.520, 2672.256
1241.002, 2697.720
1241.484, 2737.562
1241.967, 2763.195
1242.449, 2772.937
1242.931, 2771.497
1243.413, 2754.600
1243.895, 2752.816
1244.377, 2775.856
1244.859, 2804.745
1245.341, 2827.090
1245.823, 2845.195
1246.306, 2863.947
1246.788, 2879.253
1247.270, 2881.135
1247.752, 2875.109
1248.234, 2865.464
1248.716, 2857.979
1249.198, 2866.249
1249.680, 2888.110
1250.162, 2901.502
1250.645, 2896.951
1251.127, 2894.421
1251.609, 2896.446
1252.091, 2905.334
1252.573, 2929.835
1253.055, 2948.670
1253.537, 2949.314
1254.019, 2943.785
1254.502, 2945.274
1254.984, 2951.698
1255.466, 2960.201
1255.948, 2968.629
1256.430, 2952.477
1256.912, 2917.603
1257.394, 2892.420
1257.876, 2881.611
1258.358, 2886.413
1258.841, 2904.979
1259.323, 2909.994
1259.805, 2873.903
1260.287, 2841.201
1260.769, 2849.196
1261.251, 2859.562
1261.733, 2845.324
1262.215, 2823.084
1262.698, 2810.138
1263.180, 2801.705
1263.662, 2786.983
1264.144, 2766.111
1264.626, 2737.608
1265.108, 2696.773
1265.590, 2685.122
1266.072, 2706.101
1266.554, 2716.792
1267.036, 2706.453
1267.519, 2690.540
##END=



