##NAMES=Hydroboracite
##RRUFFID=R060713
##IDEAL CHEMISTRY=CaMg[B_3_O_4_(OH)_3_]_2_&#183;3H_2_O
##LOCALITY=Sijes, Salta Province, Argentina
##OWNER=RRUFF
##SOURCE=Bob Jenkins
##DESCRIPTION=Divergent groups of colorless bladed crystals that lie somewhat parallel with each other
##STATUS=The identification of this mineral is confirmed by single-crystal X-ray diffraction and chemical analysis.
##URL=rruff.info/R060713
##MEASURED CHEMISTRY=(Ca_0.93_Mg_0.07_)_Σ=1_Mg_1.00_B_6_O_8_(OH)_6_·3H_2_O ; B, H not measured but estimated by stoichiometry
167.329, 63832.578
167.811, 64256.660
168.293, 64622.910
168.775, 64937.410
169.257, 65218.090
169.739, 65470.031
170.221, 65658.781
170.703, 65723.391
171.185, 65656.109
171.668, 65585.344
172.150, 65538.727
172.632, 65497.238
173.114, 65425.660
173.596, 65311.680
174.078, 65208.500
174.560, 65189.199
175.042, 65253.289
175.525, 65329.480
176.007, 65412.602
176.489, 65497.160
176.971, 65570.367
177.453, 65626.797
177.935, 65686.539
178.417, 65771.109
178.899, 65877.820
179.381, 66009.688
179.863, 66157.508
180.346, 66332.508
180.828, 66563.156
181.310, 66862.273
181.792, 67182.906
182.274, 67493.438
182.756, 67796.969
183.238, 68014.070
183.721, 68101.258
184.203, 68092.211
184.685, 68032.852
185.167, 67924.367
185.649, 67786.742
186.131, 67636.297
186.613, 67474.672
187.095, 67301.719
187.577, 67080.297
188.059, 66855.297
188.542, 66708.156
189.024, 66657.750
189.506, 66665.148
189.988, 66720.531
190.470, 66815.477
190.952, 66876.461
191.434, 66842.883
191.917, 66769.969
192.399, 66754.727
192.881, 66817.609
193.363, 66919.031
193.845, 67032.828
194.327, 67157.047
194.809, 67275.188
195.291, 67385.383
195.773, 67486.812
196.255, 67580.047
196.738, 67668.391
197.220, 67740.344
197.702, 67781.492
198.184, 67797.242
198.666, 67795.141
199.148, 67736.703
199.630, 67673.430
200.112, 67703.898
200.595, 67857.133
201.077, 68031.938
201.559, 68137.547
202.041, 68188.633
202.523, 68222.844
203.005, 68271.227
203.487, 68301.156
203.969, 68238.156
204.452, 68051.562
204.934, 67877.969
205.416, 67864.383
205.898, 67965.242
206.380, 68044.656
206.862, 68067.328
207.344, 68050.000
207.826, 68003.070
208.308, 67920.344
208.790, 67847.047
209.273, 67823.062
209.755, 67837.883
210.237, 67864.883
210.719, 67890.203
211.201, 67928.906
211.683, 68007.773
212.165, 68131.492
212.648, 68255.758
213.130, 68338.719
213.612, 68397.023
214.094, 68479.727
214.576, 68623.547
215.058, 68778.367
215.540, 68892.062
216.022, 68962.906
216.504, 69025.078
216.986, 69102.922
217.469, 69189.219
217.951, 69262.422
218.433, 69331.211
218.915, 69379.297
219.397, 69381.750
219.879, 69340.742
220.361, 69300.453
220.844, 69275.383
221.326, 69275.281
221.808, 69317.523
222.290, 69469.203
222.772, 69597.453
223.254, 69576.898
223.736, 69427.289
224.218, 69295.359
224.700, 69257.727
225.182, 69289.727
225.665, 69310.477
226.147, 69313.844
226.629, 69313.000
227.111, 69320.820
227.593, 69331.898
228.075, 69322.867
228.557, 69275.320
229.040, 69207.711
229.522, 69160.203
230.004, 69112.906
230.486, 69115.578
230.968, 69219.047
231.450, 69391.867
231.932, 69552.391
232.414, 69668.492
232.896, 69759.227
233.378, 69864.969
233.861, 69991.102
234.343, 70114.594
234.825, 70226.062
235.307, 70331.062
235.789, 70435.297
236.271, 70539.047
236.753, 70651.281
237.235, 70788.703
237.718, 70952.883
238.200, 71130.602
238.682, 71332.547
239.164, 71543.422
239.646, 71754.039
240.128, 71964.953
240.610, 72150.117
241.092, 72275.203
241.574, 72336.727
242.057, 72347.523
242.539, 72302.359
243.021, 72211.328
243.503, 72077.070
243.985, 71902.422
244.467, 71701.102
244.949, 71482.477
245.431, 71237.906
245.913, 71029.477
246.396, 70865.078
246.878, 70729.938
247.360, 70615.328
247.842, 70520.477
248.324, 70451.633
248.806, 70415.148
249.288, 70413.391
249.770, 70422.703
250.253, 70409.344
250.735, 70433.781
251.217, 70557.719
251.699, 70750.648
252.181, 70916.062
252.663, 70975.859
253.145, 70937.977
253.627, 70981.188
254.109, 71156.922
254.592, 71344.383
255.074, 71501.797
255.556, 71645.844
256.038, 71816.188
256.520, 72038.188
257.002, 72294.906
257.484, 72512.477
257.966, 72680.727
258.449, 72816.156
258.931, 72953.344
259.413, 73048.180
259.895, 73037.523
260.377, 72893.977
260.859, 72660.094
261.341, 72434.469
261.823, 72238.094
262.306, 72017.891
262.788, 71718.797
263.270, 71426.188
263.752, 71224.523
264.234, 71133.047
264.716, 71094.320
265.198, 71017.023
265.680, 70863.688
266.162, 70762.727
266.645, 70769.977
267.127, 70782.789
267.609, 70728.562
268.091, 70607.641
268.573, 70482.047
269.055, 70421.547
269.537, 70437.570
270.019, 70449.227
270.501, 70466.883
270.984, 70470.328
271.466, 70437.219
271.948, 70379.859
272.430, 70335.172
272.912, 70339.883
273.394, 70386.688
273.876, 70397.703
274.358, 70330.531
274.841, 70283.672
275.323, 70290.773
275.805, 70341.883
276.287, 70421.953
276.769, 70530.867
277.251, 70656.312
277.733, 70766.117
278.215, 70852.008
278.698, 70941.008
279.180, 71052.047
279.662, 71168.727
280.144, 71271.547
280.626, 71351.570
281.108, 71422.367
281.590, 71498.430
282.072, 71579.500
282.554, 71671.609
283.036, 71792.930
283.519, 71915.891
284.001, 72019.156
284.483, 72104.961
284.965, 72151.203
285.447, 72126.109
285.929, 72041.109
286.411, 71960.344
286.893, 71910.641
287.376, 71853.812
287.858, 71731.109
288.340, 71541.133
288.822, 71379.602
289.304, 71318.961
289.786, 71305.031
290.268, 71235.469
290.750, 71087.719
291.233, 70922.453
291.715, 70798.492
292.197, 70714.242
292.679, 70633.320
293.161, 70548.992
293.643, 70468.617
294.125, 70398.188
294.607, 70337.969
295.089, 70281.383
295.572, 70209.539
296.054, 70134.180
296.536, 70156.227
297.018, 70367.047
297.500, 70571.406
297.982, 70663.023
298.464, 70676.703
298.946, 70702.906
299.428, 70788.750
299.911, 70914.039
300.393, 71015.273
300.875, 71080.094
301.357, 71134.297
301.839, 71151.633
302.321, 71171.031
302.803, 71249.969
303.285, 71405.383
303.767, 71585.672
304.250, 71708.688
304.732, 71758.594
305.214, 71777.523
305.696, 71766.273
306.178, 71729.398
306.660, 71646.297
307.142, 71530.797
307.625, 71438.797
308.107, 71436.008
308.589, 71536.773
309.071, 71595.992
309.553, 71612.203
310.035, 71584.602
310.517, 71490.422
310.999, 71351.812
311.481, 71206.906
311.964, 71074.750
312.446, 70960.203
312.928, 70886.383
313.410, 70880.758
313.892, 70869.383
314.374, 70809.117
314.856, 70742.258
315.338, 70717.211
315.820, 70753.141
316.303, 70825.102
316.785, 70915.000
317.267, 71031.578
317.749, 71100.500
318.231, 71048.930
318.713, 70982.547
319.195, 70996.523
319.677, 71100.242
320.159, 71214.219
320.642, 71276.133
321.124, 71300.648
321.606, 71345.633
322.088, 71425.547
322.570, 71513.328
323.052, 71576.578
323.534, 71620.773
324.016, 71682.227
324.499, 71787.578
324.981, 71905.688
325.463, 72014.703
325.945, 72112.070
326.427, 72155.352
326.909, 72098.273
327.391, 71958.000
327.873, 71855.703
328.355, 71816.141
328.838, 71788.133
329.320, 71762.398
329.802, 71731.008
330.284, 71674.453
330.766, 71583.359
331.248, 71466.531
331.730, 71340.797
332.212, 71171.953
332.694, 71050.797
333.177, 71015.828
333.659, 71014.328
334.141, 71003.594
334.623, 70972.352
335.105, 70923.438
335.587, 70858.172
336.069, 70773.961
336.552, 70687.703
337.034, 70600.828
337.516, 70512.422
337.998, 70417.023
338.480, 70319.242
338.962, 70225.461
339.444, 70135.547
339.926, 70055.773
340.408, 70030.094
340.891, 70114.438
341.373, 70166.617
341.855, 70136.594
342.337, 70066.273
342.819, 69994.633
343.301, 69932.641
343.783, 69892.203
344.265, 69902.820
344.747, 69974.523
345.230, 70017.523
345.712, 69972.359
346.194, 69924.758
346.676, 69943.461
347.158, 70029.547
347.640, 70129.906
348.122, 70225.602
348.604, 70310.297
349.086, 70364.977
349.569, 70384.891
350.051, 70384.094
350.533, 70355.461
351.015, 70311.680
351.497, 70298.438
351.979, 70364.562
352.461, 70433.430
352.944, 70433.180
353.426, 70374.227
353.908, 70317.961
354.390, 70298.180
354.872, 70301.227
355.354, 70284.523
355.836, 70258.094
356.318, 70203.008
356.800, 70077.656
357.283, 69936.523
357.765, 69862.953
358.247, 69875.602
358.729, 69906.648
359.211, 69865.383
359.693, 69728.133
360.175, 69596.352
360.657, 69427.000
361.139, 69301.961
361.622, 69296.383
362.104, 69375.852
362.586, 69438.578
363.068, 69406.523
363.550, 69299.812
364.032, 69247.547
364.514, 69309.422
364.996, 69337.172
365.478, 69238.859
365.961, 69121.461
366.443, 69112.281
366.925, 69255.508
367.407, 69450.180
367.889, 69558.242
368.371, 69571.633
368.853, 69600.477
369.335, 69674.727
369.818, 69757.469
370.300, 69815.273
370.782, 69851.797
371.264, 69898.508
371.746, 69983.461
372.228, 70085.656
372.710, 70163.172
373.192, 70209.594
373.674, 70259.031
374.157, 70350.023
374.639, 70460.227
375.121, 70513.867
375.603, 70469.352
376.085, 70408.539
376.567, 70357.477
377.049, 70322.891
377.531, 70328.508
378.013, 70387.781
378.496, 70469.242
378.978, 70518.922
379.460, 70538.977
379.942, 70514.453
380.424, 70389.422
380.906, 70259.812
381.388, 70200.812
381.871, 70213.773
382.353, 70256.172
382.835, 70294.930
383.317, 70330.312
383.799, 70353.344
384.281, 70367.211
384.763, 70364.797
385.245, 70335.344
385.727, 70292.906
386.210, 70259.383
386.692, 70244.930
387.174, 70228.727
387.656, 70163.703
388.138, 70032.570
388.620, 69949.250
389.102, 69976.117
389.584, 70022.094
390.066, 70022.172
390.549, 69977.953
391.031, 69933.031
391.513, 69912.273
391.995, 69907.953
392.477, 69899.594
392.959, 69882.594
393.441, 69882.883
393.923, 69928.367
394.405, 70004.211
394.888, 70059.039
395.370, 70092.094
395.852, 70101.656
396.334, 70066.383
396.816, 70007.773
397.298, 69977.094
397.780, 69994.023
398.263, 70028.117
398.745, 70029.898
399.227, 69977.047
399.709, 69942.977
400.191, 69952.594
400.673, 69959.031
401.155, 69933.273
401.637, 69876.070
402.119, 69801.289
402.602, 69717.992
403.084, 69627.500
403.566, 69542.758
404.048, 69492.633
404.530, 69403.344
405.012, 69228.781
405.494, 69030.047
405.976, 68867.883
406.458, 68758.156
406.941, 68677.891
407.423, 68609.742
407.905, 68553.680
408.387, 68476.547
408.869, 68338.727
409.351, 68233.773
409.833, 68268.531
410.315, 68401.523
410.797, 68480.242
411.280, 68391.500
411.762, 68262.633
412.244, 68238.531
412.726, 68311.023
413.208, 68394.477
413.690, 68451.023
414.172, 68485.617
414.654, 68508.477
415.137, 68506.000
415.619, 68517.500
416.101, 68566.844
416.583, 68623.477
417.065, 68656.023
417.547, 68659.594
418.029, 68650.359
418.511, 68648.594
418.993, 68657.680
419.476, 68616.102
419.958, 68465.203
420.440, 68326.852
420.922, 68217.703
421.404, 68143.930
421.886, 68122.148
422.368, 68162.531
422.850, 68220.344
423.332, 68210.883
423.815, 68119.062
424.297, 68071.352
424.779, 68147.203
425.261, 68214.430
425.743, 68161.523
426.225, 68005.227
426.707, 67861.891
427.190, 67798.703
427.672, 67775.250
428.154, 67733.844
428.636, 67672.602
429.118, 67609.398
429.600, 67552.969
430.082, 67502.047
430.564, 67450.953
431.046, 67386.680
431.529, 67343.383
432.011, 67353.344
432.493, 67378.469
432.975, 67364.477
433.457, 67304.352
433.939, 67244.188
434.421, 67237.320
434.903, 67292.547
435.385, 67311.273
435.868, 67261.633
436.350, 67210.281
436.832, 67168.023
437.314, 67137.688
437.796, 67122.156
438.278, 67123.547
438.760, 67134.789
439.242, 67142.727
439.724, 67145.406
440.207, 67163.883
440.689, 67229.383
441.171, 67281.047
441.653, 67255.969
442.135, 67169.250
442.617, 67110.531
443.099, 67136.547
443.581, 67199.328
444.064, 67243.094
444.546, 67266.281
445.028, 67273.047
445.510, 67262.500
445.992, 67238.852
446.474, 67213.672
446.956, 67184.648
447.438, 67157.820
447.921, 67153.742
448.403, 67140.477
448.885, 67075.906
449.367, 66962.617
449.849, 66848.008
450.331, 66774.477
450.813, 66741.633
451.295, 66714.477
451.777, 66713.172
452.259, 66693.203
452.742, 66633.359
453.224, 66558.094
453.706, 66493.727
454.188, 66448.828
454.670, 66411.078
455.152, 66364.750
455.634, 66311.281
456.116, 66266.727
456.599, 66228.844
457.081, 66206.242
457.563, 66219.930
458.045, 66255.453
458.527, 66270.289
459.009, 66250.680
459.491, 66210.742
459.973, 66136.750
460.456, 66048.344
460.938, 66005.992
461.420, 66035.773
461.902, 66099.188
462.384, 66131.172
462.866, 66111.406
463.348, 66112.602
463.830, 66171.711
464.312, 66217.727
464.795, 66199.000
465.277, 66134.547
465.759, 66077.094
466.241, 66058.750
466.723, 66066.820
467.205, 66064.062
467.687, 66042.758
468.169, 66037.156
468.651, 66090.789
469.134, 66136.023
469.616, 66106.992
470.098, 66006.461
470.580, 65924.180
471.062, 65937.383
471.544, 65987.297
472.026, 65974.727
472.508, 65894.977
472.991, 65796.523
473.473, 65697.633
473.955, 65604.633
474.437, 65542.977
474.919, 65520.520
475.401, 65508.801
475.883, 65516.512
476.365, 65524.430
476.848, 65509.660
477.330, 65472.391
477.812, 65434.020
478.294, 65414.852
478.776, 65413.469
479.258, 65403.371
479.740, 65374.270
480.222, 65353.410
480.704, 65353.520
481.186, 65361.789
481.669, 65359.949
482.151, 65343.719
482.633, 65341.461
483.115, 65396.762
483.597, 65488.891
484.079, 65531.770
484.561, 65504.078
485.043, 65483.031
485.526, 65549.062
486.008, 65671.102
486.490, 65701.344
486.972, 65539.406
487.454, 65396.730
487.936, 65373.430
488.418, 65411.730
488.900, 65432.680
489.383, 65414.730
489.865, 65375.500
490.347, 65332.340
490.829, 65283.160
491.311, 65246.750
491.793, 65233.840
492.275, 65222.039
492.757, 65216.250
493.239, 65204.359
493.722, 65165.398
494.204, 65089.879
494.686, 65010.449
495.168, 64977.328
495.650, 64981.121
496.132, 64939.012
496.614, 64827.629
497.096, 64697.949
497.578, 64588.270
498.061, 64495.910
498.543, 64410.629
499.025, 64297.262
499.507, 64226.500
499.989, 64279.090
500.471, 64389.871
500.953, 64434.922
501.435, 64376.410
501.918, 64274.840
502.400, 64195.840
502.882, 64117.301
503.364, 64181.410
503.846, 64077.648
504.328, 64231.051
504.810, 64322.031
505.292, 64353.938
505.775, 64149.855
506.257, 64246.371
506.739, 64212.641
507.221, 64115.469
507.703, 63969.879
508.185, 63929.449
508.667, 64062.789
509.149, 64202.641
509.631, 64178.410
510.114, 64021.871
510.596, 63927.031
511.078, 63950.352
511.560, 63996.629
512.042, 64020.371
512.524, 64033.371
513.006, 64059.570
513.488, 64105.672
513.971, 64158.711
514.453, 64207.680
514.935, 64261.270
515.417, 64253.070
515.899, 64084.590
516.381, 63963.309
516.863, 63990.590
517.345, 64089.449
517.827, 64144.859
518.310, 64114.469
518.792, 64061.430
519.274, 64057.211
519.756, 64089.180
520.238, 64086.641
520.720, 64024.578
521.202, 63982.859
521.684, 64044.730
522.166, 64196.461
522.649, 64290.480
523.131, 64275.129
523.613, 64262.430
524.095, 64290.340
524.577, 64344.949
525.059, 64422.762
525.541, 64516.160
526.023, 64585.809
526.505, 64586.430
526.988, 64517.531
527.470, 64429.969
527.952, 64322.141
528.434, 64199.570
528.916, 64059.469
529.398, 63909.941
529.880, 63750.781
530.362, 63577.301
530.844, 63435.398
531.327, 63373.711
531.809, 63363.672
532.291, 63339.641
532.773, 63293.980
533.255, 63258.410
533.737, 63262.148
534.219, 63292.320
534.701, 63279.148
535.184, 63153.512
535.666, 63078.609
536.148, 63109.980
536.630, 63174.199
537.112, 63215.148
537.594, 63222.172
538.076, 63204.910
538.558, 63168.078
539.041, 63114.238
539.523, 63049.930
540.005, 62965.660
540.487, 62901.859
540.969, 62872.871
541.451, 62870.559
541.933, 62892.340
542.415, 62940.141
542.898, 62977.770
543.380, 62974.910
543.862, 62968.738
544.344, 63000.320
544.826, 63065.270
545.308, 63134.789
545.790, 63194.672
546.272, 63250.230
546.754, 63312.148
547.237, 63379.391
547.719, 63457.328
548.201, 63528.578
548.683, 63626.301
549.165, 63772.922
549.647, 63958.590
550.129, 64186.770
550.611, 64514.988
551.093, 64753.102
551.576, 64567.641
552.058, 64013.898
552.540, 63536.270
553.022, 63234.320
553.504, 63038.750
553.986, 62906.250
554.468, 62839.141
554.950, 62733.301
555.432, 62510.539
555.915, 62337.441
556.397, 62316.270
556.879, 62368.160
557.361, 62389.629
557.843, 62352.078
558.325, 62287.078
558.807, 62217.988
559.289, 62146.289
559.771, 62135.012
560.254, 62222.840
560.736, 62293.730
561.218, 62262.512
561.700, 62203.621
562.182, 62207.090
562.664, 62292.551
563.146, 62382.090
563.628, 62441.898
564.111, 62480.711
564.593, 62503.629
565.075, 62513.762
565.557, 62527.641
566.039, 62559.148
566.521, 62592.352
567.003, 62579.262
567.485, 62513.961
567.968, 62410.020
568.450, 62223.012
568.932, 62043.199
569.414, 61941.879
569.896, 61893.301
570.378, 61814.078
570.860, 61646.191
571.342, 61457.699
571.825, 61350.219
572.307, 61311.660
572.789, 61254.090
573.271, 61153.762
573.753, 61037.262
574.235, 60922.730
574.717, 60810.109
575.199, 60742.070
575.681, 60751.531
576.164, 60764.219
576.646, 60754.309
577.128, 60734.840
577.610, 60726.422
578.092, 60731.820
578.574, 60729.531
579.056, 60677.789
579.538, 60593.129
580.020, 60604.531
580.503, 60745.859
580.985, 60867.699
581.467, 60918.531
581.949, 60903.570
582.431, 60826.410
582.913, 60669.371
583.395, 60537.430
583.877, 60464.629
584.360, 60424.590
584.842, 60402.430
585.324, 60392.852
585.806, 60393.949
586.288, 60406.141
586.770, 60410.559
587.252, 60360.660
587.734, 60234.480
588.216, 60146.199
588.699, 60119.961
589.181, 60111.410
589.663, 60114.449
590.145, 60115.660
590.627, 60084.199
591.109, 59994.762
591.591, 59911.961
592.073, 59896.539
592.555, 59913.379
593.038, 59897.441
593.520, 59839.578
594.002, 59767.309
594.484, 59697.879
594.966, 59635.621
595.448, 59608.609
595.930, 59630.191
596.412, 59666.160
596.895, 59736.711
597.377, 59799.590
597.859, 59815.699
598.341, 59793.930
598.823, 59779.660
599.305, 59800.809
599.787, 59838.219
600.269, 59878.199
600.752, 59915.980
601.234, 59922.320
601.716, 59885.461
602.198, 59835.031
602.680, 59804.230
603.162, 59795.461
603.644, 59781.441
604.126, 59750.738
604.609, 59729.930
605.091, 59736.750
605.573, 59750.590
606.055, 59743.570
606.537, 59713.391
607.019, 59690.219
607.501, 59717.289
607.983, 59767.031
608.465, 59757.328
608.948, 59685.430
609.430, 59616.102
609.912, 59579.090
610.394, 59551.371
610.876, 59491.301
611.358, 59382.078
611.840, 59304.980
612.322, 59295.379
612.804, 59283.270
613.287, 59226.680
613.769, 59147.391
614.251, 59086.520
614.733, 59057.770
615.215, 59032.859
615.697, 58981.199
616.179, 58904.930
616.661, 58810.461
617.143, 58691.648
617.626, 58586.430
618.108, 58515.051
618.590, 58470.512
619.072, 58441.281
619.554, 58436.480
620.036, 58418.090
620.518, 58357.469
621.000, 58300.301
621.482, 58297.059
621.965, 58322.422
622.447, 58308.930
622.929, 58223.199
623.411, 58110.340
623.893, 58042.930
624.375, 58020.719
624.857, 57974.480
625.339, 57875.531
625.822, 57812.109
626.304, 57877.199
626.786, 58010.871
627.268, 58048.121
627.750, 57942.820
628.232, 57833.680
628.714, 57739.570
629.196, 57670.141
629.679, 57644.141
630.161, 57651.641
630.643, 57660.230
631.125, 57651.301
631.607, 57635.828
632.089, 57639.320
632.571, 57664.289
633.053, 57673.070
633.536, 57657.020
634.018, 57631.262
634.500, 57597.609
634.982, 57562.410
635.464, 57543.629
635.946, 57537.090
636.428, 57555.211
636.910, 57628.051
637.392, 57709.559
637.875, 57764.051
638.357, 57782.219
638.839, 57753.430
639.321, 57665.059
639.803, 57545.020
640.285, 57459.930
640.767, 57413.430
641.249, 57364.480
641.731, 57312.602
642.214, 57246.711
642.696, 57134.059
643.178, 56999.320
643.660, 56924.422
644.142, 56959.781
644.624, 56992.410
645.106, 57014.941
645.588, 56997.250
646.070, 56868.391
646.553, 56657.551
647.035, 56499.531
647.517, 56494.328
647.999, 56572.781
648.481, 56564.930
648.963, 56459.141
649.445, 56393.559
649.927, 56400.488
650.409, 56434.500
650.892, 56471.172
651.374, 56506.590
651.856, 56523.672
652.338, 56508.488
652.820, 56491.359
653.302, 56481.398
653.784, 56472.371
654.266, 56454.109
654.749, 56429.160
655.231, 56411.961
655.713, 56412.949
656.195, 56422.891
656.677, 56426.621
657.159, 56424.090
657.641, 56399.160
658.123, 56337.039
658.606, 56280.160
659.088, 56270.910
659.570, 56297.500
660.052, 56291.020
660.534, 56222.051
661.016, 56161.629
661.498, 56151.391
661.980, 56135.609
662.463, 56049.172
662.945, 55909.551
663.427, 55791.320
663.909, 55739.820
664.391, 55722.570
664.873, 55687.949
665.355, 55637.602
665.837, 55589.871
666.319, 55549.809
666.802, 55500.922
667.284, 55413.879
667.766, 55308.910
668.248, 55288.738
668.730, 55437.641
669.212, 55543.422
669.694, 55584.609
670.176, 55581.359
670.658, 55519.289
671.141, 55426.250
671.623, 55366.059
672.105, 55374.590
672.587, 55401.988
673.069, 55376.512
673.551, 55317.148
674.033, 55310.211
674.515, 55370.172
674.997, 55405.680
675.480, 55348.730
675.962, 55231.230
676.444, 55154.570
676.926, 55133.219
677.408, 55129.480
677.890, 55181.891
678.372, 55212.102
678.854, 55180.699
679.336, 55098.441
679.819, 54978.391
680.301, 54813.922
680.783, 54671.602
681.265, 54616.500
681.747, 54616.730
682.229, 54632.219
682.711, 54652.590
683.193, 54635.051
683.676, 54552.410
684.158, 54437.148
684.640, 54356.980
685.122, 54321.789
685.604, 54287.379
686.086, 54243.852
686.568, 54214.398
687.050, 54217.551
687.532, 54235.398
688.015, 54244.961
688.497, 54243.141
688.979, 54231.180
689.461, 54214.570
689.943, 54184.641
690.425, 54111.789
690.907, 54018.422
691.390, 53974.660
691.872, 54006.410
692.354, 54057.430
692.836, 54044.270
693.318, 53967.660
693.800, 53930.480
694.282, 53941.789
694.764, 53967.211
695.246, 54004.711
695.729, 54040.520
696.211, 54059.941
696.693, 54063.691
697.175, 54041.801
697.657, 53971.738
698.139, 53897.922
698.621, 53834.340
699.103, 53784.840
699.585, 53765.398
700.068, 53772.398
700.550, 53763.270
701.032, 53688.000
701.514, 53579.559
701.996, 53536.199
702.478, 53556.941
702.960, 53531.219
703.442, 53413.141
703.924, 53294.309
704.407, 53279.012
704.889, 53363.820
705.371, 53378.641
705.853, 53264.148
706.335, 53161.129
706.817, 53071.461
707.299, 53011.781
707.781, 53012.051
708.263, 53056.301
708.746, 53088.320
709.228, 53079.871
709.710, 53054.301
710.192, 53037.809
710.674, 53020.672
711.156, 52963.930
711.638, 52869.191
712.120, 52815.609
712.603, 52865.922
713.085, 52976.281
713.567, 53009.672
714.049, 52929.879
714.531, 52895.211
715.013, 52953.070
715.495, 53008.820
715.977, 53019.730
716.459, 52992.102
716.942, 52923.109
717.424, 52782.109
717.906, 52699.941
718.388, 52795.109
718.870, 52906.750
719.352, 52886.121
719.834, 52771.801
720.317, 52666.449
720.799, 52611.090
721.281, 52596.141
721.763, 52638.070
722.245, 52717.469
722.727, 52702.129
723.209, 52577.898
723.691, 52484.301
724.173, 52485.930
724.656, 52524.980
725.138, 52521.141
725.620, 52467.469
726.102, 52420.309
726.584, 52392.320
727.066, 52355.520
727.548, 52284.879
728.030, 52215.559
728.513, 52194.191
728.995, 52215.488
729.477, 52218.891
729.959, 52152.199
730.441, 52075.051
730.923, 52046.660
731.405, 52056.031
731.887, 52082.102
732.369, 52119.191
732.852, 52163.039
733.334, 52213.480
733.816, 52260.691
734.298, 52268.781
734.780, 52227.609
735.262, 52184.930
735.744, 52138.141
736.226, 52101.320
736.708, 52085.090
737.191, 52085.012
737.673, 52094.051
738.155, 52123.961
738.637, 52134.391
739.119, 52079.852
739.601, 52036.898
740.083, 52080.422
740.565, 52173.020
741.047, 52228.480
741.530, 52217.609
742.012, 52204.520
742.494, 52263.922
742.976, 52367.539
743.458, 52439.141
743.940, 52480.129
744.422, 52538.539
744.904, 52634.789
745.386, 52738.270
745.869, 52805.391
746.351, 52833.750
746.833, 52893.430
747.315, 52994.398
747.797, 53109.031
748.279, 53235.309
748.761, 53368.969
749.244, 53511.309
749.726, 53659.109
750.208, 53800.219
750.690, 53923.680
751.172, 54048.809
751.654, 54179.371
752.136, 54321.289
752.618, 54500.469
753.100, 54700.750
753.583, 54872.000
754.065, 54991.020
754.547, 55035.578
755.029, 54944.281
755.511, 54736.141
755.993, 54543.270
756.475, 54380.488
756.957, 54195.879
757.440, 53956.359
757.922, 53689.359
758.404, 53452.199
758.886, 53261.371
759.368, 53039.602
759.850, 52741.750
760.332, 52467.629
760.814, 52252.051
761.296, 52070.090
761.779, 51901.109
762.261, 51741.180
762.743, 51568.578
763.225, 51346.641
763.707, 51136.648
764.189, 50963.879
764.671, 50838.859
765.153, 50800.320
765.635, 50836.699
766.118, 50864.340
766.600, 50823.070
767.082, 50731.609
767.564, 50609.129
768.046, 50460.621
768.528, 50382.980
769.010, 50400.559
769.492, 50434.711
769.974, 50448.922
770.457, 50430.160
770.939, 50335.512
771.421, 50097.941
771.903, 49945.051
772.385, 49934.820
772.867, 49942.410
773.349, 49944.391
773.831, 49929.020
774.313, 49877.199
774.796, 49786.250
775.278, 49696.051
775.760, 49622.129
776.242, 49556.988
776.724, 49502.441
777.206, 49450.180
777.688, 49383.219
778.170, 49301.051
778.653, 49219.750
779.135, 49147.570
779.617, 49092.672
780.099, 49084.980
780.581, 49119.480
781.063, 49133.070
781.545, 49114.949
782.027, 49077.520
782.510, 49022.301
782.992, 48961.801
783.474, 48934.488
783.956, 48961.930
784.438, 48970.391
784.920, 48913.930
785.402, 48891.570
785.884, 48987.340
786.367, 49112.328
786.849, 49139.879
787.331, 49050.160
787.813, 48969.160
788.295, 48943.160
788.777, 48932.750
789.259, 48923.781
789.741, 48909.500
790.223, 48885.090
790.706, 48848.160
791.188, 48788.922
791.670, 48684.500
792.152, 48584.289
792.634, 48604.879
793.116, 48706.949
793.598, 48705.770
794.080, 48574.988
794.562, 48425.969
795.045, 48323.699
795.527, 48265.980
796.009, 48258.141
796.491, 48326.160
796.973, 48333.398
797.455, 48231.340
797.937, 48154.711
798.419, 48185.000
798.901, 48253.078
799.384, 48258.250
799.866, 48194.102
800.348, 48159.340
800.830, 48213.031
801.312, 48240.852
801.794, 48172.141
802.276, 48075.809
802.758, 48025.660
803.240, 48019.672
803.723, 48009.141
804.205, 47970.461
804.687, 47918.000
805.169, 47853.410
805.651, 47790.051
806.133, 47751.000
806.615, 47737.629
807.097, 47749.781
807.580, 47788.629
808.062, 47825.461
808.544, 47808.730
809.026, 47741.859
809.508, 47699.090
809.990, 47684.301
810.472, 47667.449
810.954, 47635.762
811.437, 47602.988
811.919, 47585.859
812.401, 47583.879
812.883, 47579.160
813.365, 47572.859
813.847, 47561.609
814.329, 47543.211
814.811, 47521.609
815.294, 47497.691
815.776, 47472.910
816.258, 47452.980
816.740, 47447.051
817.222, 47421.191
817.704, 47336.531
818.186, 47249.148
818.668, 47210.969
819.150, 47204.441
819.633, 47194.309
820.115, 47169.750
820.597, 47134.820
821.079, 47086.000
821.561, 47034.770
822.043, 47000.219
822.525, 46981.512
823.007, 46983.301
823.489, 47004.988
823.972, 47011.270
824.454, 46970.512
824.936, 46907.871
825.418, 46901.551
825.900, 46964.410
826.382, 46988.680
826.864, 46957.180
827.346, 46912.328
827.828, 46865.762
828.311, 46826.051
828.793, 46813.590
829.275, 46839.590
829.757, 46834.422
830.239, 46768.629
830.721, 46710.980
831.203, 46687.711
831.685, 46672.219
832.167, 46630.660
832.650, 46573.000
833.132, 46549.000
833.614, 46591.020
834.096, 46638.289
834.578, 46669.102
835.060, 46681.641
835.542, 46667.820
836.024, 46634.820
836.507, 46600.488
836.989, 46571.410
837.471, 46536.730
837.953, 46476.969
838.435, 46408.090
838.917, 46361.461
839.399, 46335.539
839.881, 46329.191
840.364, 46341.020
840.846, 46334.570
841.328, 46273.070
841.810, 46178.449
842.292, 46121.570
842.774, 46105.488
843.256, 46110.191
843.738, 46147.422
844.221, 46160.230
844.703, 46104.000
845.185, 46017.578
845.667, 45979.969
846.149, 46013.172
846.631, 45999.520
847.113, 45872.359
847.595, 45782.621
848.077, 45795.320
848.560, 45832.609
849.042, 45820.371
849.524, 45766.430
850.006, 45735.070
850.488, 45777.738
850.970, 45785.262
851.452, 45667.449
851.934, 45542.410
852.416, 45526.820
852.899, 45579.961
853.381, 45605.180
853.863, 45571.609
854.345, 45509.930
854.827, 45420.699
855.309, 45334.590
855.791, 45298.059
856.273, 45296.910
856.755, 45296.781
857.238, 45289.781
857.720, 45284.199
858.202, 45287.359
858.684, 45292.000
859.166, 45277.660
859.648, 45248.309
860.130, 45244.500
860.612, 45271.648
861.094, 45276.801
861.577, 45230.648
862.059, 45163.020
862.541, 45118.359
863.023, 45097.578
863.505, 45074.039
863.987, 45042.180
864.469, 45025.441
864.951, 45046.078
865.434, 45060.570
865.916, 45031.398
866.398, 44965.871
866.880, 44895.059
867.362, 44779.691
867.844, 44729.750
868.326, 44810.719
868.808, 44890.301
869.291, 44897.871
869.773, 44874.730
870.255, 44886.559
870.737, 44939.469
871.219, 44960.629
871.701, 44896.961
872.183, 44828.660
872.665, 44776.621
873.148, 44756.250
873.630, 44808.809
874.112, 44907.379
874.594, 44971.141
875.076, 44963.500
875.558, 44923.789
876.040, 44865.211
876.522, 44809.719
877.004, 44789.180
877.487, 44798.922
877.969, 44832.949
878.451, 44883.711
878.933, 44909.602
879.415, 44869.461
879.897, 44788.219
880.379, 44715.301
880.861, 44651.738
881.343, 44610.512
881.826, 44593.520
882.308, 44565.141
882.790, 44505.109
883.272, 44429.180
883.754, 44357.840
884.236, 44291.391
884.718, 44271.102
885.200, 44320.629
885.682, 44316.059
886.165, 44201.320
886.647, 44071.320
887.129, 44003.539
887.611, 43991.820
888.093, 44008.219
888.575, 44088.289
889.057, 44126.070
889.539, 44116.711
890.021, 44067.699
890.504, 43941.398
890.986, 43800.738
891.468, 43734.738
891.950, 43747.449
892.432, 43740.762
892.914, 43668.230
893.396, 43618.641
893.878, 43655.148
894.361, 43690.828
894.843, 43638.578
895.325, 43531.930
895.807, 43466.730
896.289, 43478.172
896.771, 43478.660
897.253, 43404.309
897.735, 43322.730
898.218, 43294.320
898.700, 43290.781
899.182, 43259.070
899.664, 43198.398
900.146, 43158.770
900.628, 43177.609
901.110, 43208.141
901.592, 43206.520
902.075, 43180.398
902.557, 43137.898
903.039, 43083.199
903.521, 43015.102
904.003, 42936.230
904.485, 42885.250
904.967, 42923.199
905.449, 43002.051
905.931, 42990.020
906.414, 42907.738
906.896, 42865.328
907.378, 42880.340
907.860, 42899.020
908.342, 42887.609
908.824, 42864.891
909.306, 42876.820
909.788, 42921.730
910.270, 42894.230
910.753, 42782.559
911.235, 42707.660
911.717, 42712.578
912.199, 42736.859
912.681, 42726.262
913.163, 42686.871
913.645, 42644.172
914.127, 42597.648
914.610, 42548.949
915.092, 42491.301
915.574, 42447.750
916.056, 42439.609
916.538, 42439.148
917.020, 42405.031
917.502, 42335.359
917.984, 42279.699
918.466, 42249.012
918.949, 42215.680
919.431, 42159.000
919.913, 42116.922
920.395, 42122.660
920.877, 42154.680
921.359, 42170.109
921.841, 42162.781
922.323, 42154.949
922.805, 42146.148
923.288, 42141.840
923.770, 42167.660
924.252, 42180.309
924.734, 42109.820
925.216, 41988.680
925.698, 41947.762
926.180, 42073.398
926.662, 42137.738
927.145, 41970.371
927.627, 41791.660
928.109, 41743.199
928.591, 41788.172
929.073, 41891.230
929.555, 42025.320
930.037, 42099.660
930.519, 42043.359
931.002, 41955.621
931.484, 41888.012
931.966, 41843.871
932.448, 41839.449
932.930, 41859.379
933.412, 41867.551
933.894, 41853.309
934.376, 41839.090
934.859, 41846.789
935.341, 41861.039
935.823, 41872.930
936.305, 41873.828
936.787, 41842.000
937.269, 41780.930
937.751, 41707.430
938.233, 41628.859
938.715, 41573.770
939.198, 41602.352
939.680, 41667.648
940.162, 41651.762
940.644, 41576.512
941.126, 41531.199
941.608, 41533.012
942.090, 41543.852
942.572, 41537.941
943.054, 41523.539
943.537, 41514.859
944.019, 41510.578
944.501, 41513.949
944.983, 41521.828
945.465, 41484.051
945.947, 41383.340
946.429, 41280.031
946.911, 41226.398
947.393, 41216.801
947.876, 41252.730
948.358, 41333.719
948.840, 41333.762
949.322, 41232.680
949.804, 41182.070
950.286, 41256.230
950.768, 41360.359
951.250, 41379.660
951.732, 41324.801
952.215, 41274.301
952.697, 41232.922
953.179, 41153.301
953.661, 41005.051
954.143, 40916.320
954.625, 40981.691
955.107, 41093.738
955.589, 41069.641
956.072, 40904.320
956.554, 40807.320
957.036, 40800.641
957.518, 40797.199
958.000, 40781.691
958.482, 40769.801
958.964, 40780.859
959.446, 40795.160
959.929, 40761.988
960.411, 40662.398
960.893, 40616.359
961.375, 40652.801
961.857, 40688.180
962.339, 40705.328
962.821, 40713.590
963.303, 40729.520
963.786, 40740.020
964.268, 40697.691
964.750, 40560.820
965.232, 40480.859
965.714, 40501.148
966.196, 40519.031
966.678, 40497.270
967.160, 40468.379
967.642, 40468.328
968.125, 40487.590
968.607, 40478.871
969.089, 40412.699
969.571, 40373.840
970.053, 40399.480
970.535, 40413.789
971.017, 40374.180
971.499, 40319.570
971.981, 40292.930
972.464, 40292.109
972.946, 40286.379
973.428, 40283.691
973.910, 40257.660
974.392, 40163.988
974.874, 40091.641
975.356, 40108.180
975.838, 40157.070
976.320, 40164.949
976.803, 40128.309
977.285, 40091.449
977.767, 40060.039
978.249, 40033.219
978.731, 40030.230
979.213, 40011.012
979.695, 39916.531
980.177, 39806.719
980.659, 39793.379
981.142, 39884.141
981.624, 39916.609
982.106, 39791.949
982.588, 39679.020
983.070, 39630.219
983.552, 39614.949
984.034, 39626.852
984.516, 39648.840
984.999, 39658.211
985.481, 39651.172
985.963, 39627.961
986.445, 39573.172
986.927, 39522.391
987.409, 39492.461
987.891, 39469.930
988.373, 39444.738
988.856, 39417.590
989.338, 39392.590
989.820, 39370.801
990.302, 39346.430
990.784, 39336.500
991.266, 39299.648
991.748, 39170.051
992.230, 39043.512
992.713, 39019.020
993.195, 39067.719
993.677, 39115.961
994.159, 39148.070
994.641, 39151.000
995.123, 39077.691
995.605, 39024.270
996.087, 39073.801
996.569, 39143.969
997.052, 39150.809
997.534, 39107.820
998.016, 39059.590
998.498, 39013.262
998.980, 39009.500
999.462, 39122.051
999.944, 39215.488
1000.426, 39176.262
1000.908, 39104.660
1001.391, 39122.320
1001.873, 39198.309
1002.355, 39220.070
1002.837, 39150.262
1003.319, 39073.039
1003.801, 39021.379
1004.283, 38981.090
1004.765, 38961.820
1005.247, 38936.410
1005.730, 38854.191
1006.212, 38743.590
1006.694, 38694.250
1007.176, 38741.520
1007.658, 38780.551
1008.140, 38760.141
1008.622, 38722.789
1009.104, 38675.320
1009.587, 38638.102
1010.069, 38645.020
1010.551, 38678.879
1011.033, 38686.121
1011.515, 38648.738
1011.997, 38604.699
1012.479, 38558.488
1012.961, 38524.012
1013.443, 38512.000
1013.926, 38513.160
1014.408, 38524.262
1014.890, 38538.801
1015.372, 38545.199
1015.854, 38541.898
1016.336, 38520.379
1016.818, 38469.660
1017.300, 38408.738
1017.783, 38339.699
1018.265, 38271.172
1018.747, 38199.051
1019.229, 38135.980
1019.711, 38116.539
1020.193, 38155.129
1020.675, 38198.891
1021.157, 38252.941
1021.639, 38279.988
1022.122, 38237.961
1022.604, 38181.520
1023.086, 38171.078
1023.568, 38186.988
1024.050, 38163.039
1024.532, 38075.969
1025.014, 38012.980
1025.496, 38005.691
1025.979, 38017.301
1026.461, 38057.031
1026.943, 38088.852
1027.425, 38068.289
1027.907, 38019.059
1028.389, 38002.328
1028.871, 38033.539
1029.353, 38056.141
1029.835, 38045.031
1030.318, 38041.781
1030.800, 38089.910
1031.282, 38121.391
1031.764, 38066.910
1032.246, 37961.980
1032.728, 37875.430
1033.210, 37804.730
1033.692, 37808.211
1034.174, 38005.000
1034.657, 38119.539
1035.139, 38039.359
1035.621, 37908.672
1036.103, 37800.129
1036.585, 37715.102
1037.067, 37654.422
1037.549, 37620.879
1038.031, 37593.371
1038.514, 37566.730
1038.996, 37553.391
1039.478, 37561.641
1039.960, 37575.539
1040.442, 37596.230
1040.924, 37610.750
1041.406, 37586.461
1041.888, 37517.430
1042.370, 37513.301
1042.853, 37650.059
1043.335, 37699.609
1043.817, 37576.809
1044.299, 37463.301
1044.781, 37464.949
1045.263, 37509.141
1045.745, 37491.629
1046.227, 37415.660
1046.709, 37359.461
1047.192, 37334.719
1047.674, 37295.988
1048.156, 37230.121
1048.638, 37176.160
1049.120, 37155.941
1049.602, 37146.879
1050.084, 37117.148
1050.566, 37075.129
1051.049, 37084.840
1051.531, 37165.699
1052.013, 37184.699
1052.495, 37117.379
1052.977, 37060.199
1053.459, 37049.012
1053.941, 37062.199
1054.423, 37082.820
1054.906, 37102.941
1055.388, 37089.949
1055.870, 37042.199
1056.352, 37014.309
1056.834, 37009.262
1057.316, 37012.039
1057.798, 37019.809
1058.280, 37006.781
1058.762, 36947.422
1059.245, 36867.922
1059.727, 36831.371
1060.209, 36829.039
1060.691, 36786.449
1061.173, 36710.039
1061.655, 36688.051
1062.137, 36736.922
1062.619, 36764.430
1063.101, 36707.660
1063.584, 36615.199
1064.066, 36553.539
1064.548, 36515.941
1065.030, 36483.441
1065.512, 36456.691
1065.994, 36438.672
1066.476, 36429.820
1066.958, 36433.660
1067.441, 36452.320
1067.923, 36464.219
1068.405, 36432.672
1068.887, 36389.699
1069.369, 36393.809
1069.851, 36419.449
1070.333, 36417.762
1070.815, 36389.051
1071.297, 36353.531
1071.780, 36319.449
1072.262, 36297.750
1072.744, 36314.281
1073.226, 36325.309
1073.708, 36261.910
1074.190, 36192.820
1074.672, 36217.840
1075.154, 36298.730
1075.636, 36352.969
1076.119, 36358.441
1076.601, 36318.379
1077.083, 36199.828
1077.565, 36094.672
1078.047, 36044.602
1078.529, 36031.801
1079.011, 36072.359
1079.494, 36123.680
1079.976, 36119.109
1080.458, 36063.941
1080.940, 36036.059
1081.422, 36079.078
1081.904, 36095.602
1082.386, 36024.359
1082.868, 35968.520
1083.350, 35997.309
1083.833, 36044.020
1084.315, 36046.172
1084.797, 36010.551
1085.279, 35967.430
1085.761, 35912.180
1086.243, 35870.250
1086.725, 35860.449
1087.207, 35833.820
1087.689, 35755.449
1088.172, 35692.539
1088.654, 35704.500
1089.136, 35747.211
1089.618, 35730.480
1090.100, 35648.430
1090.582, 35611.629
1091.064, 35634.059
1091.546, 35649.578
1092.029, 35649.781
1092.511, 35633.051
1092.993, 35588.039
1093.475, 35562.500
1093.957, 35630.641
1094.439, 35759.699
1094.921, 35785.961
1095.403, 35710.801
1095.885, 35637.250
1096.368, 35573.500
1096.850, 35540.109
1097.332, 35544.160
1097.814, 35536.621
1098.296, 35469.922
1098.778, 35386.879
1099.260, 35381.051
1099.742, 35422.051
1100.224, 35415.898
1100.707, 35370.211
1101.189, 35328.840
1101.671, 35298.172
1102.153, 35250.059
1102.635, 35166.539
1103.117, 35094.141
1103.599, 35105.539
1104.081, 35132.719
1104.564, 35066.488
1105.046, 34969.941
1105.528, 34956.480
1106.010, 35006.781
1106.492, 35027.949
1106.974, 34992.160
1107.456, 34958.102
1107.938, 34973.559
1108.421, 34980.949
1108.903, 34928.371
1109.385, 34872.301
1109.867, 34859.898
1110.349, 34875.539
1110.831, 34896.719
1111.313, 34917.672
1111.795, 34924.012
1112.277, 34887.148
1112.760, 34882.859
1113.242, 34975.859
1113.724, 35037.059
1114.206, 34978.449
1114.688, 34898.102
1115.170, 34891.879
1115.652, 34932.500
1116.134, 34936.340
1116.616, 34894.320
1117.099, 34863.191
1117.581, 34857.000
1118.063, 34820.398
1118.545, 34727.199
1119.027, 34649.691
1119.509, 34636.199
1119.991, 34644.871
1120.473, 34607.500
1120.956, 34537.250
1121.438, 34528.770
1121.920, 34580.559
1122.402, 34608.699
1122.884, 34605.539
1123.366, 34591.430
1123.848, 34573.809
1124.330, 34561.750
1124.813, 34565.828
1125.295, 34570.078
1125.777, 34529.738
1126.259, 34476.199
1126.741, 34503.500
1127.223, 34576.691
1127.705, 34591.578
1128.187, 34537.941
1128.669, 34468.512
1129.151, 34406.430
1129.634, 34362.078
1130.116, 34367.129
1130.598, 34369.129
1131.080, 34304.391
1131.562, 34227.180
1132.044, 34203.320
1132.526, 34216.230
1133.008, 34220.078
1133.491, 34206.660
1133.973, 34197.059
1134.455, 34208.531
1134.937, 34209.191
1135.419, 34185.461
1135.901, 34155.879
1136.383, 34127.359
1136.865, 34098.941
1137.348, 34052.340
1137.830, 34004.789
1138.312, 34034.281
1138.794, 34191.352
1139.276, 34223.129
1139.758, 34067.570
1140.240, 33954.551
1140.722, 33935.680
1141.204, 33957.160
1141.687, 33998.488
1142.169, 34028.500
1142.651, 33994.148
1143.133, 33910.672
1143.615, 33848.988
1144.097, 33811.281
1144.579, 33834.328
1145.061, 33912.539
1145.543, 33957.840
1146.026, 33942.020
1146.508, 33892.609
1146.990, 33824.699
1147.472, 33760.961
1147.954, 33744.000
1148.436, 33742.570
1148.918, 33693.762
1149.400, 33627.672
1149.883, 33614.621
1150.365, 33645.410
1150.847, 33654.809
1151.329, 33619.820
1151.811, 33574.570
1152.293, 33538.520
1152.775, 33496.359
1153.257, 33420.801
1153.740, 33356.711
1154.222, 33348.141
1154.704, 33367.441
1155.186, 33371.480
1155.668, 33359.359
1156.150, 33358.121
1156.632, 33382.750
1157.114, 33390.980
1157.596, 33376.148
1158.078, 33355.520
1158.561, 33331.879
1159.043, 33305.129
1159.525, 33274.031
1160.007, 33240.441
1160.489, 33203.430
1160.971, 33166.352
1161.453, 33184.148
1161.935, 33254.969
1162.418, 33275.609
1162.900, 33236.641
1163.382, 33195.852
1163.864, 33174.531
1164.346, 33140.750
1164.828, 33060.441
1165.310, 32978.230
1165.792, 32970.551
1166.275, 32997.910
1166.757, 32994.762
1167.239, 32974.480
1167.721, 32963.680
1168.203, 32968.551
1168.685, 33003.730
1169.167, 33076.949
1169.649, 33098.250
1170.131, 32958.801
1170.614, 32839.922
1171.096, 32844.672
1171.578, 32880.750
1172.060, 32911.328
1172.542, 32914.410
1173.024, 32838.051
1173.506, 32700.100
1173.988, 32651.750
1174.470, 32752.670
1174.953, 32780.449
1175.435, 32707.051
1175.917, 32630.631
1176.399, 32566.410
1176.881, 32525.770
1177.363, 32518.840
1177.845, 32528.650
1178.327, 32531.061
1178.810, 32527.090
1179.292, 32523.279
1179.774, 32517.840
1180.256, 32495.170
1180.738, 32459.750
1181.220, 32450.580
1181.702, 32471.689
1182.184, 32463.910
1182.667, 32385.471
1183.149, 32295.449
1183.631, 32236.779
1184.113, 32211.320
1184.595, 32245.750
1185.077, 32295.471
1185.559, 32303.311
1186.041, 32281.340
1186.523, 32272.619
1187.005, 32283.721
1187.488, 32272.961
1187.970, 32194.859
1188.452, 32149.221
1188.934, 32161.689
1189.416, 32194.641
1189.898, 32262.561
1190.380, 32307.199
1190.862, 32266.270
1191.345, 32183.020
1191.827, 32157.840
1192.309, 32190.270
1192.791, 32220.420
1193.273, 32248.820
1193.755, 32272.320
1194.237, 32289.320
1194.719, 32252.670
1195.202, 32147.119
1195.684, 32058.500
1196.166, 32064.859
1196.648, 32099.471
1197.130, 32049.260
1197.612, 31985.189
1198.094, 32047.020
1198.576, 32151.109
1199.058, 32138.109
1199.541, 32029.600
1200.023, 31946.461
1200.505, 31920.660
1200.987, 31910.090
1201.469, 31909.381
1201.951, 31905.730
1202.433, 31892.430
1202.915, 31879.051
1203.397, 31862.699
1203.880, 31857.600
1204.362, 31895.461
1204.844, 31944.240
1205.326, 31904.820
1205.808, 31768.881
1206.290, 31695.211
1206.772, 31689.750
1207.254, 31683.631
1207.737, 31667.471
1208.219, 31672.830
1208.701, 31712.381
1209.183, 31743.250
1209.665, 31727.449
1210.147, 31681.670
1210.629, 31596.760
1211.111, 31522.980
1211.594, 31567.600
1212.076, 31666.350
1212.558, 31707.551
1213.040, 31690.820
1213.522, 31660.930
1214.004, 31630.000
1214.486, 31610.641
1214.968, 31621.811
1215.450, 31623.230
1215.932, 31600.910
1216.415, 31570.619
1216.897, 31520.420
1217.379, 31487.891
1217.861, 31518.320
1218.343, 31579.180
1218.825, 31591.670
1219.307, 31556.189
1219.789, 31509.160
1220.272, 31449.920
1220.754, 31439.529
1221.236, 31481.920
1221.718, 31501.510
1222.200, 31473.750
1222.682, 31456.250
1223.164, 31498.520
1223.646, 31541.471
1224.129, 31510.029
1224.611, 31443.150
1225.093, 31369.811
1225.575, 31305.529
1226.057, 31273.900
1226.539, 31265.250
1227.021, 31255.090
1227.503, 31239.330
1227.985, 31228.711
1228.468, 31225.811
1228.950, 31229.461
1229.432, 31268.109
1229.914, 31264.789
1230.396, 31174.529
1230.878, 31085.100
1231.360, 31055.311
1231.842, 31060.920
1232.324, 31062.240
1232.807, 31063.480
1233.289, 31093.330
1233.771, 31143.061
1234.253, 31160.029
1234.735, 31144.721
1235.217, 31121.449
1235.699, 31093.990
1236.181, 31036.939
1236.664, 30932.029
1237.146, 30861.850
1237.628, 30923.900
1238.110, 30998.930
1238.592, 31008.381
1239.074, 30992.789
1239.556, 30983.170
1240.038, 30973.471
1240.521, 30949.891
1241.003, 30914.480
1241.485, 30883.301
1241.967, 30857.820
1242.449, 30828.699
1242.931, 30789.721
1243.413, 30778.859
1243.895, 30806.930
1244.377, 30826.750
1244.859, 30818.061
1245.342, 30784.270
1245.824, 30722.930
1246.306, 30658.859
1246.788, 30629.520
1247.270, 30628.580
1247.752, 30663.080
1248.234, 30707.881
1248.716, 30723.260
1249.199, 30709.119
1249.681, 30675.131
1250.163, 30625.410
1250.645, 30582.670
1251.127, 30554.561
1251.609, 30533.260
1252.091, 30534.010
1252.573, 30515.090
1253.056, 30443.660
1253.538, 30387.900
1254.020, 30401.160
1254.502, 30439.930
1254.984, 30437.801
1255.466, 30401.461
1255.948, 30348.711
1256.430, 30287.311
1256.912, 30258.109
1257.395, 30260.420
1257.877, 30290.180
1258.359, 30336.570
1258.841, 30360.141
1259.323, 30343.131
1259.805, 30310.270
1260.287, 30267.930
1260.769, 30227.410
1261.251, 30175.760
1261.734, 30148.920
1262.216, 30190.160
1262.698, 30253.090
1263.180, 30288.789
1263.662, 30304.430
1264.144, 30320.340
1264.626, 30337.100
1265.108, 30329.119
1265.591, 30294.439
1266.073, 30275.320
1266.555, 30275.551
1267.037, 30261.680
1267.519, 30224.000
1268.001, 30188.420
1268.483, 30172.631
##END=



