##NAMES=Hydroromarchite
##RRUFFID=R090060
##IDEAL CHEMISTRY=Sn^2+^_3_O_2_(OH)_2_
##LOCALITY=Hooggenoeg Fm., Barberton Greenstone Belt, South Africa
##OWNER=RRUFF
##SOURCE=Joe Zullo
##DESCRIPTION=Pale tan tetragonal single crystal
##STATUS=The identification of this mineral has been confirmed by single-crystal X-ray diffraction.
##URL=rruff.info/R090060
91.82715, 1987.111
92.30927, 1955.391
92.79138, 1961.766
93.27350, 1989.584
93.75562, 2014.555
94.23773, 2032.539
94.71985, 2047.113
95.20197, 2057.141
95.68408, 2061.842
96.16620, 2064.064
96.64832, 2067.744
97.13043, 2073.972
97.61255, 2081.621
98.09467, 2088.956
98.57678, 2095.519
99.05890, 2098.554
99.54102, 2103.035
100.0231, 2109.966
100.5052, 2119.346
100.9874, 2130.896
101.4695, 2144.370
101.9516, 2159.612
102.4337, 2176.488
102.9158, 2195.499
103.3979, 2217.233
103.8801, 2241.092
104.3622, 2265.879
104.8443, 2290.568
105.3264, 2315.234
105.8085, 2341.135
106.2906, 2367.325
106.7728, 2394.493
107.2549, 2422.929
107.7370, 2452.625
108.2191, 2483.765
108.7012, 2516.689
109.1833, 2551.502
109.6655, 2586.348
110.1476, 2619.768
110.6297, 2653.265
111.1118, 2689.891
111.5939, 2730.902
112.0760, 2773.077
112.5582, 2813.183
113.0403, 2851.164
113.5224, 2888.343
114.0045, 2924.523
114.4866, 2959.924
114.9688, 2996.102
115.4509, 3033.712
115.9330, 3072.120
116.4151, 3112.681
116.8972, 3155.170
117.3793, 3196.174
117.8615, 3230.868
118.3436, 3256.437
118.8257, 3281.864
119.3078, 3306.405
119.7899, 3332.278
120.2720, 3362.341
120.7542, 3397.621
121.2363, 3435.461
121.7184, 3468.599
122.2005, 3494.333
122.6826, 3517.217
123.1647, 3538.604
123.6468, 3557.125
124.1290, 3570.561
124.6111, 3577.638
125.0932, 3578.685
125.5753, 3576.480
126.0574, 3572.383
126.5395, 3564.787
127.0217, 3552.668
127.5038, 3536.256
127.9859, 3516.730
128.4680, 3493.860
128.9501, 3468.156
129.4323, 3443.485
129.9144, 3421.679
130.3965, 3399.896
130.8786, 3376.541
131.3607, 3352.479
131.8428, 3322.504
132.3250, 3284.219
132.8071, 3237.552
133.2892, 3179.934
133.7713, 3106.877
134.2534, 3021.624
134.7355, 2933.534
135.2177, 2840.143
135.6998, 2747.345
136.1819, 2655.431
136.6640, 2565.988
137.1461, 2483.275
137.6282, 2409.914
138.1104, 2345.996
138.5925, 2290.633
139.0746, 2248.872
139.5567, 2211.836
140.0388, 2176.102
140.5209, 2141.809
141.0031, 2110.971
141.4852, 2086.507
141.9673, 2071.366
142.4494, 2055.307
142.9315, 2035.484
143.4136, 2016.871
143.8958, 2003.191
144.3779, 1995.240
144.8600, 1990.234
145.3421, 1983.746
145.8242, 1974.498
146.3063, 1966.125
146.7885, 1958.020
147.2706, 1951.071
147.7527, 1946.995
148.2348, 1946.802
148.7169, 1948.156
149.1990, 1946.115
149.6812, 1940.421
150.1633, 1933.798
150.6454, 1925.761
151.1275, 1917.253
151.6096, 1911.637
152.0917, 1911.115
152.5739, 1913.356
153.0560, 1914.477
153.5381, 1914.371
154.0202, 1913.436
154.5023, 1911.478
154.9844, 1908.418
155.4665, 1906.141
155.9487, 1905.912
156.4308, 1906.547
156.9129, 1907.186
157.3950, 1907.610
157.8771, 1908.074
158.3592, 1909.003
158.8414, 1910.560
159.3235, 1912.183
159.8056, 1914.211
160.2877, 1916.028
160.7698, 1916.655
161.2519, 1915.541
161.7341, 1913.858
162.2162, 1915.235
162.6983, 1923.436
163.1804, 1929.750
163.6625, 1931.740
164.1446, 1931.594
164.6268, 1932.058
165.1089, 1934.736
165.5910, 1939.168
166.0731, 1942.452
166.5552, 1942.661
167.0373, 1943.819
167.5195, 1947.555
168.0016, 1952.846
168.4837, 1957.517
168.9658, 1959.958
169.4479, 1960.464
169.9300, 1963.121
170.4122, 1970.295
170.8943, 1976.904
171.3764, 1979.538
171.8585, 1979.063
172.3406, 1979.763
172.8227, 1985.170
173.3049, 1994.818
173.7870, 2002.667
174.2691, 2007.591
174.7512, 2011.566
175.2333, 2015.986
175.7154, 2020.914
176.1976, 2026.149
176.6797, 2031.541
177.1618, 2037.146
177.6439, 2042.982
178.1260, 2048.542
178.6081, 2054.531
179.0903, 2062.533
179.5724, 2073.355
180.0545, 2083.691
180.5366, 2090.944
181.0187, 2096.409
181.5008, 2101.954
181.9830, 2108.521
182.4651, 2115.763
182.9472, 2123.209
183.4293, 2133.285
183.9114, 2139.253
184.3935, 2136.965
184.8757, 2129.440
185.3578, 2121.781
185.8399, 2117.383
186.3220, 2115.884
186.8041, 2113.498
187.2862, 2110.338
187.7684, 2105.979
188.2505, 2099.450
188.7326, 2091.633
189.2147, 2084.138
189.6968, 2078.272
190.1789, 2074.057
190.6611, 2070.171
191.1432, 2065.389
191.6253, 2062.043
192.1074, 2061.524
192.5895, 2063.231
193.0716, 2065.482
193.5538, 2066.681
194.0359, 2066.460
194.5180, 2068.433
195.0001, 2072.949
195.4822, 2078.724
195.9643, 2084.939
196.4465, 2091.725
196.9286, 2099.951
197.4107, 2110.429
197.8928, 2123.462
198.3749, 2137.556
198.8570, 2151.560
199.3392, 2167.328
199.8213, 2186.244
200.3034, 2208.391
200.7855, 2232.523
201.2676, 2257.526
201.7497, 2283.626
202.2319, 2312.409
202.7140, 2343.704
203.1961, 2377.904
203.6782, 2415.768
204.1603, 2457.608
204.6424, 2501.563
205.1246, 2545.785
205.6067, 2590.929
206.0888, 2639.922
206.5709, 2695.286
207.0530, 2754.124
207.5351, 2812.840
208.0173, 2871.656
208.4994, 2929.661
208.9815, 2986.889
209.4636, 3043.001
209.9457, 3096.609
210.4278, 3146.223
210.9100, 3193.260
211.3921, 3241.347
211.8742, 3291.059
212.3563, 3340.087
212.8384, 3385.953
213.3205, 3430.257
213.8027, 3476.114
214.2848, 3525.271
214.7669, 3577.134
215.2490, 3628.571
215.7311, 3678.698
216.2132, 3730.131
216.6954, 3784.170
217.1775, 3839.989
217.6596, 3896.167
218.1417, 3951.152
218.6238, 4005.783
219.1059, 4064.897
219.5881, 4132.814
220.0702, 4199.860
220.5523, 4262.836
221.0344, 4322.934
221.5165, 4382.922
221.9986, 4444.717
222.4808, 4507.751
222.9629, 4566.730
223.4450, 4620.991
223.9271, 4670.710
224.4092, 4719.070
224.8913, 4762.802
225.3735, 4797.994
225.8556, 4823.239
226.3377, 4837.461
226.8198, 4828.144
227.3019, 4789.343
227.7840, 4731.953
228.2662, 4657.323
228.7483, 4565.298
229.2304, 4454.586
229.7125, 4323.007
230.1946, 4171.895
230.6767, 4018.655
231.1589, 3860.877
231.6410, 3703.907
232.1231, 3543.607
232.6052, 3384.846
233.0873, 3235.503
233.5694, 3100.267
234.0516, 2978.548
234.5337, 2867.890
235.0158, 2764.428
235.4979, 2672.661
235.9800, 2595.710
236.4621, 2531.669
236.9443, 2476.175
237.4264, 2427.468
237.9085, 2385.142
238.3906, 2347.241
238.8727, 2314.670
239.3548, 2284.558
239.8370, 2255.667
240.3191, 2228.555
240.8012, 2205.056
241.2833, 2186.552
241.7654, 2171.796
242.2475, 2156.927
242.7297, 2142.824
243.2118, 2127.353
243.6939, 2108.468
244.1760, 2087.357
244.6581, 2067.571
245.1402, 2050.592
245.6224, 2035.852
246.1045, 2021.894
246.5866, 2008.824
247.0687, 1996.187
247.5508, 1983.794
248.0329, 1971.683
248.5151, 1959.471
248.9972, 1945.913
249.4793, 1933.663
249.9614, 1927.058
250.4435, 1926.987
250.9256, 1926.191
251.4078, 1919.100
251.8899, 1907.384
252.3720, 1898.324
252.8541, 1894.561
253.3362, 1893.291
253.8183, 1891.360
254.3005, 1888.773
254.7826, 1886.259
255.2647, 1883.338
255.7468, 1880.533
256.2289, 1880.967
256.7110, 1887.325
257.1931, 1894.287
257.6753, 1897.490
258.1574, 1897.324
258.6395, 1896.258
259.1216, 1895.463
259.6037, 1894.963
260.0858, 1894.924
260.5680, 1895.663
261.0501, 1896.496
261.5322, 1897.602
262.0143, 1898.588
262.4964, 1898.275
262.9785, 1896.037
263.4607, 1891.910
263.9428, 1885.850
264.4249, 1876.828
264.9070, 1867.261
265.3891, 1857.755
265.8712, 1848.634
266.3534, 1840.569
266.8355, 1834.007
267.3176, 1828.806
267.7997, 1824.508
268.2818, 1822.129
268.7639, 1819.051
269.2461, 1813.992
269.7282, 1807.813
270.2103, 1801.845
270.6924, 1796.946
271.1745, 1792.558
271.6566, 1786.776
272.1388, 1778.485
272.6209, 1770.726
273.1030, 1764.325
273.5851, 1758.776
274.0672, 1753.453
274.5493, 1747.973
275.0315, 1742.867
275.5136, 1739.922
275.9957, 1741.675
276.4778, 1740.651
276.9599, 1733.444
277.4420, 1724.442
277.9242, 1717.656
278.4063, 1714.480
278.8884, 1713.468
279.3705, 1712.179
279.8526, 1711.304
280.3347, 1708.535
280.8169, 1701.514
281.2990, 1694.232
281.7811, 1690.305
282.2632, 1690.354
282.7453, 1691.480
283.2274, 1688.801
283.7096, 1679.107
284.1917, 1673.795
284.6738, 1677.142
285.1559, 1681.204
285.6380, 1681.172
286.1201, 1676.639
286.6023, 1670.393
287.0844, 1665.359
287.5665, 1661.576
288.0486, 1659.068
288.5307, 1658.752
289.0128, 1658.759
289.4950, 1658.569
289.9771, 1657.981
290.4592, 1656.770
290.9413, 1654.575
291.4234, 1651.249
291.9055, 1648.905
292.3877, 1648.669
292.8698, 1648.273
293.3519, 1646.606
293.8340, 1644.195
294.3161, 1642.346
294.7982, 1642.092
295.2804, 1643.245
295.7625, 1643.371
296.2446, 1641.887
296.7267, 1639.937
297.2088, 1637.801
297.6909, 1635.317
298.1731, 1631.763
298.6552, 1626.623
299.1373, 1620.941
299.6194, 1618.817
300.1015, 1625.726
300.5836, 1629.664
301.0658, 1627.869
301.5479, 1623.386
302.0300, 1619.096
302.5121, 1616.193
302.9942, 1614.666
303.4763, 1614.578
303.9585, 1617.463
304.4406, 1619.534
304.9227, 1621.283
305.4048, 1621.959
305.8869, 1620.342
306.3690, 1616.425
306.8512, 1611.989
307.3333, 1609.632
307.8154, 1610.651
308.2975, 1610.341
308.7796, 1607.604
309.2617, 1604.658
309.7439, 1602.657
310.2260, 1601.760
310.7081, 1601.750
311.1902, 1602.600
311.6723, 1604.625
312.1544, 1605.148
312.6366, 1603.869
313.1187, 1601.649
313.6008, 1597.471
314.0829, 1592.518
314.5650, 1589.522
315.0471, 1590.741
315.5293, 1595.728
316.0114, 1598.559
316.4935, 1597.778
316.9756, 1596.472
317.4577, 1595.279
317.9398, 1593.941
318.4220, 1591.554
318.9041, 1587.563
319.3862, 1583.100
319.8683, 1581.832
320.3504, 1588.720
320.8326, 1592.609
321.3147, 1590.959
321.7968, 1587.087
322.2789, 1584.320
322.7610, 1583.729
323.2431, 1583.871
323.7253, 1582.080
324.2074, 1575.813
324.6895, 1572.763
325.1716, 1575.210
325.6537, 1578.690
326.1358, 1580.251
326.6180, 1579.535
327.1001, 1577.972
327.5822, 1577.090
328.0643, 1577.063
328.5464, 1576.833
329.0285, 1576.179
329.5107, 1575.559
329.9928, 1575.494
330.4749, 1575.660
330.9570, 1575.178
331.4391, 1573.289
331.9212, 1570.132
332.4034, 1567.768
332.8855, 1566.470
333.3676, 1565.726
333.8497, 1566.172
334.3318, 1566.948
334.8139, 1566.696
335.2961, 1564.709
335.7782, 1561.767
336.2603, 1560.307
336.7424, 1562.439
337.2245, 1562.861
337.7066, 1560.155
338.1888, 1556.320
338.6709, 1552.943
339.1530, 1550.507
339.6351, 1548.752
340.1172, 1547.080
340.5993, 1544.631
341.0815, 1544.610
341.5636, 1549.911
342.0457, 1554.903
342.5278, 1556.462
343.0099, 1554.607
343.4920, 1551.027
343.9742, 1546.667
344.4563, 1541.287
344.9384, 1539.579
345.4205, 1547.379
345.9026, 1553.275
346.3847, 1552.826
346.8669, 1548.445
347.3490, 1544.767
347.8311, 1544.721
348.3132, 1547.251
348.7953, 1548.109
349.2774, 1546.166
349.7596, 1544.209
350.2417, 1542.759
350.7238, 1541.550
351.2059, 1540.334
351.6880, 1539.020
352.1701, 1537.671
352.6523, 1536.318
353.1344, 1534.773
353.6165, 1533.807
354.0986, 1534.640
354.5807, 1535.181
355.0628, 1533.959
355.5450, 1531.029
356.0271, 1527.700
356.5092, 1524.901
356.9913, 1522.617
357.4734, 1521.719
357.9555, 1523.509
358.4377, 1525.319
358.9198, 1525.791
359.4019, 1525.474
359.8840, 1525.702
360.3661, 1527.739
360.8482, 1530.504
361.3304, 1530.289
361.8125, 1525.326
362.2946, 1521.305
362.7767, 1520.785
363.2588, 1521.856
363.7409, 1522.922
364.2231, 1523.649
364.7052, 1523.444
365.1873, 1520.854
365.6694, 1515.441
366.1515, 1511.633
366.6336, 1511.735
367.1158, 1512.778
367.5979, 1512.279
368.0800, 1510.267
368.5621, 1508.916
369.0442, 1510.442
369.5263, 1514.147
370.0085, 1516.800
370.4906, 1518.264
370.9727, 1518.367
371.4548, 1516.349
371.9369, 1512.996
372.4190, 1510.015
372.9012, 1508.183
373.3833, 1507.002
373.8654, 1505.674
374.3475, 1504.140
374.8296, 1503.059
375.3117, 1503.050
375.7939, 1503.586
376.2760, 1504.096
376.7581, 1504.927
377.2402, 1504.682
377.7223, 1501.388
378.2044, 1495.871
378.6866, 1491.783
379.1687, 1490.309
379.6508, 1490.290
380.1329, 1490.651
380.6150, 1491.396
381.0971, 1491.466
381.5793, 1489.768
382.0614, 1487.495
382.5435, 1486.412
383.0256, 1486.745
383.5077, 1487.545
383.9898, 1488.500
384.4720, 1489.336
384.9541, 1488.714
385.4362, 1484.413
385.9183, 1480.631
386.4004, 1480.386
386.8825, 1482.911
387.3647, 1485.636
387.8468, 1487.500
388.3289, 1488.580
388.8110, 1488.932
389.2931, 1488.351
389.7752, 1487.682
390.2574, 1486.254
390.7395, 1485.197
391.2216, 1486.642
391.7037, 1490.911
392.1858, 1495.057
392.6679, 1495.472
393.1501, 1491.159
393.6322, 1487.900
394.1143, 1485.334
394.5964, 1484.014
395.0785, 1484.431
395.5606, 1486.401
396.0428, 1489.607
396.5249, 1494.060
397.0070, 1499.283
397.4891, 1502.819
397.9712, 1503.702
398.4533, 1503.958
398.9355, 1502.888
399.4176, 1501.707
399.8997, 1501.892
400.3818, 1503.834
400.8639, 1506.508
401.3460, 1508.463
401.8282, 1509.750
402.3103, 1510.073
402.7924, 1507.934
403.2745, 1506.299
403.7566, 1507.193
404.2387, 1510.008
404.7209, 1512.579
405.2030, 1513.120
405.6851, 1512.008
406.1672, 1512.200
406.6493, 1515.061
407.1314, 1517.277
407.6136, 1518.115
408.0957, 1517.977
408.5778, 1517.336
409.0599, 1516.363
409.5420, 1514.837
410.0241, 1512.253
410.5063, 1508.413
410.9884, 1504.638
411.4705, 1500.575
411.9526, 1497.143
412.4347, 1495.306
412.9168, 1494.770
413.3990, 1494.102
413.8811, 1492.719
414.3632, 1490.466
414.8453, 1486.237
415.3274, 1478.821
415.8095, 1472.446
416.2917, 1470.559
416.7738, 1470.746
417.2559, 1469.927
417.7380, 1467.215
418.2201, 1463.623
418.7022, 1459.461
419.1844, 1454.917
419.6665, 1452.172
420.1486, 1453.182
420.6307, 1454.498
421.1128, 1450.999
421.5949, 1442.695
422.0771, 1435.892
422.5592, 1434.423
423.0413, 1435.061
423.5234, 1433.013
424.0055, 1427.773
424.4876, 1422.527
424.9698, 1419.446
425.4519, 1418.502
425.9340, 1418.444
426.4161, 1421.024
426.8982, 1422.618
427.3803, 1420.822
427.8625, 1416.923
428.3446, 1413.584
428.8267, 1411.794
429.3088, 1410.938
429.7909, 1409.989
430.2730, 1408.833
430.7552, 1407.869
431.2373, 1407.693
431.7194, 1407.277
432.2015, 1406.180
432.6836, 1404.201
433.1657, 1400.670
433.6479, 1394.656
434.1300, 1386.584
434.6121, 1382.106
435.0942, 1385.121
435.5763, 1387.313
436.0584, 1386.677
436.5406, 1384.840
437.0227, 1384.076
437.5048, 1385.082
437.9869, 1386.181
438.4690, 1384.329
438.9511, 1378.013
439.4333, 1373.677
439.9154, 1372.643
440.3975, 1372.531
440.8796, 1372.801
441.3617, 1373.163
441.8438, 1373.282
442.3260, 1373.144
442.8081, 1372.465
443.2902, 1369.849
443.7723, 1363.965
444.2544, 1359.484
444.7365, 1358.947
445.2187, 1360.038
445.7008, 1360.828
446.1829, 1360.918
446.6650, 1361.046
447.1471, 1362.536
447.6292, 1364.874
448.1114, 1365.093
448.5935, 1362.350
449.0756, 1358.186
449.5577, 1352.563
450.0398, 1346.344
450.5219, 1342.437
451.0041, 1343.250
451.4862, 1345.537
451.9683, 1346.293
452.4504, 1345.691
452.9325, 1344.966
453.4146, 1344.717
453.8968, 1344.615
454.3789, 1343.908
454.8610, 1342.530
455.3431, 1340.985
455.8252, 1338.998
456.3073, 1337.121
456.7895, 1335.972
457.2716, 1335.623
457.7537, 1335.764
458.2358, 1336.260
458.7179, 1337.117
459.2000, 1337.101
459.6822, 1336.665
460.1643, 1335.012
460.6464, 1330.375
461.1285, 1324.882
461.6106, 1321.607
462.0927, 1321.664
462.5748, 1323.631
463.0569, 1325.380
463.5391, 1327.385
464.0212, 1327.783
464.5033, 1325.286
464.9854, 1322.488
465.4675, 1320.203
465.9496, 1318.619
466.4318, 1317.929
466.9139, 1318.494
467.3960, 1319.750
467.8781, 1319.945
468.3602, 1318.921
468.8423, 1317.239
469.3245, 1313.743
469.8066, 1310.470
470.2887, 1309.395
470.7708, 1310.755
471.2529, 1312.485
471.7350, 1313.157
472.2172, 1312.916
472.6993, 1312.262
473.1814, 1311.215
473.6635, 1309.803
474.1456, 1307.425
474.6277, 1304.729
475.1099, 1303.334
475.5920, 1304.396
476.0741, 1305.647
476.5562, 1305.650
477.0383, 1304.585
477.5204, 1302.690
478.0026, 1299.812
478.4847, 1297.074
478.9668, 1296.367
479.4489, 1298.364
479.9310, 1299.034
480.4131, 1297.029
480.8953, 1294.604
481.3774, 1293.348
481.8595, 1293.052
482.3416, 1292.701
482.8237, 1291.703
483.3058, 1290.190
483.7880, 1288.558
484.2701, 1286.215
484.7522, 1284.663
485.2343, 1285.078
485.7164, 1285.458
486.1985, 1283.558
486.6807, 1279.658
487.1628, 1276.484
487.6449, 1276.802
488.1270, 1280.288
488.6091, 1282.286
489.0912, 1282.229
489.5734, 1281.498
490.0555, 1280.141
490.5376, 1278.617
491.0197, 1277.632
491.5018, 1277.430
491.9839, 1276.968
492.4661, 1274.548
492.9482, 1270.525
493.4303, 1268.319
493.9124, 1269.043
494.3945, 1270.408
494.8766, 1270.766
495.3588, 1270.328
495.8409, 1269.533
496.3230, 1268.493
496.8051, 1267.119
497.2872, 1264.987
497.7693, 1262.384
498.2515, 1260.391
498.7336, 1259.450
499.2157, 1259.213
499.6978, 1259.257
500.1799, 1259.793
500.6620, 1259.794
501.1442, 1259.020
501.6263, 1257.854
502.1084, 1256.051
502.5905, 1254.038
503.0726, 1253.180
503.5547, 1254.493
504.0369, 1256.976
504.5190, 1257.062
505.0011, 1252.514
505.4832, 1249.048
505.9653, 1246.877
506.4474, 1245.823
506.9296, 1246.384
507.4117, 1248.131
507.8938, 1249.467
508.3759, 1248.916
508.8580, 1246.823
509.3401, 1245.203
509.8223, 1243.998
510.3044, 1243.376
510.7865, 1244.014
511.2686, 1244.919
511.7507, 1245.165
512.2328, 1244.579
512.7150, 1243.491
513.1971, 1241.660
513.6792, 1239.531
514.1613, 1238.487
514.6434, 1238.843
515.1255, 1239.668
515.6077, 1240.869
516.0898, 1241.973
516.5719, 1241.194
517.0540, 1236.766
517.5361, 1232.519
518.0182, 1229.799
518.5004, 1228.499
518.9825, 1228.948
519.4646, 1231.188
519.9467, 1233.516
520.4288, 1233.761
520.9109, 1231.447
521.3931, 1230.243
521.8752, 1231.678
522.3573, 1232.348
522.8394, 1229.877
523.3215, 1226.226
523.8036, 1224.734
524.2858, 1226.693
524.7679, 1229.820
525.2500, 1230.182
525.7321, 1227.060
526.2142, 1224.800
526.6964, 1224.203
527.1785, 1223.937
527.6606, 1223.485
528.1427, 1222.870
528.6248, 1222.217
529.1069, 1221.628
529.5891, 1220.932
530.0712, 1219.547
530.5533, 1217.567
531.0354, 1216.786
531.5175, 1218.232
531.9996, 1220.221
532.4818, 1220.844
532.9639, 1220.215
533.4460, 1218.853
533.9281, 1215.447
534.4102, 1212.529
534.8923, 1213.110
535.3745, 1216.036
535.8566, 1217.032
536.3387, 1213.900
536.8208, 1208.865
537.3029, 1206.609
537.7850, 1209.320
538.2672, 1210.287
538.7493, 1208.153
539.2314, 1205.656
539.7135, 1203.896
540.1956, 1203.104
540.6777, 1203.518
541.1599, 1205.444
541.6420, 1208.046
542.1241, 1209.218
542.6062, 1208.765
543.0883, 1207.515
543.5704, 1205.477
544.0526, 1202.739
544.5347, 1198.773
545.0168, 1193.934
545.4989, 1189.898
545.9810, 1188.156
546.4631, 1187.357
546.9453, 1184.810
547.4274, 1180.599
547.9095, 1178.405
548.3916, 1180.719
548.8737, 1184.606
549.3558, 1184.510
549.8380, 1179.944
550.3201, 1175.945
550.8022, 1173.535
551.2843, 1171.987
551.7664, 1171.066
552.2485, 1170.517
552.7307, 1169.598
553.2128, 1167.796
553.6949, 1165.710
554.1770, 1165.185
554.6591, 1168.419
555.1412, 1169.213
555.6234, 1165.789
556.1055, 1161.662
556.5876, 1158.404
557.0697, 1156.293
557.5518, 1155.448
558.0339, 1156.252
558.5161, 1157.841
558.9982, 1158.188
559.4803, 1157.146
559.9624, 1155.731
560.4445, 1153.895
560.9266, 1152.097
561.4088, 1150.835
561.8909, 1150.068
562.3730, 1149.243
562.8551, 1148.516
563.3372, 1147.385
563.8193, 1144.777
564.3015, 1141.078
564.7836, 1138.298
565.2657, 1137.380
565.7478, 1137.673
566.2299, 1138.110
566.7120, 1139.196
567.1942, 1139.023
567.6763, 1136.152
568.1584, 1133.357
568.6405, 1132.332
569.1226, 1132.656
569.6047, 1133.141
570.0869, 1133.178
570.5690, 1132.888
571.0511, 1132.654
571.5332, 1132.750
572.0153, 1131.777
572.4974, 1128.216
572.9796, 1124.946
573.4617, 1123.806
573.9438, 1124.162
574.4259, 1124.308
574.9080, 1123.688
575.3901, 1122.391
575.8723, 1119.769
576.3544, 1116.280
576.8365, 1114.847
577.3186, 1116.805
577.8007, 1119.449
578.2828, 1119.617
578.7650, 1117.137
579.2471, 1115.211
579.7292, 1114.192
580.2113, 1113.449
580.6934, 1113.044
581.1755, 1112.603
581.6577, 1111.321
582.1398, 1108.998
582.6219, 1106.575
583.1040, 1105.498
583.5861, 1106.072
584.0682, 1105.541
584.5504, 1102.517
585.0325, 1100.050
585.5146, 1099.508
585.9967, 1099.850
586.4788, 1099.601
586.9609, 1098.310
587.4431, 1097.163
587.9252, 1097.778
588.4073, 1099.541
588.8894, 1099.862
589.3715, 1098.214
589.8536, 1096.444
590.3358, 1095.986
590.8179, 1096.290
591.3000, 1095.415
591.7821, 1092.459
592.2642, 1089.942
592.7463, 1089.313
593.2285, 1089.144
593.7106, 1087.184
594.1927, 1083.666
594.6748, 1081.427
595.1569, 1082.935
595.6390, 1087.335
596.1212, 1090.133
596.6033, 1091.224
597.0854, 1090.788
597.5675, 1087.712
598.0496, 1084.234
598.5317, 1081.636
599.0139, 1080.117
599.4960, 1079.663
599.9781, 1081.216
600.4602, 1083.121
600.9423, 1081.318
601.4244, 1075.745
601.9066, 1072.432
602.3887, 1074.435
602.8708, 1078.055
603.3529, 1077.787
603.8350, 1073.617
604.3171, 1070.793
604.7993, 1070.941
605.2814, 1071.763
605.7635, 1072.140
606.2456, 1072.018
606.7277, 1071.187
607.2098, 1069.605
607.6920, 1068.266
608.1741, 1069.112
608.6562, 1073.103
609.1383, 1073.968
609.6204, 1068.019
610.1025, 1063.151
610.5847, 1062.820
611.0668, 1064.602
611.5489, 1065.178
612.0310, 1063.604
612.5131, 1061.365
612.9952, 1059.595
613.4774, 1058.253
613.9595, 1057.282
614.4416, 1056.738
614.9237, 1056.065
615.4058, 1054.715
615.8879, 1053.052
616.3701, 1052.303
616.8522, 1053.136
617.3343, 1053.402
617.8164, 1051.885
618.2985, 1050.180
618.7806, 1049.932
619.2628, 1050.922
619.7449, 1051.885
620.2270, 1052.073
620.7091, 1051.407
621.1912, 1049.264
621.6733, 1044.452
622.1555, 1041.757
622.6376, 1044.127
623.1197, 1046.564
623.6018, 1045.849
624.0839, 1042.973
624.5660, 1040.977
625.0482, 1041.597
625.5303, 1042.619
626.0124, 1041.574
626.4945, 1039.058
626.9766, 1037.163
627.4587, 1036.419
627.9409, 1035.962
628.4230, 1035.047
628.9051, 1033.677
629.3872, 1031.828
629.8693, 1028.137
630.3514, 1025.766
630.8336, 1026.471
631.3157, 1028.135
631.7978, 1028.782
632.2799, 1028.042
632.7620, 1026.275
633.2441, 1023.127
633.7263, 1019.579
634.2084, 1020.448
634.6905, 1027.396
635.1726, 1032.062
635.6547, 1030.568
636.1368, 1026.992
636.6190, 1025.386
637.1011, 1025.663
637.5832, 1026.070
638.0653, 1026.969
638.5474, 1027.014
639.0295, 1024.142
639.5117, 1019.573
639.9938, 1016.549
640.4759, 1016.189
640.9580, 1016.865
641.4401, 1016.459
641.9222, 1014.798
642.4044, 1013.695
642.8865, 1013.866
643.3686, 1013.760
643.8507, 1012.508
644.3328, 1011.114
644.8149, 1010.801
645.2971, 1011.729
645.7792, 1012.811
646.2613, 1013.256
646.7434, 1013.182
647.2255, 1012.978
647.7076, 1012.671
648.1898, 1011.471
648.6719, 1008.503
649.1540, 1005.178
649.6361, 1004.213
650.1182, 1006.240
650.6003, 1007.187
651.0825, 1006.009
651.5646, 1004.406
652.0467, 1003.707
652.5288, 1003.186
653.0109, 1001.089
653.4930, 996.8874
653.9752, 992.3914
654.4573, 989.9164
654.9394, 989.4847
655.4215, 990.4764
655.9036, 994.2549
656.3857, 996.7705
656.8679, 994.3409
657.3500, 990.5408
657.8321, 989.7904
658.3142, 992.9173
658.7963, 995.2322
659.2784, 993.8978
659.7606, 991.1820
660.2427, 989.3629
660.7248, 988.5018
661.2069, 988.1942
661.6890, 988.3096
662.1711, 988.3909
662.6533, 987.4401
663.1354, 984.7001
663.6175, 983.5984
664.0996, 986.0163
664.5817, 988.0199
665.0638, 988.3839
665.5460, 987.5837
666.0281, 986.1546
666.5102, 984.2263
666.9923, 982.3441
667.4744, 980.9398
667.9565, 979.9348
668.4387, 979.3195
668.9208, 979.1017
669.4029, 978.3046
669.8850, 976.0795
670.3671, 973.4965
670.8492, 972.9619
671.3314, 975.8334
671.8135, 977.1203
672.2956, 975.6666
672.7777, 973.6798
673.2598, 971.8896
673.7419, 970.5087
674.2241, 969.8967
674.7062, 970.1603
675.1883, 970.4363
675.6704, 969.5381
676.1525, 967.5967
676.6346, 965.6705
677.1168, 963.3907
677.5989, 962.6055
678.0810, 965.5381
678.5631, 969.7127
679.0452, 970.4122
679.5273, 966.8093
680.0095, 964.2260
680.4916, 965.1386
680.9737, 966.4924
681.4558, 966.1482
681.9379, 964.3524
682.4200, 961.7120
682.9022, 958.5238
683.3843, 955.7028
683.8664, 954.7185
684.3485, 955.7156
684.8306, 956.4875
685.3127, 957.1219
685.7949, 957.3635
686.2770, 957.0314
686.7591, 956.2955
687.2412, 955.3290
687.7233, 954.1581
688.2054, 952.6280
688.6876, 950.3548
689.1697, 947.9227
689.6518, 945.1672
690.1339, 942.7411
690.6160, 943.1622
691.0981, 947.5092
691.5803, 952.8441
692.0624, 954.9097
692.5445, 953.2332
693.0266, 952.1669
693.5087, 952.5704
693.9908, 952.4078
694.4730, 950.8702
694.9551, 948.7140
695.4372, 946.5172
695.9193, 944.4145
696.4014, 942.7229
696.8835, 941.8204
697.3657, 941.3041
697.8478, 940.7059
698.3299, 940.0181
698.8120, 939.2442
699.2941, 938.3922
699.7762, 937.4652
700.2584, 936.4631
700.7405, 935.3790
701.2226, 934.3464
701.7047, 933.7582
702.1868, 932.7398
702.6689, 930.1075
703.1511, 927.6646
703.6332, 927.7228
704.1153, 930.0422
704.5974, 931.6014
705.0795, 929.6694
705.5616, 926.4934
706.0438, 925.9671
706.5259, 927.6217
707.0080, 928.2079
707.4901, 926.5848
707.9722, 924.9548
708.4543, 925.7918
708.9365, 929.0229
709.4186, 931.0375
709.9007, 931.4164
710.3828, 931.2104
710.8649, 930.0592
711.3470, 928.7639
711.8292, 928.2094
712.3113, 928.1981
712.7934, 927.6433
713.2755, 925.5947
713.7576, 923.3016
714.2397, 923.4882
714.7219, 925.5594
715.2040, 924.6245
715.6861, 919.1158
716.1682, 913.7996
716.6503, 912.7408
717.1324, 915.1374
717.6146, 916.4683
718.0967, 915.6594
718.5788, 915.4047
719.0609, 916.9784
719.5430, 918.2745
720.0251, 917.3037
720.5073, 914.8281
720.9894, 913.0134
721.4715, 912.9142
721.9536, 913.6188
722.4357, 914.0860
722.9178, 914.3278
723.4000, 914.4723
723.8821, 914.5748
724.3642, 914.2791
724.8463, 913.3780
725.3284, 911.9230
725.8105, 909.9448
726.2927, 906.7966
726.7748, 904.7319
727.2569, 904.3754
727.7390, 904.6047
728.2211, 904.9484
728.7032, 905.4041
729.1854, 906.3373
729.6675, 907.8030
730.1496, 908.6915
730.6317, 907.1642
731.1138, 904.0828
731.5959, 902.9854
732.0781, 904.1006
732.5602, 904.6522
733.0423, 903.3377
733.5244, 901.2415
734.0065, 899.9044
734.4886, 899.4662
734.9708, 899.0084
735.4529, 898.5317
735.9350, 898.0328
736.4171, 897.4348
736.8992, 896.8597
737.3813, 896.4597
737.8635, 896.2418
738.3456, 896.0567
738.8277, 895.7644
739.3098, 895.4637
739.7919, 895.3458
740.2740, 895.4080
740.7562, 895.7073
741.2383, 896.3970
741.7204, 896.8420
742.2025, 896.5665
742.6846, 895.5538
743.1667, 893.5881
743.6489, 889.1382
744.1310, 885.9708
744.6131, 884.8331
745.0952, 884.8318
745.5773, 885.9560
746.0594, 887.6127
746.5416, 888.6083
747.0237, 888.3486
747.5058, 887.3817
747.9879, 885.9227
748.4700, 884.2782
748.9521, 883.7648
749.4343, 884.5545
749.9164, 885.7040
750.3985, 886.9910
750.8806, 887.7784
751.3627, 886.3637
751.8448, 880.7698
752.3270, 878.1592
752.8091, 881.7884
753.2912, 884.4951
753.7733, 882.0916
754.2554, 877.7187
754.7375, 876.0867
755.2197, 878.0916
755.7018, 879.8736
756.1839, 877.8367
756.6660, 874.1487
757.1481, 872.6826
757.6302, 873.0424
758.1124, 872.5470
758.5945, 870.2313
759.0766, 867.7860
759.5587, 867.2166
760.0408, 868.4734
760.5229, 868.8817
761.0051, 867.7254
761.4872, 866.7973
761.9693, 865.9714
762.4514, 865.7513
762.9335, 867.3143
763.4156, 869.8641
763.8978, 870.7465
764.3799, 868.3164
764.8620, 865.1960
765.3441, 862.8260
765.8262, 861.4850
766.3083, 862.2338
766.7905, 864.8715
767.2726, 867.3264
767.7547, 868.4092
768.2368, 868.1924
768.7189, 866.5229
769.2010, 862.5878
769.6832, 860.2399
770.1653, 860.3718
770.6474, 860.8679
771.1295, 861.1053
771.6116, 861.0433
772.0938, 860.4933
772.5759, 859.3917
773.0580, 858.5066
773.5401, 858.3217
774.0222, 858.2999
774.5043, 858.3898
774.9865, 858.2246
775.4686, 856.5228
775.9507, 853.2465
776.4328, 851.0128
776.9149, 852.8989
777.3970, 857.5928
777.8792, 858.8271
778.3613, 855.9866
778.8434, 852.9459
779.3255, 849.9261
779.8076, 847.8906
780.2897, 848.2322
780.7719, 850.3596
781.2540, 851.7383
781.7361, 852.2264
782.2182, 852.0166
782.7003, 850.5662
783.1824, 848.9208
783.6646, 847.5518
784.1467, 846.7516
784.6288, 847.3258
785.1109, 849.6724
785.5930, 851.7679
786.0751, 850.6595
786.5573, 847.1866
787.0394, 844.7419
787.5215, 843.5026
788.0036, 842.7427
788.4857, 842.2796
788.9678, 841.8451
789.4500, 840.7211
789.9321, 838.4684
790.4142, 839.0746
790.8963, 846.2506
791.3784, 851.3646
791.8605, 851.8514
792.3427, 850.1525
792.8248, 848.1310
793.3069, 846.0168
793.7890, 843.3636
794.2711, 839.3787
794.7532, 835.8068
795.2354, 834.4912
795.7175, 834.7822
796.1996, 835.4958
796.6817, 836.4005
797.1638, 837.4103
797.6459, 838.5456
798.1281, 839.4396
798.6102, 839.1168
799.0923, 837.1933
799.5744, 835.6945
800.0565, 834.8525
800.5386, 834.0778
801.0208, 833.5952
801.5029, 832.7911
801.9850, 830.2195
802.4671, 825.6740
802.9492, 823.4915
803.4313, 827.9348
803.9135, 831.8676
804.3956, 829.2525
804.8777, 824.1649
805.3598, 823.3243
805.8419, 827.1711
806.3240, 830.2455
806.8062, 828.0825
807.2883, 823.3469
807.7704, 821.9422
808.2525, 823.7037
808.7346, 825.2463
809.2167, 826.0395
809.6989, 826.7935
810.1810, 828.1957
810.6631, 829.7202
811.1452, 829.8398
811.6273, 827.7824
812.1094, 826.0507
812.5916, 824.2242
813.0737, 823.1938
813.5558, 824.1384
814.0379, 825.6851
814.5200, 826.1106
815.0021, 825.1302
815.4843, 823.6055
815.9664, 821.6328
816.4485, 819.7351
816.9306, 818.5234
817.4127, 817.8791
817.8948, 817.5388
818.3770, 817.4286
818.8591, 817.5667
819.3412, 818.0451
819.8233, 818.5901
820.3054, 818.2599
820.7875, 816.8541
821.2697, 815.3881
821.7518, 813.6803
822.2339, 812.3574
822.7160, 811.9166
823.1981, 812.0458
823.6802, 812.0136
824.1624, 811.5021
824.6445, 812.2939
825.1266, 817.4776
825.6087, 821.1186
826.0908, 818.1935
826.5729, 812.5486
827.0551, 809.8195
827.5372, 810.7912
828.0193, 812.1119
828.5014, 811.3297
828.9835, 810.9965
829.4656, 808.3772
829.9478, 807.7828
830.4299, 805.9740
830.9120, 802.5909
831.3941, 800.3882
831.8762, 801.5654
832.3583, 804.6671
832.8404, 805.6783
833.3225, 803.5981
833.8046, 802.2897
834.2867, 802.5704
834.7689, 802.5573
835.2510, 801.2777
835.7331, 799.5364
836.2152, 798.2606
836.6973, 797.5274
837.1794, 796.7956
837.6616, 795.5516
838.1437, 794.6281
838.6258, 794.6385
839.1079, 795.2253
839.5900, 796.4506
840.0721, 797.8741
840.5543, 797.7512
841.0364, 794.6811
841.5185, 790.8674
842.0006, 790.4996
842.4827, 792.9470
842.9648, 794.1640
843.4470, 793.7704
843.9291, 792.0670
844.4112, 788.7234
844.8933, 785.2482
845.3754, 784.3172
845.8575, 786.4131
846.3397, 788.0299
846.8218, 789.7278
847.3039, 790.1356
847.7860, 787.3074
848.2681, 784.4634
848.7502, 784.9775
849.2324, 788.0414
849.7145, 789.6575
850.1966, 788.2017
850.6787, 785.8270
851.1608, 783.0597
851.6429, 780.5087
852.1251, 778.8917
852.6072, 778.1124
853.0893, 777.9573
853.5714, 778.3041
854.0535, 778.2573
854.5356, 775.6777
855.0178, 777.2250
855.4999, 772.3558
855.9820, 777.8697
856.4641, 781.3407
856.9462, 780.3627
857.4283, 778.2126
857.9105, 778.2418
858.3926, 780.0370
858.8747, 780.2431
859.3568, 778.0948
859.8389, 775.6896
860.3210, 772.0684
860.8032, 769.3322
861.2853, 769.1988
861.7674, 770.3817
862.2495, 770.4506
862.7316, 768.7745
863.2137, 768.1495
863.6959, 771.0160
864.1780, 774.1221
864.6601, 775.5469
865.1422, 775.2168
865.6243, 772.1214
866.1064, 766.8468
866.5886, 763.0995
867.0707, 763.9222
867.5528, 766.9437
868.0349, 768.0293
868.5170, 767.4040
868.9991, 766.1706
869.4813, 764.4077
869.9634, 763.6926
870.4455, 765.2438
870.9276, 767.3524
871.4097, 766.6766
871.8918, 762.6082
872.3740, 760.0524
872.8561, 759.9782
873.3382, 759.8478
873.8203, 758.3279
874.3024, 757.0577
874.7845, 757.5549
875.2667, 759.5052
875.7488, 761.4017
876.2309, 763.6390
876.7130, 764.6207
877.1951, 763.3605
877.6772, 760.9675
878.1594, 757.5789
878.6415, 754.0028
879.1236, 751.6414
879.6057, 750.9323
880.0878, 751.0424
880.5699, 751.6307
881.0521, 752.3295
881.5342, 752.5062
882.0163, 752.1975
882.4984, 751.3532
882.9805, 750.0012
883.4626, 749.0485
883.9448, 749.2457
884.4269, 750.2794
884.9090, 751.2789
885.3911, 752.2579
885.8732, 753.2504
886.3553, 754.6427
886.8375, 755.1669
887.3196, 754.1896
887.8017, 752.0675
888.2838, 748.8212
888.7659, 744.2314
889.2480, 741.3768
889.7302, 741.4128
890.2123, 741.7469
890.6944, 741.8548
891.1765, 741.9256
891.6586, 742.1362
892.1407, 742.4566
892.6229, 742.8688
893.1050, 743.5056
893.5871, 743.5624
894.0692, 741.9276
894.5513, 739.8675
895.0334, 738.7275
895.5156, 738.4219
895.9977, 738.8564
896.4798, 739.8319
896.9619, 740.1381
897.4440, 738.2830
897.9261, 735.6599
898.4083, 736.5496
898.8904, 740.4696
899.3725, 741.4507
899.8546, 738.3581
900.3367, 735.1089
900.8188, 733.9011
901.3010, 734.1654
901.7831, 735.0436
902.2652, 736.9003
902.7473, 736.9451
903.2294, 733.9377
903.7115, 731.3020
904.1937, 730.3204
904.6758, 729.7214
905.1579, 727.7702
905.6400, 725.1778
906.1221, 725.1277
906.6042, 730.4000
907.0864, 733.7727
907.5685, 731.7240
908.0506, 728.9268
908.5327, 728.9574
909.0148, 730.2492
909.4969, 729.4923
909.9791, 726.1699
910.4612, 723.7259
910.9433, 725.4462
911.4254, 728.1335
911.9075, 728.2336
912.3896, 726.8263
912.8718, 726.1251
913.3539, 726.2975
913.8360, 726.0865
914.3181, 724.7613
914.8002, 723.1024
915.2823, 722.5749
915.7645, 722.9362
916.2466, 721.9474
916.7287, 719.4698
917.2108, 718.4193
917.6929, 720.0411
918.1750, 721.9905
918.6572, 721.8849
919.1393, 720.1216
919.6214, 718.9854
920.1035, 718.5300
920.5856, 718.6252
921.0677, 720.1290
921.5499, 720.9958
922.0320, 719.7054
922.5141, 717.4860
922.9962, 715.5954
923.4783, 714.0012
923.9604, 714.0005
924.4426, 718.6624
924.9247, 721.1974
925.4068, 716.9205
925.8889, 711.5947
926.3710, 710.7753
926.8531, 713.2121
927.3353, 714.5944
927.8174, 713.4648
928.2995, 711.3322
928.7816, 708.0818
929.2637, 705.2855
929.7458, 704.9963
930.2280, 706.3942
930.7101, 707.9110
931.1922, 709.0703
931.6743, 709.6706
932.1564, 709.4963
932.6385, 708.9154
933.1207, 708.4427
933.6028, 708.1102
934.0849, 708.3027
934.5670, 708.9929
935.0491, 708.8054
935.5313, 707.0494
936.0134, 705.1462
936.4955, 705.0284
936.9776, 703.9637
937.4597, 703.3951
937.9418, 704.1102
938.4240, 703.2243
938.9061, 705.0495
939.3882, 706.4141
939.8703, 704.8025
940.3524, 701.7145
940.8345, 700.4504
941.3167, 701.4628
941.7988, 702.5809
942.2809, 704.3785
942.7630, 705.5082
943.2451, 705.1336
943.7272, 704.3989
944.2094, 704.7087
944.6915, 705.4799
945.1736, 704.3814
945.6557, 699.6344
946.1378, 696.4845
946.6199, 698.5154
947.1021, 701.0826
947.5842, 701.1071
948.0663, 699.4052
948.5484, 696.8545
949.0305, 694.0266
949.5126, 692.3927
949.9948, 693.0359
950.4769, 694.7408
950.9590, 697.1633
951.4411, 699.4223
951.9232, 699.8688
952.4053, 698.7624
952.8875, 697.3328
953.3696, 696.0984
953.8517, 695.1893
954.3338, 694.7111
954.8159, 694.6973
955.2980, 695.6578
955.7802, 697.3226
956.2623, 697.5859
956.7444, 696.0823
957.2265, 694.5464
957.7086, 693.9903
958.1907, 694.0749
958.6729, 694.3860
959.1550, 694.9515
959.6371, 694.0770
960.1192, 691.2522
960.6013, 689.1124
961.0834, 688.5010
961.5656, 688.3255
962.0477, 687.7488
962.5298, 686.8834
963.0119, 686.1668
963.4940, 685.9647
963.9761, 684.9572
964.4583, 681.8087
964.9404, 679.6419
965.4225, 679.7802
965.9046, 680.9961
966.3867, 682.7797
966.8688, 684.7946
967.3510, 685.2532
967.8331, 682.7604
968.3152, 680.7320
968.7973, 679.6116
969.2794, 679.4858
969.7615, 681.5383
970.2437, 684.0348
970.7258, 684.2473
971.2079, 682.0208
971.6900, 680.1943
972.1721, 680.3845
972.6542, 680.8995
973.1364, 681.1539
973.6185, 680.8083
974.1006, 678.9053
974.5827, 676.1881
975.0648, 674.2733
975.5469, 673.7095
976.0291, 674.2836
976.5112, 676.8135
976.9933, 679.4543
977.4754, 679.3975
977.9575, 677.5925
978.4396, 675.6367
978.9218, 674.0622
979.4039, 674.2984
979.8860, 677.0933
980.3681, 679.6737
980.8502, 677.5612
981.3323, 672.3859
981.8145, 670.0637
982.2966, 670.3251
982.7787, 670.9839
983.2608, 671.5720
983.7429, 672.5218
984.2250, 674.3698
984.7072, 675.7274
985.1893, 673.1857
985.6714, 666.5701
986.1535, 661.5408
986.6356, 657.8255
987.1177, 657.7253
987.5999, 662.7990
988.0820, 668.9396
988.5641, 672.9623
989.0462, 674.9902
989.5283, 675.3365
990.0104, 673.6652
990.4926, 671.1404
990.9747, 666.1893
991.4568, 663.4635
991.9389, 665.3752
992.4210, 669.2139
992.9031, 672.8483
993.3853, 676.1459
993.8674, 678.2148
994.3495, 679.0381
994.8316, 678.6791
995.3137, 676.0356
995.7958, 673.5175
996.2780, 672.4825
996.7601, 671.8070
997.2422, 669.7903
997.7243, 666.6785
998.2064, 665.0812
998.6885, 667.0199
999.1707, 668.0888
999.6528, 665.7122
1000.135, 663.6551
1000.617, 665.0997
1001.099, 668.0029
1001.581, 669.2947
1002.063, 668.6027
1002.545, 667.4324
1003.028, 665.9763
1003.510, 664.8235
1003.992, 664.3375
1004.474, 664.2658
1004.956, 664.6229
1005.438, 665.1285
1005.920, 665.4595
1006.402, 665.4749
1006.885, 664.8008
1007.367, 662.8006
1007.849, 660.5322
1008.331, 658.3876
1008.813, 656.9869
1009.295, 658.1842
1009.777, 660.8741
1010.259, 661.2480
1010.741, 658.1891
1011.224, 655.5457
1011.706, 657.6439
1012.188, 655.5997
1012.670, 659.8732
1013.152, 656.2126
1013.634, 655.1984
1014.116, 657.0598
1014.598, 659.8217
1015.081, 662.5643
1015.563, 664.5845
1016.045, 664.8120
1016.527, 663.9734
1017.009, 664.0999
1017.491, 664.8417
1017.973, 664.6277
1018.455, 663.2236
1018.937, 660.3538
1019.420, 655.7305
1019.902, 651.9994
1020.384, 653.5389
1020.866, 658.7541
1021.348, 659.5224
1021.830, 656.0319
1022.312, 653.7380
1022.794, 653.5757
1023.276, 654.0456
1023.759, 654.3701
1024.241, 654.5419
1024.723, 654.5838
1025.205, 654.4744
1025.687, 653.6140
1026.169, 651.7388
1026.651, 651.7215
1027.133, 654.7111
1027.616, 656.4452
1028.098, 653.7990
1028.580, 649.6071
1029.062, 649.2415
1029.544, 652.8511
1030.026, 654.6326
1030.508, 654.2521
1030.990, 653.1288
1031.473, 651.0660
1031.955, 649.3388
1032.437, 648.6425
1032.919, 648.9307
1033.401, 650.3735
1033.883, 653.2452
1034.365, 654.4924
1034.847, 653.7209
1035.329, 652.1039
1035.812, 648.7792
1036.294, 646.2956
1036.776, 646.8328
1037.258, 648.8932
1037.740, 649.4852
1038.222, 648.3115
1038.704, 647.6058
1039.186, 647.0930
1039.668, 647.5209
1040.151, 650.4584
1040.633, 652.7332
1041.115, 651.6914
1041.597, 648.9119
1042.079, 647.2874
1042.561, 646.8483
1043.043, 647.3118
1043.525, 650.4614
1044.008, 651.9694
1044.490, 649.8485
1044.972, 647.2000
1045.454, 645.5391
1045.936, 644.7860
1046.418, 645.0335
1046.900, 646.4976
1047.382, 646.7857
1047.865, 643.8781
1048.347, 642.2601
1048.829, 644.2709
1049.311, 646.5287
1049.793, 647.1951
1050.275, 646.4566
1050.757, 644.0555
1051.239, 639.8163
1051.721, 638.2701
1052.203, 643.2090
1052.686, 646.8846
1053.168, 646.1595
1053.650, 644.4326
1054.132, 643.9232
1054.614, 644.0687
1055.096, 643.5947
1055.578, 642.3527
1056.060, 641.5632
1056.543, 642.5959
1057.025, 642.6710
1057.507, 639.1878
1057.989, 636.1687
1058.471, 637.5550
1058.953, 640.8071
1059.435, 641.6643
1059.917, 639.6428
1060.400, 637.4147
1060.882, 634.2717
1061.364, 633.2313
1061.846, 638.3415
1062.328, 642.9189
1062.810, 640.2570
1063.292, 634.8212
1063.774, 634.4044
1064.256, 639.3701
1064.739, 642.4792
1065.221, 639.7302
1065.703, 637.2352
1066.185, 638.4474
1066.667, 639.8184
1067.149, 638.3466
1067.631, 635.6535
1068.113, 634.0968
1068.595, 633.9445
1069.078, 634.4180
1069.560, 636.1445
1070.042, 636.4911
1070.524, 631.9003
1071.006, 628.0447
1071.488, 629.9955
1071.970, 634.4519
1072.452, 637.3974
1072.935, 638.2150
1073.417, 637.2890
1073.899, 633.9327
1074.381, 631.3495
1074.863, 631.6850
1075.345, 632.6068
1075.827, 632.8132
1076.309, 632.5016
1076.792, 631.8768
1077.274, 631.0676
1077.756, 630.2382
1078.238, 629.3095
1078.720, 628.9736
1079.202, 629.4762
1079.684, 630.7682
1080.166, 634.4119
1080.648, 637.6210
1081.130, 636.7020
1081.613, 632.7480
1082.095, 629.4826
1082.577, 627.9210
1083.059, 627.2596
1083.541, 627.4112
1084.023, 628.0260
1084.505, 629.7795
1084.987, 631.1691
1085.469, 630.0858
1085.952, 627.6161
1086.434, 626.5375
1086.916, 627.5193
1087.398, 628.2675
1087.880, 627.2141
1088.362, 626.5032
1088.844, 628.3336
1089.326, 629.8601
1089.809, 627.5203
1090.291, 623.5375
1090.773, 622.1465
1091.255, 623.9904
1091.737, 626.3710
1092.219, 629.7982
1092.701, 631.4852
1093.183, 628.9703
1093.666, 625.7650
1094.148, 624.2437
1094.630, 623.7764
1095.112, 623.1080
1095.594, 622.2149
1096.076, 622.2501
1096.558, 624.5354
1097.040, 625.8128
1097.522, 624.0615
1098.005, 622.1037
1098.487, 621.5687
1098.969, 621.7353
1099.451, 621.8317
1099.933, 621.7565
1100.415, 621.5209
1100.897, 621.1006
1101.379, 620.5974
1101.861, 619.5292
1102.344, 619.0148
1102.826, 621.0284
1103.308, 622.5309
1103.790, 619.2033
1104.272, 613.2952
1104.754, 611.5204
1105.236, 615.7171
1105.718, 618.8027
1106.201, 618.7181
1106.683, 618.4803
1107.165, 619.1476
1107.647, 619.7670
1108.129, 619.9147
1108.611, 619.4369
1109.093, 617.6854
1109.575, 614.4470
1110.057, 612.8234
1110.540, 613.9424
1111.022, 615.4520
1111.504, 618.1559
1111.986, 619.8860
1112.468, 619.2068
1112.950, 617.1769
1113.432, 614.3958
1113.914, 611.0876
1114.396, 610.6166
1114.879, 616.5219
1115.361, 619.1360
1115.843, 615.9735
1116.325, 612.9349
1116.807, 612.1790
1117.289, 612.1984
1117.771, 611.4850
1118.253, 610.3779
1118.736, 610.2462
1119.218, 611.4875
1119.700, 612.4388
1120.182, 613.2717
1120.664, 613.3949
1121.146, 612.2482
1121.628, 611.0742
1122.110, 610.6484
1122.593, 610.9280
1123.075, 612.0220
1123.557, 614.0550
1124.039, 614.5894
1124.521, 612.8743
1125.003, 612.6232
1125.485, 615.1691
1125.967, 616.5775
1126.449, 614.4172
1126.932, 611.0305
1127.414, 609.4124
1127.896, 609.4943
1128.378, 611.6072
1128.860, 616.3761
1129.342, 616.0042
1129.824, 608.9734
1130.306, 605.0118
1130.788, 608.0476
1131.271, 612.4224
1131.753, 612.7800
1132.235, 610.9144
1132.717, 612.1702
1133.199, 616.0821
1133.681, 614.7792
1134.163, 608.4148
1134.645, 606.0303
1135.128, 609.6477
1135.610, 612.8494
1136.092, 611.5188
1136.574, 608.5470
1137.056, 608.2910
1137.538, 609.8776
1138.020, 610.3763
1138.502, 610.0800
1138.984, 610.4563
1139.467, 611.4898
1139.949, 611.7077
1140.431, 610.5449
1140.913, 609.0092
1141.395, 608.0242
1141.877, 607.2740
1142.359, 605.5905
1142.841, 604.0665
1143.323, 605.6657
1143.806, 609.3961
1144.288, 612.1747
1144.770, 613.2180
1145.252, 613.1284
1145.734, 612.0802
1146.216, 610.9090
1146.698, 610.4739
1147.180, 610.3073
1147.663, 610.0323
1148.145, 609.5494
1148.627, 608.8066
1149.109, 607.7363
1149.591, 605.6468
1150.073, 602.2440
1150.555, 600.9738
1151.037, 606.4856
1151.520, 611.5931
1152.002, 611.7225
1152.484, 609.2736
1152.966, 604.6540
1153.448, 600.0218
1153.930, 599.1524
1154.412, 602.1109
1154.894, 604.3246
1155.376, 603.9151
1155.859, 603.5602
1156.341, 604.8782
1156.823, 605.4769
1157.305, 603.4974
1157.787, 600.7173
1158.269, 598.1702
1158.751, 596.4558
1159.233, 597.4312
1159.715, 602.2968
1160.198, 605.7358
1160.680, 607.1144
1161.162, 607.4700
1161.644, 606.2610
1162.126, 604.9588
1162.608, 604.2859
1163.090, 604.0779
1163.572, 604.1268
1164.055, 604.4252
1164.537, 605.0074
1165.019, 606.5158
1165.501, 605.9172
1165.983, 601.8283
1166.465, 599.6860
1166.947, 602.0253
1167.429, 605.1631
1167.911, 606.0524
1168.394, 604.9872
1168.876, 601.9584
1169.358, 602.7035
1169.840, 596.5059
1170.322, 600.6697
1170.804, 601.7347
1171.286, 598.2157
1171.768, 595.7048
1172.250, 597.1898
1172.733, 599.8650
1173.215, 600.2646
1173.697, 599.4278
1174.179, 600.4771
1174.661, 599.6812
1175.143, 601.8214
1175.625, 598.9736
1176.107, 597.2135
1176.590, 597.3986
1177.072, 598.3559
1177.554, 599.4781
1178.036, 600.1885
1178.518, 599.1494
1179.000, 597.8998
1179.482, 598.6992
1179.964, 600.6093
1180.447, 602.3585
1180.929, 603.5869
1181.411, 604.2250
1181.893, 604.2194
1182.375, 602.7601
1182.857, 596.9987
1183.339, 592.8410
1183.821, 595.5933
1184.303, 599.2546
1184.786, 598.0372
1185.268, 595.3011
1185.750, 597.1706
1186.232, 602.7634
1186.714, 604.3513
1187.196, 598.1324
1187.678, 594.8713
1188.160, 599.7316
1188.642, 603.2279
1189.125, 600.4958
1189.607, 597.6114
1190.089, 599.4922
1190.571, 603.3771
1191.053, 604.6654
1191.535, 603.3795
1192.017, 601.1674
1192.499, 596.9951
1192.982, 595.2595
1193.464, 597.0995
1193.946, 598.7546
1194.428, 598.9924
1194.910, 598.2247
1195.392, 596.6157
1195.874, 594.7087
1196.356, 593.9216
1196.839, 594.1412
1197.321, 593.4215
1197.803, 591.9276
1198.285, 592.6804
1198.767, 595.8798
1199.249, 597.4041
1199.731, 595.4326
1200.213, 593.0992
1200.695, 593.7197
1201.177, 595.4254
1201.660, 594.9026
1202.142, 595.1146
1202.624, 593.1358
1203.106, 593.8209
1203.588, 593.3506
1204.070, 591.8143
1204.552, 591.7091
1205.034, 594.3702
1205.517, 595.9660
1205.999, 591.7050
1206.481, 587.9642
1206.963, 591.0370
1207.445, 595.2733
1207.927, 594.5853
1208.409, 591.2713
1208.891, 589.7929
1209.374, 590.6669
1209.856, 592.3022
1210.338, 595.2914
1210.820, 597.0807
1211.302, 596.4775
1211.784, 595.6512
1212.266, 595.5726
1212.748, 595.2545
1213.230, 593.9286
1213.713, 591.8896
1214.195, 589.3287
1214.677, 586.2161
1215.159, 586.4167
1215.641, 591.2794
1216.123, 593.3510
1216.605, 591.5071
1217.087, 589.2674
1217.569, 587.7796
1218.052, 587.3459
1218.534, 588.4202
1219.016, 590.0230
1219.498, 589.9547
1219.980, 588.6940
1220.462, 588.4173
1220.944, 588.8766
1221.426, 588.8267
1221.909, 588.2727
1222.391, 588.0842
1222.873, 588.6202
1223.355, 590.0779
1223.837, 593.4334
1224.319, 595.7836
1224.801, 593.0332
1225.283, 588.6828
1225.766, 585.9041
1226.248, 584.7291
1226.730, 585.6732
1227.212, 587.8096
1227.694, 588.6795
1228.176, 587.6131
1228.658, 585.7065
1229.140, 581.2347
1229.622, 579.0104
1230.104, 582.9263
1230.587, 586.6591
1231.069, 586.1173
1231.551, 583.9910
1232.033, 582.9426
1232.515, 583.0026
1232.997, 584.6283
1233.479, 583.5457
1233.961, 582.7358
1234.444, 583.6375
1234.926, 583.1812
1235.408, 581.8803
1235.890, 583.5167
1236.372, 583.8027
1236.854, 583.3459
1237.336, 582.6605
1237.818, 582.1223
1238.301, 583.0659
1238.783, 584.9289
1239.265, 585.7264
1239.747, 585.4187
1240.229, 583.7217
1240.711, 581.0925
1241.193, 579.8256
1241.675, 580.9031
1242.157, 582.0165
1242.640, 580.8450
1243.122, 579.5627
1243.604, 581.2756
1244.086, 582.6130
1244.568, 578.0404
1245.050, 572.2490
1245.532, 573.3789
1246.014, 580.1719
1246.496, 584.3493
1246.979, 583.6808
1247.461, 583.2333
1247.943, 584.5167
1248.425, 585.0740
1248.907, 584.3594
1249.389, 582.9076
1249.871, 580.3563
1250.353, 578.0605
1250.836, 577.8033
1251.318, 575.9532
1251.800, 574.7780
1252.282, 574.6276
1252.764, 573.3026
1253.246, 573.8556
1253.728, 575.2501
1254.210, 577.2563
1254.693, 579.0531
1255.175, 580.2542
1255.657, 580.2055
1256.139, 577.8428
1256.621, 575.0766
1257.103, 575.0286
1257.585, 576.3307
1258.067, 577.1888
1258.549, 577.4789
1259.031, 576.8341
1259.514, 575.6834
1259.996, 575.4139
1260.478, 576.4273
1260.960, 577.2726
1261.442, 577.3535
1261.924, 577.1139
1262.406, 576.2636
1262.888, 575.6594
1263.371, 575.4684
1263.853, 576.0168
1264.335, 578.4580
1264.817, 581.5011
1265.299, 581.7725
1265.781, 581.8373
1266.263, 577.6962
1266.745, 578.2979
1267.228, 576.8220
1267.710, 572.3137
1268.192, 570.9167
1268.674, 574.9859
1269.156, 578.9603
1269.638, 578.3879
1270.120, 575.6737
1270.602, 574.1964
1271.084, 573.7217
1271.567, 574.1747
1272.049, 575.0052
1272.531, 574.6096
1273.013, 573.6229
1273.495, 574.7250
1273.977, 577.9016
1274.459, 578.7610
1274.941, 574.2703
1275.423, 571.2098
1275.906, 574.7569
1276.388, 577.8923
1276.870, 576.4736
1277.352, 574.1226
1277.834, 573.7796
1278.316, 574.2664
1278.798, 573.0846
1279.280, 574.2761
1279.763, 571.7700
1280.245, 576.9661
1280.727, 581.0936
1281.209, 584.4417
1281.691, 584.6494
1282.173, 580.9235
1282.655, 578.0771
1283.137, 578.5844
1283.620, 579.7186
1284.102, 578.3858
1284.584, 576.1241
1285.066, 575.2682
##END=



