##NAMES=Hydroxylellestadite
##RRUFFID=R060769
##IDEAL CHEMISTRY=Ca_5_(SiO_4_)_1.5_(S^6+^O_4_)_1.5_(OH)
##LOCALITY=Crestmore, Riverside County, California, USA
##OWNER=RRUFF
##SOURCE=Michael Scott
##DESCRIPTION=Transparent tan-yellow prismatic crystals in blue calcite
##STATUS=The identification of this mineral is confirmed by single-crystal X-ray diffraction and chemical analysis.
##URL=rruff.info/R060769
##MEASURED CHEMISTRY=Ca_5.00_((SiO_4_)_1.23_(SO_4_)_1.09_(PO_4_)_0.68_)_Σ=3_((OH)_0.89_Cl_0.11_)_Σ=1_; OH estimated by difference and stoichiometry
123.933, 3516.843
124.415, 3577.909
124.898, 3625.017
125.380, 3667.614
125.862, 3706.228
126.344, 3743.579
126.826, 3784.042
127.308, 3824.339
127.790, 3857.477
128.272, 3878.302
128.755, 3892.919
129.237, 3911.372
129.719, 3933.696
130.201, 3959.234
130.683, 3989.898
131.165, 4024.529
131.647, 4056.052
132.129, 4075.888
132.611, 4088.222
133.094, 4116.896
133.576, 4164.845
134.058, 4222.496
134.540, 4275.193
135.022, 4322.403
135.504, 4372.125
135.986, 4430.987
136.468, 4499.756
136.951, 4563.110
137.433, 4619.138
137.915, 4669.168
138.397, 4720.752
138.879, 4777.146
139.361, 4827.723
139.843, 4866.387
140.325, 4892.746
140.807, 4907.245
141.290, 4906.015
141.772, 4889.556
142.254, 4881.399
142.736, 4882.353
143.218, 4890.902
143.700, 4906.805
144.182, 4936.937
144.664, 4961.919
145.146, 4975.077
145.629, 4971.185
146.111, 4973.288
146.593, 4985.940
147.075, 5003.120
147.557, 5012.461
148.039, 5010.334
148.521, 5004.021
149.003, 4995.729
149.486, 4977.020
149.968, 4968.016
150.450, 4976.720
150.932, 4998.275
151.414, 5009.027
151.896, 4998.881
152.378, 4985.353
152.860, 4977.986
153.342, 4980.527
153.825, 4986.355
154.307, 5001.383
154.789, 5025.534
155.271, 5033.058
155.753, 5003.107
156.235, 4962.052
156.717, 4933.441
157.199, 4925.581
157.682, 4927.053
158.164, 4935.159
158.646, 4949.857
159.128, 4969.105
159.610, 5002.903
160.092, 5038.486
160.574, 5057.713
161.056, 5039.309
161.538, 5012.761
162.020, 4992.193
162.503, 4978.782
162.985, 4973.372
163.467, 4985.903
163.949, 5008.070
164.431, 5018.519
164.913, 4993.370
165.395, 4960.111
165.878, 4941.149
166.360, 4952.491
166.842, 4966.870
167.324, 4969.829
167.806, 4962.378
168.288, 4949.730
168.770, 4927.353
169.252, 4903.939
169.734, 4889.249
170.217, 4887.617
170.699, 4895.575
171.181, 4914.896
171.663, 4945.431
172.145, 4973.438
172.627, 4987.102
173.109, 4990.979
173.591, 4992.968
174.073, 4991.990
174.556, 4992.851
175.038, 5003.508
175.520, 5025.965
176.002, 5048.458
176.484, 5056.342
176.966, 5054.345
177.448, 5056.129
177.930, 5075.433
178.413, 5102.078
178.895, 5118.644
179.377, 5121.582
179.859, 5117.623
180.341, 5110.127
180.823, 5100.750
181.305, 5099.024
181.787, 5121.862
182.269, 5157.907
182.751, 5175.480
183.234, 5160.071
183.716, 5132.860
184.198, 5132.351
184.680, 5158.135
185.162, 5191.322
185.644, 5222.244
186.126, 5249.159
186.609, 5264.979
187.091, 5262.989
187.573, 5250.243
188.055, 5237.839
188.537, 5223.719
189.019, 5229.566
189.501, 5236.712
189.983, 5256.688
190.465, 5273.548
190.947, 5287.462
191.430, 5289.604
191.912, 5306.741
192.394, 5298.735
192.876, 5318.115
193.358, 5320.619
193.840, 5306.078
194.322, 5292.589
194.804, 5287.309
195.287, 5290.112
195.769, 5298.729
196.251, 5315.958
196.733, 5334.012
197.215, 5334.614
197.697, 5314.980
198.179, 5301.689
198.661, 5315.154
199.143, 5356.581
199.626, 5381.920
200.108, 5384.688
200.590, 5372.950
201.072, 5364.313
201.554, 5357.902
202.036, 5357.922
202.518, 5370.179
203.000, 5396.724
203.482, 5416.831
203.965, 5426.595
204.447, 5428.323
204.929, 5432.332
205.411, 5440.405
205.893, 5445.296
206.375, 5437.757
206.857, 5413.021
207.339, 5399.458
207.822, 5404.444
208.304, 5425.755
208.786, 5446.281
209.268, 5470.666
209.750, 5486.248
210.232, 5475.074
210.714, 5426.031
211.196, 5390.964
211.678, 5384.948
212.161, 5408.246
212.643, 5426.545
213.125, 5440.583
213.607, 5448.869
214.089, 5446.228
214.571, 5424.686
215.053, 5413.605
215.536, 5426.386
216.018, 5468.152
216.500, 5485.365
216.982, 5466.540
217.464, 5433.520
217.946, 5419.445
218.428, 5431.069
218.910, 5446.685
219.392, 5459.629
219.874, 5469.157
220.357, 5479.859
220.839, 5496.746
221.321, 5511.501
221.803, 5504.848
222.285, 5462.850
222.767, 5425.661
223.249, 5411.014
223.731, 5428.059
224.214, 5442.544
224.696, 5454.225
225.178, 5463.627
225.660, 5471.664
226.142, 5474.744
226.624, 5482.047
227.106, 5500.065
227.588, 5540.190
228.070, 5563.980
228.553, 5563.896
229.035, 5547.008
229.517, 5539.056
229.999, 5545.307
230.481, 5552.888
230.963, 5554.244
231.445, 5544.901
231.927, 5538.515
232.410, 5534.456
232.892, 5533.767
233.374, 5543.478
233.856, 5573.098
234.338, 5601.088
234.820, 5613.032
235.302, 5599.539
235.784, 5588.433
236.266, 5581.219
236.749, 5578.233
237.231, 5583.243
237.713, 5602.696
238.195, 5622.867
238.677, 5632.980
239.159, 5626.604
239.641, 5622.943
240.123, 5625.767
240.605, 5634.792
241.088, 5639.829
241.570, 5637.420
242.052, 5634.759
242.534, 5637.808
243.016, 5648.087
243.498, 5661.135
243.980, 5677.315
244.462, 5696.571
244.945, 5712.023
245.427, 5719.092
245.909, 5726.265
246.391, 5743.026
246.873, 5777.903
247.355, 5805.667
247.837, 5819.347
248.319, 5817.841
248.801, 5820.155
249.284, 5827.102
249.766, 5837.184
250.248, 5850.239
250.730, 5872.276
251.212, 5886.117
251.694, 5885.631
252.176, 5869.392
252.658, 5858.356
253.141, 5851.672
253.623, 5851.501
254.105, 5861.906
254.587, 5889.770
255.069, 5914.449
255.551, 5929.248
256.033, 5932.295
256.515, 5941.055
256.997, 5956.490
257.480, 5976.575
257.962, 5999.888
258.444, 6028.313
258.926, 6055.497
259.408, 6079.298
259.890, 6099.019
260.372, 6119.793
260.854, 6142.885
261.336, 6165.643
261.819, 6186.333
262.301, 6207.189
262.783, 6219.360
263.265, 6215.704
263.747, 6191.877
264.229, 6186.357
264.711, 6208.735
265.194, 6239.255
265.676, 6245.850
266.158, 6219.603
266.640, 6194.816
267.122, 6183.609
267.604, 6187.584
268.086, 6192.707
268.568, 6199.028
269.050, 6206.725
269.533, 6217.393
270.015, 6233.893
270.497, 6244.710
270.979, 6243.560
271.461, 6228.704
271.943, 6220.319
272.425, 6219.774
272.907, 6223.957
273.389, 6229.409
273.872, 6237.222
274.354, 6241.324
274.836, 6237.398
275.318, 6224.511
275.800, 6217.646
276.282, 6218.078
276.764, 6222.188
277.246, 6225.188
277.728, 6227.206
278.211, 6226.766
278.693, 6223.428
279.175, 6217.112
279.657, 6205.377
280.139, 6185.400
280.621, 6165.414
281.103, 6160.270
281.585, 6171.230
282.068, 6181.899
282.550, 6187.089
283.032, 6186.718
283.514, 6176.524
283.996, 6153.283
284.478, 6128.806
284.960, 6126.708
285.442, 6147.579
285.924, 6156.634
286.407, 6128.486
286.889, 6070.490
287.371, 6036.936
287.853, 6030.795
288.335, 6039.212
288.817, 6050.101
289.299, 6062.995
289.781, 6068.738
290.263, 6059.788
290.746, 6039.800
291.228, 6023.759
291.710, 6012.090
292.192, 6002.699
292.674, 5990.801
293.156, 5977.668
293.638, 5971.612
294.121, 5982.530
294.603, 6003.108
295.085, 6013.943
295.567, 6014.374
296.049, 6009.735
296.531, 6003.347
297.013, 5996.268
297.495, 5992.331
297.977, 5989.150
298.460, 5991.305
298.942, 6013.109
299.424, 6056.837
299.906, 6098.107
300.388, 6107.134
300.870, 6094.067
301.352, 6086.140
301.834, 6102.395
302.316, 6126.726
302.798, 6135.850
303.281, 6128.731
303.763, 6119.169
304.245, 6114.167
304.727, 6115.263
305.209, 6125.688
305.691, 6157.819
306.173, 6193.375
306.655, 6213.723
307.138, 6219.089
307.620, 6218.196
308.102, 6212.139
308.584, 6205.183
309.066, 6203.394
309.548, 6215.117
310.030, 6228.724
310.512, 6235.723
310.995, 6236.492
311.477, 6235.213
311.959, 6234.013
312.441, 6232.274
312.923, 6229.303
313.405, 6228.063
313.887, 6222.828
314.369, 6207.122
314.851, 6182.375
315.334, 6161.635
315.816, 6156.829
316.298, 6155.962
316.780, 6148.714
317.262, 6125.021
317.744, 6101.606
318.226, 6084.157
318.708, 6072.154
319.190, 6062.381
319.673, 6052.174
320.155, 6044.847
320.637, 6042.789
321.119, 6055.674
321.601, 6063.197
322.083, 6058.042
322.565, 6042.791
323.047, 6028.328
323.530, 6015.670
324.012, 6004.897
324.494, 5996.021
324.976, 5988.894
325.458, 5983.697
325.940, 5985.035
326.422, 5989.044
326.904, 5983.741
327.387, 5964.257
327.869, 5938.483
328.351, 5908.287
328.833, 5857.266
329.315, 5828.924
329.797, 5839.584
330.279, 5871.269
330.761, 5883.378
331.243, 5865.245
331.725, 5840.288
332.208, 5815.207
332.690, 5786.663
333.172, 5768.170
333.654, 5768.745
334.136, 5774.508
334.618, 5758.546
335.100, 5707.007
335.582, 5661.154
336.065, 5636.413
336.547, 5636.611
337.029, 5633.858
337.511, 5627.460
337.993, 5618.638
338.475, 5608.738
338.957, 5597.814
339.439, 5585.249
339.922, 5569.983
340.404, 5552.132
340.886, 5539.665
341.368, 5536.034
341.850, 5529.213
342.332, 5502.322
342.814, 5454.012
343.296, 5409.477
343.778, 5373.758
344.261, 5347.289
344.743, 5333.432
345.225, 5333.557
345.707, 5336.667
346.189, 5332.779
346.671, 5322.665
347.153, 5311.327
347.635, 5300.078
348.117, 5287.897
348.600, 5270.909
349.082, 5249.210
349.564, 5228.344
350.046, 5212.288
350.528, 5200.183
351.010, 5191.064
351.492, 5185.259
351.974, 5181.114
352.457, 5176.430
352.939, 5171.524
353.421, 5167.974
353.903, 5172.294
354.385, 5176.821
354.867, 5169.326
355.349, 5143.994
355.831, 5118.336
356.314, 5107.322
356.796, 5107.383
357.278, 5109.990
357.760, 5118.865
358.242, 5123.688
358.724, 5113.277
359.206, 5082.995
359.688, 5054.645
360.170, 5033.831
360.652, 5023.365
361.135, 5027.438
361.617, 5070.568
362.099, 5109.187
362.581, 5117.399
363.063, 5090.376
363.545, 5071.059
364.027, 5080.255
364.509, 5099.868
364.991, 5112.248
365.474, 5105.516
365.956, 5099.670
366.438, 5102.691
366.920, 5114.452
367.402, 5117.593
367.884, 5091.441
368.366, 5068.074
368.849, 5069.381
369.331, 5130.955
369.813, 5171.695
370.295, 5177.023
370.777, 5154.434
371.259, 5142.320
371.741, 5145.794
372.223, 5153.708
372.705, 5159.944
373.188, 5160.761
373.670, 5168.541
374.152, 5185.214
374.634, 5207.975
375.116, 5232.009
375.598, 5261.432
376.080, 5281.413
376.562, 5280.420
377.044, 5254.025
377.527, 5246.783
378.009, 5262.770
378.491, 5290.298
378.973, 5313.552
379.455, 5332.415
379.937, 5351.635
380.419, 5373.882
380.901, 5398.298
381.384, 5420.849
381.866, 5441.332
382.348, 5461.558
382.830, 5480.397
383.312, 5499.499
383.794, 5527.053
384.276, 5566.815
384.758, 5614.994
385.240, 5668.324
385.723, 5725.174
386.205, 5776.790
386.687, 5804.032
387.169, 5823.202
387.651, 5864.684
388.133, 5945.865
388.615, 6029.729
389.097, 6076.004
389.579, 6095.523
390.062, 6123.326
390.544, 6187.111
391.026, 6262.906
391.508, 6330.822
391.990, 6386.511
392.472, 6440.213
392.954, 6490.865
393.436, 6544.051
393.918, 6607.744
394.401, 6698.632
394.883, 6789.288
395.365, 6868.488
395.847, 6935.754
396.329, 6996.458
396.811, 7053.070
397.293, 7103.279
397.776, 7144.270
398.258, 7158.737
398.740, 7182.629
399.222, 7226.778
399.704, 7289.154
400.186, 7343.259
400.668, 7387.511
401.150, 7424.868
401.632, 7456.309
402.115, 7476.622
402.597, 7501.631
403.079, 7536.806
403.561, 7575.813
404.043, 7600.566
404.525, 7607.759
405.007, 7608.500
405.489, 7606.666
405.971, 7601.940
406.454, 7596.203
406.936, 7587.220
407.418, 7581.375
407.900, 7591.350
408.382, 7617.748
408.864, 7641.051
409.346, 7653.763
409.828, 7657.847
410.310, 7658.975
410.793, 7656.758
411.275, 7657.484
411.757, 7671.368
412.239, 7693.727
412.721, 7709.100
413.203, 7709.852
413.685, 7706.100
414.167, 7711.964
414.650, 7726.026
415.132, 7740.619
415.614, 7751.512
416.096, 7759.840
416.578, 7764.851
417.060, 7762.621
417.542, 7768.312
418.024, 7804.401
418.507, 7854.707
418.989, 7889.295
419.471, 7873.567
419.953, 7855.835
420.435, 7864.392
420.917, 7903.836
421.399, 7945.490
421.881, 7984.475
422.363, 8019.685
422.845, 8049.259
423.328, 8071.704
423.810, 8090.556
424.292, 8104.396
424.774, 8114.067
425.256, 8127.281
425.738, 8151.261
426.220, 8172.381
426.703, 8182.366
427.185, 8169.550
427.667, 8169.461
428.149, 8189.731
428.631, 8219.636
429.113, 8234.694
429.595, 8229.397
430.077, 8222.620
430.559, 8220.661
431.042, 8223.472
431.524, 8232.111
432.006, 8248.939
432.488, 8265.104
432.970, 8269.046
433.452, 8261.174
433.934, 8251.352
434.416, 8239.537
434.898, 8229.342
435.381, 8233.372
435.863, 8251.039
436.345, 8265.277
436.827, 8260.963
437.309, 8244.135
437.791, 8226.200
438.273, 8207.552
438.755, 8192.020
439.237, 8181.391
439.720, 8176.571
440.202, 8179.906
440.684, 8200.225
441.166, 8223.919
441.648, 8240.247
442.130, 8248.038
442.612, 8252.997
443.094, 8252.447
443.577, 8252.478
444.059, 8259.437
444.541, 8276.109
445.023, 8298.948
445.505, 8329.209
445.987, 8366.262
446.469, 8402.632
446.951, 8427.042
447.434, 8459.371
447.916, 8509.572
448.398, 8585.639
448.880, 8664.679
449.362, 8747.370
449.844, 8832.950
450.326, 8918.959
450.808, 9001.647
451.290, 9094.595
451.772, 9200.668
452.255, 9320.149
452.737, 9452.515
453.219, 9597.264
453.701, 9754.063
454.183, 9923.853
454.665, 10106.940
455.147, 10295.500
455.629, 10485.230
456.112, 10680.450
456.594, 10882.030
457.076, 11092.410
457.558, 11318.670
458.040, 11596.740
458.522, 11885.870
459.004, 12111.130
459.486, 12255.320
459.969, 12374.150
460.451, 12525.000
460.933, 12683.130
461.415, 12803.800
461.897, 12849.500
462.379, 12867.340
462.861, 12893.380
463.343, 12924.610
463.825, 12917.010
464.308, 12838.070
464.790, 12722.060
465.272, 12593.210
465.754, 12455.860
466.236, 12306.310
466.718, 12125.980
467.200, 11932.200
467.682, 11766.550
468.164, 11650.400
468.647, 11539.220
469.129, 11419.800
469.611, 11293.460
470.093, 11159.300
470.575, 11015.300
471.057, 10866.360
471.539, 10712.060
472.021, 10548.900
472.504, 10402.300
472.986, 10283.660
473.468, 10180.980
473.950, 10052.900
474.432, 9898.545
474.914, 9736.481
475.396, 9582.316
475.878, 9430.970
476.361, 9256.658
476.843, 9051.248
477.325, 8852.141
477.807, 8706.475
478.289, 8597.522
478.771, 8485.125
479.253, 8347.180
479.735, 8202.044
480.217, 8063.054
480.699, 7929.847
481.182, 7805.325
481.664, 7696.787
482.146, 7592.563
482.628, 7480.819
483.110, 7350.833
483.592, 7228.030
484.074, 7120.578
484.556, 7023.772
485.039, 6932.075
485.521, 6848.841
486.003, 6764.321
486.485, 6673.715
486.967, 6576.697
487.449, 6486.802
487.931, 6402.076
488.413, 6327.125
488.896, 6266.485
489.378, 6225.394
489.860, 6182.211
490.342, 6132.383
490.824, 6081.693
491.306, 6049.827
491.788, 6038.847
492.270, 6022.476
492.752, 5980.667
493.234, 5920.968
493.717, 5877.460
494.199, 5850.917
494.681, 5832.117
495.163, 5810.440
495.645, 5789.281
496.127, 5776.161
496.609, 5775.753
497.091, 5781.355
497.574, 5786.492
498.056, 5792.358
498.538, 5802.780
499.020, 5820.003
499.502, 5842.539
499.984, 5876.605
500.466, 5932.469
500.948, 5958.702
501.431, 5909.583
501.913, 5836.519
502.395, 5795.633
502.877, 5826.300
503.359, 5851.956
503.841, 5858.574
504.323, 5849.953
504.805, 5849.576
505.287, 5861.575
505.770, 5875.068
506.252, 5884.194
506.734, 5887.560
507.216, 5892.927
507.698, 5899.579
508.180, 5909.687
508.662, 5930.332
509.144, 5960.761
509.626, 5983.142
510.109, 5990.032
510.591, 5986.563
511.073, 5977.159
511.555, 5963.514
512.037, 5963.147
512.519, 6002.834
513.001, 6058.178
513.484, 6091.842
513.966, 6093.266
514.448, 6096.095
514.930, 6132.078
515.412, 6182.488
515.894, 6219.519
516.376, 6216.254
516.858, 6213.994
517.340, 6231.184
517.822, 6265.963
518.305, 6297.067
518.787, 6305.322
519.269, 6321.469
519.751, 6364.400
520.233, 6460.756
520.715, 6523.450
521.197, 6540.304
521.679, 6533.872
522.161, 6534.806
522.644, 6543.681
523.126, 6558.259
523.608, 6577.616
524.090, 6602.406
524.572, 6640.094
525.054, 6691.389
525.536, 6737.777
526.018, 6760.620
526.500, 6767.304
526.983, 6782.863
527.465, 6811.908
527.947, 6840.835
528.429, 6852.219
528.911, 6853.470
529.393, 6858.837
529.875, 6875.863
530.357, 6897.456
530.840, 6925.903
531.322, 6958.022
531.804, 6975.521
532.286, 6958.313
532.768, 6934.372
533.250, 6920.296
533.732, 6925.187
534.214, 6923.053
534.696, 6907.791
535.179, 6886.621
535.661, 6868.325
536.143, 6856.317
536.625, 6840.306
537.107, 6817.298
537.589, 6788.780
538.071, 6762.740
538.554, 6739.080
539.036, 6717.195
539.518, 6698.471
540.000, 6681.764
540.482, 6659.169
540.964, 6629.411
541.446, 6598.079
541.928, 6571.822
542.410, 6548.595
542.893, 6522.633
543.375, 6488.465
543.857, 6454.474
544.339, 6430.561
544.821, 6414.000
545.303, 6396.434
545.785, 6366.328
546.267, 6339.493
546.750, 6327.430
547.232, 6334.156
547.714, 6339.879
548.196, 6342.694
548.678, 6341.516
549.160, 6334.620
549.642, 6306.475
550.124, 6297.806
550.606, 6322.707
551.089, 6366.116
551.571, 6381.341
552.053, 6357.098
552.535, 6342.130
553.017, 6363.561
553.499, 6415.514
553.981, 6438.626
554.463, 6429.342
554.945, 6420.005
555.428, 6447.460
555.910, 6498.613
556.392, 6538.573
556.874, 6559.056
557.356, 6571.062
557.838, 6582.488
558.320, 6593.895
558.802, 6606.466
559.284, 6611.074
559.767, 6625.269
560.249, 6666.632
560.731, 6733.296
561.213, 6788.100
561.695, 6812.306
562.177, 6828.785
562.659, 6850.680
563.141, 6880.683
563.623, 6911.595
564.106, 6946.575
564.588, 6979.661
565.070, 6999.536
565.552, 7000.568
566.034, 7009.981
566.516, 7037.020
566.998, 7075.560
567.481, 7102.773
567.963, 7118.463
568.445, 7134.243
568.927, 7158.153
569.409, 7187.622
569.891, 7218.312
570.373, 7250.728
570.855, 7277.384
571.337, 7286.213
571.820, 7287.514
572.302, 7295.959
572.784, 7321.801
573.266, 7347.033
573.748, 7366.614
574.230, 7379.657
574.712, 7384.637
575.194, 7368.758
575.677, 7356.994
576.159, 7357.542
576.641, 7370.675
577.123, 7389.932
577.605, 7425.943
578.087, 7453.212
578.569, 7452.650
579.051, 7420.198
579.533, 7380.823
580.016, 7329.896
580.498, 7286.167
580.980, 7290.447
581.462, 7334.898
581.944, 7363.363
582.426, 7354.426
582.908, 7320.530
583.390, 7269.807
583.872, 7206.987
584.355, 7155.143
584.837, 7145.952
585.319, 7141.194
585.801, 7105.422
586.283, 7029.615
586.765, 6960.671
587.247, 6913.557
587.729, 6881.933
588.211, 6860.753
588.694, 6877.998
589.176, 6866.797
589.658, 6808.059
590.140, 6725.584
590.622, 6671.632
591.104, 6653.955
591.586, 6642.052
592.068, 6627.953
592.550, 6611.544
593.033, 6588.764
593.515, 6558.732
593.997, 6535.344
594.479, 6537.303
594.961, 6552.258
595.443, 6547.352
595.925, 6515.124
596.407, 6488.688
596.890, 6497.276
597.372, 6529.220
597.854, 6568.181
598.336, 6612.503
598.818, 6658.938
599.300, 6704.965
599.782, 6752.022
600.264, 6803.914
600.747, 6868.770
601.229, 6930.637
601.711, 6982.893
602.193, 7024.704
602.675, 7078.907
603.157, 7153.063
603.639, 7224.146
604.121, 7267.005
604.604, 7281.315
605.086, 7320.928
605.568, 7395.114
606.050, 7479.348
606.532, 7539.538
607.014, 7581.225
607.496, 7622.707
607.978, 7674.980
608.460, 7724.656
608.943, 7747.442
609.425, 7754.741
609.907, 7784.716
610.389, 7882.969
610.871, 7984.615
611.353, 8046.888
611.835, 8058.826
612.317, 8107.514
612.799, 8224.996
613.282, 8365.268
613.764, 8505.380
614.246, 8650.157
614.728, 8776.259
615.210, 8869.721
615.692, 8963.209
616.174, 9112.256
616.656, 9318.701
617.138, 9523.278
617.621, 9709.141
618.103, 9884.154
618.585, 10055.630
619.067, 10226.580
619.549, 10411.920
620.031, 10645.460
620.513, 10881.330
620.995, 11072.510
621.477, 11216.080
621.960, 11341.780
622.442, 11461.240
622.924, 11566.980
623.406, 11653.300
623.888, 11717.910
624.370, 11764.500
624.852, 11794.920
625.334, 11807.080
625.817, 11797.490
626.299, 11763.950
626.781, 11715.490
627.263, 11649.220
627.745, 11573.100
628.227, 11511.720
628.709, 11464.310
629.191, 11410.130
629.674, 11341.990
630.156, 11258.420
630.638, 11150.420
631.120, 11019.390
631.602, 10884.990
632.084, 10756.910
632.566, 10633.490
633.048, 10514.540
633.531, 10404.450
634.013, 10287.990
634.495, 10150.700
634.977, 10008.960
635.459, 9880.047
635.941, 9767.477
636.423, 9662.334
636.905, 9553.479
637.387, 9456.397
637.870, 9416.177
638.352, 9438.308
638.834, 9476.949
639.316, 9515.155
639.798, 9556.600
640.280, 9615.604
640.762, 9690.523
641.244, 9766.379
641.726, 9846.065
642.208, 9912.657
642.691, 9944.058
643.173, 9936.398
643.655, 9907.716
644.137, 9865.992
644.619, 9808.260
645.101, 9732.329
645.583, 9644.246
646.065, 9527.752
646.547, 9367.858
647.030, 9186.384
647.512, 9017.188
647.994, 8872.145
648.476, 8704.370
648.958, 8495.605
649.440, 8261.851
649.922, 8053.904
650.404, 7870.946
650.887, 7690.235
651.369, 7483.911
651.851, 7275.763
652.333, 7110.479
652.815, 6985.479
653.297, 6867.826
653.779, 6729.820
654.261, 6592.060
654.744, 6473.759
655.226, 6381.924
655.708, 6298.158
656.190, 6214.216
656.672, 6138.408
657.154, 6078.961
657.636, 6043.385
658.118, 6008.793
658.601, 5971.181
659.083, 5935.033
659.565, 5914.048
660.047, 5908.948
660.529, 5897.783
661.011, 5866.278
661.493, 5828.747
661.975, 5817.211
662.457, 5827.366
662.940, 5835.281
663.422, 5821.762
663.904, 5803.210
664.386, 5793.764
664.868, 5794.894
665.350, 5796.684
665.832, 5792.308
666.314, 5789.816
666.796, 5792.135
667.279, 5784.273
667.761, 5778.169
668.243, 5783.055
668.725, 5785.273
669.207, 5784.967
669.689, 5774.577
670.171, 5777.208
670.653, 5775.824
671.135, 5789.672
671.618, 5781.497
672.100, 5757.906
672.582, 5743.597
673.064, 5761.185
673.546, 5783.439
674.028, 5786.614
674.510, 5774.395
674.992, 5759.881
675.474, 5745.327
675.957, 5732.870
676.439, 5722.914
676.921, 5715.569
677.403, 5714.177
677.885, 5720.605
678.367, 5730.418
678.849, 5743.437
679.331, 5760.795
679.814, 5763.597
680.296, 5747.641
680.778, 5730.126
681.260, 5730.258
681.742, 5743.922
682.224, 5760.595
682.706, 5779.529
683.188, 5795.738
683.670, 5805.536
684.153, 5809.285
684.635, 5807.633
685.117, 5794.517
685.599, 5783.071
686.081, 5778.376
686.563, 5778.984
687.045, 5778.657
687.528, 5776.950
688.010, 5775.571
688.492, 5775.414
688.974, 5776.236
689.456, 5774.401
689.938, 5769.184
690.420, 5768.535
690.902, 5782.024
691.384, 5803.182
691.867, 5817.677
692.349, 5824.769
692.831, 5825.487
693.313, 5815.194
693.795, 5801.570
694.277, 5792.092
694.759, 5789.346
695.241, 5787.480
695.723, 5778.407
696.206, 5773.263
696.688, 5786.014
697.170, 5834.239
697.652, 5858.954
698.134, 5847.156
698.616, 5818.237
699.098, 5807.010
699.580, 5813.291
700.062, 5828.240
700.545, 5857.228
701.027, 5883.813
701.509, 5871.488
701.991, 5832.729
702.473, 5809.331
702.955, 5845.010
703.437, 5883.781
703.919, 5884.968
704.402, 5850.939
704.884, 5828.896
705.366, 5840.514
705.848, 5853.548
706.330, 5853.860
706.812, 5839.229
707.294, 5835.569
707.776, 5846.250
708.258, 5858.084
708.741, 5858.083
709.223, 5849.153
709.705, 5845.779
710.187, 5849.497
710.669, 5857.719
711.151, 5873.649
711.633, 5890.630
712.115, 5897.788
712.597, 5885.682
713.080, 5877.205
713.562, 5891.158
714.044, 5911.088
714.526, 5911.784
715.008, 5872.165
715.490, 5844.837
715.972, 5838.245
716.455, 5845.882
716.937, 5855.201
717.419, 5866.779
717.901, 5870.402
718.383, 5857.682
718.865, 5838.390
719.347, 5834.903
719.829, 5844.041
720.311, 5851.590
720.794, 5842.689
721.276, 5834.636
721.758, 5847.372
722.240, 5879.420
722.722, 5893.355
723.204, 5858.096
723.686, 5822.044
724.168, 5806.541
724.651, 5813.546
725.133, 5827.187
725.615, 5850.907
726.097, 5871.976
726.579, 5874.428
727.061, 5862.816
727.543, 5870.815
728.025, 5904.551
728.507, 5929.690
728.990, 5897.139
729.472, 5841.192
729.954, 5811.473
730.436, 5828.838
730.918, 5852.999
731.400, 5874.510
731.882, 5891.771
732.364, 5902.707
732.846, 5907.989
733.329, 5905.462
733.811, 5891.973
734.293, 5872.876
734.775, 5855.807
735.257, 5840.396
735.739, 5838.605
736.221, 5860.025
736.703, 5888.957
737.185, 5900.872
737.668, 5898.717
738.150, 5891.943
738.632, 5875.088
739.114, 5864.460
739.596, 5879.409
740.078, 5913.394
740.560, 5927.088
741.042, 5884.584
741.524, 5852.668
742.007, 5856.358
742.489, 5892.836
742.971, 5914.383
743.453, 5918.413
743.935, 5919.066
744.417, 5922.952
744.899, 5930.516
745.381, 5948.305
745.864, 5975.734
746.346, 5993.625
746.828, 5973.231
747.310, 5945.269
747.792, 5941.383
748.274, 5972.371
748.756, 5995.997
749.238, 6000.703
749.721, 5995.599
750.203, 5986.828
750.685, 5973.506
751.167, 5960.091
751.649, 5946.787
752.131, 5934.067
752.613, 5919.111
753.095, 5904.198
753.578, 5902.443
754.060, 5917.729
754.542, 5941.107
755.024, 5972.209
755.506, 6002.875
755.988, 6020.159
756.470, 6011.604
756.952, 5999.609
757.434, 5989.021
757.917, 5979.073
758.399, 5968.261
758.881, 5953.352
759.363, 5945.729
759.845, 5949.827
760.327, 5960.348
760.809, 5963.670
761.291, 5960.827
761.773, 5960.899
762.255, 5968.087
762.738, 5979.813
763.220, 5994.622
763.702, 6011.546
764.184, 6027.417
764.666, 6045.368
765.148, 6057.628
765.630, 6056.506
766.112, 6044.360
766.594, 6040.921
767.077, 6047.526
767.559, 6060.035
768.041, 6080.416
768.523, 6105.498
769.005, 6114.124
769.487, 6106.246
769.969, 6097.057
770.451, 6094.559
770.934, 6097.516
771.416, 6107.422
771.898, 6123.475
772.380, 6134.564
772.862, 6130.482
773.344, 6123.813
773.826, 6122.775
774.308, 6129.664
774.791, 6132.344
775.273, 6131.788
775.755, 6125.891
776.237, 6109.011
776.719, 6082.540
777.201, 6069.671
777.683, 6071.507
778.165, 6080.527
778.648, 6094.137
779.130, 6108.907
779.612, 6119.686
780.094, 6125.049
780.576, 6129.192
781.058, 6135.896
781.540, 6140.838
782.022, 6139.330
782.504, 6124.718
782.987, 6119.011
783.469, 6125.622
783.951, 6135.767
784.433, 6140.188
784.915, 6139.312
785.397, 6135.585
785.879, 6128.234
786.361, 6124.075
786.843, 6136.981
787.326, 6156.129
787.808, 6164.114
788.290, 6149.189
788.772, 6136.269
789.254, 6132.999
789.736, 6137.137
790.218, 6146.249
790.700, 6165.330
791.182, 6176.575
791.665, 6175.322
792.147, 6169.408
792.629, 6173.693
793.111, 6186.152
793.593, 6190.620
794.075, 6179.013
794.557, 6166.227
795.039, 6167.626
795.521, 6179.435
796.004, 6195.033
796.486, 6222.724
796.968, 6241.854
797.450, 6242.928
797.932, 6233.056
798.414, 6222.953
798.896, 6209.017
799.378, 6207.234
799.861, 6224.760
800.343, 6251.372
800.825, 6267.718
801.307, 6274.352
801.789, 6273.407
802.271, 6257.922
802.753, 6244.047
803.235, 6246.732
803.718, 6261.779
804.200, 6279.964
804.682, 6308.373
805.164, 6327.696
805.646, 6332.576
806.128, 6326.003
806.610, 6313.034
807.092, 6290.007
807.575, 6280.888
808.057, 6298.813
808.539, 6329.808
809.021, 6342.149
809.503, 6341.014
809.985, 6346.186
810.467, 6377.776
810.949, 6409.523
811.431, 6422.677
811.914, 6421.874
812.396, 6425.701
812.878, 6436.011
813.360, 6452.836
813.842, 6479.407
814.324, 6512.142
814.806, 6533.048
815.288, 6541.534
815.770, 6554.249
816.253, 6581.221
816.735, 6615.140
817.217, 6646.293
817.699, 6674.486
818.181, 6700.036
818.663, 6718.420
819.145, 6738.585
819.627, 6765.036
820.109, 6797.482
820.592, 6831.098
821.074, 6867.207
821.556, 6900.958
822.038, 6929.874
822.520, 6955.290
823.002, 6980.541
823.484, 7006.692
823.966, 7043.504
824.448, 7103.880
824.931, 7172.151
825.413, 7237.508
825.895, 7299.021
826.377, 7351.030
826.859, 7376.777
827.341, 7409.735
827.823, 7459.479
828.305, 7525.047
828.788, 7607.846
829.270, 7711.122
829.752, 7812.727
830.234, 7898.744
830.716, 7976.365
831.198, 8059.851
831.680, 8148.958
832.162, 8246.016
832.644, 8346.763
833.127, 8459.491
833.609, 8593.729
834.091, 8746.274
834.573, 8904.942
835.055, 9077.147
835.537, 9239.442
836.019, 9372.892
836.502, 9491.248
836.984, 9664.996
837.466, 9893.667
837.948, 10127.990
838.430, 10336.220
838.912, 10542.270
839.394, 10773.790
839.876, 11029.590
840.358, 11308.070
840.841, 11620.520
841.323, 11943.440
841.805, 12274.760
842.287, 12611.870
842.769, 12940.340
843.251, 13249.450
843.733, 13591.550
844.215, 14004.270
844.697, 14452.230
845.180, 14849.220
845.662, 15202.220
846.144, 15557.440
846.626, 15940.700
847.108, 16330.740
847.590, 16714.510
848.072, 17096.490
848.554, 17497.150
849.036, 17959.439
849.519, 18368.561
850.001, 18678.770
850.483, 18930.240
850.965, 19264.820
851.447, 19679.721
851.929, 20038.770
852.411, 20281.330
852.893, 20456.039
853.375, 20607.141
853.858, 20739.789
854.340, 20869.510
854.822, 21037.539
855.304, 21162.859
855.786, 21220.840
856.268, 21220.061
856.750, 21166.141
857.232, 21050.820
857.715, 20926.891
858.197, 20817.480
858.679, 20686.779
859.161, 20454.811
859.643, 20143.609
860.125, 19830.010
860.607, 19550.240
861.089, 19255.320
861.571, 18917.240
862.054, 18545.730
862.536, 18148.680
863.018, 17698.789
863.500, 17279.070
863.982, 16900.850
864.464, 16547.080
864.946, 16196.530
865.429, 15840.820
865.911, 15437.060
866.393, 14953.290
866.875, 14471.280
867.357, 14062.310
867.839, 13700.490
868.321, 13342.080
868.803, 12954.360
869.285, 12599.740
869.768, 12297.020
870.250, 12015.180
870.732, 11718.570
871.214, 11403.960
871.696, 11125.890
872.178, 10894.000
872.660, 10681.790
873.142, 10456.690
873.625, 10233.070
874.107, 10030.420
874.589, 9855.446
875.071, 9695.534
875.553, 9548.708
876.035, 9415.228
876.517, 9295.107
876.999, 9189.889
877.481, 9093.784
877.964, 9008.016
878.446, 8929.174
878.928, 8853.071
879.410, 8781.982
879.892, 8719.987
880.374, 8667.624
880.856, 8621.936
881.338, 8580.812
881.820, 8546.059
882.303, 8520.397
882.785, 8505.663
883.267, 8490.221
883.749, 8474.813
884.231, 8456.750
884.713, 8431.500
885.195, 8401.597
885.677, 8381.330
886.159, 8370.114
886.641, 8360.575
887.124, 8340.774
887.606, 8326.119
888.088, 8336.121
888.570, 8368.739
889.052, 8383.901
889.534, 8355.429
890.016, 8340.446
890.498, 8366.060
890.981, 8418.665
891.463, 8431.883
891.945, 8407.533
892.427, 8384.488
892.909, 8385.508
893.391, 8394.439
893.873, 8393.941
894.355, 8386.945
894.838, 8382.200
895.320, 8381.295
895.802, 8384.526
896.284, 8396.806
896.766, 8410.701
897.248, 8408.287
897.730, 8389.147
898.212, 8360.871
898.695, 8320.273
899.177, 8283.892
899.659, 8275.894
900.141, 8287.208
900.623, 8301.883
901.105, 8326.436
901.587, 8336.655
902.069, 8312.096
902.551, 8277.757
903.034, 8262.357
903.516, 8272.599
903.998, 8260.919
904.480, 8217.143
904.962, 8173.347
905.444, 8174.437
905.926, 8199.507
906.408, 8210.969
906.890, 8201.278
907.373, 8183.817
907.855, 8150.932
908.337, 8123.181
908.819, 8118.151
909.301, 8142.444
909.783, 8156.114
910.265, 8159.332
910.747, 8152.006
911.229, 8123.567
911.712, 8087.365
912.194, 8077.605
912.676, 8093.572
913.158, 8107.462
913.640, 8095.357
914.122, 8084.301
914.604, 8095.907
915.086, 8127.318
915.568, 8136.745
916.051, 8118.122
916.533, 8093.187
917.015, 8083.772
917.497, 8110.257
917.979, 8128.028
918.461, 8137.552
918.943, 8114.135
919.425, 8133.255
919.908, 8135.328
920.390, 8136.702
920.872, 8161.810
921.354, 8143.182
921.836, 8167.915
922.318, 8175.338
922.800, 8178.750
923.282, 8184.375
923.765, 8207.493
924.247, 8242.471
924.729, 8274.802
925.211, 8302.966
925.693, 8320.571
926.175, 8308.576
926.657, 8291.604
927.139, 8298.974
927.622, 8351.019
928.104, 8377.482
928.586, 8366.290
929.068, 8358.284
929.550, 8405.028
930.032, 8486.233
930.514, 8522.150
930.996, 8508.243
931.478, 8503.819
931.961, 8567.873
932.443, 8639.842
932.925, 8668.167
933.407, 8646.407
933.889, 8664.730
934.371, 8736.502
934.853, 8815.181
935.335, 8881.134
935.817, 8938.399
936.300, 8994.739
936.782, 9052.819
937.264, 9125.010
937.746, 9229.256
938.228, 9338.385
938.710, 9431.623
939.192, 9519.869
939.674, 9631.086
940.156, 9767.297
940.639, 9928.502
941.121, 10120.990
941.603, 10326.150
942.085, 10508.680
942.567, 10680.670
943.049, 10875.830
943.531, 11104.320
944.013, 11362.000
944.495, 11657.330
944.978, 11974.910
945.460, 12297.400
945.942, 12617.160
946.424, 12969.950
946.906, 13362.750
947.388, 13771.540
947.870, 14177.590
948.352, 14587.960
948.835, 15019.930
949.317, 15474.340
949.799, 15947.500
950.281, 16449.320
950.763, 16958.289
951.245, 17476.199
951.727, 17998.830
952.209, 18486.811
952.692, 18936.539
953.174, 19364.520
953.656, 19775.961
954.138, 20172.080
954.620, 20565.211
955.102, 20941.830
955.584, 21260.199
956.066, 21484.100
956.549, 21668.131
957.031, 21825.330
957.513, 21955.090
957.995, 22065.590
958.477, 22165.820
958.959, 22200.811
959.441, 22166.490
959.923, 22056.150
960.405, 21817.699
960.888, 21512.740
961.370, 21253.311
961.852, 21071.910
962.334, 20850.100
962.816, 20557.449
963.298, 20191.881
963.780, 19746.369
964.262, 19215.789
964.744, 18703.711
965.227, 18209.750
965.709, 17704.930
966.191, 17175.170
966.673, 16631.721
967.155, 16094.720
967.637, 15564.530
968.119, 15046.490
968.601, 14536.840
969.083, 14053.600
969.566, 13615.950
970.048, 13203.910
970.530, 12783.940
971.012, 12359.240
971.494, 11956.200
971.976, 11583.090
972.458, 11240.450
972.940, 10936.730
973.422, 10665.540
973.905, 10419.690
974.387, 10202.410
974.869, 10002.710
975.351, 9818.241
975.833, 9655.232
976.315, 9519.252
976.797, 9408.444
977.279, 9308.239
977.762, 9218.457
978.244, 9143.747
978.726, 9086.095
979.208, 9046.767
979.690, 9023.683
980.172, 9019.172
980.654, 9046.716
981.136, 9114.958
981.619, 9189.580
982.101, 9255.334
982.583, 9330.583
983.065, 9456.694
983.547, 9622.916
984.029, 9799.345
984.511, 9958.543
984.993, 10155.610
985.476, 10423.150
985.958, 10740.560
986.440, 11079.290
986.922, 11430.840
987.404, 11830.610
987.886, 12279.000
988.368, 12784.190
988.850, 13349.670
989.332, 13987.050
989.815, 14710.150
990.297, 15520.710
990.779, 16395.109
991.261, 17296.939
991.743, 18301.150
992.225, 19412.619
992.707, 20636.801
993.189, 21986.359
993.671, 23450.670
994.154, 25030.570
994.636, 26735.480
995.118, 28550.311
995.600, 30421.660
996.082, 32365.779
996.564, 34386.781
997.046, 36534.820
997.528, 38697.379
998.010, 40894.180
998.493, 43094.949
998.975, 45278.180
999.457, 47439.051
999.939, 49455.500
1000.421, 51313.629
1000.903, 53051.988
1001.385, 54736.781
1001.867, 56244.578
1002.350, 57514.000
1002.832, 58517.762
1003.314, 59207.719
1003.796, 59566.609
1004.278, 59675.449
1004.760, 59578.430
1005.242, 59218.852
1005.724, 58465.500
1006.206, 57371.230
1006.689, 56054.770
1007.171, 54558.789
1007.653, 52847.289
1008.135, 50854.910
1008.617, 48683.699
1009.099, 46417.531
1009.581, 44057.500
1010.063, 41675.211
1010.545, 39270.078
1011.028, 36904.301
1011.510, 34584.449
1011.992, 32323.270
1012.474, 30146.570
1012.956, 28068.289
1013.438, 26125.100
1013.920, 24343.240
1014.402, 22672.490
1014.885, 21079.830
1015.367, 19596.480
1015.849, 18286.250
1016.331, 17138.750
1016.813, 16079.450
1017.295, 15069.650
1017.777, 14174.870
1018.259, 13486.080
1018.741, 12917.270
1019.224, 12378.150
1019.706, 11852.940
1020.188, 11395.980
1020.670, 11010.450
1021.152, 10677.930
1021.634, 10392.590
1022.116, 10146.890
1022.598, 9924.504
1023.081, 9725.465
1023.563, 9554.225
1024.045, 9424.558
1024.527, 9309.561
1025.009, 9201.271
1025.491, 9101.241
1025.973, 9019.321
1026.455, 8953.347
1026.938, 8877.524
1027.420, 8780.692
1027.902, 8693.894
1028.384, 8655.140
1028.866, 8635.046
1029.348, 8600.063
1029.830, 8536.188
1030.312, 8500.363
1030.794, 8501.903
1031.276, 8506.980
1031.759, 8498.576
1032.241, 8476.379
1032.723, 8430.919
1033.205, 8369.054
1033.687, 8317.324
1034.169, 8291.146
1034.651, 8273.808
1035.133, 8261.167
1035.616, 8252.320
1036.098, 8247.385
1036.580, 8246.317
1037.062, 8243.449
1037.544, 8237.703
1038.026, 8229.733
1038.508, 8224.890
1038.990, 8214.918
1039.473, 8184.962
1039.955, 8129.424
1040.437, 8099.482
1040.919, 8108.313
1041.401, 8119.462
1041.883, 8117.790
1042.365, 8107.394
1042.847, 8097.666
1043.329, 8088.430
1043.812, 8078.238
1044.294, 8067.231
1044.776, 8054.865
1045.258, 8035.991
1045.740, 8018.820
1046.222, 8014.714
1046.704, 8026.501
1047.186, 8023.244
1047.668, 8001.608
1048.151, 7983.565
1048.633, 7996.089
1049.115, 8015.252
1049.597, 8014.801
1050.079, 7995.117
1050.561, 7976.160
1051.043, 7953.162
1051.525, 7945.827
1052.008, 7962.291
1052.490, 7992.575
1052.972, 8018.821
1053.454, 8042.154
1053.936, 8067.004
1054.418, 8096.761
1054.900, 8120.155
1055.382, 8123.714
1055.865, 8124.798
1056.347, 8138.827
1056.829, 8166.947
1057.311, 8173.164
1057.793, 8156.787
1058.275, 8143.221
1058.757, 8142.619
1059.239, 8157.770
1059.721, 8202.980
1060.203, 8265.848
1060.686, 8314.023
1061.168, 8340.328
1061.650, 8355.518
1062.132, 8356.729
1062.614, 8356.111
1063.096, 8368.953
1063.578, 8391.893
1064.060, 8416.855
1064.543, 8442.994
1065.025, 8471.523
1065.507, 8511.312
1065.989, 8544.575
1066.471, 8563.143
1066.953, 8569.392
1067.435, 8567.354
1067.917, 8558.260
1068.400, 8570.290
1068.882, 8627.072
1069.364, 8677.669
1069.846, 8665.280
1070.328, 8624.856
1070.810, 8599.777
1071.292, 8599.664
1071.774, 8599.757
1072.256, 8600.876
1072.739, 8598.293
1073.221, 8590.298
1073.703, 8575.212
1074.185, 8547.800
1074.667, 8510.032
1075.149, 8470.648
1075.631, 8434.118
1076.113, 8393.697
1076.595, 8342.999
1077.078, 8293.149
1077.560, 8270.675
1078.042, 8267.988
1078.524, 8232.942
1079.006, 8156.849
1079.488, 8083.739
1079.970, 8048.309
1080.452, 8024.795
1080.934, 7995.952
1081.417, 7962.243
1081.899, 7927.089
1082.381, 7888.604
1082.863, 7866.473
1083.345, 7873.931
1083.827, 7889.267
1084.309, 7880.071
1084.791, 7862.237
1085.274, 7860.838
1085.756, 7895.536
1086.238, 7915.595
1086.720, 7923.419
1087.202, 7908.378
1087.684, 7853.394
1088.166, 7771.048
1088.648, 7693.732
1089.130, 7623.752
1089.613, 7571.772
1090.095, 7554.616
1090.577, 7541.274
1091.059, 7513.679
1091.541, 7490.748
1092.023, 7504.193
1092.505, 7551.872
1092.987, 7599.015
1093.469, 7642.584
1093.952, 7670.100
1094.434, 7645.882
1094.916, 7622.890
1095.398, 7650.067
1095.880, 7722.778
1096.362, 7773.418
1096.844, 7796.637
1097.326, 7829.311
1097.809, 7887.031
1098.291, 7947.777
1098.773, 7976.813
1099.255, 7990.803
1099.737, 8013.438
1100.219, 8051.733
1100.701, 8093.638
1101.183, 8138.887
1101.666, 8186.446
1102.148, 8235.342
1102.630, 8285.954
1103.112, 8339.866
1103.594, 8395.242
1104.076, 8446.882
1104.558, 8499.126
1105.040, 8537.855
1105.522, 8548.309
1106.005, 8553.062
1106.487, 8579.772
1106.969, 8626.657
1107.451, 8651.402
1107.933, 8652.335
1108.415, 8653.554
1108.897, 8681.423
1109.379, 8706.832
1109.861, 8704.400
1110.344, 8683.131
1110.826, 8675.069
1111.308, 8680.922
1111.790, 8699.093
1112.272, 8733.502
1112.754, 8761.177
1113.236, 8746.046
1113.718, 8715.345
1114.201, 8698.405
1114.683, 8699.589
1115.165, 8716.228
1115.647, 8761.046
1116.129, 8783.188
1116.611, 8751.984
1117.093, 8699.653
1117.575, 8686.952
1118.057, 8702.767
1118.540, 8724.556
1119.022, 8751.526
1119.504, 8770.688
1119.986, 8777.031
1120.468, 8779.543
1120.950, 8783.589
1121.432, 8789.158
1121.914, 8796.170
1122.396, 8804.318
1122.879, 8811.030
1123.361, 8809.691
1123.843, 8812.945
1124.325, 8821.819
1124.807, 8841.341
1125.289, 8888.110
1125.771, 8962.898
1126.253, 8989.140
1126.736, 8960.274
1127.218, 8936.000
1127.700, 8972.416
1128.182, 9021.959
1128.664, 9046.860
1129.146, 9052.343
1129.628, 9073.226
1130.110, 9113.509
1130.593, 9145.447
1131.075, 9163.110
1131.557, 9173.229
1132.039, 9177.189
1132.521, 9181.791
1133.003, 9193.369
1133.485, 9213.101
1133.967, 9250.923
1134.449, 9323.859
1134.932, 9366.847
1135.414, 9345.243
1135.896, 9298.453
1136.378, 9297.478
1136.860, 9323.919
1137.342, 9342.869
1137.824, 9342.434
1138.306, 9342.933
1138.788, 9343.703
1139.271, 9351.638
1139.753, 9379.996
1140.235, 9415.606
1140.717, 9404.089
1141.199, 9357.104
1141.681, 9317.777
1142.163, 9315.548
1142.645, 9309.442
1143.128, 9286.523
1143.610, 9256.614
1144.092, 9225.531
1144.574, 9194.516
1145.056, 9178.993
1145.538, 9177.896
1146.020, 9171.508
1146.502, 9148.926
1146.984, 9116.930
1147.467, 9070.489
1147.949, 9021.025
1148.431, 8992.000
1148.913, 8984.183
1149.395, 8962.809
1149.877, 8922.349
1150.359, 8884.528
1150.841, 8869.941
1151.323, 8862.604
1151.806, 8853.897
1152.288, 8841.178
1152.770, 8816.042
1153.252, 8777.445
1153.734, 8730.340
1154.216, 8672.369
1154.698, 8617.121
1155.180, 8574.840
1155.663, 8545.382
1156.145, 8534.123
1156.627, 8545.335
1157.109, 8536.717
1157.591, 8506.066
1158.073, 8463.026
1158.555, 8405.506
1159.037, 8348.912
1159.520, 8324.496
1160.002, 8313.409
1160.484, 8284.204
1160.966, 8219.042
1161.448, 8167.510
1161.930, 8132.957
1162.412, 8107.955
1162.894, 8092.882
1163.376, 8080.565
1163.859, 8052.509
1164.341, 8015.426
1164.823, 7985.580
1165.305, 7982.977
1165.787, 7966.366
1166.269, 7933.281
1166.751, 7886.075
1167.233, 7815.143
1167.715, 7733.651
1168.198, 7682.810
1168.680, 7659.353
1169.162, 7642.293
1169.644, 7626.866
1170.126, 7610.633
1170.608, 7588.656
1171.090, 7570.663
1171.572, 7534.085
1172.055, 7535.967
1172.537, 7528.548
1173.019, 7512.281
1173.501, 7460.690
1173.983, 7454.714
1174.465, 7430.460
1174.947, 7415.254
1175.429, 7392.791
1175.911, 7371.457
1176.394, 7351.634
1176.876, 7342.294
1177.358, 7345.722
1177.840, 7331.520
1178.322, 7256.006
1178.804, 7184.743
1179.286, 7155.853
1179.768, 7154.824
1180.250, 7137.077
1180.733, 7104.491
1181.215, 7074.227
1181.697, 7050.090
1182.179, 7030.188
1182.661, 7017.770
1183.143, 7005.312
1183.625, 6989.744
1184.107, 6969.833
1184.590, 6930.968
1185.072, 6874.835
1185.554, 6832.542
1186.036, 6818.458
1186.518, 6810.422
1187.000, 6797.491
1187.482, 6777.894
1187.964, 6746.553
1188.447, 6703.492
1188.929, 6686.413
1189.411, 6694.949
1189.893, 6689.983
1190.375, 6644.027
1190.857, 6591.983
1191.339, 6561.222
1191.821, 6541.443
1192.303, 6512.558
1192.786, 6462.778
1193.268, 6440.721
1193.750, 6452.353
1194.232, 6455.806
1194.714, 6451.523
1195.196, 6416.323
1195.678, 6421.046
1196.160, 6409.768
1196.642, 6397.836
1197.125, 6399.353
1197.607, 6398.629
1198.089, 6377.726
1198.571, 6354.847
1199.053, 6346.206
1199.535, 6338.760
1200.017, 6318.487
1200.499, 6291.185
1200.981, 6270.417
1201.464, 6256.250
1201.946, 6250.755
1202.428, 6254.313
1202.910, 6264.823
1203.392, 6291.276
1203.874, 6314.568
1204.356, 6313.531
1204.838, 6293.348
1205.321, 6277.019
1205.803, 6264.940
1206.285, 6257.694
1206.767, 6255.711
1207.249, 6255.012
1207.731, 6246.544
1208.213, 6241.554
1208.695, 6258.850
1209.177, 6292.423
1209.660, 6298.036
1210.142, 6268.663
1210.624, 6247.560
1211.106, 6243.595
1211.588, 6246.695
1212.070, 6253.933
1212.552, 6257.380
1213.034, 6241.316
1213.516, 6208.684
1213.999, 6207.843
1214.481, 6246.512
1214.963, 6270.355
1215.445, 6263.881
1215.927, 6247.989
1216.409, 6245.307
1216.891, 6245.379
1217.373, 6235.190
1217.856, 6214.239
1218.338, 6204.092
1218.820, 6207.004
1219.302, 6202.021
1219.784, 6176.677
1220.266, 6148.284
1220.748, 6185.221
1221.230, 6206.300
1221.713, 6212.374
1222.195, 6158.496
1222.677, 6182.032
1223.159, 6174.544
1223.641, 6165.784
1224.123, 6200.215
1224.605, 6155.057
1225.087, 6188.804
1225.569, 6191.053
1226.052, 6186.003
1226.534, 6190.851
1227.016, 6196.738
1227.498, 6204.075
1227.980, 6204.816
1228.462, 6190.834
1228.944, 6177.752
1229.426, 6179.712
1229.908, 6191.012
1230.391, 6208.479
1230.873, 6233.992
1231.355, 6235.075
1231.837, 6211.372
1232.319, 6190.957
1232.801, 6186.174
1233.283, 6192.306
1233.765, 6215.929
1234.248, 6241.824
1234.730, 6251.407
1235.212, 6242.812
1235.694, 6236.335
1236.176, 6231.879
1236.658, 6227.284
1237.140, 6217.449
1237.622, 6211.879
1238.104, 6225.128
1238.587, 6240.594
1239.069, 6237.335
1239.551, 6213.800
1240.033, 6197.837
1240.515, 6189.647
1240.997, 6188.302
1241.479, 6196.385
1241.961, 6208.093
1242.443, 6228.069
1242.926, 6244.343
1243.408, 6240.255
1243.890, 6216.231
1244.372, 6207.502
1244.854, 6212.740
1245.336, 6215.421
1245.818, 6192.094
1246.300, 6180.688
1246.783, 6215.112
1247.265, 6254.454
1247.747, 6252.284
1248.229, 6214.893
1248.711, 6192.223
1249.193, 6185.434
1249.675, 6189.626
1250.157, 6222.395
1250.640, 6238.287
1251.122, 6212.468
1251.604, 6179.770
1252.086, 6180.939
1252.568, 6207.319
1253.050, 6221.617
1253.532, 6223.483
1254.014, 6219.649
1254.496, 6214.282
1254.979, 6199.295
1255.461, 6164.472
1255.943, 6134.372
1256.425, 6142.574
1256.907, 6175.103
1257.389, 6201.284
1257.871, 6218.405
1258.353, 6222.451
1258.835, 6201.377
1259.318, 6181.529
1259.800, 6165.848
1260.282, 6152.767
1260.764, 6141.452
1261.246, 6131.645
1261.728, 6124.340
1262.210, 6118.761
1262.692, 6110.008
1263.175, 6090.060
1263.657, 6085.288
1264.139, 6103.153
1264.621, 6120.557
1265.103, 6103.360
1265.585, 6078.878
1266.067, 6086.298
1266.549, 6119.424
1267.031, 6143.480
1267.514, 6156.697
1267.996, 6154.041
1268.478, 6131.866
1268.960, 6113.484
1269.442, 6127.125
1269.924, 6149.406
1270.406, 6158.147
1270.888, 6155.819
1271.370, 6158.497
1271.853, 6168.537
1272.335, 6160.551
1272.817, 6130.347
1273.299, 6105.489
1273.781, 6115.134
1274.263, 6132.462
1274.745, 6143.502
1275.227, 6146.372
1275.710, 6133.148
1276.192, 6104.865
1276.674, 6096.461
1277.156, 6111.505
1277.638, 6126.335
1278.120, 6131.308
1278.602, 6124.830
1279.084, 6095.462
1279.567, 6064.232
1280.049, 6072.082
1280.531, 6108.842
1281.013, 6114.891
1281.495, 6087.639
1281.977, 6071.854
1282.459, 6106.218
1282.941, 6132.206
1283.423, 6132.711
1283.906, 6120.920
1284.388, 6110.321
1284.870, 6102.924
1285.352, 6106.388
1285.834, 6119.733
1286.316, 6131.142
1286.798, 6139.451
1287.280, 6141.702
1287.762, 6137.207
1288.245, 6126.948
1288.727, 6100.781
1289.209, 6076.648
1289.691, 6090.940
1290.173, 6135.672
1290.655, 6151.842
1291.137, 6122.866
1291.619, 6106.026
1292.102, 6108.406
1292.584, 6119.183
##END=



