##NAMES=Hydroxylherderite
##RRUFFID=R070451
##IDEAL CHEMISTRY=CaBe(P^5+^O_4_)(OH)
##LOCALITY=Fletcher mine, Groton, Grafton County, New Hampshire, USA
##OWNER=RRUFF
##SOURCE=Michael Scott
##DESCRIPTION=Brownish green prismatic crystal
##STATUS=The identification of this mineral has been confirmed by X-ray diffraction and chemical analysis
##URL=rruff.info/R070451
##MEASURED CHEMISTRY=Ca_1.00_Be_1.00_P_1.00_O_4_((OH)_0.80_F_0.20_)_Î£=1_; trace amounts of Al; OH estimated by charge balance; BeO by difference
115.2438, 46.37841
115.7259, 50.40553
116.2080, 54.26241
116.6901, 58.32013
117.1722, 63.94136
117.6544, 71.71696
118.1365, 76.44774
118.6186, 71.53876
119.1007, 64.62963
119.5828, 62.60438
120.0649, 68.31040
120.5471, 76.59502
121.0292, 78.83076
121.5113, 72.03877
121.9934, 67.68914
122.4755, 71.28326
122.9576, 77.93279
123.4398, 82.78178
123.9219, 83.50456
124.4040, 82.52246
124.8861, 85.74386
125.3682, 95.24806
125.8503, 105.8416
126.3325, 117.1532
126.8146, 128.4042
127.2967, 138.3409
127.7788, 145.9135
128.2609, 152.4476
128.7430, 163.2768
129.2252, 183.6787
129.7073, 202.0300
130.1894, 214.9706
130.6715, 224.8568
131.1536, 234.7655
131.6357, 246.5211
132.1179, 259.9845
132.6000, 274.0815
133.0821, 292.1382
133.5642, 307.3494
134.0463, 316.7184
134.5284, 322.3432
135.0106, 328.0274
135.4927, 336.4299
135.9748, 347.3372
136.4569, 356.0484
136.9390, 359.1707
137.4211, 363.7426
137.9033, 373.4823
138.3854, 386.5668
138.8675, 397.7189
139.3496, 401.9566
139.8317, 399.1406
140.3138, 410.1076
140.7960, 438.7790
141.2781, 473.8392
141.7602, 510.9098
142.2423, 550.0073
142.7244, 593.3684
143.2065, 644.2390
143.6887, 702.4813
144.1708, 753.0688
144.6529, 802.4282
145.1350, 839.8278
145.6171, 858.2635
146.0992, 858.2456
146.5814, 844.4397
147.0635, 817.0175
147.5456, 775.8777
148.0277, 743.8658
148.5098, 723.5745
148.9919, 710.2247
149.4741, 700.5836
149.9562, 694.4123
150.4383, 692.6788
150.9204, 696.1750
151.4025, 705.4050
151.8846, 719.6670
152.3668, 744.9417
152.8489, 771.6113
153.3310, 790.2077
153.8131, 799.8369
154.2952, 807.4760
154.7773, 816.9260
155.2595, 828.7625
155.7416, 845.2671
156.2237, 869.3045
156.7058, 896.9924
157.1879, 923.9223
157.6700, 949.6466
158.1522, 975.8747
158.6343, 999.7332
159.1164, 1024.646
159.5985, 1060.904
160.0806, 1114.969
160.5627, 1180.329
161.0449, 1245.369
161.5270, 1306.808
162.0091, 1378.313
162.4912, 1475.587
162.9733, 1589.286
163.4554, 1706.500
163.9376, 1812.521
164.4197, 1921.604
164.9018, 2058.257
165.3839, 2224.029
165.8660, 2413.202
166.3481, 2643.689
166.8303, 2892.541
167.3124, 3122.810
167.7945, 3349.799
168.2766, 3540.082
168.7587, 3623.952
169.2408, 3597.417
169.7230, 3464.737
170.2051, 3176.497
170.6872, 2801.468
171.1693, 2441.467
171.6514, 2132.816
172.1335, 1873.126
172.6157, 1658.961
173.0978, 1497.260
173.5799, 1371.157
174.0620, 1275.029
174.5441, 1202.962
175.0262, 1149.765
175.5084, 1114.023
175.9905, 1094.330
176.4726, 1087.179
176.9547, 1095.193
177.4368, 1112.271
177.9189, 1134.771
178.4011, 1163.459
178.8832, 1198.597
179.3653, 1238.910
179.8474, 1287.594
180.3295, 1354.603
180.8116, 1442.809
181.2938, 1546.609
181.7759, 1671.616
182.2580, 1806.132
182.7401, 1940.521
183.2222, 2076.943
183.7043, 2199.661
184.1865, 2264.407
184.6686, 2266.403
185.1507, 2209.473
185.6328, 2074.062
186.1149, 1899.645
186.5970, 1725.546
187.0792, 1566.978
187.5613, 1427.912
188.0434, 1316.423
188.5255, 1239.299
189.0076, 1183.384
189.4897, 1147.534
189.9719, 1126.739
190.4540, 1116.083
190.9361, 1113.739
191.4182, 1119.849
191.9003, 1134.890
192.3824, 1160.158
192.8646, 1193.516
193.3467, 1232.932
193.8288, 1279.408
194.3109, 1335.421
194.7930, 1402.071
195.2751, 1475.259
195.7573, 1544.335
196.2394, 1601.430
196.7215, 1671.157
197.2036, 1765.324
197.6857, 1866.580
198.1678, 1967.870
198.6500, 2065.973
199.1321, 2145.208
199.6142, 2176.978
200.0963, 2156.750
200.5784, 2090.919
201.0605, 1964.880
201.5427, 1812.636
202.0248, 1654.145
202.5069, 1496.295
202.9890, 1346.026
203.4711, 1213.121
203.9532, 1096.811
204.4354, 1002.703
204.9175, 932.0278
205.3996, 878.3380
205.8817, 840.5221
206.3638, 816.9548
206.8459, 802.2032
207.3281, 788.6652
207.8102, 774.5104
208.2923, 767.0444
208.7744, 773.3083
209.2565, 780.0063
209.7386, 777.6804
210.2207, 766.3247
210.7029, 754.0872
211.1850, 751.3162
211.6671, 761.7977
212.1492, 767.8793
212.6313, 765.1107
213.1134, 762.0364
213.5956, 763.0533
214.0777, 767.9683
214.5598, 773.8380
215.0419, 777.9915
215.5240, 780.3922
216.0061, 781.1263
216.4883, 774.9786
216.9704, 772.0007
217.4525, 778.6076
217.9346, 792.2835
218.4167, 805.1105
218.8988, 809.4538
219.3810, 804.8656
219.8631, 808.1716
220.3452, 828.2987
220.8273, 848.0746
221.3094, 861.9740
221.7915, 871.9649
222.2737, 882.2942
222.7558, 895.3229
223.2379, 911.4106
223.7200, 933.3290
224.2021, 970.7008
224.6842, 1003.633
225.1664, 1022.697
225.6485, 1035.828
226.1306, 1054.517
226.6127, 1085.234
227.0948, 1126.594
227.5770, 1172.870
228.0591, 1225.939
228.5412, 1282.414
229.0233, 1346.734
229.5054, 1411.887
229.9875, 1471.728
230.4697, 1523.736
230.9518, 1565.764
231.4339, 1593.340
231.9160, 1608.568
232.3981, 1602.441
232.8802, 1571.485
233.3624, 1523.946
233.8445, 1460.406
234.3266, 1382.295
234.8087, 1303.162
235.2908, 1248.821
235.7729, 1231.795
236.2551, 1209.987
236.7372, 1175.121
237.2193, 1137.950
237.7014, 1104.318
238.1835, 1075.842
238.6656, 1051.766
239.1478, 1030.378
239.6299, 1010.293
240.1120, 998.3008
240.5941, 999.8210
241.0762, 1005.238
241.5583, 1009.835
242.0405, 1013.724
242.5226, 1020.143
243.0047, 1032.168
243.4868, 1050.028
243.9689, 1071.167
244.4510, 1097.281
244.9332, 1125.660
245.4153, 1154.304
245.8974, 1184.329
246.3795, 1218.112
246.8616, 1256.682
247.3437, 1300.594
247.8259, 1352.414
248.3080, 1413.836
248.7901, 1482.318
249.2722, 1557.888
249.7543, 1639.194
250.2364, 1725.291
250.7186, 1819.453
251.2007, 1914.745
251.6828, 1992.956
252.1649, 2056.460
252.6470, 2096.427
253.1291, 2107.411
253.6113, 2097.825
254.0934, 2075.767
254.5755, 2044.183
255.0576, 2001.105
255.5397, 1939.593
256.0219, 1854.320
256.5040, 1771.379
256.9861, 1697.973
257.4682, 1630.070
257.9503, 1563.240
258.4324, 1496.508
258.9146, 1435.825
259.3967, 1386.888
259.8788, 1349.789
260.3609, 1321.278
260.8430, 1303.225
261.3251, 1292.073
261.8073, 1284.258
262.2894, 1279.872
262.7715, 1281.549
263.2536, 1288.269
263.7357, 1301.567
264.2178, 1331.463
264.7000, 1384.834
265.1821, 1446.767
265.6642, 1505.149
266.1463, 1562.094
266.6284, 1624.292
267.1105, 1698.977
267.5927, 1780.359
268.0748, 1862.243
268.5569, 1951.691
269.0390, 2017.784
269.5211, 2032.348
270.0032, 2008.954
270.4854, 1963.697
270.9675, 1897.626
271.4496, 1813.863
271.9317, 1709.083
272.4138, 1582.346
272.8959, 1459.309
273.3781, 1349.528
273.8602, 1253.970
274.3423, 1171.638
274.8244, 1102.996
275.3065, 1046.608
275.7886, 1006.036
276.2708, 978.2764
276.7529, 949.6222
277.2350, 912.7203
277.7171, 876.5063
278.1992, 856.7783
278.6813, 855.6395
279.1635, 856.3088
279.6456, 851.7550
280.1277, 845.3672
280.6098, 844.5268
281.0919, 851.7571
281.5740, 858.8672
282.0562, 853.3002
282.5383, 833.2947
283.0204, 823.6175
283.5025, 836.3164
283.9846, 854.6550
284.4667, 863.9648
284.9489, 863.1072
285.4310, 858.2048
285.9131, 853.8378
286.3952, 849.9298
286.8773, 844.4190
287.3594, 837.3882
287.8416, 828.8505
288.3237, 816.4884
288.8058, 802.3603
289.2879, 791.8398
289.7700, 788.0226
290.2521, 789.8218
290.7343, 792.9515
291.2164, 801.7682
291.6985, 806.5024
292.1806, 801.0688
292.6627, 792.3869
293.1448, 788.7294
293.6270, 793.0234
294.1091, 803.2925
294.5912, 816.1975
295.0733, 833.2537
295.5554, 850.3899
296.0375, 866.8478
296.5197, 883.8055
297.0018, 902.8683
297.4839, 923.7444
297.9660, 943.6125
298.4481, 958.9489
298.9302, 968.3401
299.4124, 983.4322
299.8945, 1004.778
300.3766, 1031.017
300.8587, 1063.093
301.3408, 1099.897
301.8229, 1138.523
302.3051, 1176.322
302.7872, 1215.259
303.2693, 1265.596
303.7514, 1331.214
304.2335, 1403.799
304.7156, 1485.266
305.1978, 1570.299
305.6799, 1655.005
306.1620, 1738.162
306.6441, 1816.270
307.1262, 1889.822
307.6083, 1968.025
308.0905, 2005.835
308.5726, 1973.381
309.0547, 1911.545
309.5368, 1838.620
310.0189, 1757.466
310.5010, 1667.677
310.9832, 1560.757
311.4653, 1439.569
311.9474, 1339.311
312.4295, 1271.065
312.9116, 1213.104
313.3937, 1148.647
313.8759, 1082.044
314.3580, 1025.693
314.8401, 985.4478
315.3222, 958.6736
315.8043, 943.8135
316.2864, 942.9464
316.7686, 941.7124
317.2507, 928.9555
317.7328, 912.2823
318.2149, 904.7289
318.6970, 911.1212
319.1791, 921.0867
319.6613, 925.4080
320.1434, 926.1675
320.6255, 933.2700
321.1076, 951.1062
321.5897, 975.0281
322.0718, 998.2247
322.5540, 1020.252
323.0361, 1043.452
323.5182, 1068.617
324.0003, 1095.363
324.4824, 1123.917
324.9645, 1154.414
325.4467, 1184.638
325.9288, 1213.030
326.4109, 1239.428
326.8930, 1261.609
327.3751, 1291.357
327.8572, 1306.600
328.3394, 1288.788
328.8215, 1245.043
329.3036, 1196.369
329.7857, 1154.219
330.2678, 1117.680
330.7499, 1083.990
331.2321, 1055.022
331.7142, 1026.416
332.1963, 995.7775
332.6784, 966.0797
333.1605, 939.1110
333.6426, 915.8933
334.1247, 898.9158
334.6068, 893.0351
335.0890, 904.1697
335.5711, 910.5152
336.0532, 906.1606
336.5353, 902.7947
337.0174, 906.6279
337.4995, 917.0040
337.9817, 929.8640
338.4638, 942.2120
338.9459, 954.1713
339.4280, 966.4546
339.9101, 975.6427
340.3922, 990.5872
340.8744, 1017.627
341.3565, 1049.870
341.8386, 1079.310
342.3207, 1103.392
342.8028, 1122.114
343.2849, 1134.512
343.7671, 1139.899
344.2492, 1143.954
344.7313, 1148.568
345.2134, 1151.701
345.6955, 1151.095
346.1776, 1146.764
346.6598, 1142.371
347.1419, 1138.100
347.6240, 1135.540
348.1061, 1138.752
348.5882, 1147.858
349.0703, 1163.785
349.5525, 1191.465
350.0346, 1227.179
350.5167, 1259.953
350.9988, 1287.109
351.4809, 1311.395
351.9630, 1338.118
352.4452, 1365.373
352.9273, 1384.241
353.4094, 1392.213
353.8915, 1387.260
354.3736, 1361.558
354.8557, 1313.626
355.3379, 1254.655
355.8200, 1175.509
356.3021, 1091.840
356.7842, 1023.527
357.2663, 974.3024
357.7484, 935.7238
358.2306, 898.8231
358.7127, 863.4584
359.1948, 830.5328
359.6769, 797.4892
360.1590, 769.0482
360.6411, 747.8651
361.1233, 732.9274
361.6054, 722.4883
362.0875, 715.8196
362.5696, 711.6417
363.0517, 704.9331
363.5338, 691.9115
364.0160, 682.6005
364.4981, 681.1522
364.9802, 681.6033
365.4623, 678.6733
365.9444, 671.3969
366.4265, 662.9771
366.9087, 657.4861
367.3908, 655.1719
367.8729, 650.8731
368.3550, 643.5267
368.8371, 635.0449
369.3192, 624.3581
369.8014, 613.3045
370.2835, 606.2526
370.7656, 605.9305
371.2477, 610.1908
371.7298, 616.7375
372.2119, 626.0303
372.6941, 632.9883
373.1762, 634.1686
373.6583, 632.4317
374.1404, 632.8607
374.6225, 636.8468
375.1046, 638.5035
375.5868, 631.2681
376.0689, 620.1283
376.5510, 617.1332
377.0331, 625.8078
377.5152, 633.9865
377.9973, 626.9836
378.4795, 602.6956
378.9616, 589.6057
379.4437, 594.3054
379.9258, 604.6890
380.4079, 617.6937
380.8900, 630.7789
381.3722, 637.9709
381.8543, 635.6096
382.3364, 626.7332
382.8185, 620.4601
383.3006, 619.0390
383.7827, 617.5433
384.2649, 614.6968
384.7470, 612.4874
385.2291, 613.4594
385.7112, 617.4573
386.1933, 621.1964
386.6754, 620.6229
387.1576, 615.3463
387.6397, 613.4744
388.1218, 619.5410
388.6039, 623.7773
389.0860, 621.0190
389.5681, 614.8821
390.0503, 611.3010
390.5324, 613.1440
391.0145, 617.5181
391.4966, 619.7332
391.9787, 619.4827
392.4608, 620.1089
392.9430, 624.4345
393.4251, 628.0903
393.9072, 625.7906
394.3893, 617.5974
394.8714, 611.3021
395.3535, 612.2090
395.8357, 616.9283
396.3178, 619.5648
396.7999, 619.4791
397.2820, 619.9610
397.7641, 624.0875
398.2462, 630.7101
398.7284, 633.9078
399.2105, 630.4370
399.6926, 627.2311
400.1747, 626.9825
400.6568, 628.7545
401.1389, 631.2498
401.6211, 634.0619
402.1032, 636.6928
402.5853, 637.9827
403.0674, 635.7111
403.5495, 639.3369
404.0316, 655.7400
404.5138, 670.8604
404.9959, 676.9973
405.4780, 675.7519
405.9601, 672.1838
406.4422, 669.1865
406.9243, 666.9533
407.4065, 665.9307
407.8886, 664.8930
408.3707, 667.7936
408.8528, 678.0416
409.3349, 690.4452
409.8170, 699.8353
410.2992, 705.8085
410.7813, 714.3351
411.2634, 733.3063
411.7455, 760.1195
412.2276, 779.7928
412.7097, 788.4143
413.1919, 796.8228
413.6740, 812.5797
414.1561, 833.4789
414.6382, 855.4852
415.1203, 878.8096
415.6024, 902.0411
416.0846, 922.5768
416.5667, 942.0025
417.0488, 964.2186
417.5309, 989.7165
418.0130, 1021.280
418.4951, 1062.915
418.9773, 1115.166
419.4594, 1177.647
419.9415, 1259.333
420.4236, 1343.548
420.9057, 1418.836
421.3878, 1486.670
421.8700, 1555.130
422.3521, 1630.111
422.8342, 1709.406
423.3163, 1784.628
423.7984, 1870.929
424.2805, 1927.577
424.7627, 1952.718
425.2448, 1948.448
425.7269, 1910.481
426.2090, 1841.232
426.6911, 1756.921
427.1732, 1668.346
427.6554, 1575.716
428.1375, 1489.719
428.6196, 1410.595
429.1017, 1338.045
429.5838, 1269.454
430.0659, 1207.248
430.5481, 1156.760
431.0302, 1121.025
431.5123, 1093.307
431.9944, 1066.585
432.4765, 1043.000
432.9586, 1031.163
433.4408, 1034.419
433.9229, 1046.077
434.4050, 1058.389
434.8871, 1070.922
435.3692, 1090.129
435.8513, 1123.254
436.3335, 1156.899
436.8156, 1179.381
437.2977, 1195.576
437.7798, 1218.953
438.2619, 1256.530
438.7440, 1304.607
439.2262, 1352.941
439.7083, 1393.662
440.1904, 1449.420
440.6725, 1525.746
441.1546, 1611.397
441.6367, 1699.882
442.1189, 1790.778
442.6010, 1888.110
443.0831, 1998.071
443.5652, 2115.054
444.0473, 2218.213
444.5294, 2307.928
445.0116, 2382.995
445.4937, 2455.934
445.9758, 2506.545
446.4579, 2510.914
446.9400, 2463.865
447.4221, 2387.946
447.9043, 2290.195
448.3864, 2174.394
448.8685, 2043.226
449.3506, 1894.899
449.8327, 1753.520
450.3148, 1638.850
450.7970, 1548.662
451.2791, 1455.864
451.7612, 1349.413
452.2433, 1253.369
452.7254, 1176.622
453.2076, 1114.926
453.6897, 1064.120
454.1718, 1022.551
454.6539, 988.5584
455.1360, 961.1036
455.6181, 942.0057
456.1003, 919.3165
456.5824, 885.7281
457.0645, 856.2527
457.5466, 837.4398
458.0287, 825.3381
458.5108, 812.6591
458.9930, 795.6986
459.4751, 780.1513
459.9572, 776.3038
460.4393, 784.4006
460.9214, 788.2814
461.4035, 783.5578
461.8857, 775.4800
462.3678, 767.8926
462.8499, 760.8548
463.3320, 754.8119
463.8141, 750.6960
464.2962, 746.9534
464.7784, 741.6928
465.2605, 735.4750
465.7426, 730.5753
466.2247, 728.0122
466.7068, 727.1447
467.1889, 726.5819
467.6711, 724.5659
468.1532, 727.0463
468.6353, 742.0283
469.1174, 754.5180
469.5995, 752.6096
470.0816, 739.6870
470.5638, 727.2001
471.0459, 722.4307
471.5280, 722.6951
472.0101, 719.8832
472.4922, 712.6655
472.9743, 706.0451
473.4565, 699.9507
473.9386, 695.7018
474.4207, 694.7047
474.9028, 696.8077
475.3849, 700.0478
475.8670, 705.0605
476.3492, 709.7996
476.8313, 709.3625
477.3134, 703.5955
477.7955, 700.2759
478.2776, 704.6512
478.7597, 712.8051
479.2419, 714.7628
479.7240, 707.9429
480.2061, 702.4709
480.6882, 701.7555
481.1703, 702.2067
481.6524, 699.8488
482.1346, 695.0046
482.6167, 691.2370
483.0988, 691.1973
483.5809, 694.4518
484.0630, 698.7867
484.5451, 705.8013
485.0273, 711.2201
485.5094, 713.4819
485.9915, 714.7955
486.4736, 716.2202
486.9557, 718.2082
487.4378, 721.8512
487.9200, 729.6644
488.4021, 739.7176
488.8842, 746.3347
489.3663, 749.4088
489.8484, 748.9885
490.3305, 741.9617
490.8127, 733.0731
491.2948, 732.5383
491.7769, 743.7556
492.2590, 753.3311
492.7411, 754.8254
493.2232, 753.3581
493.7054, 753.6057
494.1875, 756.5383
494.6696, 763.2460
495.1517, 775.2996
495.6338, 791.3387
496.1159, 802.7675
496.5981, 805.8314
497.0802, 809.2630
497.5623, 811.9290
498.0444, 816.6590
498.5265, 826.8029
499.0086, 842.0536
499.4908, 858.0858
499.9729, 871.0399
500.4550, 881.9592
500.9371, 893.8762
501.4192, 906.1060
501.9013, 922.5014
502.3835, 946.5565
502.8656, 974.9880
503.3477, 1001.849
503.8298, 1026.078
504.3119, 1052.415
504.7940, 1083.979
505.2762, 1117.738
505.7583, 1147.422
506.2404, 1174.139
506.7225, 1207.158
507.2046, 1253.470
507.6867, 1310.296
508.1689, 1364.683
508.6510, 1408.839
509.1331, 1462.829
509.6152, 1527.189
510.0973, 1601.522
510.5794, 1684.249
511.0616, 1776.076
511.5437, 1880.873
512.0258, 2006.454
512.5079, 2143.567
512.9901, 2266.854
513.4722, 2373.198
513.9543, 2482.014
514.4364, 2615.923
514.9185, 2740.597
515.4006, 2813.127
515.8828, 2831.671
516.3649, 2829.396
516.8470, 2815.889
517.3291, 2786.499
517.8112, 2724.922
518.2933, 2640.617
518.7755, 2565.558
519.2576, 2515.833
519.7397, 2490.923
520.2218, 2490.349
520.7039, 2521.115
521.1860, 2564.253
521.6682, 2611.419
522.1503, 2676.684
522.6324, 2775.093
523.1145, 2898.207
523.5966, 3022.435
524.0787, 3134.271
524.5609, 3245.043
525.0430, 3382.193
525.5251, 3545.390
526.0072, 3685.194
526.4893, 3798.436
526.9714, 3871.021
527.4536, 3880.616
527.9357, 3832.879
528.4178, 3751.828
528.8999, 3630.242
529.3820, 3486.215
529.8641, 3319.265
530.3463, 3139.414
530.8284, 2963.172
531.3105, 2795.778
531.7926, 2641.173
532.2747, 2503.917
532.7568, 2382.998
533.2390, 2282.855
533.7211, 2211.841
534.2032, 2152.969
534.6853, 2099.011
535.1674, 2054.720
535.6495, 2027.492
536.1317, 2019.969
536.6138, 2023.685
537.0959, 2036.369
537.5780, 2054.139
538.0601, 2063.007
538.5422, 2060.323
539.0244, 2057.365
539.5065, 2066.717
539.9886, 2081.912
540.4707, 2071.411
540.9528, 2020.696
541.4349, 1967.246
541.9171, 1921.288
542.3992, 1874.299
542.8813, 1814.826
543.3634, 1744.093
543.8455, 1674.491
544.3276, 1615.100
544.8098, 1565.405
545.2919, 1523.684
545.7740, 1491.340
546.2561, 1463.230
546.7382, 1438.675
547.2203, 1417.869
547.7025, 1402.492
548.1846, 1391.993
548.6667, 1380.374
549.1488, 1359.719
549.6309, 1340.508
550.1130, 1335.556
550.5952, 1342.816
551.0773, 1352.038
551.5594, 1358.809
552.0415, 1368.051
552.5236, 1388.963
553.0057, 1428.211
553.4879, 1456.637
553.9700, 1457.547
554.4521, 1467.162
554.9342, 1506.768
555.4163, 1562.594
555.8984, 1610.250
556.3806, 1640.646
556.8627, 1671.133
557.3448, 1725.602
557.8269, 1800.918
558.3090, 1869.968
558.7911, 1927.084
559.2733, 1988.359
559.7554, 2067.753
560.2375, 2159.343
560.7196, 2241.850
561.2017, 2306.837
561.6838, 2377.662
562.1660, 2472.252
562.6481, 2569.756
563.1302, 2650.384
563.6123, 2711.453
564.0944, 2759.197
564.5765, 2799.066
565.0587, 2828.593
565.5408, 2836.608
566.0229, 2813.747
566.5050, 2793.015
566.9871, 2774.473
567.4692, 2764.541
567.9514, 2768.531
568.4335, 2785.381
568.9156, 2809.088
569.3977, 2828.468
569.8798, 2861.551
570.3619, 2932.373
570.8441, 3033.145
571.3262, 3137.593
571.8083, 3237.542
572.2904, 3340.636
572.7725, 3454.565
573.2546, 3579.520
573.7368, 3717.854
574.2189, 3889.563
574.7010, 4051.968
575.1831, 4201.218
575.6652, 4331.978
576.1473, 4445.465
576.6295, 4539.753
577.1116, 4597.257
577.5937, 4592.766
578.0758, 4538.998
578.5579, 4479.639
579.0400, 4417.014
579.5221, 4333.008
580.0042, 4211.626
580.4863, 4071.045
580.9684, 3944.728
581.4506, 3830.479
581.9327, 3732.842
582.4148, 3644.302
582.8969, 3580.972
583.3790, 3557.571
583.8611, 3567.642
584.3433, 3595.165
584.8254, 3632.820
585.3075, 3688.068
585.7896, 3775.113
586.2717, 3895.430
586.7538, 4027.892
587.2360, 4169.027
587.7181, 4328.758
588.2002, 4508.405
588.6823, 4711.715
589.1644, 4948.424
589.6465, 5224.706
590.1287, 5524.230
590.6108, 5824.032
591.0929, 6151.726
591.5750, 6549.166
592.0571, 7012.629
592.5392, 7500.760
593.0214, 7984.851
593.5035, 8473.035
593.9856, 9004.687
594.4677, 9613.115
594.9498, 10179.57
595.4319, 10706.50
595.9141, 11172.37
596.3962, 11612.07
596.8783, 11977.42
597.3604, 12152.19
597.8425, 12084.84
598.3246, 11828.55
598.8068, 11386.99
599.2889, 10796.59
599.7710, 10135.89
600.2531, 9417.196
600.7352, 8669.103
601.2173, 7903.120
601.6995, 7129.087
602.1816, 6427.117
602.6637, 5805.333
603.1458, 5251.269
603.6279, 4772.321
604.1100, 4353.112
604.5922, 3988.472
605.0743, 3673.256
605.5564, 3399.357
606.0385, 3163.246
606.5206, 2961.584
607.0027, 2791.417
607.4849, 2651.013
607.9670, 2530.109
608.4491, 2426.699
608.9312, 2337.860
609.4133, 2260.882
609.8954, 2195.810
610.3776, 2143.222
610.8597, 2109.900
611.3418, 2079.378
611.8239, 2040.222
612.3060, 2006.777
612.7881, 1996.878
613.2703, 2009.970
613.7524, 2029.827
614.2345, 2047.653
614.7166, 2060.725
615.1987, 2061.338
615.6808, 2049.159
616.1630, 2033.653
616.6451, 2022.403
617.1272, 2000.125
617.6093, 1945.302
618.0914, 1856.955
618.5735, 1772.562
619.0557, 1688.627
619.5378, 1614.661
620.0199, 1556.456
620.5020, 1509.284
620.9841, 1467.200
621.4662, 1429.008
621.9484, 1396.979
622.4305, 1373.059
622.9126, 1356.942
623.3947, 1348.302
623.8768, 1347.599
624.3589, 1351.828
624.8411, 1360.745
625.3232, 1373.516
625.8053, 1389.180
626.2874, 1407.592
626.7695, 1429.350
627.2516, 1458.874
627.7338, 1486.996
628.2159, 1508.224
628.6980, 1525.279
629.1801, 1542.432
629.6622, 1560.474
630.1443, 1577.129
630.6265, 1591.624
631.1086, 1602.527
631.5907, 1600.727
632.0728, 1583.448
632.5549, 1563.830
633.0370, 1542.396
633.5192, 1523.521
634.0013, 1514.312
634.4834, 1514.108
634.9655, 1508.717
635.4476, 1498.329
635.9297, 1479.010
636.4119, 1438.848
636.8940, 1391.887
637.3761, 1362.396
637.8582, 1354.591
638.3403, 1350.022
638.8224, 1329.621
639.3046, 1296.631
639.7867, 1272.655
640.2688, 1261.368
640.7509, 1245.923
641.2330, 1222.067
641.7151, 1191.533
642.1973, 1152.901
642.6794, 1107.173
643.1615, 1068.280
643.6436, 1041.909
644.1257, 1020.042
644.6078, 1000.082
645.0900, 981.0369
645.5721, 960.9141
646.0542, 939.7700
646.5363, 920.8484
647.0184, 907.2850
647.5005, 898.5009
647.9827, 892.8055
648.4648, 891.7991
648.9469, 887.3514
649.4290, 875.0260
649.9111, 861.1247
650.3932, 850.7679
650.8754, 843.8632
651.3575, 840.0676
651.8396, 838.9628
652.3217, 841.3328
652.8038, 850.6111
653.2859, 862.0985
653.7681, 869.0686
654.2502, 870.8866
654.7323, 872.0491
655.2144, 876.2888
655.6965, 882.5023
656.1786, 887.0702
656.6608, 889.8799
657.1429, 891.5198
657.6250, 891.0290
658.1071, 890.9274
658.5892, 892.9105
659.0714, 897.0690
659.5535, 904.2531
660.0356, 916.5496
660.5177, 929.3990
660.9998, 942.1945
661.4819, 954.1764
661.9641, 962.4839
662.4462, 968.6763
662.9283, 979.7806
663.4104, 1001.325
663.8925, 1028.210
664.3746, 1048.831
664.8568, 1062.911
665.3389, 1079.536
665.8210, 1099.848
666.3031, 1123.664
666.7852, 1150.672
667.2673, 1181.187
667.7495, 1216.232
668.2316, 1257.698
668.7137, 1300.339
669.1958, 1342.100
669.6779, 1385.439
670.1600, 1433.325
670.6422, 1484.906
671.1243, 1536.688
671.6064, 1586.909
672.0885, 1638.937
672.5706, 1699.461
673.0527, 1767.244
673.5349, 1831.527
674.0170, 1890.613
674.4991, 1952.673
674.9812, 2025.685
675.4633, 2102.720
675.9454, 2165.153
676.4276, 2212.078
676.9097, 2246.365
677.3918, 2261.198
677.8739, 2270.416
678.3560, 2286.673
678.8381, 2300.404
679.3203, 2296.221
679.8024, 2269.240
680.2845, 2224.055
680.7666, 2159.355
681.2487, 2081.327
681.7308, 2004.418
682.2130, 1929.371
682.6951, 1852.021
683.1772, 1769.962
683.6593, 1686.437
684.1414, 1604.727
684.6235, 1523.264
685.1057, 1453.294
685.5878, 1402.367
686.0699, 1353.131
686.5520, 1296.377
687.0341, 1242.354
687.5162, 1204.141
687.9984, 1182.035
688.4805, 1161.533
688.9626, 1132.684
689.4447, 1102.528
689.9268, 1077.886
690.4089, 1058.635
690.8911, 1045.803
691.3732, 1039.464
691.8553, 1033.203
692.3374, 1020.004
692.8195, 1001.120
693.3016, 987.8562
693.7838, 981.3792
694.2659, 978.0133
694.7480, 980.2333
695.2301, 982.5585
695.7122, 979.3320
696.1943, 972.7200
696.6765, 971.2392
697.1586, 981.1752
697.6407, 990.3723
698.1228, 986.6007
698.6049, 981.6993
699.0870, 995.6517
699.5692, 1025.298
700.0513, 1046.986
700.5334, 1045.331
701.0155, 1032.064
701.4976, 1031.099
701.9797, 1042.924
702.4619, 1058.731
702.9440, 1083.485
703.4261, 1097.072
703.9082, 1082.374
704.3903, 1050.324
704.8724, 1027.051
705.3546, 1014.677
705.8367, 1004.162
706.3188, 998.4813
706.8009, 990.0626
707.2830, 971.6973
707.7651, 948.3322
708.2473, 928.9760
708.7294, 916.1475
709.2115, 904.3594
709.6936, 888.6796
710.1757, 869.9985
710.6578, 849.7206
711.1400, 828.0496
711.6221, 807.2017
712.1042, 787.2529
712.5863, 771.7743
713.0684, 766.8358
713.5505, 773.3470
714.0327, 770.7508
714.5148, 746.1406
714.9969, 730.1795
715.4790, 735.5200
715.9611, 744.9465
716.4432, 744.8917
716.9254, 735.7537
717.4075, 725.0513
717.8896, 714.3956
718.3717, 705.1962
718.8538, 699.0493
719.3359, 694.9189
719.8181, 691.2726
720.3002, 687.8077
720.7823, 684.6383
721.2644, 681.9504
721.7465, 679.2155
722.2286, 674.9041
722.7108, 668.6732
723.1929, 663.3658
723.6750, 659.8554
724.1571, 655.9027
724.6392, 648.9615
725.1213, 641.2980
725.6035, 637.9560
726.0856, 640.8325
726.5677, 641.4800
727.0498, 634.2032
727.5319, 628.5086
728.0140, 633.5580
728.4962, 642.7186
728.9783, 643.3629
729.4604, 632.9490
729.9425, 623.1755
730.4246, 626.5422
730.9067, 637.3043
731.3889, 642.8318
731.8710, 643.4601
732.3531, 641.9308
732.8352, 638.7507
733.3173, 635.4998
733.7994, 633.8969
734.2816, 633.7803
734.7637, 632.8699
735.2458, 629.9524
735.7279, 628.2812
736.2100, 629.6663
736.6921, 631.0122
737.1743, 630.2994
737.6564, 627.9985
738.1385, 624.9315
738.6206, 618.8723
739.1027, 618.0875
739.5848, 634.9495
740.0670, 654.4188
740.5491, 655.1516
741.0312, 641.6463
741.5133, 634.0349
741.9954, 641.8222
742.4775, 655.9217
742.9597, 663.8947
743.4418, 666.1353
743.9239, 668.4312
744.4060, 670.9496
744.8881, 672.8044
745.3702, 673.1715
745.8524, 673.5011
746.3345, 676.2277
746.8166, 681.8923
747.2987, 684.7670
747.7808, 682.3365
748.2629, 680.5690
748.7451, 677.6404
749.2272, 678.3593
749.7093, 690.8619
750.1914, 711.8148
750.6735, 726.5894
751.1556, 726.1202
751.6378, 721.1279
752.1199, 721.0927
752.6020, 723.7057
753.0841, 724.2738
753.5662, 722.6161
754.0483, 721.6746
754.5305, 723.1351
755.0126, 726.5217
755.4947, 731.5967
755.9768, 738.8031
756.4589, 743.0919
756.9410, 743.0245
757.4232, 743.3121
757.9053, 744.5764
758.3874, 748.3854
758.8695, 758.9412
759.3516, 777.2151
759.8337, 790.6744
760.3159, 796.6947
760.7980, 799.6976
761.2801, 799.7267
761.7622, 798.6343
762.2443, 798.6902
762.7264, 799.6918
763.2086, 798.9445
763.6907, 793.3648
764.1728, 788.1646
764.6549, 791.0815
765.1370, 798.7627
765.6191, 802.7180
766.1013, 801.9802
766.5834, 800.3289
767.0655, 800.0982
767.5476, 800.3431
768.0297, 797.9158
768.5118, 791.2300
768.9940, 792.5159
769.4761, 806.8339
769.9582, 818.6647
770.4403, 820.7062
770.9224, 816.9561
771.4045, 811.5753
771.8867, 803.9738
772.3688, 802.1820
772.8509, 809.3192
773.3330, 819.8294
773.8151, 834.8920
774.2972, 850.0621
774.7794, 858.6107
775.2615, 862.0527
775.7436, 870.1169
776.2257, 890.0999
776.7078, 912.6790
777.1899, 927.6674
777.6721, 937.2090
778.1542, 945.8441
778.6363, 954.1652
779.1184, 960.4035
779.6005, 962.8343
780.0826, 967.5615
780.5648, 988.5824
781.0469, 1028.474
781.5290, 1056.109
782.0111, 1063.175
782.4932, 1081.094
782.9753, 1129.493
783.4575, 1187.045
783.9396, 1223.949
784.4217, 1239.537
784.9038, 1265.263
785.3859, 1314.335
785.8680, 1358.133
786.3502, 1382.557
786.8323, 1403.579
787.3144, 1438.413
787.7965, 1483.097
788.2786, 1520.481
788.7607, 1543.043
789.2429, 1558.115
789.7250, 1576.259
790.2071, 1588.925
790.6892, 1579.385
791.1713, 1550.505
791.6534, 1518.828
792.1356, 1491.239
792.6177, 1463.721
793.0998, 1430.908
793.5819, 1393.052
794.0640, 1352.177
794.5461, 1307.641
795.0283, 1263.041
795.5104, 1219.113
795.9925, 1176.025
796.4746, 1134.231
796.9567, 1093.447
797.4388, 1052.226
797.9210, 1005.359
798.4031, 965.9164
798.8852, 937.0823
799.3673, 913.2330
799.8494, 893.3555
800.3315, 875.5375
800.8137, 855.8923
801.2958, 832.9771
801.7779, 812.9084
802.2600, 801.7084
802.7421, 792.0904
803.2242, 776.3584
803.7064, 757.5444
804.1885, 741.4602
804.6706, 729.7366
805.1527, 721.2108
805.6348, 715.7588
806.1169, 711.6924
806.5991, 704.6410
807.0812, 695.2225
807.5633, 689.2260
808.0454, 687.9170
808.5275, 684.8103
809.0096, 675.0488
809.4918, 661.6874
809.9739, 652.7315
810.4560, 649.4688
810.9381, 645.6357
811.4202, 639.3567
811.9023, 635.5779
812.3845, 638.7766
812.8666, 643.7632
813.3487, 645.4319
813.8308, 643.6914
814.3129, 637.7105
814.7950, 619.6358
815.2772, 607.1503
815.7593, 611.1355
816.2414, 619.5291
816.7235, 621.8483
817.2056, 618.3892
817.6877, 614.1609
818.1699, 611.2439
818.6520, 608.0674
819.1341, 602.1564
819.6162, 595.7198
820.0983, 592.0981
820.5804, 591.1404
821.0626, 592.3373
821.5447, 595.3225
822.0268, 596.9016
822.5089, 592.5650
822.9910, 584.4243
823.4731, 582.2666
823.9553, 586.4348
824.4374, 588.8124
824.9195, 587.1245
825.4016, 585.9845
825.8837, 589.4936
826.3658, 595.7445
826.8480, 598.2753
827.3301, 596.1261
827.8122, 592.4174
828.2943, 584.9069
828.7764, 578.6027
829.2585, 574.4221
829.7407, 572.8854
830.2228, 576.5901
830.7049, 585.5104
831.1870, 589.2031
831.6691, 579.8243
832.1512, 571.2792
832.6334, 570.0812
833.1155, 572.2577
833.5976, 574.2023
834.0797, 575.5796
834.5618, 577.3268
835.0439, 579.9400
835.5261, 582.5792
836.0082, 584.4550
836.4903, 585.8682
836.9724, 587.9921
837.4545, 590.1783
837.9366, 588.6624
838.4188, 582.5521
838.9009, 578.9951
839.3830, 587.9106
839.8651, 603.3712
840.3472, 599.7348
840.8293, 576.4249
841.3115, 565.6213
841.7936, 575.1452
842.2757, 586.8662
842.7578, 588.2223
843.2399, 583.7372
843.7220, 585.2302
844.2042, 595.5444
844.6863, 602.4745
845.1684, 606.8859
845.6505, 606.6173
846.1326, 594.7757
846.6147, 582.1680
847.0969, 580.4569
847.5790, 588.9236
848.0611, 596.4150
848.5432, 602.5463
849.0253, 606.0356
849.5074, 604.6957
849.9896, 602.2289
850.4717, 598.8655
850.9538, 597.2810
851.4359, 604.3546
851.9180, 623.0029
852.4001, 637.9575
852.8823, 635.0388
853.3644, 627.0511
853.8465, 627.2290
854.3286, 633.0142
854.8107, 638.9697
855.2928, 643.5843
855.7750, 646.5472
856.2571, 647.0906
856.7392, 647.3930
857.2213, 652.5944
857.7034, 661.0919
858.1855, 663.6417
858.6677, 659.8204
859.1498, 663.4206
859.6319, 681.9073
860.1140, 703.1268
860.5961, 708.2891
861.0782, 698.2803
861.5604, 700.0576
862.0425, 717.7645
862.5246, 730.8183
863.0067, 733.2784
863.4888, 733.0480
863.9709, 736.1323
864.4531, 741.5036
864.9352, 745.0959
865.4173, 742.7076
865.8994, 747.4203
866.3815, 765.7901
866.8636, 783.1696
867.3458, 792.5102
867.8279, 799.4716
868.3100, 811.5881
868.7921, 828.7203
869.2742, 842.0698
869.7563, 845.4576
870.2385, 849.7064
870.7206, 858.7987
871.2027, 870.6013
871.6848, 885.1001
872.1669, 900.2718
872.6490, 911.6121
873.1312, 917.4693
873.6133, 923.6797
874.0954, 934.8502
874.5775, 948.3054
875.0596, 960.6354
875.5417, 973.1083
876.0239, 990.9490
876.5060, 1013.243
876.9881, 1029.017
877.4702, 1029.606
877.9523, 1024.934
878.4344, 1032.209
878.9166, 1047.848
879.3987, 1059.447
879.8808, 1065.969
880.3629, 1065.927
880.8450, 1058.279
881.3271, 1050.489
881.8093, 1051.978
882.2914, 1061.001
882.7735, 1067.368
883.2556, 1071.493
883.7377, 1069.282
884.2198, 1059.152
884.7020, 1045.245
885.1841, 1028.600
885.6662, 1011.978
886.1483, 1002.075
886.6304, 1001.603
887.1125, 995.5720
887.5947, 980.1613
888.0768, 965.3871
888.5589, 954.5344
889.0410, 944.7667
889.5231, 932.4355
890.0052, 918.7945
890.4874, 909.7072
890.9695, 910.0994
891.4516, 906.9084
891.9337, 895.9376
892.4158, 883.5779
892.8979, 872.3976
893.3801, 862.2573
893.8622, 853.8596
894.3443, 846.8185
894.8264, 836.4550
895.3085, 816.3068
895.7906, 798.0265
896.2728, 787.1387
896.7549, 781.6748
897.2370, 782.3027
897.7191, 786.1429
898.2012, 787.5338
898.6833, 784.4682
899.1655, 778.1226
899.6476, 764.9683
900.1297, 752.6221
900.6118, 752.3857
901.0939, 759.7283
901.5760, 766.1407
902.0582, 769.4266
902.5403, 768.9949
903.0224, 764.2520
903.5045, 757.0330
903.9866, 749.3721
904.4688, 741.5285
904.9509, 733.6942
905.4330, 726.3133
905.9151, 723.0925
906.3972, 725.1954
906.8793, 728.5768
907.3615, 729.5728
907.8436, 728.4752
908.3257, 725.7891
908.8078, 721.5024
909.2899, 718.5556
909.7720, 717.6700
910.2542, 714.2484
910.7363, 704.8876
911.2184, 695.7371
911.7005, 696.7134
912.1826, 707.6145
912.6647, 711.5668
913.1469, 706.1034
913.6290, 701.7086
914.1111, 701.2416
914.5932, 699.9071
915.0753, 692.8450
915.5574, 683.8220
916.0396, 682.1764
916.5217, 691.2129
917.0038, 695.2234
917.4859, 692.7277
917.9680, 687.2838
918.4501, 675.5573
918.9323, 664.7482
919.4144, 661.4966
919.8965, 663.9976
920.3786, 665.4102
920.8607, 665.0435
921.3428, 663.9794
921.8250, 660.3054
922.3071, 658.3525
922.7892, 663.2366
923.2713, 668.8993
923.7534, 666.3792
924.2355, 656.6231
924.7177, 651.3185
925.1998, 655.7797
925.6819, 662.2157
926.1640, 672.4963
926.6461, 678.7839
927.1282, 668.5170
927.6104, 652.2342
928.0925, 650.1391
928.5746, 665.4786
929.0567, 679.6490
929.5388, 682.1815
930.0209, 679.8952
930.5031, 673.1129
930.9852, 667.6879
931.4673, 673.9777
931.9494, 688.0628
932.4315, 697.0734
932.9136, 696.4369
933.3958, 693.2159
933.8779, 692.5302
934.3600, 693.4457
934.8421, 695.5377
935.3242, 698.0457
935.8063, 699.9525
936.2885, 700.7311
936.7706, 698.1068
937.2527, 690.5278
937.7348, 684.8185
938.2169, 690.9904
938.6990, 704.5507
939.1812, 716.3030
939.6633, 726.0360
940.1454, 733.7167
940.6275, 739.4568
941.1096, 743.7471
941.5917, 746.7533
942.0739, 749.5237
942.5560, 754.5835
943.0381, 761.1921
943.5202, 765.5771
944.0023, 767.6159
944.4844, 766.6989
944.9666, 762.4713
945.4487, 762.0948
945.9308, 772.8246
946.4129, 790.2089
946.8950, 800.9967
947.3771, 805.2608
947.8593, 815.1780
948.3414, 832.2722
948.8235, 845.5270
949.3056, 849.9281
949.7877, 852.7179
950.2698, 862.0100
950.7520, 876.6158
951.2341, 890.7388
951.7162, 904.7641
952.1983, 914.9129
952.6804, 919.1227
953.1625, 925.4482
953.6447, 937.2971
954.1268, 954.0879
954.6089, 976.8018
955.0910, 1004.697
955.5731, 1023.167
956.0552, 1028.088
956.5374, 1036.105
957.0195, 1049.893
957.5016, 1065.625
957.9837, 1080.320
958.4658, 1096.825
958.9479, 1120.333
959.4301, 1151.496
959.9122, 1181.695
960.3943, 1211.497
960.8764, 1239.151
961.3585, 1263.587
961.8406, 1286.812
962.3228, 1307.883
962.8049, 1329.534
963.2870, 1358.417
963.7691, 1396.844
964.2512, 1430.070
964.7333, 1452.484
965.2155, 1477.870
965.6976, 1504.403
966.1797, 1538.779
966.6618, 1587.675
967.1439, 1647.252
967.6260, 1709.658
968.1082, 1776.596
968.5903, 1838.596
969.0724, 1881.115
969.5545, 1937.929
970.0366, 2029.383
970.5187, 2127.401
971.0009, 2202.694
971.4830, 2268.681
971.9651, 2361.930
972.4472, 2490.906
972.9293, 2629.133
973.4114, 2768.274
973.8936, 2923.745
974.3757, 3102.958
974.8578, 3298.686
975.3399, 3501.885
975.8220, 3716.054
976.3041, 3946.404
976.7863, 4188.564
977.2684, 4463.664
977.7505, 4783.249
978.2326, 5127.115
978.7147, 5476.093
979.1968, 5851.738
979.6790, 6280.957
980.1611, 6755.597
980.6432, 7248.997
981.1253, 7760.834
981.6074, 8269.991
982.0895, 8773.377
982.5717, 9268.146
983.0538, 9811.115
983.5359, 10308.42
984.0180, 10665.66
984.5001, 10882.13
984.9822, 10991.71
985.4644, 10992.47
985.9465, 10919.09
986.4286, 10754.58
986.9107, 10552.41
987.3928, 10305.61
987.8749, 10064.51
988.3571, 9874.286
988.8392, 9745.046
989.3213, 9684.519
989.8034, 9695.848
990.2855, 9773.481
990.7676, 9892.819
991.2498, 10102.41
991.7319, 10446.62
992.2140, 10889.69
992.6961, 11392.13
993.1782, 11951.94
993.6603, 12597.68
994.1425, 13360.05
994.6246, 14138.00
995.1067, 14913.04
995.5888, 15660.67
996.0709, 16408.87
996.5530, 17086.64
997.0352, 17640.29
997.5173, 18044.92
997.9994, 18250.69
998.4815, 18238.07
998.9636, 18033.91
999.4457, 17603.12
999.9279, 17033.92
1000.410, 16345.59
1000.892, 15587.17
1001.374, 14797.02
1001.856, 13989.69
1002.338, 13195.89
1002.821, 12419.21
1003.303, 11674.81
1003.785, 10946.26
1004.267, 10272.20
1004.749, 9693.966
1005.231, 9183.265
1005.713, 8706.519
1006.195, 8265.692
1006.677, 7881.992
1007.160, 7572.829
1007.642, 7296.477
1008.124, 7035.907
1008.606, 6800.094
1009.088, 6602.346
1009.570, 6427.892
1010.052, 6271.339
1010.534, 6121.008
1011.017, 5948.498
1011.499, 5747.000
1011.981, 5511.737
1012.463, 5216.744
1012.945, 4912.843
1013.427, 4622.354
1013.909, 4347.476
1014.391, 4090.163
1014.873, 3851.530
1015.356, 3629.704
1015.838, 3423.730
1016.320, 3241.244
1016.802, 3091.222
1017.284, 2958.292
1017.766, 2839.846
1018.248, 2729.692
1018.730, 2622.322
1019.213, 2518.238
1019.695, 2420.512
1020.177, 2330.548
1020.659, 2243.507
1021.141, 2153.752
1021.623, 2071.000
1022.105, 1998.546
1022.587, 1935.580
1023.069, 1884.810
1023.552, 1842.096
1024.034, 1798.340
1024.516, 1752.241
1024.998, 1703.902
1025.480, 1655.416
1025.962, 1602.281
1026.444, 1532.616
1026.926, 1467.505
1027.409, 1429.185
1027.891, 1407.205
1028.373, 1376.916
1028.855, 1333.906
1029.337, 1294.378
1029.819, 1268.653
1030.301, 1236.573
1030.783, 1175.417
1031.266, 1123.362
1031.748, 1119.640
1032.230, 1137.479
1032.712, 1125.631
1033.194, 1077.818
1033.676, 1038.733
1034.158, 1018.223
1034.640, 999.0544
1035.122, 978.7122
1035.604, 958.7409
1036.087, 940.5262
1036.569, 923.0065
1037.051, 903.7513
1037.533, 882.4979
1038.015, 866.4216
1038.497, 861.1243
1038.979, 851.9643
1039.461, 833.1182
1039.944, 816.7559
1040.426, 810.4557
1040.908, 807.5555
1041.390, 800.3060
1041.872, 789.0490
1042.354, 777.0889
1042.836, 761.8986
1043.318, 752.2452
1043.801, 753.4238
1044.283, 750.2961
1044.765, 732.7542
1045.247, 715.2296
1045.729, 714.3005
1046.211, 725.3428
1046.693, 726.2823
1047.175, 712.9081
1047.657, 704.1058
1048.140, 701.9448
1048.622, 698.2817
1049.104, 689.6226
1049.586, 681.2469
1050.068, 676.9970
1050.550, 677.2325
1051.032, 685.0003
1051.514, 702.3370
1051.996, 705.6227
1052.479, 692.7117
1052.961, 678.3100
1053.443, 665.1281
1053.925, 654.8096
1054.407, 648.3775
1054.889, 645.4780
1055.371, 646.5302
1055.853, 650.8254
1056.336, 648.6802
1056.818, 640.1221
1057.300, 636.1810
1057.782, 638.7902
1058.264, 641.1176
1058.746, 639.6734
1059.228, 635.1478
1059.710, 627.5045
1060.193, 618.3101
1060.675, 612.5784
1061.157, 610.1329
1061.639, 611.1671
1062.121, 615.0938
1062.603, 617.1810
1063.085, 615.7018
1063.567, 614.8597
1064.049, 619.8714
1064.531, 625.6086
1065.014, 619.7703
1065.496, 608.2927
1065.978, 607.8255
1066.460, 615.5692
1066.942, 615.9471
1067.424, 606.2570
1067.906, 600.4390
1068.388, 609.3391
1068.871, 620.8599
1069.353, 620.8932
1069.835, 615.4229
1070.317, 610.0225
1070.799, 606.8425
1071.281, 610.9116
1071.763, 620.8531
1072.245, 628.0266
1072.728, 628.1718
1073.210, 627.9137
1073.692, 630.3675
1074.174, 636.2728
1074.656, 648.7136
1075.138, 663.1853
1075.620, 672.9380
1076.102, 680.0866
1076.584, 692.4143
1077.067, 712.1836
1077.549, 730.9121
1078.031, 742.7070
1078.513, 755.5115
1078.995, 771.9677
1079.477, 791.7188
1079.959, 815.3818
1080.441, 841.7498
1080.923, 868.5870
1081.406, 895.7250
1081.888, 926.6043
1082.370, 971.2542
1082.852, 1005.484
1083.334, 1021.003
1083.816, 1030.822
1084.298, 1041.286
1084.780, 1048.484
1085.262, 1049.669
1085.745, 1043.987
1086.227, 1026.159
1086.709, 990.3271
1087.191, 958.2546
1087.673, 932.7960
1088.155, 905.3094
1088.637, 872.3621
1089.119, 838.3193
1089.602, 802.5549
1090.084, 772.5553
1090.566, 768.3177
1091.048, 791.6010
1091.530, 787.1287
1092.012, 749.1189
1092.494, 720.8758
1092.976, 710.0873
1093.458, 705.2372
1093.941, 701.4133
1094.423, 694.7842
1094.905, 678.7914
1095.387, 657.9659
1095.869, 651.1525
1096.351, 656.1486
1096.833, 654.7476
1097.315, 646.5045
1097.797, 643.7888
1098.280, 650.1208
1098.762, 654.8956
1099.244, 649.0293
1099.726, 639.8817
1100.208, 640.5834
1100.690, 645.2305
1101.172, 641.6005
1101.654, 631.5971
1102.137, 618.2817
1102.619, 604.7750
1103.101, 600.1506
1103.583, 609.1418
1104.065, 619.8057
1104.547, 622.0571
1105.029, 621.7380
1105.511, 624.1209
1105.994, 627.1197
1106.476, 626.7742
1106.958, 625.2440
1107.440, 628.6458
1107.922, 637.8802
1108.404, 644.9305
1108.886, 641.5901
1109.368, 643.0022
1109.850, 663.3691
1110.333, 680.5450
1110.815, 674.7988
1111.297, 662.4116
1111.779, 665.7294
1112.261, 682.0361
1112.743, 689.6891
1113.225, 677.5591
1113.707, 680.0674
1114.189, 710.3012
1114.672, 735.6322
1115.154, 745.5628
1115.636, 753.4310
1116.118, 767.4323
1116.600, 785.9351
1117.082, 805.8459
1117.564, 827.1949
1118.046, 852.3852
1118.529, 880.6832
1119.011, 917.6633
1119.493, 964.7905
1119.975, 1014.432
1120.457, 1062.680
1120.939, 1117.072
1121.421, 1184.803
1121.903, 1264.624
1122.385, 1352.153
1122.868, 1447.795
1123.350, 1552.703
1123.832, 1668.456
1124.314, 1810.053
1124.796, 1977.815
1125.278, 2156.701
1125.760, 2338.974
1126.242, 2506.966
1126.724, 2656.489
1127.207, 2763.353
1127.689, 2786.379
1128.171, 2748.225
1128.653, 2670.183
1129.135, 2567.271
1129.617, 2456.702
1130.099, 2345.891
1130.581, 2255.704
1131.064, 2193.236
1131.546, 2159.146
1132.028, 2152.977
1132.510, 2175.641
1132.992, 2227.518
1133.474, 2308.652
1133.956, 2423.263
1134.438, 2567.425
1134.921, 2731.804
1135.403, 2929.373
1135.885, 3097.396
1136.367, 3254.661
1136.849, 3343.062
1137.331, 3341.394
1137.813, 3284.729
1138.295, 3188.288
1138.777, 3052.095
1139.260, 2869.580
1139.742, 2646.750
1140.224, 2432.397
1140.706, 2224.337
1141.188, 2034.971
1141.670, 1865.527
1142.152, 1703.024
1142.634, 1543.315
1143.116, 1401.134
1143.599, 1288.774
1144.081, 1196.607
1144.563, 1107.631
1145.045, 1024.856
1145.527, 959.2659
1146.009, 908.0948
1146.491, 863.3928
1146.973, 823.5698
1147.456, 788.1928
1147.938, 757.1987
1148.420, 730.6092
1148.902, 710.4012
1149.384, 691.2307
1149.866, 665.4938
1150.348, 641.5170
1150.830, 629.4405
1151.313, 623.7542
1151.795, 616.3596
1152.277, 606.3885
1152.759, 596.1462
1153.241, 586.9595
1153.723, 574.5387
1154.205, 549.5610
1154.687, 532.6666
1155.169, 536.5819
1155.651, 543.2258
1156.134, 540.4626
1156.616, 534.5890
1157.098, 536.0853
1157.580, 543.6901
1158.062, 541.5057
1158.544, 526.4194
1159.026, 515.5839
1159.508, 509.9104
1159.991, 509.2892
1160.473, 514.4996
1160.955, 517.6699
1161.437, 512.6198
1161.919, 504.6899
1162.401, 503.4215
1162.883, 506.4493
1163.365, 505.3127
1163.848, 501.6325
1164.330, 500.9850
1164.812, 503.1783
1165.294, 504.7931
1165.776, 504.6732
1166.258, 503.4164
1166.740, 501.0299
1167.222, 498.6539
1167.704, 498.7455
1168.187, 497.6912
1168.669, 490.1975
1169.151, 481.1432
1169.633, 476.5226
1170.115, 475.9083
1170.597, 477.0119
1171.079, 480.1438
1171.561, 478.8402
1172.043, 464.8105
1172.526, 457.4659
1173.008, 463.5846
1173.490, 471.6498
1173.972, 480.6377
1174.454, 483.6313
1174.936, 470.2488
1175.418, 447.5172
1175.900, 441.9277
1176.383, 455.4137
1176.865, 456.3434
1177.347, 444.2796
1177.829, 441.4125
1178.311, 451.5674
1178.793, 458.0092
1179.275, 452.5687
1179.757, 445.4090
1180.240, 447.7639
1180.722, 453.9339
1181.204, 455.7733
1181.686, 454.2653
1182.168, 448.3234
1182.650, 441.5224
1183.132, 441.8644
1183.614, 448.7545
1184.096, 454.5656
1184.578, 456.6065
1185.061, 456.6899
1185.543, 453.7753
1186.025, 451.6305
1186.507, 454.4489
1186.989, 455.7993
1187.471, 447.6084
1187.953, 437.5790
1188.435, 437.5954
1188.918, 445.9353
1189.400, 452.2836
1189.882, 458.2499
1190.364, 455.3898
1190.846, 440.8528
1191.328, 429.4236
1191.810, 423.8387
1192.292, 426.4266
1192.775, 439.4678
1193.257, 453.8814
1193.739, 458.2251
1194.221, 455.7234
1194.703, 453.3419
1195.185, 450.9145
1195.667, 446.3427
1196.149, 441.6620
1196.631, 445.3810
1197.114, 456.0647
1197.596, 458.8834
1198.078, 446.4131
1198.560, 434.9358
1199.042, 438.2456
1199.524, 440.7927
1200.006, 427.5203
1200.488, 416.3471
1200.970, 425.6559
1201.453, 443.5777
1201.935, 452.5114
1202.417, 452.3448
1202.899, 450.7488
1203.381, 445.3430
1203.863, 447.4158
1204.345, 461.9747
1204.827, 466.8252
1205.310, 455.6188
1205.792, 442.3087
1206.274, 433.6471
1206.756, 431.2592
1207.238, 439.0552
1207.720, 450.6677
1208.202, 449.4978
1208.684, 439.2588
1209.167, 426.4284
1209.649, 415.1547
1210.131, 419.1090
1210.613, 435.8979
1211.095, 446.2578
1211.577, 442.4987
1212.059, 436.0345
1212.541, 432.2370
1213.023, 429.8565
1213.505, 427.5869
1213.988, 427.2062
1214.470, 433.7137
1214.952, 440.0898
1215.434, 435.1249
1215.916, 422.6735
1216.398, 418.0389
1216.880, 422.7630
1217.362, 426.0266
1217.845, 427.7819
1218.327, 427.7816
1218.809, 425.4362
1219.291, 425.9145
1219.773, 431.6740
1220.255, 436.5811
1220.737, 434.6905
1221.219, 430.1164
1221.702, 430.3300
1222.184, 433.0182
1222.666, 434.0429
1223.148, 433.4611
1223.630, 430.1741
1224.112, 425.9474
1224.594, 426.5266
1225.076, 432.7469
1225.558, 436.0409
1226.041, 431.3235
1226.523, 425.9613
1227.005, 418.1932
1227.487, 415.7447
1227.969, 428.1732
1228.451, 440.5925
1228.933, 439.7921
1229.415, 434.1719
1229.897, 440.0444
1230.380, 455.2001
1230.862, 452.6636
1231.344, 431.4326
1231.826, 417.7543
1232.308, 413.0703
1232.790, 412.3704
1233.272, 414.1147
1233.754, 416.5206
1234.237, 418.5652
1234.719, 421.5688
1235.201, 430.1965
1235.683, 436.6637
##END=



