##NAMES=Hydroxylherderite
##RRUFFID=R070451
##IDEAL CHEMISTRY=CaBe(P^5+^O_4_)(OH)
##LOCALITY=Fletcher mine, Groton, Grafton County, New Hampshire, USA
##OWNER=RRUFF
##SOURCE=Michael Scott
##DESCRIPTION=Brownish green prismatic crystal
##STATUS=The identification of this mineral has been confirmed by X-ray diffraction and chemical analysis
##URL=rruff.info/R070451
##MEASURED CHEMISTRY=Ca_1.00_Be_1.00_P_1.00_O_4_((OH)_0.80_F_0.20_)_Î£=1_; trace amounts of Al; OH estimated by charge balance; BeO by difference
134.9772, 3247.850
135.4593, 3402.295
135.9414, 3567.557
136.4235, 3740.664
136.9057, 3921.298
137.3878, 4096.453
137.8699, 4264.743
138.3520, 4424.535
138.8341, 4574.738
139.3162, 4715.397
139.7984, 4846.955
140.2805, 4972.740
140.7626, 5090.574
141.2447, 5201.715
141.7268, 5305.451
142.2089, 5399.878
142.6911, 5495.158
143.1732, 5592.931
143.6553, 5689.383
144.1374, 5782.656
144.6195, 5893.910
145.1016, 5965.135
145.5838, 5968.342
146.0659, 5869.320
146.5480, 5771.234
147.0301, 5664.318
147.5122, 5557.643
147.9943, 5483.468
148.4765, 5450.465
148.9586, 5442.870
149.4407, 5451.842
149.9228, 5471.473
150.4049, 5515.523
150.8870, 5593.607
151.3692, 5704.960
151.8513, 5810.928
152.3334, 5905.918
152.8155, 5997.235
153.2976, 6092.510
153.7797, 6192.788
154.2619, 6294.957
154.7440, 6402.178
155.2261, 6516.108
155.7082, 6621.257
156.1903, 6709.197
156.6724, 6790.061
157.1546, 6873.368
157.6367, 6957.997
158.1188, 7048.496
158.6009, 7147.258
159.0830, 7258.394
159.5652, 7369.548
160.0473, 7465.852
160.5294, 7560.950
161.0115, 7679.464
161.4936, 7829.401
161.9757, 8005.260
162.4579, 8208.748
162.9400, 8462.743
163.4221, 8705.720
163.9042, 8893.595
164.3863, 9044.556
164.8684, 9220.283
165.3506, 9430.016
165.8327, 9682.850
166.3148, 9988.145
166.7969, 10395.61
167.2790, 10808.76
167.7611, 11260.39
168.2433, 11725.34
168.7254, 11975.42
169.2075, 11803.46
169.6896, 11367.72
170.1717, 10853.26
170.6538, 10222.93
171.1360, 9608.743
171.6181, 9106.704
172.1002, 8717.639
172.5823, 8416.916
173.0644, 8199.184
173.5465, 8053.910
174.0287, 7957.622
174.5108, 7921.296
174.9929, 7919.475
175.4750, 7926.592
175.9571, 7941.574
176.4392, 7962.071
176.9214, 7977.215
177.4035, 7994.121
177.8856, 8033.046
178.3677, 8117.776
178.8498, 8228.238
179.3319, 8330.461
179.8141, 8414.062
180.2962, 8505.913
180.7783, 8637.803
181.2604, 8805.902
181.7425, 9002.736
182.2246, 9251.479
182.7068, 9524.048
183.1889, 9774.569
183.6710, 10021.26
184.1531, 10200.63
184.6352, 10181.97
185.1173, 9971.668
185.5995, 9689.875
186.0816, 9393.160
186.5637, 9094.957
187.0458, 8837.063
187.5279, 8627.686
188.0100, 8468.393
188.4922, 8378.682
188.9743, 8360.277
189.4564, 8374.570
189.9385, 8390.139
190.4206, 8407.517
190.9027, 8430.304
191.3849, 8456.821
191.8670, 8489.857
192.3491, 8539.888
192.8312, 8607.771
193.3133, 8690.880
193.7955, 8789.787
194.2776, 8904.274
194.7597, 9023.028
195.2418, 9135.577
195.7239, 9245.053
196.2060, 9387.609
196.6882, 9569.708
197.1703, 9766.668
197.6524, 9947.276
198.1345, 10109.24
198.6166, 10256.68
199.0987, 10418.25
199.5809, 10594.04
200.0630, 10639.44
200.5451, 10538.08
201.0272, 10329.33
201.5093, 10055.26
201.9914, 9699.821
202.4736, 9363.585
202.9557, 9092.829
203.4378, 8889.938
203.9199, 8725.326
204.4020, 8599.740
204.8841, 8509.762
205.3663, 8452.811
205.8484, 8435.609
206.3305, 8428.235
206.8126, 8411.310
207.2947, 8381.505
207.7768, 8363.682
208.2590, 8363.015
208.7411, 8374.764
209.2232, 8382.261
209.7053, 8384.186
210.1874, 8385.061
210.6695, 8388.212
211.1517, 8394.341
211.6338, 8399.356
212.1159, 8401.154
212.5980, 8401.209
213.0801, 8409.161
213.5622, 8427.661
214.0444, 8448.949
214.5265, 8465.510
215.0086, 8474.382
215.4907, 8488.425
215.9728, 8509.352
216.4549, 8537.163
216.9371, 8575.255
217.4192, 8632.873
217.9013, 8686.626
218.3834, 8707.872
218.8655, 8677.546
219.3476, 8667.081
219.8298, 8697.661
220.3119, 8769.499
220.7940, 8824.277
221.2761, 8855.884
221.7582, 8877.439
222.2403, 8901.559
222.7225, 8923.014
223.2046, 8958.456
223.6867, 9015.666
224.1688, 9097.981
224.6509, 9168.039
225.1330, 9218.004
225.6152, 9263.917
226.0973, 9326.931
226.5794, 9412.339
227.0615, 9501.501
227.5436, 9581.671
228.0257, 9644.765
228.5079, 9756.245
228.9900, 9942.934
229.4721, 10159.05
229.9542, 10344.33
230.4363, 10509.89
230.9185, 10624.11
231.4006, 10678.03
231.8827, 10668.75
232.3648, 10604.82
232.8469, 10462.00
233.3290, 10278.03
233.8112, 10114.58
234.2933, 9971.390
234.7754, 9849.094
235.2575, 9746.823
235.7396, 9661.801
236.2217, 9609.371
236.7039, 9610.283
237.1860, 9633.908
237.6681, 9615.136
238.1502, 9523.381
238.6323, 9437.591
239.1144, 9387.777
239.5966, 9389.844
240.0787, 9385.029
240.5608, 9364.627
241.0429, 9340.542
241.5250, 9340.611
242.0071, 9375.226
242.4893, 9418.419
242.9714, 9459.596
243.4535, 9498.963
243.9356, 9536.494
244.4177, 9566.595
244.8998, 9596.267
245.3820, 9643.686
245.8641, 9710.461
246.3462, 9793.023
246.8283, 9892.884
247.3104, 10023.93
247.7925, 10136.86
248.2747, 10221.40
248.7568, 10289.56
249.2389, 10376.09
249.7210, 10488.75
250.2031, 10608.06
250.6852, 10725.25
251.1674, 10836.85
251.6495, 10955.38
252.1316, 11097.32
252.6137, 11243.06
253.0958, 11326.25
253.5779, 11328.83
254.0601, 11296.65
254.5422, 11250.67
255.0243, 11187.18
255.5064, 11121.10
255.9885, 11057.54
256.4706, 10991.36
256.9528, 10900.56
257.4349, 10772.75
257.9170, 10640.45
258.3991, 10512.79
258.8812, 10374.84
259.3633, 10289.53
259.8455, 10277.96
260.3276, 10317.54
260.8097, 10325.92
261.2918, 10283.86
261.7739, 10245.93
262.2560, 10246.53
262.7382, 10302.30
263.2203, 10345.18
263.7024, 10363.21
264.1845, 10367.71
264.6666, 10401.19
265.1487, 10472.57
265.6309, 10553.97
266.1130, 10624.76
266.5951, 10676.63
267.0772, 10754.23
267.5593, 10870.89
268.0414, 11012.64
268.5236, 11134.99
269.0057, 11248.52
269.4878, 11319.73
269.9699, 11322.30
270.4520, 11243.78
270.9341, 11152.00
271.4163, 11052.16
271.8984, 10942.70
272.3805, 10810.38
272.8626, 10639.75
273.3447, 10488.09
273.8268, 10397.96
274.3090, 10379.36
274.7911, 10353.37
275.2732, 10310.05
275.7553, 10258.00
276.2374, 10222.42
276.7195, 10205.77
277.2017, 10194.78
277.6838, 10176.67
278.1659, 10149.15
278.6480, 10145.65
279.1301, 10175.15
279.6122, 10224.48
280.0944, 10263.89
280.5765, 10292.12
281.0586, 10316.33
281.5407, 10340.93
282.0229, 10365.94
282.5050, 10387.21
282.9871, 10402.97
283.4692, 10416.67
283.9513, 10439.18
284.4334, 10471.73
284.9156, 10498.62
285.3977, 10510.95
285.8798, 10509.09
286.3619, 10495.57
286.8440, 10466.96
287.3261, 10432.89
287.8083, 10410.55
288.2904, 10400.01
288.7725, 10394.29
289.2546, 10392.65
289.7367, 10393.59
290.2188, 10385.86
290.7010, 10364.97
291.1831, 10343.28
291.6652, 10344.27
292.1473, 10366.52
292.6294, 10390.00
293.1115, 10401.73
293.5937, 10405.41
294.0758, 10412.64
294.5579, 10423.53
295.0400, 10440.88
295.5221, 10473.22
296.0042, 10518.18
296.4864, 10559.86
296.9685, 10582.07
297.4506, 10595.81
297.9327, 10630.47
298.4148, 10692.06
298.8969, 10757.86
299.3791, 10793.06
299.8612, 10806.63
300.3433, 10828.60
300.8254, 10876.78
301.3075, 10942.55
301.7896, 11013.99
302.2718, 11092.33
302.7539, 11167.84
303.2360, 11221.02
303.7181, 11262.91
304.2002, 11321.40
304.6823, 11420.36
305.1645, 11537.91
305.6466, 11647.21
306.1287, 11747.61
306.6108, 11844.37
307.0929, 11964.71
307.5750, 12083.05
308.0572, 12157.61
308.5393, 12159.80
309.0214, 12115.36
309.5035, 12037.83
309.9856, 11927.52
310.4677, 11806.33
310.9499, 11670.57
311.4320, 11536.49
311.9141, 11424.05
312.3962, 11354.64
312.8783, 11297.62
313.3604, 11230.56
313.8426, 11154.11
314.3247, 11087.29
314.8068, 11034.42
315.2889, 10999.54
315.7710, 10986.12
316.2531, 11013.04
316.7353, 11045.70
317.2174, 11068.93
317.6995, 11083.39
318.1816, 11097.78
318.6637, 11105.92
319.1458, 11120.26
319.6280, 11150.79
320.1101, 11230.49
320.5922, 11295.74
321.0743, 11312.74
321.5564, 11292.42
322.0385, 11296.04
322.5207, 11354.59
323.0028, 11432.66
323.4849, 11507.74
323.9670, 11570.48
324.4491, 11637.66
324.9312, 11724.59
325.4134, 11821.29
325.8955, 11890.19
326.3776, 11906.47
326.8597, 11909.23
327.3418, 11917.64
327.8239, 11964.07
328.3061, 11971.56
328.7882, 11913.21
329.2703, 11814.06
329.7524, 11737.92
330.2345, 11693.23
330.7166, 11663.41
331.1988, 11645.68
331.6809, 11653.93
332.1630, 11641.81
332.6451, 11591.03
333.1272, 11526.34
333.6093, 11496.90
334.0915, 11526.90
334.5736, 11553.64
335.0557, 11550.81
335.5378, 11505.07
336.0199, 11494.39
336.5020, 11528.53
336.9842, 11588.09
337.4663, 11649.31
337.9484, 11715.24
338.4305, 11774.79
338.9126, 11824.72
339.3947, 11864.74
339.8769, 11901.93
340.3590, 11936.14
340.8411, 11968.48
341.3232, 11997.64
341.8053, 12021.43
342.2874, 12058.65
342.7696, 12122.32
343.2517, 12203.85
343.7338, 12249.92
344.2159, 12257.14
344.6980, 12250.79
345.1801, 12252.90
345.6623, 12262.72
346.1444, 12269.29
346.6265, 12269.22
347.1086, 12265.42
347.5907, 12259.02
348.0728, 12250.23
348.5550, 12255.68
349.0371, 12295.65
349.5192, 12360.92
350.0013, 12420.83
350.4834, 12465.50
350.9655, 12511.67
351.4477, 12592.80
351.9298, 12701.79
352.4119, 12798.00
352.8940, 12873.99
353.3762, 12917.10
353.8583, 12898.88
354.3404, 12808.31
354.8225, 12685.77
355.3046, 12559.71
355.7867, 12430.86
356.2689, 12300.88
356.7510, 12148.57
357.2331, 12008.26
357.7152, 11917.41
358.1973, 11882.18
358.6794, 11861.23
359.1616, 11831.59
359.6437, 11799.00
360.1258, 11771.50
360.6079, 11756.27
361.0900, 11743.56
361.5721, 11724.47
362.0543, 11699.09
362.5364, 11684.94
363.0185, 11691.62
363.5006, 11711.68
363.9827, 11738.25
364.4648, 11799.73
364.9470, 11836.76
365.4291, 11814.67
365.9112, 11743.96
366.3933, 11698.28
366.8754, 11703.56
367.3575, 11729.82
367.8397, 11760.26
368.3218, 11819.90
368.8039, 11851.04
369.2860, 11825.66
369.7681, 11766.62
370.2502, 11741.99
370.7324, 11772.90
371.2145, 11817.42
371.6966, 11863.62
372.1787, 11923.31
372.6608, 11953.46
373.1429, 11939.15
373.6251, 11903.38
374.1072, 11883.60
374.5893, 11883.87
375.0714, 11892.44
375.5535, 11909.18
376.0356, 11935.35
376.5178, 11947.66
376.9999, 11940.52
377.4820, 11928.87
377.9641, 11930.39
378.4462, 11946.65
378.9283, 11966.11
379.4105, 11988.46
379.8926, 12011.46
380.3747, 12022.57
380.8568, 12020.30
381.3389, 12016.08
381.8210, 12019.62
382.3032, 12030.14
382.7853, 12041.52
383.2674, 12052.15
383.7495, 12063.66
384.2316, 12081.49
384.7137, 12104.82
385.1959, 12123.42
385.6780, 12126.62
386.1601, 12120.92
386.6422, 12120.36
387.1243, 12127.60
387.6064, 12136.66
388.0886, 12140.42
388.5707, 12140.95
389.0528, 12143.48
389.5349, 12152.22
390.0170, 12163.28
390.4991, 12168.96
390.9813, 12167.79
391.4634, 12178.65
391.9455, 12232.94
392.4276, 12300.98
392.9097, 12345.06
393.3918, 12325.73
393.8740, 12302.73
394.3561, 12308.55
394.8382, 12339.97
395.3203, 12363.16
395.8024, 12356.60
396.2845, 12342.80
396.7667, 12337.02
397.2488, 12342.66
397.7309, 12355.70
398.2130, 12376.31
398.6951, 12403.94
399.1772, 12437.05
399.6594, 12500.31
400.1415, 12546.99
400.6236, 12555.20
401.1057, 12496.66
401.5878, 12467.09
402.0699, 12477.05
402.5521, 12510.82
403.0342, 12547.91
403.5163, 12598.37
403.9984, 12633.77
404.4805, 12642.43
404.9626, 12623.72
405.4448, 12614.26
405.9269, 12614.40
406.4090, 12623.17
406.8911, 12642.66
407.3732, 12675.25
407.8553, 12701.45
408.3375, 12712.74
408.8196, 12718.15
409.3017, 12749.15
409.7838, 12807.67
410.2659, 12870.15
410.7480, 12917.76
411.2302, 12954.11
411.7123, 12995.93
412.1944, 13044.74
412.6765, 13099.56
413.1586, 13162.20
413.6407, 13231.40
414.1229, 13299.98
414.6050, 13362.66
415.0871, 13424.31
415.5692, 13485.97
416.0513, 13547.86
416.5334, 13624.26
417.0156, 13732.49
417.4977, 13862.44
417.9798, 13997.32
418.4619, 14138.26
418.9440, 14277.33
419.4261, 14402.15
419.9083, 14516.10
420.3904, 14652.63
420.8725, 14829.23
421.3546, 15031.12
421.8367, 15246.63
422.3188, 15481.91
422.8010, 15719.61
423.2831, 15993.65
423.7652, 16265.92
424.2473, 16463.04
424.7295, 16605.79
425.2116, 16645.61
425.6937, 16549.31
426.1758, 16283.93
426.6579, 16013.54
427.1400, 15723.86
427.6222, 15436.47
428.1043, 15165.00
428.5864, 14896.40
429.0685, 14671.69
429.5506, 14506.51
430.0327, 14395.41
430.5149, 14293.64
430.9970, 14199.46
431.4791, 14120.21
431.9612, 14061.26
432.4433, 14022.44
432.9254, 14004.22
433.4076, 14010.12
433.8897, 14031.41
434.3718, 14050.45
434.8539, 14067.60
435.3360, 14095.76
435.8181, 14147.49
436.3003, 14214.47
436.7824, 14271.35
437.2645, 14316.13
437.7466, 14365.52
438.2287, 14437.50
438.7108, 14526.36
439.1930, 14619.78
439.6751, 14710.25
440.1572, 14805.48
440.6393, 14912.90
441.1214, 15031.60
441.6035, 15157.11
442.0857, 15274.61
442.5678, 15404.54
443.0499, 15571.90
443.5320, 15798.07
444.0141, 16015.40
444.4962, 16200.16
444.9784, 16357.98
445.4605, 16498.29
445.9426, 16685.42
446.4247, 16797.36
446.9068, 16787.27
447.3889, 16643.53
447.8711, 16448.24
448.3532, 16148.95
448.8353, 15836.80
449.3174, 15576.63
449.7995, 15394.53
450.2816, 15220.34
450.7638, 15048.71
451.2459, 14880.29
451.7280, 14720.39
452.2101, 14561.99
452.6922, 14429.94
453.1743, 14342.83
453.6565, 14305.76
454.1386, 14269.67
454.6207, 14233.95
455.1028, 14198.78
455.5849, 14161.91
456.0670, 14123.96
456.5492, 14093.95
457.0313, 14080.50
457.5134, 14074.93
457.9955, 14051.40
458.4776, 14010.66
458.9597, 13978.38
459.4419, 13985.37
459.9240, 14012.21
460.4061, 14022.98
460.8882, 14002.07
461.3703, 13982.86
461.8524, 14008.29
462.3346, 14058.39
462.8167, 14086.31
463.2988, 14038.33
463.7809, 13984.76
464.2630, 13977.48
464.7451, 14025.56
465.2273, 14058.31
465.7094, 14030.08
466.1915, 13985.71
466.6736, 13965.24
467.1557, 14003.41
467.6378, 14035.13
468.1200, 14045.09
468.6021, 14039.26
469.0842, 14044.07
469.5663, 14065.24
470.0484, 14090.39
470.5305, 14116.79
471.0127, 14149.10
471.4948, 14165.13
471.9769, 14160.00
472.4590, 14144.87
472.9411, 14131.63
473.4232, 14118.56
473.9054, 14120.39
474.3875, 14150.26
474.8696, 14196.38
475.3517, 14200.68
475.8338, 14160.48
476.3159, 14129.54
476.7981, 14170.33
477.2802, 14255.47
477.7623, 14295.22
478.2444, 14266.80
478.7265, 14221.11
479.2086, 14211.84
479.6908, 14231.60
480.1729, 14262.22
480.6550, 14308.18
481.1371, 14352.46
481.6192, 14377.19
482.1013, 14382.67
482.5835, 14388.71
483.0656, 14410.84
483.5477, 14434.81
484.0298, 14448.14
484.5119, 14435.17
484.9940, 14428.62
485.4762, 14440.34
485.9583, 14463.74
486.4404, 14481.94
486.9225, 14478.49
487.4046, 14484.53
487.8867, 14512.29
488.3689, 14567.20
488.8510, 14613.75
489.3331, 14658.20
489.8152, 14687.36
490.2973, 14682.01
490.7794, 14631.13
491.2616, 14593.32
491.7437, 14579.29
492.2258, 14582.85
492.7079, 14584.10
493.1900, 14582.09
493.6722, 14596.31
494.1543, 14658.05
494.6364, 14746.75
495.1185, 14781.12
495.6006, 14751.08
496.0828, 14717.69
496.5649, 14758.49
497.0470, 14840.52
497.5291, 14893.13
498.0112, 14861.49
498.4933, 14823.82
498.9755, 14856.56
499.4576, 14942.80
499.9397, 15016.92
500.4218, 15027.89
500.9039, 15031.52
501.3860, 15066.85
501.8682, 15150.53
502.3503, 15227.56
502.8324, 15273.18
503.3145, 15310.17
503.7966, 15365.52
504.2787, 15454.08
504.7609, 15545.82
505.2430, 15636.56
505.7251, 15726.62
506.2072, 15820.54
506.6893, 15914.64
507.1714, 16018.64
507.6536, 16141.15
508.1357, 16283.97
508.6178, 16423.71
509.0999, 16554.83
509.5820, 16692.41
510.0641, 16854.97
510.5463, 17043.14
511.0284, 17252.14
511.5105, 17483.01
511.9926, 17736.43
512.4747, 18017.94
512.9568, 18326.42
513.4390, 18652.51
513.9211, 19029.03
514.4032, 19404.19
514.8853, 19721.18
515.3674, 19983.88
515.8495, 20146.62
516.3317, 20174.92
516.8138, 20087.96
517.2959, 19912.23
517.7780, 19566.36
518.2601, 19221.57
518.7422, 18926.28
519.2244, 18680.08
519.7065, 18478.34
520.1886, 18313.67
520.6707, 18202.39
521.1528, 18158.84
521.6349, 18212.34
522.1171, 18253.83
522.5992, 18259.31
523.0813, 18277.02
523.5634, 18382.12
524.0455, 18589.61
524.5276, 18806.78
525.0098, 19019.96
525.4919, 19221.29
525.9740, 19397.58
526.4561, 19550.27
526.9382, 19657.88
527.4203, 19713.50
527.9025, 19715.12
528.3846, 19653.01
528.8667, 19522.94
529.3488, 19350.49
529.8309, 19142.29
530.3130, 18913.11
530.7952, 18683.66
531.2773, 18445.91
531.7594, 18227.20
532.2415, 18052.32
532.7236, 17912.59
533.2057, 17778.44
533.6879, 17613.71
534.1700, 17471.77
534.6521, 17381.95
535.1342, 17363.29
535.6163, 17351.46
536.0984, 17342.75
536.5806, 17342.07
537.0627, 17355.84
537.5448, 17390.26
538.0269, 17425.63
538.5090, 17462.10
538.9911, 17495.94
539.4733, 17511.72
539.9554, 17508.06
540.4375, 17497.35
540.9196, 17484.14
541.4017, 17469.08
541.8839, 17462.41
542.3660, 17466.79
542.8481, 17453.97
543.3302, 17379.30
543.8123, 17269.74
544.2944, 17176.41
544.7766, 17109.46
545.2587, 17069.81
545.7408, 17077.71
546.2229, 17115.28
546.7050, 17138.49
547.1871, 17109.54
547.6693, 17079.08
548.1514, 17072.79
548.6335, 17094.43
549.1156, 17118.32
549.5977, 17128.57
550.0798, 17148.50
550.5620, 17196.61
551.0441, 17304.52
551.5262, 17374.72
552.0083, 17378.93
552.4904, 17361.12
552.9725, 17416.51
553.4547, 17560.63
553.9368, 17696.00
554.4189, 17778.84
554.9010, 17827.39
555.3831, 17911.52
555.8652, 18031.56
556.3474, 18170.07
556.8295, 18316.71
557.3116, 18472.09
557.7937, 18635.29
558.2758, 18807.42
558.7579, 18986.85
559.2401, 19156.92
559.7222, 19334.91
560.2043, 19546.70
560.6864, 19840.90
561.1685, 20134.37
561.6506, 20384.96
562.1328, 20598.82
562.6149, 20817.79
563.0970, 21089.73
563.5791, 21331.90
564.0612, 21518.83
564.5433, 21654.22
565.0255, 21712.64
565.5076, 21656.98
565.9897, 21567.75
566.4718, 21529.68
566.9539, 21553.23
567.4360, 21559.56
567.9182, 21524.55
568.4003, 21480.38
568.8824, 21490.58
569.3645, 21554.11
569.8466, 21660.35
570.3287, 21802.12
570.8109, 21982.34
571.2930, 22202.29
571.7751, 22463.68
572.2572, 22762.19
572.7393, 23117.79
573.2214, 23501.54
573.7036, 23886.30
574.1857, 24265.92
574.6678, 24645.25
575.1499, 25067.44
575.6320, 25475.19
576.1141, 25789.86
576.5963, 26004.43
577.0784, 26111.71
577.5605, 26112.48
578.0426, 26006.83
578.5247, 25772.49
579.0068, 25363.90
579.4890, 24923.66
579.9711, 24512.37
580.4532, 24132.42
580.9353, 23767.15
581.4174, 23411.51
581.8995, 23091.48
582.3817, 22831.45
582.8638, 22630.51
583.3459, 22489.59
583.8280, 22420.57
584.3101, 22389.14
584.7922, 22335.39
585.2744, 22287.76
585.7565, 22317.77
586.2386, 22504.68
586.7207, 22741.77
587.2028, 22959.35
587.6849, 23155.86
588.1671, 23403.76
588.6492, 23741.76
589.1313, 24122.42
589.6134, 24510.99
590.0955, 24878.06
590.5776, 25317.03
591.0598, 25834.60
591.5419, 26418.05
592.0240, 27054.13
592.5061, 27745.51
592.9882, 28481.64
593.4703, 29245.00
593.9525, 30046.50
594.4346, 30930.20
594.9167, 31887.86
595.3988, 32803.65
595.8809, 33672.34
596.3630, 34433.82
596.8452, 35032.19
597.3273, 35452.62
597.8094, 35593.73
598.2915, 35385.42
598.7736, 34861.34
599.2557, 34023.19
599.7379, 32756.84
600.2200, 31431.34
600.7021, 30075.15
601.1843, 28742.39
601.6664, 27517.06
602.1485, 26400.18
602.6306, 25368.64
603.1127, 24415.06
603.5948, 23546.63
604.0770, 22833.80
604.5591, 22309.32
605.0412, 21849.76
605.5233, 21397.37
606.0054, 20955.47
606.4875, 20593.38
606.9697, 20316.63
607.4518, 20094.36
607.9339, 19919.58
608.4160, 19776.65
608.8981, 19638.67
609.3802, 19492.53
609.8624, 19363.38
610.3445, 19279.15
610.8266, 19222.16
611.3087, 19160.90
611.7908, 19051.95
612.2729, 18970.59
612.7551, 18959.40
613.2372, 19008.07
613.7193, 19038.72
614.2014, 19035.73
614.6835, 19030.51
615.1656, 19039.78
615.6478, 19067.96
616.1299, 19069.22
616.6120, 19042.46
617.0941, 18990.80
617.5762, 18902.06
618.0583, 18782.45
618.5405, 18697.00
619.0226, 18665.09
619.5047, 18640.46
619.9868, 18550.21
620.4689, 18421.20
620.9510, 18315.61
621.4332, 18271.74
621.9153, 18250.15
622.3974, 18220.98
622.8795, 18190.80
623.3616, 18186.04
623.8438, 18238.78
624.3259, 18298.78
624.8080, 18339.93
625.2901, 18356.53
625.7722, 18389.82
626.2543, 18453.94
626.7365, 18517.16
627.2186, 18547.05
627.7007, 18532.48
628.1828, 18562.11
628.6649, 18652.09
629.1470, 18762.74
629.6292, 18839.40
630.1113, 18885.93
630.5934, 18922.34
631.0755, 18957.17
631.5576, 18982.62
632.0397, 18979.61
632.5219, 18957.30
633.0040, 18944.44
633.4861, 18969.20
633.9682, 18996.38
634.4503, 19006.69
634.9324, 18998.71
635.4146, 18982.48
635.8967, 18943.38
636.3788, 18910.13
636.8609, 18900.57
637.3430, 18929.67
637.8251, 18941.14
638.3073, 18933.40
638.7894, 18910.36
639.2715, 18876.46
639.7536, 18831.78
640.2357, 18770.49
640.7178, 18682.18
641.2000, 18593.03
641.6821, 18553.58
642.1642, 18550.42
642.6463, 18536.60
643.1284, 18484.20
643.6105, 18415.08
644.0927, 18338.96
644.5748, 18259.23
645.0569, 18192.41
645.5390, 18151.79
646.0211, 18120.34
646.5032, 18087.47
646.9854, 18048.88
647.4675, 18025.00
647.9496, 18025.72
648.4317, 18030.01
648.9138, 18017.17
649.3959, 17981.28
649.8781, 17964.40
650.3602, 17971.57
650.8423, 17995.87
651.3244, 18040.64
651.8065, 18098.34
652.2886, 18129.12
652.7708, 18105.19
653.2529, 18066.84
653.7350, 18062.36
654.2171, 18081.79
654.6992, 18096.05
655.1813, 18077.87
655.6635, 18062.72
656.1456, 18069.46
656.6277, 18099.01
657.1098, 18136.40
657.5919, 18201.11
658.0740, 18252.56
658.5562, 18264.38
659.0383, 18220.31
659.5204, 18210.93
660.0025, 18243.05
660.4846, 18293.46
660.9667, 18339.82
661.4489, 18383.02
661.9310, 18430.56
662.4131, 18488.37
662.8952, 18537.34
663.3773, 18538.23
663.8594, 18512.60
664.3416, 18506.15
664.8237, 18542.42
665.3058, 18598.72
665.7879, 18673.86
666.2700, 18761.00
666.7521, 18837.19
667.2343, 18883.67
667.7164, 18930.48
668.1985, 18982.41
668.6806, 19039.07
669.1627, 19123.82
669.6448, 19248.15
670.1270, 19374.39
670.6091, 19473.38
671.0912, 19547.61
671.5733, 19641.99
672.0554, 19759.59
672.5375, 19880.70
673.0197, 19974.12
673.5018, 20058.75
673.9839, 20176.08
674.4660, 20348.92
674.9481, 20517.69
675.4302, 20640.40
675.9124, 20736.48
676.3945, 20836.34
676.8766, 20965.01
677.3587, 21078.19
677.8408, 21176.25
678.3229, 21253.32
678.8051, 21292.29
679.2872, 21297.43
679.7693, 21252.29
680.2514, 21139.67
680.7335, 20972.18
681.2156, 20812.14
681.6978, 20658.09
682.1799, 20523.48
682.6620, 20436.12
683.1441, 20367.30
683.6262, 20264.73
684.1083, 20125.72
684.5905, 19982.89
685.0726, 19852.85
685.5547, 19732.26
686.0368, 19617.87
686.5189, 19499.95
687.0010, 19408.85
687.4832, 19371.80
687.9653, 19350.20
688.4474, 19302.78
688.9295, 19212.01
689.4116, 19147.49
689.8937, 19121.71
690.3759, 19121.51
690.8580, 19132.05
691.3401, 19150.94
691.8222, 19148.68
692.3043, 19099.18
692.7864, 19037.90
693.2686, 19019.14
693.7507, 19033.00
694.2328, 19043.75
694.7149, 19017.50
695.1970, 18996.71
695.6791, 19016.20
696.1613, 19076.47
696.6434, 19111.24
697.1255, 19086.39
697.6076, 19059.74
698.0897, 19059.18
698.5718, 19090.79
699.0540, 19102.85
699.5361, 19087.73
700.0182, 19076.12
700.5003, 19104.81
700.9824, 19164.16
701.4645, 19207.38
701.9467, 19227.36
702.4288, 19235.88
702.9109, 19238.67
703.3930, 19239.01
703.8751, 19242.39
704.3572, 19257.05
704.8394, 19265.13
705.3215, 19256.32
705.8036, 19236.97
706.2857, 19219.47
706.7678, 19211.74
707.2499, 19194.04
707.7321, 19158.46
708.2142, 19111.79
708.6963, 19081.02
709.1784, 19068.40
709.6605, 19047.36
710.1426, 18991.88
710.6248, 18925.93
711.1069, 18918.57
711.5890, 18961.45
712.0711, 18998.10
712.5532, 18979.39
713.0353, 18947.56
713.5175, 18942.51
713.9996, 18969.03
714.4817, 18980.97
714.9638, 18954.14
715.4459, 18917.66
715.9280, 18887.62
716.4102, 18863.29
716.8923, 18849.67
717.3744, 18851.89
717.8565, 18854.91
718.3386, 18833.24
718.8207, 18791.90
719.3029, 18793.65
719.7850, 18858.69
720.2671, 18922.25
720.7492, 18887.77
721.2313, 18802.08
721.7134, 18751.44
722.1956, 18790.43
722.6777, 18829.69
723.1598, 18817.08
723.6419, 18777.97
724.1240, 18762.25
724.6061, 18791.48
725.0883, 18825.25
725.5704, 18863.05
726.0525, 18899.57
726.5346, 18913.19
727.0167, 18900.59
727.4988, 18890.39
727.9810, 18893.69
728.4631, 18908.34
728.9452, 18942.18
729.4273, 18989.09
729.9094, 19009.67
730.3915, 18938.78
730.8737, 18861.51
731.3558, 18858.58
731.8379, 18934.80
732.3200, 18989.28
732.8021, 18973.89
733.2842, 18945.82
733.7664, 18934.50
734.2485, 18943.58
734.7306, 18950.30
735.2127, 18954.15
735.6948, 18956.79
736.1769, 18954.58
736.6591, 18950.32
737.1412, 18970.12
737.6233, 19020.38
738.1054, 19065.91
738.5875, 19062.42
739.0696, 19035.49
739.5518, 19022.87
740.0339, 19042.41
740.5161, 19059.29
740.9982, 19044.56
741.4803, 19025.30
741.9624, 19041.28
742.4445, 19123.65
742.9266, 19186.33
743.4088, 19221.23
743.8909, 19231.84
744.3730, 19212.25
744.8551, 19162.32
745.3372, 19142.15
745.8193, 19183.27
746.3015, 19244.49
746.7836, 19259.07
747.2657, 19240.22
747.7478, 19227.72
748.2299, 19233.40
748.7120, 19257.72
749.1942, 19317.15
749.6763, 19401.43
750.1584, 19454.63
750.6405, 19448.61
751.1226, 19438.16
751.6047, 19437.45
752.0869, 19446.24
752.5690, 19467.10
753.0511, 19503.15
753.5332, 19526.28
754.0153, 19502.38
754.4974, 19456.16
754.9796, 19449.83
755.4617, 19482.79
755.9438, 19521.16
756.4259, 19543.94
756.9080, 19561.89
757.3901, 19581.49
757.8723, 19602.83
758.3544, 19631.59
758.8365, 19696.48
759.3186, 19744.66
759.8007, 19735.94
760.2828, 19647.97
760.7650, 19607.48
761.2471, 19622.36
761.7292, 19657.45
762.2113, 19676.48
762.6934, 19685.58
763.1755, 19705.97
763.6577, 19743.36
764.1398, 19778.57
764.6219, 19796.24
765.1040, 19803.30
765.5861, 19806.69
766.0682, 19792.50
766.5504, 19800.36
767.0325, 19867.42
767.5146, 19942.61
767.9967, 19958.93
768.4788, 19892.60
768.9609, 19863.40
769.4431, 19895.92
769.9252, 19958.64
770.4073, 20002.08
770.8894, 20030.17
771.3715, 20060.65
771.8536, 20111.01
772.3358, 20148.12
772.8179, 20126.28
773.3000, 20072.41
773.7821, 20039.75
774.2642, 20056.62
774.7463, 20083.28
775.2285, 20112.40
775.7106, 20143.87
776.1927, 20175.92
776.6748, 20205.43
777.1569, 20249.66
777.6390, 20325.54
778.1212, 20410.50
778.6033, 20430.34
779.0854, 20397.71
779.5675, 20385.66
780.0496, 20452.00
780.5317, 20541.01
781.0139, 20608.81
781.4960, 20658.36
781.9781, 20708.27
782.4602, 20765.79
782.9423, 20823.00
783.4244, 20878.38
783.9066, 20931.87
784.3887, 20979.05
784.8708, 21013.72
785.3529, 21064.33
785.8350, 21156.39
786.3171, 21275.47
786.7993, 21381.66
787.2814, 21473.50
787.7635, 21539.69
788.2456, 21538.68
788.7277, 21533.85
789.2098, 21596.92
789.6920, 21735.08
790.1741, 21827.07
790.6562, 21812.89
791.1383, 21774.07
791.6204, 21750.74
792.1025, 21747.90
792.5847, 21693.64
793.0668, 21578.75
793.5489, 21454.53
794.0310, 21366.09
794.5131, 21300.44
794.9952, 21220.95
795.4774, 21124.52
795.9595, 21029.05
796.4416, 20938.64
796.9237, 20859.93
797.4058, 20803.57
797.8879, 20778.14
798.3701, 20744.66
798.8522, 20702.18
799.3343, 20647.12
799.8164, 20567.79
800.2985, 20455.30
800.7806, 20398.20
801.2628, 20407.99
801.7449, 20422.98
802.2270, 20371.33
802.7091, 20281.58
803.1912, 20200.91
803.6733, 20132.32
804.1555, 20104.78
804.6376, 20189.58
805.1197, 20292.86
805.6018, 20326.24
806.0839, 20221.08
806.5660, 20149.79
807.0482, 20114.85
807.5303, 20110.78
808.0124, 20147.27
808.4945, 20224.35
808.9766, 20258.60
809.4587, 20236.21
809.9409, 20194.20
810.4230, 20157.75
810.9051, 20133.59
811.3872, 20137.00
811.8693, 20185.13
812.3514, 20223.72
812.8336, 20231.32
813.3157, 20217.02
813.7978, 20187.86
814.2799, 20120.76
814.7620, 20095.53
815.2441, 20128.56
815.7263, 20181.29
816.2084, 20202.67
816.6905, 20197.53
817.1726, 20195.27
817.6547, 20200.33
818.1368, 20214.25
818.6190, 20252.75
819.1011, 20295.94
819.5832, 20316.67
820.0653, 20296.43
820.5474, 20270.53
821.0295, 20239.79
821.5117, 20210.61
821.9938, 20188.51
822.4759, 20172.09
822.9580, 20171.54
823.4401, 20192.30
823.9222, 20218.23
824.4044, 20231.62
824.8865, 20231.31
825.3686, 20208.28
825.8507, 20144.80
826.3328, 20097.87
826.8149, 20117.63
827.2971, 20172.41
827.7792, 20221.61
828.2613, 20264.34
828.7434, 20291.04
829.2255, 20295.65
829.7076, 20290.66
830.1898, 20296.69
830.6719, 20313.64
831.1540, 20307.28
831.6361, 20259.81
832.1182, 20225.61
832.6003, 20288.64
833.0825, 20405.53
833.5646, 20508.10
834.0467, 20591.52
834.5288, 20628.86
835.0109, 20569.31
835.4930, 20476.46
835.9752, 20437.16
836.4573, 20473.44
836.9394, 20504.96
837.4215, 20528.31
837.9036, 20535.91
838.3857, 20501.14
838.8679, 20438.14
839.3500, 20408.71
839.8321, 20437.63
840.3142, 20471.54
840.7963, 20464.81
841.2784, 20438.85
841.7606, 20420.04
842.2427, 20405.40
842.7248, 20414.01
843.2069, 20466.02
843.6890, 20523.22
844.1711, 20527.08
844.6533, 20472.72
845.1354, 20473.20
845.6175, 20556.52
846.0996, 20646.29
846.5817, 20641.71
847.0638, 20582.14
847.5460, 20534.68
848.0281, 20513.89
848.5102, 20510.88
848.9923, 20526.11
849.4744, 20555.67
849.9565, 20597.78
850.4387, 20667.98
850.9208, 20708.98
851.4029, 20713.48
851.8850, 20699.67
852.3671, 20681.19
852.8492, 20661.59
853.3314, 20656.39
853.8135, 20670.24
854.2956, 20686.28
854.7777, 20684.96
855.2598, 20682.37
855.7419, 20696.89
856.2241, 20745.19
856.7062, 20778.99
857.1883, 20783.98
857.6704, 20787.54
858.1525, 20819.39
858.6346, 20881.00
859.1168, 20918.92
859.5989, 20929.18
860.0810, 20922.16
860.5631, 20887.10
861.0452, 20850.15
861.5273, 20853.42
862.0095, 20910.20
862.4916, 20962.90
862.9737, 20984.49
863.4558, 20997.86
863.9379, 21019.43
864.4200, 21053.50
864.9022, 21072.20
865.3843, 21071.26
865.8664, 21071.66
866.3485, 21098.30
866.8306, 21138.63
867.3127, 21154.37
867.7949, 21143.81
868.2770, 21148.19
868.7591, 21212.18
869.2412, 21286.44
869.7233, 21339.07
870.2054, 21366.05
870.6876, 21372.08
871.1697, 21347.65
871.6518, 21320.83
872.1339, 21299.26
872.6160, 21286.91
873.0981, 21320.45
873.5803, 21398.45
874.0624, 21479.12
874.5445, 21544.94
875.0266, 21593.22
875.5087, 21613.42
875.9908, 21608.22
876.4730, 21611.60
876.9551, 21632.97
877.4372, 21663.39
877.9193, 21705.50
878.4014, 21755.09
878.8835, 21783.57
879.3657, 21790.35
879.8478, 21798.72
880.3299, 21832.66
880.8120, 21867.43
881.2941, 21855.12
881.7763, 21811.27
882.2584, 21789.46
882.7405, 21844.82
883.2227, 21889.25
883.7048, 21879.51
884.1869, 21837.09
884.6690, 21825.37
885.1511, 21850.08
885.6332, 21878.72
886.1154, 21908.98
886.5975, 21926.57
887.0796, 21887.97
887.5617, 21814.33
888.0438, 21763.42
888.5259, 21779.80
889.0081, 21802.16
889.4902, 21803.96
889.9723, 21793.71
890.4544, 21788.43
890.9365, 21792.78
891.4186, 21790.25
891.9008, 21776.10
892.3829, 21758.88
892.8650, 21754.49
893.3471, 21758.74
893.8292, 21757.23
894.3113, 21746.99
894.7935, 21728.33
895.2756, 21686.96
895.7577, 21644.31
896.2398, 21625.55
896.7219, 21652.48
897.2040, 21672.89
897.6862, 21684.27
898.1683, 21693.22
898.6504, 21708.63
899.1325, 21728.63
899.6146, 21738.99
900.0967, 21737.84
900.5789, 21732.09
901.0610, 21721.61
901.5431, 21712.92
902.0252, 21715.45
902.5073, 21735.24
902.9894, 21739.88
903.4716, 21714.88
903.9537, 21689.56
904.4358, 21676.87
904.9179, 21677.25
905.4000, 21710.09
905.8821, 21775.57
906.3643, 21819.39
906.8464, 21780.64
907.3285, 21715.67
907.8106, 21685.54
908.2927, 21689.95
908.7748, 21693.01
909.2570, 21673.69
909.7391, 21664.98
910.2212, 21683.78
910.7033, 21721.43
911.1854, 21728.16
911.6675, 21702.70
912.1497, 21690.75
912.6318, 21722.45
913.1139, 21768.15
913.5960, 21793.23
914.0781, 21801.81
914.5602, 21804.15
915.0424, 21796.44
915.5245, 21792.23
916.0066, 21803.78
916.4887, 21816.21
916.9708, 21790.13
917.4529, 21717.71
917.9351, 21699.82
918.4172, 21772.97
918.8993, 21861.58
919.3814, 21854.85
919.8635, 21796.94
920.3456, 21763.32
920.8278, 21787.54
921.3099, 21808.99
921.7920, 21803.39
922.2741, 21791.81
922.7562, 21791.50
923.2383, 21803.40
923.7205, 21824.69
924.2026, 21857.37
924.6847, 21886.74
925.1668, 21903.28
925.6489, 21905.20
926.1310, 21876.44
926.6132, 21813.86
927.0953, 21784.14
927.5774, 21857.18
928.0595, 21930.97
928.5416, 21946.82
929.0237, 21905.02
929.5059, 21880.60
929.9880, 21872.81
930.4701, 21886.46
930.9522, 21948.01
931.4343, 22020.20
931.9164, 22029.59
932.3986, 21990.45
932.8807, 21958.16
933.3628, 21966.69
933.8449, 21976.48
934.3270, 21967.73
934.8091, 21950.81
935.2913, 21952.09
935.7734, 21973.77
936.2555, 21999.55
936.7376, 22025.42
937.2197, 22053.82
937.7018, 22091.83
938.1840, 22135.16
938.6661, 22175.30
939.1482, 22214.38
939.6303, 22242.76
940.1124, 22252.64
940.5945, 22253.28
941.0767, 22247.96
941.5588, 22228.47
942.0409, 22255.89
942.5230, 22340.99
943.0051, 22430.46
943.4872, 22483.17
943.9694, 22501.40
944.4515, 22474.72
944.9336, 22399.16
945.4157, 22349.28
945.8978, 22361.82
946.3799, 22404.72
946.8621, 22470.97
947.3442, 22558.64
947.8263, 22599.57
948.3084, 22588.09
948.7905, 22595.65
949.2726, 22702.35
949.7548, 22827.82
950.2369, 22839.18
950.7190, 22767.94
951.2011, 22717.15
951.6832, 22726.85
952.1653, 22762.34
952.6475, 22822.90
953.1296, 22897.31
953.6117, 22965.82
954.0938, 23029.35
954.5759, 23066.33
955.0580, 23064.48
955.5402, 23056.67
956.0223, 23074.34
956.5044, 23114.18
956.9865, 23174.02
957.4686, 23264.37
957.9507, 23348.16
958.4329, 23435.67
958.9150, 23498.33
959.3971, 23495.55
959.8792, 23425.00
960.3613, 23420.56
960.8434, 23486.99
961.3256, 23585.01
961.8077, 23711.97
962.2898, 23835.48
962.7719, 23912.54
963.2540, 23944.01
963.7361, 24004.67
964.2183, 24137.84
964.7004, 24258.44
965.1825, 24328.60
965.6646, 24368.57
966.1467, 24450.31
966.6288, 24569.49
967.1110, 24697.05
967.5931, 24821.44
968.0752, 24948.87
968.5573, 25083.65
969.0394, 25225.02
969.5215, 25374.35
970.0037, 25541.63
970.4858, 25689.00
970.9679, 25784.70
971.4500, 25908.39
971.9321, 26186.16
972.4142, 26580.67
972.8964, 26931.34
973.3785, 27210.12
973.8606, 27516.88
974.3427, 27926.64
974.8248, 28384.63
975.3069, 28833.63
975.7891, 29261.29
976.2712, 29787.54
976.7533, 30435.12
977.2354, 31106.83
977.7175, 31734.30
978.1996, 32361.65
978.6818, 33110.37
979.1639, 33967.05
979.6460, 34878.34
980.1281, 35832.92
980.6102, 36820.57
981.0923, 37831.27
981.5745, 38871.10
982.0566, 39982.49
982.5387, 41183.25
983.0208, 42350.64
983.5029, 43490.16
983.9850, 44512.05
984.4672, 45401.66
984.9493, 46078.32
985.4314, 46387.11
985.9135, 46242.36
986.3956, 45940.34
986.8777, 45477.09
987.3599, 44958.57
987.8420, 44409.57
988.3241, 43829.46
988.8062, 43358.95
989.2883, 42997.39
989.7704, 42809.89
990.2526, 42838.14
990.7347, 43064.98
991.2168, 43472.71
991.6989, 44062.06
992.1810, 44841.49
992.6631, 45864.52
993.1453, 47010.34
993.6274, 48250.05
994.1095, 49593.72
994.5916, 51081.26
995.0737, 52684.01
995.5558, 54357.24
996.0380, 56126.84
996.5201, 57780.04
997.0022, 59251.59
997.4843, 60476.57
997.9664, 61377.43
998.4485, 62013.23
998.9307, 62152.98
999.4128, 61769.43
999.8949, 60974.88
1000.377, 59738.52
1000.859, 58188.25
1001.341, 56537.56
1001.823, 54814.74
1002.305, 53121.19
1002.788, 51451.59
1003.270, 49863.70
1003.752, 48363.11
1004.234, 46954.40
1004.716, 45596.98
1005.198, 44290.56
1005.680, 43163.44
1006.162, 42293.98
1006.645, 41555.27
1007.127, 40810.31
1007.609, 40105.10
1008.091, 39522.06
1008.573, 39107.40
1009.055, 38755.67
1009.537, 38481.49
1010.019, 38224.98
1010.501, 37978.48
1010.984, 37729.36
1011.466, 37322.57
1011.948, 36760.84
1012.430, 36090.98
1012.912, 35275.34
1013.394, 34424.93
1013.876, 33588.50
1014.358, 32781.88
1014.841, 32050.73
1015.323, 31395.96
1015.805, 30793.10
1016.287, 30230.60
1016.769, 29726.86
1017.251, 29347.75
1017.733, 29051.46
1018.215, 28741.05
1018.697, 28378.38
1019.180, 28052.13
1019.662, 27805.35
1020.144, 27605.14
1020.626, 27435.12
1021.108, 27299.63
1021.590, 27136.67
1022.072, 26944.70
1022.554, 26761.87
1023.037, 26620.04
1023.519, 26496.24
1024.001, 26373.52
1024.483, 26249.31
1024.965, 26111.05
1025.447, 25921.57
1025.929, 25777.62
1026.411, 25714.41
1026.893, 25675.83
1027.376, 25552.10
1027.858, 25366.69
1028.340, 25214.48
1028.822, 25116.13
1029.304, 25037.97
1029.786, 24975.34
1030.268, 24911.96
1030.750, 24831.59
1031.233, 24732.50
1031.715, 24639.20
1032.197, 24552.77
1032.679, 24475.04
1033.161, 24409.51
1033.643, 24352.37
1034.125, 24301.01
1034.607, 24252.20
1035.089, 24197.76
1035.572, 24120.14
1036.054, 24056.33
1036.536, 24015.62
1037.018, 23986.44
1037.500, 23951.48
1037.982, 23912.56
1038.464, 23886.46
1038.946, 23875.59
1039.428, 23871.90
1039.911, 23885.48
1040.393, 23891.15
1040.875, 23865.24
1041.357, 23806.35
1041.839, 23741.67
1042.321, 23663.74
1042.803, 23612.09
1043.285, 23610.66
1043.768, 23639.11
1044.250, 23677.03
1044.732, 23714.53
1045.214, 23729.81
1045.696, 23692.10
1046.178, 23663.35
1046.660, 23653.97
1047.142, 23657.98
1047.625, 23677.87
1048.107, 23711.20
1048.589, 23710.98
1049.071, 23674.55
1049.553, 23641.91
1050.035, 23646.61
1050.517, 23663.61
1050.999, 23684.21
1051.481, 23702.74
1051.964, 23684.81
1052.446, 23611.46
1052.928, 23564.70
1053.410, 23569.96
1053.892, 23605.47
1054.374, 23660.58
1054.856, 23713.09
1055.338, 23711.99
1055.820, 23613.91
1056.303, 23548.99
1056.785, 23576.70
1057.267, 23622.27
1057.749, 23641.35
1058.231, 23635.77
1058.713, 23635.15
1059.195, 23638.92
1059.677, 23639.64
1060.160, 23631.97
1060.642, 23620.38
1061.124, 23600.77
1061.606, 23580.57
1062.088, 23577.90
1062.570, 23594.43
1063.052, 23627.18
1063.534, 23682.22
1064.016, 23731.71
1064.499, 23736.41
1064.981, 23716.40
1065.463, 23701.61
1065.945, 23695.84
1066.427, 23697.04
1066.909, 23701.92
1067.391, 23718.69
1067.873, 23758.68
1068.355, 23809.53
1068.838, 23820.19
1069.320, 23796.74
1069.802, 23773.87
1070.284, 23769.01
1070.766, 23761.40
1071.248, 23709.94
1071.730, 23665.44
1072.212, 23693.61
1072.695, 23825.14
1073.177, 23911.01
1073.659, 23947.96
1074.141, 23965.93
1074.623, 23984.11
1075.105, 24000.52
1075.587, 24001.30
1076.069, 23994.69
1076.552, 24023.23
1077.034, 24124.21
1077.516, 24217.26
1077.998, 24290.39
1078.480, 24349.26
1078.962, 24397.49
1079.444, 24440.17
1079.926, 24493.65
1080.408, 24561.99
1080.891, 24628.64
1081.373, 24664.12
1081.855, 24715.09
1082.337, 24814.84
1082.819, 24957.50
1083.301, 25085.13
1083.783, 25197.65
1084.265, 25290.50
1084.747, 25383.69
1085.230, 25425.60
1085.712, 25323.40
1086.194, 25153.58
1086.676, 25042.22
1087.158, 25049.99
1087.640, 25000.44
1088.122, 24877.24
1088.604, 24746.01
1089.087, 24668.91
1089.569, 24621.46
1090.051, 24553.70
1090.533, 24469.80
1091.015, 24408.04
1091.497, 24411.99
1091.979, 24402.60
1092.461, 24356.63
1092.943, 24293.56
1093.426, 24245.13
1093.908, 24211.54
1094.390, 24194.79
1094.872, 24196.17
1095.354, 24209.02
1095.836, 24255.12
1096.318, 24288.32
1096.800, 24267.68
1097.283, 24198.25
1097.765, 24148.00
1098.247, 24115.84
1098.729, 24127.49
1099.211, 24226.69
1099.693, 24324.10
1100.175, 24302.32
1100.657, 24221.79
1101.140, 24179.45
1101.622, 24225.97
1102.104, 24234.10
1102.586, 24188.77
1103.068, 24149.29
1103.550, 24177.31
1104.032, 24240.00
1104.514, 24272.52
1104.996, 24278.06
1105.479, 24280.57
1105.961, 24297.85
1106.443, 24299.77
1106.925, 24270.79
1107.407, 24234.82
1107.889, 24228.50
1108.371, 24249.38
1108.853, 24291.60
1109.335, 24356.88
1109.818, 24412.85
1110.300, 24436.23
1110.782, 24446.74
1111.264, 24450.75
1111.746, 24451.85
1112.228, 24468.84
1112.710, 24502.06
1113.192, 24546.53
1113.675, 24608.43
1114.157, 24660.98
1114.639, 24645.89
1115.121, 24621.56
1115.603, 24670.99
1116.085, 24842.04
1116.567, 24925.10
1117.049, 24893.64
1117.531, 24880.19
1118.014, 24990.19
1118.496, 25159.17
1118.978, 25274.34
1119.460, 25359.64
1119.942, 25478.85
1120.424, 25671.44
1120.906, 25871.06
1121.388, 26064.68
1121.870, 26276.82
1122.353, 26535.56
1122.835, 26834.65
1123.317, 27149.50
1123.799, 27482.86
1124.281, 27858.94
1124.763, 28311.80
1125.245, 28780.97
1125.727, 29243.30
1126.210, 29705.38
1126.692, 30245.68
1127.174, 30833.12
1127.656, 31179.09
1128.138, 31212.42
1128.620, 31039.08
1129.102, 30632.02
1129.584, 30126.53
1130.067, 29575.91
1130.549, 28998.30
1131.031, 28623.85
1131.513, 28461.90
1131.995, 28346.38
1132.477, 28194.80
1132.959, 28089.12
1133.441, 28108.11
1133.923, 28230.54
1134.406, 28439.68
1134.888, 28774.72
1135.370, 29058.57
1135.852, 29278.59
1136.334, 29491.21
1136.816, 29793.30
1137.298, 30080.10
1137.780, 30195.20
1138.262, 30151.22
1138.745, 29983.94
1139.227, 29652.92
1139.709, 29251.59
1140.191, 28764.46
1140.673, 28257.47
1141.155, 27796.72
1141.637, 27379.93
1142.119, 27021.81
1142.602, 26715.54
1143.084, 26431.08
1143.566, 26109.70
1144.048, 25864.69
1144.530, 25741.89
1145.012, 25690.44
1145.494, 25627.01
1145.976, 25546.85
1146.458, 25409.75
1146.941, 25197.16
1147.423, 25028.15
1147.905, 25016.21
1148.387, 25022.28
1148.869, 24953.97
1149.351, 24833.28
1149.833, 24791.00
1150.315, 24821.96
1150.797, 24856.45
1151.280, 24881.75
1151.762, 24878.50
1152.244, 24790.07
1152.726, 24695.19
1153.208, 24681.89
1153.690, 24762.66
1154.172, 24787.01
1154.654, 24752.62
1155.137, 24716.46
1155.619, 24718.22
1156.101, 24724.50
1156.583, 24693.39
1157.065, 24647.19
1157.547, 24628.17
1158.029, 24645.48
1158.511, 24670.22
1158.994, 24704.01
1159.476, 24733.38
1159.958, 24748.96
1160.440, 24752.41
1160.922, 24735.32
1161.404, 24706.47
1161.886, 24701.33
1162.368, 24748.27
1162.850, 24763.66
1163.333, 24727.51
1163.815, 24685.63
1164.297, 24701.75
1164.779, 24744.16
1165.261, 24757.01
1165.743, 24737.41
1166.225, 24721.88
1166.707, 24721.85
1167.189, 24722.00
1167.672, 24716.78
1168.154, 24713.23
1168.636, 24731.71
1169.118, 24760.04
1169.600, 24766.03
1170.082, 24739.15
1170.564, 24727.94
1171.046, 24768.31
1171.529, 24802.36
1172.011, 24809.09
1172.493, 24793.27
1172.975, 24760.54
1173.457, 24716.84
1173.939, 24678.87
1174.421, 24647.27
1174.903, 24635.51
1175.385, 24655.80
1175.868, 24693.69
1176.350, 24751.35
1176.832, 24820.66
1177.314, 24831.00
1177.796, 24795.42
1178.278, 24784.66
1178.760, 24873.92
1179.242, 24935.28
1179.724, 24875.54
1180.207, 24790.31
1180.689, 24770.64
1181.171, 24815.15
1181.653, 24834.30
1182.135, 24827.92
1182.617, 24805.53
1183.099, 24735.96
1183.581, 24692.79
1184.064, 24737.34
1184.546, 24821.16
1185.028, 24876.29
1185.510, 24902.54
1185.992, 24919.95
1186.474, 24930.01
1186.956, 24929.08
1187.438, 24884.22
1187.921, 24856.95
1188.403, 24926.61
1188.885, 25037.99
1189.367, 25035.96
1189.849, 24910.27
1190.331, 24847.46
1190.813, 24880.95
1191.295, 24926.70
1191.777, 24905.27
1192.260, 24873.06
1192.742, 24882.28
1193.224, 24924.38
1193.706, 24929.99
1194.188, 24891.88
1194.670, 24900.76
1195.152, 24990.72
1195.634, 25078.70
1196.116, 25075.69
1196.599, 25036.41
1197.081, 25010.56
1197.563, 25001.42
1198.045, 24988.44
1198.527, 24969.80
1199.009, 24965.98
1199.491, 24991.59
1199.973, 25017.06
1200.456, 24998.72
1200.938, 24969.24
1201.420, 24973.38
1201.902, 25020.82
1202.384, 25040.06
1202.866, 25027.45
1203.348, 25014.19
1203.830, 25012.78
1204.313, 25021.95
1204.795, 25052.22
1205.277, 25087.16
1205.759, 25101.96
1206.241, 25091.90
1206.723, 25064.97
1207.205, 25014.15
1207.687, 24992.88
1208.169, 25076.36
1208.651, 25169.06
1209.134, 25135.19
1209.616, 25038.80
1210.098, 25012.51
1210.580, 25102.24
1211.062, 25153.89
1211.544, 25160.74
1212.026, 25154.35
1212.508, 25143.87
1212.991, 25145.78
1213.473, 25197.45
1213.955, 25275.15
1214.437, 25310.47
1214.919, 25292.04
1215.401, 25253.66
1215.883, 25192.85
1216.365, 25139.80
1216.848, 25123.49
1217.330, 25126.24
1217.812, 25128.94
1218.294, 25133.38
1218.776, 25150.35
1219.258, 25181.51
1219.740, 25224.45
1220.222, 25284.02
1220.704, 25327.87
1221.187, 25301.63
1221.669, 25258.18
1222.151, 25254.56
1222.633, 25289.94
1223.115, 25330.23
1223.597, 25384.03
1224.079, 25389.19
1224.561, 25322.37
1225.043, 25258.75
1225.526, 25292.90
1226.008, 25364.86
1226.490, 25424.61
1226.972, 25462.88
1227.454, 25448.86
1227.936, 25370.22
1228.418, 25301.85
1228.900, 25258.36
1229.383, 25246.14
1229.865, 25299.29
1230.347, 25369.49
1230.829, 25405.04
1231.311, 25401.28
1231.793, 25386.48
1232.275, 25357.56
1232.757, 25342.81
1233.240, 25355.69
1233.722, 25371.78
1234.204, 25360.73
1234.686, 25341.80
1235.168, 25332.22
1235.650, 25332.96
1236.132, 25360.52
1236.614, 25417.42
1237.096, 25463.70
1237.579, 25479.26
1238.061, 25490.05
1238.543, 25533.91
1239.025, 25578.30
1239.507, 25581.87
1239.989, 25543.64
1240.471, 25511.19
1240.953, 25484.59
1241.436, 25473.25
1241.918, 25489.25
1242.400, 25508.06
1242.882, 25511.71
1243.364, 25505.81
1243.846, 25492.61
1244.328, 25471.14
1244.810, 25477.57
1245.292, 25511.12
1245.775, 25543.96
1246.257, 25571.73
1246.739, 25581.52
1247.221, 25542.59
1247.703, 25497.31
1248.185, 25490.22
1248.667, 25522.29
1249.149, 25568.97
1249.631, 25626.07
1250.114, 25649.17
1250.596, 25563.35
1251.078, 25500.45
1251.560, 25559.19
1252.042, 25647.92
1252.524, 25670.42
1253.006, 25631.59
1253.488, 25646.60
1253.971, 25707.74
1254.453, 25754.08
1254.935, 25733.06
1255.417, 25716.46
1255.899, 25735.17
1256.381, 25765.38
1256.863, 25791.20
1257.345, 25810.43
1257.828, 25801.10
1258.310, 25768.67
1258.792, 25746.88
1259.274, 25770.82
1259.756, 25780.55
1260.238, 25751.36
1260.720, 25719.50
1261.202, 25727.29
1261.684, 25762.25
1262.167, 25783.76
1262.649, 25792.87
1263.131, 25802.90
1263.613, 25847.57
1264.095, 25842.55
1264.577, 25748.47
1265.059, 25659.49
1265.541, 25699.71
1266.023, 25809.94
1266.506, 25873.67
1266.988, 25890.87
1267.470, 25893.31
1267.952, 25885.91
1268.434, 25867.05
1268.916, 25830.96
1269.398, 25800.18
1269.880, 25808.61
1270.363, 25831.12
1270.845, 25817.98
1271.327, 25780.96
1271.809, 25793.41
1272.291, 25886.84
1272.773, 25948.88
1273.255, 25961.98
1273.737, 25963.18
1274.219, 25999.29
1274.702, 26034.06
1275.184, 26009.44
1275.666, 25948.08
1276.148, 25957.12
1276.630, 26061.63
1277.112, 26094.29
1277.594, 26027.54
1278.076, 25953.97
1278.558, 25950.66
1279.041, 25976.29
1279.523, 26018.70
1280.005, 26059.42
1280.487, 26042.23
1280.969, 25965.32
1281.451, 25953.24
1281.933, 26023.57
1282.415, 26091.72
1282.898, 26091.08
1283.380, 26078.82
1283.862, 26095.04
1284.344, 26116.69
1284.826, 26084.64
1285.308, 26011.28
1285.790, 25983.14
1286.272, 26009.34
1286.755, 26057.42
1287.237, 26163.58
1287.719, 26214.39
1288.201, 26156.35
1288.683, 26051.82
1289.165, 25999.89
1289.647, 25990.13
1290.129, 26001.06
1290.611, 26029.11
1291.094, 26055.94
1291.576, 26077.80
1292.058, 26092.49
1292.540, 26096.14
1293.022, 26099.81
1293.504, 26127.06
1293.986, 26160.41
1294.468, 26170.52
1294.950, 26156.16
1295.433, 26134.04
1295.915, 26090.50
1296.397, 26093.60
1296.879, 26166.44
1297.361, 26243.77
1297.843, 26246.27
1298.325, 26218.57
1298.807, 26208.09
1299.290, 26213.87
1299.772, 26197.97
1300.254, 26153.66
1300.736, 26149.88
1301.218, 26202.33
1301.700, 26259.71
1302.182, 26278.70
1302.664, 26283.73
1303.146, 26285.63
1303.629, 26289.31
1304.111, 26314.46
1304.593, 26356.90
1305.075, 26354.21
1305.557, 26296.44
1306.039, 26250.04
1306.521, 26256.16
1307.003, 26286.40
1307.485, 26341.02
1307.968, 26395.63
1308.450, 26391.06
1308.932, 26351.73
1309.414, 26367.08
1309.896, 26443.66
1310.378, 26481.58
1310.860, 26400.82
1311.342, 26340.39
1311.825, 26325.31
1312.307, 26344.40
1312.789, 26405.76
1313.271, 26478.73
1313.753, 26514.00
1314.235, 26509.15
1314.717, 26488.49
1315.199, 26445.96
1315.682, 26421.16
1316.164, 26421.25
1316.646, 26438.82
1317.128, 26483.35
1317.610, 26527.42
1318.092, 26549.54
##END=



