##NAMES=Hydroxyapophyllite-(K)
##RRUFFID=R110121
##IDEAL CHEMISTRY=KCa_4_Si_8_O_20_(OH)&#183;8H_2_O
##LOCALITY=Kandivali quarry, Malad (near Poona), Marashtra State, India
##OWNER=RRUFF
##SOURCE=Marcus Origlieri
##DESCRIPTION=White to colorless prismatic crystals on a basalt matrix
##STATUS=The identification of this mineral has been confirmed by single-crystal X-ray diffraction.
##URL=rruff.info/R110121
178.8666, 138.2144
179.3488, 137.0624
179.8309, 136.3845
180.3130, 136.2574
180.7951, 136.9182
181.2772, 137.6646
181.7593, 138.4408
182.2415, 139.3206
182.7236, 140.4726
183.2057, 141.8993
183.6878, 143.3052
184.1699, 144.2378
184.6520, 144.4672
185.1342, 144.5966
185.6163, 144.9405
186.0984, 145.0596
186.5805, 144.3311
187.0626, 142.5335
187.5447, 140.2884
188.0269, 138.5799
188.5090, 137.3806
188.9911, 136.6037
189.4732, 136.2855
189.9553, 136.3750
190.4374, 136.8591
190.9196, 137.8370
191.4017, 138.9975
191.8838, 139.8300
192.3659, 140.2896
192.8480, 140.9369
193.3301, 142.0006
193.8123, 143.4520
194.2944, 145.2500
194.7765, 147.6031
195.2586, 150.0336
195.7407, 151.9593
196.2228, 153.3652
196.7050, 154.8575
197.1871, 157.0108
197.6692, 159.7864
198.1513, 162.3100
198.6334, 164.3800
199.1155, 166.1382
199.5977, 167.3422
200.0798, 168.0720
200.5619, 169.2638
201.0440, 172.3814
201.5261, 177.9650
202.0082, 181.9624
202.4904, 182.8039
202.9725, 182.6445
203.4546, 182.2977
203.9367, 181.9429
204.4188, 181.5118
204.9009, 180.8751
205.3831, 179.9063
205.8652, 179.1285
206.3473, 178.6205
206.8294, 178.2405
207.3115, 178.0989
207.7936, 178.1212
208.2758, 177.9469
208.7579, 177.0483
209.2400, 175.1319
209.7221, 173.0641
210.2042, 170.6718
210.6863, 168.2830
211.1685, 166.2440
211.6506, 164.5636
212.1327, 162.8292
212.6148, 160.3668
213.0969, 156.5064
213.5790, 153.3932
214.0612, 151.6517
214.5433, 150.2206
215.0254, 148.1338
215.5075, 145.2122
215.9896, 142.0596
216.4717, 139.5225
216.9539, 137.7194
217.4360, 136.4152
217.9181, 135.9046
218.4002, 135.7397
218.8823, 135.4826
219.3644, 135.0284
219.8466, 134.5381
220.3287, 134.1822
220.8108, 133.9155
221.2929, 134.0280
221.7750, 134.7759
222.2571, 135.8438
222.7393, 136.8092
223.2214, 137.5580
223.7035, 138.3570
224.1856, 139.7226
224.6677, 141.6082
225.1498, 143.1003
225.6320, 143.8357
226.1141, 144.0646
226.5962, 144.2413
227.0783, 144.5135
227.5604, 144.5004
228.0425, 143.7439
228.5247, 142.3809
229.0068, 140.7412
229.4889, 139.1725
229.9710, 137.4078
230.4531, 134.7025
230.9352, 130.6723
231.4174, 126.3577
231.8995, 122.6285
232.3816, 119.2911
232.8637, 115.8234
233.3458, 111.8929
233.8279, 107.6293
234.3101, 103.2950
234.7922, 98.64535
235.2743, 94.45910
235.7564, 91.42085
236.2385, 89.10323
236.7206, 86.60220
237.2028, 83.18237
237.6849, 79.17315
238.1670, 75.94917
238.6491, 73.81412
239.1312, 72.09913
239.6133, 70.65720
240.0955, 69.35168
240.5776, 67.90099
241.0597, 66.03169
241.5418, 63.91816
242.0239, 62.49855
242.5060, 62.40009
242.9882, 62.15709
243.4703, 61.14799
243.9524, 59.76930
244.4345, 58.62035
244.9166, 58.07636
245.3987, 57.98970
245.8809, 57.66459
246.3630, 56.80374
246.8451, 56.08372
247.3272, 55.61917
247.8093, 55.37094
248.2914, 55.33526
248.7736, 55.52959
249.2557, 55.85546
249.7378, 55.89610
250.2199, 55.16333
250.7020, 54.75648
251.1841, 54.95723
251.6663, 55.50596
252.1484, 56.09902
252.6305, 56.59267
253.1126, 57.03544
253.5947, 57.59538
254.0768, 58.38053
254.5590, 59.15886
255.0411, 60.00615
255.5232, 60.80651
256.0053, 61.37521
256.4874, 61.63475
256.9695, 61.77130
257.4517, 62.23392
257.9338, 63.46251
258.4159, 64.51326
258.8980, 65.21158
259.3801, 65.80333
259.8622, 66.55685
260.3444, 67.56338
260.8265, 68.72234
261.3086, 69.85067
261.7907, 71.04734
262.2728, 72.04098
262.7549, 72.63686
263.2371, 73.12536
263.7192, 73.78563
264.2013, 74.69447
264.6834, 75.75585
265.1655, 76.86356
265.6476, 78.15160
266.1298, 79.09556
266.6119, 79.55245
267.0940, 79.73959
267.5761, 79.88870
268.0582, 80.04025
268.5403, 80.00838
269.0225, 79.55183
269.5046, 78.56348
269.9867, 77.53275
270.4688, 76.31240
270.9509, 75.15446
271.4330, 74.40717
271.9152, 74.08169
272.3973, 73.65713
272.8794, 72.53381
273.3615, 70.65053
273.8436, 69.30169
274.3257, 68.91637
274.8079, 68.77587
275.2900, 68.29508
275.7721, 67.45829
276.2542, 66.65178
276.7363, 66.16819
277.2184, 65.99416
277.7006, 65.78299
278.1827, 65.42902
278.6648, 65.12328
279.1469, 64.97999
279.6290, 64.99972
280.1111, 65.18664
280.5933, 65.62882
281.0754, 66.21757
281.5575, 66.57937
282.0396, 66.52348
282.5217, 66.47440
283.0038, 66.66475
283.4860, 67.07925
283.9681, 67.64884
284.4502, 68.38100
284.9323, 69.22788
285.4144, 70.07806
285.8965, 70.93760
286.3787, 71.78561
286.8608, 72.56522
287.3429, 73.31092
287.8250, 74.16200
288.3071, 75.17078
288.7892, 76.30123
289.2714, 77.46886
289.7535, 78.64912
290.2356, 79.97976
290.7177, 81.49210
291.1998, 83.20183
291.6819, 85.22080
292.1641, 87.68159
292.6462, 90.25534
293.1283, 92.66989
293.6104, 94.92945
294.0925, 96.91844
294.5746, 98.46428
295.0568, 99.72137
295.5389, 101.0139
296.0210, 102.4177
296.5031, 103.7373
296.9852, 104.7376
297.4673, 105.5141
297.9495, 106.3153
298.4316, 107.2818
298.9137, 108.2917
299.3958, 109.1811
299.8779, 109.9513
300.3600, 110.5755
300.8422, 111.0307
301.3243, 111.3205
301.8064, 111.3703
302.2885, 110.7897
302.7706, 110.3255
303.2527, 111.0540
303.7349, 113.0730
304.2170, 114.9121
304.6991, 115.5896
305.1812, 115.8267
305.6633, 116.6507
306.1454, 118.3697
306.6276, 120.2193
307.1097, 121.3882
307.5918, 121.9298
308.0739, 122.8625
308.5560, 124.7291
309.0381, 126.9508
309.5203, 128.9179
310.0024, 130.6273
310.4845, 132.0382
310.9666, 133.0060
311.4487, 133.6098
311.9308, 134.1935
312.4130, 134.7048
312.8951, 135.3932
313.3772, 136.6731
313.8593, 138.4276
314.3414, 139.8148
314.8235, 140.1555
315.3057, 139.8325
315.7878, 139.8283
316.2699, 140.2580
316.7520, 140.9266
317.2341, 141.7174
317.7162, 142.6229
318.1984, 143.6722
318.6805, 145.1761
319.1626, 146.6888
319.6447, 147.4321
320.1268, 147.2931
320.6089, 146.9557
321.0911, 146.8080
321.5732, 146.6915
322.0553, 146.3959
322.5374, 145.9141
323.0195, 145.1834
323.5016, 144.0896
323.9838, 142.6245
324.4659, 141.0619
324.9480, 139.5165
325.4301, 137.9085
325.9122, 136.1568
326.3943, 134.2233
326.8765, 132.2438
327.3586, 130.1837
327.8407, 128.1009
328.3228, 126.4041
328.8049, 125.3358
329.2870, 124.4881
329.7692, 123.5059
330.2513, 122.3946
330.7334, 121.1084
331.2155, 119.3202
331.6976, 117.3718
332.1797, 116.0786
332.6619, 115.5947
333.1440, 115.5753
333.6261, 116.0575
334.1082, 116.8142
334.5903, 117.2813
335.0724, 117.1082
335.5546, 116.6431
336.0367, 116.2500
336.5188, 115.9171
337.0009, 115.8346
337.4830, 116.3350
337.9651, 117.0966
338.4473, 117.5541
338.9294, 117.7515
339.4115, 117.4705
339.8936, 116.3653
340.3757, 114.5230
340.8578, 112.6550
341.3400, 111.1070
341.8221, 109.5420
342.3042, 107.4050
342.7863, 104.5853
343.2684, 101.8110
343.7505, 99.41203
344.2327, 97.31990
344.7148, 95.46900
345.1969, 93.97166
345.6790, 92.37242
346.1611, 89.88974
346.6432, 86.68242
347.1254, 83.82224
347.6075, 81.67078
348.0896, 79.97755
348.5717, 78.59106
349.0538, 77.50575
349.5359, 76.35166
350.0181, 74.64869
350.5002, 72.63710
350.9823, 71.33378
351.4644, 71.49902
351.9465, 71.79043
352.4286, 71.33089
352.9108, 70.21294
353.3929, 68.79558
353.8750, 67.08236
354.3571, 65.35722
354.8392, 64.35845
355.3214, 64.37447
355.8035, 64.34386
356.2856, 63.87214
356.7677, 63.10437
357.2498, 62.24799
357.7319, 61.33571
358.2141, 60.49058
358.6962, 59.95490
359.1783, 59.82864
359.6604, 59.37251
360.1425, 58.16268
360.6246, 56.79386
361.1068, 55.78679
361.5889, 55.19157
362.0710, 54.87024
362.5531, 54.73927
363.0352, 54.80259
363.5173, 54.88892
363.9995, 55.12887
364.4816, 55.26310
364.9637, 55.01545
365.4458, 54.55227
365.9279, 54.32518
366.4100, 54.59682
366.8922, 55.19660
367.3743, 55.56554
367.8564, 55.52116
368.3385, 55.52224
368.8206, 55.55639
369.3027, 55.69550
369.7849, 56.06903
370.2670, 56.70143
370.7491, 57.44070
371.2312, 58.10313
371.7133, 58.74720
372.1954, 59.06397
372.6776, 58.68092
373.1597, 58.30652
373.6418, 58.35702
374.1239, 58.83226
374.6060, 59.55357
375.0881, 60.43450
375.5703, 61.45683
376.0524, 62.10509
376.5345, 61.93139
377.0166, 61.90893
377.4987, 62.32288
377.9808, 63.00817
378.4630, 63.68518
378.9451, 64.22404
379.4272, 64.75700
379.9093, 65.61482
380.3914, 67.08290
380.8735, 68.41809
381.3557, 69.41251
381.8378, 70.40285
382.3199, 71.57530
382.8020, 72.99566
383.2841, 74.71141
383.7662, 76.87577
384.2484, 79.63577
384.7305, 81.86267
385.2126, 83.03602
385.6947, 84.16197
386.1768, 85.43530
386.6589, 86.90939
387.1411, 88.61154
387.6232, 90.55830
388.1053, 92.76028
388.5874, 95.27996
389.0695, 98.34444
389.5516, 101.2937
390.0338, 103.8396
390.5159, 106.3081
390.9980, 109.0594
391.4801, 112.1942
391.9622, 115.3344
392.4443, 117.9923
392.9265, 120.1111
393.4086, 122.2646
393.8907, 124.6119
394.3728, 126.9137
394.8549, 129.1016
395.3370, 131.1397
395.8192, 132.9124
396.3013, 134.2431
396.7834, 135.2569
397.2655, 136.4208
397.7476, 137.9033
398.2297, 139.0886
398.7119, 139.5597
399.1940, 139.5722
399.6761, 139.4316
400.1582, 139.2900
400.6403, 138.8458
401.1224, 137.7083
401.6046, 135.8997
402.0867, 133.9249
402.5688, 131.7773
403.0509, 129.7025
403.5330, 128.0394
404.0151, 126.7969
404.4973, 125.4861
404.9794, 123.8374
405.4615, 121.9975
405.9436, 120.2108
406.4257, 118.5193
406.9078, 116.8487
407.3900, 115.0924
407.8721, 113.3128
408.3542, 111.7680
408.8363, 110.5656
409.3184, 109.5289
409.8005, 108.5302
410.2827, 107.6045
410.7648, 106.9079
411.2469, 106.5331
411.7290, 106.3759
412.2111, 106.1677
412.6932, 105.6777
413.1754, 105.6879
413.6575, 106.7129
414.1396, 108.0978
414.6217, 109.1257
415.1038, 109.6893
415.5859, 110.1937
416.0681, 111.0354
416.5502, 112.2438
417.0323, 113.5091
417.5144, 114.6602
417.9965, 116.0293
418.4786, 117.7339
418.9608, 119.7541
419.4429, 122.0579
419.9250, 124.6302
420.4071, 127.4519
420.8892, 130.4759
421.3713, 133.6808
421.8535, 137.1364
422.3356, 141.0337
422.8177, 145.0453
423.2998, 148.7327
423.7819, 152.1609
424.2640, 155.8753
424.7462, 160.4496
425.2283, 165.9383
425.7104, 171.7503
426.1925, 178.2541
426.6746, 184.6958
427.1567, 190.7825
427.6389, 196.6891
428.1210, 202.7471
428.6031, 209.1919
429.0852, 215.5892
429.5673, 221.0769
430.0494, 225.6545
430.5316, 229.3749
431.0137, 232.6796
431.4958, 234.7188
431.9779, 234.8860
432.4600, 233.1322
432.9421, 229.6625
433.4243, 224.2160
433.9064, 217.0911
434.3885, 209.5036
434.8706, 201.4024
435.3527, 193.0176
435.8348, 183.9393
436.3170, 174.7352
436.7991, 166.3688
437.2812, 159.4129
437.7633, 152.9411
438.2454, 145.9862
438.7275, 138.6509
439.2097, 131.7936
439.6918, 125.6409
440.1739, 120.2556
440.6560, 115.9082
441.1381, 112.5926
441.6202, 109.4802
442.1024, 106.4230
442.5845, 103.4144
443.0666, 100.3615
443.5487, 97.28177
444.0308, 94.54932
444.5129, 92.49697
444.9951, 91.06908
445.4772, 89.58114
445.9593, 88.04810
446.4414, 86.45904
446.9235, 84.63726
447.4056, 82.80741
447.8878, 81.30235
448.3699, 80.23445
448.8520, 79.47493
449.3341, 78.82697
449.8162, 78.28037
450.2983, 77.90314
450.7805, 77.84731
451.2626, 77.79483
451.7447, 77.45909
452.2268, 76.97690
452.7089, 76.73508
453.1910, 77.01437
453.6732, 77.68932
454.1553, 78.23049
454.6374, 78.53962
455.1195, 78.87920
455.6016, 79.18530
456.0837, 79.59847
456.5659, 80.29325
457.0480, 81.28166
457.5301, 82.32121
458.0122, 83.08897
458.4943, 83.59826
458.9764, 84.42416
459.4586, 85.77309
459.9407, 87.16206
460.4228, 88.25075
460.9049, 89.21144
461.3870, 90.37502
461.8691, 91.93938
462.3513, 93.61404
462.8334, 94.96556
463.3155, 96.01298
463.7976, 97.26590
464.2797, 98.94594
464.7618, 100.8275
465.2440, 102.6040
465.7261, 104.2726
466.2082, 106.0423
466.6903, 107.7343
467.1724, 109.7044
467.6545, 112.6131
468.1367, 116.4358
468.6188, 120.1960
469.1009, 123.1447
469.5830, 125.4975
470.0651, 128.4388
470.5472, 131.9970
471.0294, 135.9794
471.5115, 140.3351
471.9936, 145.0796
472.4757, 150.1897
472.9578, 155.6686
473.4399, 161.7358
473.9221, 168.7107
474.4042, 176.7452
474.8863, 184.8124
475.3684, 192.8225
475.8505, 201.0214
476.3326, 209.1262
476.8148, 217.5369
477.2969, 226.9046
477.7790, 237.4879
478.2611, 249.0493
478.7432, 261.0564
479.2253, 273.6161
479.7075, 286.1874
480.1896, 299.3748
480.6717, 311.9528
481.1538, 323.5971
481.6359, 334.0578
482.1180, 342.8649
482.6002, 349.8800
483.0823, 354.9459
483.5644, 357.7271
484.0465, 358.2403
484.5286, 356.2945
485.0107, 351.3073
485.4929, 343.9117
485.9750, 334.6082
486.4571, 323.3395
486.9392, 310.9488
487.4213, 297.3795
487.9034, 283.1167
488.3856, 269.3143
488.8677, 256.0567
489.3498, 243.2053
489.8319, 230.5508
490.3140, 218.1921
490.7961, 206.9812
491.2783, 197.0181
491.7604, 187.9797
492.2425, 179.7136
492.7246, 172.2222
493.2067, 165.5269
493.6888, 159.6559
494.1710, 154.4446
494.6531, 149.7497
495.1352, 145.6389
495.6173, 141.8985
496.0994, 138.5174
496.5815, 135.4578
497.0637, 132.7936
497.5458, 130.4425
498.0279, 128.2603
498.5100, 126.1673
498.9921, 124.1729
499.4742, 122.2524
499.9564, 120.3782
500.4385, 118.6603
500.9206, 116.9513
501.4027, 115.5174
501.8848, 114.7205
502.3669, 114.4474
502.8491, 114.1132
503.3312, 113.2039
503.8133, 111.9682
504.2954, 111.1635
504.7775, 110.9179
505.2596, 110.4997
505.7418, 109.3641
506.2239, 107.9810
506.7060, 107.0185
507.1881, 106.5716
507.6702, 106.2991
508.1523, 106.0052
508.6345, 105.7832
509.1166, 105.8209
509.5987, 106.1466
510.0808, 106.5800
510.5629, 106.9887
511.0450, 107.3747
511.5272, 107.7829
512.0093, 108.1767
512.4914, 108.6338
512.9735, 109.1058
513.4556, 109.6833
513.9377, 110.5403
514.4199, 111.6980
514.9020, 112.9485
515.3841, 113.9643
515.8662, 114.6311
516.3483, 115.8366
516.8304, 118.1856
517.3126, 120.4412
517.7947, 122.0662
518.2768, 123.4352
518.7589, 125.1553
519.2410, 127.4801
519.7231, 130.0170
520.2053, 132.1547
520.6874, 133.8441
521.1695, 135.7678
521.6516, 137.8714
522.1337, 140.4418
522.6158, 143.8897
523.0980, 147.9249
523.5801, 151.7067
524.0622, 154.6084
524.5443, 157.4420
525.0264, 161.1826
525.5085, 165.6937
525.9907, 169.9176
526.4728, 173.3952
526.9549, 176.6995
527.4370, 180.7476
527.9191, 185.7160
528.4012, 190.4794
528.8834, 194.6545
529.3655, 198.8293
529.8476, 203.4780
530.3297, 208.4918
530.8118, 213.4580
531.2939, 218.1660
531.7761, 222.6488
532.2582, 226.9491
532.7403, 230.6888
533.2224, 234.9515
533.7045, 240.3888
534.1866, 245.7073
534.6688, 250.2666
535.1509, 254.0406
535.6330, 257.1908
536.1151, 259.7089
536.5972, 261.8251
537.0793, 264.3140
537.5615, 267.3920
538.0436, 269.9109
538.5257, 271.4823
539.0078, 272.3386
539.4899, 272.4913
539.9720, 271.9969
540.4542, 271.5686
540.9363, 271.8083
541.4184, 272.1943
541.9005, 271.9444
542.3826, 271.0525
542.8647, 269.9626
543.3469, 268.8651
543.8290, 267.7508
544.3111, 266.5794
544.7932, 265.3104
545.2753, 264.0945
545.7574, 262.9398
546.2396, 261.8454
546.7217, 260.7615
547.2038, 259.7213
547.6859, 258.8990
548.1680, 258.4450
548.6501, 258.2396
549.1323, 257.7326
549.6144, 256.6684
550.0965, 255.7475
550.5786, 254.7110
551.0607, 254.0708
551.5428, 254.3303
552.0250, 255.4197
552.5071, 256.7717
552.9892, 258.0810
553.4713, 259.3148
553.9534, 260.3527
554.4355, 261.1447
554.9177, 261.9638
555.3998, 262.6892
555.8819, 263.6909
556.3640, 265.5062
556.8461, 268.2380
557.3282, 270.9966
557.8104, 273.1568
558.2925, 275.3406
558.7746, 278.3758
559.2567, 282.2502
559.7388, 286.2390
560.2209, 289.9347
560.7031, 293.4468
561.1852, 297.1328
561.6673, 301.2763
562.1494, 305.2540
562.6315, 308.3673
563.1136, 311.8530
563.5958, 316.6675
564.0779, 322.7523
564.5600, 329.4658
565.0421, 336.4780
565.5242, 343.6007
566.0063, 350.0381
566.4885, 355.2334
566.9706, 361.2577
567.4527, 368.9939
567.9348, 377.4345
568.4169, 386.0608
568.8990, 394.7657
569.3812, 403.5662
569.8633, 412.0646
570.3454, 420.7830
570.8275, 430.7906
571.3096, 441.9663
571.7917, 452.6781
572.2739, 462.1971
572.7560, 471.1543
573.2381, 480.6872
573.7202, 490.8887
574.2023, 501.4180
574.6844, 512.5540
575.1666, 523.8017
575.6487, 535.4131
576.1308, 546.8602
576.6129, 556.7877
577.0950, 564.4844
577.5771, 570.8625
578.0593, 578.1233
578.5414, 587.1080
579.0235, 594.6578
579.5056, 600.0872
579.9877, 604.5088
580.4698, 608.8436
580.9520, 612.4962
581.4341, 614.1251
581.9162, 613.0258
582.3983, 609.8464
582.8804, 605.3406
583.3625, 599.4957
583.8447, 592.3896
584.3268, 584.1205
584.8089, 574.4542
585.2910, 562.9252
585.7731, 549.6608
586.2552, 536.0045
586.7374, 522.3119
587.2195, 508.0067
587.7016, 492.7768
588.1837, 476.7925
588.6658, 460.2511
589.1479, 443.2374
589.6301, 425.9507
590.1122, 408.3359
590.5943, 390.1864
591.0764, 373.8126
591.5585, 360.3827
592.0406, 347.3957
592.5228, 334.5573
593.0049, 321.6880
593.4870, 308.4027
593.9691, 294.5866
594.4512, 281.4643
594.9333, 270.3576
595.4155, 260.8861
595.8976, 251.5207
596.3797, 242.1773
596.8618, 232.9933
597.3439, 224.0303
597.8260, 215.3515
598.3082, 207.0718
598.7903, 199.1418
599.2724, 191.7427
599.7545, 184.9147
600.2366, 178.6514
600.7188, 173.0774
601.2009, 168.1291
601.6830, 163.6358
602.1651, 159.5265
602.6472, 155.6057
603.1293, 151.0663
603.6115, 145.0341
604.0936, 140.0159
604.5757, 136.7295
605.0578, 133.9184
605.5399, 130.8749
606.0220, 127.6350
606.5042, 124.5309
606.9863, 121.7963
607.4684, 119.2533
607.9505, 116.5571
608.4326, 113.7118
608.9147, 111.0837
609.3969, 108.8185
609.8790, 106.7031
610.3611, 104.4345
610.8432, 102.0369
611.3253, 100.0375
611.8074, 98.88120
612.2896, 97.72860
612.7717, 96.17178
613.2538, 94.30984
613.7359, 92.21193
614.2180, 89.93145
614.7001, 87.80376
615.1823, 86.25214
615.6644, 85.30984
616.1465, 84.23097
616.6286, 82.72437
617.1107, 81.50045
617.5928, 81.00322
618.0750, 80.71104
618.5571, 80.07311
619.0392, 78.99245
619.5213, 77.80135
620.0034, 76.69691
620.4855, 75.67645
620.9677, 74.74303
621.4498, 73.90122
621.9319, 73.05430
622.4140, 72.09150
622.8961, 71.16391
623.3782, 70.65609
623.8604, 70.75928
624.3425, 70.62413
624.8246, 69.95815
625.3067, 69.20237
625.7888, 68.54903
626.2709, 68.05998
626.7531, 67.86491
627.2352, 68.03809
627.7173, 68.28532
628.1994, 68.04011
628.6815, 67.21126
629.1636, 66.38363
629.6458, 65.55427
630.1279, 64.77737
630.6100, 64.03053
631.0921, 63.35570
631.5742, 62.81116
632.0563, 62.37502
632.5385, 62.18078
633.0206, 62.63229
633.5027, 63.31620
633.9848, 63.27214
634.4669, 62.37934
634.9490, 61.50182
635.4312, 61.29322
635.9133, 61.59291
636.3954, 61.63612
636.8775, 61.12164
637.3596, 60.74968
637.8417, 60.58469
638.3239, 60.53493
638.8060, 60.59797
639.2881, 60.72139
639.7702, 60.77333
640.2523, 60.64939
640.7344, 60.47625
641.2166, 60.56884
641.6987, 60.94870
642.1808, 61.08342
642.6629, 60.78376
643.1450, 60.35215
643.6271, 59.94965
644.1093, 59.61523
644.5914, 59.54915
645.0735, 59.94245
645.5556, 60.42235
646.0377, 60.85566
646.5198, 61.25332
647.0020, 61.65473
647.4841, 62.05209
647.9662, 62.34438
648.4483, 62.41755
648.9304, 62.31667
649.4125, 62.37019
649.8947, 62.63876
650.3768, 62.95090
650.8589, 63.28289
651.3410, 63.63971
651.8231, 63.99961
652.3052, 64.37981
652.7874, 64.87054
653.2695, 65.72282
653.7516, 66.51077
654.2337, 66.46898
654.7158, 65.82710
655.1979, 65.73647
655.6801, 66.59280
656.1622, 67.67933
656.6443, 68.21935
657.1264, 68.18195
657.6085, 68.15562
658.0906, 68.12218
658.5728, 68.12092
659.0549, 68.16520
659.5370, 68.24389
660.0191, 68.44180
660.5012, 68.70802
660.9833, 68.75163
661.4655, 68.27399
661.9476, 67.42747
662.4297, 66.68218
662.9118, 66.04686
663.3939, 65.45628
663.8760, 64.91280
664.3582, 64.38359
664.8403, 63.84777
665.3224, 63.30444
665.8045, 62.70452
666.2866, 62.09465
666.7687, 61.36979
667.2509, 60.44065
667.7330, 59.37030
668.2151, 58.23994
668.6972, 57.07808
669.1793, 55.91581
669.6614, 54.75549
670.1436, 53.60712
670.6257, 52.63021
671.1078, 51.93012
671.5899, 51.17807
672.0720, 50.24633
672.5541, 49.24392
673.0363, 48.25797
673.5184, 47.28653
674.0005, 46.24392
674.4826, 45.00426
674.9647, 43.73615
675.4468, 42.52266
675.9290, 41.41426
676.4111, 40.59163
676.8932, 40.11539
677.3753, 39.79533
677.8574, 39.43215
678.3395, 39.02800
678.8217, 38.52642
679.3038, 37.85519
679.7859, 37.17432
680.2680, 36.44209
680.7501, 35.76359
681.2322, 35.27971
681.7144, 34.97484
682.1965, 34.63827
682.6786, 34.04047
683.1607, 33.39722
683.6428, 33.16677
684.1249, 33.28485
684.6071, 33.19004
685.0892, 32.68656
685.5713, 32.00409
686.0534, 31.37002
686.5355, 30.78536
687.0176, 30.29501
687.4998, 29.86730
687.9819, 29.56410
688.4640, 29.60766
688.9461, 29.65408
689.4282, 29.22860
689.9103, 28.37336
690.3925, 27.66503
690.8746, 27.60158
691.3567, 27.93064
691.8388, 28.08962
692.3209, 28.07763
692.8030, 27.89508
693.2852, 27.45583
693.7673, 27.00691
694.2494, 26.81873
694.7315, 26.87634
695.2136, 26.90670
695.6957, 26.96870
696.1779, 26.91876
696.6600, 26.64136
697.1421, 26.26601
697.6242, 25.90565
698.1063, 25.59492
698.5884, 25.35673
699.0706, 25.22185
699.5527, 25.14899
700.0348, 25.02262
700.5169, 24.83975
700.9990, 24.59075
701.4811, 24.10735
701.9633, 23.78922
702.4454, 24.16940
702.9275, 25.01940
703.4096, 25.58170
703.8917, 25.66192
704.3738, 25.57042
704.8560, 25.34604
705.3381, 25.07253
705.8202, 24.86699
706.3023, 24.72448
706.7844, 24.51787
707.2665, 24.14175
707.7487, 23.70947
708.2308, 23.56923
708.7129, 23.79599
709.1950, 23.96334
709.6771, 23.99735
710.1592, 23.99439
710.6414, 24.13321
711.1235, 24.26576
711.6056, 23.99568
712.0877, 22.96501
712.5698, 22.22244
713.0519, 22.55845
713.5341, 23.29179
714.0162, 23.68839
714.4983, 23.68649
714.9804, 23.43520
715.4625, 22.99875
715.9446, 22.50259
716.4268, 22.20725
716.9089, 22.13323
717.3910, 22.17430
717.8731, 22.43973
718.3552, 22.66568
718.8373, 22.68664
719.3195, 22.61233
719.8016, 22.61448
720.2837, 22.73941
720.7658, 22.81020
721.2479, 22.76227
721.7300, 22.60417
722.2122, 22.22014
722.6943, 21.72052
723.1764, 21.48048
723.6585, 21.66592
724.1406, 22.05892
724.6227, 22.33990
725.1049, 22.50410
725.5870, 22.62463
726.0691, 22.76430
726.5512, 22.75372
727.0333, 22.41344
727.5154, 21.97523
727.9976, 21.66224
728.4797, 21.49439
728.9618, 21.38071
729.4439, 21.32370
729.9260, 21.27079
730.4081, 21.13437
730.8903, 20.96948
731.3724, 20.91974
731.8545, 21.02299
732.3366, 21.17884
732.8187, 21.26854
733.3008, 21.30970
733.7830, 21.56971
734.2651, 22.34412
734.7472, 22.69588
735.2293, 22.00457
735.7114, 21.15487
736.1935, 20.71319
736.6757, 20.65792
737.1578, 20.77515
737.6399, 21.12116
738.1220, 21.46373
738.6041, 21.72486
739.0862, 21.84984
739.5684, 21.64040
740.0505, 21.13742
740.5326, 20.74267
741.0147, 20.76019
741.4968, 21.05993
741.9789, 21.23083
742.4611, 21.20128
742.9432, 21.31700
743.4253, 21.76438
743.9074, 22.16566
744.3895, 22.26660
744.8716, 22.18801
745.3538, 22.16816
745.8359, 22.29493
746.3180, 22.31177
746.8001, 21.98751
747.2822, 21.58172
747.7643, 21.32374
748.2465, 21.22909
748.7286, 21.29271
749.2107, 21.51292
749.6928, 21.75331
750.1749, 21.77771
750.6570, 21.56945
751.1392, 21.50950
751.6213, 21.65179
752.1034, 21.81709
752.5855, 21.90162
753.0676, 21.99865
753.5497, 22.26865
754.0319, 22.72114
754.5140, 23.02197
754.9961, 22.97610
755.4782, 22.87656
755.9603, 22.86537
756.4424, 22.92940
756.9246, 23.06211
757.4067, 23.24760
757.8888, 23.41065
758.3709, 23.46511
758.8530, 23.47449
759.3351, 23.71757
759.8173, 24.24842
760.2994, 24.51383
760.7815, 24.25622
761.2636, 23.95749
761.7457, 24.05505
762.2278, 24.46753
762.7100, 24.78018
763.1921, 24.99019
763.6742, 25.09093
764.1563, 24.89881
764.6384, 24.74463
765.1205, 24.97879
765.6027, 25.48599
766.0848, 25.91752
766.5669, 26.11469
767.0490, 26.15809
767.5311, 26.14859
768.0132, 26.07833
768.4954, 25.84992
768.9775, 25.42438
769.4596, 25.14288
769.9417, 25.21535
770.4238, 25.45383
770.9059, 25.51168
771.3881, 25.29383
771.8702, 25.28619
772.3523, 25.79165
772.8344, 26.14021
773.3165, 25.93067
773.7986, 25.54351
774.2808, 25.42871
774.7629, 25.62961
775.2450, 25.84649
775.7271, 25.84760
776.2092, 25.78267
776.6913, 25.88135
777.1735, 26.11084
777.6556, 26.35712
778.1377, 26.59811
778.6198, 26.74781
779.1019, 26.67877
779.5840, 26.49339
780.0662, 26.74863
780.5483, 27.83327
781.0304, 28.61976
781.5125, 28.76573
781.9946, 28.87990
782.4767, 29.27446
782.9589, 29.84632
783.4410, 30.40010
783.9231, 30.91140
784.4052, 31.29345
784.8873, 31.32693
785.3694, 31.31494
785.8516, 31.60309
786.3337, 32.18561
786.8158, 33.01672
787.2979, 34.07306
787.7800, 35.11509
788.2621, 35.83678
788.7443, 36.24015
789.2264, 36.50752
789.7085, 36.60337
790.1906, 36.67632
790.6727, 36.94365
791.1548, 37.03213
791.6370, 36.52261
792.1191, 35.48072
792.6012, 34.35224
793.0833, 32.89581
793.5654, 31.73793
794.0475, 31.38594
794.5297, 31.26493
795.0118, 30.76563
795.4939, 29.91059
795.9760, 29.05742
796.4581, 28.39354
796.9402, 27.88059
797.4224, 27.53007
797.9045, 27.30183
798.3866, 26.90958
798.8687, 26.31268
799.3508, 25.72108
799.8329, 25.23638
800.3151, 24.82766
800.7972, 24.44187
801.2793, 24.06228
801.7614, 23.77033
802.2435, 23.62949
802.7256, 23.48901
803.2078, 23.24996
803.6899, 23.02597
804.1720, 22.99171
804.6541, 23.12300
805.1362, 23.14978
805.6183, 22.82230
806.1005, 22.45047
806.5826, 22.45732
807.0647, 22.64620
807.5468, 22.48499
808.0289, 21.92853
808.5110, 21.49564
808.9932, 21.57301
809.4753, 21.95866
809.9574, 22.10693
810.4395, 21.95376
810.9216, 21.86118
811.4037, 21.91398
811.8859, 21.91631
812.3680, 21.71109
812.8501, 21.42348
813.3322, 21.20844
813.8143, 21.06238
814.2964, 21.06668
814.7786, 21.42338
815.2607, 21.74003
815.7428, 21.68876
816.2249, 21.50074
816.7070, 21.57014
817.1891, 21.92037
817.6713, 22.18751
818.1534, 22.05738
818.6355, 21.72887
819.1176, 21.58159
819.5997, 21.59553
820.0818, 21.62783
820.5640, 21.65977
821.0461, 21.63684
821.5282, 21.48311
822.0103, 21.28845
822.4924, 21.34046
822.9745, 21.82239
823.4567, 22.14310
823.9388, 22.22102
824.4209, 22.23425
824.9030, 22.26779
825.3851, 22.26128
825.8672, 22.11288
826.3494, 21.81138
826.8315, 21.50903
827.3136, 21.09270
827.7957, 20.87838
828.2778, 21.37638
828.7599, 22.18964
829.2421, 22.54485
829.7242, 22.33912
830.2063, 22.05610
830.6884, 22.06579
831.1705, 21.95670
831.6526, 21.92565
832.1348, 22.05720
832.6169, 22.05574
833.0990, 22.34082
833.5811, 22.63244
834.0632, 22.80659
834.5453, 22.84858
835.0275, 22.69390
835.5096, 22.21069
835.9917, 21.93166
836.4738, 21.91945
836.9559, 22.03960
837.4380, 22.40813
837.9202, 22.78095
838.4023, 22.84136
838.8844, 22.59489
839.3665, 22.38351
839.8486, 22.42884
840.3307, 22.54175
840.8129, 22.55734
841.2950, 22.49162
841.7771, 22.30599
842.2592, 22.03855
842.7413, 21.95652
843.2234, 22.24990
843.7056, 22.69206
844.1877, 22.76685
844.6698, 22.42501
845.1519, 22.33841
845.6340, 22.58696
846.1161, 22.93046
846.5983, 23.37530
847.0804, 23.76461
847.5625, 23.83972
848.0446, 23.58054
848.5267, 23.36679
849.0089, 23.21461
849.4910, 23.10815
849.9731, 23.13176
850.4552, 23.13000
850.9373, 22.90233
851.4194, 22.51954
851.9016, 22.26208
852.3837, 22.29520
852.8658, 22.32099
853.3479, 21.91503
853.8300, 21.38528
854.3121, 21.36454
854.7943, 21.78381
855.2764, 22.09914
855.7585, 22.07466
856.2406, 21.91014
856.7227, 21.86382
857.2048, 21.92425
857.6870, 21.93674
858.1691, 21.89089
858.6512, 21.82545
859.1333, 21.69307
859.6154, 21.64010
860.0975, 21.91508
860.5797, 22.40571
861.0618, 22.48469
861.5439, 21.83312
862.0260, 21.31464
862.5081, 21.00391
862.9902, 20.86454
863.4724, 20.98024
863.9545, 21.21125
864.4366, 21.35492
864.9187, 21.36140
865.4008, 21.29404
865.8829, 21.14729
866.3651, 20.98740
866.8472, 20.87703
867.3293, 20.81630
867.8114, 20.85864
868.2935, 20.98435
868.7756, 20.94456
869.2578, 20.50967
869.7399, 19.91220
870.2220, 19.77517
870.7041, 20.12383
871.1862, 20.44229
871.6683, 20.74559
872.1505, 20.77310
872.6326, 20.23884
873.1147, 19.52379
873.5968, 19.28504
874.0789, 19.62239
874.5610, 19.90299
875.0432, 20.22421
875.5253, 20.36219
876.0074, 20.03007
876.4895, 19.68327
876.9716, 19.82022
877.4537, 20.30349
877.9359, 20.51753
878.4180, 20.15136
878.9001, 19.74368
879.3822, 19.57880
879.8643, 19.58061
880.3464, 19.78475
880.8286, 20.06640
881.3107, 20.12400
881.7928, 19.85463
882.2749, 19.42591
882.7570, 18.92779
883.2391, 18.45393
883.7213, 18.35942
884.2034, 18.62144
884.6855, 18.88317
885.1676, 19.07524
885.6497, 19.14189
886.1318, 18.99086
886.6140, 18.73740
887.0961, 18.81533
887.5782, 19.50971
888.0603, 19.78747
888.5424, 19.31729
889.0245, 18.87974
889.5067, 18.80082
889.9888, 18.90962
890.4709, 19.05391
890.9530, 19.22431
891.4351, 19.31425
891.9172, 19.26708
892.3994, 19.17927
892.8815, 19.04557
893.3636, 18.92313
893.8457, 18.89576
894.3278, 18.92883
894.8099, 18.90303
895.2921, 18.76119
895.7742, 18.60611
896.2563, 18.45208
896.7384, 18.39274
897.2205, 18.74523
897.7026, 19.36473
898.1848, 19.63014
898.6669, 19.35885
899.1490, 18.90675
899.6311, 18.58623
900.1132, 18.40552
900.5953, 18.46396
901.0775, 18.80097
901.5596, 18.91153
902.0417, 18.68760
902.5238, 18.34857
903.0059, 17.97455
903.4880, 17.61806
903.9702, 17.38213
904.4523, 17.27088
904.9344, 17.26774
905.4165, 17.46970
905.8986, 17.65373
906.3807, 17.78276
906.8629, 17.86574
907.3450, 17.92893
907.8271, 17.95664
908.3092, 17.87726
908.7913, 17.61051
909.2734, 17.36238
909.7556, 17.26202
910.2377, 17.18629
910.7198, 16.98139
911.2019, 16.72711
911.6840, 16.60007
912.1661, 16.64793
912.6483, 16.76774
913.1304, 16.93225
913.6125, 17.06496
914.0946, 17.01818
914.5767, 16.83301
915.0588, 16.57514
915.5410, 16.28309
916.0231, 15.14028
916.5052, 16.60950
916.9873, 17.42400
917.4694, 17.61898
917.9515, 15.33887
918.4337, 16.25481
918.9158, 15.88993
919.3979, 15.47252
919.8800, 16.83831
920.3621, 14.91819
920.8442, 16.25570
921.3264, 16.29281
921.8085, 15.99316
922.2906, 16.01086
922.7727, 15.93272
923.2548, 15.55013
923.7369, 15.29860
924.2191, 15.52327
924.7012, 15.94548
925.1833, 16.12989
925.6654, 16.01861
926.1475, 15.90769
926.6296, 15.91817
927.1118, 15.91060
927.5939, 15.82524
928.0760, 15.67729
928.5581, 15.41774
929.0402, 15.11238
929.5223, 14.93146
930.0045, 14.94173
930.4866, 15.14319
930.9687, 15.82892
931.4508, 16.53041
931.9329, 16.25009
932.4150, 15.33577
932.8972, 15.03312
933.3793, 15.64127
933.8614, 16.40100
934.3435, 16.66747
934.8256, 16.59267
935.3077, 16.53639
935.7899, 16.49233
936.2720, 16.30757
936.7541, 15.94033
937.2362, 15.78264
937.7183, 16.08127
938.2004, 16.52114
938.6826, 16.62654
939.1647, 16.39019
939.6468, 16.13317
940.1289, 15.78274
940.6110, 15.59182
941.0931, 15.65581
941.5753, 15.83199
942.0574, 16.09111
942.5395, 16.37511
943.0216, 16.51684
943.5037, 16.44268
943.9858, 16.45029
944.4680, 16.67073
944.9501, 16.84574
945.4322, 16.79068
945.9143, 16.70702
946.3964, 15.66289
946.8785, 17.21193
947.3607, 18.10628
947.8428, 18.38108
948.3249, 16.18081
948.8070, 17.17659
949.2891, 16.89153
949.7712, 16.55395
950.2534, 17.99958
950.7355, 16.15929
951.2176, 17.57663
951.6997, 17.69358
952.1818, 18.40569
952.6639, 17.82904
953.1461, 17.65047
953.6282, 18.43050
954.1103, 18.54114
954.5924, 17.95701
955.0745, 17.47287
955.5566, 17.48147
956.0388, 17.69048
956.5209, 17.64876
957.0030, 17.46233
957.4851, 17.83311
957.9672, 18.75617
958.4493, 19.10789
958.9315, 18.58228
959.4136, 17.85974
959.8957, 17.39029
960.3778, 17.17278
960.8599, 17.25190
961.3420, 17.72179
961.8242, 17.99988
962.3063, 18.03547
962.7884, 17.99052
963.2705, 17.84190
963.7526, 17.73240
964.2347, 17.83875
964.7169, 18.12414
965.1990, 18.31938
965.6811, 18.34800
966.1632, 18.40225
966.6453, 18.52151
967.1274, 18.62145
967.6096, 18.75140
968.0917, 18.79291
968.5738, 18.46202
969.0559, 17.78686
969.5380, 17.50444
970.0201, 18.15676
970.5023, 18.74021
970.9844, 18.85019
971.4665, 18.79836
971.9486, 18.86910
972.4307, 18.96944
972.9128, 18.80641
973.3950, 18.31336
973.8771, 17.94587
974.3592, 18.04827
974.8413, 18.31455
975.3234, 18.52567
975.8055, 18.69920
976.2877, 18.91867
976.7698, 19.13652
977.2519, 19.13374
977.7340, 18.80006
978.2161, 18.44342
978.6982, 18.38924
979.1804, 18.54415
979.6625, 18.79218
980.1446, 19.09203
980.6267, 19.30648
981.1088, 19.41583
981.5909, 19.54561
982.0731, 19.79004
982.5552, 20.05455
983.0373, 20.11200
983.5194, 20.01355
984.0015, 20.22345
984.4836, 20.75229
984.9658, 20.93917
985.4479, 20.53624
985.9300, 20.11732
986.4121, 20.23538
986.8942, 20.71982
987.3763, 20.91675
987.8585, 20.74563
988.3406, 20.84923
988.8227, 21.34775
989.3048, 21.82819
989.7869, 22.14646
990.2690, 22.31814
990.7512, 22.32286
991.2333, 22.18182
991.7154, 22.16603
992.1975, 22.34380
992.6796, 22.49988
993.1617, 22.56021
993.6439, 22.67959
994.1260, 22.96630
994.6081, 23.33575
995.0902, 23.71908
995.5723, 24.12477
996.0544, 24.30433
996.5366, 24.00983
997.0187, 23.83250
997.5008, 23.76882
997.9829, 23.94851
998.4650, 24.60599
998.9471, 25.49730
999.4293, 26.26007
999.9114, 26.85474
1000.393, 27.17708
1000.876, 26.81771
1001.358, 26.66260
1001.840, 27.29217
1002.322, 28.10534
1002.804, 28.64321
1003.286, 28.89944
1003.768, 28.90764
1004.250, 28.65031
1004.733, 28.64561
1005.215, 29.55581
1005.697, 30.40798
1006.179, 30.31273
1006.661, 29.82393
1007.143, 29.62487
1007.625, 29.75178
1008.107, 30.00175
1008.589, 30.30970
1009.072, 30.46007
1009.554, 30.23408
1010.036, 29.78319
1010.518, 29.24019
1011.000, 28.62804
1011.482, 27.86354
1011.964, 27.02948
1012.446, 26.51723
1012.929, 26.55786
1013.411, 26.79004
1013.893, 26.81083
1014.375, 26.69450
1014.857, 26.60327
1015.339, 26.51157
1015.821, 26.23660
1016.303, 25.78304
1016.785, 25.51099
1017.268, 25.67697
1017.750, 26.08529
1018.232, 26.50978
1018.714, 26.90083
1019.196, 26.98715
1019.678, 26.80366
1020.160, 26.69514
1020.642, 26.75852
1021.125, 27.03025
1021.607, 27.57100
1022.089, 28.22990
1022.571, 28.68634
1023.053, 28.94518
1023.535, 28.94876
1024.017, 28.67394
1024.499, 28.71647
1024.981, 29.29138
1025.464, 30.02911
1025.946, 30.59384
1026.428, 31.06109
1026.910, 31.65954
1027.392, 32.39165
1027.874, 33.24625
1028.356, 34.24349
1028.838, 35.25540
1029.321, 36.22041
1029.803, 37.25713
1030.285, 38.55912
1030.767, 39.33537
1031.249, 40.93315
1031.731, 41.14983
1032.213, 41.72258
1032.695, 42.78447
1033.177, 43.94144
1033.660, 45.04251
1034.142, 46.18031
1034.624, 47.39231
1035.106, 48.73023
1035.588, 50.48688
1036.070, 52.94173
1036.552, 55.14149
1037.034, 56.98811
1037.516, 58.71745
1037.999, 60.38168
1038.481, 61.97107
1038.963, 63.23803
1039.445, 64.33617
1039.927, 66.48077
1040.409, 70.60784
1040.891, 74.12550
1041.373, 76.21775
1041.855, 78.71201
1042.338, 82.47390
1042.820, 86.78420
1043.302, 90.81765
1043.784, 94.67676
1044.266, 99.29368
1044.748, 105.1412
1045.230, 110.9698
1045.712, 116.2541
1046.195, 122.0348
1046.677, 128.7778
1047.159, 136.2152
1047.641, 144.0555
1048.123, 152.2968
1048.605, 161.1768
1049.087, 170.7133
1049.569, 180.9918
1050.052, 192.2095
1050.534, 203.8950
1051.016, 215.5520
1051.498, 227.7509
1051.980, 241.0508
1052.462, 255.4802
1052.944, 270.9999
1053.426, 287.7765
1053.908, 305.3957
1054.391, 324.1961
1054.873, 343.2167
1055.355, 362.0273
1055.837, 380.8199
1056.319, 400.5255
1056.801, 420.6717
1057.283, 439.2319
1057.765, 456.1828
1058.248, 470.2343
1058.730, 481.3272
1059.212, 489.1435
1059.694, 494.0839
1060.176, 495.2661
1060.658, 491.3844
1061.140, 482.7828
1061.622, 471.2155
1062.104, 457.1224
1062.587, 440.2833
1063.069, 419.1509
1063.551, 397.0280
1064.033, 375.2109
1064.515, 353.8875
1064.997, 332.9741
1065.479, 312.6147
1065.961, 293.0766
1066.443, 274.4613
1066.926, 256.8182
1067.408, 240.1108
1067.890, 224.4715
1068.372, 209.6757
1068.854, 196.1258
1069.336, 184.5868
1069.818, 174.6891
1070.300, 165.0102
1070.782, 155.0019
1071.265, 145.6549
1071.747, 137.5180
1072.229, 129.9589
1072.711, 122.5171
1073.193, 115.4927
1073.675, 109.3731
1074.157, 104.0555
1074.639, 99.12646
1075.122, 94.47590
1075.604, 90.13570
1076.086, 86.03392
1076.568, 82.34353
1077.050, 79.37964
1077.532, 76.70623
1078.014, 73.77292
1078.496, 70.77724
1078.979, 68.38966
1079.461, 66.80555
1079.943, 65.26617
1080.425, 63.51927
1080.907, 61.63124
1081.389, 59.36433
1081.871, 57.22010
1082.353, 55.67631
1082.835, 54.63734
1083.318, 53.84583
1083.800, 53.24117
1084.282, 52.79010
1084.764, 52.83560
1085.246, 52.57323
1085.728, 51.26535
1086.210, 49.78730
1086.692, 48.90210
1087.175, 48.40989
1087.657, 47.88594
1088.139, 47.24568
1088.621, 46.57008
1089.103, 45.85727
1089.585, 45.16272
1090.067, 44.65412
1090.549, 44.02830
1091.031, 42.96091
1091.514, 41.67215
1091.996, 40.52258
1092.478, 39.53733
1092.960, 38.46663
1093.442, 37.14862
1093.924, 35.88346
1094.406, 34.78890
1094.888, 33.76225
1095.370, 32.64527
1095.853, 31.61226
1096.335, 30.95678
1096.817, 30.62150
1097.299, 30.21611
1097.781, 29.63335
1098.263, 28.98622
1098.745, 28.11066
1099.227, 27.41574
1099.709, 27.35025
1100.192, 27.39539
1100.674, 26.87088
1101.156, 25.96372
1101.638, 25.47006
1102.120, 25.66560
1102.602, 25.79234
1103.084, 25.73931
1103.566, 25.48914
1104.049, 24.87755
1104.531, 24.20544
1105.013, 23.54755
1105.495, 23.07085
1105.977, 23.22689
1106.459, 24.21467
1106.941, 24.82388
1107.423, 24.70135
1107.906, 24.39078
1108.388, 23.83364
1108.870, 23.33949
1109.352, 23.21321
1109.834, 23.24259
1110.316, 22.98421
1110.798, 22.38648
1111.280, 22.12756
1111.762, 22.68380
1112.245, 22.94120
1112.727, 22.38866
1113.209, 21.94037
1113.691, 22.21531
1114.173, 22.72928
1114.655, 22.91654
1115.137, 22.78305
1115.619, 22.42590
1116.102, 21.54322
1116.584, 20.97747
1117.066, 20.93196
1117.548, 20.92410
1118.030, 20.89087
1118.512, 20.70876
1118.994, 20.14194
1119.476, 19.34345
1119.958, 18.97124
1120.441, 19.29627
1120.923, 19.15158
1121.405, 18.25572
1121.887, 17.51012
1122.369, 17.16598
1122.851, 16.99378
1123.333, 16.83240
1123.815, 16.72224
1124.297, 16.77282
1124.780, 16.74818
1125.262, 16.80413
1125.744, 16.98184
1126.226, 17.02618
1126.708, 17.37311
1127.190, 17.62910
1127.672, 17.56780
1128.154, 17.31418
1128.636, 17.01220
1129.119, 16.69115
1129.601, 16.70134
1130.083, 16.27062
1130.565, 16.88587
1131.047, 15.79121
1131.529, 15.04060
1132.011, 15.14501
1132.493, 15.60145
1132.976, 15.95965
1133.458, 16.15993
1133.940, 15.91371
1134.422, 15.28088
1134.904, 15.07398
1135.386, 15.30922
1135.868, 15.58148
1136.350, 15.77642
1136.833, 15.80260
1137.315, 15.57833
1137.797, 15.26139
1138.279, 15.14634
1138.761, 15.15381
1139.243, 14.96143
1139.725, 14.63641
1140.207, 14.51666
1140.689, 14.61563
1141.172, 14.59793
1141.654, 14.30685
1142.136, 14.04247
1142.618, 14.20656
1143.100, 14.50921
1143.582, 14.42405
1144.064, 14.11941
1144.546, 13.90173
1145.029, 13.80487
1145.511, 13.82794
1145.993, 13.95385
1146.475, 14.07934
1146.957, 14.14315
1147.439, 14.15580
1147.921, 14.18820
1148.403, 14.12462
1148.885, 13.68087
1149.368, 13.10785
1149.850, 12.82113
1150.332, 12.87029
1150.814, 13.15258
1151.296, 13.69007
1151.778, 14.06045
1152.260, 13.87187
1152.742, 13.58871
1153.224, 13.50917
1153.707, 13.51285
1154.189, 13.48194
1154.671, 13.41067
1155.153, 13.28062
1155.635, 13.08549
1156.117, 13.07016
1156.599, 13.60001
1157.081, 13.90959
1157.563, 13.57863
1158.046, 13.15614
1158.528, 12.98090
1159.010, 12.91892
1159.492, 12.73459
1159.974, 12.45089
1160.456, 12.35091
1160.938, 12.53837
1161.420, 12.75517
1161.903, 13.16902
1162.385, 13.34919
1162.867, 12.90931
1163.349, 12.51629
1163.831, 12.81433
1164.313, 13.46559
1164.795, 13.61742
1165.277, 13.19181
1165.760, 12.91098
1166.242, 12.75122
1166.724, 12.87190
1167.206, 13.45860
1167.688, 13.77635
1168.170, 13.36906
1168.652, 12.72498
1169.134, 12.45786
1169.616, 12.50869
1170.099, 12.65583
1170.581, 12.90250
1171.063, 12.94040
1171.545, 12.74922
1172.027, 12.60012
1172.509, 12.57517
1172.991, 12.58359
1173.473, 12.55867
1173.956, 12.51092
1174.438, 12.42501
1174.920, 12.33967
1175.402, 12.34689
1175.884, 12.47089
1176.366, 12.91657
1176.848, 13.60254
1177.330, 14.00863
1177.813, 13.91561
1178.295, 13.55231
1178.777, 12.96849
1179.259, 12.44696
1179.741, 12.47372
1180.223, 12.13455
1180.705, 12.50942
1181.187, 12.12808
1181.669, 12.11747
1182.151, 12.50312
1182.634, 12.76548
1183.116, 12.62683
1183.598, 12.49140
1184.080, 12.73853
1184.562, 12.90204
1185.044, 12.50578
1185.526, 12.00328
1186.008, 11.94400
1186.490, 12.15512
1186.973, 12.07598
1187.455, 11.58626
1187.937, 11.37371
1188.419, 11.83213
1188.901, 12.19064
1189.383, 12.20265
1189.865, 12.19682
1190.347, 12.40264
1190.830, 12.62216
1191.312, 12.61099
1191.794, 12.42471
1192.276, 12.34534
1192.758, 12.42641
1193.240, 12.43247
1193.722, 12.35475
1194.204, 12.20044
1194.687, 11.90187
1195.169, 11.77583
1195.651, 12.07894
1196.133, 12.50776
1196.615, 12.55789
1197.097, 12.30424
1197.579, 12.23050
1198.061, 12.32133
1198.543, 12.24881
1199.026, 11.99887
1199.508, 11.84909
1199.990, 11.89183
1200.472, 12.02935
1200.954, 12.20138
1201.436, 12.34064
1201.918, 12.35718
1202.400, 12.26093
1202.883, 11.94864
1203.365, 11.58529
1203.847, 11.61170
1204.329, 11.96905
1204.811, 12.20689
1205.293, 12.16489
1205.775, 12.16271
1206.257, 12.59549
1206.740, 12.89984
1207.222, 12.50490
1207.704, 11.95542
1208.186, 11.79559
1208.668, 11.78482
1209.150, 11.42089
1209.632, 10.78071
1210.114, 10.50606
1210.596, 10.87531
1211.078, 11.16017
1211.561, 11.17255
1212.043, 11.14522
1212.525, 11.13465
1213.007, 11.11742
1213.489, 10.98259
1213.971, 10.90729
1214.453, 11.28212
1214.935, 11.10837
1215.417, 11.01734
1215.900, 11.21236
1216.382, 10.78043
1216.864, 11.01772
1217.346, 11.29825
1217.828, 11.45511
1218.310, 11.43423
1218.792, 11.16065
1219.274, 10.81758
1219.757, 10.75186
1220.239, 10.91123
1220.721, 11.08451
1221.203, 11.25312
1221.685, 11.28832
1222.167, 11.20828
1222.649, 11.22104
1223.131, 11.38435
1223.614, 11.46828
1224.096, 11.24779
1224.578, 11.03152
1225.060, 11.19395
1225.542, 11.52032
1226.024, 11.83820
1226.506, 12.08842
1226.988, 12.22449
1227.470, 12.22717
1227.953, 12.02230
1228.435, 11.57985
1228.917, 11.23647
1229.399, 11.15599
1229.881, 11.14735
1230.363, 11.17944
1230.845, 11.22876
1231.327, 11.28282
1231.810, 11.34629
1232.292, 11.47956
1232.774, 11.62780
1233.256, 11.54048
1233.738, 11.09725
1234.220, 10.95540
1234.702, 11.21914
1235.184, 11.44993
1235.667, 11.56793
1236.149, 11.66832
1236.631, 11.82675
1237.113, 11.84354
1237.595, 11.40871
1238.077, 10.77138
1238.559, 10.75121
1239.041, 11.20765
1239.523, 11.45057
1240.005, 11.46807
1240.488, 11.31905
1240.970, 11.06580
1241.452, 10.96520
1241.934, 11.14535
1242.416, 11.33162
1242.898, 11.30268
1243.380, 11.12218
1243.862, 10.65268
1244.344, 10.24007
1244.827, 10.43132
1245.309, 10.88274
1245.791, 10.88447
1246.273, 10.48352
1246.755, 10.46227
1247.237, 11.21159
1247.719, 11.67350
1248.201, 11.38761
1248.684, 11.09861
1249.166, 11.07530
1249.648, 11.04208
1250.130, 10.74258
1250.612, 10.44975
1251.094, 10.56487
1251.576, 11.01498
1252.058, 11.36418
1252.541, 11.64686
1253.023, 11.47195
1253.505, 10.76190
1253.987, 10.45845
1254.469, 10.78676
1254.951, 11.20527
1255.433, 11.40658
1255.915, 11.48651
1256.397, 11.55172
1256.880, 11.58797
1257.362, 11.55427
1257.844, 11.47793
1258.326, 11.38499
1258.808, 11.30579
1259.290, 11.35445
1259.772, 11.48966
1260.254, 11.44800
1260.737, 11.10215
1261.219, 10.74247
1261.701, 10.30483
1262.183, 10.18241
1262.665, 10.90692
1263.147, 11.65448
1263.629, 11.79284
1264.111, 11.60532
1264.594, 11.49928
1265.076, 11.46790
1265.558, 11.38347
1266.040, 11.24340
1266.522, 11.04214
1267.004, 10.72580
1267.486, 10.54665
1267.968, 10.57277
1268.450, 10.62911
1268.932, 10.61481
1269.415, 10.68978
1269.897, 11.08834
1270.379, 11.58618
1270.861, 11.61655
1271.343, 11.30791
1271.825, 10.85205
1272.307, 10.44908
1272.789, 10.84470
1273.271, 11.88311
1273.754, 12.47865
1274.236, 12.23211
1274.718, 11.73374
1275.200, 11.10006
1275.682, 10.73071
1276.164, 11.08688
1276.646, 11.54385
1277.128, 11.72069
1277.611, 11.69522
1278.093, 11.51742
1278.575, 11.24602
1279.057, 11.01577
1279.539, 10.81352
1280.021, 10.81757
1280.503, 11.16490
1280.985, 11.29839
1281.468, 11.09255
1281.950, 10.95498
1282.432, 11.04285
1282.914, 11.19630
1283.396, 11.28420
1283.878, 11.35204
1284.360, 11.53304
1284.842, 11.73956
1285.324, 11.72692
##END=



