##NAMES=Hydroxylherderite
##RRUFFID=R060353
##IDEAL CHEMISTRY=CaBe(P^5+^O_4_)(OH)
##LOCALITY=Shigar Valley, northeast of Skardu, Baltistan, Pakistan
##OWNER=RRUFF
##SOURCE=Herb Obodda
##DESCRIPTION=Colorless equant crystal
##STATUS=The identification of this mineral has been confirmed by X-ray diffraction and chemical analysis
##URL=rruff.info/R060353
##MEASURED CHEMISTRY=(Ca_0.99_Mn_0.01_)_Σ=1_Be_1.00_P_1.00_O_4_((OH)_0.52_F_0.48_)_Σ=1_; trace amounts of Na; Be not measured but assumed by stoichiometry; OH estimated by charge balance
90.49219, 25.85876
90.97430, 26.07403
91.45642, 26.15144
91.93854, 25.93938
92.42065, 25.63379
92.90277, 25.55451
93.38489, 25.75571
93.86700, 26.02305
94.34912, 26.05543
94.83124, 25.89561
95.31335, 25.78901
95.79547, 25.87383
96.27759, 26.13268
96.75970, 26.59011
97.24182, 27.42654
97.72394, 28.24277
98.20605, 27.96882
98.68817, 26.47915
99.17029, 24.90141
99.65240, 24.02098
100.1345, 23.85173
100.6166, 24.24870
101.0988, 25.45967
101.5809, 27.30699
102.0630, 28.29753
102.5451, 28.28454
103.0272, 27.69303
103.5093, 26.85526
103.9915, 25.54519
104.4736, 24.60240
104.9557, 24.35352
105.4378, 24.95884
105.9199, 25.35832
106.4020, 25.48952
106.8842, 25.44794
107.3663, 25.40807
107.8484, 25.47638
108.3305, 25.42153
108.8126, 25.11582
109.2947, 24.06105
109.7769, 23.58616
110.2590, 24.11431
110.7411, 25.29789
111.2232, 26.04232
111.7053, 26.00686
112.1874, 25.75676
112.6696, 25.54447
113.1517, 25.37607
113.6338, 25.26566
114.1159, 25.26791
114.5980, 25.35953
115.0801, 25.37265
115.5623, 25.15204
116.0444, 24.89355
116.5265, 24.74913
117.0086, 24.84217
117.4907, 24.98094
117.9728, 25.08820
118.4550, 25.15970
118.9371, 25.26258
119.4192, 25.71579
119.9013, 26.15521
120.3834, 26.10788
120.8655, 24.55327
121.3477, 22.96541
121.8298, 22.51308
122.3119, 23.42814
122.7940, 24.66722
123.2761, 25.81222
123.7582, 26.75563
124.2404, 27.25809
124.7225, 26.62260
125.2046, 25.67074
125.6867, 25.46237
126.1688, 26.27129
126.6509, 27.54340
127.1331, 28.77560
127.6152, 29.97975
128.0973, 31.21475
128.5794, 32.45127
129.0615, 33.74656
129.5436, 35.21849
130.0258, 36.85078
130.5079, 38.71902
130.9900, 40.90511
131.4721, 43.39034
131.9542, 46.42063
132.4363, 50.29806
132.9185, 54.95917
133.4006, 59.97448
133.8827, 65.31338
134.3648, 70.86967
134.8469, 76.44477
135.3290, 81.89977
135.8112, 88.01379
136.2933, 95.58662
136.7754, 104.6775
137.2575, 114.7394
137.7396, 125.6717
138.2217, 137.2915
138.7039, 150.0123
139.1860, 163.9931
139.6681, 178.8638
140.1502, 194.4787
140.6323, 210.8157
141.1144, 227.4570
141.5966, 244.4200
142.0787, 261.7950
142.5608, 278.7883
143.0429, 295.6827
143.5250, 312.0066
144.0071, 326.3948
144.4893, 337.8607
144.9714, 348.7893
145.4535, 360.0184
145.9356, 371.5731
146.4177, 383.6207
146.8998, 396.3038
147.3820, 409.5257
147.8641, 423.3789
148.3462, 436.8226
148.8283, 451.6970
149.3104, 469.1885
149.7925, 490.3758
150.2747, 512.6843
150.7568, 535.6198
151.2389, 559.2125
151.7210, 584.0273
152.2031, 609.6605
152.6852, 636.4828
153.1674, 665.0234
153.6495, 699.0355
154.1316, 730.6114
154.6137, 757.9181
155.0958, 780.8652
155.5779, 803.7167
156.0601, 828.8545
156.5422, 853.3192
157.0243, 874.2731
157.5064, 888.6476
157.9885, 901.8649
158.4706, 915.2497
158.9528, 928.9070
159.4349, 942.5372
159.9170, 955.1285
160.3991, 967.9277
160.8812, 982.3766
161.3633, 997.7067
161.8455, 1015.721
162.3276, 1037.689
162.8097, 1063.876
163.2918, 1091.772
163.7739, 1120.390
164.2560, 1148.634
164.7382, 1169.413
165.2203, 1190.353
165.7024, 1211.130
166.1845, 1230.400
166.6666, 1248.568
167.1487, 1263.823
167.6309, 1278.638
168.1130, 1290.314
168.5951, 1292.789
169.0772, 1281.439
169.5593, 1261.124
170.0414, 1234.673
170.5236, 1199.934
171.0057, 1165.339
171.4878, 1135.071
171.9699, 1109.061
172.4520, 1087.872
172.9341, 1072.948
173.4163, 1062.177
173.8984, 1052.992
174.3805, 1044.235
174.8626, 1037.743
175.3447, 1035.738
175.8268, 1037.614
176.3090, 1040.699
176.7911, 1043.020
177.2732, 1045.337
177.7553, 1049.045
178.2374, 1055.341
178.7195, 1062.215
179.2017, 1066.976
179.6838, 1069.826
180.1659, 1072.224
180.6480, 1075.574
181.1301, 1079.357
181.6122, 1082.600
182.0944, 1086.009
182.5765, 1088.028
183.0586, 1084.976
183.5407, 1076.973
184.0228, 1068.231
184.5049, 1062.072
184.9871, 1058.215
185.4692, 1055.880
185.9513, 1054.454
186.4334, 1054.458
186.9155, 1057.753
187.3976, 1064.524
187.8798, 1072.228
188.3619, 1077.402
188.8440, 1080.730
189.3261, 1086.370
189.8082, 1096.806
190.2903, 1110.642
190.7725, 1122.863
191.2546, 1133.415
191.7367, 1143.476
192.2188, 1154.920
192.7009, 1167.732
193.1830, 1179.714
193.6652, 1190.393
194.1473, 1199.741
194.6294, 1207.638
195.1115, 1214.749
195.5936, 1218.316
196.0757, 1214.588
196.5579, 1203.516
197.0400, 1187.543
197.5221, 1165.641
198.0042, 1138.454
198.4863, 1114.002
198.9684, 1092.352
199.4506, 1073.547
199.9327, 1058.453
200.4148, 1047.243
200.8969, 1037.310
201.3790, 1026.998
201.8611, 1016.229
202.3433, 1008.945
202.8254, 1005.856
203.3075, 1005.055
203.7896, 1003.435
204.2717, 1000.800
204.7538, 998.2207
205.2360, 996.2209
205.7181, 994.8779
206.2002, 993.1848
206.6823, 990.8556
207.1644, 988.5081
207.6465, 987.4514
208.1287, 988.0295
208.6108, 988.7411
209.0929, 988.8660
209.5750, 988.2403
210.0571, 988.0420
210.5392, 988.4153
211.0214, 989.1293
211.5035, 989.7398
211.9856, 990.2949
212.4677, 990.6644
212.9498, 990.5438
213.4319, 989.5228
213.9140, 989.8253
214.3962, 991.7604
214.8783, 994.8396
215.3604, 998.0251
215.8425, 1001.542
216.3246, 1004.680
216.8067, 1007.199
217.2889, 1009.115
217.7710, 1010.015
218.2531, 1009.088
218.7352, 1007.521
219.2173, 1008.280
219.6994, 1012.095
220.1816, 1016.835
220.6637, 1022.033
221.1458, 1028.729
221.6279, 1032.724
222.1100, 1032.921
222.5921, 1030.840
223.0743, 1030.762
223.5564, 1034.351
224.0385, 1037.073
224.5206, 1036.525
225.0027, 1031.198
225.4848, 1026.750
225.9670, 1023.522
226.4491, 1021.190
226.9312, 1018.894
227.4133, 1016.768
227.8954, 1014.475
228.3775, 1011.664
228.8597, 1007.271
229.3418, 1004.906
229.8239, 1005.397
230.3060, 1007.678
230.7881, 1008.749
231.2702, 1007.869
231.7524, 1006.850
232.2345, 1006.509
232.7166, 1007.088
233.1987, 1007.748
233.6808, 1008.645
234.1629, 1009.577
234.6451, 1009.901
235.1272, 1008.929
235.6093, 1008.416
236.0914, 1009.300
236.5735, 1012.569
237.0556, 1015.067
237.5378, 1016.714
238.0199, 1017.663
238.5020, 1018.158
238.9841, 1017.713
239.4662, 1017.583
239.9483, 1018.407
240.4305, 1020.781
240.9126, 1022.657
241.3947, 1023.833
241.8768, 1024.555
242.3589, 1025.315
242.8410, 1025.552
243.3232, 1026.633
243.8053, 1029.331
244.2874, 1034.730
244.7695, 1039.094
245.2516, 1042.228
245.7337, 1044.434
246.2159, 1046.347
246.6980, 1047.868
247.1801, 1049.272
247.6622, 1050.578
248.1443, 1051.491
248.6264, 1053.242
249.1086, 1056.210
249.5907, 1059.856
250.0728, 1062.945
250.5549, 1064.773
251.0370, 1067.232
251.5191, 1071.208
252.0013, 1077.227
252.4834, 1082.912
252.9655, 1088.411
253.4476, 1093.412
253.9297, 1097.596
254.4118, 1101.938
254.8940, 1103.510
255.3761, 1100.512
255.8582, 1091.210
256.3403, 1084.288
256.8224, 1080.497
257.3046, 1078.509
257.7867, 1076.164
258.2688, 1073.047
258.7509, 1070.475
259.2330, 1069.207
259.7151, 1069.679
260.1973, 1068.832
260.6794, 1066.207
261.1615, 1062.766
261.6436, 1059.920
262.1257, 1057.750
262.6078, 1055.906
263.0900, 1054.114
263.5721, 1052.221
264.0542, 1051.770
264.5363, 1053.103
265.0184, 1055.430
265.5005, 1057.996
265.9827, 1061.067
266.4648, 1063.490
266.9469, 1064.856
267.4290, 1065.143
267.9111, 1064.943
268.3932, 1063.899
268.8754, 1062.911
269.3575, 1063.270
269.8396, 1065.545
270.3217, 1067.050
270.8038, 1066.815
271.2859, 1064.977
271.7681, 1064.227
272.2502, 1064.802
272.7323, 1065.985
273.2144, 1067.137
273.6965, 1068.308
274.1786, 1069.237
274.6608, 1069.876
275.1429, 1070.234
275.6250, 1070.344
276.1071, 1070.166
276.5892, 1069.869
277.0714, 1069.421
277.5535, 1068.730
278.0356, 1068.778
278.5177, 1069.874
278.9998, 1071.825
279.4819, 1073.859
279.9641, 1076.010
280.4462, 1078.242
280.9283, 1080.680
281.4104, 1083.330
281.8925, 1085.579
282.3746, 1087.328
282.8568, 1088.625
283.3389, 1089.234
283.8210, 1088.976
284.3031, 1089.351
284.7852, 1091.952
285.2673, 1096.581
285.7495, 1100.084
286.2316, 1101.683
286.7137, 1102.484
287.1958, 1105.051
287.6779, 1109.430
288.1600, 1113.703
288.6422, 1116.450
289.1243, 1117.917
289.6064, 1119.713
290.0885, 1121.989
290.5706, 1124.648
291.0527, 1127.723
291.5349, 1131.187
292.0170, 1134.517
292.4991, 1137.536
292.9812, 1140.224
293.4633, 1142.074
293.9454, 1142.847
294.4276, 1143.790
294.9097, 1146.986
295.3918, 1152.026
295.8739, 1156.706
296.3560, 1160.074
296.8381, 1162.284
297.3203, 1163.355
297.8024, 1163.191
298.2845, 1162.690
298.7666, 1162.592
299.2487, 1162.884
299.7308, 1163.556
300.2130, 1165.279
300.6951, 1167.125
301.1772, 1167.402
301.6593, 1166.123
302.1414, 1164.478
302.6235, 1163.508
303.1057, 1162.943
303.5878, 1162.269
304.0699, 1161.500
304.5520, 1160.402
305.0341, 1158.043
305.5162, 1154.675
305.9984, 1152.381
306.4805, 1154.131
306.9626, 1157.515
307.4447, 1159.074
307.9268, 1157.203
308.4089, 1154.104
308.8911, 1150.995
309.3732, 1148.063
309.8553, 1146.112
310.3374, 1146.379
310.8195, 1147.495
311.3016, 1147.995
311.7838, 1147.159
312.2659, 1146.564
312.7480, 1148.143
313.2301, 1150.858
313.7122, 1152.156
314.1943, 1148.246
314.6765, 1144.190
315.1586, 1143.973
315.6407, 1149.123
316.1228, 1154.706
316.6049, 1158.798
317.0870, 1161.719
317.5692, 1163.938
318.0513, 1164.411
318.5334, 1165.214
319.0155, 1167.664
319.4976, 1172.161
319.9797, 1176.138
320.4619, 1177.792
320.9440, 1178.799
321.4261, 1181.010
321.9082, 1186.309
322.3903, 1191.483
322.8724, 1195.421
323.3546, 1198.068
323.8367, 1200.818
324.3188, 1204.396
324.8009, 1207.971
325.2830, 1210.877
325.7651, 1211.787
326.2473, 1213.495
326.7294, 1217.265
327.2115, 1222.695
327.6936, 1226.478
328.1757, 1225.705
328.6578, 1225.218
329.1400, 1227.452
329.6221, 1235.422
330.1042, 1241.974
330.5863, 1246.291
331.0684, 1249.141
331.5505, 1252.684
332.0327, 1257.049
332.5148, 1261.945
332.9969, 1267.485
333.4790, 1274.198
333.9611, 1279.707
334.4432, 1283.587
334.9254, 1286.506
335.4075, 1289.873
335.8896, 1295.095
336.3717, 1297.963
336.8538, 1296.715
337.3359, 1290.943
337.8180, 1285.428
338.3001, 1280.336
338.7823, 1275.288
339.2644, 1270.068
339.7465, 1264.778
340.2286, 1258.634
340.7107, 1250.921
341.1928, 1242.037
341.6750, 1235.852
342.1571, 1232.775
342.6392, 1230.486
343.1213, 1226.943
343.6034, 1222.146
344.0855, 1217.559
344.5677, 1213.470
345.0498, 1209.706
345.5319, 1205.811
346.0140, 1201.764
346.4961, 1198.251
346.9782, 1196.163
347.4604, 1195.133
347.9425, 1193.290
348.4246, 1190.250
348.9067, 1187.003
349.3888, 1184.862
349.8709, 1183.757
350.3531, 1183.247
350.8352, 1183.581
351.3173, 1184.270
351.7994, 1184.401
352.2815, 1183.941
352.7636, 1182.976
353.2458, 1181.070
353.7279, 1178.717
354.2100, 1177.004
354.6921, 1176.726
355.1742, 1177.002
355.6563, 1176.907
356.1385, 1176.469
356.6206, 1176.057
357.1027, 1176.069
357.5848, 1176.185
358.0669, 1176.070
358.5490, 1175.826
359.0312, 1175.029
359.5133, 1172.764
359.9954, 1169.584
360.4775, 1167.188
360.9596, 1166.049
361.4417, 1166.190
361.9239, 1168.007
362.4060, 1172.399
362.8881, 1175.965
363.3702, 1177.181
363.8523, 1176.816
364.3344, 1176.045
364.8166, 1174.469
365.2987, 1173.195
365.7808, 1172.690
366.2629, 1173.017
366.7450, 1173.719
367.2271, 1175.458
367.7093, 1177.205
368.1914, 1178.053
368.6735, 1176.783
369.1556, 1175.900
369.6377, 1175.735
370.1198, 1176.252
370.6020, 1177.238
371.0841, 1179.467
371.5662, 1181.456
372.0483, 1182.343
372.5304, 1181.406
373.0125, 1180.715
373.4947, 1180.281
373.9768, 1180.124
374.4589, 1180.312
374.9410, 1180.936
375.4231, 1181.721
375.9052, 1182.626
376.3874, 1183.698
376.8695, 1184.471
377.3516, 1184.723
377.8337, 1185.067
378.3158, 1186.473
378.7979, 1189.124
379.2801, 1191.521
379.7622, 1193.295
380.2443, 1194.499
380.7264, 1195.558
381.2085, 1196.526
381.6906, 1196.864
382.1728, 1195.402
382.6549, 1192.561
383.1370, 1191.235
383.6191, 1192.157
384.1012, 1194.328
384.5833, 1196.381
385.0655, 1198.300
385.5476, 1199.959
386.0297, 1200.922
386.5118, 1201.692
386.9939, 1203.686
387.4760, 1207.291
387.9582, 1210.144
388.4403, 1208.791
388.9224, 1205.082
389.4045, 1202.865
389.8866, 1205.150
390.3687, 1208.599
390.8509, 1210.209
391.3330, 1210.117
391.8151, 1210.232
392.2972, 1212.416
392.7793, 1214.999
393.2614, 1216.272
393.7436, 1214.551
394.2257, 1213.205
394.7078, 1214.244
395.1899, 1216.805
395.6720, 1218.624
396.1541, 1218.067
396.6363, 1217.355
397.1184, 1217.644
397.6005, 1219.474
398.0826, 1221.017
398.5647, 1221.240
399.0468, 1221.300
399.5290, 1222.597
400.0111, 1227.592
400.4932, 1231.260
400.9753, 1232.026
401.4574, 1229.905
401.9395, 1229.438
402.4217, 1231.256
402.9038, 1234.030
403.3859, 1236.983
403.8680, 1240.346
404.3501, 1243.263
404.8322, 1245.372
405.3144, 1247.118
405.7965, 1249.796
406.2786, 1253.784
406.7607, 1257.479
407.2428, 1259.885
407.7249, 1260.943
408.2071, 1262.947
408.6892, 1266.008
409.1713, 1269.691
409.6534, 1273.821
410.1355, 1278.325
410.6176, 1282.023
411.0998, 1284.096
411.5819, 1285.480
412.0640, 1288.422
412.5461, 1292.867
413.0282, 1298.130
413.5103, 1304.342
413.9925, 1310.848
414.4746, 1316.178
414.9567, 1319.802
415.4388, 1323.100
415.9209, 1327.622
416.4030, 1332.975
416.8852, 1338.317
417.3673, 1342.475
417.8494, 1346.858
418.3315, 1352.870
418.8136, 1360.550
419.2957, 1368.641
419.7779, 1376.610
420.2600, 1384.516
420.7421, 1392.290
421.2242, 1399.581
421.7063, 1407.189
422.1884, 1415.521
422.6706, 1424.453
423.1527, 1433.813
423.6348, 1444.550
424.1169, 1454.817
424.5990, 1463.994
425.0811, 1472.232
425.5633, 1478.777
426.0454, 1484.120
426.5275, 1487.596
427.0096, 1488.341
427.4917, 1485.797
427.9738, 1481.302
428.4560, 1474.813
428.9381, 1466.341
429.4202, 1457.440
429.9023, 1448.119
430.3844, 1438.525
430.8665, 1428.449
431.3487, 1417.466
431.8308, 1408.375
432.3129, 1401.148
432.7950, 1396.241
433.2771, 1395.538
433.7592, 1399.180
434.2414, 1403.307
434.7235, 1405.447
435.2056, 1406.513
435.6877, 1410.700
436.1698, 1418.167
436.6519, 1426.381
437.1341, 1432.771
437.6162, 1437.825
438.0983, 1442.917
438.5804, 1448.216
439.0625, 1454.002
439.5446, 1460.531
440.0268, 1467.812
440.5089, 1475.863
440.9910, 1484.333
441.4731, 1493.798
441.9552, 1505.195
442.4373, 1518.808
442.9195, 1532.762
443.4016, 1545.988
443.8837, 1559.045
444.3658, 1572.608
444.8479, 1587.017
445.3300, 1601.833
445.8122, 1618.092
446.2943, 1635.246
446.7764, 1649.861
447.2585, 1661.925
447.7406, 1670.932
448.2227, 1676.669
448.7049, 1679.474
449.1870, 1678.435
449.6691, 1673.866
450.1512, 1665.282
450.6333, 1651.630
451.1154, 1630.918
451.5976, 1609.135
452.0797, 1587.887
452.5618, 1567.035
453.0439, 1545.369
453.5260, 1522.765
454.0081, 1501.003
454.4903, 1481.305
454.9724, 1463.833
455.4545, 1448.834
455.9366, 1436.844
456.4187, 1426.601
456.9008, 1415.871
457.3830, 1404.799
457.8651, 1395.646
458.3472, 1390.191
458.8293, 1386.976
459.3114, 1383.311
459.7935, 1379.208
460.2757, 1375.245
460.7578, 1371.370
461.2399, 1368.124
461.7220, 1366.463
462.2041, 1367.604
462.6862, 1368.671
463.1684, 1367.219
463.6505, 1364.240
464.1326, 1362.065
464.6147, 1362.712
465.0968, 1363.483
465.5789, 1362.542
466.0611, 1359.352
466.5432, 1357.648
467.0253, 1359.635
467.5074, 1362.628
467.9895, 1364.379
468.4716, 1364.159
468.9538, 1363.438
469.4359, 1361.905
469.9180, 1359.959
470.4001, 1358.904
470.8822, 1359.098
471.3643, 1359.620
471.8465, 1360.262
472.3286, 1361.111
472.8107, 1361.213
473.2928, 1360.297
473.7749, 1359.364
474.2570, 1359.970
474.7392, 1362.107
475.2213, 1363.047
475.7034, 1361.861
476.1855, 1359.562
476.6676, 1357.720
477.1497, 1356.414
477.6319, 1356.452
478.1140, 1359.537
478.5961, 1363.866
479.0782, 1366.262
479.5603, 1366.405
480.0424, 1366.012
480.5246, 1366.141
481.0067, 1366.687
481.4888, 1367.502
481.9709, 1368.552
482.4530, 1369.834
482.9352, 1371.759
483.4173, 1373.986
483.8994, 1375.446
484.3815, 1374.449
484.8636, 1373.691
485.3457, 1374.858
485.8279, 1378.966
486.3100, 1381.571
486.7921, 1380.918
487.2742, 1379.360
487.7563, 1379.029
488.2384, 1381.273
488.7206, 1382.324
489.2027, 1380.976
489.6848, 1378.267
490.1669, 1378.214
490.6490, 1381.650
491.1311, 1385.245
491.6133, 1387.331
492.0954, 1387.953
492.5775, 1388.646
493.0596, 1389.352
493.5417, 1390.407
494.0238, 1392.405
494.5060, 1395.150
494.9881, 1397.677
495.4702, 1399.635
495.9523, 1401.400
496.4344, 1403.148
496.9165, 1405.040
497.3987, 1407.674
497.8808, 1412.450
498.3629, 1417.507
498.8450, 1420.719
499.3271, 1421.861
499.8092, 1423.302
500.2914, 1425.996
500.7735, 1429.732
501.2556, 1434.378
501.7377, 1439.598
502.2198, 1445.997
502.7019, 1455.414
503.1841, 1466.226
503.6662, 1474.063
504.1483, 1474.590
504.6304, 1476.519
505.1125, 1482.967
505.5946, 1494.473
506.0768, 1503.325
506.5589, 1507.791
507.0410, 1512.120
507.5231, 1520.058
508.0052, 1532.151
508.4873, 1544.135
508.9695, 1555.291
509.4516, 1566.217
509.9337, 1577.373
510.4158, 1588.843
510.8979, 1602.223
511.3800, 1618.927
511.8622, 1637.895
512.3443, 1656.643
512.8264, 1675.102
513.3085, 1695.168
513.7906, 1718.484
514.2728, 1744.125
514.7549, 1771.002
515.2370, 1799.038
515.7191, 1827.882
516.2012, 1859.131
516.6833, 1890.569
517.1655, 1919.323
517.6476, 1947.025
518.1297, 1969.337
518.6118, 1986.834
519.0939, 1998.886
519.5760, 1998.991
520.0582, 1985.231
520.5403, 1959.943
521.0224, 1923.045
521.5045, 1870.305
521.9866, 1817.030
522.4688, 1760.373
522.9509, 1706.271
523.4330, 1661.225
523.9151, 1625.771
524.3972, 1596.496
524.8793, 1573.606
525.3615, 1556.017
525.8436, 1540.914
526.3257, 1528.247
526.8078, 1518.083
527.2899, 1511.161
527.7720, 1506.525
528.2542, 1502.143
528.7363, 1497.945
529.2184, 1494.277
529.7005, 1491.112
530.1826, 1488.816
530.6647, 1488.029
531.1469, 1489.663
531.6290, 1491.634
532.1111, 1492.928
532.5932, 1493.710
533.0753, 1494.312
533.5574, 1494.793
534.0396, 1495.139
534.5217, 1495.111
535.0038, 1494.646
535.4859, 1494.993
535.9680, 1496.867
536.4501, 1498.847
536.9323, 1500.136
537.4144, 1500.634
537.8965, 1500.668
538.3786, 1500.038
538.8607, 1499.240
539.3428, 1498.877
539.8250, 1498.925
540.3071, 1499.922
540.7892, 1502.339
541.2713, 1505.560
541.7534, 1507.719
542.2355, 1508.965
542.7177, 1510.786
543.1998, 1515.099
543.6819, 1520.271
544.1640, 1523.708
544.6461, 1525.189
545.1282, 1525.878
545.6104, 1525.409
546.0925, 1525.052
546.5746, 1526.337
547.0567, 1531.392
547.5388, 1535.734
548.0209, 1536.918
548.5031, 1536.329
548.9852, 1537.057
549.4673, 1541.182
549.9494, 1544.945
550.4315, 1547.165
550.9136, 1547.853
551.3958, 1549.441
551.8779, 1552.478
552.3600, 1555.502
552.8421, 1557.497
553.3242, 1558.327
553.8063, 1559.410
554.2885, 1560.783
554.7706, 1562.481
555.2527, 1565.287
555.7348, 1568.800
556.2169, 1570.326
556.6990, 1568.203
557.1812, 1564.794
557.6633, 1563.270
558.1454, 1563.335
558.6275, 1563.878
559.1096, 1564.021
559.5917, 1564.556
560.0739, 1566.460
560.5560, 1569.829
561.0381, 1572.818
561.5202, 1573.658
562.0023, 1574.429
562.4844, 1576.674
562.9666, 1581.354
563.4487, 1586.439
563.9308, 1591.885
564.4129, 1597.596
564.8950, 1603.485
565.3771, 1609.679
565.8593, 1615.483
566.3414, 1620.221
566.8235, 1624.465
567.3056, 1631.372
567.7877, 1641.180
568.2698, 1651.583
568.7520, 1661.387
569.2341, 1670.680
569.7162, 1679.929
570.1983, 1689.020
570.6804, 1698.930
571.1625, 1710.350
571.6447, 1723.153
572.1268, 1737.171
572.6089, 1752.817
573.0910, 1768.994
573.5731, 1784.944
574.0552, 1801.052
574.5374, 1818.347
575.0195, 1839.148
575.5016, 1859.036
575.9837, 1875.783
576.4658, 1889.651
576.9479, 1905.339
577.4301, 1925.046
577.9122, 1943.912
578.3943, 1959.868
578.8764, 1972.313
579.3585, 1984.951
579.8406, 1998.250
580.3228, 2010.696
580.8049, 2020.354
581.2870, 2027.318
581.7691, 2033.898
582.2512, 2040.038
582.7333, 2046.805
583.2155, 2056.482
583.6975, 2068.134
584.1796, 2079.383
584.6617, 2088.437
585.1439, 2096.901
585.6260, 2107.753
586.1081, 2119.921
586.5902, 2128.069
587.0723, 2130.647
587.5544, 2127.743
588.0366, 2118.808
588.5187, 2102.890
589.0008, 2085.009
589.4829, 2065.777
589.9650, 2044.788
590.4471, 2021.576
590.9293, 1995.331
591.4114, 1968.406
591.8935, 1939.978
592.3756, 1911.766
592.8577, 1887.043
593.3398, 1866.169
593.8220, 1846.058
594.3041, 1825.063
594.7862, 1804.719
595.2683, 1789.300
595.7504, 1778.418
596.2325, 1768.266
596.7147, 1755.471
597.1968, 1742.706
597.6789, 1733.377
598.1610, 1727.782
598.6431, 1722.396
599.1252, 1716.656
599.6074, 1709.575
600.0895, 1700.020
600.5716, 1685.314
601.0537, 1672.460
601.5358, 1662.540
602.0179, 1655.120
602.5001, 1650.021
602.9822, 1648.764
603.4643, 1646.794
603.9464, 1642.968
604.4285, 1638.020
604.9106, 1634.285
605.3928, 1631.862
605.8749, 1629.849
606.3570, 1627.407
606.8391, 1625.051
607.3212, 1625.129
607.8033, 1627.514
608.2855, 1629.355
608.7676, 1627.667
609.2497, 1624.457
609.7318, 1622.450
610.2139, 1622.310
610.6960, 1622.005
611.1782, 1619.873
611.6603, 1617.240
612.1424, 1615.488
612.6245, 1615.804
613.1066, 1616.003
613.5887, 1615.766
614.0709, 1615.248
614.5530, 1614.790
615.0351, 1614.722
615.5172, 1613.990
615.9993, 1611.972
616.4814, 1609.067
616.9636, 1607.317
617.4457, 1606.754
617.9278, 1607.101
618.4099, 1609.321
618.8920, 1612.238
619.3741, 1611.949
619.8563, 1608.266
620.3384, 1604.901
620.8205, 1605.356
621.3026, 1607.666
621.7847, 1609.649
622.2668, 1611.166
622.7490, 1611.455
623.2311, 1608.736
623.7132, 1605.109
624.1953, 1603.258
624.6774, 1605.410
625.1595, 1607.210
625.6417, 1608.162
626.1238, 1608.416
626.6059, 1608.256
627.0880, 1607.436
627.5701, 1606.996
628.0522, 1607.389
628.5344, 1608.474
629.0165, 1609.361
629.4986, 1610.032
629.9807, 1611.297
630.4628, 1614.744
630.9449, 1618.881
631.4271, 1620.481
631.9092, 1619.194
632.3913, 1618.103
632.8734, 1620.279
633.3555, 1623.363
633.8376, 1624.783
634.3198, 1622.743
634.8019, 1621.386
635.2840, 1622.307
635.7661, 1624.334
636.2482, 1625.831
636.7303, 1626.447
637.2125, 1627.075
637.6946, 1628.090
638.1767, 1629.092
638.6588, 1628.808
639.1409, 1627.073
639.6230, 1625.259
640.1052, 1623.623
640.5873, 1622.433
641.0694, 1622.827
641.5515, 1624.702
642.0336, 1626.618
642.5157, 1627.619
642.9979, 1628.153
643.4800, 1628.505
643.9621, 1628.693
644.4442, 1629.431
644.9263, 1631.766
645.4084, 1634.385
645.8906, 1636.157
646.3727, 1636.143
646.8548, 1636.632
647.3369, 1638.088
647.8190, 1639.789
648.3011, 1640.677
648.7833, 1640.159
649.2654, 1640.722
649.7475, 1642.902
650.2296, 1646.120
650.7117, 1649.773
651.1938, 1653.754
651.6760, 1656.454
652.1581, 1656.676
652.6402, 1655.717
653.1223, 1655.080
653.6044, 1654.889
654.0865, 1655.605
654.5687, 1658.835
655.0508, 1662.025
655.5329, 1663.153
656.0150, 1662.004
656.4971, 1661.610
656.9792, 1663.949
657.4614, 1666.145
657.9435, 1666.258
658.4256, 1662.863
658.9077, 1662.670
659.3898, 1666.993
659.8719, 1672.164
660.3541, 1674.068
660.8362, 1672.807
661.3183, 1672.207
661.8004, 1672.859
662.2825, 1674.186
662.7646, 1675.540
663.2468, 1676.981
663.7289, 1678.692
664.2110, 1681.142
664.6931, 1683.409
665.1752, 1684.557
665.6573, 1685.051
666.1395, 1685.988
666.6216, 1688.082
667.1037, 1690.303
667.5858, 1692.304
668.0679, 1694.146
668.5500, 1696.165
669.0322, 1698.352
669.5143, 1700.772
669.9964, 1703.766
670.4785, 1707.211
670.9606, 1708.913
671.4427, 1708.671
671.9249, 1708.548
672.4070, 1710.273
672.8891, 1713.310
673.3712, 1716.666
673.8533, 1720.300
674.3354, 1723.724
674.8176, 1726.783
675.2997, 1729.410
675.7818, 1731.405
676.2639, 1732.078
676.7460, 1733.419
677.2281, 1736.635
677.7103, 1740.431
678.1924, 1743.228
678.6745, 1744.737
679.1566, 1745.760
679.6387, 1746.050
680.1208, 1746.226
680.6030, 1748.014
681.0851, 1751.365
681.5672, 1754.120
682.0493, 1755.100
682.5314, 1755.348
683.0135, 1756.737
683.4957, 1758.995
683.9778, 1761.032
684.4599, 1762.254
684.9420, 1763.043
685.4241, 1763.297
685.9063, 1763.136
686.3884, 1763.898
686.8705, 1767.630
687.3526, 1770.814
687.8347, 1771.433
688.3168, 1768.790
688.7990, 1768.957
689.2811, 1772.842
689.7632, 1777.581
690.2453, 1781.228
690.7274, 1783.827
691.2095, 1785.042
691.6917, 1784.613
692.1738, 1784.532
692.6559, 1787.747
693.1380, 1792.503
693.6201, 1795.741
694.1022, 1796.391
694.5844, 1796.387
695.0665, 1796.366
695.5486, 1796.460
696.0307, 1796.849
696.5128, 1797.237
696.9949, 1798.355
697.4771, 1800.469
697.9592, 1803.251
698.4413, 1805.914
698.9234, 1808.253
699.4055, 1811.566
699.8876, 1816.984
700.3698, 1822.894
700.8519, 1824.455
701.3340, 1822.278
701.8161, 1820.306
702.2982, 1820.499
702.7803, 1822.042
703.2625, 1824.943
703.7446, 1828.752
704.2267, 1831.153
704.7088, 1829.545
705.1909, 1827.703
705.6730, 1827.531
706.1552, 1829.265
706.6373, 1831.455
707.1194, 1834.869
707.6015, 1837.608
708.0836, 1838.231
708.5657, 1836.549
709.0479, 1835.993
709.5300, 1836.577
710.0121, 1837.938
710.4942, 1840.625
710.9763, 1843.672
711.4584, 1844.588
711.9406, 1842.799
712.4227, 1840.725
712.9048, 1840.178
713.3869, 1840.248
713.8690, 1839.978
714.3511, 1838.917
714.8333, 1838.010
715.3154, 1837.695
715.7975, 1837.570
716.2796, 1837.316
716.7617, 1837.255
717.2438, 1836.157
717.7260, 1833.483
718.2081, 1830.448
718.6902, 1829.480
719.1723, 1830.319
719.6544, 1830.856
720.1365, 1830.078
720.6187, 1829.241
721.1008, 1830.028
721.5829, 1831.887
722.0650, 1833.562
722.5471, 1833.577
723.0292, 1834.165
723.5114, 1836.908
723.9935, 1841.132
724.4756, 1843.949
724.9577, 1844.411
725.4398, 1844.676
725.9219, 1845.133
726.4041, 1845.882
726.8862, 1847.680
727.3683, 1850.641
727.8504, 1853.724
728.3325, 1857.093
728.8146, 1860.017
729.2968, 1860.286
729.7789, 1858.191
730.2610, 1856.275
730.7431, 1855.775
731.2252, 1856.344
731.7073, 1857.911
732.1895, 1860.521
732.6716, 1863.287
733.1537, 1866.290
733.6358, 1869.145
734.1179, 1871.848
734.6000, 1874.582
735.0822, 1875.603
735.5643, 1874.517
736.0464, 1873.026
736.5285, 1872.241
737.0106, 1872.294
737.4927, 1873.960
737.9749, 1877.448
738.4570, 1881.370
738.9391, 1885.132
739.4212, 1888.375
739.9033, 1890.787
740.3854, 1892.696
740.8676, 1892.915
741.3497, 1888.832
741.8318, 1884.218
742.3139, 1882.931
742.7960, 1886.242
743.2781, 1889.712
743.7603, 1892.991
744.2424, 1896.402
744.7245, 1900.941
745.2066, 1906.268
745.6887, 1909.862
746.1708, 1910.578
746.6530, 1910.678
747.1351, 1912.819
747.6172, 1916.162
748.0993, 1919.258
748.5814, 1922.153
749.0635, 1924.031
749.5457, 1923.365
750.0278, 1921.725
750.5099, 1922.501
750.9920, 1927.210
751.4741, 1931.670
751.9562, 1935.214
752.4384, 1938.027
752.9205, 1940.438
753.4026, 1942.471
753.8847, 1943.909
754.3668, 1943.789
754.8489, 1944.022
755.3311, 1948.783
755.8132, 1956.394
756.2953, 1961.797
756.7774, 1960.006
757.2595, 1958.076
757.7416, 1959.696
758.2238, 1964.291
758.7059, 1968.223
759.1880, 1970.754
759.6701, 1973.417
760.1522, 1976.721
760.6343, 1980.521
761.1165, 1984.529
761.5986, 1988.776
762.0807, 1992.039
762.5628, 1993.073
763.0449, 1992.927
763.5270, 1993.305
764.0092, 1994.141
764.4913, 1995.115
764.9734, 1996.138
765.4555, 1997.170
765.9376, 1998.681
766.4197, 2000.684
766.9019, 2000.522
767.3840, 1996.294
767.8661, 1992.556
768.3482, 1991.601
768.8303, 1993.277
769.3124, 1993.495
769.7946, 1992.105
770.2767, 1991.154
770.7588, 1992.693
771.2409, 1995.423
771.7230, 1996.930
772.2051, 1997.161
772.6873, 1997.379
773.1694, 1999.263
773.6515, 2000.647
774.1336, 1999.569
774.6157, 1995.176
775.0978, 1992.570
775.5800, 1992.502
776.0621, 1993.407
776.5442, 1994.570
777.0263, 1996.013
777.5084, 1997.135
777.9905, 1997.949
778.4727, 1998.330
778.9548, 1997.912
779.4369, 1997.083
779.9190, 1996.471
780.4011, 1996.155
780.8832, 1996.111
781.3654, 1996.548
781.8475, 1997.144
782.3296, 1997.735
782.8117, 1998.467
783.2938, 1998.631
783.7759, 1997.691
784.2581, 1996.990
784.7402, 1997.853
785.2223, 2000.290
785.7044, 2001.612
786.1865, 2001.568
786.6686, 2001.641
787.1508, 2003.398
787.6329, 2006.094
788.1150, 2008.777
788.5971, 2011.380
789.0792, 2013.311
789.5613, 2013.838
790.0435, 2013.857
790.5256, 2014.163
791.0077, 2015.221
791.4898, 2015.202
791.9719, 2013.425
792.4540, 2011.678
792.9362, 2012.196
793.4183, 2014.679
793.9004, 2015.009
794.3825, 2012.635
794.8646, 2010.387
795.3467, 2011.769
795.8289, 2014.626
796.3110, 2015.749
796.7931, 2014.052
797.2752, 2013.145
797.7573, 2015.384
798.2394, 2018.282
798.7216, 2019.678
799.2037, 2018.662
799.6858, 2018.553
800.1679, 2019.422
800.6500, 2021.009
801.1321, 2024.155
801.6143, 2028.055
802.0964, 2027.908
802.5785, 2022.685
803.0606, 2018.043
803.5427, 2019.816
804.0248, 2024.467
804.5070, 2028.312
804.9891, 2030.758
805.4712, 2032.085
805.9533, 2031.112
806.4354, 2029.990
806.9175, 2030.363
807.3997, 2032.659
807.8818, 2034.781
808.3639, 2036.731
808.8460, 2038.372
809.3281, 2039.855
809.8102, 2040.893
810.2924, 2040.451
810.7745, 2038.242
811.2566, 2035.996
811.7387, 2034.033
812.2208, 2033.149
812.7029, 2034.191
813.1851, 2037.891
813.6672, 2042.010
814.1493, 2047.417
814.6314, 2051.976
815.1135, 2053.563
815.5956, 2052.033
816.0778, 2050.966
816.5599, 2050.467
817.0420, 2050.641
817.5241, 2051.899
818.0062, 2053.777
818.4883, 2055.607
818.9705, 2057.296
819.4526, 2058.979
819.9347, 2060.625
820.4168, 2062.356
820.8989, 2064.420
821.3810, 2067.125
821.8632, 2068.664
822.3453, 2068.446
822.8274, 2068.379
823.3095, 2070.695
823.7916, 2074.712
824.2737, 2076.288
824.7559, 2075.228
825.2380, 2073.449
825.7201, 2071.084
826.2022, 2069.667
826.6843, 2071.544
827.1664, 2077.490
827.6486, 2081.656
828.1307, 2081.380
828.6128, 2080.231
829.0949, 2079.720
829.5770, 2079.851
830.0591, 2080.754
830.5413, 2082.545
831.0234, 2084.361
831.5055, 2085.265
831.9876, 2085.823
832.4697, 2087.279
832.9518, 2089.605
833.4340, 2091.991
833.9161, 2094.071
834.3982, 2095.914
834.8803, 2097.790
835.3624, 2099.726
835.8445, 2100.219
836.3267, 2098.500
836.8088, 2096.855
837.2909, 2096.456
837.7730, 2097.108
838.2551, 2097.306
838.7372, 2097.159
839.2194, 2098.089
839.7015, 2102.829
840.1836, 2107.813
840.6657, 2109.044
841.1478, 2107.044
841.6299, 2105.404
842.1121, 2104.060
842.5942, 2104.725
843.0763, 2108.812
843.5584, 2115.412
844.0405, 2119.087
844.5226, 2119.344
845.0048, 2120.007
845.4869, 2123.268
845.9690, 2127.494
846.4511, 2129.733
846.9332, 2130.194
847.4153, 2129.554
847.8975, 2126.483
848.3796, 2124.063
848.8617, 2123.990
849.3438, 2125.822
849.8259, 2127.918
850.3080, 2130.586
850.7902, 2132.875
851.2723, 2134.691
851.7544, 2135.925
852.2365, 2135.716
852.7186, 2134.443
853.2007, 2134.410
853.6829, 2137.468
854.1650, 2140.404
854.6471, 2138.722
855.1292, 2135.377
855.6113, 2135.344
856.0934, 2145.044
856.5756, 2151.249
857.0577, 2150.624
857.5398, 2147.362
858.0219, 2148.017
858.5040, 2152.892
858.9861, 2155.570
859.4683, 2154.480
859.9504, 2152.781
860.4325, 2154.854
860.9146, 2158.899
861.3967, 2161.812
861.8788, 2162.458
862.3610, 2162.904
862.8431, 2163.616
863.3252, 2164.668
863.8073, 2166.152
864.2894, 2168.368
864.7715, 2170.203
865.2537, 2171.678
865.7358, 2172.724
866.2179, 2172.834
866.7000, 2172.540
867.1821, 2173.836
867.6642, 2177.062
868.1464, 2179.003
868.6285, 2174.979
869.1106, 2170.739
869.5927, 2171.268
870.0748, 2178.468
870.5569, 2182.958
871.0391, 2183.452
871.5212, 2183.475
872.0033, 2184.837
872.4854, 2187.453
872.9675, 2191.551
873.4496, 2196.959
873.9318, 2200.658
874.4139, 2198.592
874.8960, 2195.388
875.3781, 2195.387
875.8602, 2198.303
876.3423, 2200.708
876.8245, 2200.410
877.3066, 2201.219
877.7887, 2204.835
878.2708, 2210.258
878.7529, 2213.308
879.2350, 2214.008
879.7172, 2213.558
880.1993, 2212.181
880.6814, 2210.308
881.1635, 2207.677
881.6456, 2205.041
882.1277, 2204.135
882.6099, 2207.488
883.0920, 2210.446
883.5741, 2211.126
884.0562, 2210.971
884.5383, 2212.501
885.0204, 2216.078
885.5026, 2219.090
885.9847, 2221.108
886.4668, 2222.292
886.9489, 2221.837
887.4310, 2220.894
887.9131, 2222.073
888.3953, 2226.831
888.8774, 2231.358
889.3595, 2233.790
889.8416, 2235.290
890.3237, 2237.009
890.8058, 2239.169
891.2880, 2240.875
891.7701, 2242.052
892.2522, 2242.932
892.7343, 2243.181
893.2164, 2243.377
893.6985, 2245.443
894.1807, 2249.490
894.6628, 2253.456
895.1449, 2256.099
895.6270, 2258.086
896.1091, 2259.840
896.5912, 2261.364
897.0734, 2262.420
897.5555, 2262.547
898.0376, 2263.273
898.5197, 2265.544
899.0018, 2268.901
899.4839, 2271.665
899.9661, 2273.936
900.4482, 2276.270
900.9303, 2279.813
901.4124, 2282.789
901.8945, 2283.283
902.3766, 2282.228
902.8588, 2282.851
903.3409, 2286.663
903.8230, 2290.004
904.3051, 2292.578
904.7872, 2293.996
905.2693, 2292.573
905.7515, 2288.939
906.2336, 2287.054
906.7157, 2288.418
907.1978, 2290.589
907.6799, 2291.401
908.1620, 2291.803
908.6442, 2293.038
909.1263, 2296.670
909.6084, 2298.642
910.0905, 2298.065
910.5726, 2296.951
911.0547, 2296.906
911.5369, 2297.949
912.0190, 2300.616
912.5011, 2305.034
912.9832, 2308.663
913.4653, 2307.877
913.9474, 2306.362
914.4296, 2308.301
914.9117, 2314.258
915.3938, 2318.026
915.8759, 2316.495
916.3580, 2315.681
916.8401, 2318.357
917.3223, 2323.730
917.8044, 2327.458
918.2865, 2329.541
918.7686, 2330.839
919.2507, 2331.908
919.7328, 2332.297
920.2150, 2330.735
920.6971, 2328.179
921.1792, 2326.958
921.6613, 2328.913
922.1434, 2330.732
922.6255, 2331.826
923.1077, 2332.720
923.5898, 2334.658
924.0719, 2337.518
924.5540, 2338.992
925.0361, 2338.252
925.5182, 2337.542
926.0004, 2339.710
926.4825, 2342.883
926.9646, 2344.687
927.4467, 2343.958
927.9288, 2343.811
928.4109, 2344.886
928.8931, 2346.203
929.3752, 2347.144
929.8573, 2347.710
930.3394, 2348.175
930.8215, 2348.549
931.3036, 2348.519
931.7858, 2346.537
932.2679, 2345.065
932.7500, 2347.567
933.2321, 2353.436
933.7142, 2357.410
934.1964, 2357.426
934.6785, 2356.557
935.1606, 2355.113
935.6427, 2353.538
936.1248, 2353.422
936.6069, 2354.628
937.0891, 2355.505
937.5712, 2355.084
938.0533, 2354.875
938.5354, 2357.083
939.0175, 2360.183
939.4996, 2361.899
939.9818, 2359.644
940.4639, 2359.061
940.9460, 2360.955
941.4281, 2363.690
941.9102, 2365.490
942.3923, 2366.516
942.8745, 2368.333
943.3566, 2371.092
943.8387, 2374.101
944.3208, 2375.965
944.8029, 2378.411
945.2850, 2383.577
945.7672, 2391.717
946.2493, 2398.323
946.7314, 2402.733
947.2135, 2406.265
947.6956, 2409.413
948.1777, 2412.090
948.6599, 2413.069
949.1420, 2412.839
949.6241, 2414.231
950.1062, 2420.057
950.5883, 2426.181
951.0704, 2429.434
951.5526, 2431.071
952.0347, 2433.423
952.5168, 2437.005
952.9989, 2440.767
953.4810, 2444.763
953.9631, 2448.651
954.4453, 2451.593
954.9274, 2454.046
955.4095, 2457.837
955.8916, 2463.258
956.3737, 2468.708
956.8558, 2472.994
957.3380, 2476.962
957.8201, 2481.329
958.3022, 2486.158
958.7843, 2490.508
959.2664, 2494.088
959.7485, 2498.075
960.2307, 2502.939
960.7128, 2508.659
961.1949, 2515.870
961.6770, 2524.027
962.1591, 2531.057
962.6412, 2534.300
963.1234, 2538.279
963.6055, 2544.795
964.0876, 2553.371
964.5697, 2563.401
965.0518, 2575.095
965.5339, 2587.144
966.0161, 2599.506
966.4982, 2612.059
966.9803, 2623.544
967.4624, 2635.608
967.9445, 2651.473
968.4266, 2672.300
968.9088, 2692.034
969.3909, 2705.535
969.8730, 2720.277
970.3551, 2739.962
970.8372, 2764.180
971.3193, 2793.069
971.8015, 2826.499
972.2836, 2860.693
972.7657, 2892.515
973.2478, 2924.322
973.7299, 2959.662
974.2120, 2997.471
974.6942, 3035.446
975.1763, 3070.439
975.6584, 3109.037
976.1405, 3153.507
976.6226, 3200.757
977.1047, 3246.921
977.5869, 3292.357
978.0690, 3337.073
978.5511, 3380.844
979.0332, 3422.596
979.5153, 3462.549
979.9974, 3499.682
980.4796, 3533.172
980.9617, 3562.684
981.4438, 3589.230
981.9259, 3613.466
982.4080, 3634.294
982.8901, 3651.692
983.3723, 3665.384
983.8544, 3674.562
984.3365, 3679.243
984.8186, 3679.538
985.3007, 3674.844
985.7828, 3666.419
986.2650, 3653.060
986.7471, 3636.800
987.2292, 3621.194
987.7113, 3606.430
988.1934, 3591.516
988.6755, 3576.266
989.1577, 3561.071
989.6398, 3546.214
990.1219, 3531.935
990.6040, 3518.435
991.0861, 3505.732
991.5682, 3495.219
992.0504, 3486.209
992.5325, 3481.166
993.0146, 3481.609
993.4967, 3486.832
993.9788, 3493.216
994.4609, 3500.809
994.9431, 3508.369
995.4252, 3513.995
995.9073, 3521.615
996.3894, 3535.329
996.8715, 3554.125
997.3536, 3576.609
997.8358, 3604.422
998.3179, 3632.726
998.8000, 3660.773
999.2821, 3690.186
999.7642, 3722.586
1000.246, 3758.224
1000.728, 3797.148
1001.211, 3839.664
1001.693, 3882.718
1002.175, 3924.712
1002.657, 3966.833
1003.139, 4010.526
1003.621, 4055.318
1004.103, 4095.991
1004.585, 4132.560
1005.068, 4165.356
1005.550, 4196.292
1006.032, 4220.523
1006.514, 4232.137
1006.996, 4231.255
1007.478, 4218.322
1007.960, 4193.425
1008.442, 4156.517
1008.924, 4103.260
1009.407, 4040.719
1009.889, 3971.500
1010.371, 3895.707
1010.853, 3816.760
1011.335, 3733.677
1011.817, 3652.627
1012.299, 3573.367
1012.781, 3500.539
1013.263, 3439.116
1013.746, 3387.438
1014.228, 3338.647
1014.710, 3289.650
1015.192, 3247.251
1015.674, 3213.696
1016.156, 3185.587
1016.638, 3157.161
1017.120, 3129.421
1017.603, 3105.624
1018.085, 3086.198
1018.567, 3069.839
1019.049, 3056.448
1019.531, 3045.281
1020.013, 3036.163
1020.495, 3028.911
1020.977, 3020.771
1021.459, 3011.647
1021.942, 3002.318
1022.424, 2992.554
1022.906, 2983.495
1023.388, 2977.325
1023.870, 2972.816
1024.352, 2967.544
1024.834, 2958.944
1025.316, 2952.414
1025.799, 2949.418
1026.281, 2947.266
1026.763, 2943.483
1027.245, 2938.189
1027.727, 2931.446
1028.209, 2923.290
1028.691, 2914.371
1029.173, 2903.775
1029.656, 2893.719
1030.138, 2886.442
1030.620, 2881.276
1031.102, 2874.202
1031.584, 2864.431
1032.066, 2855.825
1032.548, 2849.680
1033.030, 2843.977
1033.512, 2834.802
1033.995, 2824.306
1034.477, 2816.721
1034.959, 2814.002
1035.441, 2810.318
1035.923, 2803.872
1036.405, 2796.533
1036.887, 2789.143
1037.369, 2781.729
1037.851, 2773.467
1038.334, 2764.655
1038.816, 2756.569
1039.298, 2749.999
1039.780, 2744.452
1040.262, 2739.871
1040.744, 2736.003
1041.226, 2732.269
1041.708, 2728.550
1042.191, 2725.112
1042.673, 2721.857
1043.155, 2719.197
1043.637, 2717.615
1044.119, 2716.835
1044.601, 2716.187
1045.083, 2715.651
1045.565, 2716.231
1046.047, 2721.525
1046.530, 2723.691
1047.012, 2718.218
1047.494, 2709.227
1047.976, 2709.536
1048.458, 2717.874
1048.940, 2723.698
1049.422, 2723.499
1049.904, 2722.171
1050.386, 2723.083
1050.869, 2724.929
1051.351, 2726.290
1051.833, 2726.826
1052.315, 2728.693
1052.797, 2732.336
1053.279, 2735.213
1053.761, 2735.048
1054.243, 2733.715
1054.726, 2734.650
1055.208, 2737.086
1055.690, 2739.026
1056.172, 2740.067
1056.654, 2739.927
1057.136, 2737.639
1057.618, 2735.468
1058.100, 2736.950
1058.583, 2741.267
1059.065, 2742.627
1059.547, 2740.659
1060.029, 2738.312
1060.511, 2737.200
1060.993, 2736.823
1061.475, 2737.188
1061.957, 2738.099
1062.439, 2738.720
1062.922, 2738.962
1063.404, 2739.605
1063.886, 2740.962
1064.368, 2742.397
1064.850, 2743.145
1065.332, 2743.466
1065.814, 2743.691
1066.296, 2743.859
1066.778, 2743.996
1067.261, 2744.110
1067.743, 2744.144
1068.225, 2743.729
1068.707, 2743.375
1069.189, 2745.127
1069.671, 2748.508
1070.153, 2751.769
1070.635, 2753.495
1071.118, 2755.820
1071.600, 2760.786
1072.082, 2765.916
1072.564, 2768.206
1073.046, 2767.228
1073.528, 2768.898
1074.010, 2773.446
1074.492, 2778.071
1074.974, 2779.135
1075.457, 2780.485
1075.939, 2786.783
1076.421, 2796.500
1076.903, 2802.904
1077.385, 2803.659
1077.867, 2806.591
1078.349, 2813.605
1078.831, 2821.374
1079.313, 2824.913
1079.796, 2826.303
1080.278, 2829.196
1080.760, 2834.164
1081.242, 2839.749
1081.724, 2845.655
1082.206, 2852.006
1082.688, 2859.144
1083.170, 2866.468
1083.652, 2871.337
1084.135, 2874.380
1084.617, 2878.794
1085.099, 2886.411
1085.581, 2893.645
1086.063, 2898.642
1086.545, 2901.978
1087.027, 2904.290
1087.509, 2905.572
1087.992, 2907.227
1088.474, 2909.495
1088.956, 2908.973
1089.438, 2901.605
1089.920, 2892.118
1090.402, 2884.347
1090.884, 2878.300
1091.366, 2874.133
1091.849, 2872.372
1092.331, 2871.247
1092.813, 2870.766
1093.295, 2870.386
1093.777, 2868.925
1094.259, 2867.365
1094.741, 2868.423
1095.223, 2871.757
1095.705, 2874.057
1096.188, 2873.862
1096.670, 2872.552
1097.152, 2870.291
1097.634, 2867.523
1098.116, 2864.333
1098.598, 2861.177
1099.080, 2860.616
1099.562, 2863.219
1100.044, 2866.950
1100.527, 2872.648
1101.009, 2877.069
1101.491, 2877.608
1101.973, 2874.901
1102.455, 2871.907
1102.937, 2868.523
1103.419, 2866.635
1103.901, 2866.724
1104.384, 2868.852
1104.866, 2874.446
1105.348, 2881.333
1105.830, 2887.099
1106.312, 2891.315
1106.794, 2894.403
1107.276, 2896.397
1107.758, 2896.971
1108.240, 2894.691
1108.723, 2891.926
1109.205, 2893.642
1109.687, 2898.097
1110.169, 2901.264
1110.651, 2899.781
1111.133, 2900.263
1111.615, 2904.067
1112.097, 2908.538
1112.579, 2911.025
1113.062, 2912.205
1113.544, 2914.582
1114.026, 2918.102
1114.508, 2921.676
1114.990, 2925.030
1115.472, 2927.966
1115.954, 2929.336
1116.436, 2930.990
1116.919, 2936.146
1117.401, 2944.601
1117.883, 2952.624
1118.365, 2959.774
1118.847, 2966.760
1119.329, 2974.276
1119.811, 2981.628
1120.293, 2987.526
1120.776, 2992.755
1121.258, 3000.360
1121.740, 3010.337
1122.222, 3023.129
1122.704, 3039.645
1123.186, 3055.851
1123.668, 3066.974
1124.150, 3076.254
1124.632, 3087.254
1125.115, 3100.652
1125.597, 3113.668
1126.079, 3124.957
1126.561, 3140.722
1127.043, 3165.190
1127.525, 3192.730
1128.007, 3214.715
1128.489, 3233.042
1128.971, 3251.453
1129.454, 3273.763
1129.936, 3287.176
1130.418, 3289.373
1130.900, 3285.935
1131.382, 3281.256
1131.864, 3272.937
1132.346, 3250.651
1132.828, 3218.200
1133.311, 3187.617
1133.793, 3162.777
1134.275, 3142.127
1134.757, 3126.496
1135.239, 3112.700
1135.721, 3097.709
1136.203, 3082.017
1136.685, 3067.810
1137.167, 3055.410
1137.650, 3047.522
1138.132, 3048.607
1138.614, 3051.271
1139.096, 3052.858
1139.578, 3053.625
1140.060, 3053.300
1140.542, 3051.837
1141.024, 3053.858
1141.506, 3059.809
1141.989, 3064.967
1142.471, 3064.750
1142.953, 3063.483
1143.435, 3065.377
1143.917, 3068.687
1144.399, 3067.203
1144.881, 3060.351
1145.363, 3053.137
1145.846, 3046.551
1146.328, 3039.685
1146.810, 3030.733
1147.292, 3021.886
1147.774, 3015.159
1148.256, 3010.841
1148.738, 3007.647
1149.220, 3005.854
1149.703, 3003.945
1150.185, 3001.469
1150.667, 2998.773
1151.149, 2995.623
1151.631, 2992.837
1152.113, 2991.438
1152.595, 2991.610
1153.077, 2993.527
1153.559, 2997.897
1154.042, 3001.933
1154.524, 3004.807
1155.006, 3006.237
1155.488, 3004.831
1155.970, 3001.813
1156.452, 2999.521
1156.934, 2998.343
1157.416, 2998.620
1157.898, 3001.288
1158.381, 3003.417
1158.863, 3002.668
1159.345, 3000.667
1159.827, 3002.827
1160.309, 3007.651
1160.791, 3010.938
1161.273, 3010.367
1161.755, 3009.740
1162.238, 3010.171
1162.720, 3010.501
1163.202, 3009.428
1163.684, 3007.511
1164.166, 3007.655
1164.648, 3009.582
1165.130, 3012.043
1165.612, 3014.189
1166.094, 3017.102
1166.577, 3022.447
1167.059, 3027.253
1167.541, 3027.539
1168.023, 3024.005
1168.505, 3024.129
1168.987, 3027.625
1169.469, 3030.440
1169.951, 3028.226
1170.433, 3027.029
1170.916, 3031.124
1171.398, 3036.822
1171.880, 3039.241
1172.362, 3038.601
1172.844, 3038.409
1173.326, 3038.964
1173.808, 3039.963
1174.290, 3042.468
1174.773, 3044.132
1175.255, 3041.602
1175.737, 3038.090
1176.219, 3041.283
1176.701, 3051.286
1177.183, 3054.554
1177.665, 3049.053
1178.147, 3042.927
1178.630, 3042.448
1179.112, 3043.804
1179.594, 3044.703
1180.076, 3045.164
1180.558, 3045.135
1181.040, 3044.453
1181.522, 3046.784
1182.004, 3053.280
1182.486, 3059.477
1182.969, 3061.163
1183.451, 3060.997
1183.933, 3060.357
1184.415, 3059.659
1184.897, 3061.462
1185.379, 3066.135
1185.861, 3068.651
1186.343, 3066.964
1186.825, 3065.920
1187.308, 3073.059
1187.790, 3081.181
1188.272, 3082.680
1188.754, 3077.411
1189.236, 3072.105
1189.718, 3066.509
1190.200, 3064.461
1190.682, 3068.078
1191.165, 3073.277
1191.647, 3076.347
1192.129, 3078.264
1192.611, 3080.100
1193.093, 3081.949
1193.575, 3082.631
1194.057, 3081.726
1194.539, 3082.697
1195.021, 3087.833
1195.504, 3093.391
1195.986, 3094.873
1196.468, 3094.341
1196.950, 3094.056
1197.432, 3093.980
1197.914, 3096.401
1198.396, 3101.781
1198.878, 3106.359
1199.360, 3107.902
1199.843, 3108.422
1200.325, 3110.579
1200.807, 3113.090
1201.289, 3113.989
1201.771, 3112.773
1202.253, 3111.363
1202.735, 3109.563
1203.217, 3109.209
1203.700, 3112.591
1204.182, 3116.470
1204.664, 3115.757
1205.146, 3119.805
1205.628, 3122.586
1206.110, 3123.749
1206.592, 3128.139
1207.074, 3127.854
1207.557, 3127.402
1208.039, 3129.936
1208.521, 3133.461
1209.003, 3136.152
1209.485, 3138.117
1209.967, 3139.373
1210.449, 3139.167
1210.931, 3140.822
1211.413, 3144.678
1211.896, 3148.321
1212.378, 3149.171
1212.860, 3149.790
1213.342, 3154.923
1213.824, 3161.380
1214.306, 3161.673
1214.788, 3152.145
1215.270, 3148.568
1215.752, 3151.839
1216.235, 3156.637
1216.717, 3160.749
1217.199, 3162.984
1217.681, 3160.616
1218.163, 3155.819
1218.645, 3153.674
1219.127, 3155.220
1219.609, 3156.235
1220.092, 3156.594
1220.574, 3156.077
1221.056, 3152.197
1221.538, 3149.453
1222.020, 3153.698
1222.502, 3161.932
1222.984, 3167.211
1223.466, 3169.048
1223.948, 3168.510
1224.431, 3165.402
1224.913, 3163.238
1225.395, 3165.562
1225.877, 3169.325
1226.359, 3172.085
1226.841, 3174.353
1227.323, 3178.130
1227.805, 3184.252
1228.287, 3184.980
1228.770, 3179.455
1229.252, 3175.107
1229.734, 3179.118
1230.216, 3185.305
1230.698, 3190.150
1231.180, 3193.385
1231.662, 3194.580
1232.144, 3193.501
1232.627, 3193.360
1233.109, 3194.422
1233.591, 3196.144
1234.073, 3198.790
1234.555, 3201.304
1235.037, 3203.121
1235.519, 3204.310
1236.001, 3204.817
1236.484, 3204.663
1236.966, 3205.323
1237.448, 3206.938
1237.930, 3208.022
1238.412, 3205.858
1238.894, 3204.737
1239.376, 3208.717
1239.858, 3207.846
1240.340, 3215.464
1240.823, 3212.507
1241.305, 3213.912
1241.787, 3220.243
1242.269, 3224.858
1242.751, 3220.901
1243.233, 3217.507
1243.715, 3219.533
1244.197, 3223.627
1244.679, 3224.040
1245.162, 3221.742
1245.644, 3222.149
1246.126, 3225.601
1246.608, 3228.990
1247.090, 3228.956
1247.572, 3231.133
1248.054, 3238.194
1248.536, 3246.696
1249.019, 3251.325
1249.501, 3252.876
1249.983, 3253.052
1250.465, 3252.277
1250.947, 3253.617
1251.429, 3262.075
1251.911, 3267.354
1252.393, 3266.468
1252.875, 3263.196
1253.358, 3262.684
1253.840, 3263.678
1254.322, 3262.874
1254.804, 3260.375
1255.286, 3259.515
1255.768, 3262.528
1256.250, 3265.059
1256.732, 3266.293
1257.214, 3267.409
1257.697, 3270.870
1258.179, 3274.657
1258.661, 3274.982
1259.143, 3272.206
1259.625, 3270.027
1260.107, 3268.503
1260.589, 3268.834
1261.071, 3271.375
1261.554, 3275.075
1262.036, 3280.243
1262.518, 3284.878
1263.000, 3285.774
1263.482, 3283.809
1263.964, 3284.035
1264.446, 3287.191
1264.928, 3289.999
1265.411, 3292.021
1265.893, 3293.595
1266.375, 3293.888
1266.857, 3294.867
1267.339, 3299.214
1267.821, 3305.535
1268.303, 3309.221
1268.785, 3310.018
1269.267, 3312.000
1269.750, 3315.663
1270.232, 3318.179
1270.714, 3316.196
1271.196, 3313.720
1271.678, 3313.091
1272.160, 3313.848
1272.642, 3315.707
1273.124, 3318.545
1273.606, 3320.473
1274.089, 3321.383
1274.571, 3322.052
1275.053, 3324.056
1275.535, 3324.406
1276.017, 3320.879
1276.499, 3316.558
1276.981, 3315.311
1277.463, 3316.770
1277.946, 3320.219
1278.428, 3325.253
1278.910, 3329.810
1279.392, 3333.140
1279.874, 3335.381
1280.356, 3336.257
1280.838, 3336.753
1281.320, 3338.247
1281.802, 3340.042
1282.285, 3340.634
1282.767, 3340.159
1283.249, 3339.487
1283.731, 3338.391
1284.213, 3337.950
1284.695, 3338.219
1285.177, 3339.358
1285.659, 3341.452
1286.141, 3344.588
1286.624, 3350.800
1287.106, 3357.938
1287.588, 3359.422
1288.070, 3352.993
1288.552, 3349.225
1289.034, 3348.688
1289.516, 3350.528
1289.998, 3355.500
1290.481, 3361.167
1290.963, 3366.445
1291.445, 3370.549
1291.927, 3372.027
1292.409, 3370.557
1292.891, 3372.095
1293.373, 3376.580
1293.855, 3380.759
1294.338, 3380.387
1294.820, 3382.001
1295.302, 3392.951
1295.784, 3403.608
1296.266, 3403.615
1296.748, 3395.211
1297.230, 3393.312
1297.712, 3397.263
1298.194, 3403.008
1298.677, 3410.958
1299.159, 3414.862
1299.641, 3411.382
1300.123, 3408.645
1300.605, 3414.446
1301.087, 3424.329
1301.569, 3428.109
1302.051, 3426.410
1302.533, 3421.111
1303.016, 3409.645
##END=



