##NAMES=Hydrocerussite
##RRUFFID=R070059
##IDEAL CHEMISTRY=Pb^2+^_3_(CO_3_)_2_(OH)_2_
##LOCALITY=Wanlockhead, Scotland
##OWNER=RRUFF
##SOURCE=William W. Pinch
##DESCRIPTION=Aggregates of colorless thin hexagonal plates, likely a pseudomorph after plumbonacrite
##STATUS=The identification of this mineral is confirmed by single-crystal X-ray diffraction and chemical analysis.
##URL=rruff.info/R070059
##MEASURED CHEMISTRY=Pb_3_(CO_3_)_2_(OH)_2_ ; Pb confirmed by EPMA, CO_2_ and H_2_O not analyzed but confirmed by Raman spectroscopy
158.9151, 14873.01
159.3972, 14909.61
159.8794, 14982.63
160.3615, 15081.15
160.8436, 15198.88
161.3257, 15332.62
161.8078, 15475.26
162.2899, 15610.35
162.7721, 15733.83
163.2542, 15854.35
163.7363, 15975.24
164.2184, 16091.98
164.7005, 16196.27
165.1826, 16285.19
165.6648, 16366.06
166.1469, 16455.07
166.6290, 16570.20
167.1111, 16667.01
167.5932, 16738.66
168.0753, 16790.98
168.5575, 16828.02
169.0396, 16850.36
169.5217, 16865.54
170.0038, 16890.26
170.4859, 16934.70
170.9680, 16969.20
171.4502, 16986.07
171.9323, 16991.33
172.4144, 16993.77
172.8965, 16996.74
173.3786, 16996.35
173.8607, 16983.24
174.3429, 16953.37
174.8250, 16923.05
175.3071, 16887.72
175.7892, 16855.54
176.2713, 16843.18
176.7534, 16858.96
177.2356, 16884.73
177.7177, 16884.90
178.1998, 16852.56
178.6819, 16826.66
179.1640, 16821.26
179.6461, 16827.44
180.1283, 16831.53
180.6104, 16829.99
181.0925, 16824.18
181.5746, 16814.83
182.0567, 16801.59
182.5388, 16788.91
183.0210, 16773.31
183.5031, 16759.92
183.9852, 16761.66
184.4673, 16785.94
184.9494, 16813.07
185.4315, 16813.29
185.9137, 16788.12
186.3958, 16756.82
186.8779, 16714.67
187.3600, 16672.03
187.8421, 16650.38
188.3242, 16658.99
188.8064, 16674.93
189.2885, 16671.72
189.7706, 16651.79
190.2527, 16621.50
190.7348, 16569.13
191.2169, 16510.58
191.6991, 16479.04
192.1812, 16486.66
192.6633, 16500.06
193.1454, 16477.45
193.6275, 16425.86
194.1096, 16382.23
194.5918, 16368.65
195.0739, 16367.49
195.5560, 16345.41
196.0381, 16292.63
196.5202, 16238.94
197.0023, 16217.23
197.4845, 16218.95
197.9666, 16218.46
198.4487, 16198.81
198.9308, 16175.06
199.4129, 16177.47
199.8950, 16215.79
200.3772, 16250.46
200.8593, 16240.70
201.3414, 16201.61
201.8235, 16165.14
202.3056, 16147.07
202.7877, 16134.23
203.2699, 16103.83
203.7520, 16050.39
204.2341, 16001.48
204.7162, 15986.45
205.1983, 15989.53
205.6804, 15980.21
206.1626, 15943.14
206.6447, 15894.33
207.1268, 15849.75
207.6089, 15807.96
208.0910, 15780.52
208.5731, 15788.37
209.0553, 15812.65
209.5374, 15822.79
210.0195, 15811.13
210.5016, 15784.47
210.9837, 15743.09
211.4658, 15684.98
211.9480, 15636.94
212.4301, 15612.41
212.9122, 15607.33
213.3943, 15618.95
213.8764, 15657.45
214.3585, 15695.19
214.8407, 15700.86
215.3228, 15674.26
215.8049, 15650.75
216.2870, 15644.71
216.7691, 15649.78
217.2512, 15659.90
217.7334, 15679.18
218.2155, 15690.38
218.6976, 15669.85
219.1797, 15621.24
219.6618, 15588.15
220.1439, 15588.42
220.6261, 15609.44
221.1082, 15637.22
221.5903, 15673.91
222.0724, 15703.11
222.5545, 15710.55
223.0366, 15699.37
223.5188, 15687.59
224.0009, 15679.82
224.4830, 15672.33
224.9651, 15661.90
225.4472, 15648.68
225.9293, 15631.82
226.4115, 15610.36
226.8936, 15584.81
227.3757, 15554.96
227.8578, 15515.14
228.3399, 15481.18
228.8220, 15473.66
229.3041, 15488.35
229.7863, 15496.64
230.2684, 15484.90
230.7505, 15458.40
231.2326, 15425.32
231.7147, 15382.34
232.1968, 15344.30
232.6790, 15325.63
233.1611, 15322.06
233.6432, 15324.36
234.1253, 15341.03
234.6074, 15357.62
235.0895, 15348.27
235.5717, 15307.86
236.0538, 15264.41
236.5359, 15239.94
237.0180, 15227.36
237.5001, 15210.17
237.9822, 15177.18
238.4644, 15143.52
238.9465, 15128.49
239.4286, 15132.61
239.9107, 15136.55
240.3928, 15131.93
240.8749, 15118.36
241.3571, 15095.05
241.8392, 15049.88
242.3213, 15010.56
242.8034, 15004.07
243.2855, 15026.25
243.7676, 15045.86
244.2498, 15051.29
244.7319, 15044.21
245.2140, 15030.99
245.6961, 15012.20
246.1782, 14986.49
246.6603, 14945.62
247.1425, 14895.82
247.6246, 14859.13
248.1067, 14846.83
248.5888, 14843.14
249.0709, 14818.11
249.5530, 14765.75
250.0352, 14729.57
250.5173, 14736.57
250.9994, 14767.48
251.4815, 14789.03
251.9636, 14793.09
252.4457, 14789.75
252.9279, 14793.88
253.4100, 14806.49
253.8921, 14804.40
254.3742, 14764.91
254.8563, 14717.77
255.3384, 14699.55
255.8206, 14715.07
256.3027, 14739.28
256.7848, 14752.35
257.2669, 14753.32
257.7490, 14746.86
258.2311, 14725.28
258.7133, 14702.27
259.1954, 14688.50
259.6775, 14683.25
260.1596, 14678.12
260.6417, 14666.69
261.1238, 14650.54
261.6060, 14640.91
262.0881, 14642.59
262.5702, 14645.08
263.0523, 14647.42
263.5344, 14647.34
264.0165, 14636.88
264.4987, 14609.41
264.9808, 14573.99
265.4629, 14560.32
265.9450, 14576.70
266.4271, 14599.58
266.9092, 14642.55
267.3914, 14684.08
267.8735, 14689.66
268.3556, 14647.12
268.8377, 14581.65
269.3198, 14535.39
269.8019, 14515.84
270.2841, 14505.63
270.7662, 14517.87
271.2483, 14531.39
271.7304, 14525.82
272.2125, 14499.02
272.6946, 14465.35
273.1768, 14438.84
273.6589, 14417.30
274.1410, 14416.57
274.6231, 14456.75
275.1052, 14496.32
275.5873, 14515.40
276.0695, 14514.63
276.5516, 14504.56
277.0337, 14494.08
277.5158, 14482.66
277.9979, 14452.92
278.4800, 14375.93
278.9622, 14312.47
279.4443, 14277.52
279.9264, 14265.52
280.4085, 14270.34
280.8906, 14289.94
281.3727, 14316.50
281.8549, 14324.47
282.3370, 14303.86
282.8191, 14277.02
283.3012, 14231.25
283.7833, 14188.68
284.2654, 14173.91
284.7476, 14193.18
285.2297, 14225.31
285.7118, 14236.13
286.1939, 14215.85
286.6760, 14200.97
287.1581, 14190.92
287.6403, 14187.84
288.1224, 14200.10
288.6045, 14223.83
289.0866, 14241.76
289.5687, 14236.58
290.0508, 14207.50
290.5330, 14174.29
291.0151, 14123.67
291.4972, 14084.48
291.9793, 14071.86
292.4614, 14078.36
292.9435, 14089.35
293.4257, 14099.47
293.9078, 14105.99
294.3899, 14099.05
294.8720, 14073.72
295.3541, 14045.56
295.8362, 14012.42
296.3184, 13983.04
296.8005, 13968.51
297.2826, 13973.22
297.7647, 13989.92
298.2468, 14015.15
298.7289, 14050.67
299.2111, 14072.45
299.6932, 14065.07
300.1753, 14046.97
300.6574, 14032.51
301.1395, 14022.46
301.6216, 14020.55
302.1038, 14031.12
302.5859, 14052.22
303.0680, 14078.29
303.5501, 14111.97
304.0322, 14143.42
304.5143, 14164.91
304.9964, 14177.30
305.4785, 14180.50
305.9607, 14166.46
306.4428, 14146.94
306.9249, 14133.76
307.4070, 14127.32
307.8891, 14136.38
308.3712, 14178.53
308.8534, 14241.16
309.3355, 14272.38
309.8176, 14239.67
310.2997, 14206.45
310.7818, 14213.38
311.2639, 14250.47
311.7461, 14287.70
312.2282, 14314.96
312.7103, 14330.03
313.1924, 14323.13
313.6745, 14279.88
314.1566, 14250.25
314.6388, 14250.66
315.1209, 14267.20
315.6030, 14285.25
316.0851, 14301.16
316.5672, 14315.59
317.0493, 14329.71
317.5315, 14344.49
318.0136, 14353.83
318.4957, 14355.08
318.9778, 14353.67
319.4599, 14346.86
319.9420, 14339.03
320.4242, 14343.52
320.9063, 14372.26
321.3884, 14421.66
321.8705, 14452.93
322.3526, 14445.38
322.8347, 14442.57
323.3169, 14463.61
323.7990, 14489.12
324.2811, 14489.13
324.7632, 14451.46
325.2453, 14399.89
325.7274, 14384.68
326.2096, 14429.64
326.6917, 14458.73
327.1738, 14462.01
327.6559, 14454.08
328.1380, 14439.11
328.6201, 14420.34
329.1023, 14405.13
329.5844, 14402.93
330.0665, 14414.05
330.5486, 14419.09
331.0307, 14417.53
331.5128, 14409.74
331.9950, 14391.88
332.4771, 14368.86
332.9592, 14350.31
333.4413, 14342.00
333.9234, 14339.52
334.4055, 14336.00
334.8877, 14332.70
335.3698, 14322.59
335.8519, 14292.48
336.3340, 14259.59
336.8161, 14248.95
337.2982, 14271.32
337.7804, 14278.36
338.2625, 14208.19
338.7446, 14084.17
339.2267, 14014.59
339.7088, 14037.97
340.1909, 14092.19
340.6731, 14114.69
341.1552, 14108.86
341.6373, 14090.76
342.1194, 14054.02
342.6015, 14013.10
343.0836, 13984.26
343.5658, 13968.31
344.0479, 13959.85
344.5300, 13958.16
345.0121, 13960.85
345.4942, 13953.62
345.9763, 13922.03
346.4585, 13897.37
346.9406, 13894.05
347.4227, 13905.07
347.9048, 13919.65
348.3869, 13934.09
348.8690, 13945.59
349.3512, 13948.57
349.8333, 13935.35
350.3154, 13928.13
350.7975, 13934.12
351.2796, 13940.51
351.7617, 13939.00
352.2439, 13928.64
352.7260, 13911.16
353.2081, 13886.25
353.6902, 13853.54
354.1723, 13835.19
354.6544, 13836.89
355.1366, 13848.67
355.6187, 13883.79
356.1008, 13923.63
356.5829, 13943.29
357.0650, 13931.16
357.5471, 13895.92
358.0293, 13848.59
358.5114, 13779.45
358.9935, 13729.93
359.4756, 13724.69
359.9577, 13729.24
360.4398, 13721.54
360.9220, 13700.98
361.4041, 13684.00
361.8862, 13691.90
362.3683, 13716.87
362.8504, 13713.46
363.3326, 13660.82
363.8147, 13620.54
364.2968, 13656.65
364.7789, 13730.16
365.2610, 13765.81
365.7431, 13720.70
366.2253, 13656.45
366.7074, 13637.22
367.1895, 13656.62
367.6716, 13661.91
368.1537, 13624.54
368.6358, 13572.30
369.1180, 13561.19
369.6001, 13601.57
370.0822, 13631.09
370.5643, 13620.16
371.0464, 13595.28
371.5285, 13587.01
372.0107, 13599.98
372.4928, 13624.47
372.9749, 13654.04
373.4570, 13689.24
373.9391, 13713.73
374.4212, 13730.82
374.9034, 13735.55
375.3855, 13708.71
375.8676, 13671.18
376.3497, 13662.91
376.8318, 13703.41
377.3139, 13768.10
377.7961, 13800.21
378.2782, 13773.31
378.7603, 13762.39
379.2424, 13779.08
379.7245, 13802.97
380.2066, 13820.76
380.6888, 13832.03
381.1709, 13844.56
381.6530, 13865.35
382.1351, 13893.88
382.6172, 13921.66
383.0993, 13940.60
383.5815, 13973.08
384.0636, 14052.07
384.5457, 14140.20
385.0278, 14180.59
385.5099, 14142.99
385.9920, 14088.33
386.4742, 14089.80
386.9563, 14144.62
387.4384, 14197.31
387.9205, 14236.25
388.4026, 14265.22
388.8847, 14283.60
389.3669, 14291.98
389.8490, 14311.19
390.3311, 14360.95
390.8132, 14418.57
391.2953, 14451.73
391.7774, 14459.97
392.2596, 14472.77
392.7417, 14512.20
393.2238, 14571.97
393.7059, 14614.39
394.1880, 14625.43
394.6701, 14638.92
395.1523, 14664.16
395.6344, 14696.67
396.1165, 14732.06
396.5986, 14768.63
397.0807, 14803.06
397.5628, 14830.65
398.0450, 14849.64
398.5271, 14867.70
399.0092, 14883.90
399.4913, 14900.16
399.9734, 14916.22
400.4555, 14933.00
400.9377, 14950.94
401.4197, 14968.90
401.9019, 14991.66
402.3840, 15038.38
402.8661, 15126.77
403.3482, 15191.70
403.8303, 15196.58
404.3124, 15187.12
404.7946, 15193.87
405.2767, 15220.75
405.7588, 15256.15
406.2409, 15300.94
406.7230, 15348.36
407.2051, 15371.47
407.6873, 15362.11
408.1694, 15348.75
408.6515, 15345.44
409.1336, 15353.49
409.6157, 15377.77
410.0978, 15434.15
410.5800, 15488.69
411.0621, 15519.94
411.5442, 15532.97
412.0263, 15538.73
412.5084, 15539.68
412.9905, 15540.65
413.4727, 15549.85
413.9548, 15573.03
414.4369, 15586.66
414.9190, 15578.79
415.4011, 15571.45
415.8832, 15582.77
416.3654, 15607.43
416.8475, 15626.66
417.3296, 15628.21
417.8117, 15616.09
418.2938, 15608.05
418.7759, 15616.40
419.2581, 15607.54
419.7402, 15562.99
420.2223, 15511.74
420.7044, 15480.46
421.1865, 15471.08
421.6686, 15461.18
422.1508, 15424.68
422.6329, 15365.36
423.1150, 15323.92
423.5971, 15314.25
424.0792, 15295.76
424.5613, 15230.52
425.0435, 15145.97
425.5256, 15087.98
426.0077, 15079.73
426.4898, 15075.24
426.9719, 15034.00
427.4540, 14964.12
427.9362, 14896.13
428.4183, 14838.65
428.9004, 14783.10
429.3825, 14719.44
429.8646, 14646.81
430.3467, 14569.26
430.8289, 14482.01
431.3110, 14394.29
431.7931, 14308.15
432.2752, 14226.13
432.7573, 14154.52
433.2394, 14096.78
433.7216, 14050.96
434.2037, 14012.92
434.6858, 13998.56
435.1679, 13965.04
435.6500, 13903.87
436.1321, 13830.92
436.6143, 13749.52
437.0964, 13664.79
437.5785, 13589.12
438.0606, 13535.78
438.5427, 13499.70
439.0248, 13454.49
439.5070, 13392.32
439.9891, 13339.15
440.4712, 13321.00
440.9533, 13309.52
441.4354, 13272.89
441.9175, 13203.14
442.3997, 13126.74
442.8818, 13056.11
443.3639, 12993.11
443.8460, 12944.08
444.3281, 12910.81
444.8102, 12884.78
445.2924, 12858.22
445.7745, 12832.16
446.2566, 12816.39
446.7387, 12833.73
447.2208, 12836.77
447.7029, 12797.81
448.1851, 12733.12
448.6672, 12666.12
449.1493, 12605.69
449.6314, 12555.08
450.1135, 12521.87
450.5956, 12514.53
451.0778, 12494.38
451.5599, 12439.13
452.0420, 12394.28
452.5241, 12392.05
453.0062, 12411.59
453.4883, 12408.91
453.9705, 12357.55
454.4526, 12288.49
454.9347, 12268.31
455.4168, 12307.35
455.8989, 12312.25
456.3810, 12234.66
456.8632, 12143.97
457.3453, 12101.54
457.8274, 12103.57
458.3095, 12110.67
458.7916, 12117.53
459.2737, 12115.49
459.7559, 12086.78
460.2380, 12035.02
460.7201, 11990.74
461.2022, 11969.93
461.6843, 11965.54
462.1664, 11961.40
462.6486, 11960.87
463.1307, 11954.04
463.6128, 11936.36
464.0949, 11914.75
464.5770, 11889.62
465.0591, 11864.74
465.5413, 11852.54
466.0234, 11865.79
466.5055, 11896.26
466.9876, 11897.58
467.4697, 11848.77
467.9518, 11807.79
468.4340, 11787.87
468.9161, 11778.07
469.3982, 11771.90
469.8803, 11767.64
470.3624, 11762.22
470.8445, 11751.96
471.3267, 11738.66
471.8088, 11728.76
472.2909, 11723.49
472.7730, 11716.15
473.2551, 11700.46
473.7372, 11680.72
474.2194, 11669.55
474.7015, 11677.21
475.1836, 11673.63
475.6657, 11632.91
476.1478, 11580.74
476.6299, 11554.69
477.1121, 11559.38
477.5942, 11569.26
478.0763, 11559.88
478.5584, 11531.82
479.0405, 11516.06
479.5226, 11524.18
480.0048, 11531.30
480.4869, 11541.50
480.9690, 11544.65
481.4511, 11523.21
481.9332, 11475.50
482.4153, 11429.76
482.8975, 11421.91
483.3796, 11448.58
483.8617, 11460.66
484.3438, 11454.21
484.8259, 11438.60
485.3080, 11401.98
485.7902, 11363.88
486.2723, 11361.47
486.7544, 11420.57
487.2365, 11471.50
487.7186, 11465.66
488.2007, 11421.95
488.6829, 11371.61
489.1650, 11320.94
489.6471, 11280.37
490.1292, 11260.55
490.6113, 11261.97
491.0934, 11266.56
491.5756, 11279.73
492.0577, 11289.23
492.5398, 11290.81
493.0219, 11287.54
493.5040, 11282.76
493.9861, 11277.57
494.4683, 11271.76
494.9504, 11264.35
495.4325, 11255.12
495.9146, 11251.46
496.3967, 11266.27
496.8788, 11264.90
497.3610, 11212.98
497.8431, 11141.98
498.3252, 11097.56
498.8073, 11093.76
499.2894, 11104.36
499.7715, 11121.65
500.2536, 11137.83
500.7357, 11129.14
501.2179, 11089.92
501.7000, 11048.98
502.1821, 11030.95
502.6642, 11035.12
503.1463, 11041.66
503.6284, 11054.19
504.1106, 11064.32
504.5927, 11072.63
505.0748, 11076.04
505.5569, 11067.53
506.0390, 11047.42
506.5211, 11028.26
507.0033, 11025.49
507.4854, 11038.54
507.9675, 11043.16
508.4496, 11033.94
508.9317, 11025.53
509.4138, 11026.11
509.8960, 11029.27
510.3781, 11027.28
510.8602, 11018.08
511.3423, 11007.87
511.8244, 11003.75
512.3066, 11000.89
512.7887, 10987.62
513.2708, 10962.38
513.7529, 10936.03
514.2350, 10915.11
514.7172, 10899.64
515.1993, 10890.27
515.6814, 10889.79
516.1635, 10890.79
516.6456, 10896.20
517.1277, 10900.08
517.6099, 10890.23
518.0920, 10870.17
518.5741, 10863.25
519.0562, 10896.39
519.5383, 10956.62
520.0204, 10971.80
520.5026, 10925.31
520.9847, 10874.66
521.4668, 10826.48
521.9489, 10789.07
522.4310, 10773.63
522.9131, 10780.75
523.3953, 10791.32
523.8774, 10797.98
524.3595, 10801.42
524.8416, 10802.40
525.3237, 10800.99
525.8058, 10796.99
526.2880, 10789.82
526.7701, 10780.92
527.2522, 10774.06
527.7343, 10775.86
528.2164, 10767.14
528.6985, 10735.08
529.1807, 10703.93
529.6628, 10689.24
530.1449, 10688.30
530.6270, 10690.62
531.1091, 10690.58
531.5912, 10689.59
532.0734, 10691.31
532.5555, 10696.42
533.0376, 10698.05
533.5197, 10690.43
534.0018, 10684.66
534.4839, 10701.33
534.9661, 10731.05
535.4482, 10731.41
535.9303, 10655.99
536.4124, 10580.11
536.8945, 10567.22
537.3766, 10596.00
537.8588, 10619.28
538.3409, 10622.19
538.8230, 10610.00
539.3051, 10586.54
539.7872, 10548.54
540.2693, 10523.81
540.7515, 10522.19
541.2336, 10522.50
541.7157, 10514.71
542.1978, 10507.92
542.6799, 10521.92
543.1620, 10561.12
543.6442, 10588.13
544.1263, 10548.14
544.6084, 10460.17
545.0905, 10420.17
545.5726, 10443.34
546.0547, 10471.41
546.5369, 10470.43
547.0190, 10450.53
547.5011, 10440.86
547.9832, 10446.08
548.4653, 10451.01
548.9474, 10452.97
549.4296, 10451.84
549.9116, 10444.78
550.3937, 10433.72
550.8759, 10427.60
551.3580, 10433.85
551.8401, 10445.93
552.3222, 10437.92
552.8043, 10393.01
553.2864, 10370.34
553.7686, 10411.65
554.2507, 10450.73
554.7328, 10444.21
555.2149, 10399.80
555.6970, 10355.55
556.1791, 10323.42
556.6613, 10303.54
557.1434, 10302.61
557.6255, 10315.67
558.1076, 10321.34
558.5897, 10312.22
559.0718, 10299.47
559.5540, 10297.09
560.0361, 10307.44
560.5182, 10309.80
561.0003, 10291.00
561.4824, 10280.66
561.9645, 10294.97
562.4467, 10319.54
562.9288, 10339.33
563.4109, 10349.30
563.8930, 10347.46
564.3751, 10321.25
564.8572, 10277.53
565.3394, 10268.15
565.8215, 10305.37
566.3036, 10332.31
566.7857, 10317.46
567.2678, 10277.79
567.7499, 10241.93
568.2321, 10205.12
568.7142, 10190.50
569.1963, 10233.30
569.6784, 10279.42
570.1605, 10272.44
570.6426, 10223.06
571.1248, 10178.40
571.6069, 10164.10
572.0890, 10169.32
572.5711, 10171.25
573.0532, 10168.51
573.5353, 10167.32
574.0175, 10175.14
574.4996, 10176.64
574.9817, 10158.76
575.4638, 10130.23
575.9459, 10109.39
576.4280, 10103.02
576.9102, 10103.08
577.3923, 10103.62
577.8744, 10105.59
578.3565, 10113.67
578.8386, 10128.61
579.3207, 10139.36
579.8029, 10136.54
580.2850, 10121.60
580.7671, 10105.66
581.2492, 10080.67
581.7313, 10065.60
582.2134, 10071.68
582.6956, 10080.62
583.1777, 10074.73
583.6598, 10056.82
584.1419, 10045.98
584.6240, 10059.58
585.1061, 10081.51
585.5883, 10076.36
586.0704, 10045.14
586.5525, 10027.35
587.0346, 10036.05
587.5167, 10057.51
587.9988, 10083.99
588.4810, 10115.72
588.9631, 10118.78
589.4452, 10064.20
589.9273, 10012.79
590.4094, 9990.585
590.8915, 9984.396
591.3737, 9975.150
591.8558, 9958.946
592.3379, 9946.119
592.8200, 9950.255
593.3021, 9967.206
593.7842, 9966.475
594.2664, 9941.252
594.7485, 9918.604
595.2306, 9850.663
595.7127, 9882.714
596.1948, 9898.836
596.6769, 9899.887
597.1591, 9840.720
597.6412, 9859.312
598.1233, 9846.741
598.6054, 9832.894
599.0875, 9862.428
599.5696, 9812.021
600.0518, 9840.867
600.5339, 9838.078
601.0160, 9837.359
601.4981, 9854.805
601.9802, 9858.214
602.4623, 9836.738
602.9445, 9817.504
603.4266, 9809.243
603.9087, 9808.700
604.3908, 9816.869
604.8729, 9835.233
605.3550, 9841.317
605.8372, 9803.732
606.3193, 9758.104
606.8014, 9761.439
607.2835, 9805.546
607.7656, 9832.635
608.2477, 9812.955
608.7299, 9772.231
609.2120, 9760.578
609.6941, 9792.854
610.1762, 9807.283
610.6583, 9788.068
611.1404, 9767.733
611.6226, 9756.640
612.1047, 9751.448
612.5868, 9747.644
613.0689, 9744.309
613.5510, 9738.388
614.0331, 9723.176
614.5153, 9704.794
614.9974, 9697.105
615.4795, 9700.738
615.9616, 9707.987
616.4437, 9715.977
616.9258, 9722.069
617.4080, 9719.616
617.8901, 9703.399
618.3722, 9689.618
618.8543, 9679.268
619.3364, 9670.110
619.8185, 9660.909
620.3007, 9652.202
620.7828, 9645.409
621.2649, 9641.326
621.7470, 9637.021
622.2291, 9627.819
622.7112, 9615.928
623.1934, 9609.877
623.6755, 9610.876
624.1576, 9610.028
624.6397, 9600.893
625.1218, 9587.418
625.6039, 9580.326
626.0861, 9584.884
626.5682, 9586.045
627.0503, 9571.735
627.5324, 9565.302
628.0145, 9596.335
628.4966, 9642.348
628.9788, 9653.519
629.4609, 9607.040
629.9430, 9547.119
630.4251, 9525.425
630.9072, 9536.089
631.3893, 9554.658
631.8715, 9580.695
632.3536, 9602.435
632.8357, 9613.477
633.3178, 9614.943
633.7999, 9609.326
634.2820, 9594.650
634.7642, 9577.371
635.2463, 9549.190
635.7284, 9526.610
636.2105, 9522.193
636.6926, 9531.039
637.1747, 9543.559
637.6569, 9556.167
638.1390, 9564.577
638.6211, 9558.622
639.1032, 9542.023
639.5853, 9541.713
640.0674, 9564.198
640.5496, 9576.363
641.0317, 9553.490
641.5138, 9511.183
641.9959, 9492.091
642.4780, 9510.637
642.9601, 9515.848
643.4423, 9487.200
643.9244, 9460.046
644.4065, 9459.650
644.8886, 9476.238
645.3707, 9489.469
645.8528, 9491.361
646.3350, 9485.333
646.8171, 9477.399
647.2992, 9465.701
647.7813, 9432.092
648.2634, 9369.492
648.7455, 9330.793
649.2277, 9354.647
649.7098, 9410.615
650.1919, 9431.258
650.6740, 9399.422
651.1561, 9382.146
651.6382, 9393.494
652.1204, 9409.422
652.6025, 9422.150
653.0846, 9429.091
653.5667, 9425.828
654.0488, 9411.208
654.5309, 9395.282
655.0131, 9389.774
655.4952, 9391.896
655.9773, 9390.494
656.4594, 9384.749
656.9415, 9382.134
657.4236, 9387.768
657.9058, 9395.711
658.3879, 9397.003
658.8700, 9392.793
659.3521, 9375.800
659.8342, 9319.876
660.3163, 9280.442
660.7985, 9294.708
661.2806, 9332.231
661.7627, 9353.764
662.2448, 9349.481
662.7269, 9333.122
663.2090, 9307.236
663.6912, 9280.578
664.1733, 9278.275
664.6554, 9299.396
665.1375, 9315.430
665.6196, 9316.524
666.1017, 9306.216
666.5839, 9284.487
667.0660, 9246.272
667.5481, 9238.578
668.0302, 9295.670
668.5123, 9338.327
668.9944, 9341.953
669.4766, 9326.390
669.9587, 9303.125
670.4408, 9278.753
670.9229, 9272.645
671.4050, 9309.669
671.8871, 9361.267
672.3693, 9392.011
672.8514, 9401.994
673.3335, 9383.517
673.8156, 9331.939
674.2977, 9287.667
674.7798, 9295.023
675.2620, 9349.561
675.7441, 9380.917
676.2262, 9366.569
676.7083, 9363.428
677.1904, 9391.467
677.6725, 9421.012
678.1547, 9431.029
678.6368, 9423.747
679.1189, 9412.542
679.6010, 9402.357
680.0831, 9390.921
680.5652, 9376.585
681.0474, 9359.501
681.5295, 9342.942
682.0116, 9326.241
682.4937, 9294.143
682.9758, 9230.779
683.4579, 9156.311
683.9401, 9141.919
684.4222, 9216.616
684.9043, 9267.276
685.3864, 9274.828
685.8685, 9268.557
686.3506, 9258.954
686.8328, 9248.151
687.3149, 9241.468
687.7970, 9243.615
688.2791, 9237.959
688.7612, 9204.198
689.2433, 9167.325
689.7255, 9158.122
690.2076, 9171.130
690.6897, 9182.215
691.1718, 9180.102
691.6539, 9169.931
692.1360, 9158.476
692.6182, 9145.588
693.1003, 9133.492
693.5824, 9117.911
694.0645, 9115.819
694.5466, 9145.603
695.0287, 9185.745
695.5109, 9202.300
695.9930, 9192.562
696.4751, 9182.364
696.9572, 9175.019
697.4393, 9168.974
697.9214, 9164.725
698.4036, 9160.725
698.8857, 9154.888
699.3678, 9146.760
699.8499, 9137.311
700.3320, 9127.700
700.8141, 9117.185
701.2963, 9099.291
701.7784, 9074.356
702.2605, 9067.581
702.7426, 9088.826
703.2247, 9121.608
703.7068, 9155.665
704.1890, 9189.674
704.6711, 9191.729
705.1532, 9137.825
705.6353, 9085.194
706.1174, 9030.455
706.5995, 8987.334
707.0817, 8971.405
707.5638, 8976.297
708.0459, 8980.779
708.5280, 8974.810
709.0101, 8967.728
709.4922, 8972.025
709.9744, 8980.875
710.4565, 8974.557
710.9386, 8953.404
711.4207, 8945.406
711.9028, 8970.114
712.3849, 9008.340
712.8671, 9011.767
713.3492, 8964.859
713.8313, 8939.430
714.3134, 8954.279
714.7955, 8964.924
715.2776, 8939.171
715.7598, 8904.275
716.2419, 8900.714
716.7240, 8937.018
717.2061, 8963.546
717.6882, 8959.655
718.1703, 8942.811
718.6525, 8917.694
719.1346, 8891.688
719.6167, 8880.663
720.0988, 8886.998
720.5809, 8889.842
721.0630, 8861.495
721.5452, 8816.077
722.0273, 8817.925
722.5094, 8872.783
722.9915, 8901.760
723.4736, 8877.636
723.9557, 8837.111
724.4379, 8811.242
724.9200, 8800.085
725.4021, 8803.637
725.8842, 8843.485
726.3663, 8866.644
726.8484, 8854.640
727.3306, 8833.236
727.8127, 8817.133
728.2948, 8808.144
728.7769, 8806.295
729.2590, 8813.631
729.7411, 8820.129
730.2233, 8815.543
730.7054, 8803.732
731.1875, 8791.985
731.6696, 8780.825
732.1517, 8767.376
732.6339, 8749.565
733.1160, 8732.892
733.5981, 8727.926
734.0802, 8736.454
734.5623, 8744.256
735.0444, 8754.789
735.5266, 8758.271
736.0087, 8744.166
736.4908, 8725.730
736.9729, 8718.626
737.4550, 8723.271
737.9371, 8723.782
738.4193, 8712.013
738.9014, 8700.353
739.3835, 8694.194
739.8656, 8692.389
740.3477, 8693.221
740.8298, 8696.473
741.3120, 8703.789
741.7941, 8718.189
742.2762, 8733.120
742.7583, 8738.215
743.2404, 8733.447
743.7225, 8713.948
744.2047, 8676.262
744.6868, 8647.872
745.1689, 8649.560
745.6510, 8670.750
746.1331, 8680.816
746.6152, 8676.231
747.0973, 8668.341
747.5794, 8651.714
748.0615, 8637.930
748.5436, 8634.216
749.0258, 8634.407
749.5079, 8628.788
749.9900, 8615.472
750.4721, 8605.985
750.9542, 8611.847
751.4363, 8618.313
751.9185, 8608.597
752.4006, 8590.791
752.8827, 8582.995
753.3648, 8588.576
753.8469, 8595.518
754.3290, 8594.134
754.8112, 8584.925
755.2933, 8566.576
755.7754, 8538.494
756.2575, 8517.232
756.7396, 8506.349
757.2217, 8502.178
757.7039, 8505.384
758.1860, 8512.203
758.6681, 8507.023
759.1502, 8466.851
759.6323, 8452.617
760.1144, 8498.799
760.5966, 8535.302
761.0787, 8518.486
761.5608, 8472.142
762.0429, 8433.575
762.5250, 8411.612
763.0071, 8401.186
763.4893, 8404.743
763.9714, 8413.927
764.4535, 8422.910
764.9356, 8429.324
765.4177, 8423.348
765.8998, 8404.379
766.3820, 8395.056
766.8641, 8423.885
767.3462, 8473.465
767.8283, 8466.245
768.3104, 8393.086
768.7925, 8349.128
769.2747, 8361.018
769.7568, 8384.664
770.2389, 8390.631
770.7210, 8381.138
771.2031, 8363.741
771.6852, 8328.938
772.1674, 8303.769
772.6495, 8292.665
773.1316, 8287.786
773.6137, 8289.106
774.0958, 8292.397
774.5779, 8290.963
775.0601, 8283.306
775.5422, 8276.935
776.0243, 8277.813
776.5064, 8281.120
776.9885, 8283.654
777.4706, 8283.982
777.9528, 8279.955
778.4349, 8270.764
778.9170, 8253.783
779.3991, 8224.794
779.8812, 8189.811
780.3633, 8168.006
780.8455, 8159.905
781.3276, 8158.185
781.8097, 8165.172
782.2918, 8167.361
782.7739, 8152.375
783.2560, 8128.079
783.7382, 8117.195
784.2203, 8128.130
784.7024, 8134.208
785.1845, 8132.344
785.6666, 8129.286
786.1487, 8127.254
786.6309, 8125.716
787.1130, 8125.143
787.5951, 8125.182
788.0772, 8120.668
788.5593, 8104.453
789.0414, 8087.276
789.5236, 8078.029
790.0057, 8073.805
790.4878, 8072.924
790.9699, 8072.862
791.4520, 8063.922
791.9341, 8037.754
792.4163, 8005.964
792.8984, 7991.681
793.3805, 7993.175
793.8626, 7991.044
794.3447, 7982.621
794.8268, 7979.089
795.3090, 7987.504
795.7911, 8001.744
796.2732, 8012.865
796.7553, 8023.970
797.2374, 8013.639
797.7195, 7955.788
798.2017, 7913.781
798.6838, 7914.229
799.1659, 7927.156
799.6480, 7924.780
800.1301, 7909.640
800.6122, 7904.677
801.0944, 7926.637
801.5765, 7944.623
802.0586, 7944.044
802.5407, 7933.962
803.0228, 7924.200
803.5049, 7912.905
803.9871, 7887.975
804.4692, 7843.396
804.9513, 7805.322
805.4334, 7807.083
805.9155, 7834.252
806.3976, 7856.868
806.8798, 7873.344
807.3619, 7879.520
807.8440, 7873.609
808.3261, 7867.763
808.8082, 7877.354
809.2903, 7897.845
809.7725, 7895.134
810.2546, 7862.373
810.7367, 7831.503
811.2188, 7804.478
811.7009, 7785.188
812.1830, 7775.856
812.6652, 7776.377
813.1473, 7788.771
813.6294, 7826.242
814.1115, 7841.420
814.5936, 7811.131
815.0757, 7779.293
815.5579, 7765.550
816.0400, 7762.015
816.5221, 7757.809
817.0042, 7751.244
817.4863, 7746.444
817.9684, 7753.667
818.4506, 7755.093
818.9327, 7723.341
819.4148, 7681.584
819.8969, 7671.390
820.3790, 7691.938
820.8611, 7712.420
821.3433, 7715.186
821.8254, 7706.593
822.3075, 7693.384
822.7896, 7677.004
823.2717, 7665.532
823.7538, 7659.502
824.2360, 7652.550
824.7181, 7640.825
825.2002, 7633.509
825.6823, 7644.299
826.1644, 7672.394
826.6465, 7686.859
827.1287, 7680.678
827.6108, 7677.151
828.0929, 7690.993
828.5750, 7696.182
829.0571, 7662.363
829.5392, 7607.383
830.0214, 7576.706
830.5035, 7578.741
830.9856, 7589.103
831.4677, 7621.530
831.9498, 7641.739
832.4319, 7615.046
832.9141, 7572.358
833.3962, 7562.282
833.8783, 7589.462
834.3604, 7607.440
834.8425, 7577.013
835.3246, 7539.792
835.8068, 7541.967
836.2889, 7561.400
836.7710, 7555.054
837.2531, 7524.367
837.7352, 7507.349
838.2173, 7526.278
838.6995, 7555.703
839.1816, 7558.533
839.6637, 7538.081
840.1458, 7500.581
840.6279, 7446.333
841.1100, 7431.599
841.5922, 7482.909
842.0743, 7543.132
842.5564, 7547.354
843.0385, 7502.212
843.5206, 7470.783
844.0027, 7456.463
844.4849, 7446.410
844.9670, 7435.711
845.4491, 7433.968
845.9312, 7456.653
846.4133, 7489.771
846.8954, 7499.425
847.3776, 7476.695
847.8597, 7462.605
848.3418, 7463.221
848.8239, 7470.223
849.3060, 7493.522
849.7881, 7512.652
850.2703, 7495.446
850.7524, 7449.037
851.2345, 7425.021
851.7166, 7457.168
852.1987, 7493.376
852.6808, 7490.466
853.1630, 7480.606
853.6451, 7509.777
854.1272, 7564.424
854.6093, 7602.227
855.0914, 7606.477
855.5735, 7589.401
856.0557, 7543.017
856.5378, 7493.283
857.0199, 7509.075
857.5020, 7573.954
857.9841, 7613.772
858.4662, 7612.367
858.9484, 7598.771
859.4305, 7594.009
859.9126, 7595.492
860.3947, 7597.465
860.8768, 7600.039
861.3589, 7600.788
861.8411, 7599.019
862.3232, 7598.441
862.8053, 7602.581
863.2874, 7604.668
863.7695, 7591.812
864.2516, 7563.190
864.7338, 7561.522
865.2159, 7630.500
865.6980, 7653.131
866.1801, 7560.782
866.6622, 7469.770
867.1443, 7454.635
867.6265, 7489.176
868.1086, 7516.959
868.5907, 7536.291
869.0728, 7536.324
869.5549, 7505.951
870.0370, 7465.867
870.5192, 7414.204
871.0013, 7366.153
871.4834, 7342.144
871.9655, 7340.527
872.4476, 7340.895
872.9297, 7336.942
873.4119, 7326.468
873.8940, 7299.248
874.3761, 7270.438
874.8582, 7257.400
875.3403, 7259.681
875.8224, 7278.520
876.3046, 7312.029
876.7867, 7328.623
877.2688, 7281.167
877.7509, 7206.218
878.2330, 7177.065
878.7151, 7184.982
879.1973, 7203.119
879.6794, 7224.413
880.1615, 7232.061
880.6436, 7213.005
881.1257, 7184.541
881.6078, 7183.733
882.0900, 7209.897
882.5721, 7226.617
883.0542, 7233.843
883.5363, 7221.664
884.0184, 7178.929
884.5005, 7140.717
884.9827, 7148.780
885.4648, 7194.479
885.9469, 7211.148
886.4290, 7186.401
886.9111, 7164.692
887.3932, 7148.235
887.8754, 7137.146
888.3575, 7133.163
888.8396, 7133.656
889.3217, 7134.355
889.8038, 7135.077
890.2859, 7137.341
890.7681, 7142.667
891.2502, 7147.559
891.7323, 7157.765
892.2144, 7161.439
892.6965, 7139.682
893.1786, 7105.223
893.6608, 7095.528
894.1429, 7129.375
894.6250, 7146.947
895.1071, 7105.290
895.5892, 7062.232
896.0714, 7058.226
896.5535, 7074.849
897.0356, 7087.503
897.5177, 7091.590
897.9998, 7091.308
898.4819, 7085.531
898.9641, 7083.231
899.4462, 7102.419
899.9283, 7122.880
900.4104, 7109.661
900.8925, 7073.885
901.3746, 7053.062
901.8568, 7058.943
902.3389, 7069.967
902.8210, 7066.746
903.3031, 7055.362
903.7852, 7043.436
904.2673, 7032.965
904.7495, 7032.289
905.2316, 7041.542
905.7137, 7052.658
906.1958, 7061.604
906.6779, 7065.298
907.1600, 7055.475
907.6422, 7034.974
908.1243, 7026.122
908.6064, 7028.991
909.0885, 7034.363
909.5706, 7040.863
910.0527, 7040.879
910.5349, 7026.576
911.0170, 7004.353
911.4991, 6996.539
911.9812, 7009.425
912.4633, 6995.868
912.9454, 6939.703
913.4276, 6905.044
913.9097, 6924.742
914.3918, 6960.005
914.8739, 6966.596
915.3560, 6947.661
915.8381, 6939.495
916.3203, 6949.567
916.8024, 6955.498
917.2845, 6951.406
917.7666, 6948.743
918.2487, 6957.068
918.7308, 6968.000
919.2130, 6967.018
919.6951, 6952.542
920.1772, 6947.189
920.6593, 6963.613
921.1414, 6973.706
921.6235, 6971.313
922.1057, 6961.050
922.5878, 6938.014
923.0699, 6911.727
923.5520, 6903.322
924.0341, 6919.452
924.5162, 6931.006
924.9984, 6923.329
925.4805, 6916.183
925.9626, 6927.385
926.4447, 6938.348
926.9268, 6919.975
927.4089, 6882.704
927.8911, 6868.475
928.3732, 6897.776
928.8553, 6928.444
929.3374, 6932.901
929.8195, 6930.867
930.3016, 6942.697
930.7838, 6958.686
931.2659, 6959.663
931.7480, 6945.121
932.2301, 6933.102
932.7122, 6937.650
933.1943, 6937.565
933.6765, 6897.528
934.1586, 6849.855
934.6407, 6848.079
935.1228, 6878.763
935.6049, 6897.309
936.0870, 6891.449
936.5692, 6880.312
937.0513, 6879.013
937.5334, 6881.599
938.0155, 6876.523
938.4976, 6868.604
938.9797, 6874.113
939.4619, 6890.439
939.9440, 6895.777
940.4261, 6881.343
940.9082, 6862.576
941.3903, 6856.187
941.8724, 6858.588
942.3546, 6860.757
942.8367, 6862.864
943.3188, 6867.893
943.8009, 6875.678
944.2830, 6874.472
944.7651, 6856.926
945.2472, 6838.076
945.7293, 6842.408
946.2114, 6865.984
946.6935, 6884.675
947.1757, 6898.575
947.6578, 6893.050
948.1399, 6862.491
948.6220, 6841.406
949.1041, 6854.570
949.5862, 6885.610
950.0684, 6904.282
950.5505, 6910.848
951.0326, 6890.203
951.5147, 6832.917
951.9968, 6805.854
952.4789, 6834.056
952.9611, 6867.579
953.4432, 6865.792
953.9253, 6840.779
954.4074, 6827.032
954.8895, 6826.464
955.3716, 6829.529
955.8538, 6840.279
956.3359, 6841.183
956.8180, 6817.997
957.3001, 6799.723
957.7822, 6816.932
958.2643, 6860.583
958.7465, 6890.914
959.2286, 6908.528
959.7107, 6909.628
960.1928, 6881.825
960.6749, 6860.315
961.1570, 6863.183
961.6392, 6871.276
962.1213, 6860.428
962.6034, 6834.926
963.0855, 6829.147
963.5676, 6867.747
964.0497, 6881.490
964.5319, 6848.625
965.0140, 6817.470
965.4961, 6801.271
965.9782, 6800.104
966.4603, 6823.148
966.9424, 6867.810
967.4246, 6888.229
967.9067, 6858.912
968.3888, 6843.381
968.8709, 6858.667
969.3530, 6874.091
969.8351, 6876.361
970.3173, 6870.234
970.7994, 6860.795
971.2815, 6848.441
971.7636, 6837.046
972.2457, 6829.417
972.7278, 6819.356
973.2100, 6792.074
973.6921, 6776.790
974.1742, 6802.307
974.6563, 6844.048
975.1384, 6864.399
975.6205, 6860.331
976.1027, 6857.174
976.5848, 6861.702
977.0669, 6864.868
977.5490, 6865.272
978.0311, 6862.687
978.5132, 6851.879
978.9954, 6840.227
979.4775, 6839.254
979.9596, 6850.521
980.4417, 6868.694
980.9238, 6906.329
981.4059, 6931.759
981.8881, 6929.771
982.3702, 6916.112
982.8523, 6893.394
983.3344, 6871.131
983.8165, 6865.606
984.2986, 6879.609
984.7808, 6896.143
985.2629, 6918.934
985.7450, 6931.176
986.2271, 6921.199
986.7092, 6902.227
987.1913, 6876.855
987.6735, 6853.534
988.1556, 6848.354
988.6377, 6864.689
989.1198, 6881.094
989.6019, 6887.586
990.0840, 6894.902
990.5662, 6920.285
991.0483, 6937.915
991.5304, 6912.865
992.0125, 6865.826
992.4946, 6841.787
992.9767, 6850.969
993.4589, 6865.965
993.9410, 6878.264
994.4231, 6890.202
994.9052, 6905.889
995.3873, 6919.107
995.8694, 6916.270
996.3516, 6908.662
996.8337, 6924.906
997.3158, 6971.975
997.7979, 7007.282
998.2800, 7011.068
998.7621, 6999.544
999.2443, 6969.968
999.7264, 6938.586
1000.208, 6916.443
1000.691, 6905.714
1001.173, 6907.864
1001.655, 6923.239
1002.137, 6947.949
1002.619, 6999.340
1003.101, 7035.848
1003.583, 7016.697
1004.065, 6989.221
1004.548, 7008.569
1005.030, 7051.658
1005.512, 7058.826
1005.994, 7017.172
1006.476, 6984.802
1006.958, 6997.105
1007.440, 7012.496
1007.922, 7001.988
1008.404, 6992.098
1008.887, 7014.499
1009.369, 7053.401
1009.851, 7075.487
1010.333, 7073.840
1010.815, 7063.824
1011.297, 7046.184
1011.779, 7028.717
1012.261, 7008.432
1012.744, 6995.961
1013.226, 7009.989
1013.708, 7034.633
1014.190, 7036.253
1014.672, 7010.040
1015.154, 6996.779
1015.636, 7022.452
1016.118, 7049.936
1016.600, 7071.208
1017.083, 7081.080
1017.565, 7063.871
1018.047, 7037.958
1018.529, 7036.363
1019.011, 7062.534
1019.493, 7083.234
1019.975, 7085.643
1020.457, 7083.608
1020.940, 7075.637
1021.422, 7071.167
1021.904, 7079.318
1022.386, 7093.820
1022.868, 7103.405
1023.350, 7107.793
1023.832, 7120.021
1024.314, 7159.745
1024.797, 7182.904
1025.279, 7160.004
1025.761, 7136.734
1026.243, 7144.870
1026.725, 7166.010
1027.207, 7172.610
1027.689, 7165.064
1028.171, 7167.415
1028.653, 7189.625
1029.135, 7212.665
1029.618, 7240.088
1030.100, 7259.156
1030.582, 7255.527
1031.064, 7245.901
1031.546, 7249.134
1032.028, 7264.381
1032.510, 7279.623
1032.992, 7290.948
1033.475, 7307.479
1033.957, 7330.249
1034.439, 7358.159
1034.921, 7387.569
1035.403, 7424.722
1035.885, 7474.909
1036.367, 7538.085
1036.849, 7610.868
1037.332, 7680.512
1037.814, 7790.439
1038.296, 7954.336
1038.778, 8140.688
1039.260, 8337.722
1039.742, 8558.668
1040.224, 8824.101
1040.706, 9118.251
1041.188, 9393.268
1041.671, 9635.338
1042.153, 9909.724
1042.635, 10202.68
1043.117, 10550.77
1043.599, 10968.98
1044.081, 11432.94
1044.563, 11933.39
1045.045, 12467.55
1045.527, 13029.19
1046.010, 13608.36
1046.492, 14306.63
1046.974, 15183.77
1047.456, 16027.75
1047.938, 16848.04
1048.420, 17529.66
1048.902, 18029.32
1049.384, 18303.60
1049.866, 18254.38
1050.349, 17895.65
1050.831, 17509.26
1051.313, 17079.91
1051.795, 16732.21
1052.277, 16517.69
1052.759, 16216.14
1053.241, 15737.20
1053.723, 15073.61
1054.206, 14176.48
1054.688, 13111.07
1055.170, 12141.49
1055.652, 11270.62
1056.134, 10523.29
1056.616, 9901.782
1057.098, 9379.130
1057.580, 8944.700
1058.063, 8583.629
1058.545, 8281.406
1059.027, 8042.269
1059.509, 7897.311
1059.991, 7831.750
1060.473, 7746.926
1060.955, 7644.297
1061.437, 7580.052
1061.919, 7567.462
1062.401, 7565.897
1062.884, 7547.468
1063.366, 7520.617
1063.848, 7496.072
1064.330, 7474.210
1064.812, 7451.875
1065.294, 7433.575
1065.776, 7438.719
1066.258, 7466.282
1066.741, 7492.932
1067.223, 7506.858
1067.705, 7512.654
1068.187, 7512.246
1068.669, 7508.948
1069.151, 7502.706
1069.633, 7499.562
1070.115, 7515.524
1070.598, 7544.877
1071.080, 7565.468
1071.562, 7570.079
1072.044, 7570.235
1072.526, 7573.936
1073.008, 7576.746
1073.490, 7572.915
1073.972, 7567.761
1074.454, 7564.527
1074.937, 7565.788
1075.419, 7577.413
1075.901, 7598.809
1076.383, 7618.624
1076.865, 7633.320
1077.347, 7642.487
1077.829, 7637.388
1078.311, 7635.872
1078.793, 7656.929
1079.276, 7684.125
1079.758, 7691.375
1080.240, 7684.201
1080.722, 7697.749
1081.204, 7751.844
1081.686, 7787.003
1082.168, 7771.490
1082.650, 7760.402
1083.133, 7781.410
1083.615, 7807.424
1084.097, 7817.912
1084.579, 7815.921
1085.061, 7806.277
1085.543, 7783.857
1086.025, 7784.535
1086.507, 7826.354
1086.990, 7858.434
1087.472, 7868.100
1087.954, 7876.596
1088.436, 7898.333
1088.918, 7920.787
1089.400, 7924.801
1089.882, 7912.404
1090.364, 7906.878
1090.846, 7906.232
1091.328, 7925.072
1091.811, 7970.953
1092.293, 8005.906
1092.775, 8014.132
1093.257, 8014.110
1093.739, 8020.880
1094.221, 8037.143
1094.703, 8074.974
1095.185, 8132.300
1095.668, 8178.050
1096.150, 8211.512
1096.632, 8230.582
1097.114, 8235.024
1097.596, 8227.841
1098.078, 8209.508
1098.560, 8197.838
1099.042, 8224.737
1099.525, 8273.036
1100.007, 8299.385
1100.489, 8312.847
1100.971, 8343.787
1101.453, 8387.900
1101.935, 8409.032
1102.417, 8395.941
1102.899, 8384.748
1103.381, 8405.327
1103.864, 8437.721
1104.346, 8466.886
1104.828, 8490.978
1105.310, 8507.770
1105.792, 8517.587
1106.274, 8513.349
1106.756, 8500.986
1107.238, 8513.542
1107.720, 8573.968
1108.203, 8629.479
1108.685, 8652.100
1109.167, 8664.809
1109.649, 8679.450
1110.131, 8692.357
1110.613, 8698.246
1111.095, 8698.906
1111.577, 8699.647
1112.060, 8701.309
1112.542, 8702.005
1113.024, 8690.064
1113.506, 8694.014
1113.988, 8735.815
1114.470, 8774.481
1114.952, 8786.787
1115.434, 8788.027
1115.917, 8798.660
1116.399, 8816.974
1116.881, 8826.610
1117.363, 8823.901
1117.845, 8826.146
1118.327, 8834.990
1118.809, 8847.648
1119.291, 8867.596
1119.773, 8869.028
1120.255, 8824.835
1120.738, 8766.993
1121.220, 8772.301
1121.702, 8830.550
1122.184, 8844.538
1122.666, 8819.402
1123.148, 8803.476
1123.630, 8804.674
1124.112, 8815.382
1124.595, 8831.996
1125.077, 8849.903
1125.559, 8867.774
1126.041, 8878.891
1126.523, 8862.183
1127.005, 8836.825
1127.487, 8838.020
1127.969, 8861.564
1128.452, 8898.118
1128.934, 8939.300
1129.416, 8958.454
1129.898, 8937.230
1130.380, 8912.009
1130.862, 8902.729
1131.344, 8903.399
1131.826, 8912.829
1132.308, 8927.251
1132.791, 8945.861
1133.273, 8965.467
1133.755, 8981.451
1134.237, 8993.380
1134.719, 8994.959
1135.201, 8957.790
1135.683, 8950.896
1136.165, 9022.780
1136.647, 9084.101
1137.130, 9087.298
1137.612, 9066.111
1138.094, 9053.635
1138.576, 9049.381
1139.058, 9052.437
1139.540, 9067.173
1140.022, 9066.510
1140.504, 9040.713
1140.987, 9051.371
1141.469, 9120.572
1141.951, 9184.065
1142.433, 9200.563
1142.915, 9190.945
1143.397, 9184.292
1143.879, 9179.733
1144.361, 9169.655
1144.844, 9158.479
1145.326, 9167.961
1145.808, 9197.436
1146.290, 9237.714
1146.772, 9282.723
1147.254, 9309.127
1147.736, 9292.680
1148.218, 9278.455
1148.700, 9329.864
1149.182, 9396.793
1149.665, 9427.067
1150.147, 9429.468
1150.629, 9404.935
1151.111, 9371.532
1151.593, 9377.582
1152.075, 9438.684
1152.557, 9487.148
1153.039, 9477.958
1153.522, 9412.618
1154.004, 9473.669
1154.486, 9518.785
1154.968, 9548.835
1155.450, 9518.663
1155.932, 9566.254
1156.414, 9582.677
1156.896, 9597.828
1157.379, 9656.412
1157.861, 9634.998
1158.343, 9692.845
1158.825, 9719.048
1159.307, 9759.737
1159.789, 9769.066
1160.271, 9788.085
1160.753, 9888.397
1161.235, 9956.042
1161.718, 10022.10
1162.200, 10059.94
1162.682, 10076.03
1163.164, 10109.79
1163.646, 10160.34
1164.128, 10202.58
1164.610, 10230.80
1165.092, 10260.34
1165.574, 10299.81
1166.057, 10351.27
1166.539, 10430.52
1167.021, 10509.20
1167.503, 10554.68
1167.985, 10580.62
1168.467, 10592.39
1168.949, 10605.71
1169.431, 10652.49
1169.914, 10738.54
1170.396, 10830.69
1170.878, 10934.27
1171.360, 11019.48
1171.842, 11073.45
1172.324, 11115.79
1172.806, 11149.36
1173.288, 11180.87
1173.771, 11213.15
1174.253, 11249.03
1174.735, 11298.49
1175.217, 11363.78
1175.699, 11411.89
1176.181, 11438.72
1176.663, 11470.33
1177.145, 11509.47
1177.627, 11564.32
1178.109, 11639.43
1178.592, 11717.54
1179.074, 11783.18
1179.556, 11836.56
1180.038, 11872.02
1180.520, 11898.31
1181.002, 11943.39
1181.484, 11996.25
1181.966, 12016.83
1182.449, 12012.05
1182.931, 12035.02
1183.413, 12105.52
1183.895, 12176.77
1184.377, 12221.81
1184.859, 12255.52
1185.341, 12278.23
1185.823, 12301.51
1186.306, 12338.08
1186.788, 12377.73
1187.270, 12404.87
1187.752, 12422.04
1188.234, 12444.85
1188.716, 12472.00
1189.198, 12512.61
1189.680, 12567.71
1190.162, 12636.78
1190.645, 12729.32
1191.127, 12808.88
1191.609, 12857.81
1192.091, 12884.59
1192.573, 12893.71
1193.055, 12899.42
1193.537, 12950.03
1194.019, 13035.68
1194.501, 13103.04
1194.984, 13155.26
1195.466, 13217.39
1195.948, 13292.15
1196.430, 13361.85
1196.912, 13418.71
1197.394, 13482.91
1197.876, 13588.78
1198.358, 13684.49
1198.841, 13714.58
1199.323, 13726.81
1199.805, 13756.31
1200.287, 13803.27
1200.769, 13871.90
1201.251, 13954.60
1201.733, 14018.21
1202.215, 14042.81
1202.698, 14106.98
1203.180, 14255.48
1203.662, 14360.89
1204.144, 14379.23
1204.626, 14410.70
1205.108, 14510.53
1205.590, 14623.23
1206.072, 14684.63
1206.554, 14714.43
1207.036, 14773.86
1207.519, 14856.36
1208.001, 14909.30
1208.483, 14941.21
1208.965, 15011.40
1209.447, 15118.10
1209.929, 15190.17
1210.411, 15200.42
1210.893, 15214.52
1211.376, 15287.20
1211.858, 15374.62
1212.340, 15449.33
1212.822, 15514.11
1213.304, 15579.42
##END=



