##NAMES=Iimoriite-(Y)
##RRUFFID=R070457
##IDEAL CHEMISTRY=Y^3+^_2_(SiO_4_)(CO_3_)
##LOCALITY=I and L No. 4 claim, Bokan Mountain, Prince of Wales Island, Prince of Wales-Outer Ketchikan Borough, Alaska, USA
##OWNER=RRUFF
##SOURCE=Michael Scott
##DESCRIPTION=Colorless to tan unconsolidated grains and fragments
##STATUS=The identification of this mineral has been confirmed by single-crystal X-ray diffraction.
##URL=rruff.info/R070457
145.5055, 26363.92
145.9876, 27297.11
146.4697, 28236.54
146.9518, 29195.43
147.4340, 30134.25
147.9161, 31009.88
148.3982, 31832.32
148.8803, 32583.42
149.3624, 33263.48
149.8445, 33874.24
150.3266, 34415.86
150.8088, 34889.55
151.2909, 35295.32
151.7730, 35630.45
152.2551, 35903.43
152.7372, 36121.69
153.2193, 36282.08
153.7015, 36389.01
154.1836, 36440.80
154.6657, 36409.58
155.1478, 36374.21
155.6299, 36409.89
156.1120, 36508.84
156.5942, 36632.86
157.0763, 36755.07
157.5584, 36885.25
158.0405, 37060.22
158.5226, 37291.81
159.0047, 37564.28
159.4869, 37860.34
159.9690, 38178.88
160.4511, 38523.04
160.9332, 38884.45
161.4153, 39180.44
161.8974, 39298.07
162.3796, 39417.37
162.8617, 39534.54
163.3438, 39661.95
163.8259, 39793.69
164.3080, 39899.63
164.7901, 39949.71
165.2723, 39952.04
165.7544, 39967.00
166.2365, 40026.22
166.7186, 40075.25
167.2007, 40093.46
167.6828, 40082.37
168.1650, 40044.84
168.6471, 39974.64
169.1292, 39874.91
169.6113, 39790.09
170.0934, 39747.39
170.5755, 39698.62
171.0577, 39615.61
171.5398, 39505.11
172.0219, 39393.67
172.5040, 39296.35
172.9861, 39212.11
173.4682, 39155.16
173.9504, 39139.43
174.4325, 39137.02
174.9146, 39128.97
175.3967, 39119.73
175.8788, 39128.83
176.3609, 39181.64
176.8431, 39280.56
177.3252, 39353.26
177.8073, 39340.18
178.2894, 39351.12
178.7715, 39445.89
179.2536, 39604.12
179.7358, 39757.82
180.2179, 39837.94
180.7000, 39837.28
181.1821, 39887.02
181.6642, 40051.71
182.1463, 40211.65
182.6285, 40313.50
183.1106, 40374.30
183.5927, 40450.38
184.0748, 40602.90
184.5569, 40838.32
185.0390, 40995.36
185.5212, 40953.48
186.0033, 40941.14
186.4854, 41041.15
186.9675, 41230.00
187.4496, 41436.33
187.9317, 41606.89
188.4139, 41739.97
188.8960, 41878.70
189.3781, 42045.10
189.8602, 42194.51
190.3423, 42294.61
190.8244, 42366.11
191.3066, 42456.69
191.7887, 42607.35
192.2708, 42815.60
192.7529, 42987.01
193.2350, 43090.27
193.7171, 43186.06
194.1993, 43267.35
194.6814, 43352.71
195.1635, 43475.66
195.6456, 43664.34
196.1277, 43913.37
196.6098, 44133.99
197.0920, 44286.47
197.5741, 44451.54
198.0562, 44644.89
198.5383, 44864.08
199.0204, 45104.57
199.5025, 45368.75
199.9847, 45650.11
200.4668, 45892.66
200.9489, 46056.25
201.4310, 46223.03
201.9131, 46411.43
202.3952, 46610.16
202.8774, 46795.23
203.3595, 46950.75
203.8416, 47089.19
204.3237, 47269.14
204.8058, 47545.29
205.2879, 47801.89
205.7701, 48026.52
206.2522, 48222.45
206.7343, 48390.72
207.2164, 48529.75
207.6985, 48650.33
208.1806, 48790.54
208.6628, 48996.17
209.1449, 49160.03
209.6270, 49217.21
210.1091, 49249.54
210.5912, 49354.26
211.0733, 49572.73
211.5555, 49857.18
212.0376, 50094.18
212.5197, 50260.58
213.0018, 50404.96
213.4839, 50485.86
213.9660, 50568.68
214.4482, 50722.64
214.9303, 50967.70
215.4124, 51261.99
215.8945, 51522.43
216.3766, 51736.15
216.8587, 51933.51
217.3409, 52120.54
217.8230, 52291.47
218.3051, 52435.02
218.7872, 52551.16
219.2693, 52656.40
219.7514, 52773.27
220.2336, 52896.59
220.7157, 53046.60
221.1978, 53250.54
221.6799, 53456.96
222.1620, 53630.54
222.6441, 53768.36
223.1263, 53888.50
223.6084, 54010.86
224.0905, 54134.54
224.5726, 54266.54
225.0547, 54426.72
225.5368, 54578.32
226.0190, 54695.72
226.5011, 54782.80
226.9832, 54867.84
227.4653, 54983.91
227.9474, 55142.99
228.4296, 55247.37
228.9117, 55238.29
229.3938, 55233.59
229.8759, 55282.38
230.3580, 55375.39
230.8401, 55475.24
231.3223, 55550.95
231.8044, 55601.93
232.2865, 55673.91
232.7686, 55804.88
233.2507, 55916.84
233.7328, 55971.31
234.2150, 55993.10
234.6971, 56025.49
235.1792, 56093.92
235.6613, 56198.20
236.1434, 56338.85
236.6255, 56570.02
237.1077, 56775.60
237.5898, 56933.60
238.0719, 57055.47
238.5540, 57156.95
239.0361, 57244.77
239.5182, 57320.81
240.0004, 57392.95
240.4825, 57487.59
240.9646, 57533.45
241.4467, 57496.77
241.9288, 57425.77
242.4109, 57367.18
242.8931, 57338.52
243.3752, 57323.40
243.8573, 57292.39
244.3394, 57246.74
244.8215, 57182.08
245.3036, 57087.65
245.7858, 56984.43
246.2679, 56886.97
246.7500, 56798.31
247.2321, 56713.43
247.7142, 56629.45
248.1963, 56551.95
248.6785, 56453.02
249.1606, 56281.34
249.6427, 56126.96
250.1248, 56044.22
250.6069, 56030.28
251.0890, 56035.98
251.5712, 56020.84
252.0533, 55984.87
252.5354, 55926.03
253.0175, 55826.59
253.4996, 55718.91
253.9817, 55610.09
254.4639, 55503.47
254.9460, 55404.45
255.4281, 55317.03
255.9102, 55240.19
256.3923, 55173.20
256.8744, 55132.05
257.3565, 55075.92
257.8387, 54979.81
258.3208, 54861.45
258.8029, 54750.10
259.2850, 54658.04
259.7671, 54583.14
260.2492, 54527.01
260.7314, 54504.66
261.2135, 54462.85
261.6956, 54365.09
262.1777, 54245.96
262.6598, 54138.07
263.1419, 54050.92
263.6241, 53982.77
264.1062, 53937.82
264.5883, 53921.38
265.0704, 53894.90
265.5525, 53811.54
266.0346, 53736.84
266.5168, 53742.99
266.9989, 53847.79
267.4810, 53950.36
267.9631, 53952.61
268.4452, 53862.30
268.9273, 53778.73
269.4095, 53713.89
269.8916, 53672.59
270.3737, 53667.69
270.8558, 53696.05
271.3379, 53705.35
271.8200, 53641.15
272.3022, 53533.87
272.7843, 53471.18
273.2664, 53462.77
273.7485, 53498.57
274.2306, 53591.15
274.7127, 53724.32
275.1949, 53847.61
275.6770, 53939.55
276.1591, 54014.94
276.6412, 54095.60
277.1233, 54184.11
277.6054, 54259.72
278.0876, 54291.86
278.5697, 54301.80
279.0518, 54352.25
279.5339, 54451.94
280.0160, 54591.80
280.4981, 54791.81
280.9803, 55039.41
281.4624, 55255.79
281.9445, 55395.12
282.4266, 55485.55
282.9087, 55602.54
283.3908, 55763.76
283.8730, 55916.84
284.3551, 56014.50
284.8372, 56092.94
285.3193, 56243.84
285.8014, 56509.86
286.2835, 56801.63
286.7657, 56956.38
287.2478, 56925.04
287.7299, 56930.53
288.2120, 57020.07
288.6941, 57149.59
289.1762, 57280.10
289.6584, 57403.61
290.1405, 57522.09
290.6226, 57637.73
291.1047, 57749.62
291.5868, 57862.08
292.0689, 57988.92
292.5511, 58104.19
293.0332, 58189.56
293.5153, 58249.41
293.9974, 58302.68
294.4795, 58362.74
294.9616, 58428.22
295.4438, 58481.87
295.9259, 58508.15
296.4080, 58540.39
296.8901, 58588.88
297.3722, 58646.62
297.8543, 58698.72
298.3365, 58737.98
298.8186, 58776.82
299.3007, 58849.24
299.7828, 58991.82
300.2649, 59110.46
300.7470, 59192.78
301.2292, 59256.16
301.7113, 59296.26
302.1934, 59320.47
302.6755, 59367.89
303.1576, 59497.59
303.6397, 59736.81
304.1219, 59955.30
304.6040, 60162.15
305.0861, 60340.57
305.5682, 60471.76
306.0503, 60565.29
306.5324, 60647.82
307.0146, 60725.30
307.4967, 60806.05
307.9788, 60971.39
308.4609, 61308.15
308.9430, 61599.49
309.4251, 61737.73
309.9073, 61799.46
310.3894, 61893.97
310.8715, 62072.64
311.3536, 62295.02
311.8357, 62483.71
312.3178, 62626.85
312.8000, 62792.46
313.2821, 63041.61
313.7642, 63301.59
314.2463, 63506.27
314.7284, 63643.51
315.2105, 63764.28
315.6927, 63918.57
316.1748, 64097.53
316.6569, 64249.36
317.1390, 64367.97
317.6211, 64449.01
318.1032, 64498.84
318.5854, 64516.38
319.0675, 64475.73
319.5496, 64303.47
320.0317, 64090.63
320.5138, 63988.14
320.9959, 64015.03
321.4781, 64060.71
321.9602, 64051.38
322.4423, 63993.10
322.9244, 63928.11
323.4065, 63846.09
323.8886, 63768.49
324.3708, 63708.00
324.8529, 63662.49
325.3350, 63624.52
325.8171, 63589.66
326.2992, 63562.25
326.7813, 63560.45
327.2635, 63632.61
327.7456, 63639.43
328.2277, 63511.15
328.7098, 63325.35
329.1919, 63161.14
329.6740, 63039.34
330.1562, 62955.01
330.6383, 62911.71
331.1204, 62940.14
331.6025, 62884.82
332.0846, 62664.45
332.5667, 62447.86
333.0489, 62328.52
333.5310, 62291.68
334.0131, 62269.21
334.4952, 62213.62
334.9773, 62130.14
335.4594, 62054.74
335.9416, 61960.95
336.4237, 61912.07
336.9058, 61957.79
337.3879, 62035.85
337.8700, 62077.50
338.3521, 62057.28
338.8343, 61998.36
339.3164, 61927.78
339.7985, 61825.97
340.2806, 61776.67
340.7627, 61832.13
341.2448, 61908.73
341.7270, 61964.21
342.2091, 61996.02
342.6912, 62022.57
343.1733, 62051.91
343.6554, 62085.50
344.1375, 62137.18
344.6197, 62213.14
345.1018, 62295.09
345.5839, 62387.12
346.0660, 62475.97
346.5481, 62535.89
347.0302, 62544.59
347.5124, 62537.96
347.9945, 62571.28
348.4766, 62643.60
348.9587, 62680.25
349.4408, 62638.79
349.9229, 62556.79
350.4051, 62506.41
350.8872, 62505.25
351.3693, 62470.74
351.8514, 62349.55
352.3335, 62177.30
352.8156, 62016.18
353.2978, 61880.67
353.7799, 61744.79
354.2620, 61579.48
354.7441, 61379.31
355.2262, 61192.02
355.7083, 61057.27
356.1905, 60900.52
356.6726, 60644.02
357.1547, 60320.07
357.6368, 60036.87
358.1189, 59863.77
358.6010, 59771.23
359.0832, 59632.80
359.5653, 59400.48
360.0474, 59178.23
360.5295, 58983.03
361.0116, 58797.57
361.4937, 58593.95
361.9759, 58369.19
362.4580, 58159.29
362.9401, 58023.30
363.4222, 57996.82
363.9043, 57904.45
364.3864, 57661.52
364.8686, 57431.34
365.3507, 57287.48
365.8328, 57208.85
366.3149, 57132.19
366.7970, 57019.83
367.2791, 56879.38
367.7613, 56722.65
368.2434, 56523.13
368.7255, 56374.35
369.2076, 56370.15
369.6897, 56400.14
370.1718, 56354.97
370.6540, 56205.74
371.1361, 56030.78
371.6182, 55897.05
372.1003, 55798.07
372.5824, 55696.05
373.0645, 55582.80
373.5467, 55467.20
374.0288, 55361.96
374.5109, 55264.77
374.9930, 55157.13
375.4751, 55016.86
375.9572, 54875.39
376.4394, 54778.14
376.9215, 54719.87
377.4036, 54635.44
377.8857, 54477.48
378.3678, 54269.18
378.8499, 54108.56
379.3321, 54041.37
379.8142, 53952.20
380.2963, 53795.87
380.7784, 53611.30
381.2605, 53452.35
381.7426, 53332.21
382.2248, 53220.59
382.7069, 53077.21
383.1890, 52890.30
383.6711, 52719.03
384.1532, 52574.90
384.6353, 52432.98
385.1175, 52292.67
385.5996, 52145.68
386.0817, 51969.73
386.5638, 51744.75
387.0459, 51498.05
387.5280, 51332.85
388.0102, 51322.24
388.4923, 51233.68
388.9744, 50941.25
389.4565, 50602.93
389.9386, 50347.24
390.4207, 50194.72
390.9029, 50073.09
391.3850, 49910.77
391.8671, 49718.75
392.3492, 49584.76
392.8313, 49558.02
393.3134, 49507.80
393.7956, 49305.34
394.2777, 49005.12
394.7598, 48736.44
395.2419, 48551.27
395.7240, 48394.57
396.2061, 48210.79
396.6883, 48009.48
397.1704, 47843.67
397.6525, 47751.29
398.1346, 47683.47
398.6167, 47532.12
399.0988, 47271.23
399.5810, 47016.51
400.0631, 46773.98
400.5452, 46553.91
401.0273, 46375.85
401.5094, 46235.14
401.9915, 46097.13
402.4737, 45928.91
402.9558, 45731.88
403.4379, 45544.40
403.9200, 45337.88
404.4021, 45174.73
404.8842, 45090.09
405.3664, 45045.30
405.8485, 44998.05
406.3306, 44932.20
406.8127, 44845.38
407.2948, 44730.10
407.7769, 44579.07
408.2591, 44431.08
408.7412, 44282.80
409.2233, 44144.64
409.7054, 44024.69
410.1875, 43919.39
410.6696, 43819.93
411.1518, 43724.29
411.6339, 43629.67
412.1160, 43530.73
412.5981, 43428.16
413.0802, 43322.49
413.5623, 43214.78
414.0445, 43104.82
414.5266, 42993.40
415.0087, 42880.20
415.4908, 42766.39
415.9729, 42651.67
416.4550, 42536.89
416.9372, 42420.60
417.4193, 42302.31
417.9014, 42193.12
418.3835, 42109.38
418.8656, 42053.96
419.3477, 41948.85
419.8299, 41764.08
420.3120, 41571.52
420.7941, 41386.80
421.2762, 41212.59
421.7583, 41059.40
422.2404, 40930.79
422.7226, 40798.24
423.2047, 40603.41
423.6868, 40320.58
424.1689, 40047.46
424.6510, 39777.21
425.1331, 39527.65
425.6153, 39312.44
426.0974, 39126.48
426.5795, 38955.34
427.0616, 38791.80
427.5437, 38634.50
428.0258, 38475.48
428.5080, 38308.34
428.9901, 38164.45
429.4722, 38069.19
429.9543, 37995.34
430.4364, 37905.68
430.9185, 37793.14
431.4007, 37690.86
431.8828, 37621.56
432.3649, 37570.52
432.8470, 37513.64
433.3291, 37447.40
433.8112, 37379.55
434.2934, 37315.13
434.7755, 37254.77
435.2576, 37203.19
435.7397, 37177.25
436.2218, 37139.82
436.7039, 37067.48
437.1861, 36981.18
437.6682, 36910.73
438.1503, 36866.09
438.6324, 36833.61
439.1145, 36794.22
439.5966, 36747.29
440.0788, 36698.51
440.5609, 36656.04
441.0430, 36604.50
441.5251, 36519.46
442.0072, 36422.88
442.4893, 36361.73
442.9715, 36368.72
443.4536, 36401.65
443.9357, 36385.14
444.4178, 36314.76
444.8999, 36240.59
445.3820, 36175.33
445.8642, 36111.30
446.3463, 36041.90
446.8284, 35966.59
447.3105, 35884.95
447.7926, 35778.45
448.2747, 35676.23
448.7569, 35633.96
449.2390, 35644.05
449.7211, 35613.58
450.2032, 35475.74
450.6853, 35266.77
451.1674, 35121.73
451.6496, 35104.67
452.1317, 35060.75
452.6138, 34954.06
453.0959, 34828.72
453.5780, 34722.89
454.0602, 34642.19
454.5423, 34572.98
455.0244, 34505.70
455.5065, 34439.51
455.9886, 34350.25
456.4707, 34209.68
456.9529, 34089.25
457.4349, 34016.79
457.9171, 33967.72
458.3992, 33919.94
458.8813, 33868.69
459.3634, 33799.61
459.8455, 33676.94
460.3276, 33517.86
460.8098, 33415.59
461.2919, 33397.79
461.7740, 33392.39
462.2561, 33341.18
462.7382, 33252.91
463.2203, 33167.94
463.7025, 33103.45
464.1846, 33029.75
464.6667, 32920.89
465.1488, 32793.49
465.6309, 32681.69
466.1130, 32596.90
466.5952, 32525.62
467.0773, 32449.57
467.5594, 32368.83
468.0415, 32284.86
468.5236, 32165.98
469.0057, 32077.69
469.4879, 32064.36
469.9700, 32096.96
470.4521, 32130.17
470.9342, 32145.81
471.4163, 32131.45
471.8984, 32050.09
472.3806, 31890.19
472.8627, 31758.25
473.3448, 31678.04
473.8269, 31627.64
474.3090, 31598.63
474.7911, 31585.29
475.2733, 31560.34
475.7554, 31507.84
476.2375, 31442.79
476.7196, 31370.23
477.2017, 31295.22
477.6838, 31249.29
478.1660, 31251.76
478.6481, 31274.54
479.1302, 31265.30
479.6123, 31210.70
480.0944, 31151.49
480.5765, 31067.55
481.0587, 30996.29
481.5408, 30973.07
482.0229, 30984.47
482.5050, 30991.24
482.9871, 30970.28
483.4692, 30925.31
483.9514, 30861.39
484.4335, 30762.99
484.9156, 30688.25
485.3977, 30647.48
485.8798, 30634.61
486.3619, 30665.43
486.8441, 30730.20
487.3262, 30776.26
487.8083, 30753.93
488.2904, 30703.53
488.7725, 30706.87
489.2546, 30762.93
489.7368, 30774.55
490.2189, 30679.43
490.7010, 30533.64
491.1831, 30459.17
491.6652, 30480.17
492.1473, 30487.95
492.6295, 30449.04
493.1116, 30404.19
493.5937, 30394.05
494.0758, 30411.47
494.5579, 30414.25
495.0400, 30371.10
495.5222, 30299.87
496.0043, 30270.60
496.4864, 30312.00
496.9685, 30336.91
497.4506, 30307.97
497.9327, 30279.18
498.4149, 30296.08
498.8970, 30353.88
499.3791, 30404.15
499.8612, 30419.58
500.3433, 30405.43
500.8254, 30353.80
501.3076, 30262.12
501.7897, 30215.77
502.2718, 30273.90
502.7539, 30378.65
503.2360, 30411.69
503.7181, 30354.11
504.2003, 30309.47
504.6824, 30298.21
505.1645, 30306.52
505.6466, 30331.11
506.1287, 30365.57
506.6108, 30393.39
507.0930, 30403.08
507.5751, 30402.08
508.0572, 30418.18
508.5393, 30475.04
509.0214, 30498.92
509.5035, 30447.96
509.9857, 30392.42
510.4678, 30386.07
510.9499, 30419.39
511.4320, 30435.29
511.9141, 30383.07
512.3962, 30305.19
512.8784, 30287.09
513.3605, 30327.61
513.8426, 30345.20
514.3247, 30304.22
514.8068, 30233.50
515.2889, 30176.93
515.7711, 30134.43
516.2532, 30100.32
516.7353, 30089.10
517.2174, 30072.74
517.6995, 30027.49
518.1816, 29960.53
518.6638, 29887.63
519.1459, 29815.84
519.6280, 29757.28
520.1101, 29746.60
520.5922, 29815.41
521.0743, 29840.36
521.5565, 29767.42
522.0386, 29689.58
522.5207, 29652.38
523.0028, 29645.72
523.4849, 29638.69
523.9670, 29622.77
524.4492, 29593.60
524.9313, 29534.64
525.4134, 29452.95
525.8955, 29393.67
526.3776, 29372.08
526.8597, 29366.87
527.3419, 29361.68
527.8240, 29359.81
528.3061, 29312.13
528.7882, 29172.22
529.2703, 29037.18
529.7524, 28952.66
530.2346, 28899.04
530.7167, 28846.22
531.1988, 28782.62
531.6809, 28707.16
532.1630, 28617.82
532.6451, 28513.87
533.1273, 28398.83
533.6094, 28258.80
534.0915, 28129.07
534.5736, 28028.00
535.0557, 27945.78
535.5378, 27871.54
536.0200, 27806.62
536.5021, 27737.02
536.9842, 27643.96
537.4663, 27542.04
537.9484, 27464.76
538.4305, 27417.41
538.9127, 27367.10
539.3948, 27285.79
539.8769, 27178.37
540.3590, 27088.18
540.8411, 27054.31
541.3232, 26986.81
541.8054, 26840.44
542.2875, 26680.92
542.7696, 26563.86
543.2517, 26495.35
543.7338, 26449.73
544.2159, 26416.13
544.6981, 26385.91
545.1802, 26326.68
545.6623, 26233.59
546.1444, 26137.37
546.6265, 26047.16
547.1086, 25960.34
547.5908, 25868.95
548.0729, 25770.16
548.5550, 25690.95
549.0371, 25659.17
549.5192, 25632.33
550.0013, 25576.05
550.4835, 25493.26
550.9656, 25396.87
551.4477, 25291.34
551.9298, 25188.58
552.4119, 25113.86
552.8940, 25082.54
553.3762, 25036.11
553.8583, 24966.31
554.3404, 24888.32
554.8225, 24801.67
555.3046, 24712.19
555.7867, 24627.55
556.2689, 24548.54
556.7510, 24482.49
557.2331, 24447.71
557.7152, 24433.32
558.1973, 24402.04
558.6794, 24347.21
559.1616, 24273.09
559.6437, 24175.77
560.1258, 24058.83
560.6079, 23970.49
561.0900, 23937.41
561.5721, 23893.90
562.0543, 23808.94
562.5364, 23718.90
563.0185, 23668.60
563.5006, 23656.96
563.9827, 23637.28
564.4648, 23560.58
564.9470, 23448.42
565.4291, 23393.93
565.9112, 23413.01
566.3933, 23421.29
566.8754, 23391.16
567.3575, 23336.78
567.8397, 23269.18
568.3218, 23187.69
568.8039, 23121.83
569.2860, 23077.31
569.7681, 23054.35
570.2502, 23070.46
570.7324, 23108.29
571.2145, 23122.65
571.6966, 23094.83
572.1787, 23042.69
572.6608, 22994.67
573.1429, 22952.67
573.6251, 22905.20
574.1072, 22842.26
574.5893, 22785.50
575.0714, 22746.40
575.5535, 22716.60
576.0356, 22686.61
576.5178, 22655.80
576.9999, 22613.81
577.4820, 22543.85
577.9641, 22458.74
578.4462, 22388.22
578.9283, 22335.23
579.4105, 22284.47
579.8926, 22225.32
580.3747, 22161.61
580.8568, 22107.64
581.3389, 22094.94
581.8210, 22047.89
582.3032, 21924.40
582.7853, 21802.05
583.2674, 21746.69
583.7495, 21739.81
584.2316, 21712.72
584.7137, 21620.08
585.1959, 21503.46
585.6780, 21439.01
586.1601, 21424.41
586.6422, 21399.32
587.1243, 21354.12
587.6064, 21289.07
588.0886, 21196.20
588.5707, 21078.67
589.0528, 20976.72
589.5349, 20887.84
590.0170, 20818.41
590.4991, 20795.89
590.9813, 20781.29
591.4634, 20720.65
591.9455, 20610.67
592.4276, 20497.87
592.9097, 20424.18
593.3918, 20382.49
593.8740, 20339.29
594.3561, 20298.62
594.8382, 20240.68
595.3203, 20143.14
595.8024, 20039.05
596.2845, 19966.77
596.7667, 19924.06
597.2488, 19870.93
597.7309, 19786.83
598.2130, 19695.68
598.6951, 19608.22
599.1772, 19528.28
599.6594, 19470.35
600.1415, 19438.08
600.6236, 19404.05
601.1057, 19329.01
601.5878, 19209.33
602.0699, 19116.41
602.5521, 19076.96
603.0342, 19024.04
603.5163, 18922.72
603.9984, 18806.90
604.4805, 18711.15
604.9626, 18640.98
605.4448, 18577.57
605.9269, 18517.41
606.4090, 18453.97
606.8911, 18370.33
607.3732, 18272.30
607.8553, 18195.86
608.3375, 18161.19
608.8196, 18135.27
609.3017, 18055.89
609.7838, 17899.97
610.2659, 17768.63
610.7480, 17672.23
611.2302, 17589.72
611.7123, 17520.79
612.1944, 17459.35
612.6765, 17397.71
613.1586, 17333.53
613.6407, 17272.49
614.1229, 17220.46
614.6050, 17174.65
615.0871, 17129.63
615.5692, 17084.89
616.0513, 17037.92
616.5334, 16987.51
617.0156, 16933.98
617.4977, 16878.41
617.9798, 16821.37
618.4619, 16760.19
618.9440, 16690.96
619.4261, 16621.55
619.9083, 16552.54
620.3904, 16487.33
620.8725, 16431.77
621.3546, 16388.95
621.8367, 16350.90
622.3188, 16307.70
622.8010, 16262.53
623.2831, 16230.52
623.7652, 16214.61
624.2473, 16191.17
624.7294, 16145.01
625.2115, 16080.82
625.6937, 16011.16
626.1758, 15917.85
626.6579, 15849.96
627.1400, 15839.45
627.6221, 15825.82
628.1042, 15759.63
628.5864, 15662.65
629.0685, 15590.25
629.5506, 15568.82
630.0327, 15564.71
630.5148, 15535.61
630.9969, 15486.23
631.4791, 15439.94
631.9612, 15399.14
632.4433, 15366.28
632.9254, 15350.84
633.4075, 15341.66
633.8896, 15295.52
634.3718, 15161.17
634.8539, 15075.89
635.3360, 15088.69
635.8181, 15118.31
636.3002, 15115.49
636.7823, 15083.06
637.2645, 15040.86
637.7466, 14997.46
638.2287, 14952.41
638.7108, 14902.08
639.1929, 14848.28
639.6750, 14808.77
640.1572, 14789.57
640.6393, 14761.46
641.1214, 14701.15
641.6035, 14617.56
642.0856, 14545.55
642.5677, 14480.72
643.0499, 14432.99
643.5320, 14412.32
644.0141, 14400.97
644.4962, 14396.36
644.9783, 14390.35
645.4604, 14363.77
645.9426, 14304.15
646.4247, 14241.91
646.9068, 14230.61
647.3889, 14257.23
647.8710, 14238.98
648.3531, 14159.32
648.8353, 14079.17
649.3174, 14040.88
649.7995, 14030.73
650.2816, 14000.88
650.7637, 13924.99
651.2458, 13875.96
651.7280, 13894.35
652.2101, 13906.80
652.6922, 13853.23
653.1743, 13759.39
653.6564, 13687.60
654.1385, 13665.51
654.6207, 13664.86
655.1028, 13661.77
655.5849, 13653.05
656.0670, 13620.28
656.5491, 13559.65
657.0313, 13502.34
657.5134, 13469.73
657.9955, 13450.45
658.4776, 13413.37
658.9597, 13336.94
659.4418, 13283.92
659.9240, 13272.01
660.4061, 13265.09
660.8882, 13247.21
661.3703, 13220.17
661.8524, 13188.71
662.3345, 13154.39
662.8167, 13119.81
663.2988, 13091.29
663.7809, 13064.15
664.2630, 13022.19
664.7451, 12964.92
665.2272, 12913.14
665.7094, 12877.53
666.1915, 12854.46
666.6736, 12837.26
667.1557, 12827.96
667.6378, 12818.66
668.1199, 12821.05
668.6021, 12810.37
669.0842, 12766.56
669.5663, 12708.81
670.0484, 12663.48
670.5305, 12637.26
671.0126, 12615.35
671.4948, 12593.87
671.9769, 12566.45
672.4590, 12514.87
672.9411, 12444.29
673.4232, 12386.22
673.9053, 12353.91
674.3875, 12341.42
674.8696, 12344.12
675.3517, 12368.22
675.8338, 12364.39
676.3159, 12308.21
676.7980, 12257.46
677.2802, 12230.84
677.7623, 12215.10
678.2444, 12199.80
678.7265, 12183.19
679.2086, 12160.57
679.6907, 12123.90
680.1729, 12085.07
680.6550, 12056.73
681.1371, 12035.36
681.6192, 12012.65
682.1013, 11985.94
682.5834, 11953.58
683.0656, 11911.53
683.5477, 11861.53
684.0298, 11826.66
684.5119, 11809.25
684.9940, 11801.01
685.4761, 11807.63
685.9583, 11815.69
686.4404, 11815.03
686.9225, 11805.63
687.4046, 11788.98
687.8867, 11761.95
688.3688, 11731.30
688.8510, 11692.96
689.3331, 11656.80
689.8152, 11637.73
690.2973, 11636.02
690.7794, 11640.84
691.2615, 11646.35
691.7437, 11648.46
692.2258, 11633.85
692.7079, 11601.33
693.1900, 11575.20
693.6721, 11565.68
694.1542, 11548.84
694.6364, 11496.45
695.1185, 11421.08
695.6006, 11379.66
696.0827, 11401.20
696.5648, 11410.63
697.0469, 11394.99
697.5291, 11364.37
698.0112, 11317.31
698.4933, 11262.28
698.9754, 11215.91
699.4575, 11185.84
699.9396, 11164.41
700.4218, 11141.02
700.9039, 11118.77
701.3860, 11111.71
701.8681, 11121.22
702.3502, 11129.32
702.8323, 11126.83
703.3145, 11116.49
703.7966, 11104.55
704.2787, 11094.88
704.7608, 11071.99
705.2429, 11010.32
705.7250, 10965.18
706.2072, 10963.99
706.6893, 10985.27
707.1714, 11005.68
707.6535, 11020.56
708.1356, 11026.25
708.6177, 11017.79
709.0999, 11001.07
709.5820, 10976.28
710.0641, 10948.96
710.5462, 10934.75
711.0283, 10938.27
711.5104, 10951.04
711.9926, 10965.41
712.4747, 10980.53
712.9568, 10986.96
713.4389, 10982.68
713.9210, 10975.22
714.4031, 10964.58
714.8853, 10953.21
715.3674, 10940.60
715.8495, 10928.13
716.3316, 10924.60
716.8137, 10939.02
717.2958, 10952.92
717.7780, 10954.62
718.2601, 10955.76
718.7422, 10973.60
719.2243, 11003.89
719.7064, 11023.94
720.1885, 11018.30
720.6707, 11005.07
721.1528, 11015.18
721.6349, 11045.19
722.1170, 11072.64
722.5991, 11095.62
723.0812, 11108.70
723.5634, 11104.50
724.0455, 11092.79
724.5276, 11099.20
725.0097, 11135.10
725.4918, 11163.02
725.9739, 11178.89
726.4561, 11191.84
726.9382, 11200.38
727.4203, 11210.46
727.9024, 11233.74
728.3845, 11272.72
728.8666, 11304.16
729.3488, 11307.27
729.8309, 11301.16
730.3130, 11312.55
730.7951, 11333.27
731.2772, 11335.28
731.7593, 11310.75
732.2415, 11280.64
732.7236, 11267.14
733.2057, 11268.27
733.6878, 11271.76
734.1699, 11281.13
734.6520, 11278.83
735.1342, 11257.29
735.6163, 11227.20
736.0984, 11191.76
736.5805, 11154.27
737.0626, 11133.15
737.5447, 11147.40
738.0269, 11153.96
738.5090, 11127.71
738.9911, 11101.62
739.4732, 11109.40
739.9553, 11141.43
740.4374, 11164.98
740.9196, 11164.08
741.4017, 11155.06
741.8838, 11161.62
742.3659, 11173.74
742.8480, 11155.03
743.3301, 11105.82
743.8123, 11078.75
744.2944, 11103.76
744.7765, 11146.25
745.2586, 11145.92
745.7407, 11094.15
746.2228, 11053.78
746.7050, 11030.87
747.1871, 11009.85
747.6692, 10977.32
748.1513, 10950.15
748.6334, 10950.83
749.1155, 10978.29
749.5977, 10994.75
750.0798, 10984.53
750.5619, 10966.54
751.0440, 10943.32
751.5261, 10922.75
752.0082, 10921.73
752.4904, 10936.17
752.9725, 10937.52
753.4546, 10902.93
753.9367, 10855.28
754.4188, 10841.19
754.9009, 10854.50
755.3831, 10845.95
755.8652, 10806.90
756.3473, 10766.07
756.8294, 10743.10
757.3115, 10727.80
757.7936, 10693.08
758.2758, 10626.00
758.7579, 10572.81
759.2400, 10540.05
759.7221, 10514.19
760.2042, 10492.43
760.6863, 10474.39
761.1685, 10460.45
761.6506, 10450.54
762.1327, 10441.30
762.6148, 10442.68
763.0969, 10433.04
763.5790, 10390.95
764.0612, 10328.31
764.5433, 10257.66
765.0254, 10186.38
765.5075, 10133.74
765.9896, 10120.25
766.4717, 10126.08
766.9539, 10110.16
767.4360, 10072.52
767.9181, 9999.733
768.4002, 9881.229
768.8823, 9776.402
769.3644, 9731.087
769.8466, 9726.313
770.3287, 9704.188
770.8108, 9648.928
771.2929, 9610.168
771.7750, 9600.859
772.2571, 9593.118
772.7393, 9525.646
773.2214, 9477.761
773.7035, 9590.893
774.1856, 9891.561
774.6677, 10129.58
775.1498, 10215.74
775.6320, 10181.77
776.1141, 9958.581
776.5962, 9668.335
777.0783, 9535.889
777.5604, 9586.318
778.0425, 9648.521
778.5247, 9593.566
779.0068, 9447.369
779.4889, 9232.238
779.9710, 8959.422
780.4531, 8781.145
780.9352, 8731.837
781.4174, 8710.102
781.8995, 8648.306
782.3816, 8564.954
782.8637, 8512.479
783.3458, 8508.705
783.8279, 8491.905
784.3101, 8450.972
784.7922, 8410.143
785.2743, 8380.387
785.7564, 8353.902
786.2385, 8319.002
786.7206, 8274.234
787.2028, 8233.491
787.6849, 8202.802
788.1670, 8175.459
788.6491, 8149.145
789.1312, 8122.384
789.6133, 8095.371
790.0955, 8066.509
790.5776, 8028.767
791.0597, 7974.780
791.5418, 7916.772
792.0239, 7874.259
792.5060, 7844.904
792.9882, 7820.804
793.4703, 7800.839
793.9524, 7777.611
794.4345, 7745.684
794.9166, 7712.219
795.3987, 7694.710
795.8809, 7700.973
796.3630, 7679.203
796.8451, 7613.109
797.3272, 7548.861
797.8093, 7497.491
798.2914, 7459.130
798.7736, 7436.244
799.2557, 7428.299
799.7378, 7420.322
800.2199, 7422.411
800.7020, 7408.814
801.1841, 7348.072
801.6663, 7285.397
802.1484, 7272.951
802.6305, 7297.578
803.1126, 7304.564
803.5947, 7266.160
804.0768, 7218.975
804.5590, 7199.617
805.0411, 7192.923
805.5232, 7172.517
806.0053, 7139.258
806.4874, 7107.058
806.9695, 7081.662
807.4517, 7056.579
807.9338, 7022.712
808.4159, 6981.592
808.8980, 6946.830
809.3801, 6919.369
809.8622, 6891.498
810.3444, 6860.520
810.8265, 6829.965
811.3086, 6801.458
811.7907, 6776.011
812.2728, 6759.650
812.7549, 6774.261
813.2371, 6763.779
813.7192, 6701.607
814.2013, 6641.374
814.6834, 6608.304
815.1655, 6595.794
815.6476, 6595.875
816.1298, 6610.015
816.6119, 6609.861
817.0940, 6569.982
817.5761, 6525.309
818.0582, 6505.955
818.5403, 6497.375
819.0225, 6473.629
819.5046, 6431.612
819.9867, 6388.748
820.4688, 6356.220
820.9509, 6331.274
821.4330, 6308.774
821.9152, 6290.359
822.3973, 6285.273
822.8794, 6293.627
823.3615, 6297.221
823.8436, 6285.681
824.3257, 6262.990
824.8079, 6233.069
825.2900, 6193.903
825.7721, 6173.843
826.2542, 6182.263
826.7363, 6181.686
827.2184, 6151.452
827.7006, 6116.555
828.1826, 6109.501
828.6647, 6129.820
829.1469, 6128.554
829.6290, 6079.202
830.1111, 6046.480
830.5932, 6052.556
831.0753, 6064.688
831.5574, 6055.607
832.0396, 6036.755
832.5217, 6041.586
833.0038, 6086.813
833.4859, 6110.904
833.9680, 6060.409
834.4501, 5995.770
834.9323, 5974.343
835.4144, 5976.805
835.8965, 5963.005
836.3786, 5924.381
836.8607, 5879.602
837.3428, 5841.404
837.8250, 5809.085
838.3071, 5781.329
838.7892, 5758.411
839.2713, 5746.223
839.7534, 5744.165
840.2355, 5729.618
840.7177, 5687.666
841.1998, 5632.235
841.6819, 5589.042
842.1640, 5558.390
842.6461, 5539.120
843.1282, 5537.406
843.6104, 5524.822
844.0925, 5488.194
844.5746, 5441.026
845.0567, 5394.546
845.5388, 5348.989
846.0209, 5322.551
846.5031, 5334.467
846.9852, 5337.785
847.4673, 5321.419
847.9494, 5302.967
848.4315, 5292.208
848.9136, 5286.989
849.3958, 5283.208
849.8779, 5281.327
850.3600, 5274.788
850.8421, 5255.214
851.3242, 5236.666
851.8063, 5225.896
852.2885, 5223.184
852.7706, 5234.625
853.2527, 5256.075
853.7348, 5264.384
854.2169, 5239.270
854.6990, 5206.211
855.1812, 5193.807
855.6633, 5194.101
856.1454, 5195.868
856.6275, 5195.229
857.1096, 5182.132
857.5917, 5151.657
858.0739, 5113.763
858.5560, 5078.102
859.0381, 5046.462
859.5202, 5033.620
860.0023, 5039.917
860.4844, 5043.959
860.9666, 5039.863
861.4487, 5032.353
861.9308, 5024.627
862.4129, 5017.802
862.8950, 5018.124
863.3771, 5031.550
863.8593, 5032.880
864.3414, 5015.927
864.8235, 4994.160
865.3056, 4961.513
865.7877, 4935.296
866.2698, 4949.293
866.7520, 5009.254
867.2341, 5053.603
867.7162, 5078.776
868.1983, 5089.945
868.6804, 5068.883
869.1625, 5050.907
869.6447, 5071.725
870.1268, 5119.690
870.6089, 5155.020
871.0910, 5162.773
871.5731, 5171.100
872.0552, 5189.662
872.5374, 5217.283
873.0195, 5256.851
873.5016, 5303.351
873.9837, 5349.788
874.4658, 5393.982
874.9479, 5436.093
875.4301, 5472.693
875.9122, 5511.620
876.3943, 5560.923
876.8764, 5620.016
877.3585, 5693.094
877.8406, 5776.077
878.3228, 5846.213
878.8049, 5891.656
879.2870, 5934.604
879.7691, 6015.531
880.2512, 6122.393
880.7333, 6194.528
881.2155, 6233.018
881.6976, 6266.133
882.1797, 6301.279
882.6618, 6337.740
883.1439, 6378.715
883.6260, 6415.086
884.1082, 6410.171
884.5903, 6356.420
885.0724, 6301.134
885.5545, 6252.202
886.0366, 6187.902
886.5187, 6096.063
887.0009, 5986.179
887.4830, 5869.587
887.9651, 5745.066
888.4472, 5626.609
888.9293, 5502.109
889.4114, 5402.526
889.8936, 5359.422
890.3757, 5315.237
890.8578, 5223.874
891.3399, 5105.440
891.8220, 5007.433
892.3041, 4937.417
892.7863, 4880.360
893.2684, 4842.724
893.7505, 4806.090
894.2326, 4757.072
894.7147, 4706.710
895.1968, 4668.417
895.6790, 4642.123
896.1611, 4619.921
896.6432, 4602.188
897.1253, 4580.673
897.6074, 4544.271
898.0895, 4506.127
898.5717, 4476.821
899.0538, 4458.249
899.5359, 4455.816
900.0180, 4469.398
900.5001, 4478.886
900.9822, 4465.358
901.4644, 4440.542
901.9465, 4415.643
902.4286, 4393.050
902.9107, 4382.316
903.3928, 4381.620
903.8749, 4373.312
904.3571, 4346.902
904.8392, 4318.520
905.3213, 4316.132
905.8034, 4330.937
906.2855, 4324.977
906.7676, 4300.053
907.2498, 4282.126
907.7319, 4278.516
908.2140, 4280.357
908.6961, 4280.292
909.1782, 4279.200
909.6603, 4281.065
910.1425, 4286.533
910.6246, 4281.646
911.1067, 4261.971
911.5888, 4252.129
912.0709, 4267.001
912.5530, 4285.725
913.0352, 4278.760
913.5173, 4247.526
913.9994, 4229.869
914.4815, 4229.762
914.9636, 4233.605
915.4457, 4245.693
915.9279, 4250.797
916.4100, 4231.997
916.8921, 4204.296
917.3742, 4200.893
917.8563, 4231.500
918.3384, 4246.975
918.8206, 4225.567
919.3027, 4218.324
919.7848, 4252.640
920.2669, 4290.310
920.7490, 4298.658
921.2311, 4285.162
921.7133, 4277.107
922.1954, 4277.706
922.6775, 4283.497
923.1596, 4299.000
923.6417, 4313.683
924.1238, 4318.594
924.6060, 4322.179
925.0881, 4338.484
925.5702, 4365.589
926.0523, 4382.396
926.5344, 4371.952
927.0165, 4365.873
927.4987, 4382.847
927.9808, 4406.913
928.4629, 4424.081
928.9450, 4437.834
929.4271, 4459.092
929.9092, 4489.533
930.3914, 4514.849
930.8735, 4536.973
931.3556, 4539.007
931.8377, 4485.994
932.3198, 4416.637
932.8019, 4389.811
933.2841, 4397.998
933.7662, 4395.863
934.2483, 4364.742
934.7304, 4326.403
935.2125, 4300.901
935.6946, 4280.530
936.1768, 4253.727
936.6589, 4222.870
937.1410, 4192.105
937.6231, 4163.750
938.1052, 4143.917
938.5873, 4136.843
939.0695, 4136.104
939.5516, 4135.612
940.0337, 4133.746
940.5158, 4123.768
940.9979, 4107.640
941.4800, 4096.581
941.9622, 4093.322
942.4443, 4089.744
942.9264, 4077.803
943.4085, 4065.791
943.8906, 4077.408
944.3727, 4107.470
944.8549, 4116.569
945.3370, 4102.607
945.8191, 4082.605
946.3012, 4061.837
946.7833, 4050.380
947.2654, 4061.696
947.7476, 4087.998
948.2297, 4095.988
948.7118, 4084.684
949.1939, 4083.466
949.6760, 4097.696
950.1581, 4104.266
950.6403, 4090.542
951.1224, 4068.911
951.6045, 4055.778
952.0866, 4051.190
952.5687, 4057.092
953.0508, 4077.147
953.5330, 4089.413
954.0151, 4089.212
954.4972, 4083.530
954.9793, 4073.548
955.4614, 4065.249
955.9435, 4071.016
956.4257, 4092.668
956.9078, 4109.244
957.3899, 4119.146
957.8720, 4128.724
958.3541, 4143.511
958.8362, 4150.113
959.3184, 4131.175
959.8005, 4101.752
960.2826, 4103.490
960.7647, 4149.738
961.2468, 4175.841
961.7289, 4167.403
962.2111, 4163.454
962.6932, 4171.892
963.1753, 4190.501
963.6574, 4224.880
964.1395, 4267.803
964.6216, 4291.066
965.1038, 4282.427
965.5859, 4281.557
966.0680, 4287.108
966.5501, 4302.221
967.0322, 4329.684
967.5143, 4365.540
967.9965, 4414.861
968.4786, 4471.960
968.9607, 4504.472
969.4428, 4491.454
969.9249, 4489.033
970.4070, 4495.183
970.8892, 4519.445
971.3713, 4577.486
971.8534, 4647.840
972.3355, 4709.632
972.8176, 4761.833
973.2997, 4803.916
973.7819, 4820.596
974.2640, 4850.826
974.7461, 4927.685
975.2282, 4989.607
975.7103, 4986.885
976.1924, 4960.193
976.6746, 4971.504
977.1567, 5021.598
977.6388, 5043.052
978.1209, 5009.413
978.6030, 4962.753
979.0851, 4906.225
979.5673, 4847.515
980.0494, 4789.815
980.5315, 4733.728
981.0136, 4677.809
981.4957, 4622.193
981.9778, 4575.345
982.4600, 4547.828
982.9421, 4517.660
983.4242, 4464.176
983.9063, 4418.102
984.3884, 4411.576
984.8705, 4424.618
985.3527, 4419.537
985.8348, 4389.928
986.3169, 4362.950
986.7990, 4345.405
987.2811, 4335.490
987.7632, 4338.328
988.2454, 4343.323
988.7275, 4344.491
989.2096, 4340.136
989.6917, 4326.274
990.1738, 4301.934
990.6559, 4282.237
991.1381, 4266.933
991.6202, 4265.586
992.1023, 4300.984
992.5844, 4336.862
993.0665, 4334.816
993.5486, 4308.416
994.0308, 4290.844
994.5129, 4290.044
994.9950, 4295.071
995.4771, 4306.037
995.9592, 4315.763
996.4413, 4322.538
996.9235, 4324.667
997.4056, 4314.950
997.8877, 4300.720
998.3698, 4300.494
998.8519, 4319.993
999.3340, 4334.445
999.8162, 4325.161
1000.298, 4316.957
1000.780, 4325.482
1001.263, 4340.422
1001.745, 4355.012
1002.227, 4366.143
1002.709, 4368.161
1003.191, 4358.887
1003.673, 4351.050
1004.155, 4346.590
1004.637, 4349.737
1005.119, 4375.090
1005.602, 4399.323
1006.084, 4392.408
1006.566, 4365.675
1007.048, 4351.121
1007.530, 4357.040
1008.012, 4374.568
1008.494, 4413.305
1008.976, 4446.408
1009.458, 4457.128
1009.941, 4456.499
1010.423, 4454.124
1010.905, 4450.452
1011.387, 4441.241
1011.869, 4424.277
1012.351, 4415.274
1012.833, 4427.866
1013.315, 4441.417
1013.798, 4442.871
1014.280, 4442.127
1014.762, 4449.732
1015.244, 4463.117
1015.726, 4474.472
1016.208, 4481.993
1016.690, 4487.489
1017.172, 4486.921
1017.654, 4490.344
1018.137, 4507.545
1018.619, 4526.437
1019.101, 4534.855
1019.583, 4536.366
1020.065, 4541.045
1020.547, 4551.215
1021.029, 4560.879
1021.511, 4566.491
1021.994, 4573.369
1022.476, 4582.782
1022.958, 4595.207
1023.440, 4615.552
1023.922, 4637.736
1024.404, 4647.616
1024.886, 4641.715
1025.368, 4639.823
1025.850, 4649.007
1026.333, 4660.278
1026.815, 4669.695
1027.297, 4681.084
1027.779, 4702.500
1028.261, 4726.165
1028.743, 4733.390
1029.225, 4719.804
1029.707, 4721.248
1030.190, 4760.452
1030.672, 4792.300
1031.154, 4804.129
1031.636, 4806.693
1032.118, 4796.220
1032.600, 4785.992
1033.082, 4803.392
1033.564, 4852.978
1034.047, 4882.149
1034.529, 4870.819
1035.011, 4861.444
1035.493, 4857.117
1035.975, 4860.180
1036.457, 4879.179
1036.939, 4902.541
1037.421, 4911.654
1037.903, 4905.707
1038.385, 4902.935
1038.868, 4894.151
1039.350, 4903.695
1039.832, 4943.119
1040.314, 4988.682
1040.796, 5039.778
1041.278, 5083.086
1041.760, 5096.587
1042.242, 5082.413
1042.725, 5084.522
1043.207, 5117.397
1043.689, 5133.915
1044.171, 5120.854
1044.653, 5110.749
1045.135, 5115.599
1045.617, 5131.237
1046.099, 5155.347
1046.582, 5186.138
1047.064, 5210.908
1047.546, 5229.925
1048.028, 5240.016
1048.510, 5234.176
1048.992, 5241.155
1049.474, 5276.535
1049.956, 5314.802
1050.438, 5329.435
1050.921, 5328.829
1051.403, 5345.861
1051.885, 5384.881
1052.367, 5405.974
1052.849, 5403.735
1053.331, 5414.062
1053.813, 5450.450
1054.295, 5486.006
1054.777, 5498.084
1055.260, 5495.805
1055.742, 5499.653
1056.224, 5509.581
1056.706, 5517.831
1057.188, 5524.218
1057.670, 5556.849
1058.152, 5622.986
1058.634, 5681.346
1059.117, 5703.289
1059.599, 5708.119
1060.081, 5727.229
1060.563, 5757.657
1061.045, 5785.605
1061.527, 5811.816
1062.009, 5842.555
1062.491, 5877.995
1062.974, 5907.707
1063.456, 5926.229
1063.938, 5944.117
1064.420, 5978.325
1064.902, 6018.233
1065.384, 6037.739
1065.866, 6044.744
1066.348, 6057.862
1066.830, 6080.312
1067.313, 6115.228
1067.795, 6162.970
1068.277, 6207.953
1068.759, 6232.767
1069.241, 6253.396
1069.723, 6294.242
1070.205, 6342.408
1070.687, 6377.605
1071.169, 6401.398
1071.652, 6419.871
1072.134, 6436.201
1072.616, 6457.750
1073.098, 6486.279
1073.580, 6526.691
1074.062, 6598.192
1074.544, 6669.187
1075.026, 6698.550
1075.508, 6711.220
1075.991, 6755.571
1076.473, 6830.818
1076.955, 6890.292
1077.437, 6909.623
1077.919, 6932.579
1078.401, 6980.584
1078.883, 7035.875
1079.365, 7092.813
1079.848, 7147.825
1080.330, 7191.011
1080.812, 7229.722
1081.294, 7292.128
1081.776, 7396.759
1082.258, 7470.265
1082.740, 7462.042
1083.222, 7470.510
1083.704, 7533.655
1084.187, 7615.519
1084.669, 7696.517
1085.151, 7774.711
1085.633, 7844.610
1086.115, 7902.601
1086.597, 7982.180
1087.079, 8098.289
1087.561, 8205.642
1088.043, 8290.658
1088.526, 8379.521
1089.008, 8485.310
1089.490, 8602.651
1089.972, 8728.088
1090.454, 8858.976
1090.936, 8965.807
1091.418, 9035.859
1091.900, 9153.945
1092.383, 9334.881
1092.865, 9511.020
1093.347, 9651.897
1093.829, 9817.684
1094.311, 10069.33
1094.793, 10371.47
1095.275, 10618.93
1095.757, 10820.33
1096.240, 11081.64
1096.722, 11401.43
1097.204, 11732.04
1097.686, 12062.02
1098.168, 12395.16
1098.650, 12733.46
1099.132, 13096.52
1099.614, 13510.05
1100.096, 13970.46
1100.578, 14481.01
1101.061, 15029.13
1101.543, 15596.49
1102.025, 16163.49
1102.507, 16710.24
1102.989, 17225.66
1103.471, 17601.58
1103.953, 17760.21
1104.435, 17730.96
1104.918, 17495.21
1105.400, 17127.14
1105.882, 16660.84
1106.364, 16158.74
1106.846, 15707.00
1107.328, 15329.60
1107.810, 15034.79
1108.292, 14842.60
1108.775, 14702.11
1109.257, 14595.00
1109.739, 14527.64
1110.221, 14500.99
1110.703, 14518.16
1111.185, 14598.44
1111.667, 14725.71
1112.149, 14838.41
1112.631, 14910.30
1113.114, 15031.71
1113.596, 15245.56
1114.078, 15461.97
1114.560, 15665.10
1115.042, 15861.73
1115.524, 16047.76
1116.006, 16235.61
1116.488, 16448.81
1116.970, 16687.11
1117.453, 16908.84
1117.935, 17102.45
1118.417, 17327.03
1118.899, 17597.64
1119.381, 17856.83
1119.863, 18076.93
1120.345, 18297.90
1120.827, 18563.85
1121.310, 18860.85
1121.792, 19161.01
1122.274, 19461.36
1122.756, 19706.75
1123.238, 19905.13
1123.720, 20138.06
1124.202, 20424.62
1124.684, 20719.94
1125.167, 20997.38
1125.649, 21257.52
1126.131, 21481.17
1126.613, 21701.81
1127.095, 21992.80
1127.577, 22317.38
1128.059, 22600.92
1128.541, 22848.79
1129.023, 23112.46
1129.505, 23406.04
1129.988, 23671.77
1130.470, 23843.64
1130.952, 24020.49
1131.434, 24283.50
1131.916, 24561.52
1132.398, 24793.28
1132.880, 24999.13
1133.362, 25220.33
1133.845, 25452.89
1134.327, 25646.04
1134.809, 25775.39
1135.291, 25901.73
1135.773, 26040.62
1136.255, 26169.57
1136.737, 26263.31
1137.219, 26364.93
1137.702, 26523.32
1138.184, 26697.22
1138.666, 26797.43
1139.148, 26820.42
1139.630, 26861.43
1140.112, 26923.16
1140.594, 26998.12
1141.076, 27092.67
1141.558, 27156.78
1142.041, 27162.70
1142.523, 27168.16
1143.005, 27238.05
1143.487, 27341.49
1143.969, 27397.69
1144.451, 27414.36
1144.933, 27430.27
1145.415, 27443.44
1145.897, 27428.77
1146.380, 27385.93
1146.862, 27352.36
1147.344, 27349.01
1147.826, 27349.71
1148.308, 27323.96
1148.790, 27291.43
1149.272, 27272.81
1149.754, 27263.59
1150.237, 27275.49
1150.719, 27285.88
1151.201, 27230.48
1151.683, 27105.79
1152.165, 27028.03
1152.647, 27090.20
1153.129, 27122.42
1153.611, 27029.54
1154.094, 26936.35
1154.576, 26915.50
1155.058, 26921.34
1155.540, 26914.62
1156.022, 26891.48
1156.504, 26845.67
1156.986, 26773.70
1157.468, 26692.04
1157.950, 26587.82
1158.432, 26511.32
1158.915, 26480.40
1159.397, 26450.26
1159.879, 26403.46
1160.361, 26326.06
1160.843, 26192.40
1161.325, 26026.23
1161.807, 25918.65
1162.289, 25860.20
1162.772, 25777.54
1163.254, 25672.82
1163.736, 25602.92
1164.218, 25573.90
1164.700, 25513.01
1165.182, 25373.48
1165.664, 25222.35
1166.146, 25142.74
1166.629, 25082.11
1167.111, 24963.51
1167.593, 24833.39
1168.075, 24771.25
1168.557, 24749.10
1169.039, 24682.73
1169.521, 24557.92
1170.003, 24442.20
1170.485, 24369.19
1170.968, 24292.28
1171.450, 24181.23
1171.932, 24084.27
1172.414, 24045.13
1172.896, 24012.29
1173.378, 23924.01
1173.860, 23809.38
1174.342, 23745.30
1174.824, 23736.50
1175.307, 23740.02
1175.789, 23766.71
1176.271, 23755.86
1176.753, 23693.94
1177.235, 23621.46
1177.717, 23552.26
1178.199, 23514.02
1178.681, 23542.29
1179.164, 23602.48
1179.646, 23618.06
1180.128, 23599.85
1180.610, 23573.04
1181.092, 23543.29
1181.574, 23518.70
1182.056, 23503.12
1182.538, 23509.70
1183.021, 23544.95
1183.503, 23566.07
1183.985, 23514.28
1184.467, 23471.32
1184.949, 23523.92
1185.431, 23581.95
1185.913, 23566.38
1186.395, 23501.17
1186.877, 23417.48
1187.359, 23324.85
1187.842, 23256.70
1188.324, 23237.05
1188.806, 23193.13
1189.288, 23095.25
1189.770, 23031.57
1190.252, 23042.71
1190.734, 23044.59
1191.216, 22984.47
1191.699, 22891.73
1192.181, 22810.46
1192.663, 22736.21
1193.145, 22641.96
1193.627, 22531.88
1194.109, 22442.07
1194.591, 22372.91
1195.073, 22311.83
1195.556, 22252.96
1196.038, 22182.11
1196.520, 22091.13
1197.002, 21984.57
1197.484, 21838.93
1197.966, 21709.68
1198.448, 21668.79
1198.930, 21662.92
1199.412, 21641.37
1199.895, 21597.15
1200.377, 21519.61
1200.859, 21412.73
1201.341, 21335.09
1201.823, 21306.86
1202.305, 21294.65
1202.787, 21323.66
1203.269, 21325.00
1203.751, 21264.97
1204.234, 21198.29
1204.716, 21162.28
1205.198, 21142.12
1205.680, 21106.10
1206.162, 21062.85
1206.644, 21092.57
1207.126, 21190.15
1207.608, 21259.48
1208.091, 21294.46
1208.573, 21309.06
1209.055, 21311.79
1209.537, 21336.64
1210.019, 21406.07
1210.501, 21501.48
1210.983, 21618.28
1211.465, 21734.29
1211.948, 21817.79
1212.430, 21894.01
1212.912, 21998.10
1213.394, 22119.30
1213.876, 22224.73
1214.358, 22313.10
1214.840, 22427.21
1215.322, 22596.91
1215.804, 22752.49
1216.286, 22884.27
1216.769, 23004.49
1217.251, 23099.21
1217.733, 23212.16
1218.215, 23372.46
1218.697, 23569.92
1219.179, 23804.31
1219.661, 24055.32
1220.143, 24189.89
1220.626, 24232.05
1221.108, 24380.24
1221.590, 24629.96
1222.072, 24869.50
1222.554, 25068.97
1223.036, 25250.39
1223.518, 25425.29
1224.000, 25600.74
1224.483, 25780.72
1224.965, 25966.99
1225.447, 26168.74
1225.929, 26368.85
1226.411, 26537.00
1226.893, 26697.65
1227.375, 26900.14
1227.857, 27140.74
1228.339, 27350.22
1228.822, 27510.07
1229.304, 27672.77
1229.786, 27835.78
1230.268, 28011.29
1230.750, 28207.07
1231.232, 28397.81
1231.714, 28568.33
1232.196, 28732.60
1232.678, 28904.21
1233.161, 29088.14
1233.643, 29307.68
1234.125, 29543.96
1234.607, 29738.43
1235.089, 29902.69
1235.571, 30079.27
1236.053, 30267.82
1236.535, 30426.03
1237.018, 30537.03
1237.500, 30683.68
1237.982, 30945.39
1238.464, 31201.09
1238.946, 31404.98
1239.428, 31579.82
1239.910, 31709.09
1240.392, 31842.14
1240.875, 32031.15
1241.357, 32259.24
1241.839, 32484.36
1242.321, 32706.38
1242.803, 32941.59
1243.285, 33191.49
1243.767, 33441.93
1244.249, 33691.09
1244.731, 33925.39
1245.214, 34140.94
1245.696, 34357.78
1246.178, 34588.64
1246.660, 34842.48
1247.142, 35115.15
1247.624, 35427.50
1248.106, 35839.95
1248.588, 36274.38
1249.070, 36617.81
1249.553, 36912.54
1250.035, 37258.63
1250.517, 37667.71
1250.999, 38083.69
1251.481, 38497.30
1251.963, 38923.18
1252.445, 39352.80
1252.927, 39813.76
1253.410, 40310.90
1253.892, 40848.03
1254.374, 41434.36
1254.856, 42027.56
1255.338, 42562.81
1255.820, 43085.53
1256.302, 43723.79
1256.784, 44424.61
1257.266, 45035.22
1257.749, 45596.64
1258.231, 46230.89
1258.713, 46937.27
1259.195, 47629.86
1259.677, 48280.39
1260.159, 48929.52
1260.641, 49552.73
1261.123, 50239.14
1261.605, 51089.37
1262.088, 51914.39
1262.570, 52644.36
1263.052, 53300.14
1263.534, 53873.24
1264.016, 54414.45
1264.498, 55036.52
1264.980, 55721.43
1265.462, 56284.50
1265.945, 56734.89
1266.427, 57136.14
1266.909, 57501.55
1267.391, 57878.35
1267.873, 58265.68
1268.355, 58599.99
1268.837, 58845.43
1269.319, 59011.09
1269.802, 59093.54
1270.284, 59126.74
1270.766, 59141.82
1271.248, 59101.63
##END=



