##NAMES=Iimoriite-(Y)
##RRUFFID=R070457
##IDEAL CHEMISTRY=Y^3+^_2_(SiO_4_)(CO_3_)
##LOCALITY=I and L No. 4 claim, Bokan Mountain, Prince of Wales Island, Prince of Wales-Outer Ketchikan Borough, Alaska, USA
##OWNER=RRUFF
##SOURCE=Michael Scott
##DESCRIPTION=Colorless to tan unconsolidated grains and fragments
##STATUS=The identification of this mineral has been confirmed by single-crystal X-ray diffraction.
##URL=rruff.info/R070457
137.6203, 2344.752
138.1024, 2424.855
138.5845, 2515.177
139.0667, 2602.290
139.5488, 2679.780
140.0309, 2745.350
140.5130, 2815.860
140.9951, 2890.558
141.4772, 2971.861
141.9594, 3068.846
142.4415, 3195.192
142.9236, 3312.882
143.4057, 3400.565
143.8878, 3444.362
144.3699, 3491.656
144.8521, 3548.267
145.3342, 3612.565
145.8163, 3667.937
146.2984, 3711.403
146.7805, 3749.407
147.2626, 3787.203
147.7448, 3821.135
148.2269, 3859.946
148.7090, 3906.960
149.1911, 3963.909
149.6732, 4013.928
150.1554, 4049.920
150.6375, 4082.596
151.1196, 4121.552
151.6017, 4165.922
152.0838, 4218.230
152.5659, 4283.445
153.0481, 4370.617
153.5302, 4440.962
154.0123, 4470.873
154.4944, 4487.479
154.9765, 4529.083
155.4586, 4630.017
155.9408, 4731.550
156.4229, 4814.848
156.9050, 4859.799
157.3871, 4862.537
157.8692, 4824.174
158.3513, 4766.625
158.8335, 4730.769
159.3156, 4736.734
159.7977, 4759.013
160.2798, 4785.793
160.7619, 4824.176
161.2440, 4854.076
161.7262, 4865.417
162.2083, 4862.602
162.6904, 4860.876
163.1725, 4870.094
163.6546, 4880.406
164.1367, 4884.441
164.6189, 4876.748
165.1010, 4865.585
165.5831, 4848.737
166.0652, 4827.827
166.5473, 4818.570
167.0294, 4836.570
167.5116, 4867.724
167.9937, 4897.043
168.4758, 4917.011
168.9579, 4934.670
169.4400, 4954.581
169.9221, 4976.771
170.4043, 4998.983
170.8864, 5020.013
171.3685, 5039.857
171.8506, 5059.027
172.3327, 5073.846
172.8148, 5089.898
173.2970, 5112.780
173.7791, 5143.234
174.2612, 5177.594
174.7433, 5217.898
175.2254, 5259.998
175.7076, 5294.504
176.1897, 5310.166
176.6718, 5317.709
177.1539, 5332.607
177.6360, 5358.401
178.1181, 5385.861
178.6003, 5402.831
179.0824, 5412.375
179.5645, 5426.011
180.0466, 5449.963
180.5287, 5483.157
181.0108, 5524.627
181.4930, 5577.411
181.9751, 5632.909
182.4572, 5677.393
182.9393, 5712.193
183.4214, 5745.401
183.9035, 5780.537
184.3857, 5818.188
184.8678, 5861.965
185.3499, 5914.758
185.8320, 5970.963
186.3141, 6022.357
186.7962, 6069.315
187.2784, 6104.838
187.7605, 6121.409
188.2426, 6120.863
188.7247, 6111.454
189.2068, 6091.291
189.6889, 6065.564
190.1711, 6047.429
190.6532, 6037.292
191.1353, 6031.960
191.6174, 6030.463
192.0995, 6032.366
192.5816, 6031.979
193.0638, 6024.737
193.5459, 6013.792
194.0280, 6014.962
194.5101, 6030.486
194.9922, 6048.860
195.4743, 6056.417
195.9565, 6053.155
196.4386, 6047.754
196.9207, 6038.402
197.4028, 6027.140
197.8849, 6036.140
198.3671, 6069.021
198.8492, 6113.570
199.3313, 6151.859
199.8134, 6182.719
200.2955, 6219.006
200.7776, 6270.243
201.2598, 6336.657
201.7419, 6391.079
202.2240, 6433.184
202.7061, 6464.510
203.1882, 6491.119
203.6703, 6516.033
204.1525, 6521.345
204.6346, 6494.364
205.1167, 6431.319
205.5988, 6367.996
206.0809, 6302.005
206.5630, 6238.700
207.0452, 6191.728
207.5273, 6165.537
208.0094, 6140.840
208.4915, 6104.014
208.9736, 6050.121
209.4557, 6016.687
209.9379, 6011.915
210.4200, 6024.025
210.9021, 6020.310
211.3842, 5993.297
211.8663, 5969.471
212.3484, 5964.883
212.8306, 5983.782
213.3127, 6003.355
213.7948, 6018.878
214.2769, 6035.090
214.7590, 6071.867
215.2411, 6138.456
215.7233, 6206.239
216.2054, 6252.374
216.6875, 6263.212
217.1696, 6298.539
217.6517, 6372.852
218.1338, 6475.942
218.6160, 6555.086
219.0981, 6597.709
219.5802, 6638.410
220.0623, 6700.601
220.5444, 6789.674
221.0265, 6885.254
221.5087, 6987.396
221.9908, 7095.591
222.4729, 7203.041
222.9550, 7313.590
223.4371, 7419.467
223.9192, 7517.363
224.4014, 7606.132
224.8835, 7685.505
225.3656, 7752.799
225.8477, 7809.494
226.3298, 7866.771
226.8119, 7932.643
227.2941, 7989.577
227.7762, 8025.526
228.2583, 8041.583
228.7404, 8031.535
229.2225, 7988.066
229.7046, 7913.031
230.1868, 7837.612
230.6689, 7752.642
231.1510, 7678.310
231.6331, 7633.801
232.1152, 7635.659
232.5974, 7635.217
233.0795, 7623.295
233.5616, 7600.133
234.0437, 7581.748
234.5258, 7563.976
235.0079, 7555.788
235.4901, 7565.503
235.9722, 7595.990
236.4543, 7640.097
236.9364, 7700.803
237.4185, 7778.741
237.9006, 7850.974
238.3828, 7920.548
238.8649, 7981.275
239.3470, 8027.020
239.8291, 8052.408
240.3112, 8072.175
240.7933, 8094.806
241.2755, 8122.192
241.7576, 8110.884
242.2397, 8049.959
242.7218, 7960.269
243.2039, 7861.872
243.6860, 7752.962
244.1682, 7637.226
244.6503, 7510.329
245.1324, 7369.444
245.6145, 7257.037
246.0966, 7186.032
246.5787, 7131.314
247.0609, 7065.022
247.5430, 6976.186
248.0251, 6896.574
248.5072, 6830.735
248.9893, 6778.742
249.4714, 6748.543
249.9536, 6752.512
250.4357, 6766.317
250.9178, 6761.352
251.3999, 6725.589
251.8820, 6695.072
252.3641, 6677.245
252.8463, 6672.553
253.3284, 6677.692
253.8105, 6699.195
254.2926, 6723.776
254.7747, 6735.682
255.2568, 6728.585
255.7390, 6721.697
256.2211, 6715.563
256.7032, 6709.055
257.1853, 6726.882
257.6674, 6783.712
258.1495, 6848.165
258.6317, 6880.169
259.1138, 6858.562
259.5959, 6853.958
260.0780, 6887.615
260.5601, 6961.704
261.0422, 7023.897
261.5244, 7073.037
262.0065, 7111.677
262.4886, 7139.515
262.9707, 7151.143
263.4528, 7166.759
263.9349, 7189.630
264.4171, 7220.023
264.8992, 7264.357
265.3813, 7329.668
265.8634, 7399.711
266.3455, 7458.750
266.8276, 7508.149
267.3098, 7544.332
267.7919, 7569.650
268.2740, 7583.528
268.7561, 7563.767
269.2382, 7496.703
269.7203, 7420.646
270.2025, 7372.042
270.6846, 7352.155
271.1667, 7357.655
271.6488, 7397.028
272.1309, 7466.215
272.6130, 7509.250
273.0952, 7516.741
273.5773, 7518.786
274.0594, 7544.783
274.5415, 7596.622
275.0236, 7660.566
275.5057, 7734.603
275.9879, 7818.257
276.4700, 7909.018
276.9521, 8008.530
277.4342, 8110.812
277.9163, 8208.693
278.3984, 8301.173
278.8806, 8400.121
279.3627, 8509.469
279.8448, 8626.787
280.3269, 8743.173
280.8090, 8857.723
281.2911, 8973.563
281.7733, 9090.903
282.2554, 9209.194
282.7375, 9344.991
283.2196, 9506.503
283.7017, 9685.621
284.1838, 9861.008
284.6660, 10035.87
285.1481, 10189.02
285.6302, 10295.44
286.1123, 10357.87
286.5944, 10426.79
287.0765, 10519.21
287.5587, 10618.68
288.0408, 10678.31
288.5229, 10696.55
289.0050, 10700.72
289.4871, 10704.59
289.9692, 10710.19
290.4514, 10733.25
290.9335, 10784.88
291.4156, 10845.35
291.8977, 10869.18
292.3798, 10857.42
292.8619, 10840.95
293.3441, 10851.17
293.8262, 10877.00
294.3083, 10875.86
294.7904, 10837.19
295.2726, 10776.40
295.7547, 10708.14
296.2368, 10635.01
296.7189, 10574.38
297.2010, 10540.99
297.6831, 10529.22
298.1653, 10522.84
298.6474, 10515.29
299.1295, 10523.65
299.6116, 10572.55
300.0937, 10657.74
300.5758, 10762.19
301.0580, 10871.79
301.5401, 10993.57
302.0222, 11143.54
302.5043, 11324.99
302.9864, 11524.24
303.4685, 11711.85
303.9507, 11901.87
304.4328, 12130.26
304.9149, 12433.75
305.3970, 12777.82
305.8791, 13127.97
306.3612, 13477.96
306.8434, 13834.29
307.3255, 14175.52
307.8076, 14522.33
308.2897, 14922.60
308.7718, 15432.48
309.2539, 15982.55
309.7361, 16505.19
310.2182, 16989.83
310.7003, 17492.33
311.1824, 18047.09
311.6645, 18639.38
312.1466, 19244.66
312.6288, 19870.72
313.1109, 20499.63
313.5930, 21127.26
314.0751, 21758.80
314.5572, 22385.59
315.0393, 23020.84
315.5215, 23644.48
316.0036, 24231.72
316.4857, 24786.50
316.9678, 25300.39
317.4499, 25780.28
317.9320, 26225.29
318.4142, 26619.18
318.8963, 26965.01
319.3784, 27251.70
319.8605, 27473.66
320.3426, 27586.84
320.8247, 27674.46
321.3069, 27766.22
321.7890, 27856.06
322.2711, 27903.07
322.7532, 27898.27
323.2353, 27845.75
323.7174, 27748.15
324.1996, 27630.16
324.6817, 27436.85
325.1638, 27157.10
325.6459, 26795.87
326.1280, 26373.72
326.6101, 25860.98
327.0923, 25310.87
327.5744, 24752.80
328.0565, 24201.47
328.5386, 23618.11
329.0207, 22987.07
329.5028, 22328.07
329.9850, 21668.69
330.4671, 20992.99
330.9492, 20334.79
331.4313, 19698.69
331.9134, 19079.57
332.3955, 18495.67
332.8777, 17939.82
333.3598, 17424.55
333.8419, 16950.72
334.3240, 16517.11
334.8061, 16124.63
335.2882, 15770.74
335.7704, 15454.13
336.2525, 15175.02
336.7346, 14929.89
337.2167, 14721.81
337.6988, 14559.59
338.1809, 14454.10
338.6631, 14353.86
339.1452, 14240.77
339.6273, 14117.25
340.1094, 14032.49
340.5915, 13985.42
341.0736, 13978.19
341.5558, 14019.77
342.0379, 14114.01
342.5200, 14220.10
343.0021, 14328.05
343.4842, 14443.31
343.9663, 14594.98
344.4485, 14785.45
344.9306, 14987.72
345.4127, 15168.53
345.8948, 15333.33
346.3769, 15531.46
346.8590, 15775.81
347.3412, 16046.22
347.8233, 16303.59
348.3054, 16547.35
348.7875, 16784.12
349.2696, 17020.79
349.7517, 17249.63
350.2339, 17462.81
350.7160, 17659.98
351.1981, 17831.65
351.6802, 17967.11
352.1623, 18067.43
352.6444, 18141.11
353.1266, 18203.54
353.6087, 18236.39
354.0908, 18205.62
354.5729, 18105.79
355.0550, 17975.33
355.5371, 17851.69
356.0193, 17719.82
356.5014, 17554.38
356.9835, 17343.09
357.4656, 17098.11
357.9477, 16825.01
358.4298, 16525.13
358.9120, 16210.51
359.3941, 15903.87
359.8762, 15582.16
360.3583, 15216.03
360.8404, 14738.73
361.3225, 14276.43
361.8047, 13891.08
362.2868, 13569.97
362.7689, 13254.08
363.2510, 12895.40
363.7331, 12550.16
364.2152, 12253.52
364.6974, 12019.86
365.1795, 11827.34
365.6616, 11676.65
366.1437, 11562.44
366.6258, 11472.13
367.1079, 11407.79
367.5901, 11363.68
368.0722, 11339.32
368.5543, 11339.88
369.0364, 11348.24
369.5185, 11353.56
370.0006, 11369.86
370.4828, 11416.54
370.9649, 11500.89
371.4470, 11607.59
371.9291, 11737.72
372.4112, 11893.71
372.8933, 12049.78
373.3755, 12185.13
373.8576, 12337.45
374.3397, 12545.63
374.8218, 12823.31
375.3039, 13115.33
375.7861, 13418.22
376.2682, 13726.41
376.7503, 14020.63
377.2324, 14288.44
377.7145, 14568.68
378.1967, 14891.75
378.6788, 15256.29
379.1609, 15645.78
379.6430, 16063.45
380.1251, 16499.86
380.6072, 16950.83
381.0894, 17415.68
381.5715, 17878.99
382.0536, 18318.65
382.5357, 18748.57
383.0178, 19221.85
383.4999, 19752.90
383.9821, 20297.43
384.4642, 20799.64
384.9463, 21272.43
385.4284, 21736.84
385.9105, 22229.13
386.3926, 22717.23
386.8748, 23148.84
387.3569, 23527.28
387.8390, 23869.39
388.3211, 24194.25
388.8032, 24494.17
389.2853, 24749.47
389.7675, 24978.58
390.2496, 25137.30
390.7317, 25170.95
391.2138, 25094.73
391.6959, 24973.30
392.1780, 24823.85
392.6602, 24653.13
393.1423, 24465.26
393.6244, 24251.63
394.1065, 24042.47
394.5886, 23840.19
395.0707, 23650.71
395.5529, 23483.23
396.0350, 23292.07
396.5171, 23164.28
396.9992, 23142.01
397.4813, 23240.63
397.9634, 23384.80
398.4456, 23540.69
398.9277, 23747.03
399.4098, 24044.06
399.8919, 24509.65
400.3740, 24982.57
400.8561, 25425.82
401.3383, 25840.71
401.8204, 26327.85
402.3025, 26918.81
402.7846, 27548.76
403.2667, 28179.50
403.7488, 28794.40
404.2310, 29441.40
404.7131, 30147.62
405.1952, 30875.40
405.6773, 31540.79
406.1594, 32131.78
406.6415, 32699.94
407.1237, 33289.60
407.6058, 33900.85
408.0879, 34404.76
408.5700, 34789.59
409.0521, 35096.86
409.5342, 35390.34
410.0164, 35665.04
410.4985, 35849.11
410.9806, 35908.73
411.4627, 35862.44
411.9448, 35750.89
412.4269, 35573.77
412.9091, 35353.77
413.3912, 35107.63
413.8733, 34836.58
414.3554, 34543.28
414.8375, 34224.21
415.3196, 33897.98
415.8018, 33570.10
416.2839, 33251.34
416.7660, 32964.36
417.2481, 32754.87
417.7302, 32572.02
418.2123, 32383.89
418.6945, 32196.59
419.1766, 31959.74
419.6587, 31658.31
420.1408, 31287.99
420.6229, 30847.12
421.1050, 30374.12
421.5872, 29796.96
422.0693, 29053.77
422.5514, 28149.57
423.0335, 27225.14
423.5156, 26277.51
423.9977, 25335.41
424.4799, 24400.63
424.9620, 23439.94
425.4441, 22554.81
425.9262, 21739.49
426.4083, 20996.84
426.8904, 20326.55
427.3726, 19724.35
427.8547, 19190.48
428.3368, 18730.40
428.8189, 18347.88
429.3010, 18002.95
429.7831, 17695.10
430.2653, 17423.65
430.7474, 17183.24
431.2295, 16974.01
431.7116, 16804.85
432.1937, 16681.76
432.6758, 16600.66
433.1580, 16553.61
433.6401, 16546.36
434.1222, 16531.00
434.6043, 16455.71
435.0864, 16333.14
435.5685, 16234.67
436.0507, 16172.11
436.5328, 16131.43
437.0149, 16106.74
437.4970, 16090.88
437.9791, 16055.65
438.4612, 15955.51
438.9434, 15839.92
439.4255, 15781.89
439.9076, 15787.25
440.3897, 15806.20
440.8718, 15797.79
441.3539, 15781.83
441.8361, 15783.84
442.3182, 15828.56
442.8003, 15878.72
443.2824, 15901.59
443.7645, 15909.40
444.2466, 15954.81
444.7288, 16080.67
445.2109, 16232.66
445.6930, 16375.93
446.1751, 16489.48
446.6572, 16631.15
447.1393, 16825.18
447.6215, 17048.33
448.1036, 17261.31
448.5857, 17454.11
449.0678, 17648.92
449.5499, 17849.51
450.0320, 18053.96
450.5142, 18276.71
450.9963, 18524.12
451.4784, 18782.86
451.9605, 19044.18
452.4426, 19317.23
452.9247, 19567.67
453.4069, 19793.20
453.8890, 19998.63
454.3711, 20185.92
454.8532, 20353.85
455.3353, 20526.03
455.8174, 20707.23
456.2996, 20900.53
456.7817, 21108.60
457.2638, 21327.92
457.7459, 21581.48
458.2281, 21907.46
458.7102, 22288.02
459.1923, 22685.93
459.6744, 23085.41
460.1565, 23497.32
460.6386, 23909.55
461.1208, 24334.20
461.6029, 24800.77
462.0850, 25368.79
462.5671, 25966.21
463.0492, 26515.52
463.5313, 26994.12
464.0135, 27485.22
464.4956, 28028.96
464.9777, 28607.69
465.4598, 29184.60
465.9419, 29760.07
466.4240, 30323.47
466.9062, 30876.35
467.3883, 31418.32
467.8704, 31908.74
468.3525, 32344.82
468.8346, 32731.26
469.3167, 33075.41
469.7989, 33382.33
470.2810, 33635.71
470.7631, 33856.84
471.2452, 34013.45
471.7273, 34034.84
472.2094, 33905.38
472.6916, 33691.02
473.1737, 33417.40
473.6558, 33083.89
474.1379, 32653.71
474.6200, 32114.99
475.1021, 31524.10
475.5843, 30928.27
476.0664, 30326.68
476.5485, 29705.56
477.0306, 29061.02
477.5127, 28409.70
477.9948, 27772.77
478.4770, 27151.29
478.9591, 26551.79
479.4412, 25993.57
479.9233, 25447.83
480.4054, 24875.51
480.8875, 24270.74
481.3697, 23692.78
481.8518, 23170.35
482.3339, 22699.23
482.8160, 22274.78
483.2981, 21911.58
483.7802, 21575.62
484.2624, 21265.53
484.7445, 20977.67
485.2266, 20709.34
485.7087, 20449.63
486.1908, 20217.52
486.6729, 20026.23
487.1551, 19884.00
487.6372, 19753.51
488.1193, 19620.40
488.6014, 19510.39
489.0835, 19451.01
489.5656, 19450.21
490.0478, 19480.67
490.5299, 19539.74
491.0120, 19626.50
491.4941, 19738.47
491.9762, 19880.95
492.4583, 20027.46
492.9405, 20152.29
493.4226, 20263.05
493.9047, 20400.83
494.3868, 20569.51
494.8689, 20765.97
495.3510, 21009.99
495.8332, 21283.74
496.3153, 21535.24
496.7974, 21729.29
497.2795, 21902.10
497.7616, 22085.10
498.2437, 22278.50
498.7259, 22474.79
499.2080, 22707.80
499.6901, 22921.54
500.1722, 23069.51
500.6543, 23136.16
501.1364, 23159.02
501.6186, 23152.29
502.1007, 23109.97
502.5828, 23024.03
503.0649, 22885.21
503.5470, 22710.30
504.0291, 22497.84
504.5113, 22248.10
504.9934, 21990.90
505.4755, 21707.94
505.9576, 21442.76
506.4397, 21218.95
506.9218, 21045.90
507.4040, 20884.40
507.8861, 20734.21
508.3682, 20593.44
508.8503, 20452.28
509.3324, 20309.34
509.8145, 20198.25
510.2967, 20134.81
510.7788, 20107.93
511.2609, 20089.40
511.7430, 20079.41
512.2252, 20086.17
512.7073, 20119.48
513.1894, 20172.38
513.6715, 20233.32
514.1536, 20299.70
514.6357, 20377.30
515.1179, 20481.80
515.6000, 20599.24
516.0821, 20705.36
516.5642, 20768.93
517.0463, 20841.70
517.5284, 20949.56
518.0106, 21090.09
518.4927, 21236.44
518.9748, 21393.74
519.4569, 21545.95
519.9390, 21680.43
520.4211, 21781.33
520.9033, 21901.93
521.3854, 22052.62
521.8675, 22216.31
522.3496, 22368.43
522.8317, 22507.65
523.3138, 22642.78
523.7960, 22773.13
524.2781, 22901.46
524.7602, 23029.58
525.2423, 23156.90
525.7244, 23298.08
526.2065, 23476.63
526.6887, 23678.68
527.1708, 23855.85
527.6529, 24001.58
528.1350, 24135.66
528.6171, 24276.29
529.0992, 24422.07
529.5814, 24568.14
530.0635, 24720.07
530.5456, 24864.88
531.0277, 24988.18
531.5098, 25094.78
531.9919, 25206.30
532.4741, 25348.01
532.9562, 25483.98
533.4383, 25593.46
533.9204, 25665.75
534.4025, 25738.93
534.8846, 25828.99
535.3668, 25916.34
535.8489, 25981.74
536.3310, 26026.33
536.8131, 26049.39
537.2952, 26043.78
537.7773, 26019.97
538.2595, 26013.63
538.7416, 26033.05
539.2237, 26041.75
539.7058, 26023.51
540.1879, 25980.08
540.6700, 25919.98
541.1522, 25841.70
541.6343, 25762.28
542.1164, 25702.48
542.5985, 25654.63
543.0806, 25602.05
543.5627, 25546.46
544.0449, 25470.69
544.5270, 25343.44
545.0091, 25181.78
545.4912, 25027.87
545.9733, 24941.03
546.4554, 24833.60
546.9376, 24642.28
547.4197, 24369.56
547.9018, 24096.63
548.3839, 23869.41
548.8660, 23635.52
549.3481, 23361.02
549.8303, 23015.86
550.3124, 22678.61
550.7945, 22341.88
551.2766, 22019.04
551.7587, 21728.54
552.2408, 21481.83
552.7230, 21231.38
553.2051, 20959.76
553.6872, 20676.57
554.1693, 20416.94
554.6514, 20179.87
555.1335, 19975.92
555.6157, 19829.31
556.0978, 19722.22
556.5799, 19598.11
557.0620, 19448.57
557.5441, 19318.64
558.0262, 19260.77
558.5084, 19249.50
558.9905, 19242.66
559.4726, 19227.45
559.9547, 19212.20
560.4368, 19195.80
560.9189, 19182.81
561.4011, 19185.03
561.8832, 19228.32
562.3653, 19267.97
562.8474, 19284.38
563.3295, 19271.87
563.8116, 19261.17
564.2938, 19234.63
564.7759, 19227.51
565.2580, 19272.03
565.7401, 19392.14
566.2222, 19486.01
566.7043, 19546.17
567.1865, 19579.67
567.6686, 19589.43
568.1507, 19575.44
568.6328, 19577.10
569.1149, 19616.84
569.5970, 19676.62
570.0792, 19722.98
570.5613, 19754.88
571.0434, 19764.76
571.5255, 19729.64
572.0076, 19678.52
572.4897, 19648.56
572.9719, 19649.59
573.4540, 19640.08
573.9361, 19591.87
574.4182, 19523.61
574.9003, 19455.49
575.3824, 19383.07
575.8646, 19321.74
576.3467, 19304.65
576.8288, 19302.39
577.3109, 19226.63
577.7930, 19027.69
578.2751, 18834.28
578.7573, 18689.77
579.2394, 18593.64
579.7215, 18498.50
580.2036, 18407.03
580.6857, 18304.84
581.1678, 18171.11
581.6500, 18012.72
582.1321, 17870.29
582.6142, 17750.93
583.0963, 17642.38
583.5784, 17531.58
584.0605, 17419.35
584.5427, 17305.05
585.0248, 17175.42
585.5069, 17057.16
585.9890, 16973.28
586.4711, 16918.88
586.9532, 16872.16
587.4354, 16838.89
587.9175, 16799.40
588.3996, 16736.76
588.8817, 16638.54
589.3638, 16571.97
589.8459, 16557.45
590.3281, 16558.32
590.8102, 16545.77
591.2923, 16512.20
591.7744, 16486.79
592.2565, 16469.88
592.7386, 16463.82
593.2208, 16479.88
593.7029, 16517.90
594.1850, 16544.34
594.6671, 16533.36
595.1492, 16512.34
595.6313, 16536.26
596.1135, 16602.86
596.5956, 16692.21
597.0777, 16810.47
597.5598, 16935.89
598.0419, 17045.87
598.5240, 17138.93
599.0062, 17220.33
599.4883, 17251.70
599.9704, 17294.91
600.4525, 17405.74
600.9346, 17673.65
601.4167, 17907.89
601.8989, 18071.14
602.3810, 18198.96
602.8631, 18365.55
603.3452, 18588.82
603.8273, 18807.40
604.3094, 18997.95
604.7916, 19171.60
605.2737, 19385.37
605.7558, 19643.56
606.2379, 19923.90
606.7200, 20236.81
607.2021, 20564.98
607.6843, 20846.80
608.1664, 21077.97
608.6485, 21304.95
609.1306, 21556.37
609.6127, 21834.10
610.0948, 22154.28
610.5770, 22551.67
611.0591, 22935.21
611.5412, 23245.69
612.0233, 23513.99
612.5054, 23802.19
612.9875, 24131.54
613.4697, 24470.23
613.9518, 24815.29
614.4339, 25162.47
614.9160, 25474.63
615.3981, 25732.97
615.8802, 25991.93
616.3624, 26289.99
616.8445, 26626.30
617.3266, 26941.21
617.8087, 27235.51
618.2908, 27503.67
618.7729, 27725.85
619.2551, 27917.63
619.7372, 28119.67
620.2193, 28345.49
620.7014, 28575.33
621.1835, 28807.57
621.6656, 29028.88
622.1478, 29219.73
622.6299, 29346.88
623.1120, 29468.43
623.5941, 29616.47
624.0762, 29782.87
624.5583, 29915.05
625.0405, 29980.83
625.5226, 30043.05
626.0047, 30131.04
626.4868, 30251.24
626.9689, 30321.25
627.4510, 30328.75
627.9332, 30315.33
628.4153, 30313.66
628.8974, 30322.47
629.3795, 30333.29
629.8616, 30346.77
630.3438, 30353.59
630.8259, 30355.00
631.3080, 30340.35
631.7901, 30284.27
632.2722, 30153.07
632.7543, 30005.76
633.2365, 29891.93
633.7186, 29795.73
634.2007, 29675.08
634.6828, 29517.26
635.1649, 29332.71
635.6470, 29112.33
636.1292, 28854.64
636.6113, 28638.25
637.0934, 28497.65
637.5755, 28353.13
638.0576, 28152.64
638.5397, 27885.78
639.0219, 27639.12
639.5040, 27416.52
639.9861, 27197.85
640.4682, 26961.74
640.9503, 26709.71
641.4324, 26442.93
641.9146, 26156.26
642.3967, 25868.37
642.8788, 25609.14
643.3609, 25364.10
643.8430, 25097.77
644.3251, 24756.63
644.8073, 24431.03
645.2894, 24184.31
645.7715, 23997.31
646.2536, 23772.84
646.7357, 23451.14
647.2178, 23134.99
647.7000, 22859.47
648.1821, 22630.39
648.6642, 22381.46
649.1463, 22102.47
649.6284, 21833.17
650.1105, 21617.87
650.5927, 21451.01
651.0748, 21265.27
651.5569, 21051.72
652.0390, 20836.94
652.5211, 20647.94
653.0032, 20479.81
653.4854, 20324.85
653.9675, 20186.09
654.4496, 20048.04
654.9317, 19894.33
655.4138, 19735.04
655.8959, 19587.57
656.3781, 19455.09
656.8602, 19341.02
657.3423, 19251.98
657.8244, 19184.49
658.3065, 19115.38
658.7886, 19043.04
659.2708, 18972.97
659.7529, 18904.47
660.2350, 18837.90
660.7171, 18791.37
661.1992, 18765.40
661.6813, 18751.39
662.1635, 18746.15
662.6456, 18746.81
663.1277, 18741.10
663.6099, 18721.74
664.0920, 18724.98
664.5741, 18797.38
665.0562, 18901.99
665.5383, 18992.48
666.0204, 19037.59
666.5026, 19089.18
666.9847, 19145.92
667.4668, 19220.67
667.9489, 19338.45
668.4310, 19528.86
668.9131, 19708.58
669.3953, 19852.74
669.8774, 19972.10
670.3595, 20116.92
670.8416, 20290.17
671.3237, 20461.54
671.8058, 20595.57
672.2880, 20719.36
672.7701, 20917.39
673.2522, 21188.17
673.7343, 21453.62
674.2164, 21644.63
674.6985, 21813.63
675.1807, 22013.22
675.6628, 22253.24
676.1449, 22501.00
676.6270, 22741.89
677.1091, 22987.78
677.5912, 23254.38
678.0734, 23563.32
678.5555, 23853.04
679.0376, 24114.58
679.5197, 24365.32
680.0018, 24636.07
680.4839, 24930.12
680.9661, 25227.61
681.4482, 25534.99
681.9303, 25831.54
682.4124, 26075.85
682.8945, 26277.44
683.3766, 26480.06
683.8588, 26693.75
684.3409, 26928.24
684.8230, 27210.48
685.3051, 27531.83
685.7872, 27811.23
686.2693, 27961.03
686.7515, 28116.04
687.2336, 28359.39
687.7157, 28720.12
688.1978, 28984.21
688.6799, 29112.47
689.1620, 29209.18
689.6442, 29359.26
690.1263, 29563.03
690.6084, 29720.41
691.0905, 29818.20
691.5726, 29893.27
692.0547, 29994.00
692.5369, 30104.74
693.0190, 30189.58
693.5011, 30240.46
693.9832, 30260.46
694.4653, 30238.84
694.9474, 30191.18
695.4296, 30142.47
695.9117, 30124.14
696.3938, 30078.73
696.8759, 29997.17
697.3580, 29880.77
697.8401, 29725.68
698.3223, 29517.40
698.8044, 29302.62
699.2865, 29097.78
699.7686, 28899.72
700.2507, 28701.03
700.7328, 28501.11
701.2150, 28293.67
701.6971, 28088.14
702.1792, 27864.28
702.6613, 27577.08
703.1434, 27225.70
703.6255, 26893.32
704.1077, 26653.96
704.5898, 26434.31
705.0719, 26175.80
705.5540, 25855.99
706.0361, 25541.89
706.5182, 25222.30
707.0004, 24925.22
707.4825, 24678.36
707.9646, 24500.40
708.4467, 24297.47
708.9288, 24057.54
709.4109, 23804.60
709.8931, 23560.94
710.3752, 23331.80
710.8573, 23136.67
711.3394, 22986.18
711.8215, 22858.05
712.3036, 22723.78
712.7858, 22596.60
713.2679, 22503.90
713.7500, 22481.93
714.2321, 22469.45
714.7142, 22439.83
715.1964, 22399.93
715.6785, 22382.41
716.1606, 22392.75
716.6427, 22414.18
717.1248, 22441.50
717.6069, 22474.74
718.0891, 22519.63
718.5712, 22575.96
719.0533, 22635.00
719.5354, 22679.89
720.0175, 22727.30
720.4996, 22811.27
720.9818, 22933.29
721.4639, 23068.18
721.9460, 23212.02
722.4281, 23355.41
722.9102, 23480.44
723.3923, 23566.03
723.8745, 23711.39
724.3566, 23981.07
724.8387, 24276.76
725.3208, 24521.96
725.8029, 24694.34
726.2850, 24912.75
726.7672, 25192.64
727.2493, 25492.91
727.7314, 25757.87
728.2135, 25991.65
728.6956, 26211.72
729.1777, 26417.34
729.6599, 26626.82
730.1420, 26867.07
730.6241, 27123.89
731.1062, 27377.65
731.5883, 27639.47
732.0704, 27874.91
732.5526, 28051.21
733.0347, 28196.19
733.5168, 28381.75
733.9989, 28631.39
734.4810, 28878.13
734.9631, 29109.41
735.4453, 29327.91
735.9274, 29538.52
736.4095, 29741.79
736.8916, 29961.12
737.3737, 30225.42
737.8558, 30502.44
738.3380, 30732.49
738.8201, 30922.99
739.3022, 31122.43
739.7843, 31390.07
740.2664, 31646.68
740.7485, 31838.40
741.2307, 31951.13
741.7128, 32071.22
742.1949, 32219.61
742.6770, 32356.39
743.1591, 32457.60
743.6412, 32520.09
744.1234, 32591.63
744.6055, 32678.01
745.0876, 32740.01
745.5697, 32725.65
746.0518, 32660.77
746.5339, 32613.52
747.0161, 32598.25
747.4982, 32550.33
747.9803, 32417.13
748.4624, 32228.21
748.9445, 32016.35
749.4266, 31774.15
749.9088, 31529.11
750.3909, 31297.68
750.8730, 31059.61
751.3551, 30792.40
751.8372, 30495.60
752.3193, 30186.88
752.8015, 29876.45
753.2836, 29554.19
753.7657, 29204.18
754.2478, 28833.38
754.7299, 28470.03
755.2120, 28127.14
755.6942, 27792.89
756.1763, 27460.99
756.6584, 27131.93
757.1405, 26808.62
757.6226, 26496.99
758.1047, 26177.50
758.5869, 25835.96
759.0690, 25480.51
759.5511, 25145.39
760.0332, 24833.33
760.5153, 24520.57
760.9974, 24197.97
761.4796, 23868.46
761.9617, 23549.49
762.4438, 23241.87
762.9259, 22933.71
763.4080, 22606.04
763.8901, 22289.06
764.3723, 22015.66
764.8544, 21782.03
765.3365, 21563.06
765.8186, 21373.79
766.3007, 21173.97
766.7828, 20933.00
767.2650, 20652.83
767.7471, 20419.53
768.2292, 20245.72
768.7113, 20089.80
769.1934, 19930.86
769.6755, 19769.43
770.1577, 19606.38
770.6398, 19441.58
771.1219, 19279.00
771.6040, 19124.07
772.0861, 18973.86
772.5682, 18820.04
773.0504, 18660.49
773.5325, 18526.95
774.0146, 18451.91
774.4967, 18391.70
774.9788, 18315.35
775.4609, 18211.80
775.9431, 18133.27
776.4252, 18083.20
776.9073, 18049.54
777.3894, 18029.10
777.8715, 18018.56
778.3536, 17986.01
778.8358, 17924.10
779.3179, 17878.01
779.8000, 17899.13
780.2821, 17956.85
780.7642, 18010.50
781.2463, 18040.37
781.7285, 18098.71
782.2106, 18231.45
782.6927, 18383.33
783.1748, 18495.75
783.6569, 18534.00
784.1390, 18623.90
784.6212, 18787.60
785.1033, 18973.28
785.5854, 19097.94
786.0675, 19176.14
786.5496, 19291.77
787.0317, 19466.54
787.5139, 19660.34
787.9960, 19836.13
788.4781, 20003.68
788.9602, 20180.24
789.4423, 20378.10
789.9244, 20576.43
790.4066, 20769.31
790.8887, 20961.78
791.3708, 21168.77
791.8529, 21394.42
792.3350, 21619.15
792.8171, 21841.66
793.2993, 22056.63
793.7814, 22242.65
794.2635, 22408.57
794.7456, 22580.55
795.2277, 22767.40
795.7098, 22966.69
796.1920, 23185.34
796.6741, 23412.70
797.1562, 23624.25
797.6383, 23802.38
798.1204, 23977.29
798.6025, 24156.99
799.0847, 24333.86
799.5668, 24495.69
800.0489, 24644.71
800.5310, 24757.26
801.0131, 24814.78
801.4952, 24846.00
801.9774, 24916.06
802.4595, 25011.17
802.9416, 25084.69
803.4237, 25123.90
803.9058, 25125.74
804.3879, 25075.79
804.8701, 24986.33
805.3522, 24892.45
805.8343, 24819.36
806.3164, 24720.79
806.7985, 24584.16
807.2806, 24416.18
807.7628, 24234.02
808.2449, 24037.15
808.7270, 23839.03
809.2091, 23655.13
809.6912, 23464.19
810.1733, 23215.89
810.6555, 22923.24
811.1376, 22631.35
811.6197, 22357.90
812.1018, 22094.32
812.5839, 21840.28
813.0660, 21593.30
813.5482, 21339.61
814.0303, 21083.04
814.5124, 20821.23
814.9945, 20552.08
815.4766, 20278.87
815.9587, 20013.01
816.4409, 19754.92
816.9230, 19500.68
817.4051, 19249.54
817.8872, 19007.30
818.3693, 18784.55
818.8514, 18578.71
819.3336, 18383.28
819.8157, 18201.42
820.2978, 18021.46
820.7799, 17828.88
821.2620, 17630.96
821.7441, 17466.06
822.2263, 17337.77
822.7084, 17223.63
823.1905, 17111.80
823.6726, 17006.19
824.1547, 16932.20
824.6368, 16882.12
825.1190, 16817.33
825.6011, 16688.16
826.0832, 16556.92
826.5653, 16477.94
827.0474, 16442.89
827.5295, 16405.05
828.0117, 16352.83
828.4938, 16299.08
828.9760, 16253.77
829.4581, 16211.40
829.9402, 16124.68
830.4223, 15988.60
830.9044, 15881.55
831.3865, 15862.36
831.8687, 15882.60
832.3508, 15858.01
832.8329, 15796.95
833.3150, 15733.80
833.7971, 15693.77
834.2792, 15646.53
834.7614, 15574.28
835.2435, 15478.61
835.7256, 15385.94
836.2077, 15305.32
836.6898, 15206.38
837.1719, 15069.26
837.6541, 14910.72
838.1362, 14796.77
838.6183, 14720.81
839.1004, 14634.21
839.5825, 14491.49
840.0646, 14340.27
840.5468, 14237.68
841.0289, 14167.68
841.5110, 14073.09
841.9931, 13904.74
842.4752, 13746.83
842.9573, 13627.42
843.4395, 13535.53
843.9216, 13421.64
844.4037, 13281.38
844.8858, 13162.94
845.3679, 13096.67
845.8500, 13052.00
846.3322, 12973.52
846.8143, 12868.72
847.2964, 12762.22
847.7785, 12662.49
848.2606, 12567.47
848.7427, 12477.59
849.2249, 12391.43
849.7070, 12303.13
850.1891, 12209.88
850.6712, 12120.91
851.1533, 12038.56
851.6354, 11960.99
852.1176, 11882.68
852.5997, 11804.82
853.0818, 11735.70
853.5639, 11680.28
854.0460, 11634.43
854.5281, 11610.15
855.0103, 11591.27
855.4924, 11543.46
855.9745, 11433.37
856.4566, 11322.41
856.9387, 11219.01
857.4208, 11121.97
857.9030, 11022.49
858.3851, 10918.05
858.8672, 10841.04
859.3493, 10808.42
859.8314, 10786.64
860.3135, 10722.48
860.7957, 10632.41
861.2778, 10552.40
861.7599, 10498.90
862.2420, 10451.84
862.7241, 10397.84
863.2062, 10348.07
863.6884, 10320.34
864.1705, 10323.59
864.6526, 10324.57
865.1347, 10322.78
865.6168, 10309.42
866.0989, 10254.88
866.5811, 10175.26
867.0632, 10132.78
867.5453, 10150.66
868.0274, 10181.22
868.5095, 10188.65
868.9916, 10190.14
869.4738, 10205.50
869.9559, 10259.09
870.4380, 10295.80
870.9201, 10308.90
871.4022, 10314.06
871.8843, 10319.90
872.3665, 10328.64
872.8486, 10376.39
873.3307, 10470.69
873.8128, 10576.93
874.2949, 10654.05
874.7770, 10724.61
875.2592, 10815.88
875.7413, 10936.44
876.2234, 11061.57
876.7055, 11184.03
877.1876, 11309.21
877.6697, 11443.41
878.1519, 11590.72
878.6340, 11720.48
879.1161, 11832.25
879.5982, 11932.98
880.0803, 12034.37
880.5624, 12126.56
881.0446, 12190.98
881.5267, 12226.26
882.0088, 12250.95
882.4909, 12282.85
882.9730, 12299.41
883.4551, 12291.59
883.9373, 12261.19
884.4194, 12185.54
884.9015, 12058.77
885.3836, 11908.59
885.8657, 11754.39
886.3478, 11589.93
886.8300, 11382.36
887.3121, 11136.84
887.7942, 10897.37
888.2763, 10684.23
888.7584, 10486.62
889.2405, 10296.28
889.7227, 10115.21
890.2048, 9952.751
890.6869, 9809.542
891.1690, 9681.209
891.6511, 9571.155
892.1332, 9471.546
892.6154, 9350.032
893.0975, 9210.236
893.5796, 9083.846
894.0617, 8984.960
894.5438, 8902.299
895.0259, 8832.198
895.5081, 8772.421
895.9902, 8718.470
896.4723, 8682.713
896.9544, 8634.348
897.4365, 8565.214
897.9186, 8487.262
898.4008, 8422.154
898.8829, 8369.932
899.3650, 8337.752
899.8471, 8333.383
900.3292, 8333.347
900.8113, 8316.366
901.2935, 8286.960
901.7756, 8250.247
902.2577, 8190.420
902.7398, 8151.448
903.2219, 8148.799
903.7040, 8156.578
904.1862, 8145.936
904.6683, 8115.361
905.1504, 8094.042
905.6325, 8084.313
906.1146, 8082.313
906.5967, 8096.532
907.0789, 8110.287
907.5610, 8095.668
908.0431, 8041.344
908.5252, 8001.038
909.0073, 7998.580
909.4894, 8007.434
909.9716, 8016.455
910.4537, 8026.764
910.9358, 8019.497
911.4179, 7993.357
911.9000, 7961.508
912.3821, 7926.403
912.8643, 7895.597
913.3464, 7885.308
913.8285, 7893.161
914.3106, 7896.529
914.7927, 7887.842
915.2748, 7870.285
915.7570, 7836.424
916.2391, 7793.487
916.7212, 7782.551
917.2033, 7807.737
917.6854, 7837.568
918.1675, 7863.629
918.6497, 7882.658
919.1318, 7883.808
919.6139, 7872.968
920.0960, 7865.414
920.5781, 7861.975
921.0602, 7869.134
921.5424, 7898.067
922.0245, 7935.953
922.5066, 7960.583
922.9887, 7968.466
923.4708, 7978.351
923.9529, 7993.186
924.4351, 8010.627
924.9172, 8029.761
925.3993, 8048.696
925.8814, 8062.733
926.3635, 8069.357
926.8456, 8075.993
927.3278, 8084.446
927.8099, 8095.430
928.2920, 8111.294
928.7741, 8137.615
929.2562, 8146.774
929.7383, 8136.809
930.2205, 8118.391
930.7026, 8099.332
931.1847, 8079.142
931.6668, 8059.361
932.1489, 8039.476
932.6310, 8009.753
933.1132, 7960.984
933.5953, 7904.947
934.0774, 7849.331
934.5595, 7793.161
935.0416, 7724.683
935.5237, 7638.136
936.0059, 7564.173
936.4880, 7521.681
936.9701, 7496.119
937.4522, 7455.849
937.9343, 7406.338
938.4164, 7367.278
938.8986, 7351.875
939.3807, 7342.460
939.8628, 7332.922
940.3449, 7324.686
940.8270, 7322.080
941.3091, 7327.226
941.7913, 7327.929
942.2734, 7322.395
942.7555, 7309.943
943.2376, 7279.706
943.7197, 7243.617
944.2018, 7228.807
944.6840, 7251.708
945.1661, 7264.963
945.6482, 7238.485
946.1303, 7202.571
946.6124, 7181.869
947.0945, 7178.746
947.5767, 7182.124
948.0588, 7193.962
948.5409, 7201.381
949.0230, 7191.828
949.5051, 7171.761
949.9872, 7148.333
950.4694, 7122.931
950.9515, 7103.544
951.4336, 7096.262
951.9157, 7093.303
952.3978, 7089.311
952.8799, 7086.306
953.3621, 7099.478
953.8442, 7130.642
954.3263, 7154.666
954.8084, 7160.599
955.2905, 7154.703
955.7726, 7140.038
956.2548, 7120.824
956.7369, 7106.773
957.2190, 7099.312
957.7011, 7099.938
958.1832, 7111.261
958.6653, 7128.351
959.1475, 7144.744
959.6296, 7160.083
960.1117, 7182.878
960.5938, 7216.607
961.0759, 7244.558
961.5580, 7244.069
962.0402, 7231.444
962.5223, 7225.385
963.0044, 7229.087
963.4865, 7238.278
963.9686, 7247.822
964.4507, 7268.426
964.9329, 7308.811
965.4150, 7366.881
965.8971, 7412.864
966.3792, 7447.284
966.8613, 7491.315
967.3434, 7569.682
967.8256, 7653.679
968.3077, 7709.563
968.7898, 7746.872
969.2719, 7800.332
969.7540, 7890.481
970.2361, 7972.464
970.7183, 8034.792
971.2004, 8088.324
971.6825, 8154.647
972.1646, 8231.077
972.6467, 8303.257
973.1288, 8366.155
973.6110, 8428.224
974.0931, 8501.971
974.5752, 8573.914
975.0573, 8632.123
975.5394, 8682.886
976.0215, 8694.388
976.5037, 8657.790
976.9858, 8604.564
977.4679, 8563.899
977.9500, 8526.161
978.4321, 8460.794
978.9142, 8368.389
979.3964, 8265.896
979.8785, 8158.939
980.3606, 8048.835
980.8427, 7932.015
981.3248, 7812.079
981.8069, 7704.272
982.2891, 7607.333
982.7712, 7525.133
983.2533, 7459.308
983.7354, 7407.804
984.2175, 7372.970
984.6996, 7347.819
985.1818, 7317.354
985.6639, 7270.792
986.1460, 7228.240
986.6281, 7192.976
987.1102, 7165.907
987.5923, 7150.145
988.0745, 7146.459
988.5566, 7141.752
989.0387, 7135.262
989.5208, 7128.307
990.0029, 7123.048
990.4850, 7117.335
990.9672, 7106.906
991.4493, 7091.933
991.9314, 7083.028
992.4135, 7090.161
992.8957, 7093.699
993.3778, 7086.791
993.8599, 7072.606
994.3420, 7061.166
994.8242, 7052.393
995.3063, 7045.680
995.7884, 7047.825
996.2705, 7040.877
996.7526, 6990.887
997.2347, 6930.023
997.7169, 6910.333
998.1990, 6965.447
998.6811, 7000.110
999.1632, 7009.525
999.6453, 7004.125
1000.127, 6985.023
1000.610, 6961.064
1001.092, 6960.791
1001.574, 6986.242
1002.056, 7007.093
1002.538, 7008.987
1003.020, 6999.106
1003.502, 6973.182
1003.984, 6936.372
1004.466, 6927.757
1004.949, 6951.872
1005.431, 6968.715
1005.913, 6959.227
1006.395, 6938.625
1006.877, 6923.206
1007.359, 6914.159
1007.841, 6913.686
1008.323, 6946.254
1008.806, 6952.231
1009.288, 6909.811
1009.770, 6856.131
1010.252, 6827.202
1010.734, 6821.889
1011.216, 6826.432
1011.698, 6840.287
1012.180, 6845.377
1012.662, 6807.555
1013.145, 6770.269
1013.627, 6781.528
1014.109, 6841.906
1014.591, 6857.386
1015.073, 6805.003
1015.555, 6762.043
1016.037, 6761.542
1016.519, 6780.699
1017.002, 6763.248
1017.484, 6722.725
1017.966, 6697.825
1018.448, 6715.553
1018.930, 6729.300
1019.412, 6716.587
1019.894, 6692.669
1020.376, 6671.710
1020.858, 6652.948
1021.341, 6646.258
1021.823, 6653.355
1022.305, 6660.634
1022.787, 6652.339
1023.269, 6640.348
1023.751, 6641.519
1024.233, 6655.262
1024.715, 6661.630
1025.198, 6649.493
1025.680, 6638.157
1026.162, 6628.319
1026.644, 6625.856
1027.126, 6659.020
1027.608, 6716.983
1028.090, 6743.684
1028.572, 6710.184
1029.054, 6668.182
1029.536, 6648.958
1030.019, 6640.674
1030.501, 6631.114
1030.983, 6619.421
1031.465, 6605.575
1031.947, 6588.169
1032.429, 6576.875
1032.911, 6587.807
1033.393, 6605.983
1033.876, 6605.995
1034.358, 6589.830
1034.840, 6571.720
1035.322, 6555.340
1035.804, 6540.309
1036.286, 6526.792
1036.768, 6514.207
1037.250, 6499.949
1037.733, 6484.482
1038.215, 6474.436
1038.697, 6471.268
1039.179, 6472.456
1039.661, 6474.474
1040.143, 6480.270
1040.625, 6495.652
1041.107, 6525.307
1041.589, 6539.207
1042.072, 6534.147
1042.554, 6523.138
1043.036, 6508.929
1043.518, 6496.953
1044.000, 6502.999
1044.482, 6521.715
1044.964, 6534.951
1045.446, 6529.474
1045.928, 6524.961
1046.411, 6528.495
1046.893, 6534.067
1047.375, 6531.590
1047.857, 6521.444
1048.339, 6515.652
1048.821, 6515.601
1049.303, 6520.444
1049.785, 6534.947
1050.268, 6549.811
1050.750, 6556.765
1051.232, 6554.352
1051.714, 6552.749
1052.196, 6554.222
1052.678, 6549.666
1053.160, 6531.590
1053.642, 6510.142
1054.125, 6508.228
1054.607, 6519.449
1055.089, 6528.639
1055.571, 6528.539
1056.053, 6529.307
1056.535, 6537.600
1057.017, 6544.491
1057.499, 6538.557
1057.981, 6520.027
1058.464, 6519.657
1058.946, 6538.312
1059.428, 6558.189
1059.910, 6571.683
1060.392, 6575.996
1060.874, 6561.178
1061.356, 6532.833
1061.838, 6521.479
1062.320, 6530.497
1062.803, 6549.178
1063.285, 6578.347
1063.767, 6608.170
1064.249, 6623.581
1064.731, 6628.944
1065.213, 6632.909
1065.695, 6638.551
1066.177, 6636.641
1066.660, 6618.148
1067.142, 6597.445
1067.624, 6576.577
1068.106, 6558.780
1068.588, 6578.766
1069.070, 6630.978
1069.552, 6672.716
1070.034, 6671.957
1070.516, 6662.446
1070.999, 6663.203
1071.481, 6669.568
1071.963, 6671.418
1072.445, 6663.418
1072.927, 6673.486
1073.409, 6706.960
1073.891, 6740.823
1074.373, 6749.512
1074.855, 6745.810
1075.338, 6747.365
1075.820, 6755.035
1076.302, 6756.979
1076.784, 6730.028
1077.266, 6731.309
1077.748, 6792.752
1078.230, 6874.518
1078.713, 6866.842
1079.195, 6795.976
1079.677, 6762.508
1080.159, 6806.865
1080.641, 6854.114
1081.123, 6858.987
1081.605, 6854.163
1082.087, 6867.741
1082.569, 6901.358
1083.052, 6920.463
1083.534, 6924.434
1084.016, 6929.367
1084.498, 6951.490
1084.980, 6973.542
1085.462, 6965.714
1085.944, 6946.184
1086.426, 6961.916
1086.908, 7041.680
1087.391, 7103.711
1087.873, 7138.433
1088.355, 7162.675
1088.837, 7185.594
1089.319, 7215.303
1089.801, 7268.626
1090.283, 7346.884
1090.765, 7440.756
1091.248, 7532.659
1091.730, 7656.569
1092.212, 7820.261
1092.694, 8023.902
1093.176, 8268.357
1093.658, 8553.370
1094.140, 8877.129
1094.622, 9233.446
1095.104, 9638.004
1095.587, 10097.51
1096.069, 10608.75
1096.551, 11174.83
1097.033, 11798.32
1097.515, 12415.22
1097.997, 13025.84
1098.479, 13649.11
1098.961, 14317.42
1099.443, 14985.06
1099.926, 15599.59
1100.408, 16167.92
1100.890, 16718.49
1101.372, 17276.57
1101.854, 17796.59
1102.336, 18296.89
1102.818, 18683.51
1103.300, 18927.94
1103.783, 18959.57
1104.265, 18584.40
1104.747, 17813.15
1105.229, 16871.90
1105.711, 15724.66
1106.193, 14585.79
1106.675, 13481.95
1107.157, 12448.90
1107.640, 11543.60
1108.122, 10767.13
1108.604, 10080.42
1109.086, 9478.891
1109.568, 8968.854
1110.050, 8577.101
1110.532, 8262.135
1111.014, 8001.463
1111.496, 7789.297
1111.979, 7605.136
1112.461, 7448.174
1112.943, 7340.710
1113.425, 7326.791
1113.907, 7325.992
1114.389, 7237.436
1114.871, 7110.338
1115.353, 7027.483
1115.835, 7029.781
1116.318, 7014.465
1116.800, 6979.230
1117.282, 6933.968
1117.764, 6879.939
1118.246, 6823.989
1118.728, 6776.098
1119.210, 6737.120
1119.692, 6707.539
1120.175, 6693.241
1120.657, 6683.384
1121.139, 6681.211
1121.621, 6675.258
1122.103, 6639.088
1122.585, 6584.585
1123.067, 6556.253
1123.549, 6560.572
1124.031, 6564.711
1124.514, 6544.500
1124.996, 6527.144
1125.478, 6530.383
1125.960, 6545.592
1126.442, 6535.937
1126.924, 6503.973
1127.406, 6482.371
1127.888, 6483.053
1128.370, 6490.825
1128.853, 6499.292
1129.335, 6505.602
1129.817, 6505.620
1130.299, 6498.433
1130.781, 6496.815
1131.263, 6501.554
1131.745, 6502.872
1132.227, 6492.703
1132.710, 6479.358
1133.192, 6473.572
1133.674, 6471.197
1134.156, 6463.722
1134.638, 6444.048
1135.120, 6433.588
1135.602, 6436.172
1136.084, 6437.912
1136.567, 6420.047
1137.049, 6396.563
1137.531, 6392.966
1138.013, 6406.855
1138.495, 6420.232
1138.977, 6428.683
1139.459, 6433.834
1139.941, 6435.980
1140.423, 6434.276
1140.906, 6425.113
1141.388, 6411.250
1141.870, 6399.414
1142.352, 6390.228
1142.834, 6388.575
1143.316, 6403.100
1143.798, 6419.061
1144.280, 6435.019
1144.762, 6445.958
1145.245, 6429.488
1145.727, 6391.571
1146.209, 6368.376
1146.691, 6372.642
1147.173, 6381.379
1147.655, 6380.485
1148.137, 6378.639
1148.619, 6382.131
1149.102, 6390.716
1149.584, 6402.787
1150.066, 6417.925
1150.548, 6429.616
1151.030, 6437.925
1151.512, 6437.189
1151.994, 6410.284
1152.476, 6377.884
1152.958, 6369.646
1153.441, 6393.646
1153.923, 6414.293
1154.405, 6432.167
1154.887, 6441.555
1155.369, 6435.225
1155.851, 6421.001
1156.333, 6402.228
1156.815, 6382.121
1157.297, 6370.957
1157.780, 6371.150
1158.262, 6375.638
1158.744, 6386.192
1159.226, 6391.317
1159.708, 6371.642
1160.190, 6343.307
1160.672, 6326.519
1161.154, 6322.925
1161.637, 6332.020
1162.119, 6365.293
1162.601, 6385.475
1163.083, 6380.760
1163.565, 6369.000
1164.047, 6385.741
1164.529, 6412.908
1165.011, 6412.179
1165.494, 6374.459
1165.976, 6345.091
1166.458, 6333.090
1166.940, 6335.436
1167.422, 6358.215
1167.904, 6388.027
1168.386, 6384.310
1168.868, 6359.535
1169.350, 6348.803
1169.833, 6369.218
1170.315, 6382.224
1170.797, 6366.798
1171.279, 6349.313
1171.761, 6344.463
1172.243, 6349.049
1172.725, 6347.649
1173.207, 6341.316
1173.689, 6334.570
1174.172, 6329.760
1174.654, 6324.624
1175.136, 6311.389
1175.618, 6303.690
1176.100, 6318.180
1176.582, 6353.259
1177.064, 6368.081
1177.546, 6363.491
1178.029, 6349.833
1178.511, 6316.838
1178.993, 6294.412
1179.475, 6308.410
1179.957, 6336.451
1180.439, 6350.272
1180.921, 6349.820
1181.403, 6339.612
1181.885, 6319.996
1182.368, 6303.662
1182.850, 6307.498
1183.332, 6310.579
1183.814, 6286.416
1184.296, 6254.378
1184.778, 6271.327
1185.260, 6340.896
1185.742, 6374.398
1186.224, 6354.919
1186.707, 6326.137
1187.189, 6326.871
1187.671, 6332.327
1188.153, 6320.104
1188.635, 6293.317
1189.117, 6275.446
1189.599, 6267.004
1190.081, 6262.150
1190.564, 6259.485
1191.046, 6259.792
1191.528, 6266.815
1192.010, 6275.113
1192.492, 6280.197
1192.974, 6281.693
1193.456, 6274.319
1193.938, 6256.422
1194.421, 6244.971
1194.903, 6248.430
1195.385, 6256.637
1195.867, 6260.138
1196.349, 6260.876
1196.831, 6260.478
1197.313, 6258.307
1197.795, 6261.336
1198.277, 6270.571
1198.760, 6278.479
1199.242, 6280.316
1199.724, 6279.855
1200.206, 6285.293
1200.688, 6290.118
1201.170, 6281.529
1201.652, 6248.773
1202.134, 6233.865
1202.616, 6240.756
1203.099, 6244.161
1203.581, 6213.819
1204.063, 6180.295
1204.545, 6190.014
1205.027, 6225.154
1205.509, 6245.822
1205.991, 6245.226
1206.473, 6234.085
1206.956, 6210.208
1207.438, 6188.289
1207.920, 6176.708
1208.402, 6177.048
1208.884, 6203.308
1209.366, 6244.008
1209.848, 6255.099
1210.330, 6218.656
1210.813, 6192.499
1211.295, 6182.609
1211.777, 6184.066
1212.259, 6200.415
1212.741, 6219.619
1213.223, 6225.298
1213.705, 6218.415
1214.187, 6211.268
1214.669, 6201.910
1215.151, 6203.500
1215.634, 6221.528
1216.116, 6239.988
1216.598, 6235.572
1217.080, 6223.399
1217.562, 6222.956
1218.044, 6235.536
1218.526, 6248.896
1219.008, 6264.114
1219.491, 6272.209
1219.973, 6270.046
1220.455, 6262.475
1220.937, 6244.356
1221.419, 6231.194
1221.901, 6253.994
1222.383, 6319.519
1222.865, 6334.116
1223.348, 6275.654
1223.830, 6241.073
1224.312, 6270.382
1224.794, 6316.369
1225.276, 6318.173
1225.758, 6295.311
1226.240, 6269.815
1226.722, 6243.729
1227.204, 6232.671
1227.687, 6241.980
1228.169, 6243.020
1228.651, 6218.470
1229.133, 6190.599
1229.615, 6193.290
1230.097, 6209.744
1230.579, 6216.482
1231.061, 6208.954
1231.543, 6193.816
1232.026, 6167.405
1232.508, 6153.834
1232.990, 6174.092
1233.472, 6200.616
1233.954, 6191.875
1234.436, 6169.521
1234.918, 6168.662
1235.400, 6202.787
1235.883, 6212.320
1236.365, 6193.764
1236.847, 6177.755
1237.329, 6189.396
1237.811, 6205.357
1238.293, 6193.173
1238.775, 6171.961
1239.257, 6176.604
1239.740, 6219.462
1240.222, 6246.050
1240.704, 6256.114
1241.186, 6255.333
1241.668, 6244.280
1242.150, 6227.395
1242.632, 6199.982
1243.114, 6173.168
1243.596, 6167.800
1244.079, 6188.992
1244.561, 6207.507
1245.043, 6222.912
1245.525, 6227.759
1246.007, 6202.186
1246.489, 6178.717
1246.971, 6185.021
1247.453, 6209.587
1247.936, 6231.141
1248.418, 6250.351
1248.900, 6254.352
1249.382, 6242.387
1249.864, 6231.429
1250.346, 6231.394
1250.828, 6238.624
1251.310, 6262.084
1251.792, 6285.751
1252.275, 6278.099
1252.757, 6239.975
1253.239, 6215.550
1253.721, 6208.054
1254.203, 6205.760
1254.685, 6200.417
1255.167, 6199.106
1255.649, 6208.877
1256.131, 6222.937
1256.614, 6230.032
1257.096, 6231.295
1257.578, 6234.882
1258.060, 6241.713
1258.542, 6253.360
1259.024, 6280.866
1259.506, 6300.538
1259.988, 6301.927
1260.471, 6293.021
1260.953, 6285.048
1261.435, 6278.737
1261.917, 6278.475
1262.399, 6284.578
1262.881, 6290.539
1263.363, 6287.347
1263.845, 6292.919
1264.328, 6318.250
1264.810, 6346.231
1265.292, 6340.313
1265.774, 6315.740
1266.256, 6315.134
1266.738, 6343.340
1267.220, 6362.622
1267.702, 6354.847
1268.184, 6346.272
1268.667, 6341.842
1269.149, 6341.472
1269.631, 6349.772
1270.113, 6360.033
1270.595, 6358.287
1271.077, 6342.558
1271.559, 6332.958
1272.041, 6328.692
1272.523, 6341.822
1273.006, 6384.231
1273.488, 6422.272
1273.970, 6393.438
1274.452, 6339.428
1274.934, 6314.395
1275.416, 6325.695
1275.898, 6337.624
1276.380, 6347.103
1276.863, 6369.771
1277.345, 6417.021
1277.827, 6453.706
1278.309, 6430.735
1278.791, 6383.255
1279.273, 6340.435
1279.755, 6306.357
1280.237, 6295.217
1280.719, 6308.103
1281.202, 6331.905
1281.684, 6366.716
1282.166, 6397.278
1282.648, 6414.163
1283.130, 6418.104
1283.612, 6402.056
1284.094, 6373.836
1284.576, 6379.522
1285.058, 6414.503
1285.541, 6425.940
1286.023, 6392.581
1286.505, 6365.040
1286.987, 6379.066
1287.469, 6405.701
1287.951, 6432.938
1288.433, 6455.687
1288.915, 6453.929
##END=



