##NAMES=Ilmenite
##RRUFFID=R060149
##IDEAL CHEMISTRY=Fe^2+^Ti^4+^O_3_
##LOCALITY=Faraday Property, Bancroft District, Ontario, Canada
##OWNER=RRUFF
##SOURCE=Marcus Origlieri
##DESCRIPTION=Black thick tabular crystal
##STATUS=The identification of this mineral has been confirmed by X-ray diffraction and chemical analysis
##URL=rruff.info/R060149
##MEASURED CHEMISTRY=Fe^2+^_0.96_Mn_0.07_Mg_0.01_Ti_0.98_O_3_
92.02539, 119.0160
92.50751, 123.3671
92.98962, 126.2872
93.47174, 124.7481
93.95386, 121.2617
94.43597, 117.1864
94.91809, 113.2030
95.40021, 109.3548
95.88232, 105.3248
96.36444, 100.9647
96.84656, 96.65117
97.32867, 92.37204
97.81078, 88.27117
98.29290, 84.61888
98.77502, 81.67612
99.25713, 79.48595
99.73925, 76.50980
100.2214, 71.98656
100.7035, 67.55442
101.1856, 63.79142
101.6677, 60.78502
102.1498, 58.43822
102.6320, 56.66839
103.1141, 55.65146
103.5962, 54.88252
104.0783, 54.44413
104.5604, 54.20208
105.0425, 54.16045
105.5247, 54.41532
106.0068, 54.50504
106.4889, 53.46539
106.9710, 51.19606
107.4531, 48.88820
107.9352, 47.07592
108.4173, 45.68245
108.8995, 44.25235
109.3816, 42.42940
109.8637, 40.66480
110.3458, 39.44667
110.8279, 38.88462
111.3100, 38.62363
111.7922, 38.24552
112.2743, 37.69819
112.7564, 37.20749
113.2385, 36.81047
113.7206, 36.50228
114.2027, 36.31142
114.6849, 36.26527
115.1670, 36.30338
115.6491, 36.21165
116.1312, 35.84497
116.6133, 35.50390
117.0954, 35.27245
117.5776, 35.09441
118.0597, 34.87629
118.5418, 34.54713
119.0239, 34.10365
119.5060, 33.71524
119.9881, 33.23379
120.4703, 32.92297
120.9524, 32.99510
121.4345, 33.38841
121.9166, 33.81266
122.3987, 33.99286
122.8808, 33.87773
123.3630, 33.82484
123.8451, 33.96026
124.3272, 34.09393
124.8093, 34.03304
125.2914, 33.73755
125.7735, 33.31046
126.2557, 32.75975
126.7378, 32.12092
127.2199, 31.64297
127.7020, 31.52854
128.1841, 31.66814
128.6662, 31.71337
129.1483, 31.57633
129.6305, 31.36446
130.1126, 31.18940
130.5947, 31.04255
131.0768, 30.84083
131.5589, 30.45184
132.0410, 29.83285
132.5232, 29.37928
133.0053, 29.30682
133.4874, 29.30202
133.9695, 29.20480
134.4516, 28.98593
134.9337, 28.73053
135.4159, 28.57607
135.8980, 28.60967
136.3801, 28.57967
136.8622, 28.43342
137.3443, 28.25015
137.8264, 28.09464
138.3086, 27.99175
138.7907, 27.92431
139.2728, 27.84783
139.7549, 27.77342
140.2370, 27.67529
140.7191, 27.58973
141.2013, 27.47326
141.6834, 27.23156
142.1655, 26.79232
142.6476, 26.22993
143.1297, 25.88458
143.6118, 25.87996
144.0939, 25.91088
144.5761, 25.86433
145.0582, 25.75152
145.5403, 25.62266
146.0224, 25.50318
146.5045, 25.39005
146.9866, 25.26877
147.4688, 25.08969
147.9509, 24.94348
148.4330, 24.95955
148.9151, 25.17050
149.3972, 25.33896
149.8793, 25.26669
150.3615, 25.07427
150.8436, 24.89544
151.3257, 24.76995
151.8078, 24.69136
152.2899, 24.66661
152.7720, 24.77107
153.2542, 24.78730
153.7363, 24.61457
154.2184, 24.31649
154.7005, 23.97342
155.1826, 23.60309
155.6647, 23.22194
156.1469, 23.01413
156.6290, 23.14945
157.1111, 23.31108
157.5932, 23.45696
158.0753, 23.56592
158.5574, 23.61062
159.0396, 23.55861
159.5217, 23.39422
160.0038, 23.27693
160.4859, 23.19211
160.9680, 23.15816
161.4501, 23.24800
161.9323, 23.42312
162.4144, 23.53725
162.8965, 23.41821
163.3786, 22.96742
163.8607, 22.72692
164.3428, 22.88622
164.8250, 23.10647
165.3071, 23.14603
165.7892, 22.96756
166.2713, 22.68246
166.7534, 22.39636
167.2355, 22.10226
167.7177, 21.87769
168.1998, 21.69385
168.6819, 21.59619
169.1640, 21.69965
169.6461, 22.07550
170.1282, 22.47388
170.6104, 22.59550
171.0925, 22.47791
171.5746, 22.21302
172.0567, 21.64849
172.5388, 20.94223
173.0209, 20.60574
173.5031, 20.93209
173.9852, 21.37999
174.4673, 21.42344
174.9494, 21.10251
175.4315, 20.79742
175.9136, 20.81387
176.3958, 21.13962
176.8779, 21.42167
177.3600, 21.70182
177.8421, 21.83246
178.3242, 21.64410
178.8063, 21.16596
179.2885, 20.66496
179.7706, 20.43102
180.2527, 20.52798
180.7348, 20.61798
181.2169, 20.65215
181.6990, 20.69275
182.1812, 20.78817
182.6633, 20.93897
183.1454, 21.09499
183.6275, 21.18176
184.1096, 21.15757
184.5917, 21.14895
185.0738, 21.13984
185.5560, 21.15367
186.0381, 21.22395
186.5202, 21.35264
187.0023, 21.49615
187.4844, 21.57962
187.9665, 21.56593
188.4487, 21.54293
188.9308, 21.52797
189.4129, 21.49624
189.8950, 21.40493
190.3771, 21.24187
190.8592, 21.06277
191.3414, 20.98221
191.8235, 21.06659
192.3056, 21.12456
192.7877, 21.05331
193.2698, 20.96752
193.7519, 21.05386
194.2341, 21.40196
194.7162, 21.86039
195.1983, 22.11411
195.6804, 22.15355
196.1625, 22.12364
196.6446, 22.03011
197.1268, 21.89828
197.6089, 21.79344
198.0910, 21.75512
198.5731, 21.72317
199.0552, 21.56531
199.5373, 21.23607
200.0195, 21.01532
200.5016, 21.11730
200.9837, 21.48373
201.4658, 21.80950
201.9479, 21.97332
202.4300, 22.09518
202.9122, 22.31879
203.3943, 22.65814
203.8764, 22.99802
204.3585, 23.21546
204.8406, 23.31207
205.3227, 23.49523
205.8048, 23.94799
206.2870, 24.40252
206.7691, 24.65932
207.2512, 24.69652
207.7333, 24.63774
208.2154, 24.56598
208.6975, 24.45546
209.1797, 24.48748
209.6618, 24.87871
210.1439, 25.29871
210.6260, 25.52848
211.1081, 25.54466
211.5902, 25.52967
212.0724, 25.75783
212.5545, 26.36247
213.0366, 26.79652
213.5187, 26.89965
214.0008, 26.92298
214.4829, 27.02173
214.9651, 27.22360
215.4472, 27.44844
215.9293, 27.56133
216.4114, 27.43881
216.8935, 27.46793
217.3756, 27.67625
217.8578, 27.98547
218.3399, 28.42725
218.8220, 28.97033
219.3041, 29.45272
219.7862, 29.59316
220.2683, 29.03701
220.7505, 28.83666
221.2326, 29.26792
221.7147, 29.84137
222.1968, 30.25933
222.6789, 30.42568
223.1610, 30.30550
223.6432, 29.81069
224.1253, 28.57893
224.6074, 27.73315
225.0895, 27.52363
225.5716, 27.55292
226.0537, 27.48366
226.5358, 27.23368
227.0180, 26.90850
227.5001, 26.66419
227.9822, 26.56167
228.4643, 26.33532
228.9464, 25.85886
229.4285, 25.30186
229.9107, 24.85295
230.3928, 24.55597
230.8749, 24.31990
231.3570, 24.01624
231.8391, 23.62839
232.3212, 23.34706
232.8034, 23.30380
233.2855, 23.34545
233.7676, 23.27193
234.2497, 23.03848
234.7318, 22.74475
235.2139, 22.48212
235.6961, 22.24771
236.1782, 22.04494
236.6603, 21.89853
237.1424, 21.77755
237.6245, 21.61009
238.1066, 21.35837
238.5888, 21.15659
239.0709, 21.19527
239.5530, 21.40180
240.0351, 21.55536
240.5172, 21.53735
240.9993, 21.42647
241.4815, 21.38579
241.9636, 21.45828
242.4457, 21.51175
242.9278, 21.44268
243.4099, 21.28544
243.8920, 21.09873
244.3742, 20.86102
244.8563, 20.61775
245.3384, 20.48813
245.8205, 20.51813
246.3026, 20.56063
246.7847, 20.52724
247.2668, 20.45132
247.7490, 20.38961
248.2311, 20.39697
248.7132, 20.42114
249.1953, 20.30453
249.6774, 19.94191
250.1595, 19.65660
250.6417, 19.72034
251.1238, 19.89725
251.6059, 19.84843
252.0880, 19.34347
252.5701, 18.61596
253.0522, 18.28037
253.5344, 18.56262
254.0165, 18.80664
254.4986, 18.85065
254.9807, 18.74503
255.4628, 18.50728
255.9449, 18.12411
256.4271, 17.69142
256.9092, 17.43531
257.3913, 17.42191
257.8734, 17.47692
258.3555, 17.64761
258.8376, 17.81631
259.3198, 17.85042
259.8019, 17.69629
260.2840, 17.45292
260.7661, 17.34123
261.2482, 17.48485
261.7303, 17.52183
262.2125, 17.35008
262.6946, 17.10842
263.1767, 16.88348
263.6588, 16.70868
264.1409, 16.61175
264.6230, 16.67311
265.1052, 17.09120
265.5873, 17.26673
266.0694, 16.99546
266.5515, 16.63154
267.0336, 16.45873
267.5157, 16.52952
267.9979, 16.66882
268.4800, 16.59491
268.9621, 16.11226
269.4442, 15.84946
269.9263, 15.90325
270.4084, 16.05892
270.8906, 16.23052
271.3727, 16.37907
271.8548, 16.45374
272.3369, 16.36861
272.8190, 16.01744
273.3011, 15.87294
273.7833, 16.11719
274.2654, 16.37478
274.7475, 16.43633
275.2296, 16.29728
275.7117, 16.06005
276.1938, 15.79879
276.6760, 15.46649
277.1581, 15.42675
277.6402, 15.95072
278.1223, 16.44641
278.6044, 16.63239
279.0865, 16.53741
279.5686, 16.33782
280.0508, 16.16512
280.5329, 16.01925
281.0150, 15.91456
281.4971, 15.77364
281.9792, 15.73996
282.4613, 15.94379
282.9435, 16.30308
283.4256, 16.64088
283.9077, 16.85168
284.3898, 16.93624
284.8719, 16.88150
285.3540, 16.54778
285.8362, 16.25415
286.3183, 16.10018
286.8004, 16.04232
287.2825, 15.99728
287.7646, 15.92180
288.2467, 15.83141
288.7289, 15.78113
289.2110, 15.84584
289.6931, 15.85629
290.1752, 15.73750
290.6573, 15.56184
291.1394, 15.43338
291.6216, 15.39322
292.1037, 15.40608
292.5858, 15.39951
293.0679, 15.35124
293.5500, 15.32705
294.0321, 15.39163
294.5143, 15.45843
294.9964, 15.40364
295.4785, 15.19458
295.9606, 14.94755
296.4427, 14.82294
296.9248, 14.85229
297.4070, 14.93368
297.8891, 15.18337
298.3712, 15.41272
298.8533, 15.41620
299.3354, 15.17487
299.8175, 14.87418
300.2997, 14.69666
300.7818, 14.66599
301.2639, 14.64194
301.7460, 14.60007
302.2281, 14.58342
302.7102, 14.65297
303.1924, 14.79419
303.6745, 14.90723
304.1566, 14.91916
304.6387, 14.82699
305.1208, 14.68816
305.6029, 14.33285
306.0851, 14.09525
306.5672, 14.24010
307.0493, 14.66385
307.5314, 15.02868
308.0135, 15.13983
308.4956, 15.04891
308.9778, 14.98228
309.4599, 14.93174
309.9420, 14.90911
310.4241, 14.96057
310.9062, 15.03955
311.3883, 15.03188
311.8705, 14.87273
312.3526, 14.66044
312.8347, 14.63183
313.3168, 14.85851
313.7989, 15.06330
314.2810, 15.20436
314.7632, 15.28930
315.2453, 15.31343
315.7274, 15.27244
316.2095, 15.21634
316.6916, 15.23034
317.1737, 15.35454
317.6559, 15.35922
318.1380, 15.06693
318.6201, 14.74181
319.1022, 14.63639
319.5843, 14.77946
320.0664, 15.04120
320.5485, 15.34269
321.0306, 15.68478
321.5128, 15.84191
321.9949, 15.68742
322.4770, 15.46215
322.9591, 15.28030
323.4412, 15.15660
323.9233, 15.11258
324.4055, 15.18591
324.8876, 15.34911
325.3697, 15.40250
325.8518, 15.23214
326.3339, 15.09326
326.8160, 15.09546
327.2982, 15.19884
327.7803, 15.32846
328.2624, 15.46099
328.7445, 15.57156
329.2266, 15.58175
329.7087, 15.42535
330.1909, 15.30344
330.6730, 15.23476
331.1551, 15.22745
331.6372, 15.33977
332.1193, 15.59164
332.6014, 15.83015
333.0836, 15.81542
333.5657, 15.41984
334.0478, 15.14193
334.5299, 15.11801
335.0120, 15.13976
335.4941, 14.99548
335.9763, 14.67980
336.4584, 14.39310
336.9405, 14.34268
337.4226, 14.55787
337.9047, 14.64036
338.3868, 14.40877
338.8690, 14.22997
339.3511, 14.37560
339.8332, 14.75078
340.3153, 15.03670
340.7974, 15.01794
341.2795, 14.75274
341.7617, 14.61350
342.2438, 14.77060
342.7259, 14.83436
343.2080, 14.57746
343.6901, 14.20653
344.1722, 14.05073
344.6544, 14.24900
345.1365, 14.66066
345.6186, 15.00241
346.1007, 15.37135
346.5828, 15.48944
347.0649, 15.09436
347.5471, 14.59837
348.0292, 14.39938
348.5113, 14.55554
348.9934, 14.80751
349.4755, 14.84362
349.9576, 14.60295
350.4398, 14.38250
350.9219, 13.99392
351.4040, 13.78638
351.8861, 14.08538
352.3682, 14.75772
352.8503, 15.39098
353.3325, 15.67051
353.8146, 15.61601
354.2967, 15.53396
354.7788, 15.32825
355.2609, 15.20453
355.7430, 15.22392
356.2252, 15.34721
356.7073, 15.55261
357.1894, 15.83246
357.6715, 16.11090
358.1536, 16.18348
358.6357, 15.76249
359.1179, 15.57878
359.5999, 15.86120
360.0821, 16.24306
360.5642, 16.39970
361.0463, 16.28226
361.5284, 16.09963
362.0105, 16.12795
362.4926, 16.45075
362.9748, 16.66139
363.4569, 16.71413
363.9390, 16.70628
364.4211, 16.61950
364.9032, 16.50073
365.3853, 16.45300
365.8675, 16.56471
366.3496, 16.81692
366.8317, 17.03489
367.3138, 17.30439
367.7959, 17.41400
368.2780, 17.17675
368.7602, 16.81184
369.2423, 16.62047
369.7244, 16.74112
370.2065, 16.97816
370.6886, 16.90544
371.1707, 16.33307
371.6529, 15.93288
372.1350, 16.02045
372.6171, 16.14080
373.0992, 15.93967
373.5813, 15.39759
374.0634, 14.81872
374.5456, 14.56075
375.0277, 14.64541
375.5098, 14.57563
375.9919, 14.17056
376.4740, 13.79245
376.9561, 13.63763
377.4383, 13.63727
377.9204, 13.62542
378.4025, 13.49892
378.8846, 13.30007
379.3667, 13.14722
379.8488, 13.05390
380.3310, 12.97227
380.8131, 12.91323
381.2952, 12.84249
381.7773, 12.69472
382.2594, 12.42878
382.7415, 12.19848
383.2237, 12.22414
383.7058, 12.50366
384.1879, 12.69244
384.6700, 12.65190
385.1521, 12.54867
385.6342, 12.54309
386.1164, 12.62928
386.5985, 12.70546
387.0806, 12.69531
387.5627, 12.63634
388.0448, 12.65288
388.5269, 12.80361
389.0091, 12.86288
389.4912, 12.50784
389.9733, 11.93617
390.4554, 11.59721
390.9375, 11.70284
391.4196, 11.96225
391.9018, 12.18181
392.3839, 12.35193
392.8660, 12.34482
393.3481, 12.00025
393.8302, 11.54547
394.3123, 11.45399
394.7945, 11.84366
395.2766, 12.17393
395.7587, 12.16683
396.2408, 11.97920
396.7229, 11.88391
397.2050, 11.94672
397.6872, 12.04532
398.1693, 12.04116
398.6514, 11.92254
399.1335, 11.83179
399.6156, 11.77809
400.0977, 11.75069
400.5798, 11.75772
401.0620, 11.78894
401.5441, 11.80949
402.0262, 11.80086
402.5083, 11.76213
402.9904, 11.68557
403.4725, 11.44363
403.9547, 11.32574
404.4368, 11.55924
404.9189, 11.88155
405.4010, 11.94114
405.8831, 11.63438
406.3652, 11.13125
406.8474, 10.63928
407.3295, 10.01582
407.8116, 9.880601
408.2937, 10.71976
408.7758, 11.55713
409.2579, 11.84252
409.7401, 11.62397
410.2222, 11.22072
410.7043, 10.83724
411.1864, 10.49050
411.6685, 10.31440
412.1506, 10.41714
412.6328, 10.57363
413.1149, 10.82385
413.5970, 11.07726
414.0791, 11.23231
414.5612, 11.25593
415.0433, 11.20525
415.5255, 11.18100
416.0076, 11.22192
416.4897, 11.15283
416.9718, 10.75098
417.4539, 10.41878
417.9360, 10.39346
418.4182, 10.62268
418.9003, 10.88276
419.3824, 11.01653
419.8645, 11.05125
420.3466, 11.11884
420.8287, 11.25512
421.3109, 11.34712
421.7930, 11.30136
422.2751, 11.20952
422.7572, 11.19713
423.2393, 11.32156
423.7214, 11.42103
424.2036, 11.23247
424.6857, 10.77499
425.1678, 10.56002
425.6499, 10.82971
426.1320, 11.21841
426.6141, 11.38924
427.0963, 11.36379
427.5784, 11.30211
428.0605, 11.25555
428.5426, 11.21955
429.0247, 11.17765
429.5068, 11.12627
429.9890, 11.11627
430.4711, 11.21775
430.9532, 11.37508
431.4353, 11.41282
431.9174, 11.25315
432.3995, 11.08866
432.8817, 11.00065
433.3638, 10.97886
433.8459, 11.01562
434.3280, 11.11500
434.8101, 11.23178
435.2922, 11.31173
435.7744, 11.35962
436.2565, 11.32980
436.7386, 11.10359
437.2207, 10.89245
437.7028, 10.87318
438.1849, 11.01708
438.6671, 11.17772
439.1492, 11.26387
439.6313, 11.27746
440.1134, 11.22592
440.5955, 10.93871
441.0776, 10.79872
441.5598, 10.93320
442.0418, 11.19164
442.5240, 11.45880
443.0061, 11.68777
443.4882, 11.83666
443.9703, 11.82457
444.4524, 11.59232
444.9345, 11.47785
445.4167, 11.63324
445.8988, 11.75760
446.3809, 11.74653
446.8630, 11.62416
447.3451, 11.42954
447.8272, 11.16136
448.3094, 10.89463
448.7915, 10.84580
449.2736, 11.10431
449.7557, 11.32510
450.2378, 11.42157
450.7199, 11.45155
451.2021, 11.45267
451.6842, 11.42878
452.1663, 11.35782
452.6484, 11.13840
453.1305, 10.83756
453.6126, 10.81776
454.0948, 11.24373
454.5769, 11.60750
455.0590, 11.39911
455.5411, 10.91040
456.0232, 10.66481
456.5053, 10.90714
456.9875, 11.24524
457.4696, 11.36363
457.9517, 11.29512
458.4338, 11.18312
458.9159, 11.06064
459.3980, 10.94139
459.8802, 10.83769
460.3623, 10.74205
460.8444, 10.70369
461.3265, 10.80945
461.8086, 10.92312
462.2907, 10.91381
462.7729, 10.78465
463.2550, 10.60774
463.7371, 10.40920
464.2192, 10.21633
464.7013, 10.18696
465.1834, 10.49627
465.6656, 10.73399
466.1477, 10.82782
466.6298, 10.83043
467.1119, 10.74138
467.5940, 10.58683
468.0761, 10.51454
468.5583, 10.74375
469.0404, 11.36802
469.5225, 11.69624
470.0046, 11.53506
470.4867, 11.27056
470.9688, 10.88091
471.4510, 10.49336
471.9331, 10.31420
472.4152, 10.45400
472.8973, 10.76073
473.3794, 10.97111
473.8615, 11.09162
474.3437, 11.08450
474.8258, 10.76709
475.3079, 10.46065
475.7900, 10.38431
476.2721, 10.51814
476.7542, 10.68406
477.2364, 10.79611
477.7185, 10.85961
478.2006, 10.88307
478.6827, 10.86335
479.1648, 10.82387
479.6469, 10.78948
480.1291, 10.73359
480.6112, 10.59350
481.0933, 10.31039
481.5754, 10.10146
482.0575, 10.13794
482.5396, 10.30945
483.0217, 10.40305
483.5038, 10.37401
483.9860, 10.33083
484.4681, 10.40110
484.9502, 10.58822
485.4323, 10.60554
485.9144, 10.20168
486.3965, 9.904929
486.8787, 10.07178
487.3608, 10.47850
487.8429, 10.67409
488.3250, 10.47887
488.8071, 10.13791
489.2892, 10.10780
489.7714, 10.61052
490.2535, 10.87674
490.7356, 10.74267
491.2177, 10.56555
491.6998, 10.52273
492.1819, 10.58938
492.6641, 10.65624
493.1462, 10.64934
493.6283, 10.60737
494.1104, 10.67369
494.5925, 10.94430
495.0746, 11.06125
495.5568, 10.63257
496.0389, 10.23592
496.5210, 10.44374
497.0031, 11.22659
497.4852, 11.82271
497.9673, 11.49076
498.4495, 10.57755
498.9316, 10.03173
499.4137, 9.915417
499.8958, 10.03620
500.3779, 10.47428
500.8600, 11.01607
501.3422, 11.20523
501.8243, 10.86673
502.3064, 10.50970
502.7885, 10.38969
503.2706, 10.42087
503.7527, 10.45789
504.2349, 10.46987
504.7170, 10.47441
505.1991, 10.49995
505.6812, 10.55011
506.1633, 10.50171
506.6454, 10.18566
507.1276, 9.969046
507.6097, 10.07520
508.0918, 10.34261
508.5739, 10.52948
509.0560, 10.54449
509.5381, 10.44080
510.0203, 10.26959
510.5024, 9.943837
510.9845, 9.849762
511.4666, 10.26569
511.9487, 10.63802
512.4308, 10.72639
512.9130, 10.61421
513.3951, 10.47943
513.8772, 10.39901
514.3593, 10.37894
514.8414, 10.49297
515.3235, 10.78775
515.8057, 10.84667
516.2878, 10.38602
516.7699, 9.843512
517.2520, 9.560841
517.7341, 9.526058
518.2162, 9.618183
518.6984, 9.869201
519.1805, 10.17258
519.6626, 10.40238
520.1447, 10.55743
520.6268, 10.65629
521.1089, 10.69381
521.5911, 10.69676
522.0732, 10.72543
522.5553, 10.78553
523.0374, 10.84862
523.5195, 10.98761
524.0016, 11.07372
524.4838, 10.88632
524.9659, 10.49401
525.4480, 10.27240
525.9301, 10.52859
526.4122, 11.12993
526.8943, 11.38433
527.3765, 10.93888
527.8586, 10.63881
528.3407, 10.64312
528.8228, 10.75113
529.3049, 10.80777
529.7870, 10.79271
530.2692, 10.77291
530.7513, 10.81855
531.2334, 10.91155
531.7155, 10.94926
532.1976, 10.93798
532.6797, 10.85553
533.1619, 10.54270
533.6440, 10.22762
534.1261, 10.20640
534.6082, 10.56611
535.0903, 10.86621
535.5724, 10.69543
536.0546, 10.28626
536.5367, 10.18167
537.0188, 10.46827
537.5009, 10.76296
537.9830, 10.75594
538.4651, 10.51895
538.9473, 10.46429
539.4294, 10.80042
539.9115, 11.03917
540.3936, 10.93586
540.8757, 10.71232
541.3578, 10.69639
541.8400, 10.92473
542.3221, 11.09481
542.8042, 10.84597
543.2863, 10.16481
543.7684, 9.901953
544.2505, 10.59033
544.7326, 11.06652
545.2147, 10.94700
545.6968, 10.58875
546.1790, 10.35764
546.6611, 10.35379
547.1432, 10.49825
547.6253, 10.80031
548.1074, 11.22973
548.5895, 11.40183
549.0717, 11.22424
549.5538, 10.95661
550.0359, 10.67509
550.5180, 10.42218
551.0001, 10.26430
551.4822, 10.20851
551.9644, 10.25966
552.4465, 10.55776
552.9286, 10.93902
553.4107, 10.99624
553.8928, 10.64306
554.3749, 10.28789
554.8571, 10.31581
555.3392, 10.71478
555.8213, 10.98588
556.3034, 11.07591
556.7855, 11.12397
557.2676, 11.14268
557.7498, 11.15050
558.2319, 11.16432
558.7140, 11.18927
559.1961, 11.22670
559.6782, 11.29305
560.1603, 11.38959
560.6425, 11.38232
561.1246, 11.19383
561.6067, 11.01231
562.0888, 10.85905
562.5709, 10.76018
563.0530, 10.75938
563.5352, 10.86984
564.0173, 11.00904
564.4994, 11.09502
564.9815, 11.15269
565.4636, 11.30525
565.9457, 11.60344
566.4279, 11.78629
566.9100, 11.62584
567.3921, 11.21490
567.8742, 10.90150
568.3563, 10.62195
568.8384, 10.54231
569.3206, 10.92234
569.8027, 11.43076
570.2848, 11.59226
570.7669, 11.37985
571.2490, 11.21308
571.7311, 11.48777
572.2133, 12.14325
572.6954, 12.50150
573.1775, 12.40728
573.6596, 12.20915
574.1417, 11.79261
574.6238, 11.40109
575.1060, 11.27516
575.5881, 11.42062
576.0702, 11.62966
576.5523, 11.75455
577.0344, 11.80301
577.5165, 11.79317
577.9987, 11.71341
578.4808, 11.62494
578.9629, 11.53642
579.4450, 11.46620
579.9271, 11.45508
580.4092, 11.51930
580.8914, 11.53013
581.3735, 11.35924
581.8556, 11.16033
582.3377, 11.10559
582.8198, 11.19423
583.3019, 11.34284
583.7841, 11.50934
584.2662, 11.69016
584.7483, 11.88286
585.2304, 12.22290
585.7125, 12.33923
586.1946, 12.06350
586.6768, 11.72801
587.1589, 11.48765
587.6410, 11.36494
588.1231, 11.36342
588.6052, 11.50318
589.0873, 11.70927
589.5695, 11.79957
590.0516, 11.74521
590.5337, 11.79709
591.0158, 12.09729
591.4979, 12.40698
591.9800, 12.52681
592.4622, 12.48974
592.9443, 12.42529
593.4264, 12.37836
593.9085, 12.31325
594.3906, 12.15494
594.8727, 11.95456
595.3549, 11.85907
595.8370, 11.91760
596.3191, 12.06336
596.8012, 12.22583
597.2833, 12.41364
597.7654, 12.55684
598.2476, 12.66737
598.7297, 12.72722
599.2118, 12.71376
599.6939, 12.65400
600.1760, 12.55798
600.6581, 12.43703
601.1403, 12.35466
601.6224, 12.43032
602.1045, 12.65168
602.5866, 12.69981
603.0687, 12.48530
603.5508, 12.29390
604.0330, 12.26389
604.5151, 12.34009
604.9972, 12.49524
605.4793, 12.76236
605.9614, 12.93305
606.4435, 12.80748
606.9257, 12.57078
607.4078, 12.46468
607.8899, 12.51135
608.3720, 12.68744
608.8541, 13.01744
609.3362, 13.39937
609.8184, 13.50441
610.3005, 13.04367
610.7826, 12.73086
611.2647, 12.57243
611.7468, 12.54960
612.2289, 12.77172
612.7111, 13.12012
613.1932, 13.28704
613.6753, 13.05874
614.1574, 12.68170
614.6395, 12.65486
615.1216, 13.01017
615.6038, 13.28703
616.0859, 13.38404
616.5680, 13.40765
617.0501, 13.43725
617.5322, 13.46809
618.0143, 13.48102
618.4965, 13.42859
618.9786, 13.40579
619.4607, 13.46549
619.9428, 13.59569
620.4249, 13.83392
620.9070, 14.17470
621.3892, 14.39938
621.8713, 14.24111
622.3534, 13.70879
622.8355, 13.50992
623.3176, 14.07382
623.7997, 14.42219
624.2819, 14.22804
624.7640, 13.88127
625.2461, 13.70271
625.7282, 13.74556
626.2103, 13.91582
626.6924, 14.21068
627.1745, 14.55692
627.6566, 14.76348
628.1387, 14.82350
628.6208, 14.83107
629.1030, 14.78026
629.5851, 14.74213
630.0672, 14.82920
630.5493, 15.03831
631.0314, 15.30066
631.5135, 15.70529
631.9957, 16.06687
632.4778, 16.24290
632.9599, 16.29182
633.4420, 16.31948
633.9241, 16.36993
634.4063, 16.48345
634.8884, 16.75025
635.3705, 17.21063
635.8526, 17.48892
636.3347, 17.47498
636.8168, 17.42519
637.2990, 17.43403
637.7811, 17.45764
638.2632, 17.42617
638.7453, 17.32096
639.2274, 17.25157
639.7095, 17.26001
640.1917, 17.36640
640.6738, 17.65935
641.1559, 18.13221
641.6380, 18.57637
642.1201, 18.88644
642.6022, 19.08636
643.0844, 19.22546
643.5665, 19.25289
644.0486, 19.32388
644.5307, 19.39910
645.0128, 19.55486
645.4949, 19.88035
645.9771, 20.31061
646.4592, 20.72085
646.9413, 21.05408
647.4234, 21.35663
647.9055, 21.72204
648.3876, 22.14656
648.8698, 22.39565
649.3519, 22.31110
649.8340, 22.37381
650.3161, 23.09021
650.7982, 24.10271
651.2803, 24.64875
651.7625, 24.47746
652.2446, 24.35711
652.7267, 24.61182
653.2088, 25.05185
653.6909, 25.48730
654.1730, 25.90081
654.6552, 26.35500
655.1373, 26.89685
655.6194, 27.46091
656.1015, 27.86690
656.5836, 28.03042
657.0657, 28.25155
657.5479, 28.49832
658.0300, 28.85634
658.5121, 29.42398
658.9942, 30.12359
659.4763, 30.80397
659.9584, 31.42201
660.4406, 31.99377
660.9227, 32.53264
661.4048, 33.03549
661.8869, 33.47457
662.3690, 33.84270
662.8511, 34.26439
663.3333, 34.84855
663.8154, 35.54597
664.2975, 36.14457
664.7796, 36.54340
665.2617, 36.98409
665.7438, 37.53868
666.2260, 38.08129
666.7081, 38.43260
667.1902, 38.70213
667.6723, 39.22266
668.1544, 40.22174
668.6365, 41.31275
669.1187, 41.81031
669.6008, 41.74732
670.0829, 41.91439
670.5650, 42.50968
671.0471, 43.10115
671.5292, 43.29115
672.0114, 43.22458
672.4935, 43.43508
672.9756, 44.13670
673.4577, 44.75267
673.9398, 45.13082
674.4219, 45.32959
674.9041, 45.35412
675.3862, 45.24638
675.8683, 45.09161
676.3504, 44.92770
676.8325, 44.82362
677.3146, 45.01646
677.7968, 45.63216
678.2789, 45.92274
678.7610, 45.66530
679.2431, 45.25206
679.7252, 44.91101
680.2073, 44.59594
680.6895, 44.21231
681.1716, 43.73235
681.6537, 43.20383
682.1358, 42.52277
682.6179, 41.87295
683.1000, 41.65990
683.5822, 41.83039
684.0643, 41.75460
684.5464, 40.98748
685.0285, 39.80983
685.5106, 39.03680
685.9927, 38.88319
686.4749, 38.63320
686.9570, 38.25247
687.4391, 37.78088
687.9212, 37.09539
688.4033, 36.36296
688.8854, 35.92981
689.3676, 35.98389
689.8497, 36.00932
690.3318, 35.50901
690.8139, 34.68253
691.2960, 33.93457
691.7781, 33.30616
692.2603, 32.75021
692.7424, 32.25069
693.2245, 31.77255
693.7066, 31.20530
694.1887, 30.38373
694.6708, 29.81445
695.1530, 29.67215
695.6351, 29.58464
696.1172, 29.42416
696.5993, 29.17800
697.0814, 28.82760
697.5635, 28.36091
698.0457, 27.89778
698.5278, 27.60272
699.0099, 27.40705
699.4920, 27.04325
699.9741, 26.48165
700.4562, 26.00446
700.9384, 25.80651
701.4205, 25.72332
701.9026, 25.39026
702.3847, 24.64373
702.8668, 24.09417
703.3489, 23.87225
703.8311, 23.72107
704.3132, 23.51622
704.7953, 23.29667
705.2774, 23.14816
705.7595, 23.09483
706.2416, 23.05795
706.7238, 22.97681
707.2059, 22.84488
707.6880, 22.60470
708.1701, 22.23704
708.6522, 21.91116
709.1343, 21.71191
709.6164, 21.57181
710.0985, 21.39682
710.5806, 21.19056
711.0627, 20.92739
711.5449, 20.48097
712.0270, 20.11042
712.5091, 19.95313
712.9912, 19.94217
713.4733, 20.02346
713.9554, 20.16085
714.4376, 20.25344
714.9197, 20.21754
715.4018, 20.05644
715.8839, 19.70904
716.3660, 19.12124
716.8481, 18.78132
717.3303, 18.95597
717.8124, 19.28208
718.2945, 19.35484
718.7766, 19.19168
719.2587, 19.00910
719.7408, 18.88657
720.2230, 18.67494
720.7051, 18.15934
721.1872, 17.61193
721.6693, 17.39396
722.1514, 17.51326
722.6335, 17.68143
723.1157, 17.69151
723.5978, 17.57710
724.0799, 17.40361
724.5620, 17.15870
725.0441, 16.96868
725.5262, 16.85361
726.0084, 16.80800
726.4905, 16.88551
726.9726, 17.03578
727.4547, 17.05744
727.9368, 16.83936
728.4189, 16.65042
728.9011, 16.55174
729.3832, 16.53051
729.8653, 16.67993
730.3474, 16.90507
730.8295, 16.91232
731.3116, 16.52624
731.7938, 15.95407
732.2759, 15.50531
732.7580, 15.18014
733.2401, 15.08068
733.7222, 15.28383
734.2043, 15.53848
734.6865, 15.75881
735.1686, 15.90799
735.6507, 15.90575
736.1328, 15.70891
736.6149, 15.51261
737.0970, 15.24030
737.5792, 15.08844
738.0613, 15.36538
738.5434, 15.82397
739.0255, 15.93584
739.5076, 15.53473
739.9897, 15.01468
740.4719, 14.85183
740.9540, 14.99451
741.4361, 15.10273
741.9182, 15.19996
742.4003, 15.11326
742.8824, 14.63585
743.3646, 14.10818
743.8467, 14.05938
744.3288, 14.49495
744.8109, 14.73724
745.2930, 14.59645
745.7751, 14.41091
746.2573, 14.33713
746.7394, 14.28258
747.2215, 14.07743
747.7036, 13.74216
748.1857, 13.51354
748.6678, 13.61048
749.1500, 13.86558
749.6321, 13.87041
750.1142, 13.62521
750.5963, 13.47302
751.0784, 13.48720
751.5605, 13.59055
752.0427, 13.74641
752.5248, 13.94202
753.0069, 14.11262
753.4890, 14.38104
753.9711, 14.43808
754.4532, 14.00309
754.9354, 13.55740
755.4175, 13.50313
755.8996, 13.71382
756.3817, 13.83476
756.8638, 13.71320
757.3459, 13.51686
757.8281, 13.45152
758.3102, 13.47855
758.7923, 13.43964
759.2744, 13.32082
759.7565, 13.22464
760.2386, 13.19964
760.7208, 13.22735
761.2029, 13.28720
761.6850, 13.40715
762.1671, 13.44199
762.6492, 13.30139
763.1313, 13.19058
763.6135, 13.17341
764.0956, 13.21932
764.5777, 13.34910
765.0598, 13.53141
765.5419, 13.58276
766.0240, 13.24750
766.5062, 12.83634
766.9883, 12.85846
767.4704, 13.20721
767.9525, 13.43254
768.4346, 13.42496
768.9167, 13.34566
769.3989, 13.33574
769.8810, 13.37832
770.3631, 13.36868
770.8452, 13.26253
771.3273, 13.18432
771.8094, 13.17380
772.2916, 13.16154
772.7737, 13.09013
773.2558, 12.99370
773.7379, 12.95677
774.2200, 13.02255
774.7021, 13.06441
775.1843, 12.95291
775.6664, 12.79545
776.1485, 12.74131
776.6306, 12.78384
777.1127, 12.84590
777.5948, 12.89355
778.0770, 12.94316
778.5591, 13.03440
779.0412, 13.17477
779.5233, 13.18182
780.0054, 12.94546
780.4875, 12.80933
780.9697, 12.97743
781.4518, 13.22564
781.9339, 13.35112
782.4160, 13.35574
782.8981, 13.29786
783.3802, 13.21168
783.8624, 13.04362
784.3445, 12.63144
784.8266, 12.19448
785.3087, 12.03650
785.7908, 12.16398
786.2729, 12.38969
786.7551, 12.60856
787.2372, 12.77688
787.7193, 12.73975
788.2014, 12.50179
788.6835, 12.50125
789.1656, 12.85925
789.6478, 13.19111
790.1299, 13.23244
790.6120, 13.10924
791.0941, 13.15035
791.5762, 13.49296
792.0583, 13.58122
792.5404, 13.06759
793.0225, 12.64114
793.5046, 12.74646
793.9868, 13.07327
794.4689, 13.19026
794.9510, 13.01079
795.4331, 12.74454
795.9152, 12.47990
796.3973, 12.27395
796.8795, 12.26279
797.3616, 12.40868
797.8437, 12.51693
798.3258, 12.53736
798.8079, 12.58172
799.2900, 12.77326
799.7722, 13.05790
800.2543, 13.11620
800.7364, 12.79641
801.2185, 12.56120
801.7006, 12.50767
802.1827, 12.48433
802.6649, 12.44220
803.1470, 12.37694
803.6291, 12.25985
804.1112, 12.05568
804.5933, 11.96181
805.0754, 12.17108
805.5576, 12.46420
806.0397, 12.64882
806.5218, 12.72968
807.0039, 12.72219
807.4860, 12.64265
807.9681, 12.61827
808.4503, 12.86390
808.9324, 13.26837
809.4145, 13.10916
809.8966, 12.23812
810.3787, 11.75772
810.8608, 12.10417
811.3430, 12.61843
811.8251, 12.69800
812.3072, 12.41151
812.7893, 12.26588
813.2714, 12.38302
813.7535, 12.45709
814.2357, 12.36214
814.7178, 12.28733
815.1999, 12.42899
815.6820, 12.67753
816.1641, 12.76959
816.6462, 12.61003
817.1284, 12.44919
817.6105, 12.60019
818.0926, 12.87156
818.5747, 12.83738
819.0568, 12.54120
819.5389, 12.35000
820.0211, 12.39678
820.5032, 12.50790
820.9853, 12.47740
821.4674, 12.31937
821.9495, 12.24443
822.4316, 12.22694
822.9138, 12.35551
823.3959, 12.93535
823.8780, 13.37312
824.3601, 13.04673
824.8422, 12.29548
825.3243, 12.06608
825.8065, 12.79410
826.2886, 13.36801
826.7707, 13.23241
827.2528, 12.87414
827.7349, 12.67533
828.2170, 12.61686
828.6992, 12.55831
829.1813, 12.45288
829.6634, 12.38681
830.1455, 12.50208
830.6276, 12.72046
831.1097, 12.74862
831.5919, 12.59034
832.0740, 12.48394
832.5561, 12.51172
833.0382, 12.54148
833.5203, 12.42516
834.0024, 12.19662
834.4846, 12.11536
834.9667, 12.31785
835.4488, 12.44506
835.9309, 12.45990
836.4130, 12.42058
836.8951, 12.25846
837.3773, 12.09417
837.8594, 12.18354
838.3415, 12.62257
838.8236, 12.96351
839.3057, 12.87236
839.7878, 12.66549
840.2700, 12.61824
840.7521, 12.70519
841.2342, 12.90399
841.7163, 13.17392
842.1984, 13.29296
842.6805, 13.00337
843.1627, 12.48240
843.6448, 12.27623
844.1269, 12.39322
844.6090, 12.57392
845.0911, 12.82261
845.5732, 12.95224
846.0554, 12.79781
846.5375, 12.45154
847.0196, 12.16634
847.5017, 11.89776
847.9838, 11.80294
848.4659, 11.97165
848.9481, 12.20265
849.4302, 12.49717
849.9123, 12.76798
850.3944, 12.91107
850.8765, 12.91833
851.3586, 12.87452
851.8408, 12.82634
852.3229, 12.73964
852.8050, 12.53777
853.2871, 12.29632
853.7692, 12.13766
854.2513, 12.07971
854.7335, 12.10911
855.2156, 12.23114
855.6977, 12.34154
856.1798, 12.12032
856.6619, 11.59257
857.1440, 11.71546
857.6262, 12.71864
858.1083, 13.37555
858.5904, 13.04283
859.0725, 12.27996
859.5546, 11.84291
860.0367, 11.76170
860.5189, 11.66799
861.0010, 11.39791
861.4831, 11.33881
861.9652, 11.79396
862.4473, 12.27203
862.9294, 12.40162
863.4116, 12.24064
863.8937, 12.00477
864.3758, 11.71113
864.8579, 11.51797
865.3400, 11.62234
865.8221, 11.80723
866.3043, 11.83248
866.7864, 11.72273
867.2685, 11.59249
867.7506, 11.48016
868.2327, 11.33180
868.7148, 11.04657
869.1970, 10.71212
869.6791, 10.64561
870.1612, 10.84761
870.6433, 11.11655
871.1254, 11.45037
871.6075, 11.65334
872.0897, 11.53765
872.5718, 11.20893
873.0539, 11.01054
873.5360, 11.00424
874.0181, 10.98682
874.5002, 10.99096
874.9823, 10.94507
875.4644, 10.74686
875.9465, 10.53414
876.4286, 10.48860
876.9108, 10.61495
877.3929, 10.70516
877.8750, 10.57609
878.3571, 10.52363
878.8392, 10.83044
879.3214, 11.22931
879.8035, 11.44837
880.2856, 11.44600
880.7677, 11.18417
881.2498, 10.61454
881.7319, 10.11506
882.2141, 10.31345
882.6962, 10.93603
883.1783, 11.09812
883.6604, 10.81135
884.1425, 10.60627
884.6246, 10.67795
885.1068, 10.81708
885.5889, 10.79197
886.0710, 10.62577
886.5531, 10.49573
887.0352, 10.39750
887.5173, 10.35510
887.9995, 10.43781
888.4816, 10.48177
888.9637, 10.29211
889.4458, 10.02243
889.9279, 10.02078
890.4100, 10.39976
890.8922, 10.60563
891.3743, 10.46846
891.8564, 10.24984
892.3385, 9.996571
892.8206, 9.770724
893.3027, 9.643072
893.7849, 9.609209
894.2670, 9.605750
894.7491, 9.591413
895.2312, 9.617504
895.7133, 9.752792
896.1954, 9.948640
896.6776, 10.16115
897.1597, 10.35980
897.6418, 10.45334
898.1239, 10.40392
898.6060, 10.31085
899.0881, 10.34236
899.5703, 10.43310
900.0524, 10.15481
900.5345, 9.478802
901.0166, 9.013119
901.4987, 8.912601
901.9808, 9.002913
902.4630, 9.179886
902.9451, 9.412822
903.4272, 9.595372
903.9093, 9.728827
904.3914, 9.810750
904.8735, 9.857345
905.3557, 9.829835
905.8378, 9.643576
906.3199, 9.424513
906.8020, 9.311111
907.2841, 9.307270
907.7662, 9.328734
908.2484, 9.414015
908.7305, 9.446692
909.2126, 9.268413
909.6947, 9.106074
910.1768, 9.232478
910.6589, 9.548728
911.1411, 9.775556
911.6232, 9.807647
912.1053, 9.755443
912.5874, 9.644669
913.0695, 9.552566
913.5516, 9.712694
914.0338, 9.990129
914.5159, 9.886241
914.9980, 9.327319
915.4801, 8.826900
915.9622, 8.797847
916.4443, 9.055620
916.9265, 9.175741
917.4086, 9.158517
917.8907, 9.087720
918.3728, 8.949514
918.8549, 8.897417
919.3370, 9.066799
919.8192, 9.198236
920.3013, 8.849201
920.7834, 7.991899
921.2655, 7.746445
921.7476, 8.604435
922.2297, 9.224215
922.7119, 9.283270
923.1940, 9.191300
923.6761, 9.151808
924.1582, 9.133771
924.6403, 9.053208
925.1224, 8.877741
925.6046, 8.752210
926.0867, 8.671672
926.5688, 8.696270
927.0509, 9.045614
927.5330, 9.398444
928.0151, 9.254169
928.4973, 8.701020
928.9794, 8.379800
929.4615, 8.682618
929.9436, 9.086979
930.4257, 9.119617
930.9078, 8.980488
931.3900, 8.953176
931.8721, 9.030565
932.3542, 9.127215
932.8363, 9.206466
933.3184, 9.222552
933.8005, 9.106751
934.2827, 8.919765
934.7648, 8.841935
935.2469, 8.857707
935.7290, 8.803063
936.2111, 8.649058
936.6932, 8.501827
937.1754, 8.422130
937.6575, 8.389161
938.1396, 8.355836
938.6217, 8.313264
939.1038, 8.410322
939.5859, 8.755407
940.0681, 8.945371
940.5502, 8.820982
941.0323, 8.589626
941.5144, 8.382608
941.9965, 8.212374
942.4786, 8.136823
942.9608, 8.205183
943.4429, 8.261216
943.9250, 8.323292
944.4071, 8.343471
944.8892, 8.201071
945.3713, 8.071994
945.8535, 8.201551
946.3356, 8.570073
946.8177, 8.874238
947.2998, 9.011257
947.7819, 9.074535
948.2640, 9.114305
948.7462, 9.094305
949.2283, 8.907467
949.7104, 8.652970
950.1925, 8.574189
950.6746, 8.726225
951.1567, 8.822238
951.6389, 8.501697
952.1210, 8.125723
952.6031, 8.242182
953.0852, 8.635673
953.5673, 8.829251
954.0494, 8.781137
954.5316, 8.708861
955.0137, 8.728423
955.4958, 8.795360
955.9779, 8.897589
956.4600, 8.996480
956.9421, 8.833378
957.4242, 8.421346
957.9063, 8.174905
958.3884, 8.210186
958.8705, 8.305529
959.3527, 8.274375
959.8348, 8.186970
960.3169, 8.288270
960.7990, 8.659862
961.2811, 8.752714
961.7632, 8.444832
962.2454, 8.177271
962.7275, 8.133603
963.2096, 8.169897
963.6917, 8.141386
964.1738, 8.051235
964.6559, 7.927805
965.1381, 7.569418
965.6202, 7.508746
966.1023, 8.091166
966.5844, 8.589355
967.0665, 8.636646
967.5486, 8.446708
968.0308, 8.287015
968.5129, 8.177935
968.9950, 8.082118
969.4771, 8.060369
969.9592, 7.959199
970.4413, 7.529706
970.9235, 7.178018
971.4056, 7.312171
971.8877, 7.757538
972.3698, 8.175603
972.8519, 8.476698
973.3340, 8.559880
973.8162, 8.164230
974.2983, 7.738369
974.7804, 7.673548
975.2625, 7.797759
975.7446, 7.870761
976.2267, 7.878187
976.7089, 7.933179
977.1910, 8.093004
977.6731, 8.226273
978.1552, 8.107775
978.6373, 7.924393
979.1194, 8.083785
979.6016, 8.458606
980.0837, 8.597843
980.5658, 8.432431
981.0479, 8.274529
981.5300, 8.348091
982.0121, 8.469380
982.4943, 8.259816
982.9764, 7.795105
983.4585, 7.473072
983.9406, 7.310516
984.4227, 7.363227
984.9048, 7.664767
985.3870, 7.984427
985.8691, 8.102832
986.3512, 8.093235
986.8333, 8.235399
987.3154, 8.576074
987.7975, 8.632931
988.2797, 8.287818
988.7618, 8.045704
989.2439, 8.147498
989.7260, 8.347682
990.2081, 8.361355
990.6902, 8.210352
991.1724, 8.096603
991.6545, 7.992327
992.1366, 7.999957
992.6187, 8.253660
993.1008, 8.424955
993.5829, 8.285109
994.0651, 8.034170
994.5472, 7.928915
995.0293, 7.970093
995.5114, 8.108822
995.9935, 8.594241
996.4756, 8.812716
996.9578, 8.369094
997.4399, 7.972104
997.9220, 8.122258
998.4041, 8.529716
998.8862, 8.733972
999.3683, 8.680211
999.8505, 8.567086
1000.333, 8.370513
1000.815, 8.218321
1001.297, 8.171208
1001.779, 8.176564
1002.261, 8.201631
1002.743, 8.241628
1003.225, 8.304490
1003.707, 8.392526
1004.190, 8.462336
1004.672, 8.526204
1005.154, 8.526414
1005.636, 8.331455
1006.118, 8.115896
1006.600, 8.133936
1007.082, 8.316933
1007.564, 8.423513
1008.046, 8.366055
1008.529, 8.204775
1009.011, 7.870971
1009.493, 7.561505
1009.975, 7.581964
1010.457, 7.746354
1010.939, 7.640055
1011.421, 7.313115
1011.903, 7.234732
1012.385, 7.640946
1012.868, 8.122901
1013.350, 8.265840
1013.832, 8.161566
1014.314, 7.851967
1014.796, 7.459369
1015.278, 7.398309
1015.760, 7.687535
1016.242, 7.922302
1016.725, 7.861493
1017.207, 7.670497
1017.689, 7.529431
1018.171, 7.464544
1018.653, 7.687301
1019.135, 8.120618
1019.617, 8.150563
1020.099, 7.660708
1020.581, 7.271042
1021.064, 7.423010
1021.546, 7.823233
1022.028, 7.909182
1022.510, 7.713476
1022.992, 7.628116
1023.474, 7.656415
1023.956, 7.716906
1024.438, 7.792034
1024.921, 7.877263
1025.403, 7.984791
1025.885, 8.056986
1026.367, 7.907947
1026.849, 7.509316
1027.331, 7.395473
1027.813, 7.629579
1028.295, 7.776935
1028.777, 7.695854
1029.260, 7.581616
1029.742, 7.583868
1030.224, 7.680809
1030.706, 7.821643
1031.188, 8.026055
1031.670, 8.176015
1032.152, 8.282992
1032.634, 8.292128
1033.116, 8.134386
1033.599, 7.983359
1034.081, 8.025954
1034.563, 8.160357
1035.045, 8.036427
1035.527, 7.490418
1036.009, 7.269400
1036.491, 7.553296
1036.973, 7.821585
1037.456, 7.957966
1037.938, 7.991672
1038.420, 7.858955
1038.902, 7.658553
1039.384, 7.764029
1039.866, 8.426847
1040.348, 8.681165
1040.830, 8.195848
1041.313, 7.775421
1041.795, 7.660038
1042.277, 7.653891
1042.759, 7.619934
1043.241, 7.567796
1043.723, 7.509074
1044.205, 7.361391
1044.687, 7.439614
1045.169, 8.088653
1045.651, 8.528250
1046.134, 8.413015
1046.616, 8.114772
1047.098, 7.890792
1047.580, 7.736828
1048.062, 7.589904
1048.544, 7.404779
1049.026, 7.366750
1049.508, 7.684584
1049.991, 7.914661
1050.473, 7.853422
1050.955, 7.695131
1051.437, 7.553876
1051.919, 7.458997
1052.401, 7.473425
1052.883, 7.645796
1053.365, 7.747012
1053.848, 7.650801
1054.330, 7.575538
1054.812, 7.583716
1055.294, 7.666010
1055.776, 7.930573
1056.258, 8.236836
1056.740, 8.187906
1057.222, 7.624360
1057.704, 7.311058
1058.187, 7.739898
1058.669, 8.107961
1059.151, 7.986104
1059.633, 7.735941
1060.115, 7.662406
1060.597, 7.726754
1061.079, 7.784278
1061.561, 7.805486
1062.043, 7.826765
1062.526, 7.931149
1063.008, 7.948487
1063.490, 7.688931
1063.972, 7.410131
1064.454, 7.379800
1064.936, 7.496195
1065.418, 7.515021
1065.900, 7.385055
1066.383, 7.243941
1066.865, 7.104368
1067.347, 7.017859
1067.829, 6.985490
1068.311, 7.037043
1068.793, 7.267035
1069.275, 7.573972
1069.757, 7.787682
1070.240, 7.873380
1070.722, 7.870110
1071.204, 7.727266
1071.686, 7.586366
1072.168, 7.529294
1072.650, 7.485902
1073.132, 7.382052
1073.614, 7.255861
1074.096, 7.177877
1074.578, 7.158553
1075.061, 7.161918
1075.543, 7.216644
1076.025, 7.222483
1076.507, 6.977102
1076.989, 6.815883
1077.471, 7.147413
1077.953, 7.668284
1078.435, 7.864378
1078.918, 7.710602
1079.400, 7.610556
1079.882, 7.772864
1080.364, 7.892626
1080.846, 7.794466
1081.328, 7.632521
1081.810, 7.435730
1082.292, 7.296339
1082.774, 7.396906
1083.257, 7.681905
1083.739, 7.820774
1084.221, 7.658535
1084.703, 7.474494
1085.185, 7.339401
1085.667, 7.288270
1086.149, 7.425779
1086.631, 7.602181
1087.114, 7.641356
1087.596, 7.555551
1088.078, 7.452771
1088.560, 7.355127
1089.042, 7.285880
1089.524, 7.215003
1090.006, 7.221406
1090.488, 7.523260
1090.970, 7.784859
1091.453, 7.553449
1091.935, 7.013467
1092.417, 6.698460
1092.899, 6.745038
1093.381, 6.854219
1093.863, 6.943306
1094.345, 7.034312
1094.827, 7.149440
1095.309, 7.258686
1095.792, 7.366303
1096.274, 7.437391
1096.756, 7.382754
1097.238, 7.188809
1097.720, 7.061095
1098.202, 7.152544
1098.684, 7.196334
1099.166, 7.031506
1099.649, 6.861246
1100.131, 6.820461
1100.613, 6.869733
1101.095, 6.921792
1101.577, 6.976812
1102.059, 7.151893
1102.541, 7.797708
1103.023, 8.035887
1103.505, 7.250249
1103.988, 6.477229
1104.470, 6.238573
1104.952, 6.338998
1105.434, 6.648184
1105.916, 7.079682
1106.398, 7.316725
1106.880, 7.251637
1107.362, 7.133817
1107.844, 6.982148
1108.327, 6.809795
1108.809, 6.531839
1109.291, 6.311091
1109.773, 6.285856
1110.255, 6.436347
1110.737, 6.725515
1111.219, 7.236369
1111.701, 7.554141
1112.184, 7.570564
1112.666, 7.500213
1113.148, 7.327528
1113.630, 7.145088
1114.112, 7.051270
1114.594, 6.973632
1115.076, 6.700296
1115.558, 6.169897
1116.041, 6.075264
1116.523, 6.776472
1117.005, 7.301772
1117.487, 7.568514
1117.969, 7.617358
1118.451, 7.319882
1118.933, 6.952043
1119.415, 6.890552
1119.897, 7.103054
1120.380, 7.236627
1120.862, 7.330123
1121.344, 7.224828
1121.826, 6.770497
1122.308, 6.423563
1122.790, 6.327773
1123.272, 6.437952
1123.754, 6.793828
1124.236, 7.266090
1124.719, 7.403701
1125.201, 7.152497
1125.683, 6.823491
1126.165, 6.356675
1126.647, 6.033839
1127.129, 5.908005
1127.611, 6.011117
1128.093, 6.420855
1128.576, 6.950295
1129.058, 7.259070
1129.540, 7.351195
1130.022, 7.322739
1130.504, 7.166865
1130.986, 6.926255
1131.468, 6.581884
1131.950, 6.454600
1132.432, 6.729074
1132.915, 7.088342
1133.397, 7.147943
1133.879, 6.981088
1134.361, 6.821916
1134.843, 6.673421
1135.325, 6.578300
1135.807, 6.541010
1136.289, 6.580701
1136.771, 6.703212
1137.254, 6.904374
1137.736, 7.197845
1138.218, 7.488051
1138.700, 7.614172
1139.182, 7.589762
1139.664, 7.397954
1140.146, 7.093473
1140.628, 6.881685
1141.111, 6.807219
1141.593, 6.887743
1142.075, 7.136470
1142.557, 7.360820
1143.039, 7.257327
1143.521, 7.057811
1144.003, 7.263606
1144.485, 7.621672
1144.968, 7.583946
1145.450, 7.196609
1145.932, 6.737799
1146.414, 6.331637
1146.896, 6.194701
1147.378, 6.626414
1147.860, 7.080490
1148.342, 6.942010
1148.824, 6.608519
1149.307, 6.552011
1149.789, 6.649848
1150.271, 6.572074
1150.753, 6.342854
1151.235, 6.340087
1151.717, 6.775874
1152.199, 7.171294
1152.681, 7.248328
1153.163, 7.200801
1153.646, 7.137736
1154.128, 7.030892
1154.610, 6.757994
1155.092, 6.437114
1155.574, 6.356308
1156.056, 6.575788
1156.538, 6.782067
1157.020, 6.823104
1157.503, 6.927560
1157.985, 7.319510
1158.467, 7.619303
1158.949, 7.525374
1159.431, 7.256204
1159.913, 7.064080
1160.395, 6.963765
1160.877, 6.971616
1161.359, 7.247934
1161.842, 7.306420
1162.324, 6.957659
1162.806, 6.671193
1163.288, 6.545753
1163.770, 6.564465
1164.252, 6.799118
1164.734, 7.106476
1165.216, 7.146623
1165.698, 6.890929
1166.181, 6.757456
1166.663, 6.789927
1167.145, 6.777750
1167.627, 6.673529
1168.109, 6.588448
1168.591, 6.570464
1169.073, 6.614119
1169.555, 6.725302
1170.037, 6.876332
1170.520, 6.976379
1171.002, 7.024193
1171.484, 6.924811
1171.966, 6.682864
1172.448, 6.650337
1172.930, 6.917152
1173.412, 7.204144
1173.894, 7.333129
1174.377, 7.302132
1174.859, 6.990922
1175.341, 6.568679
1175.823, 6.550925
1176.305, 6.812456
1176.787, 7.002505
1177.269, 7.082221
1177.751, 7.109624
1178.234, 7.112747
1178.716, 7.142336
1179.198, 7.279599
1179.680, 7.367391
1180.162, 7.146570
1180.644, 6.846698
1181.126, 6.744535
1181.608, 6.789407
1182.090, 6.862684
1182.573, 6.954268
1183.055, 7.163723
1183.537, 7.569971
1184.019, 7.782510
1184.501, 7.402096
1184.983, 7.015447
1185.465, 7.000840
1185.947, 7.072615
1186.429, 6.931002
1186.912, 6.712386
1187.394, 6.689060
1187.876, 6.885764
1188.358, 7.143643
1188.840, 7.662338
1189.322, 7.882010
1189.804, 7.452292
1190.286, 7.101241
1190.769, 7.206134
1191.251, 7.349564
1191.733, 7.133345
1192.215, 6.713356
1192.697, 6.483708
1193.179, 6.448993
1193.661, 6.603089
1194.143, 7.041598
1194.625, 7.295129
1195.108, 7.260783
1195.590, 7.179088
1196.072, 7.165416
1196.554, 7.143562
1197.036, 7.009438
1197.518, 6.830058
1198.000, 6.865788
1198.482, 7.074670
1198.964, 7.031388
1199.447, 6.758835
1199.929, 6.583417
1200.411, 6.583427
1200.893, 6.733664
1201.375, 7.024594
1201.857, 7.320045
1202.339, 7.521086
1202.821, 7.574739
1203.304, 7.318983
1203.786, 6.899009
1204.268, 6.469050
1204.750, 6.132605
1205.232, 6.122077
1205.714, 6.442541
1206.196, 6.781250
1206.678, 7.006434
1207.161, 7.128049
1207.643, 7.076663
1208.125, 7.008305
1208.607, 7.057426
1209.089, 7.124703
1209.571, 7.056573
1210.053, 6.929749
1210.535, 6.959725
1211.017, 7.187126
1211.500, 7.359392
1211.982, 7.507071
1212.464, 7.493211
1212.946, 7.175204
1213.428, 6.851445
1213.910, 6.572946
1214.392, 6.409619
1214.874, 6.475261
1215.356, 6.679751
1215.839, 6.721411
1216.321, 6.556623
1216.803, 6.710535
1217.285, 7.273432
1217.767, 7.488259
1218.249, 7.178510
1218.731, 7.057170
1219.213, 7.497922
1219.696, 7.898475
1220.178, 7.539117
1220.660, 6.808248
1221.142, 6.638095
1221.624, 6.852553
1222.106, 6.824758
1222.588, 6.636518
1223.070, 6.736331
1223.552, 7.140728
1224.035, 7.467282
1224.517, 7.537466
1224.999, 7.493387
1225.481, 7.392866
1225.963, 7.302155
1226.445, 7.354436
1226.927, 7.383804
1227.409, 7.039855
1227.891, 6.638536
1228.374, 6.833255
1228.856, 7.547765
1229.338, 7.944860
1229.820, 7.728042
1230.302, 7.468167
1230.784, 7.305949
1231.266, 7.103783
1231.748, 6.676026
1232.231, 6.356684
1232.713, 6.394483
1233.195, 6.623649
1233.677, 6.847488
1234.159, 7.051973
1234.641, 7.088767
1235.123, 6.896375
1235.605, 6.832352
1236.088, 6.921687
1236.570, 7.090515
1237.052, 7.342916
1237.534, 7.414091
1238.016, 7.107298
1238.498, 6.743610
1238.980, 6.802436
1239.462, 7.121652
1239.944, 7.330072
1240.427, 7.413081
1240.909, 7.248063
1241.391, 6.928453
1241.873, 6.774383
1242.355, 6.838471
1242.837, 6.904039
1243.319, 6.841280
1243.801, 6.871385
1244.283, 7.387313
1244.766, 7.795966
1245.248, 7.557812
1245.730, 7.068410
1246.212, 6.567527
1246.694, 6.191881
1247.176, 6.189129
1247.658, 6.532892
1248.140, 6.721253
1248.622, 6.509685
1249.105, 6.510873
1249.587, 7.025157
1250.069, 7.304898
1250.551, 7.008636
1251.033, 6.746933
1251.515, 6.930036
1251.997, 7.312736
1252.479, 7.551065
1252.962, 7.647356
1253.444, 7.581407
1253.926, 7.357292
1254.408, 7.192479
1254.890, 7.100977
1255.372, 7.132187
1255.854, 7.279139
1256.336, 7.305360
1256.818, 7.069167
1257.301, 6.884791
1257.783, 7.223284
1258.265, 7.664463
1258.747, 7.592019
1259.229, 7.292638
1259.711, 7.029672
1260.193, 6.918162
1260.675, 7.225098
1261.157, 7.843283
1261.640, 8.196679
1262.122, 8.094967
1262.604, 7.798592
1263.086, 7.125708
1263.568, 6.643106
1264.050, 6.544547
1264.532, 6.681203
1265.014, 7.178248
1265.497, 7.655631
1265.979, 7.608978
1266.461, 7.190987
1266.943, 7.050710
1267.425, 7.227301
1267.907, 7.401201
1268.389, 7.574704
1268.871, 7.761285
1269.354, 7.967085
1269.836, 7.903940
1270.318, 7.435260
1270.800, 6.964593
1271.282, 6.881917
1271.764, 7.032097
1272.246, 7.255692
1272.728, 7.476645
1273.210, 7.557649
1273.693, 7.534729
1274.175, 7.450521
1274.657, 7.342778
1275.139, 7.268429
1275.621, 7.245516
1276.103, 7.305884
1276.585, 7.627296
1277.067, 7.760261
1277.549, 7.362520
1278.032, 6.988152
1278.514, 6.884941
1278.996, 6.941777
1279.478, 7.126462
1279.960, 7.349460
1280.442, 7.431459
1280.924, 7.376897
1281.406, 7.339081
1281.889, 7.333669
1282.371, 7.166143
1282.853, 6.802630
1283.335, 6.744717
1283.817, 7.130626
1284.299, 7.553525
1284.781, 7.758733
1285.263, 7.777718
1285.745, 7.641090
1286.228, 7.347978
##END=



