##NAMES=Inderborite
##RRUFFID=R060871
##IDEAL CHEMISTRY=CaMg[B_3_O_3_(OH)_5_]_2_&#183;6H_2_O
##LOCALITY=TL, Inder, Kazakhstan
##OWNER=RRUFF
##SOURCE=Michael Scott
##DESCRIPTION=Colorless well-formed prismatic crystals
##STATUS=The identification of this mineral has been confirmed by single-crystal X-ray diffraction.
##URL=rruff.info/R060871
131.6475, 3202.921
132.1296, 3217.549
132.6117, 3246.052
133.0938, 3278.252
133.5759, 3303.704
134.0581, 3325.102
134.5402, 3372.262
135.0223, 3449.614
135.5044, 3545.506
135.9865, 3641.984
136.4686, 3739.688
136.9507, 3831.120
137.4329, 3905.036
137.9150, 3956.240
138.3971, 4032.685
138.8792, 4146.334
139.3613, 4284.864
139.8434, 4402.569
140.3256, 4489.162
140.8077, 4579.534
141.2898, 4704.754
141.7719, 4880.186
142.2540, 5042.572
142.7361, 5175.179
143.2183, 5280.702
143.7004, 5408.009
144.1825, 5566.202
144.6646, 5737.034
145.1467, 5901.947
145.6288, 6073.292
146.1110, 6221.859
146.5931, 6341.858
147.0752, 6433.881
147.5573, 6497.828
148.0394, 6534.936
148.5215, 6543.224
149.0037, 6519.145
149.4858, 6438.223
149.9679, 6349.140
150.4500, 6262.804
150.9321, 6175.355
151.4142, 6099.852
151.8963, 6039.287
152.3785, 5991.227
152.8606, 5949.952
153.3427, 5925.578
153.8248, 5900.381
154.3069, 5866.996
154.7890, 5818.230
155.2712, 5769.591
155.7533, 5725.115
156.2354, 5683.611
156.7175, 5637.457
157.1996, 5579.293
157.6817, 5518.745
158.1639, 5461.828
158.6460, 5412.650
159.1281, 5363.978
159.6102, 5309.320
160.0923, 5249.327
160.5744, 5200.233
161.0566, 5175.242
161.5387, 5160.528
162.0208, 5142.547
162.5029, 5106.942
162.9850, 5074.702
163.4671, 5060.906
163.9493, 5068.782
164.4314, 5067.989
164.9135, 5038.804
165.3956, 4992.897
165.8777, 4947.118
166.3598, 4905.913
166.8419, 4869.256
167.3241, 4838.505
167.8062, 4815.261
168.2883, 4792.571
168.7704, 4764.508
169.2525, 4733.514
169.7346, 4704.715
170.2168, 4683.553
170.6989, 4665.096
171.1810, 4643.481
171.6631, 4614.867
172.1452, 4589.206
172.6273, 4576.169
173.1095, 4573.663
173.5916, 4573.457
174.0737, 4567.699
174.5558, 4561.657
175.0379, 4563.112
175.5201, 4574.830
176.0022, 4593.389
176.4843, 4619.517
176.9664, 4651.619
177.4485, 4678.203
177.9306, 4683.424
178.4128, 4676.618
178.8949, 4677.930
179.3770, 4697.167
179.8591, 4725.647
180.3412, 4751.369
180.8233, 4774.548
181.3055, 4793.972
181.7876, 4812.070
182.2697, 4826.435
182.7518, 4829.288
183.2339, 4805.486
183.7160, 4769.856
184.1981, 4761.920
184.6803, 4784.448
185.1624, 4814.279
185.6445, 4827.062
186.1266, 4824.254
186.6087, 4815.858
187.0908, 4799.709
187.5730, 4780.063
188.0551, 4775.001
188.5372, 4786.216
189.0193, 4807.755
189.5014, 4833.312
189.9835, 4862.993
190.4657, 4893.710
190.9478, 4928.196
191.4299, 4964.786
191.9120, 4987.717
192.3941, 4994.596
192.8762, 4990.486
193.3584, 4985.430
193.8405, 4979.920
194.3226, 4966.478
194.8047, 4938.220
195.2868, 4895.681
195.7689, 4852.987
196.2511, 4811.146
196.7332, 4769.667
197.2153, 4723.538
197.6974, 4670.055
198.1795, 4627.444
198.6616, 4612.090
199.1437, 4625.398
199.6259, 4639.001
200.1080, 4648.987
200.5901, 4656.751
201.0722, 4666.419
201.5543, 4677.608
202.0364, 4692.006
202.5186, 4709.332
203.0007, 4728.531
203.4828, 4758.736
203.9649, 4805.601
204.4470, 4865.409
204.9291, 4911.946
205.4113, 4941.152
205.8934, 4967.186
206.3755, 5008.558
206.8576, 5072.951
207.3397, 5116.121
207.8218, 5124.689
208.3040, 5100.738
208.7861, 5076.998
209.2682, 5055.497
209.7503, 5031.557
210.2324, 5000.307
210.7145, 4961.783
211.1967, 4917.687
211.6788, 4867.440
212.1609, 4810.949
212.6430, 4754.516
213.1251, 4696.761
213.6072, 4641.861
214.0893, 4593.947
214.5715, 4552.509
215.0536, 4519.277
215.5357, 4496.200
216.0178, 4484.114
216.4999, 4472.795
216.9820, 4460.986
217.4642, 4450.922
217.9463, 4446.534
218.4284, 4450.396
218.9105, 4453.866
219.3926, 4454.380
219.8747, 4451.817
220.3569, 4445.903
220.8390, 4433.658
221.3211, 4420.241
221.8032, 4414.351
222.2853, 4418.383
222.7674, 4425.803
223.2496, 4434.619
223.7317, 4445.303
224.2138, 4456.648
224.6959, 4469.154
225.1780, 4482.288
225.6601, 4495.369
226.1423, 4507.791
226.6244, 4521.052
227.1065, 4534.140
227.5886, 4542.059
228.0707, 4564.422
228.5528, 4612.558
229.0349, 4671.847
229.5171, 4703.196
229.9992, 4690.664
230.4813, 4675.294
230.9634, 4675.546
231.4455, 4700.048
231.9276, 4720.720
232.4098, 4735.080
232.8919, 4746.000
233.3740, 4761.095
233.8561, 4780.789
234.3382, 4804.114
234.8203, 4831.436
235.3025, 4865.242
235.7846, 4897.399
236.2667, 4926.304
236.7488, 4953.678
237.2309, 4984.768
237.7130, 5020.789
238.1952, 5058.487
238.6773, 5095.087
239.1594, 5124.831
239.6415, 5166.303
240.1236, 5226.496
240.6057, 5299.779
241.0879, 5363.233
241.5700, 5412.103
242.0521, 5456.592
242.5342, 5501.825
243.0163, 5547.903
243.4984, 5593.816
243.9805, 5635.579
244.4627, 5676.377
244.9448, 5734.293
245.4269, 5825.639
245.9090, 5912.681
246.3911, 5971.977
246.8732, 5986.373
247.3554, 6009.805
247.8375, 6055.776
248.3196, 6115.511
248.8017, 6141.630
249.2838, 6116.758
249.7659, 6081.210
250.2481, 6060.988
250.7302, 6069.337
251.2123, 6064.120
251.6944, 6039.881
252.1765, 5999.453
252.6586, 5955.462
253.1408, 5907.132
253.6229, 5856.909
254.1050, 5804.895
254.5871, 5749.010
255.0692, 5698.214
255.5513, 5654.390
256.0334, 5616.815
256.5156, 5578.812
256.9977, 5538.643
257.4798, 5500.199
257.9619, 5466.260
258.4440, 5437.710
258.9261, 5409.511
259.4083, 5378.047
259.8904, 5345.574
260.3725, 5329.093
260.8546, 5339.979
261.3367, 5347.613
261.8188, 5327.493
262.3010, 5265.096
262.7831, 5216.790
263.2652, 5190.248
263.7473, 5182.267
264.2294, 5177.635
264.7115, 5179.547
265.1937, 5178.843
265.6758, 5167.272
266.1579, 5140.533
266.6400, 5119.418
267.1221, 5106.972
267.6042, 5101.994
268.0864, 5099.397
268.5685, 5098.850
269.0506, 5101.653
269.5327, 5108.744
270.0148, 5120.354
270.4969, 5136.769
270.9791, 5161.771
271.4612, 5190.906
271.9433, 5203.676
272.4254, 5196.019
272.9075, 5183.714
273.3896, 5176.055
273.8718, 5172.899
274.3539, 5176.438
274.8360, 5188.820
275.3181, 5207.203
275.8002, 5223.965
276.2823, 5240.502
276.7645, 5250.025
277.2466, 5246.589
277.7287, 5228.982
278.2108, 5208.083
278.6929, 5183.089
279.1750, 5156.770
279.6572, 5136.406
280.1393, 5122.052
280.6214, 5112.958
281.1035, 5110.540
281.5856, 5114.850
282.0677, 5117.832
282.5498, 5120.048
283.0320, 5118.821
283.5141, 5102.559
283.9962, 5068.929
284.4783, 5043.114
284.9604, 5047.114
285.4425, 5078.829
285.9247, 5100.522
286.4068, 5105.727
286.8889, 5104.195
287.3710, 5119.060
287.8531, 5150.676
288.3352, 5173.996
288.8174, 5167.478
289.2995, 5136.552
289.7816, 5113.912
290.2637, 5103.033
290.7458, 5101.191
291.2279, 5108.803
291.7101, 5124.941
292.1922, 5136.987
292.6743, 5128.957
293.1564, 5109.576
293.6385, 5112.345
294.1206, 5144.475
294.6028, 5185.407
295.0849, 5209.182
295.5670, 5217.494
296.0491, 5219.896
296.5312, 5217.748
297.0133, 5213.952
297.4955, 5215.347
297.9776, 5222.877
298.4597, 5234.048
298.9418, 5245.960
299.4239, 5259.072
299.9060, 5274.712
300.3882, 5280.842
300.8703, 5293.333
301.3524, 5350.962
301.8345, 5462.584
302.3166, 5566.633
302.7987, 5591.760
303.2809, 5562.564
303.7630, 5538.827
304.2451, 5555.558
304.7272, 5588.966
305.2093, 5607.141
305.6914, 5607.535
306.1736, 5614.866
306.6557, 5655.288
307.1378, 5715.959
307.6199, 5774.358
308.1020, 5822.735
308.5841, 5864.732
309.0663, 5900.049
309.5484, 5929.409
310.0305, 5963.885
310.5126, 6014.959
310.9947, 6074.894
311.4768, 6133.133
311.9590, 6182.785
312.4411, 6232.129
312.9232, 6284.917
313.4053, 6341.459
313.8874, 6401.251
314.3695, 6469.342
314.8516, 6539.460
315.3337, 6605.846
315.8159, 6659.510
316.2980, 6715.599
316.7801, 6785.535
317.2622, 6866.300
317.7443, 6940.361
318.2264, 7003.963
318.7086, 7055.972
319.1907, 7094.601
319.6728, 7098.258
320.1549, 7113.761
320.6370, 7175.174
321.1191, 7265.049
321.6013, 7316.106
322.0834, 7283.232
322.5655, 7225.914
323.0476, 7174.760
323.5297, 7133.273
324.0118, 7098.758
324.4940, 7075.026
324.9761, 7058.292
325.4582, 7038.451
325.9403, 7028.883
326.4224, 7004.038
326.9045, 6951.444
327.3867, 6849.336
327.8688, 6757.914
328.3509, 6678.956
328.8330, 6611.502
329.3151, 6552.571
329.7972, 6507.380
330.2794, 6465.307
330.7615, 6424.108
331.2436, 6385.684
331.7257, 6341.459
332.2078, 6286.214
332.6899, 6227.940
333.1721, 6177.899
333.6542, 6139.338
334.1363, 6104.443
334.6184, 6070.831
335.1005, 6038.589
335.5826, 6011.369
336.0648, 5992.447
336.5469, 5974.629
337.0290, 5946.773
337.5111, 5900.932
337.9932, 5869.588
338.4753, 5866.018
338.9575, 5885.860
339.4396, 5884.037
339.9217, 5853.089
340.4038, 5818.350
340.8859, 5802.576
341.3680, 5807.435
341.8502, 5816.925
342.3323, 5830.687
342.8144, 5845.780
343.2965, 5848.747
343.7786, 5837.771
344.2607, 5829.696
344.7428, 5841.653
345.2249, 5871.234
345.7071, 5890.781
346.1892, 5894.241
346.6713, 5890.194
347.1534, 5893.771
347.6355, 5904.709
348.1176, 5918.564
348.5998, 5934.552
349.0819, 5951.282
349.5640, 5963.654
350.0461, 5969.591
350.5282, 5976.340
351.0103, 5993.638
351.4925, 6019.438
351.9746, 6047.490
352.4567, 6083.220
352.9388, 6115.697
353.4209, 6127.200
353.9030, 6115.740
354.3852, 6095.120
354.8673, 6072.164
355.3494, 6049.012
355.8315, 6029.450
356.3136, 6014.293
356.7957, 6004.210
357.2779, 6000.667
357.7600, 6003.717
358.2421, 6010.653
358.7242, 6025.240
359.2063, 6040.872
359.6884, 6050.520
360.1706, 6053.704
360.6527, 6048.658
361.1348, 6028.682
361.6169, 5996.912
362.0990, 5971.372
362.5811, 5962.583
363.0633, 5959.604
363.5454, 5955.160
364.0275, 5945.870
364.5096, 5937.719
364.9917, 5931.613
365.4738, 5927.599
365.9560, 5925.826
366.4381, 5933.635
366.9202, 5937.842
367.4023, 5930.868
367.8844, 5900.173
368.3665, 5885.190
368.8487, 5900.866
369.3308, 5930.179
369.8129, 5946.876
370.2950, 5940.161
370.7771, 5934.012
371.2592, 5932.707
371.7414, 5935.492
372.2235, 5949.132
372.7056, 5980.409
373.1877, 6016.283
373.6698, 6041.197
374.1519, 6047.692
374.6340, 6061.853
375.1161, 6092.825
375.5983, 6137.180
376.0804, 6163.433
376.5625, 6165.845
377.0446, 6163.405
377.5267, 6173.632
378.0089, 6199.173
378.4910, 6210.592
378.9731, 6198.618
379.4552, 6176.275
379.9373, 6180.719
380.4194, 6214.244
380.9016, 6243.534
381.3837, 6243.383
381.8658, 6219.759
382.3479, 6208.731
382.8300, 6215.831
383.3121, 6226.053
383.7943, 6215.112
384.2764, 6187.436
384.7585, 6163.659
385.2406, 6158.220
385.7227, 6161.862
386.2048, 6157.894
386.6870, 6145.658
387.1691, 6130.934
387.6512, 6114.602
388.1333, 6099.760
388.6154, 6092.170
389.0975, 6104.229
389.5797, 6115.491
390.0618, 6104.462
390.5439, 6074.456
391.0260, 6046.410
391.5081, 6028.201
391.9902, 6019.745
392.4724, 6023.243
392.9545, 6053.027
393.4366, 6072.544
393.9187, 6051.474
394.4008, 6007.927
394.8829, 5984.249
395.3651, 6013.893
395.8472, 6051.236
396.3293, 6075.473
396.8114, 6082.321
397.2935, 6082.386
397.7756, 6065.666
398.2578, 6046.361
398.7399, 6043.058
399.2220, 6076.852
399.7041, 6105.704
400.1862, 6121.520
400.6683, 6123.725
401.1505, 6121.189
401.6326, 6110.559
402.1147, 6098.332
402.5968, 6091.179
403.0789, 6097.484
403.5610, 6088.466
404.0432, 6052.371
404.5253, 5999.526
405.0074, 5974.206
405.4895, 5985.004
405.9716, 6000.564
406.4537, 5998.802
406.9358, 5977.178
407.4179, 5979.756
407.9001, 6018.008
408.3822, 6062.860
408.8643, 6057.742
409.3464, 6003.210
409.8285, 5960.903
410.3106, 5968.653
410.7928, 6009.852
411.2749, 6024.058
411.7570, 6008.771
412.2391, 5996.616
412.7212, 6029.117
413.2033, 6090.741
413.6855, 6138.272
414.1676, 6151.544
414.6497, 6152.352
415.1318, 6169.752
415.6139, 6199.669
416.0960, 6219.993
416.5782, 6202.313
417.0603, 6174.599
417.5424, 6168.838
418.0245, 6198.587
418.5066, 6229.843
418.9887, 6241.030
419.4709, 6240.444
419.9530, 6243.878
420.4351, 6266.144
420.9172, 6286.492
421.3993, 6291.409
421.8814, 6277.186
422.3636, 6272.069
422.8457, 6289.184
423.3278, 6315.179
423.8099, 6337.868
424.2920, 6363.803
424.7741, 6377.838
425.2563, 6372.990
425.7384, 6352.187
426.2205, 6336.502
426.7026, 6327.589
427.1847, 6321.683
427.6668, 6316.974
428.1490, 6313.204
428.6311, 6310.794
429.1132, 6308.896
429.5953, 6308.813
430.0774, 6316.508
430.5595, 6336.674
431.0417, 6344.552
431.5238, 6324.252
432.0059, 6278.920
432.4880, 6253.864
432.9701, 6252.073
433.4522, 6257.451
433.9344, 6252.338
434.4165, 6238.619
434.8986, 6230.610
435.3807, 6234.915
435.8628, 6243.266
436.3449, 6240.246
436.8270, 6227.033
437.3091, 6211.933
437.7913, 6199.829
438.2734, 6189.649
438.7555, 6179.725
439.2376, 6169.572
439.7197, 6160.630
440.2018, 6152.046
440.6840, 6145.586
441.1661, 6144.456
441.6482, 6157.681
442.1303, 6170.296
442.6124, 6171.119
443.0945, 6160.015
443.5767, 6152.425
444.0588, 6160.466
444.5409, 6170.584
445.0230, 6172.585
445.5051, 6155.926
445.9872, 6141.108
446.4694, 6132.726
446.9515, 6128.710
447.4336, 6122.478
447.9157, 6116.393
448.3978, 6105.419
448.8799, 6083.634
449.3621, 6041.045
449.8442, 6027.627
450.3263, 6057.316
450.8084, 6101.588
451.2905, 6125.035
451.7726, 6121.835
452.2548, 6118.294
452.7369, 6121.941
453.2190, 6129.604
453.7011, 6121.167
454.1832, 6092.744
454.6653, 6072.225
455.1475, 6091.199
455.6296, 6140.771
456.1117, 6164.650
456.5938, 6152.844
457.0759, 6124.124
457.5580, 6096.673
458.0402, 6072.748
458.5223, 6060.808
459.0044, 6077.974
459.4865, 6102.812
459.9686, 6106.438
460.4507, 6088.624
460.9329, 6068.403
461.4150, 6054.474
461.8971, 6047.620
462.3792, 6049.404
462.8613, 6067.561
463.3434, 6084.651
463.8256, 6092.533
464.3077, 6093.079
464.7898, 6091.487
465.2719, 6083.740
465.7540, 6078.771
466.2361, 6081.044
466.7183, 6092.900
467.2004, 6105.147
467.6825, 6118.285
468.1646, 6130.848
468.6467, 6141.301
469.1288, 6147.179
469.6109, 6154.969
470.0930, 6167.835
470.5752, 6183.738
471.0573, 6189.197
471.5394, 6178.748
472.0215, 6170.495
472.5036, 6177.356
472.9857, 6200.432
473.4679, 6220.715
473.9500, 6238.508
474.4321, 6250.055
474.9142, 6246.611
475.3963, 6229.789
475.8784, 6213.278
476.3606, 6200.161
476.8427, 6192.126
477.3248, 6190.736
477.8069, 6196.414
478.2890, 6213.846
478.7711, 6260.024
479.2533, 6315.837
479.7354, 6354.001
480.2175, 6364.481
480.6996, 6366.974
481.1817, 6369.844
481.6638, 6374.494
482.1460, 6383.691
482.6281, 6407.096
483.1102, 6427.244
483.5923, 6432.208
484.0744, 6419.830
484.5565, 6414.744
485.0387, 6422.504
485.5208, 6438.587
486.0029, 6460.193
486.4850, 6500.370
486.9671, 6526.328
487.4492, 6525.301
487.9314, 6511.243
488.4135, 6524.844
488.8956, 6584.013
489.3777, 6632.656
489.8598, 6643.714
490.3419, 6615.774
490.8241, 6614.040
491.3062, 6645.405
491.7883, 6682.763
492.2704, 6692.832
492.7525, 6678.864
493.2346, 6679.484
493.7168, 6708.906
494.1989, 6748.521
494.6810, 6764.753
495.1631, 6760.978
495.6452, 6757.046
496.1273, 6758.125
496.6095, 6768.777
497.0916, 6799.565
497.5737, 6852.754
498.0558, 6904.417
498.5379, 6941.571
499.0200, 6966.836
499.5021, 6982.642
499.9843, 6980.125
500.4664, 6978.710
500.9485, 6987.586
501.4306, 7003.855
501.9127, 7016.124
502.3948, 7015.659
502.8770, 7016.578
503.3591, 7028.187
503.8412, 7060.059
504.3233, 7068.812
504.8054, 7039.300
505.2875, 6998.801
505.7697, 6977.410
506.2518, 6981.701
506.7339, 6983.687
507.2160, 6976.923
507.6981, 6964.756
508.1802, 6959.280
508.6624, 6961.071
509.1445, 6964.739
509.6266, 6967.681
510.1087, 6970.020
510.5908, 6971.647
511.0729, 6972.454
511.5551, 6974.003
512.0372, 6982.066
512.5193, 6992.129
513.0014, 6992.733
513.4835, 6966.794
513.9656, 6945.002
514.4478, 6964.170
514.9299, 7012.497
515.4120, 7046.515
515.8941, 7027.786
516.3762, 7000.726
516.8583, 6994.163
517.3405, 7016.061
517.8226, 7038.007
518.3047, 7054.839
518.7868, 7068.295
519.2689, 7080.213
519.7510, 7093.563
520.2332, 7101.107
520.7153, 7096.970
521.1974, 7086.219
521.6795, 7091.170
522.1616, 7119.887
522.6437, 7146.060
523.1259, 7155.542
523.6080, 7147.801
524.0901, 7142.412
524.5722, 7139.021
525.0543, 7139.434
525.5364, 7148.222
526.0186, 7163.524
526.5007, 7175.444
526.9828, 7180.990
527.4649, 7182.354
527.9470, 7181.149
528.4291, 7177.955
528.9113, 7175.029
529.3934, 7173.315
529.8755, 7172.656
530.3576, 7175.302
530.8397, 7182.006
531.3218, 7181.681
531.8040, 7155.820
532.2861, 7126.913
532.7682, 7116.151
533.2503, 7144.447
533.7324, 7171.263
534.2145, 7195.455
534.6967, 7214.274
535.1788, 7220.058
535.6609, 7200.146
536.1430, 7185.727
536.6251, 7190.796
537.1072, 7216.809
537.5894, 7223.237
538.0715, 7203.257
538.5536, 7180.890
539.0357, 7182.289
539.5178, 7206.424
539.9999, 7217.519
540.4821, 7207.987
540.9642, 7188.596
541.4463, 7171.845
541.9284, 7158.392
542.4105, 7151.036
542.8926, 7158.597
543.3748, 7168.567
543.8569, 7164.696
544.3390, 7147.771
544.8210, 7129.255
545.3032, 7108.700
545.7853, 7093.364
546.2674, 7091.542
546.7495, 7114.080
547.2316, 7128.950
547.7137, 7119.465
548.1959, 7099.519
548.6780, 7089.188
549.1601, 7099.864
549.6422, 7108.907
550.1243, 7113.236
550.6064, 7113.069
551.0886, 7108.890
551.5707, 7098.028
552.0528, 7088.954
552.5349, 7087.606
553.0170, 7094.342
553.4991, 7098.691
553.9813, 7100.232
554.4634, 7100.134
554.9455, 7097.076
555.4276, 7092.776
555.9097, 7095.774
556.3918, 7112.205
556.8740, 7131.748
557.3561, 7138.892
557.8382, 7137.771
558.3203, 7141.959
558.8024, 7161.903
559.2845, 7187.741
559.7667, 7214.959
560.2488, 7243.364
560.7309, 7265.963
561.2130, 7273.406
561.6951, 7278.106
562.1772, 7289.619
562.6594, 7315.284
563.1415, 7339.778
563.6236, 7362.477
564.1057, 7383.484
564.5878, 7404.303
565.0699, 7427.244
565.5521, 7442.213
566.0342, 7441.075
566.5163, 7428.586
566.9984, 7437.705
567.4805, 7470.517
567.9626, 7507.614
568.4448, 7533.163
568.9269, 7551.475
569.4090, 7580.180
569.8911, 7623.244
570.3732, 7662.733
570.8553, 7669.626
571.3375, 7661.770
571.8196, 7670.543
572.3017, 7722.078
572.7838, 7777.340
573.2659, 7819.227
573.7480, 7848.217
574.2302, 7867.390
574.7123, 7859.080
575.1944, 7857.265
575.6765, 7879.945
576.1586, 7933.948
576.6407, 7977.613
577.1229, 8010.417
577.6050, 8034.271
578.0871, 8046.346
578.5692, 8038.886
579.0513, 8055.327
579.5334, 8107.396
580.0156, 8172.972
580.4977, 8211.042
580.9798, 8222.967
581.4619, 8232.924
581.9440, 8252.607
582.4261, 8274.521
582.9083, 8280.403
583.3904, 8272.730
583.8725, 8269.727
584.3546, 8286.094
584.8367, 8310.848
585.3188, 8334.305
585.8010, 8354.773
586.2831, 8374.963
586.7652, 8407.504
587.2473, 8434.875
587.7294, 8439.901
588.2115, 8397.364
588.6937, 8359.438
589.1758, 8327.256
589.6579, 8303.268
590.1400, 8296.085
590.6221, 8315.800
591.1042, 8328.980
591.5864, 8319.949
592.0685, 8292.913
592.5506, 8287.574
593.0327, 8306.586
593.5148, 8327.427
593.9969, 8328.276
594.4791, 8316.561
594.9612, 8317.293
595.4433, 8335.184
595.9254, 8353.584
596.4075, 8358.205
596.8896, 8352.408
597.3718, 8341.245
597.8539, 8312.165
598.3360, 8293.960
598.8181, 8310.073
599.3002, 8349.056
599.7823, 8376.731
600.2645, 8377.220
600.7466, 8373.381
601.2287, 8369.792
601.7108, 8365.640
602.1929, 8375.234
602.6750, 8405.976
603.1572, 8438.564
603.6393, 8459.742
604.1214, 8468.555
604.6035, 8473.721
605.0856, 8474.289
605.5677, 8475.406
606.0498, 8488.027
606.5319, 8508.502
607.0140, 8520.459
607.4962, 8513.956
607.9783, 8502.608
608.4604, 8496.604
608.9425, 8497.770
609.4246, 8512.054
609.9067, 8553.102
610.3889, 8599.543
610.8710, 8638.773
611.3531, 8669.578
611.8352, 8700.573
612.3173, 8734.358
612.7994, 8768.506
613.2816, 8802.269
613.7637, 8836.907
614.2458, 8868.006
614.7279, 8894.236
615.2100, 8918.872
615.6921, 8943.821
616.1743, 8968.622
616.6564, 9003.953
617.1385, 9052.139
617.6206, 9112.393
618.1027, 9196.032
618.5848, 9295.848
619.0670, 9377.478
619.5491, 9405.133
620.0312, 9414.979
620.5133, 9440.707
620.9954, 9483.422
621.4775, 9542.078
621.9597, 9637.361
622.4418, 9733.672
622.9239, 9803.831
623.4060, 9826.696
623.8881, 9865.479
624.3702, 9940.704
624.8524, 10025.80
625.3345, 10093.29
625.8166, 10134.80
626.2987, 10179.69
626.7808, 10230.50
627.2629, 10288.59
627.7451, 10362.59
628.2272, 10452.80
628.7093, 10533.86
629.1914, 10592.07
629.6735, 10635.53
630.1556, 10672.87
630.6378, 10706.55
631.1199, 10752.65
631.6020, 10831.33
632.0841, 10921.73
632.5662, 11003.84
633.0483, 11073.46
633.5305, 11147.28
634.0126, 11230.39
634.4947, 11319.69
634.9768, 11412.14
635.4589, 11517.48
635.9410, 11611.04
636.4232, 11686.77
636.9053, 11754.31
637.3874, 11828.71
637.8695, 11908.17
638.3516, 12001.81
638.8337, 12119.52
639.3159, 12248.16
639.7980, 12367.71
640.2801, 12475.87
640.7622, 12539.62
641.2443, 12498.22
641.7264, 12421.63
642.2086, 12418.67
642.6907, 12491.24
643.1728, 12545.53
643.6549, 12528.97
644.1370, 12471.91
644.6191, 12395.13
645.1013, 12293.64
645.5834, 12192.82
646.0655, 12106.58
646.5476, 12016.64
647.0297, 11904.08
647.5118, 11757.21
647.9940, 11612.55
648.4761, 11473.00
648.9582, 11337.86
649.4403, 11206.13
649.9224, 11079.18
650.4045, 10938.63
650.8867, 10769.04
651.3688, 10584.00
651.8509, 10399.87
652.3330, 10218.25
652.8151, 10059.17
653.2972, 9956.477
653.7794, 9869.035
654.2615, 9763.098
654.7436, 9633.351
655.2257, 9509.510
655.7078, 9403.357
656.1899, 9303.927
656.6721, 9202.164
657.1542, 9089.737
657.6363, 8989.429
658.1184, 8901.335
658.6005, 8824.102
659.0826, 8761.389
659.5648, 8715.083
660.0469, 8659.926
660.5290, 8587.525
661.0111, 8507.435
661.4932, 8440.054
661.9753, 8382.266
662.4575, 8322.073
662.9396, 8240.107
663.4217, 8163.156
663.9038, 8121.581
664.3859, 8110.565
664.8680, 8098.262
665.3502, 8070.227
665.8323, 8038.510
666.3144, 8008.146
666.7965, 7978.665
667.2786, 7954.239
667.7607, 7933.331
668.2428, 7918.626
668.7249, 7915.810
669.2070, 7928.657
669.6891, 7923.028
670.1713, 7892.705
670.6534, 7854.875
671.1355, 7832.681
671.6176, 7822.599
672.0997, 7811.442
672.5818, 7795.603
673.0640, 7777.979
673.5461, 7757.968
674.0282, 7739.004
674.5103, 7727.714
674.9924, 7740.157
675.4745, 7748.338
675.9567, 7737.260
676.4388, 7709.929
676.9209, 7690.714
677.4030, 7689.635
677.8851, 7684.438
678.3672, 7662.161
678.8494, 7622.680
679.3315, 7608.982
679.8136, 7624.913
680.2957, 7648.200
680.7778, 7662.357
681.2599, 7668.900
681.7421, 7672.234
682.2242, 7672.391
682.7063, 7670.659
683.1884, 7667.669
683.6705, 7663.511
684.1526, 7659.304
684.6348, 7660.857
685.1169, 7652.190
685.5990, 7610.580
686.0811, 7560.323
686.5632, 7540.948
687.0453, 7581.769
687.5275, 7608.869
688.0096, 7606.902
688.4917, 7586.919
688.9738, 7580.167
689.4559, 7588.574
689.9380, 7594.609
690.4202, 7590.121
690.9023, 7578.711
691.3844, 7566.295
691.8665, 7553.756
692.3486, 7547.426
692.8307, 7563.044
693.3129, 7578.643
693.7950, 7569.521
694.2771, 7532.832
694.7592, 7503.321
695.2413, 7490.673
695.7234, 7490.364
696.2056, 7502.822
696.6877, 7539.911
697.1698, 7552.820
697.6519, 7530.911
698.1340, 7500.597
698.6161, 7493.029
699.0983, 7508.746
699.5804, 7510.867
700.0625, 7491.964
700.5446, 7465.477
701.0267, 7443.180
701.5089, 7427.392
701.9910, 7424.871
702.4731, 7451.708
702.9552, 7474.720
703.4373, 7465.636
703.9194, 7436.485
704.4016, 7415.164
704.8837, 7406.166
705.3658, 7409.182
705.8479, 7429.977
706.3300, 7463.827
706.8121, 7485.252
707.2943, 7492.579
707.7764, 7491.746
708.2585, 7481.835
708.7406, 7465.531
709.2227, 7461.030
709.7048, 7468.238
710.1870, 7472.674
710.6691, 7449.233
711.1512, 7423.179
711.6333, 7437.852
712.1154, 7501.766
712.5975, 7546.389
713.0797, 7518.903
713.5618, 7469.776
714.0439, 7439.271
714.5260, 7441.604
715.0081, 7445.610
715.4902, 7451.290
715.9724, 7457.812
716.4545, 7463.158
716.9366, 7466.474
717.4187, 7476.269
717.9008, 7495.737
718.3829, 7517.354
718.8651, 7529.845
719.3472, 7534.977
719.8293, 7538.877
720.3114, 7542.011
720.7935, 7546.954
721.2756, 7556.568
721.7578, 7569.596
722.2399, 7582.811
722.7220, 7601.256
723.2041, 7613.381
723.6862, 7613.089
724.1683, 7603.111
724.6505, 7594.254
725.1326, 7582.810
725.6147, 7582.341
726.0968, 7604.513
726.5789, 7642.902
727.0610, 7659.453
727.5432, 7654.581
728.0253, 7649.666
728.5074, 7660.920
728.9895, 7680.467
729.4716, 7698.953
729.9537, 7715.792
730.4358, 7730.443
730.9179, 7746.991
731.4000, 7758.483
731.8821, 7757.164
732.3643, 7729.157
732.8464, 7724.798
733.3285, 7754.293
733.8106, 7795.184
734.2927, 7830.348
734.7748, 7859.711
735.2570, 7875.611
735.7391, 7873.529
736.2212, 7872.178
736.7033, 7901.863
737.1854, 7949.695
737.6675, 7981.929
738.1497, 7975.878
738.6318, 7981.255
739.1139, 8052.068
739.5960, 8150.224
740.0781, 8217.746
740.5602, 8207.860
741.0424, 8207.017
741.5245, 8226.941
742.0066, 8264.301
742.4887, 8312.970
742.9708, 8374.993
743.4529, 8438.290
743.9351, 8502.161
744.4172, 8561.823
744.8993, 8600.627
745.3814, 8621.977
745.8635, 8647.504
746.3456, 8693.398
746.8278, 8744.793
747.3099, 8786.060
747.7920, 8819.612
748.2741, 8858.982
748.7562, 8910.058
749.2383, 8967.221
749.7205, 9028.898
750.2026, 9095.720
750.6847, 9164.661
751.1668, 9236.063
751.6489, 9311.703
752.1310, 9381.536
752.6132, 9452.932
753.0953, 9583.668
753.5774, 9776.675
754.0595, 9989.806
754.5416, 10216.64
755.0237, 10434.48
755.5059, 10620.62
755.9880, 10769.33
756.4701, 10891.62
756.9522, 11010.50
757.4343, 11089.44
757.9164, 11096.57
758.3986, 11016.92
758.8807, 10910.70
759.3628, 10785.01
759.8449, 10623.08
760.3270, 10391.80
760.8091, 10098.85
761.2913, 9826.462
761.7734, 9589.739
762.2555, 9379.844
762.7376, 9186.083
763.2197, 9011.995
763.7018, 8863.123
764.1840, 8750.274
764.6661, 8646.068
765.1482, 8536.530
765.6303, 8431.509
766.1124, 8346.939
766.5945, 8286.392
767.0767, 8238.631
767.5588, 8207.605
768.0409, 8182.958
768.5230, 8139.938
769.0051, 8079.633
769.4872, 8032.657
769.9694, 8014.041
770.4515, 8002.974
770.9336, 7967.585
771.4157, 7916.422
771.8978, 7870.756
772.3799, 7833.573
772.8621, 7810.682
773.3442, 7812.289
773.8263, 7831.563
774.3084, 7843.162
774.7905, 7848.611
775.2726, 7842.112
775.7548, 7817.426
776.2369, 7780.978
776.7190, 7760.850
777.2011, 7756.951
777.6832, 7755.108
778.1653, 7748.173
778.6475, 7738.629
779.1296, 7730.187
779.6117, 7722.392
780.0938, 7713.231
780.5759, 7691.324
781.0580, 7677.096
781.5402, 7687.156
782.0223, 7722.359
782.5044, 7739.119
782.9865, 7722.139
783.4686, 7712.962
783.9507, 7741.059
784.4329, 7798.822
784.9150, 7804.133
785.3971, 7755.728
785.8792, 7710.299
786.3613, 7718.556
786.8434, 7749.462
787.3256, 7758.869
787.8077, 7744.728
788.2898, 7732.229
788.7719, 7733.702
789.2540, 7740.414
789.7361, 7747.642
790.2183, 7755.312
790.7004, 7761.849
791.1825, 7766.206
791.6646, 7771.139
792.1467, 7776.810
792.6288, 7783.667
793.1109, 7803.109
793.5930, 7836.333
794.0751, 7862.201
794.5573, 7854.309
795.0394, 7831.425
795.5215, 7814.582
796.0036, 7805.569
796.4857, 7810.598
796.9678, 7854.418
797.4500, 7897.312
797.9321, 7907.139
798.4142, 7864.619
798.8963, 7850.578
799.3784, 7874.768
799.8605, 7905.785
800.3427, 7909.877
800.8248, 7893.166
801.3069, 7886.279
801.7890, 7894.077
802.2711, 7902.258
802.7532, 7894.617
803.2354, 7881.795
803.7175, 7876.895
804.1996, 7888.590
804.6817, 7893.835
805.1638, 7883.470
805.6459, 7867.123
806.1281, 7851.209
806.6102, 7833.858
807.0923, 7826.789
807.5744, 7834.145
808.0565, 7841.322
808.5386, 7818.173
809.0208, 7780.126
809.5029, 7780.137
809.9850, 7841.576
810.4671, 7894.961
810.9492, 7876.404
811.4313, 7827.308
811.9135, 7794.231
812.3956, 7799.083
812.8777, 7801.683
813.3598, 7797.641
813.8419, 7792.625
814.3240, 7795.431
814.8062, 7807.159
815.2883, 7811.097
815.7704, 7805.134
816.2525, 7790.081
816.7346, 7758.226
817.2167, 7719.599
817.6989, 7693.034
818.1810, 7683.077
818.6631, 7688.143
819.1452, 7726.333
819.6273, 7771.694
820.1094, 7787.781
820.5916, 7749.406
821.0737, 7731.289
821.5558, 7744.748
822.0379, 7770.284
822.5200, 7780.918
823.0021, 7777.823
823.4843, 7768.312
823.9664, 7750.586
824.4485, 7737.950
824.9306, 7748.643
825.4127, 7772.083
825.8948, 7792.683
826.3770, 7806.104
826.8591, 7815.631
827.3412, 7817.064
827.8233, 7817.102
828.3054, 7825.510
828.7875, 7847.728
829.2697, 7855.136
829.7518, 7840.972
830.2339, 7819.320
830.7160, 7808.991
831.1981, 7807.487
831.6802, 7806.944
832.1624, 7804.574
832.6445, 7805.091
833.1266, 7819.923
833.6087, 7836.438
834.0908, 7838.688
834.5729, 7803.600
835.0551, 7782.247
835.5372, 7776.915
836.0193, 7785.049
836.5014, 7809.229
836.9835, 7849.396
837.4656, 7873.448
837.9478, 7872.524
838.4299, 7866.673
838.9120, 7881.880
839.3941, 7906.657
839.8762, 7921.782
840.3583, 7916.503
840.8405, 7912.412
841.3226, 7920.278
841.8047, 7931.059
842.2868, 7932.838
842.7689, 7917.114
843.2510, 7920.567
843.7332, 7950.991
844.2153, 7988.144
844.6974, 8001.959
845.1795, 8000.266
845.6616, 8010.471
846.1437, 8040.039
846.6259, 8073.156
847.1080, 8098.457
847.5901, 8120.690
848.0722, 8145.132
848.5543, 8174.153
849.0364, 8203.270
849.5186, 8236.636
850.0007, 8265.341
850.4828, 8275.099
850.9649, 8266.163
851.4470, 8275.370
851.9291, 8307.835
852.4113, 8349.242
852.8933, 8386.098
853.3754, 8422.972
853.8575, 8466.774
854.3397, 8519.785
854.8218, 8574.765
855.3039, 8636.322
855.7860, 8693.928
856.2681, 8737.315
856.7502, 8759.158
857.2324, 8792.535
857.7145, 8837.580
858.1966, 8892.070
858.6787, 8960.155
859.1608, 9034.777
859.6429, 9101.119
860.1251, 9156.379
860.6072, 9201.803
861.0893, 9236.578
861.5714, 9262.213
862.0535, 9278.898
862.5356, 9283.383
863.0178, 9290.471
863.4999, 9303.292
863.9820, 9313.299
864.4641, 9314.982
864.9462, 9308.624
865.4283, 9299.228
865.9105, 9286.963
866.3926, 9259.448
866.8747, 9199.083
867.3568, 9123.981
867.8389, 9048.712
868.3210, 8974.682
868.8032, 8914.583
869.2853, 8891.251
869.7674, 8863.720
870.2495, 8812.815
870.7316, 8739.998
871.2137, 8676.844
871.6959, 8623.645
872.1780, 8577.383
872.6601, 8538.671
873.1422, 8504.537
873.6243, 8464.187
874.1064, 8421.106
874.5886, 8395.857
875.0707, 8421.143
875.5528, 8443.538
876.0349, 8435.600
876.5170, 8402.123
876.9991, 8368.690
877.4813, 8334.021
877.9634, 8303.780
878.4455, 8280.665
878.9276, 8263.096
879.4097, 8245.452
879.8918, 8229.685
880.3740, 8223.546
880.8561, 8243.956
881.3382, 8262.492
881.8203, 8261.423
882.3024, 8245.848
882.7845, 8231.938
883.2667, 8219.384
883.7488, 8211.587
884.2309, 8210.033
884.7130, 8212.589
885.1951, 8214.652
885.6772, 8216.524
886.1594, 8220.308
886.6415, 8226.949
887.1236, 8235.273
887.6057, 8245.320
888.0878, 8256.221
888.5699, 8266.429
889.0521, 8287.112
889.5342, 8289.347
890.0163, 8259.030
890.4984, 8222.216
890.9805, 8218.568
891.4626, 8246.671
891.9448, 8256.609
892.4269, 8236.049
892.9090, 8215.317
893.3911, 8235.461
893.8732, 8271.039
894.3553, 8286.578
894.8375, 8266.769
895.3196, 8247.418
895.8017, 8229.325
896.2838, 8220.063
896.7659, 8230.909
897.2480, 8267.266
897.7302, 8274.282
898.2123, 8247.450
898.6944, 8217.049
899.1765, 8215.740
899.6586, 8226.530
900.1407, 8223.912
900.6229, 8205.470
901.1050, 8185.090
901.5871, 8159.045
902.0692, 8142.092
902.5513, 8146.171
903.0334, 8171.932
903.5156, 8176.026
903.9977, 8155.348
904.4798, 8129.415
904.9619, 8104.359
905.4440, 8084.130
905.9261, 8080.577
906.4083, 8090.501
906.8904, 8099.129
907.3725, 8094.283
907.8546, 8091.017
908.3367, 8101.670
908.8188, 8120.627
909.3010, 8122.802
909.7831, 8103.537
910.2652, 8084.196
910.7473, 8068.631
911.2294, 8060.246
911.7115, 8072.617
912.1937, 8098.468
912.6758, 8115.289
913.1579, 8104.778
913.6400, 8094.311
914.1221, 8104.329
914.6042, 8120.106
915.0863, 8114.729
915.5684, 8073.246
916.0505, 8049.366
916.5327, 8051.281
917.0148, 8066.599
917.4969, 8084.743
917.9790, 8102.470
918.4611, 8106.284
918.9432, 8089.263
919.4254, 8080.090
919.9075, 8113.530
920.3896, 8153.786
920.8717, 8163.271
921.3538, 8123.134
921.8359, 8107.041
922.3181, 8121.328
922.8002, 8143.451
923.2823, 8156.013
923.7644, 8161.275
924.2465, 8167.188
924.7286, 8173.999
925.2108, 8183.308
925.6929, 8197.917
926.1750, 8213.752
926.6571, 8232.137
927.1392, 8252.295
927.6213, 8254.155
928.1035, 8227.549
928.5856, 8206.612
929.0677, 8205.952
929.5498, 8219.929
930.0319, 8235.443
930.5140, 8251.328
930.9962, 8262.194
931.4783, 8261.897
931.9604, 8259.395
932.4425, 8259.371
932.9246, 8261.246
933.4067, 8263.613
933.8889, 8266.871
934.3710, 8268.767
934.8531, 8267.608
935.3352, 8267.075
935.8173, 8277.096
936.2994, 8293.382
936.7816, 8298.106
937.2637, 8283.530
937.7458, 8270.816
938.2279, 8276.773
938.7100, 8290.647
939.1921, 8302.271
939.6743, 8311.961
940.1564, 8314.042
940.6385, 8305.110
941.1206, 8296.576
941.6027, 8301.490
942.0848, 8314.547
942.5670, 8314.829
943.0491, 8302.088
943.5312, 8288.271
944.0133, 8280.060
944.4954, 8274.313
944.9775, 8267.502
945.4597, 8260.114
945.9418, 8263.704
946.4239, 8286.446
946.9060, 8297.366
947.3881, 8279.128
947.8702, 8246.734
948.3524, 8238.026
948.8345, 8247.501
949.3166, 8255.548
949.7987, 8243.145
950.2808, 8237.962
950.7629, 8263.677
951.2451, 8302.677
951.7272, 8322.479
952.2093, 8317.649
952.6914, 8305.749
953.1735, 8284.430
953.6556, 8267.418
954.1378, 8283.469
954.6199, 8316.111
955.1020, 8324.588
955.5841, 8296.660
956.0662, 8272.913
956.5483, 8280.973
957.0305, 8296.062
957.5126, 8297.742
957.9947, 8282.595
958.4768, 8280.925
958.9589, 8294.803
959.4410, 8311.738
959.9232, 8324.681
960.4053, 8334.159
960.8874, 8340.045
961.3695, 8343.057
961.8516, 8347.015
962.3337, 8359.057
962.8159, 8366.000
963.2980, 8357.944
963.7801, 8342.026
964.2622, 8341.271
964.7443, 8358.604
965.2264, 8363.139
965.7086, 8341.675
966.1907, 8314.855
966.6728, 8309.945
967.1549, 8318.825
967.6370, 8327.256
968.1191, 8328.065
968.6013, 8334.854
969.0834, 8353.264
969.5655, 8376.271
970.0476, 8403.618
970.5297, 8436.141
971.0118, 8436.697
971.4940, 8401.305
971.9761, 8372.862
972.4582, 8402.283
972.9403, 8447.014
973.4224, 8461.048
973.9045, 8441.633
974.3867, 8426.093
974.8688, 8413.237
975.3509, 8417.495
975.8330, 8451.304
976.3151, 8502.755
976.7972, 8525.200
977.2793, 8521.423
977.7614, 8513.526
978.2435, 8506.479
978.7256, 8504.669
979.2078, 8514.510
979.6899, 8530.842
980.1720, 8545.275
980.6541, 8556.083
981.1362, 8566.793
981.6183, 8580.832
982.1005, 8588.297
982.5826, 8568.638
983.0647, 8532.830
983.5468, 8520.961
984.0289, 8539.008
984.5110, 8557.017
984.9932, 8555.829
985.4753, 8548.683
985.9574, 8542.449
986.4395, 8537.465
986.9216, 8540.950
987.4037, 8553.326
987.8859, 8573.121
988.3680, 8606.636
988.8501, 8641.201
989.3322, 8646.371
989.8143, 8631.580
990.2964, 8623.905
990.7786, 8641.453
991.2607, 8659.786
991.7428, 8668.968
992.2249, 8676.802
992.7070, 8695.419
993.1891, 8725.890
993.6713, 8751.308
994.1534, 8767.647
994.6355, 8790.745
995.1176, 8846.362
995.5997, 8913.346
996.0818, 8965.363
996.5640, 8996.777
997.0461, 9030.047
997.5282, 9075.864
998.0103, 9112.581
998.4924, 9124.178
998.9745, 9117.622
999.4567, 9134.840
999.9388, 9173.283
1000.421, 9212.360
1000.903, 9240.328
1001.385, 9266.037
1001.867, 9299.325
1002.349, 9334.048
1002.831, 9355.019
1003.314, 9360.346
1003.796, 9355.876
1004.278, 9341.716
1004.760, 9319.273
1005.242, 9284.387
1005.724, 9243.730
1006.206, 9213.565
1006.688, 9198.412
1007.171, 9181.438
1007.653, 9148.677
1008.135, 9117.390
1008.617, 9100.497
1009.099, 9097.518
1009.581, 9077.197
1010.063, 9037.613
1010.545, 9002.216
1011.027, 8986.146
1011.510, 8977.956
1011.992, 8963.134
1012.474, 8944.822
1012.956, 8930.798
1013.438, 8937.516
1013.920, 8926.391
1014.402, 8882.569
1014.884, 8832.601
1015.367, 8814.359
1015.849, 8823.877
1016.331, 8837.025
1016.813, 8851.604
1017.295, 8857.869
1017.777, 8836.938
1018.259, 8813.511
1018.741, 8809.498
1019.223, 8827.513
1019.706, 8839.582
1020.188, 8845.119
1020.670, 8846.597
1021.152, 8844.030
1021.634, 8839.093
1022.116, 8830.466
1022.598, 8822.253
1023.080, 8825.643
1023.563, 8840.435
1024.045, 8874.296
1024.527, 8962.607
1025.009, 9046.178
1025.491, 9039.480
1025.973, 8939.036
1026.455, 8897.012
1026.937, 8929.389
1027.419, 8978.624
1027.901, 8992.621
1028.384, 8998.515
1028.866, 9028.732
1029.348, 9085.717
1029.830, 9113.449
1030.312, 9085.802
1030.794, 9080.810
1031.276, 9139.391
1031.758, 9225.344
1032.241, 9235.793
1032.723, 9193.555
1033.205, 9171.922
1033.687, 9217.630
1034.169, 9255.592
1034.651, 9229.670
1035.133, 9193.488
1035.615, 9207.177
1036.098, 9283.032
1036.580, 9333.430
1037.062, 9354.188
1037.544, 9367.182
1038.026, 9390.067
1038.508, 9414.902
1038.990, 9440.322
1039.472, 9462.404
1039.954, 9455.335
1040.437, 9374.307
1040.919, 9329.582
1041.401, 9358.562
1041.883, 9423.047
1042.365, 9444.501
1042.847, 9431.105
1043.329, 9412.533
1043.811, 9393.219
1044.293, 9382.532
1044.776, 9395.421
1045.258, 9412.888
1045.740, 9419.122
1046.222, 9413.684
1046.704, 9398.045
1047.186, 9370.584
1047.668, 9344.706
1048.150, 9326.016
1048.633, 9315.383
1049.115, 9314.144
1049.597, 9322.146
1050.079, 9339.031
1050.561, 9380.783
1051.043, 9408.623
1051.525, 9413.890
1052.007, 9408.080
1052.490, 9405.146
1052.972, 9405.343
1053.454, 9412.163
1053.936, 9426.824
1054.418, 9436.310
1054.900, 9423.061
1055.382, 9409.107
1055.864, 9411.733
1056.346, 9429.040
1056.828, 9435.812
1057.311, 9430.229
1057.793, 9431.231
1058.275, 9457.462
1058.757, 9479.234
1059.239, 9445.556
1059.721, 9383.739
1060.203, 9341.430
1060.685, 9353.447
1061.168, 9350.897
1061.650, 9323.048
1062.132, 9294.526
1062.614, 9289.282
1063.096, 9302.576
1063.578, 9322.884
1064.060, 9347.533
1064.542, 9356.570
1065.025, 9319.165
1065.507, 9282.998
1065.989, 9281.354
1066.471, 9297.401
1066.953, 9287.118
1067.435, 9247.899
1067.917, 9219.554
1068.399, 9214.292
1068.881, 9208.324
1069.364, 9166.451
1069.846, 9114.246
1070.328, 9081.837
1070.810, 9077.607
1071.292, 9076.310
1071.774, 9076.618
1072.256, 9080.038
1072.738, 9093.302
1073.220, 9106.606
1073.703, 9081.966
1074.185, 9033.048
1074.667, 9004.658
1075.149, 9048.971
1075.631, 9074.716
1076.113, 9037.590
1076.595, 8983.928
1077.077, 8965.996
1077.559, 8983.563
1078.042, 9000.793
1078.524, 9015.803
1079.006, 9017.262
1079.488, 8989.877
1079.970, 8951.031
1080.452, 8903.809
1080.934, 8854.444
1081.416, 8836.220
1081.899, 8856.663
1082.381, 8881.098
1082.863, 8902.119
1083.345, 8919.101
1083.827, 8932.330
1084.309, 8940.160
1084.791, 8939.458
1085.273, 8927.215
1085.755, 8913.668
1086.238, 8898.076
1086.720, 8885.001
1087.202, 8877.399
1087.684, 8874.368
1088.166, 8870.322
1088.648, 8866.574
1089.130, 8869.059
1089.612, 8888.192
1090.094, 8906.064
1090.577, 8910.392
1091.059, 8911.496
1091.541, 8926.192
1092.023, 8957.808
1092.505, 8968.552
1092.987, 8954.875
1093.469, 8937.522
1093.951, 8927.541
1094.434, 8926.802
1094.916, 8944.870
1095.398, 8977.521
1095.880, 8987.882
1096.362, 8961.972
1096.844, 8947.752
1097.326, 8957.501
1097.808, 8980.057
1098.291, 9006.034
1098.773, 9030.077
1099.255, 9041.356
1099.737, 9037.359
1100.219, 9023.950
1100.701, 8982.741
1101.183, 8958.760
1101.665, 8980.925
1102.147, 9036.564
1102.630, 9064.308
1103.112, 9068.767
1103.594, 9073.281
1104.076, 9097.868
1104.558, 9111.279
1105.040, 9086.100
1105.522, 9048.021
1106.004, 9026.854
1106.486, 9024.043
1106.969, 9023.371
1107.451, 9024.062
1107.933, 9033.597
1108.415, 9072.744
1108.897, 9110.933
1109.379, 9117.815
1109.861, 9098.709
1110.343, 9079.689
1110.826, 9061.540
1111.308, 9047.044
1111.790, 9036.526
1112.272, 9031.083
1112.754, 9040.755
1113.236, 9052.584
1113.718, 9038.833
1114.200, 8992.949
1114.682, 8970.702
1115.165, 8999.662
1115.647, 9027.691
1116.129, 9034.229
1116.611, 9028.789
1117.093, 9038.609
1117.575, 9058.688
1118.057, 9073.479
1118.539, 9078.803
1119.021, 9076.224
1119.504, 9061.112
1119.986, 9042.794
1120.468, 9024.215
1120.950, 9005.941
1121.432, 9015.575
1121.914, 9050.635
1122.396, 9074.837
1122.878, 9051.309
1123.361, 9026.471
1123.843, 9032.382
1124.325, 9057.212
1124.807, 9078.965
1125.289, 9098.142
1125.771, 9107.815
1126.253, 9106.249
1126.735, 9104.340
1127.218, 9109.307
1127.700, 9120.548
1128.182, 9143.012
1128.664, 9173.212
1129.146, 9187.895
1129.628, 9180.929
1130.110, 9168.525
1130.592, 9149.930
1131.074, 9136.369
1131.557, 9150.216
1132.039, 9178.695
1132.521, 9201.214
1133.003, 9215.591
1133.485, 9216.902
1133.967, 9203.393
1134.449, 9176.715
1134.931, 9124.449
1135.413, 9070.007
1135.896, 9100.577
1136.378, 9186.252
1136.860, 9232.679
1137.342, 9187.516
1137.824, 9147.094
1138.306, 9149.438
1138.788, 9168.057
1139.270, 9189.763
1139.752, 9213.478
1140.235, 9227.448
1140.717, 9231.751
1141.199, 9229.359
1141.681, 9211.111
1142.163, 9198.002
1142.645, 9208.790
1143.127, 9228.051
1143.609, 9231.519
1144.092, 9216.995
1144.574, 9211.837
1145.056, 9218.002
1145.538, 9228.188
1146.020, 9236.529
1146.502, 9247.157
1146.984, 9266.627
1147.466, 9291.884
1147.948, 9309.283
1148.431, 9316.988
1148.913, 9324.704
1149.395, 9334.144
1149.877, 9343.530
1150.359, 9348.884
1150.841, 9353.839
1151.323, 9363.717
1151.805, 9378.864
1152.287, 9390.213
1152.770, 9395.545
1153.252, 9399.984
1153.734, 9403.428
1154.216, 9409.675
1154.698, 9432.555
1155.180, 9460.387
1155.662, 9472.348
1156.144, 9461.004
1156.627, 9443.428
1157.109, 9411.672
1157.591, 9395.494
1158.073, 9419.477
1158.555, 9464.341
1159.037, 9477.418
1159.519, 9467.817
1160.001, 9460.768
1160.484, 9468.624
1160.966, 9473.952
1161.448, 9468.319
1161.930, 9465.063
1162.412, 9483.568
1162.894, 9515.169
1163.376, 9501.475
1163.858, 9450.243
1164.340, 9410.502
1164.823, 9409.333
1165.305, 9422.516
1165.787, 9456.325
1166.269, 9488.238
1166.751, 9485.321
1167.233, 9451.684
1167.715, 9427.558
1168.197, 9415.821
1168.679, 9410.416
1169.162, 9404.751
1169.644, 9406.962
1170.126, 9430.259
1170.608, 9461.111
1171.090, 9469.879
1171.572, 9456.592
1172.054, 9438.361
1172.536, 9415.392
1173.019, 9410.043
1173.501, 9458.333
1173.983, 9515.327
1174.465, 9547.111
1174.947, 9556.566
1175.429, 9563.086
1175.911, 9567.108
1176.393, 9556.707
1176.875, 9522.681
1177.358, 9494.942
1177.840, 9513.779
1178.322, 9546.221
1178.804, 9558.284
1179.286, 9547.483
1179.768, 9531.692
1180.250, 9508.753
1180.732, 9503.598
1181.214, 9532.767
1181.697, 9574.206
1182.179, 9610.677
1182.661, 9641.072
1183.143, 9665.003
1183.625, 9686.107
1184.107, 9679.601
1184.589, 9637.904
1185.071, 9610.499
1185.554, 9639.285
1186.036, 9688.440
1186.518, 9720.076
1187.000, 9735.909
1187.482, 9737.611
1187.964, 9716.871
1188.446, 9703.811
1188.928, 9699.941
1189.411, 9699.979
1189.893, 9703.576
1190.375, 9706.071
1190.857, 9695.663
1191.339, 9678.132
1191.821, 9674.076
1192.303, 9704.686
1192.785, 9707.419
1193.267, 9668.047
1193.750, 9628.266
1194.232, 9643.958
1194.714, 9680.926
1195.196, 9680.344
1195.678, 9646.136
1196.160, 9631.078
1196.642, 9657.912
1197.124, 9679.562
1197.606, 9688.251
1198.089, 9690.022
1198.571, 9690.117
1199.053, 9690.196
1199.535, 9694.639
1200.017, 9703.717
1200.499, 9708.196
1200.981, 9711.107
1201.463, 9698.133
1201.945, 9658.464
1202.428, 9615.954
1202.910, 9618.024
1203.392, 9643.047
1203.874, 9646.424
1204.356, 9615.703
1204.838, 9612.521
1205.320, 9669.130
1205.802, 9710.251
1206.285, 9703.769
1206.767, 9673.937
1207.249, 9662.625
1207.731, 9666.480
1208.213, 9683.495
1208.695, 9722.462
1209.177, 9735.559
1209.659, 9704.810
1210.141, 9672.511
1210.624, 9660.738
1211.106, 9659.650
1211.588, 9642.069
1212.070, 9617.670
1212.552, 9609.482
1213.034, 9635.220
1213.516, 9650.000
1213.998, 9636.997
1214.480, 9636.281
1214.963, 9690.490
1215.445, 9765.089
1215.927, 9758.160
1216.409, 9698.267
1216.891, 9659.312
1217.373, 9695.475
1217.855, 9702.808
1218.337, 9659.739
1218.820, 9614.600
1219.302, 9605.702
1219.784, 9622.695
1220.266, 9644.211
1220.748, 9668.803
1221.230, 9691.688
1221.712, 9710.707
1222.194, 9728.673
1222.677, 9746.872
1223.159, 9761.728
1223.641, 9775.416
1224.123, 9780.804
1224.605, 9748.056
1225.087, 9689.691
1225.569, 9660.810
1226.051, 9721.566
1226.533, 9748.977
1227.016, 9720.996
1227.498, 9678.388
1227.980, 9662.414
1228.462, 9665.113
1228.944, 9681.832
1229.426, 9706.666
1229.908, 9708.393
1230.390, 9645.874
1230.872, 9620.115
1231.355, 9655.122
1231.837, 9706.278
1232.319, 9723.074
1232.801, 9716.074
1233.283, 9693.316
1233.765, 9658.932
1234.247, 9644.666
1234.729, 9666.714
1235.212, 9684.057
1235.694, 9687.443
1236.176, 9688.132
1236.658, 9703.880
1237.140, 9724.699
1237.622, 9739.846
1238.104, 9747.112
1238.586, 9732.527
1239.068, 9685.480
1239.551, 9649.207
1240.033, 9636.688
1240.515, 9630.924
1240.997, 9596.337
1241.479, 9562.270
1241.961, 9574.881
1242.443, 9640.648
1242.925, 9689.898
1243.407, 9720.810
1243.890, 9729.311
1244.372, 9710.166
1244.854, 9679.304
1245.336, 9644.116
1245.818, 9616.896
1246.300, 9618.948
1246.782, 9655.148
1247.264, 9667.617
1247.747, 9650.612
1248.229, 9643.249
1248.711, 9664.164
1249.193, 9683.977
1249.675, 9664.108
1250.157, 9629.752
1250.639, 9607.076
1251.121, 9598.348
1251.604, 9604.773
1252.086, 9628.167
1252.568, 9649.911
1253.050, 9665.651
1253.532, 9671.368
1254.014, 9650.067
1254.496, 9625.610
1254.978, 9628.005
1255.460, 9656.364
1255.943, 9659.438
1256.425, 9637.187
1256.907, 9618.174
1257.389, 9612.839
1257.871, 9614.706
1258.353, 9622.865
1258.835, 9632.664
1259.317, 9642.439
1259.799, 9651.383
1260.281, 9636.683
1260.764, 9602.099
1261.246, 9582.410
1261.728, 9599.178
1262.210, 9621.458
1262.692, 9646.524
1263.174, 9657.092
1263.656, 9631.036
1264.138, 9577.452
1264.621, 9573.955
1265.103, 9611.637
1265.585, 9645.073
1266.067, 9651.962
1266.549, 9656.735
1267.031, 9668.510
1267.513, 9680.251
1267.995, 9686.662
1268.478, 9688.897
1268.960, 9689.806
1269.442, 9691.314
1269.924, 9701.224
1270.406, 9730.137
1270.888, 9753.656
1271.370, 9766.681
1271.852, 9775.338
1272.334, 9786.583
1272.817, 9795.179
1273.299, 9778.850
##END=



