##NAMES=Inderite
##RRUFFID=R050195
##IDEAL CHEMISTRY=MgB_3_O_3_(OH)_5_&#183;5H_2_O
##LOCALITY=Boron, Kern County, California, USA
##OWNER=RRUFF
##SOURCE=Dave Bunk Minerals
##DESCRIPTION=Colorless prismatic crystal
##STATUS=The identification of this mineral has been confirmed by X-ray diffraction and chemical analysis
##URL=rruff.info/R050195
##MEASURED CHEMISTRY=Mg_1.00_B_3.00_O_3_(OH)_5_Â·5H_2_O ; Mg measured, only
92.81116, 0.0000000E+00
93.29327, 0.0000000E+00
93.77539, 10.86629
94.25751, 10.58046
94.73962, 10.68238
95.22174, 11.13001
95.70386, 11.77456
96.18597, 12.65567
96.66809, 13.69736
97.15021, 14.61315
97.63232, 15.36896
98.11444, 16.16327
98.59656, 17.23109
99.07867, 18.57705
99.56079, 20.14690
100.0429, 21.94527
100.5250, 23.96552
101.0071, 26.02958
101.4893, 28.04327
101.9714, 30.17324
102.4535, 32.72042
102.9356, 35.70325
103.4177, 39.10154
103.8998, 42.97972
104.3820, 47.64468
104.8641, 51.96215
105.3462, 55.80712
105.8283, 59.24601
106.3104, 62.93112
106.7925, 67.28677
107.2747, 71.39021
107.7568, 74.52928
108.2389, 76.30275
108.7210, 77.72266
109.2031, 78.68279
109.6852, 79.13860
110.1674, 80.16638
110.6495, 81.95141
111.1316, 84.23818
111.6137, 86.80296
112.0958, 90.11626
112.5779, 93.27921
113.0601, 96.03731
113.5422, 98.29391
114.0243, 100.7369
114.5064, 103.5328
114.9885, 106.5355
115.4706, 109.6038
115.9528, 112.6515
116.4349, 115.7870
116.9170, 118.9388
117.3991, 122.0146
117.8812, 125.5182
118.3633, 130.0155
118.8455, 135.0667
119.3276, 139.7890
119.8097, 143.3067
120.2918, 146.7272
120.7739, 150.8981
121.2560, 156.3693
121.7382, 161.9327
122.2203, 166.8201
122.7024, 171.1763
123.1845, 175.4857
123.6666, 179.8143
124.1487, 184.3002
124.6309, 189.1487
125.1130, 194.1147
125.5951, 199.6662
126.0772, 206.0758
126.5593, 213.3766
127.0414, 221.8640
127.5236, 232.4863
128.0057, 244.4337
128.4878, 256.3511
128.9699, 268.6967
129.4520, 280.1651
129.9341, 288.3878
130.4162, 293.3275
130.8984, 295.8695
131.3805, 295.9031
131.8626, 293.8700
132.3447, 292.0809
132.8268, 291.0018
133.3089, 290.8188
133.7911, 291.9445
134.2732, 293.6347
134.7553, 295.6658
135.2374, 298.6159
135.7195, 302.4988
136.2016, 306.2251
136.6838, 309.2835
137.1659, 311.6810
137.6480, 314.1928
138.1301, 316.9892
138.6122, 319.6857
139.0943, 321.7649
139.5765, 323.3228
140.0586, 323.9722
140.5407, 323.4597
141.0228, 321.6492
141.5049, 319.3970
141.9870, 316.7392
142.4692, 313.6249
142.9513, 309.9084
143.4334, 305.3559
143.9155, 300.5894
144.3976, 295.5958
144.8797, 289.4626
145.3619, 285.3611
145.8440, 283.7442
146.3261, 284.3366
146.8082, 285.9896
147.2903, 288.9479
147.7724, 292.6789
148.2546, 296.9981
148.7367, 302.8312
149.2188, 307.8629
149.7009, 312.1036
150.1830, 315.5396
150.6651, 317.2346
151.1473, 316.6540
151.6294, 314.6950
152.1115, 311.9958
152.5936, 307.7059
153.0757, 303.6146
153.5578, 299.7092
154.0400, 295.9810
154.5221, 293.2463
155.0042, 292.1231
155.4863, 291.7006
155.9684, 291.1828
156.4505, 290.1734
156.9327, 289.3285
157.4148, 288.7009
157.8969, 288.2579
158.3790, 288.3760
158.8611, 288.9401
159.3432, 290.1533
159.8254, 292.2389
160.3075, 294.9349
160.7896, 298.7694
161.2717, 304.2879
161.7538, 311.8406
162.2359, 319.2983
162.7181, 325.3815
163.2002, 331.0582
163.6823, 337.6698
164.1644, 346.0472
164.6465, 355.2304
165.1286, 364.9488
165.6108, 375.4591
166.0929, 385.4487
166.5750, 394.6762
167.0571, 403.0014
167.5392, 410.1668
168.0213, 417.4948
168.5035, 422.7743
168.9856, 424.1799
169.4677, 421.0359
169.9498, 415.2344
170.4319, 407.9755
170.9140, 399.0536
171.3962, 388.0182
171.8783, 372.9826
172.3604, 356.4590
172.8425, 340.9061
173.3246, 326.6973
173.8067, 313.5172
174.2889, 300.9541
174.7710, 289.0931
175.2531, 278.3637
175.7352, 269.0654
176.2173, 261.1298
176.6994, 254.6167
177.1816, 249.7128
177.6637, 245.8614
178.1458, 242.3313
178.6279, 239.2026
179.1100, 237.0597
179.5921, 236.6368
180.0743, 237.4082
180.5564, 238.3017
181.0385, 238.9060
181.5206, 239.8103
182.0027, 242.0581
182.4848, 245.5384
182.9670, 249.2546
183.4491, 252.8353
183.9312, 256.1459
184.4133, 258.7511
184.8954, 260.5762
185.3775, 261.6668
185.8596, 261.8913
186.3418, 261.2611
186.8239, 260.5318
187.3060, 260.2071
187.7881, 260.2738
188.2702, 260.7206
188.7523, 261.6642
189.2345, 262.9081
189.7166, 264.0323
190.1987, 265.0501
190.6808, 265.9520
191.1629, 266.7887
191.6451, 267.5433
192.1272, 268.0818
192.6093, 268.5440
193.0914, 268.7092
193.5735, 267.9442
194.0556, 266.2452
194.5378, 263.6174
195.0199, 259.9236
195.5020, 255.1992
195.9841, 250.0529
196.4662, 244.5473
196.9483, 238.7683
197.4305, 233.0360
197.9126, 227.3344
198.3947, 221.7677
198.8768, 216.6750
199.3589, 212.0501
199.8410, 207.3674
200.3232, 202.5254
200.8053, 197.5394
201.2874, 192.3311
201.7695, 186.9133
202.2516, 181.3232
202.7337, 175.3624
203.2159, 168.9634
203.6980, 163.2071
204.1801, 158.3898
204.6622, 154.4713
205.1443, 151.1548
205.6264, 148.5840
206.1086, 146.2803
206.5907, 143.5701
207.0728, 140.2739
207.5549, 137.6732
208.0370, 136.2462
208.5191, 135.9160
209.0013, 135.3613
209.4834, 134.5128
209.9655, 133.5726
210.4476, 132.6918
210.9297, 131.8099
211.4118, 131.2476
211.8940, 131.1329
212.3761, 131.4557
212.8582, 131.7952
213.3403, 132.1667
213.8224, 132.5356
214.3045, 132.8319
214.7867, 132.9952
215.2688, 133.2944
215.7509, 133.8794
216.2330, 134.7414
216.7151, 135.2171
217.1972, 135.0629
217.6794, 134.8538
218.1615, 135.3597
218.6436, 137.1055
219.1257, 138.1631
219.6078, 137.8233
220.0899, 136.0733
220.5721, 135.1826
221.0542, 135.5543
221.5363, 136.2905
222.0184, 136.3433
222.5005, 135.1618
222.9826, 134.6119
223.4648, 135.3083
223.9469, 137.2831
224.4290, 138.6737
224.9111, 139.3530
225.3932, 139.6153
225.8753, 139.6749
226.3575, 139.2638
226.8396, 139.2486
227.3217, 139.9518
227.8038, 141.3972
228.2859, 142.3620
228.7680, 142.5263
229.2502, 142.5751
229.7323, 143.2110
230.2144, 144.8432
230.6965, 146.2650
231.1786, 147.3394
231.6607, 148.0673
232.1429, 148.1055
232.6250, 146.8902
233.1071, 145.6136
233.5892, 145.4904
234.0713, 147.3657
234.5534, 148.6668
235.0356, 148.6913
235.5177, 147.5007
235.9998, 147.0393
236.4819, 147.6247
236.9640, 148.5842
237.4461, 149.3562
237.9283, 149.8250
238.4104, 150.3283
238.8925, 150.9031
239.3746, 151.5513
239.8567, 152.2673
240.3388, 153.0973
240.8210, 153.9454
241.3031, 154.7473
241.7852, 155.5275
242.2673, 156.1999
242.7494, 156.6895
243.2315, 157.0251
243.7137, 157.4960
244.1958, 158.0425
244.6779, 158.7998
245.1600, 159.9173
245.6421, 161.6748
246.1242, 163.2192
246.6064, 164.4799
247.0885, 165.4597
247.5706, 166.1681
248.0527, 166.5687
248.5348, 166.7419
249.0169, 166.7453
249.4990, 166.6300
249.9812, 166.2414
250.4633, 165.5745
250.9454, 164.6277
251.4275, 163.2751
251.9096, 161.0430
252.3917, 159.1133
252.8739, 158.3227
253.3560, 159.3524
253.8381, 159.8353
254.3202, 159.5041
254.8023, 158.5363
255.2844, 157.5515
255.7666, 156.4492
256.2487, 155.4944
256.7308, 154.8828
257.2129, 154.7954
257.6950, 154.5285
258.1772, 153.9731
258.6593, 153.2526
259.1414, 152.7129
259.6235, 152.4865
260.1056, 152.1941
260.5877, 151.6070
261.0699, 150.5658
261.5520, 149.7531
262.0341, 149.2008
262.5162, 148.8640
262.9983, 148.6689
263.4804, 148.6965
263.9626, 148.6897
264.4447, 148.5203
264.9268, 148.1282
265.4089, 147.8307
265.8910, 147.6078
266.3731, 147.4977
266.8553, 147.6039
267.3374, 148.0201
267.8195, 148.3970
268.3016, 148.5820
268.7837, 148.5499
269.2658, 148.5135
269.7480, 148.2992
270.2301, 148.3163
270.7122, 149.3828
271.1943, 151.8975
271.6764, 153.9563
272.1585, 154.6826
272.6407, 154.0747
273.1228, 154.2974
273.6049, 155.5997
274.0870, 157.2540
274.5691, 158.3894
275.0512, 158.8836
275.5334, 159.4225
276.0155, 160.1633
276.4976, 161.1000
276.9797, 162.2538
277.4618, 163.7279
277.9439, 165.1360
278.4260, 165.9697
278.9081, 166.1472
279.3903, 166.5631
279.8724, 167.4428
280.3545, 168.7139
280.8366, 170.1819
281.3187, 171.9281
281.8008, 173.5273
282.2830, 174.5076
282.7651, 174.8574
283.2472, 175.3352
283.7293, 176.0856
284.2114, 177.0461
284.6935, 178.0531
285.1757, 179.1205
285.6578, 180.1446
286.1399, 180.8955
286.6220, 181.4215
287.1041, 182.4412
287.5862, 184.1535
288.0684, 186.2482
288.5505, 187.9864
289.0326, 189.3716
289.5147, 190.9227
289.9968, 193.0017
290.4789, 195.5536
290.9611, 198.1529
291.4432, 200.7278
291.9253, 203.4884
292.4074, 206.8365
292.8895, 210.7472
293.3716, 214.6548
293.8538, 218.3039
294.3359, 221.7484
294.8180, 225.0849
295.3001, 228.2358
295.7822, 231.5388
296.2643, 235.5586
296.7465, 240.1403
297.2286, 244.6258
297.7107, 248.8566
298.1928, 252.8167
298.6749, 256.5076
299.1570, 259.9686
299.6392, 262.8742
300.1213, 265.0187
300.6034, 266.3434
301.0855, 266.5797
301.5676, 265.3691
302.0497, 263.1899
302.5319, 260.5693
303.0140, 257.5052
303.4961, 254.3516
303.9782, 251.4440
304.4603, 248.6191
304.9424, 245.3895
305.4246, 241.1833
305.9067, 237.0802
306.3888, 234.7130
306.8709, 233.7264
307.3530, 232.3339
307.8351, 228.2312
308.3173, 223.4999
308.7994, 220.9259
309.2815, 221.9787
309.7636, 223.3672
310.2457, 222.1474
310.7278, 219.1291
311.2100, 216.5243
311.6921, 215.5489
312.1742, 215.4654
312.6563, 215.8159
313.1384, 216.6823
313.6205, 217.3996
314.1027, 217.4267
314.5848, 217.0648
315.0669, 216.8371
315.5490, 217.5414
316.0311, 218.0151
316.5132, 217.3914
316.9954, 215.4991
317.4775, 213.5825
317.9596, 212.1633
318.4417, 211.0126
318.9238, 209.8551
319.4059, 208.8184
319.8881, 207.5630
320.3702, 205.7607
320.8523, 203.4326
321.3344, 201.4679
321.8165, 200.1953
322.2986, 199.3444
322.7808, 198.7099
323.2629, 198.0488
323.7450, 197.8192
324.2271, 198.4181
324.7092, 199.6475
325.1913, 200.5138
325.6735, 200.5867
326.1556, 200.4723
326.6377, 200.4694
327.1198, 200.6025
327.6019, 200.8555
328.0840, 201.6242
328.5662, 202.5285
329.0483, 202.6178
329.5304, 201.2973
330.0125, 199.7388
330.4946, 198.3782
330.9767, 197.5374
331.4589, 195.9885
331.9410, 193.4050
332.4231, 190.2519
332.9052, 187.1059
333.3873, 183.5123
333.8694, 180.5769
334.3516, 178.7155
334.8337, 177.9914
335.3158, 177.1799
335.7979, 176.0002
336.2800, 175.0613
336.7621, 175.0251
337.2443, 176.2343
337.7264, 177.4186
338.2085, 178.3599
338.6906, 179.1049
339.1727, 179.9787
339.6548, 181.0053
340.1370, 182.1130
340.6191, 183.1517
341.1012, 184.0087
341.5833, 185.6228
342.0654, 188.3391
342.5475, 191.5594
343.0297, 193.8495
343.5118, 195.1012
343.9939, 196.0963
344.4760, 197.1621
344.9581, 198.2860
345.4402, 199.5973
345.9224, 201.1846
346.4045, 202.6499
346.8866, 203.4050
347.3687, 203.4836
347.8508, 203.2135
348.3329, 202.6330
348.8151, 201.8143
349.2972, 200.8966
349.7793, 199.8766
350.2614, 198.9292
350.7435, 198.2019
351.2256, 197.6901
351.7078, 197.3951
352.1899, 197.4293
352.6720, 197.5584
353.1541, 197.3708
353.6362, 196.9290
354.1183, 196.6225
354.6005, 196.8919
355.0826, 197.4048
355.5647, 197.7266
356.0468, 197.8027
356.5289, 197.5986
357.0110, 196.7306
357.4932, 195.5356
357.9753, 194.8034
358.4574, 195.6109
358.9395, 196.6051
359.4216, 196.4977
359.9037, 195.0615
360.3859, 193.7768
360.8680, 193.9785
361.3501, 194.6679
361.8322, 194.6304
362.3143, 192.4847
362.7964, 190.4046
363.2786, 189.5030
363.7607, 189.6826
364.2428, 189.6994
364.7249, 188.8807
365.2070, 187.9103
365.6891, 187.2556
366.1713, 187.1030
366.6534, 187.1441
367.1355, 187.3706
367.6176, 187.7569
368.0997, 188.2308
368.5818, 189.0000
369.0640, 189.6742
369.5461, 190.0737
370.0282, 189.9981
370.5103, 190.1381
370.9924, 190.6201
371.4745, 191.2672
371.9567, 191.8229
372.4388, 191.9719
372.9209, 192.5041
373.4030, 193.7595
373.8851, 195.7693
374.3672, 197.2562
374.8494, 197.9916
375.3315, 198.5298
375.8136, 199.3216
376.2957, 200.4595
376.7778, 201.5127
377.2599, 202.2735
377.7421, 202.9731
378.2242, 204.5003
378.7063, 207.0348
379.1884, 209.5970
379.6705, 211.5956
380.1526, 213.0427
380.6348, 214.4781
381.1169, 216.0305
381.5990, 217.2924
382.0811, 217.3927
382.5632, 216.4158
383.0453, 215.7341
383.5275, 216.0141
384.0096, 216.9800
384.4917, 217.8412
384.9738, 218.5961
385.4559, 219.4034
385.9380, 220.5846
386.4202, 221.9424
386.9023, 222.9382
387.3844, 223.2902
387.8665, 223.4710
388.3486, 224.2209
388.8307, 225.3668
389.3129, 226.2146
389.7950, 225.7786
390.2771, 225.0934
390.7592, 225.4915
391.2413, 227.3779
391.7234, 229.1665
392.2056, 229.5359
392.6877, 229.1171
393.1698, 228.9050
393.6519, 229.8206
394.1340, 230.5923
394.6161, 230.4533
395.0983, 229.4070
395.5804, 228.2613
396.0625, 227.2258
396.5446, 226.2534
397.0267, 225.3094
397.5089, 224.3900
397.9910, 223.4955
398.4731, 222.7521
398.9552, 222.0509
399.4373, 221.0650
399.9194, 219.2941
400.4016, 217.6426
400.8837, 216.4544
401.3658, 215.8428
401.8479, 215.3083
402.3300, 214.6144
402.8121, 214.1441
403.2942, 214.4060
403.7763, 215.7685
404.2585, 217.1631
404.7406, 218.3245
405.2227, 219.3011
405.7048, 220.5010
406.1869, 221.8291
406.6690, 223.5663
407.1512, 226.0807
407.6333, 229.5029
408.1154, 232.5543
408.5975, 235.0052
409.0796, 237.1983
409.5617, 239.9812
410.0439, 243.3680
410.5260, 246.7073
411.0081, 249.2870
411.4902, 251.4678
411.9723, 255.0972
412.4544, 260.3259
412.9366, 265.9919
413.4187, 271.0694
413.9008, 275.7697
414.3829, 280.5957
414.8650, 285.6877
415.3471, 291.0581
415.8293, 296.8115
416.3114, 302.9020
416.7935, 308.8661
417.2756, 314.1860
417.7577, 319.3736
418.2398, 324.9559
418.7220, 331.1846
419.2041, 337.2904
419.6862, 343.1744
420.1683, 348.6718
420.6504, 353.3685
421.1325, 357.2425
421.6147, 360.3214
422.0968, 362.8507
422.5789, 364.8178
423.0610, 365.2892
423.5431, 363.3004
424.0252, 360.2104
424.5074, 356.8784
424.9895, 354.4095
425.4716, 350.4867
425.9537, 344.1655
426.4358, 336.3024
426.9179, 328.7703
427.4001, 321.4635
427.8822, 314.4958
428.3643, 307.8438
428.8464, 301.4630
429.3285, 295.7217
429.8106, 290.7214
430.2928, 286.2470
430.7749, 281.9728
431.2570, 277.8047
431.7391, 274.3859
432.2212, 271.9689
432.7033, 270.2944
433.1855, 268.4971
433.6676, 266.5289
434.1497, 264.8561
434.6318, 263.6268
435.1139, 262.8894
435.5960, 262.9947
436.0782, 264.0089
436.5603, 265.6359
437.0424, 267.6393
437.5245, 269.9691
438.0066, 272.4133
438.4887, 274.6609
438.9709, 277.1635
439.4530, 281.0610
439.9351, 286.1001
440.4172, 290.3812
440.8993, 292.5443
441.3814, 293.4072
441.8636, 293.8902
442.3457, 294.3228
442.8278, 293.8963
443.3099, 292.4003
443.7920, 289.6985
444.2741, 285.5305
444.7563, 279.1837
445.2384, 271.9844
445.7205, 264.0963
446.2026, 255.5451
446.6847, 247.4654
447.1668, 240.1565
447.6490, 233.4177
448.1311, 227.1270
448.6132, 221.4495
449.0953, 216.0533
449.5774, 210.9370
450.0595, 206.1316
450.5417, 201.7381
451.0238, 197.8227
451.5059, 194.2868
451.9880, 191.1580
452.4701, 188.4282
452.9522, 185.7739
453.4344, 183.0999
453.9165, 180.6304
454.3986, 178.6135
454.8807, 177.0634
455.3628, 175.4653
455.8449, 173.6498
456.3271, 171.8435
456.8092, 170.6559
457.2913, 170.0218
457.7734, 169.2048
458.2555, 167.4409
458.7376, 165.2737
459.2198, 163.8929
459.7019, 163.3681
460.1840, 163.2190
460.6661, 163.0760
461.1482, 163.0141
461.6303, 163.1863
462.1125, 163.8513
462.5946, 164.4755
463.0767, 164.5855
463.5588, 164.3240
464.0409, 164.0981
464.5230, 163.9344
465.0052, 163.9819
465.4873, 164.4044
465.9694, 165.2899
466.4515, 166.0975
466.9336, 166.7176
467.4157, 167.1781
467.8979, 167.5054
468.3800, 167.1887
468.8621, 167.3510
469.3442, 168.2144
469.8263, 169.6453
470.3084, 171.1576
470.7906, 172.7433
471.2727, 174.4101
471.7548, 176.1488
472.2369, 177.9539
472.7190, 179.9731
473.2011, 182.3632
473.6833, 184.7364
474.1654, 186.3926
474.6475, 187.2683
475.1296, 188.9672
475.6117, 192.0752
476.0938, 196.0052
476.5760, 199.1176
477.0581, 201.5150
477.5402, 204.3981
478.0223, 208.9758
478.5044, 214.4480
478.9865, 219.0891
479.4687, 222.6985
479.9508, 226.4655
480.4329, 231.4873
480.9150, 237.2924
481.3971, 243.1341
481.8792, 248.3681
482.3614, 254.0399
482.8435, 260.7669
483.3256, 268.4218
483.8077, 276.5642
484.2898, 285.0219
484.7719, 293.8365
485.2541, 302.8548
485.7362, 311.7083
486.2183, 321.9475
486.7004, 334.3994
487.1825, 348.0087
487.6646, 361.9019
488.1468, 375.6320
488.6289, 389.8839
489.1110, 405.0917
489.5931, 420.7680
490.0752, 435.8167
490.5573, 450.4088
491.0395, 464.0412
491.5216, 476.8973
492.0037, 489.0962
492.4858, 498.8531
492.9679, 506.2852
493.4500, 511.3630
493.9322, 514.3552
494.4143, 515.0945
494.8964, 512.3249
495.3785, 505.6364
495.8606, 495.4940
496.3427, 481.5316
496.8249, 464.4666
497.3070, 446.6545
497.7891, 429.3830
498.2712, 412.1858
498.7533, 394.5772
499.2354, 376.3806
499.7176, 359.0036
500.1997, 343.0703
500.6818, 328.4197
501.1639, 314.9604
501.6460, 302.5542
502.1281, 291.2715
502.6103, 282.0510
503.0924, 273.8703
503.5745, 264.7143
504.0566, 252.2367
504.5387, 241.0401
505.0208, 232.6247
505.5030, 227.1330
505.9851, 221.6171
506.4672, 215.9815
506.9493, 210.5042
507.4314, 205.3628
507.9135, 200.4657
508.3957, 196.0923
508.8778, 192.3564
509.3599, 188.9288
509.8420, 185.0943
510.3241, 180.8836
510.8062, 177.1903
511.2884, 174.5264
511.7705, 172.5501
512.2526, 170.5879
512.7347, 168.6251
513.2168, 166.5804
513.6989, 164.1244
514.1810, 161.6502
514.6631, 159.7445
515.1453, 158.5433
515.6274, 157.6301
516.1095, 157.0242
516.5916, 156.4311
517.0737, 155.4572
517.5558, 153.1602
518.0380, 151.2867
518.5201, 150.8043
519.0022, 151.3927
519.4843, 151.5005
519.9664, 150.3522
520.4485, 149.1303
520.9307, 148.3451
521.4128, 148.1544
521.8949, 147.7095
522.3770, 146.8192
522.8591, 145.8851
523.3412, 145.2928
523.8234, 145.0940
524.3055, 145.0766
524.7876, 145.2943
525.2697, 145.5873
525.7518, 145.5584
526.2339, 145.2100
526.7161, 144.8027
527.1982, 144.4248
527.6803, 144.0874
528.1624, 143.7485
528.6445, 143.4114
529.1266, 143.3074
529.6088, 143.8375
530.0909, 144.6378
530.5730, 145.1947
531.0551, 145.3873
531.5372, 145.3914
532.0193, 145.1728
532.5015, 144.8707
532.9836, 144.7041
533.4657, 144.7365
533.9478, 144.9168
534.4299, 145.4060
534.9120, 146.1299
535.3942, 146.4443
535.8763, 145.8984
536.3584, 145.3120
536.8405, 145.0148
537.3226, 145.0480
537.8047, 145.2409
538.2869, 145.6907
538.7690, 146.1660
539.2511, 146.3392
539.7332, 146.1632
540.2153, 146.1637
540.6974, 146.4571
541.1796, 146.9504
541.6617, 147.6283
542.1438, 148.4388
542.6259, 148.8902
543.1080, 148.2011
543.5901, 147.1879
544.0723, 147.4273
544.5544, 148.8620
545.0365, 150.1951
545.5186, 150.4357
546.0007, 150.1252
546.4828, 149.7779
546.9650, 149.4371
547.4471, 149.2266
547.9292, 149.0445
548.4113, 149.0674
548.8934, 149.5386
549.3755, 151.1762
549.8577, 152.5168
550.3398, 153.1117
550.8219, 153.1253
551.3040, 153.3855
551.7861, 153.8905
552.2682, 154.6570
552.7504, 155.7993
553.2325, 157.3792
553.7146, 158.5396
554.1967, 159.1834
554.6788, 159.7015
555.1609, 160.5088
555.6431, 161.5578
556.1252, 162.6270
556.6073, 163.7222
557.0894, 164.7108
557.5715, 165.1702
558.0536, 165.3379
558.5358, 165.9092
559.0179, 167.6105
559.5000, 169.5623
559.9821, 170.9328
560.4642, 171.8155
560.9464, 172.8242
561.4285, 174.3183
561.9106, 175.9720
562.3927, 177.5242
562.8748, 178.8237
563.3569, 180.4365
563.8391, 182.6203
564.3212, 185.0451
564.8033, 187.4724
565.2854, 190.0271
565.7675, 192.3225
566.2496, 194.2519
566.7318, 195.9737
567.2139, 197.7862
567.6960, 199.7018
568.1781, 201.7696
568.6602, 204.1181
569.1423, 206.6194
569.6245, 208.6351
570.1066, 210.1982
570.5887, 211.7023
571.0708, 213.2901
571.5529, 215.1064
572.0350, 217.4616
572.5172, 220.4971
572.9993, 223.5581
573.4814, 226.0636
573.9635, 228.3682
574.4456, 230.8708
574.9277, 234.2342
575.4099, 237.1963
575.8920, 239.0500
576.3741, 240.2321
576.8562, 241.9804
577.3383, 245.0484
577.8204, 247.9548
578.3026, 250.3615
578.7847, 252.2475
579.2668, 253.9784
579.7489, 255.5372
580.2310, 256.9812
580.7131, 258.2005
581.1953, 259.1988
581.6774, 260.7969
582.1595, 263.1665
582.6416, 265.5578
583.1237, 267.2044
583.6058, 268.1345
584.0880, 268.3921
584.5701, 267.8994
585.0522, 266.8730
585.5343, 265.5553
586.0164, 263.8654
586.4985, 261.6408
586.9807, 258.4898
587.4628, 255.0536
587.9449, 251.4678
588.4270, 247.7802
588.9091, 244.6199
589.3912, 243.0459
589.8734, 241.2460
590.3555, 238.2178
590.8376, 233.4508
591.3197, 229.2085
591.8018, 225.4482
592.2839, 222.2710
592.7661, 219.9723
593.2482, 218.6626
593.7303, 217.0968
594.2124, 215.0119
594.6945, 212.6875
595.1766, 210.4402
595.6588, 208.2856
596.1409, 206.3146
596.6230, 204.6778
597.1051, 203.1687
597.5872, 201.3513
598.0693, 199.3737
598.5515, 197.8254
599.0336, 197.4596
599.5157, 197.3270
599.9978, 196.6324
600.4799, 195.1277
600.9620, 194.1900
601.4442, 194.7127
601.9263, 195.5525
602.4084, 195.7968
602.8905, 194.8483
603.3726, 194.4434
603.8547, 194.8146
604.3369, 195.5813
604.8190, 196.0603
605.3011, 196.1801
605.7832, 196.5919
606.2653, 197.5252
606.7474, 198.7973
607.2296, 199.9815
607.7117, 201.0894
608.1938, 202.1778
608.6759, 203.0251
609.1580, 203.9915
609.6401, 205.6460
610.1223, 207.9705
610.6044, 210.3470
611.0865, 212.3729
611.5686, 214.3573
612.0507, 216.5534
612.5328, 219.0917
613.0150, 221.6292
613.4971, 224.1465
613.9792, 226.6291
614.4613, 229.0700
614.9434, 231.3290
615.4255, 233.9025
615.9077, 236.9465
616.3898, 240.2565
616.8719, 243.1617
617.3540, 245.5578
617.8361, 248.5705
618.3182, 252.8045
618.8004, 257.7545
619.2825, 261.9346
619.7646, 265.4993
620.2467, 269.4393
620.7288, 274.8716
621.2109, 280.8030
621.6931, 285.9461
622.1752, 290.2711
622.6573, 294.5205
623.1394, 298.9425
623.6215, 303.5385
624.1036, 308.2850
624.5858, 313.0149
625.0679, 318.2445
625.5500, 324.4357
626.0321, 330.8565
626.5142, 336.6138
626.9963, 341.5435
627.4785, 346.3684
627.9606, 351.1753
628.4427, 355.9655
628.9248, 360.6382
629.4069, 365.1742
629.8890, 370.1177
630.3712, 376.1448
630.8533, 382.5175
631.3354, 387.8319
631.8175, 392.1605
632.2996, 395.9518
632.7817, 399.0144
633.2639, 401.9804
633.7460, 405.8500
634.2281, 410.8094
634.7102, 414.5342
635.1923, 415.4681
635.6744, 415.3334
636.1566, 415.3399
636.6387, 415.5822
637.1208, 416.0005
637.6029, 416.7578
638.0850, 417.5382
638.5671, 418.0557
639.0493, 418.4064
639.5314, 417.9422
640.0135, 416.5049
640.4956, 414.2447
640.9777, 411.2076
641.4598, 407.4914
641.9420, 403.6768
642.4241, 400.1777
642.9062, 396.5790
643.3883, 392.3116
643.8704, 387.4272
644.3525, 382.2722
644.8347, 376.3355
645.3168, 370.6981
645.7989, 366.1426
646.2810, 362.9178
646.7631, 359.0563
647.2452, 353.8333
647.7274, 348.2728
648.2095, 342.9523
648.6916, 337.8564
649.1737, 332.8490
649.6558, 327.9501
650.1379, 323.0426
650.6201, 318.0161
651.1022, 312.8482
651.5843, 307.8963
652.0664, 303.2677
652.5485, 298.7546
653.0306, 294.1104
653.5128, 289.4798
653.9949, 285.1713
654.4770, 281.6501
654.9591, 278.2338
655.4412, 274.3683
655.9233, 270.2353
656.4055, 266.3029
656.8876, 262.8643
657.3697, 259.5667
657.8518, 256.2136
658.3339, 252.8335
658.8160, 249.8049
659.2982, 247.3262
659.7803, 244.8115
660.2624, 241.8433
660.7445, 238.4242
661.2266, 235.5024
661.7087, 233.1289
662.1909, 230.8427
662.6730, 228.0940
663.1551, 225.1304
663.6372, 222.5540
664.1193, 220.4996
664.6014, 218.5744
665.0836, 216.4233
665.5657, 214.2225
666.0478, 212.1878
666.5299, 210.4611
667.0120, 208.8025
667.4941, 207.2078
667.9763, 205.6326
668.4584, 203.9995
668.9405, 202.1623
669.4226, 200.5451
669.9047, 199.3479
670.3868, 198.3815
670.8690, 196.9393
671.3511, 194.9720
671.8332, 193.3135
672.3153, 192.6869
672.7974, 192.4955
673.2795, 191.2696
673.7617, 189.1339
674.2438, 186.9664
674.7259, 185.2688
675.2080, 183.8560
675.6901, 182.5430
676.1722, 181.3106
676.6544, 180.4109
677.1365, 180.3659
677.6186, 180.3444
678.1007, 179.7621
678.5828, 178.3071
679.0649, 177.1693
679.5471, 176.5287
680.0292, 175.9648
680.5113, 174.9837
680.9934, 173.5603
681.4755, 172.4402
681.9576, 171.7675
682.4398, 171.2462
682.9219, 170.3667
683.4040, 169.3080
683.8861, 168.6280
684.3682, 168.8413
684.8503, 168.9642
685.3325, 167.9208
685.8146, 166.2862
686.2967, 165.2540
686.7788, 165.9392
687.2609, 166.4480
687.7430, 166.0921
688.2252, 165.0884
688.7073, 164.2904
689.1894, 163.7024
689.6715, 163.3127
690.1536, 163.2238
690.6357, 163.3474
691.1179, 163.0338
691.6000, 162.2689
692.0821, 161.5086
692.5642, 161.0912
693.0463, 160.8602
693.5284, 160.5395
694.0106, 160.1175
694.4927, 159.7136
694.9748, 159.4604
695.4569, 159.2248
695.9390, 158.8929
696.4211, 158.4236
696.9033, 157.9356
697.3854, 157.3217
697.8675, 156.7788
698.3496, 156.4783
698.8317, 156.4950
699.3138, 156.5555
699.7960, 156.7466
700.2781, 156.7613
700.7602, 155.8665
701.2423, 154.2796
701.7244, 153.4404
702.2065, 153.9380
702.6887, 154.7316
703.1708, 154.6832
703.6529, 154.0482
704.1350, 153.3048
704.6171, 152.3732
705.0992, 151.6569
705.5814, 151.4197
706.0635, 151.5314
706.5456, 151.6207
707.0277, 151.8840
707.5098, 151.7788
707.9919, 150.9979
708.4741, 149.7485
708.9562, 149.1174
709.4383, 149.1703
709.9204, 149.3340
710.4025, 149.2735
710.8846, 149.1213
711.3667, 149.3389
711.8488, 149.8652
712.3309, 150.2110
712.8130, 149.6954
713.2952, 149.1062
713.7773, 149.2575
714.2594, 150.2575
714.7415, 150.9423
715.2236, 150.7436
715.7057, 150.3415
716.1879, 150.1175
716.6700, 150.0917
717.1521, 150.1741
717.6342, 150.3722
718.1163, 150.6673
718.5984, 150.9502
719.0806, 151.2604
719.5627, 152.1501
720.0448, 153.7827
720.5269, 155.3245
721.0090, 155.6787
721.4911, 155.4379
721.9733, 155.5448
722.4554, 156.2634
722.9375, 157.2795
723.4196, 158.7881
723.9017, 160.3814
724.3839, 161.5524
724.8660, 161.4543
725.3481, 162.0783
725.8302, 163.8515
726.3123, 166.2188
726.7944, 168.0346
727.2766, 169.2319
727.7587, 170.9518
728.2408, 173.6061
728.7229, 176.7429
729.2050, 179.5049
729.6871, 182.0285
730.1693, 184.7056
730.6514, 187.5962
731.1335, 190.8456
731.6156, 194.8059
732.0977, 199.2146
732.5798, 203.2693
733.0620, 205.8343
733.5441, 209.0281
734.0262, 213.5868
734.5083, 219.2733
734.9904, 224.8318
735.4725, 230.1449
735.9547, 235.7202
736.4368, 241.8060
736.9189, 248.3341
737.4010, 255.0752
737.8831, 261.9807
738.3652, 269.1433
738.8474, 276.9544
739.3295, 284.8279
739.8116, 292.0695
740.2937, 298.6674
740.7758, 305.3346
741.2579, 313.1308
741.7401, 320.4210
742.2222, 326.4168
742.7043, 331.1595
743.1864, 334.5852
743.6685, 336.6662
744.1506, 337.5390
744.6328, 337.3172
745.1149, 335.9890
745.5970, 333.3405
746.0791, 329.3911
746.5612, 324.3303
747.0433, 317.9917
747.5255, 310.7710
748.0076, 303.3536
748.4897, 295.8555
748.9718, 287.8773
749.4539, 278.8717
749.9360, 269.6103
750.4182, 260.6650
750.9003, 251.6280
751.3824, 243.7797
751.8645, 237.3650
752.3466, 231.7323
752.8287, 226.2739
753.3109, 220.9239
753.7930, 215.8945
754.2751, 211.1560
754.7572, 206.6596
755.2393, 202.2137
755.7214, 197.9380
756.2036, 193.9698
756.6857, 190.4177
757.1678, 187.1153
757.6499, 183.9853
758.1320, 181.0382
758.6141, 178.3530
759.0963, 175.9422
759.5784, 173.7520
760.0605, 171.7636
760.5426, 169.9803
761.0247, 168.4080
761.5068, 167.0501
761.9890, 165.8476
762.4711, 164.8412
762.9532, 163.8783
763.4353, 162.7751
763.9174, 161.5409
764.3995, 160.1606
764.8817, 158.0261
765.3638, 156.4350
765.8459, 156.5146
766.3280, 157.6323
766.8101, 158.3454
767.2922, 158.7541
767.7744, 158.2408
768.2565, 156.2451
768.7386, 153.4187
769.2207, 151.6374
769.7028, 150.9680
770.1849, 150.5689
770.6671, 150.2204
771.1492, 149.8726
771.6313, 149.5484
772.1134, 149.1678
772.5955, 148.4544
773.0776, 146.6943
773.5598, 145.0922
774.0419, 144.5397
774.5240, 144.8069
775.0061, 144.8146
775.4882, 144.3817
775.9703, 143.6917
776.4525, 142.6688
776.9346, 141.4241
777.4167, 140.6048
777.8988, 140.2331
778.3809, 139.9316
778.8630, 139.5112
779.3452, 139.0442
779.8273, 138.6935
780.3094, 138.4345
780.7915, 138.1321
781.2736, 137.6245
781.7557, 137.1369
782.2379, 136.7645
782.7200, 136.5182
783.2021, 136.4850
783.6842, 137.0441
784.1663, 137.2583
784.6484, 136.6817
785.1306, 135.4353
785.6127, 134.3980
786.0948, 133.5615
786.5769, 133.0692
787.0590, 133.1976
787.5411, 133.6501
788.0233, 134.0540
788.5054, 134.3650
788.9875, 134.3238
789.4696, 133.4457
789.9517, 132.4711
790.4338, 131.8142
790.9160, 131.5065
791.3981, 131.2474
791.8802, 130.9507
792.3623, 130.8576
792.8444, 131.2202
793.3265, 131.9469
793.8087, 131.9246
794.2908, 131.1436
794.7729, 130.6304
795.2550, 131.4591
795.7371, 132.7694
796.2192, 133.4936
796.7014, 133.6085
797.1835, 133.3415
797.6656, 132.2844
798.1477, 131.3194
798.6298, 130.9389
799.1119, 131.1582
799.5941, 131.6499
800.0762, 132.5763
800.5583, 133.3915
801.0404, 133.7707
801.5225, 133.7737
802.0046, 133.7225
802.4868, 133.6260
802.9689, 133.6951
803.4510, 134.3416
803.9331, 135.0566
804.4152, 135.2509
804.8973, 134.9262
805.3795, 134.6700
805.8616, 134.6638
806.3437, 134.7883
806.8258, 134.9988
807.3079, 135.2948
807.7900, 135.6551
808.2722, 136.1254
808.7543, 136.4850
809.2364, 136.4924
809.7185, 136.2886
810.2006, 136.3639
810.6827, 136.6938
811.1649, 137.0334
811.6470, 137.3446
812.1291, 137.5040
812.6112, 137.3030
813.0933, 136.7446
813.5754, 136.4303
814.0576, 136.8643
814.5397, 137.0570
815.0218, 136.5023
815.5039, 135.2689
815.9860, 134.5668
816.4681, 134.4281
816.9503, 134.3754
817.4324, 134.0786
817.9145, 133.6807
818.3966, 133.4630
818.8787, 133.4029
819.3608, 133.3116
819.8430, 133.1386
820.3251, 132.8645
820.8072, 132.4842
821.2893, 131.9899
821.7714, 131.3327
822.2535, 130.3396
822.7357, 129.5738
823.2178, 129.3345
823.6999, 129.5077
824.1820, 129.5723
824.6641, 129.5358
825.1462, 129.5180
825.6284, 129.7150
826.1105, 129.8736
826.5926, 129.7464
827.0747, 129.3530
827.5568, 128.8273
828.0389, 127.9174
828.5211, 127.2087
829.0032, 126.9850
829.4853, 127.1398
829.9674, 127.0147
830.4495, 126.5442
830.9316, 126.1633
831.4138, 126.0775
831.8959, 126.1794
832.3780, 126.2967
832.8601, 126.4057
833.3422, 126.4135
833.8243, 126.1096
834.3065, 125.8455
834.7886, 125.8224
835.2707, 126.0045
835.7528, 126.2705
836.2349, 126.8386
836.7170, 127.0551
837.1992, 126.5818
837.6813, 125.7711
838.1634, 125.7831
838.6455, 126.5438
839.1276, 126.9159
839.6097, 126.2101
840.0919, 125.2260
840.5740, 124.7942
841.0561, 124.7986
841.5382, 124.9979
842.0203, 125.4429
842.5024, 125.9140
842.9846, 126.4639
843.4667, 126.9681
843.9488, 127.1037
844.4309, 126.7196
844.9130, 126.7357
845.3951, 127.4716
845.8773, 128.4166
846.3594, 128.6223
846.8415, 128.3591
847.3236, 128.3533
847.8057, 128.9401
848.2878, 129.6531
848.7700, 130.2664
849.2521, 130.8196
849.7342, 131.3604
850.2163, 131.8575
850.6984, 132.4118
851.1805, 133.0471
851.6627, 133.7150
852.1448, 134.3708
852.6269, 135.0071
853.1090, 135.5304
853.5911, 135.8811
854.0732, 136.3524
854.5554, 137.4907
855.0375, 138.7993
855.5196, 139.6240
856.0017, 139.5430
856.4838, 139.6894
856.9659, 140.3101
857.4481, 141.2121
857.9302, 142.3445
858.4123, 143.7749
858.8944, 144.8464
859.3765, 145.4890
859.8586, 146.0633
860.3408, 146.9480
860.8229, 148.0035
861.3050, 149.0364
861.7871, 150.0456
862.2692, 150.7731
862.7513, 150.6579
863.2335, 150.5608
863.7156, 151.2072
864.1977, 152.7112
864.6798, 153.8279
865.1619, 154.4959
865.6440, 154.9209
866.1262, 155.1694
866.6083, 155.2764
867.0904, 155.2996
867.5725, 155.2594
868.0546, 155.3792
868.5367, 155.9333
869.0189, 156.5883
869.5010, 157.0678
869.9831, 157.3819
870.4652, 157.8613
870.9473, 158.7978
871.4294, 159.4460
871.9116, 159.3758
872.3937, 158.8777
872.8758, 159.1901
873.3579, 160.2809
873.8400, 161.6350
874.3221, 163.4485
874.8043, 164.9924
875.2864, 165.0720
875.7685, 164.2646
876.2506, 164.0098
876.7327, 165.4834
877.2148, 166.6721
877.6970, 167.0609
878.1791, 166.9751
878.6612, 167.0840
879.1433, 167.4045
879.6254, 167.7370
880.1075, 168.0167
880.5897, 168.3376
881.0718, 169.0184
881.5539, 169.7964
882.0360, 170.1413
882.5181, 169.5868
883.0002, 169.1275
883.4824, 169.4141
883.9645, 169.7804
884.4466, 169.4323
884.9287, 168.0398
885.4108, 167.2056
885.8929, 167.1915
886.3751, 167.1575
886.8572, 165.9096
887.3393, 163.9911
887.8214, 162.6790
888.3035, 162.1870
888.7856, 161.7647
889.2678, 160.9216
889.7499, 160.0218
890.2320, 159.4006
890.7141, 159.1750
891.1962, 158.6038
891.6783, 157.6063
892.1605, 156.4968
892.6426, 155.4375
893.1247, 154.4380
893.6068, 153.5387
894.0889, 152.7171
894.5710, 151.8304
895.0532, 150.4050
895.5353, 149.1858
896.0174, 148.9352
896.4995, 149.5124
896.9816, 149.5545
897.4637, 148.7326
897.9459, 147.8222
898.4280, 147.0061
898.9101, 146.2975
899.3922, 145.8144
899.8743, 145.5260
900.3564, 145.2638
900.8386, 144.9978
901.3207, 144.6738
901.8028, 144.3121
902.2849, 143.8500
902.7670, 143.1671
903.2491, 141.8059
903.7313, 140.8518
904.2134, 140.5094
904.6955, 140.4560
905.1776, 140.2420
905.6597, 139.8765
906.1418, 139.5535
906.6240, 139.3195
907.1061, 139.0316
907.5882, 138.3469
908.0703, 137.6413
908.5524, 137.4210
909.0345, 138.0173
909.5167, 138.2552
909.9988, 137.7984
910.4809, 137.1718
910.9630, 136.6889
911.4451, 136.3551
911.9272, 135.9098
912.4094, 135.3469
912.8915, 134.8713
913.3736, 134.6633
913.8557, 134.6091
914.3378, 134.6761
914.8199, 134.8252
915.3021, 134.7985
915.7842, 134.4178
916.2663, 133.9483
916.7484, 133.4062
917.2305, 132.8516
917.7126, 132.5410
918.1948, 132.4769
918.6769, 132.3869
919.1590, 132.0951
919.6411, 131.8354
920.1232, 132.0902
920.6053, 132.5670
921.0875, 132.6861
921.5696, 131.7452
922.0517, 131.1167
922.5338, 131.2188
923.0159, 131.5621
923.4980, 131.5335
923.9802, 131.1097
924.4623, 130.6474
924.9444, 130.1588
925.4265, 129.8518
925.9086, 130.1133
926.3907, 130.6153
926.8729, 130.9052
927.3550, 130.8839
927.8371, 130.8529
928.3192, 130.8794
928.8013, 130.9320
929.2834, 130.9532
929.7656, 130.9455
930.2477, 131.2879
930.7298, 131.9964
931.2119, 132.6698
931.6940, 133.1526
932.1761, 133.3749
932.6583, 133.0038
933.1404, 132.2383
933.6225, 131.8733
934.1046, 132.4040
934.5867, 133.1179
935.0688, 133.9081
935.5510, 134.7139
936.0331, 135.3699
936.5152, 135.8873
936.9973, 136.2078
937.4794, 136.2408
937.9615, 136.2882
938.4437, 136.6845
938.9258, 137.3350
939.4079, 138.1081
939.8900, 139.0158
940.3721, 139.9240
940.8542, 140.8068
941.3364, 141.6688
941.8185, 142.5100
942.3006, 143.3218
942.7827, 144.1674
943.2648, 145.0561
943.7469, 145.9762
944.2291, 147.0567
944.7112, 148.0819
945.1933, 148.7370
945.6754, 149.0381
946.1575, 149.5458
946.6396, 150.8221
947.1218, 151.7832
947.6039, 152.0543
948.0860, 151.7980
948.5681, 151.5418
949.0502, 151.2935
949.5323, 151.1387
950.0145, 151.1758
950.4966, 151.2237
950.9787, 151.2715
951.4608, 151.1651
951.9429, 150.6501
952.4250, 149.0342
952.9072, 147.9387
953.3893, 147.6166
953.8714, 147.5611
954.3535, 147.2412
954.8356, 146.6759
955.3177, 145.9894
955.7999, 145.1959
956.2820, 144.2374
956.7640, 142.8906
957.2462, 141.4885
957.7283, 140.2564
958.2104, 139.2124
958.6925, 138.5672
959.1746, 138.5440
959.6567, 138.4155
960.1389, 137.8124
960.6210, 136.8938
961.1031, 136.1837
961.5852, 135.6456
962.0673, 135.1380
962.5494, 134.3895
963.0316, 133.8562
963.5137, 134.0352
963.9958, 134.5376
964.4779, 134.5956
964.9600, 134.0108
965.4421, 133.4333
965.9243, 132.9075
966.4064, 132.4576
966.8885, 132.1294
967.3706, 131.8939
967.8527, 131.6591
968.3348, 131.4060
968.8170, 131.2390
969.2991, 131.3434
969.7812, 131.4439
970.2633, 131.2999
970.7454, 130.9079
971.2275, 130.9034
971.7097, 131.3969
972.1918, 131.6026
972.6739, 130.8436
973.1560, 129.7437
973.6381, 129.3398
974.1202, 129.4992
974.6024, 129.8463
975.0845, 130.7776
975.5666, 131.1873
976.0487, 130.3945
976.5308, 129.2000
977.0129, 128.6806
977.4951, 128.8459
977.9772, 129.6373
978.4593, 131.1704
978.9414, 132.5591
979.4235, 132.9346
979.9056, 132.6535
980.3878, 131.9316
980.8699, 130.6726
981.3520, 130.1395
981.8341, 130.7730
982.3162, 131.7794
982.7983, 132.9879
983.2805, 134.2694
983.7626, 134.7753
984.2447, 134.5863
984.7268, 134.3867
985.2089, 134.4491
985.6910, 134.7165
986.1732, 135.1115
986.6553, 135.6867
987.1374, 136.5977
987.6195, 138.1159
988.1016, 139.3472
988.5837, 140.1006
989.0659, 140.7649
989.5480, 141.8830
990.0301, 143.3047
990.5122, 144.6979
990.9943, 146.0482
991.4764, 146.9140
991.9586, 146.2278
992.4407, 145.6880
992.9228, 146.6399
993.4049, 148.9764
993.8870, 150.4838
994.3691, 151.0278
994.8513, 151.5834
995.3334, 152.6816
995.8155, 153.9476
996.2976, 154.5846
996.7797, 154.9628
997.2618, 155.9186
997.7440, 158.7626
998.2261, 160.8336
998.7082, 161.4041
999.1903, 161.3571
999.6724, 161.6938
1000.155, 162.3912
1000.637, 162.6426
1001.119, 162.3413
1001.601, 162.3221
1002.083, 163.4997
1002.565, 165.1262
1003.047, 166.7568
1003.529, 168.2985
1004.011, 169.0712
1004.494, 168.6764
1004.976, 168.3209
1005.458, 168.3876
1005.940, 168.7864
1006.422, 169.5103
1006.904, 170.4050
1007.386, 170.8691
1007.868, 170.4606
1008.351, 170.0396
1008.833, 170.0854
1009.315, 170.3137
1009.797, 170.3905
1010.279, 170.2452
1010.761, 170.2435
1011.243, 170.4055
1011.725, 170.5923
1012.207, 170.7962
1012.690, 170.8884
1013.172, 170.5274
1013.654, 169.8022
1014.136, 169.3711
1014.618, 169.8489
1015.100, 170.1834
1015.582, 170.2031
1016.064, 169.8551
1016.547, 168.7788
1017.029, 167.1046
1017.511, 165.9162
1017.993, 165.5982
1018.475, 165.4572
1018.957, 165.0394
1019.439, 164.4279
1019.921, 163.7193
1020.403, 162.9648
1020.886, 161.8984
1021.368, 160.4416
1021.850, 158.9018
1022.332, 157.3610
1022.814, 155.9330
1023.296, 155.0329
1023.778, 154.5221
1024.260, 153.8965
1024.743, 152.8979
1025.225, 151.7823
1025.707, 150.5885
1026.189, 149.3514
1026.671, 148.0075
1027.153, 146.5377
1027.635, 145.5011
1028.117, 144.9749
1028.599, 144.8206
1029.082, 145.3954
1029.564, 145.9458
1030.046, 145.5671
1030.528, 144.1006
1031.010, 142.9742
1031.492, 142.4229
1031.974, 141.9164
1032.456, 141.2604
1032.938, 140.5047
1033.421, 139.6924
1033.903, 138.8700
1034.385, 138.1777
1034.867, 137.6091
1035.349, 137.2652
1035.831, 137.3336
1036.313, 137.5668
1036.795, 137.7151
1037.278, 137.7622
1037.760, 137.8293
1038.242, 137.9190
1038.724, 138.0236
1039.206, 138.2017
1039.688, 138.3471
1040.170, 138.1939
1040.652, 137.8530
1041.135, 137.9110
1041.617, 138.8993
1042.099, 139.5734
1042.581, 139.6022
1043.063, 139.3783
1043.545, 139.6320
1044.027, 140.2224
1044.509, 140.6152
1044.991, 140.6680
1045.474, 140.8036
1045.956, 141.3326
1046.438, 141.9749
1046.920, 142.5173
1047.402, 142.9603
1047.884, 143.5226
1048.366, 144.2076
1048.848, 144.9657
1049.330, 145.8884
1049.813, 146.7292
1050.295, 147.0892
1050.777, 147.1840
1051.259, 147.4199
1051.741, 148.0483
1052.223, 148.6148
1052.705, 149.1206
1053.187, 149.5436
1053.670, 149.7876
1054.152, 149.9286
1054.634, 150.1667
1055.116, 150.5312
1055.598, 151.1818
1056.080, 152.8618
1056.562, 154.1574
1057.044, 154.0021
1057.526, 153.0578
1058.009, 153.1305
1058.491, 154.2993
1058.973, 154.9788
1059.455, 154.7085
1059.937, 154.2881
1060.419, 154.6317
1060.901, 155.2484
1061.383, 155.6946
1061.865, 155.9816
1062.348, 155.3710
1062.830, 153.2721
1063.312, 151.6694
1063.794, 151.8002
1064.276, 152.8951
1064.758, 153.2485
1065.240, 152.8880
1065.722, 151.8605
1066.205, 149.2505
1066.687, 147.2420
1067.169, 146.8928
1067.651, 147.0599
1068.133, 146.6673
1068.615, 145.7088
1069.097, 145.1663
1069.579, 145.0778
1070.062, 144.9937
1070.544, 144.4252
1071.026, 143.8623
1071.508, 143.8102
1071.990, 144.1228
1072.472, 144.0309
1072.954, 143.3643
1073.436, 142.7848
1073.918, 142.4255
1074.401, 142.1559
1074.883, 141.7866
1075.365, 141.3828
1075.847, 140.9664
1076.329, 140.5005
1076.811, 140.4615
1077.293, 141.5197
1077.775, 142.3209
1078.257, 142.2549
1078.740, 141.5404
1079.222, 140.8108
1079.704, 140.1009
1080.186, 139.5737
1080.668, 139.3191
1081.150, 139.1980
1081.632, 139.2290
1082.114, 139.2924
1082.596, 139.2828
1083.079, 139.2148
1083.561, 138.8687
1084.043, 138.2012
1084.525, 137.7916
1085.007, 138.3310
1085.489, 139.1142
1085.971, 139.5077
1086.453, 139.5417
1086.936, 139.3194
1087.418, 138.7060
1087.900, 138.1732
1088.382, 137.7681
1088.864, 137.4753
1089.346, 137.1853
1089.828, 137.0266
1090.310, 137.3671
1090.792, 138.2350
1091.275, 139.0330
1091.757, 139.9388
1092.239, 140.1857
1092.721, 139.3207
1093.203, 137.7681
1093.685, 136.6712
1094.167, 135.9858
1094.649, 135.4490
1095.131, 134.9865
1095.614, 134.6580
1096.096, 134.4429
1096.578, 134.4309
1097.060, 134.8157
1097.542, 135.6192
1098.024, 135.8497
1098.506, 135.4691
1098.988, 134.9617
1099.471, 134.4886
1099.953, 134.1219
1100.435, 134.0652
1100.917, 134.1291
1101.399, 133.9670
1101.881, 133.3461
1102.363, 132.8036
1102.845, 132.3231
1103.328, 131.9851
1103.810, 131.9020
1104.292, 131.9909
1104.774, 132.1125
1105.256, 132.2494
1105.738, 132.3409
1106.220, 132.4055
1106.702, 132.3474
1107.184, 132.0594
1107.667, 131.7469
1108.149, 131.6751
1108.631, 131.8521
1109.113, 132.4826
1109.595, 133.6244
1110.077, 134.4243
1110.559, 134.0720
1111.041, 133.4830
1111.523, 133.1567
1112.006, 133.0576
1112.488, 132.9920
1112.970, 132.9570
1113.452, 133.1787
1113.934, 133.7938
1114.416, 134.4571
1114.898, 134.6371
1115.380, 134.8042
1115.863, 135.6268
1116.345, 137.3525
1116.827, 138.1665
1117.309, 137.9499
1117.791, 137.3432
1118.273, 136.2307
1118.755, 135.4209
1119.237, 136.6407
1119.719, 138.9292
1120.202, 140.4285
1120.684, 139.8552
1121.166, 139.8185
1121.648, 140.6125
1122.130, 141.5379
1122.612, 141.9445
1123.094, 142.0602
1123.576, 142.4443
1124.058, 143.1144
1124.541, 144.0976
1125.023, 145.4388
1125.505, 147.1430
1125.987, 149.7770
1126.469, 152.1146
1126.951, 152.0194
1127.433, 149.9692
1127.915, 149.1817
1128.398, 149.9172
1128.880, 150.8702
1129.362, 151.1861
1129.844, 151.5055
1130.326, 152.3582
1130.808, 153.4421
1131.290, 153.8574
1131.772, 153.5973
1132.255, 153.7053
1132.737, 154.4409
1133.219, 155.3352
1133.701, 156.0697
1134.183, 156.7248
1134.665, 157.3276
1135.147, 157.8861
1135.629, 158.7222
1136.111, 159.9688
1136.594, 160.6105
1137.076, 160.0236
1137.558, 159.2475
1138.040, 159.9021
1138.522, 161.0527
1139.004, 161.3561
1139.486, 160.0898
1139.968, 159.6069
1140.450, 160.2291
1140.933, 160.7443
1141.415, 160.3377
1141.897, 159.5352
1142.379, 159.2609
1142.861, 159.3918
1143.343, 159.6502
1143.825, 160.3252
1144.307, 160.4678
1144.790, 159.8035
1145.272, 159.0266
1145.754, 158.7834
1146.236, 158.8841
1146.718, 158.6987
1147.200, 158.2816
1147.682, 157.9275
1148.164, 157.6259
1148.646, 157.6465
1149.129, 158.3222
1149.611, 159.0080
1150.093, 158.7104
1150.575, 157.6578
1151.057, 157.2037
1151.539, 157.4180
1152.021, 157.5857
1152.503, 157.1458
1152.985, 156.7267
1153.468, 156.6978
1153.950, 156.8461
1154.432, 156.6604
1154.914, 156.1799
1155.396, 156.0693
1155.878, 156.4702
1156.360, 156.8712
1156.842, 156.7884
1157.325, 156.6504
1157.807, 156.7632
1158.289, 157.0865
1158.771, 157.4559
1159.253, 157.8637
1159.735, 158.4469
1160.217, 159.3144
1160.699, 160.0748
1161.182, 160.2514
1161.664, 160.2116
1162.146, 160.2587
1162.628, 160.4141
1163.110, 160.9058
1163.592, 161.7980
1164.074, 162.5047
1164.556, 162.6691
1165.038, 162.7982
1165.521, 163.6884
1166.003, 164.8206
1166.485, 165.4374
1166.967, 165.2738
1167.449, 165.2936
1167.931, 165.5113
1168.413, 165.8709
1168.895, 166.6347
1169.377, 167.2246
1169.860, 166.2794
1170.342, 164.6747
1170.824, 164.0445
1171.306, 165.7412
1171.788, 166.6062
1172.270, 166.4619
1172.752, 166.0022
1173.234, 165.5550
1173.717, 165.2470
1174.199, 165.5379
1174.681, 166.1520
1175.163, 166.2883
1175.645, 165.2238
1176.127, 164.3780
1176.609, 163.8495
1177.091, 163.5191
1177.573, 163.3543
1178.056, 163.2664
1178.538, 163.0915
1179.020, 162.8185
1179.502, 162.4324
1179.984, 161.7655
1180.466, 161.2260
1180.948, 160.9326
1181.430, 160.6768
1181.912, 160.1622
1182.395, 159.4754
1182.877, 158.8028
1183.359, 158.1730
1183.841, 157.6858
1184.323, 157.4241
1184.805, 157.3121
1185.287, 157.4968
1185.769, 157.5867
1186.252, 156.6895
1186.734, 155.1596
1187.216, 153.9907
1187.698, 153.3092
1188.180, 153.0595
1188.662, 153.7812
1189.144, 154.2421
1189.626, 153.9732
1190.109, 153.2498
1190.591, 152.6014
1191.073, 152.0400
1191.555, 151.6725
1192.037, 151.5593
1192.519, 151.3586
1193.001, 150.5914
1193.483, 150.0879
1193.965, 150.3425
1194.448, 151.0462
1194.930, 151.2218
1195.412, 150.9448
1195.894, 150.4656
1196.376, 149.7364
1196.858, 149.2537
1197.340, 149.6690
1197.822, 149.9518
1198.304, 149.4878
1198.787, 148.4484
1199.269, 147.5448
1199.751, 146.7965
1200.233, 146.2899
1200.715, 146.1071
1201.197, 146.0307
1201.679, 146.1916
1202.161, 146.1880
1202.644, 145.6649
1203.126, 144.7341
1203.608, 144.1568
1204.090, 143.8895
1204.572, 143.7013
1205.054, 143.7341
1205.536, 143.4152
1206.018, 141.9811
1206.500, 140.5184
1206.983, 139.9566
1207.465, 140.1971
1207.947, 140.3423
1208.429, 140.3472
1208.911, 139.9207
1209.393, 138.3200
1209.875, 137.0255
1210.357, 137.0239
1210.839, 137.3576
1211.322, 137.2749
1211.804, 136.7929
1212.286, 136.0919
1212.768, 135.2181
1213.250, 134.5528
1213.732, 134.4970
1214.214, 134.4473
1214.696, 134.0757
1215.179, 133.6513
1215.661, 133.4704
1216.143, 133.5059
1216.625, 133.5338
1217.107, 133.5273
1217.589, 133.3240
1218.071, 132.7108
1218.553, 132.0229
1219.036, 131.2746
1219.518, 130.6245
1220.000, 130.2516
1220.482, 130.1494
1220.964, 130.3443
1221.446, 130.7991
1221.928, 131.1404
1222.410, 131.1637
1222.892, 131.0204
1223.375, 130.7450
1223.857, 130.3651
1224.339, 129.8967
1224.821, 129.3467
1225.303, 128.6658
1225.785, 127.8821
1226.267, 127.4336
1226.749, 128.1704
1227.231, 128.4662
1227.714, 127.4762
1228.196, 126.1588
1228.678, 126.1838
1229.160, 127.1908
1229.642, 127.7094
1230.124, 127.6187
1230.606, 127.5662
1231.088, 127.9519
1231.571, 128.3341
1232.053, 128.6394
1232.535, 128.7891
1233.017, 128.5811
1233.499, 128.1169
1233.981, 127.7187
1234.463, 127.4209
1234.945, 127.0832
1235.427, 126.4123
1235.910, 126.0587
1236.392, 126.3760
1236.874, 126.8302
1237.356, 126.2227
1237.838, 125.0608
1238.320, 124.6919
1238.802, 125.2960
1239.284, 125.8483
1239.766, 125.9844
1240.249, 126.0354
1240.731, 126.0597
1241.213, 126.0664
1241.695, 126.0314
1242.177, 126.0011
1242.659, 126.1271
1243.141, 126.4377
1243.623, 126.5337
1244.106, 126.0917
1244.588, 125.9198
1245.070, 126.3122
1245.552, 126.9074
1246.034, 127.2091
1246.516, 127.2786
1246.998, 127.1437
1247.480, 126.7905
1247.963, 126.7485
1248.445, 127.2595
1248.927, 127.5021
1249.409, 127.1256
1249.891, 126.6668
1250.373, 127.2655
1250.855, 128.0845
1251.337, 127.7120
1251.819, 125.8555
1252.302, 125.3705
1252.784, 126.7598
1253.266, 127.8329
1253.748, 127.8714
1254.230, 127.4698
1254.712, 127.1843
1255.194, 126.9889
1255.676, 126.8468
1256.158, 126.7571
1256.641, 126.8210
1257.123, 127.0873
1257.605, 127.0709
1258.087, 126.4935
1258.569, 126.0069
1259.051, 126.4600
1259.533, 127.2050
1260.015, 127.6309
1260.498, 127.7288
1260.980, 127.5598
1261.462, 127.1198
1261.944, 126.9519
1262.426, 127.3103
1262.908, 127.6557
1263.390, 127.3073
1263.872, 126.9863
1264.354, 127.4052
1264.837, 128.3841
1265.319, 128.7445
1265.801, 128.5450
1266.283, 128.3038
1266.765, 128.1496
1267.247, 128.0806
1267.729, 128.2481
1268.211, 128.3398
1268.693, 128.1536
1269.176, 127.7631
1269.658, 127.3471
1270.140, 126.9594
1270.622, 126.8139
1271.104, 126.9508
1271.586, 127.4076
1272.068, 128.7876
1272.550, 129.7672
1273.033, 129.6525
1273.515, 128.9072
1273.997, 128.6289
1274.479, 128.7181
1274.961, 129.0002
1275.443, 129.5410
1275.925, 129.6999
1276.407, 129.2176
1276.890, 128.6210
1277.372, 128.0093
1277.854, 127.5534
1278.336, 127.6906
1278.818, 128.1557
1279.300, 128.4929
1279.782, 128.5937
1280.264, 128.7313
1280.746, 128.9919
1281.229, 129.0368
1281.711, 128.6733
1282.193, 128.1970
1282.675, 128.0727
1283.157, 128.0353
1283.639, 127.6470
1284.121, 126.8275
1284.603, 126.6101
1285.085, 127.0895
1285.568, 127.2365
1286.050, 126.5523
1286.532, 125.9078
1287.014, 126.4764
1287.496, 127.2014
1287.978, 126.9354
1288.460, 125.8538
1288.942, 125.4030
1289.425, 125.5406
1289.907, 125.5009
1290.389, 124.9717
1290.871, 124.6113
1291.353, 124.9298
1291.835, 125.5105
1292.317, 126.2483
1292.799, 126.9476
1293.281, 126.6453
1293.764, 125.6444
1294.246, 125.2044
1294.728, 125.7240
1295.210, 126.1883
1295.692, 126.2408
1296.174, 126.0441
1296.656, 125.5475
1297.138, 124.9608
1297.620, 124.6528
1298.103, 124.6238
1298.585, 125.0145
1299.067, 125.9403
1299.549, 126.3246
1300.031, 125.8391
1300.513, 125.4371
1300.995, 125.3975
1301.477, 125.4764
1301.960, 125.5305
1302.442, 125.4343
1302.924, 124.8787
1303.406, 123.8257
1303.888, 123.3076
1304.370, 123.3468
1304.852, 123.6398
1305.334, 123.9779
##END=



