##NAMES=Inesite
##RRUFFID=R070456
##IDEAL CHEMISTRY=Ca_2_Mn^2+^_7_Si_10_O_28_(OH)_2_&#183;5H_2_O
##LOCALITY=Fengjiashan mine (Daye Copper mine), Daye County, Huangshi Prefecture, Hubei Province, China
##OWNER=RRUFF
##SOURCE=Michael Scott
##DESCRIPTION=Fan-shaped cluster of pink laths associated with quartz and brown platy hubeite
##STATUS=The identification of this mineral is confirmed by single-crystal X-ray diffraction and chemical analysis.
##URL=rruff.info/R070456
##MEASURED CHEMISTRY=Ca_2.00_(Mn^2+^_6.03_Fe^2+^_0.93_Mg_0.04_)_Σ=7_Si_10.00_O_28_(OH)_2_·5H_2_O; (OH) estimated by charge balance; H_2_O by difference
127.1851, 1488.356
127.6672, 1555.129
128.1493, 1625.483
128.6314, 1695.801
129.1135, 1767.064
129.5956, 1829.512
130.0778, 1875.851
130.5599, 1921.586
131.0420, 1974.775
131.5241, 2033.759
132.0062, 2092.157
132.4883, 2146.622
132.9705, 2202.080
133.4526, 2219.448
133.9347, 2171.688
134.4168, 2116.088
134.8989, 2084.060
135.3810, 2076.658
135.8632, 2076.344
136.3453, 2065.030
136.8274, 2039.016
137.3095, 2018.292
137.7916, 2002.731
138.2737, 1991.991
138.7559, 1984.408
139.2380, 1980.230
139.7201, 1983.417
140.2022, 1999.129
140.6843, 2030.942
141.1664, 2063.965
141.6486, 2096.543
142.1307, 2130.927
142.6128, 2169.141
143.0949, 2211.574
143.5770, 2257.011
144.0591, 2305.134
144.5413, 2356.191
145.0234, 2406.685
145.5055, 2454.513
145.9876, 2502.174
146.4697, 2553.728
146.9518, 2610.847
147.4340, 2668.186
147.9161, 2718.289
148.3982, 2761.816
148.8803, 2805.545
149.3624, 2857.913
149.8445, 2910.553
150.3266, 2949.982
150.8088, 2974.334
151.2909, 2983.703
151.7730, 2970.543
152.2551, 2937.821
152.7372, 2910.788
153.2193, 2903.174
153.7015, 2908.167
154.1836, 2910.779
154.6657, 2909.615
155.1478, 2903.281
155.6299, 2886.671
156.1120, 2861.501
156.5942, 2842.277
157.0763, 2841.059
157.5584, 2852.483
158.0405, 2856.951
158.5226, 2846.763
159.0047, 2836.183
159.4869, 2837.833
159.9690, 2850.152
160.4511, 2863.411
160.9332, 2866.282
161.4153, 2856.411
161.8974, 2846.963
162.3796, 2861.946
162.8617, 2880.493
163.3438, 2890.951
163.8259, 2893.424
164.3080, 2889.016
164.7901, 2877.008
165.2723, 2858.175
165.7544, 2838.617
166.2365, 2819.386
166.7186, 2799.248
167.2007, 2776.338
167.6828, 2751.754
168.1650, 2729.569
168.6471, 2715.440
169.1292, 2709.017
169.6113, 2696.128
170.0934, 2669.542
170.5755, 2643.531
171.0577, 2625.831
171.5398, 2615.168
172.0219, 2605.315
172.5040, 2590.978
172.9861, 2571.982
173.4682, 2553.391
173.9504, 2526.092
174.4325, 2508.259
174.9146, 2512.288
175.3967, 2533.735
175.8788, 2557.213
176.3609, 2570.175
176.8431, 2572.113
177.3252, 2572.194
177.8073, 2562.964
178.2894, 2558.663
178.7715, 2570.302
179.2536, 2592.810
179.7358, 2610.669
180.2179, 2608.069
180.7000, 2583.338
181.1821, 2567.226
181.6642, 2569.216
182.1463, 2571.911
182.6285, 2571.824
183.1106, 2567.985
183.5927, 2559.296
184.0748, 2542.720
184.5569, 2517.563
185.0390, 2502.392
185.5212, 2509.466
186.0033, 2515.947
186.4854, 2515.529
186.9675, 2508.917
187.4496, 2499.505
187.9317, 2489.587
188.4139, 2479.215
188.8960, 2468.578
189.3781, 2456.434
189.8602, 2445.241
190.3423, 2436.439
190.8244, 2429.167
191.3066, 2420.620
191.7887, 2407.232
192.2708, 2389.382
192.7529, 2385.033
193.2350, 2415.204
193.7171, 2438.536
194.1993, 2440.691
194.6814, 2428.643
195.1635, 2416.677
195.6456, 2414.778
196.1277, 2422.147
196.6098, 2427.658
197.0920, 2431.884
197.5741, 2433.497
198.0562, 2428.120
198.5383, 2420.383
199.0204, 2418.820
199.5025, 2429.724
199.9847, 2450.529
200.4668, 2461.798
200.9489, 2446.653
201.4310, 2439.489
201.9131, 2447.145
202.3952, 2465.913
202.8774, 2490.808
203.3595, 2519.365
203.8416, 2550.586
204.3237, 2579.608
204.8058, 2609.230
205.2879, 2632.626
205.7701, 2646.002
206.2522, 2653.549
206.7343, 2658.785
207.2164, 2663.108
207.6985, 2669.097
208.1806, 2685.700
208.6628, 2725.226
209.1449, 2760.429
209.6270, 2787.868
210.1091, 2810.290
210.5912, 2829.528
211.0733, 2846.414
211.5555, 2863.004
212.0376, 2885.421
212.5197, 2928.532
213.0018, 2955.350
213.4839, 2949.001
213.9660, 2933.988
214.4482, 2934.875
214.9303, 2959.330
215.4124, 2995.039
215.8945, 3018.305
216.3766, 3024.049
216.8587, 3024.231
217.3409, 3018.911
217.8230, 3009.125
218.3051, 2995.588
218.7872, 2978.538
219.2693, 2957.859
219.7514, 2932.345
220.2336, 2895.948
220.7157, 2868.326
221.1978, 2855.964
221.6799, 2846.091
222.1620, 2831.792
222.6441, 2811.394
223.1263, 2785.831
223.6084, 2754.895
224.0905, 2713.583
224.5726, 2683.663
225.0547, 2677.456
225.5368, 2670.119
226.0190, 2643.098
226.5011, 2599.989
226.9832, 2561.129
227.4653, 2549.534
227.9474, 2571.773
228.4296, 2575.151
228.9117, 2539.501
229.3938, 2505.341
229.8759, 2490.939
230.3580, 2492.035
230.8401, 2492.815
231.3223, 2479.183
231.8044, 2451.012
232.2865, 2437.065
232.7686, 2453.586
233.2507, 2468.451
233.7328, 2473.690
234.2150, 2471.457
234.6971, 2466.269
235.1792, 2460.319
235.6613, 2454.455
236.1434, 2454.670
236.6255, 2468.608
237.1077, 2479.938
237.5898, 2482.025
238.0719, 2480.952
238.5540, 2485.223
239.0361, 2499.341
239.5182, 2520.128
240.0004, 2537.937
240.4825, 2551.365
240.9646, 2563.622
241.4467, 2580.790
241.9288, 2594.663
242.4109, 2592.677
242.8931, 2570.548
243.3752, 2543.498
243.8573, 2543.159
244.3394, 2587.962
244.8215, 2618.786
245.3036, 2621.432
245.7858, 2615.651
246.2679, 2616.345
246.7500, 2626.338
247.2321, 2636.893
247.7142, 2633.740
248.1963, 2609.661
248.6785, 2598.241
249.1606, 2610.693
249.6427, 2628.577
250.1248, 2646.045
250.6069, 2661.043
251.0890, 2671.465
251.5712, 2674.611
252.0533, 2669.995
252.5354, 2663.578
253.0175, 2651.513
253.4996, 2641.396
253.9817, 2638.418
254.4639, 2640.266
254.9460, 2640.390
255.4281, 2632.883
255.9102, 2619.169
256.3923, 2610.534
256.8744, 2611.346
257.3565, 2610.882
257.8387, 2602.913
258.3208, 2591.344
258.8029, 2583.566
259.2850, 2585.837
259.7671, 2591.525
260.2492, 2581.996
260.7314, 2549.270
261.2135, 2520.944
261.6956, 2508.124
262.1777, 2504.305
262.6598, 2503.570
263.1419, 2504.384
263.6241, 2506.795
264.1062, 2513.283
264.5883, 2525.712
265.0704, 2530.206
265.5525, 2512.967
266.0346, 2491.730
266.5168, 2480.656
266.9989, 2482.034
267.4810, 2490.461
267.9631, 2504.052
268.4452, 2522.243
268.9273, 2537.127
269.4095, 2545.644
269.8916, 2551.882
270.3737, 2558.888
270.8558, 2566.760
271.3379, 2576.912
271.8200, 2591.328
272.3022, 2608.729
272.7843, 2623.757
273.2664, 2632.660
273.7485, 2646.607
274.2306, 2682.725
274.7127, 2733.693
275.1949, 2774.211
275.6770, 2790.542
276.1591, 2794.640
276.6412, 2799.575
277.1233, 2805.339
277.6054, 2818.123
278.0876, 2847.615
278.5697, 2887.237
279.0518, 2916.503
279.5339, 2921.193
280.0160, 2926.367
280.4981, 2955.685
280.9803, 3004.810
281.4624, 3048.078
281.9445, 3073.121
282.4266, 3084.187
282.9087, 3093.086
283.3908, 3099.180
283.8730, 3104.681
284.3551, 3112.466
284.8372, 3120.058
285.3193, 3120.278
285.8014, 3109.051
286.2835, 3096.752
286.7657, 3103.431
287.2478, 3137.985
287.7299, 3160.614
288.2120, 3153.199
288.6941, 3138.146
289.1762, 3140.713
289.6584, 3164.409
290.1405, 3192.098
290.6226, 3205.756
291.1047, 3202.042
291.5868, 3202.701
292.0689, 3211.370
292.5511, 3220.791
293.0332, 3229.762
293.5153, 3236.465
293.9974, 3235.480
294.4795, 3221.370
294.9616, 3196.109
295.4438, 3183.911
295.9259, 3196.202
296.4080, 3207.542
296.8901, 3216.101
297.3722, 3219.239
297.8543, 3213.950
298.3365, 3198.870
298.8186, 3174.420
299.3007, 3141.291
299.7828, 3092.112
300.2649, 3045.249
300.7470, 2998.108
301.2292, 2955.576
301.7113, 2925.478
302.1934, 2907.728
302.6755, 2891.190
303.1576, 2861.188
303.6397, 2814.434
304.1219, 2766.872
304.6040, 2709.702
305.0861, 2659.792
305.5682, 2627.668
306.0503, 2610.219
306.5324, 2595.916
307.0146, 2575.613
307.4967, 2550.681
307.9788, 2532.031
308.4609, 2523.258
308.9430, 2515.973
309.4251, 2504.581
309.9073, 2493.279
310.3894, 2489.650
310.8715, 2499.457
311.3536, 2512.721
311.8357, 2509.456
312.3178, 2484.988
312.8000, 2464.559
313.2821, 2456.200
313.7642, 2455.784
314.2463, 2462.260
314.7284, 2476.073
315.2105, 2490.165
315.6927, 2496.417
316.1748, 2496.622
316.6569, 2503.862
317.1390, 2524.592
317.6211, 2546.724
318.1032, 2559.315
318.5854, 2563.195
319.0675, 2562.796
319.5496, 2553.980
320.0317, 2544.054
320.5138, 2545.931
320.9959, 2561.428
321.4781, 2578.730
321.9602, 2591.918
322.4423, 2599.552
322.9244, 2598.364
323.4065, 2576.905
323.8886, 2556.702
324.3708, 2556.213
324.8529, 2568.991
325.3350, 2572.944
325.8171, 2556.690
326.2992, 2527.419
326.7813, 2502.668
327.2635, 2479.593
327.7456, 2465.022
328.2277, 2467.531
328.7098, 2476.029
329.1919, 2476.055
329.6740, 2464.708
330.1562, 2452.413
330.6383, 2452.435
331.1204, 2468.940
331.6025, 2482.507
332.0846, 2494.646
332.5667, 2503.063
333.0489, 2503.155
333.5310, 2498.098
334.0131, 2496.863
334.4952, 2506.590
334.9773, 2525.333
335.4594, 2537.884
335.9416, 2534.868
336.4237, 2536.954
336.9058, 2548.298
337.3879, 2565.827
337.8700, 2587.317
338.3521, 2611.952
338.8343, 2636.692
339.3164, 2655.589
339.7985, 2665.940
340.2806, 2679.437
340.7627, 2697.408
341.2448, 2718.933
341.7270, 2745.400
342.2091, 2775.811
342.6912, 2805.504
343.1733, 2831.864
343.6554, 2854.621
344.1375, 2870.697
344.6197, 2876.061
345.1018, 2881.998
345.5839, 2898.497
346.0660, 2919.256
346.5481, 2932.693
347.0302, 2930.550
347.5124, 2924.952
347.9945, 2937.115
348.4766, 2966.428
348.9587, 2976.391
349.4408, 2944.553
349.9229, 2891.788
350.4051, 2853.619
350.8872, 2832.931
351.3693, 2814.723
351.8514, 2794.345
352.3335, 2771.814
352.8156, 2746.159
353.2978, 2717.048
353.7799, 2687.924
354.2620, 2663.037
354.7441, 2643.228
355.2262, 2619.696
355.7083, 2586.847
356.1905, 2555.042
356.6726, 2533.143
357.1547, 2518.186
357.6368, 2499.063
358.1189, 2467.809
358.6010, 2429.558
359.0832, 2406.086
359.5653, 2417.313
360.0474, 2419.104
360.5295, 2399.032
361.0116, 2372.557
361.4937, 2356.288
361.9759, 2353.954
362.4580, 2355.936
362.9401, 2348.539
363.4222, 2327.571
363.9043, 2313.683
364.3864, 2311.463
364.8686, 2312.077
365.3507, 2315.531
365.8328, 2319.169
366.3149, 2317.252
366.7970, 2303.835
367.2791, 2284.237
367.7613, 2276.444
368.2434, 2286.040
368.7255, 2293.432
369.2076, 2286.462
369.6897, 2276.754
370.1718, 2277.375
370.6540, 2292.523
371.1361, 2306.630
371.6182, 2299.950
372.1003, 2277.711
372.5824, 2272.866
373.0645, 2299.936
373.5467, 2330.235
374.0288, 2331.127
374.5109, 2307.889
374.9930, 2289.103
375.4751, 2282.664
375.9572, 2283.519
376.4394, 2291.103
376.9215, 2303.690
377.4036, 2307.695
377.8857, 2291.401
378.3678, 2262.408
378.8499, 2253.368
379.3321, 2282.044
379.8142, 2303.137
380.2963, 2302.050
380.7784, 2289.704
381.2605, 2278.567
381.7426, 2272.218
382.2248, 2268.563
382.7069, 2265.427
383.1890, 2263.958
383.6711, 2258.225
384.1532, 2248.755
384.6353, 2235.218
385.1175, 2213.163
385.5996, 2187.107
386.0817, 2165.657
386.5638, 2154.165
387.0459, 2151.038
387.5280, 2153.625
388.0102, 2171.502
388.4923, 2173.932
388.9744, 2143.626
389.4565, 2103.160
389.9386, 2066.725
390.4207, 2037.429
390.9029, 2018.924
391.3850, 2020.757
391.8671, 2038.937
392.3492, 2048.483
392.8313, 2047.620
393.3134, 2036.786
393.7956, 2010.066
394.2777, 1973.518
394.7598, 1941.840
395.2419, 1920.060
395.7240, 1903.486
396.2061, 1886.884
396.6883, 1871.334
397.1704, 1862.803
397.6525, 1865.121
398.1346, 1873.837
398.6167, 1880.352
399.0988, 1884.654
399.5810, 1887.393
400.0631, 1887.649
400.5452, 1887.019
401.0273, 1885.602
401.5094, 1884.170
401.9915, 1886.225
402.4737, 1895.617
402.9558, 1912.108
403.4379, 1923.655
403.9200, 1928.992
404.4021, 1930.585
404.8842, 1921.498
405.3664, 1911.709
405.8485, 1916.468
406.3306, 1940.867
406.8127, 1970.303
407.2948, 1980.741
407.7769, 1967.782
408.2591, 1957.818
408.7412, 1952.929
409.2233, 1951.836
409.7054, 1955.340
410.1875, 1962.274
410.6696, 1969.437
411.1518, 1979.505
411.6339, 1986.417
412.1160, 1973.525
412.5981, 1938.236
413.0802, 1912.057
413.5623, 1913.481
414.0445, 1930.573
414.5266, 1940.299
415.0087, 1941.080
415.4908, 1939.673
415.9729, 1928.899
416.4550, 1921.225
416.9372, 1943.116
417.4193, 1998.500
417.9014, 2052.231
418.3835, 2069.485
418.8656, 2047.908
419.3477, 2041.960
419.8299, 2063.658
420.3120, 2085.113
420.7941, 2096.427
421.2762, 2101.329
421.7583, 2104.447
422.2404, 2107.817
422.7226, 2115.298
423.2047, 2137.534
423.6868, 2187.827
424.1689, 2215.967
424.6510, 2199.510
425.1331, 2179.521
425.6153, 2176.462
426.0974, 2187.059
426.5795, 2196.868
427.0616, 2198.260
427.5437, 2192.075
428.0258, 2177.609
428.5080, 2151.853
428.9901, 2132.418
429.4722, 2132.786
429.9543, 2138.826
430.4364, 2131.802
430.9185, 2108.531
431.4007, 2085.174
431.8828, 2067.932
432.3649, 2056.364
432.8470, 2052.428
433.3291, 2056.415
433.8112, 2058.326
434.2934, 2049.390
434.7755, 2030.168
435.2576, 2012.451
435.7397, 2001.349
436.2218, 1985.748
436.7039, 1956.445
437.1861, 1922.567
437.6682, 1897.545
438.1503, 1885.627
438.6324, 1879.211
439.1145, 1866.491
439.5966, 1843.857
440.0788, 1829.196
440.5609, 1828.033
441.0430, 1829.839
441.5251, 1833.786
442.0072, 1837.616
442.4893, 1836.821
442.9715, 1827.427
443.4536, 1815.981
443.9357, 1815.321
444.4178, 1826.651
444.8999, 1835.284
445.3820, 1836.435
445.8642, 1833.946
446.3463, 1832.308
446.8284, 1831.481
447.3105, 1829.275
447.7926, 1826.504
448.2747, 1820.979
448.7569, 1807.456
449.2390, 1786.964
449.7211, 1769.904
450.2032, 1763.425
450.6853, 1764.127
451.1674, 1759.239
451.6496, 1744.892
452.1317, 1730.543
452.6138, 1717.566
453.0959, 1704.700
453.5780, 1690.645
454.0602, 1675.359
454.5423, 1659.645
455.0244, 1643.531
455.5065, 1627.296
455.9886, 1616.495
456.4707, 1616.390
456.9529, 1613.823
457.4349, 1603.161
457.9171, 1589.352
458.3992, 1578.436
458.8813, 1572.162
459.3634, 1565.450
459.8455, 1550.177
460.3276, 1529.329
460.8098, 1518.916
461.2919, 1523.613
461.7740, 1531.435
462.2561, 1533.960
462.7382, 1531.632
463.2203, 1526.539
463.7025, 1513.917
464.1846, 1503.649
464.6667, 1502.830
465.1488, 1507.797
465.6309, 1512.010
466.1130, 1513.328
466.5952, 1512.097
467.0773, 1508.896
467.5594, 1504.160
468.0415, 1495.666
468.5236, 1472.132
469.0057, 1456.945
469.4879, 1469.739
469.9700, 1495.624
470.4521, 1505.785
470.9342, 1484.999
471.4163, 1452.006
471.8984, 1442.101
472.3806, 1458.790
472.8627, 1469.905
473.3448, 1465.033
473.8269, 1458.393
474.3090, 1464.299
474.7911, 1479.320
475.2733, 1486.600
475.7554, 1473.620
476.2375, 1454.335
476.7196, 1443.631
477.2017, 1440.189
477.6838, 1434.551
478.1660, 1420.795
478.6481, 1407.525
479.1302, 1412.309
479.6123, 1448.664
480.0944, 1471.568
480.5765, 1471.940
481.0587, 1465.843
481.5408, 1460.889
482.0229, 1458.622
482.5050, 1459.819
482.9871, 1465.251
483.4692, 1473.427
483.9514, 1480.176
484.4335, 1485.392
484.9156, 1489.411
485.3977, 1492.876
485.8798, 1494.672
486.3619, 1491.183
486.8441, 1483.985
487.3262, 1482.165
487.8083, 1497.423
488.2904, 1518.345
488.7725, 1525.344
489.2546, 1518.455
489.7368, 1507.221
490.2189, 1492.955
490.7010, 1480.176
491.1831, 1480.974
491.6652, 1502.715
492.1473, 1514.308
492.6295, 1503.164
493.1116, 1486.136
493.5937, 1476.301
494.0758, 1473.611
494.5579, 1470.948
495.0400, 1463.143
495.5222, 1452.899
496.0043, 1451.385
496.4864, 1466.008
496.9685, 1474.181
497.4506, 1466.864
497.9327, 1457.053
498.4149, 1455.273
498.8970, 1460.580
499.3791, 1462.451
499.8612, 1450.789
500.3433, 1432.427
500.8254, 1419.746
501.3076, 1412.737
501.7897, 1412.157
502.2718, 1420.579
502.7539, 1433.596
503.2360, 1443.455
503.7181, 1451.153
504.2003, 1453.154
504.6824, 1440.905
505.1645, 1428.515
505.6466, 1430.234
506.1287, 1443.572
506.6108, 1456.247
507.0930, 1460.799
507.5751, 1458.235
508.0572, 1450.974
508.5393, 1434.771
509.0214, 1422.900
509.5035, 1417.685
509.9857, 1416.130
510.4678, 1416.644
510.9499, 1419.182
511.4320, 1424.554
511.9141, 1436.544
512.3962, 1449.493
512.8784, 1451.380
513.3605, 1442.438
513.8426, 1436.207
514.3247, 1438.354
514.8068, 1444.755
515.2889, 1449.124
515.7711, 1451.394
516.2532, 1452.846
516.7353, 1452.137
517.2174, 1451.969
517.6995, 1455.989
518.1816, 1462.156
518.6638, 1465.018
519.1459, 1461.649
519.6280, 1454.210
520.1101, 1446.376
520.5922, 1436.170
521.0743, 1431.479
521.5565, 1441.338
522.0386, 1449.067
522.5207, 1444.823
523.0028, 1431.951
523.4849, 1419.795
523.9670, 1411.486
524.4492, 1406.875
524.9313, 1405.660
525.4134, 1407.968
525.8955, 1416.714
526.3776, 1435.384
526.8597, 1451.623
527.3419, 1447.956
527.8240, 1420.092
528.3061, 1408.037
528.7882, 1429.844
529.2703, 1447.838
529.7524, 1439.688
530.2346, 1418.855
530.7167, 1408.494
531.1988, 1416.231
531.6809, 1430.264
532.1630, 1434.843
532.6451, 1429.182
533.1273, 1421.930
533.6094, 1411.919
534.0915, 1402.068
534.5736, 1392.099
535.0557, 1383.600
535.5378, 1379.042
536.0200, 1378.921
536.5021, 1382.871
536.9842, 1395.079
537.4663, 1410.051
537.9484, 1415.108
538.4305, 1408.393
538.9127, 1401.843
539.3948, 1405.786
539.8769, 1418.457
540.3590, 1424.443
540.8411, 1417.239
541.3232, 1411.826
541.8054, 1411.160
542.2875, 1412.063
542.7696, 1414.088
543.2517, 1415.619
543.7338, 1411.337
544.2159, 1394.953
544.6981, 1370.405
545.1802, 1351.210
545.6623, 1338.866
546.1444, 1323.656
546.6265, 1297.766
547.1086, 1271.191
547.5908, 1258.039
548.0729, 1259.171
548.5550, 1260.711
549.0371, 1257.390
549.5192, 1254.191
550.0013, 1256.136
550.4835, 1261.929
550.9656, 1266.928
551.4477, 1268.899
551.9298, 1269.456
552.4119, 1272.363
552.8940, 1280.322
553.3762, 1282.914
553.8583, 1276.223
554.3404, 1267.674
554.8225, 1257.411
555.3046, 1247.789
555.7867, 1243.295
556.2689, 1246.816
556.7510, 1252.088
557.2331, 1254.513
557.7152, 1253.643
558.1973, 1245.847
558.6794, 1229.240
559.1616, 1214.815
559.6437, 1213.362
560.1258, 1223.434
560.6079, 1225.381
561.0900, 1212.258
561.5721, 1201.258
562.0543, 1194.677
562.5364, 1192.636
563.0185, 1198.561
563.5006, 1210.551
563.9827, 1218.491
564.4648, 1211.695
564.9470, 1194.891
565.4291, 1187.570
565.9112, 1191.952
566.3933, 1196.505
566.8754, 1199.331
567.3575, 1198.909
567.8397, 1191.569
568.3218, 1177.040
568.8039, 1168.103
569.2860, 1174.448
569.7681, 1182.718
570.2502, 1179.552
570.7324, 1169.360
571.2145, 1166.272
571.6966, 1176.206
572.1787, 1190.563
572.6608, 1194.286
573.1429, 1183.224
573.6251, 1180.767
574.1072, 1197.093
574.5893, 1210.356
575.0714, 1208.578
575.5535, 1200.663
576.0356, 1201.063
576.5178, 1215.242
576.9999, 1228.181
577.4820, 1224.101
577.9641, 1211.200
578.4462, 1209.824
578.9283, 1222.025
579.4105, 1229.831
579.8926, 1219.437
580.3747, 1197.313
580.8568, 1187.344
581.3389, 1195.782
581.8210, 1208.800
582.3032, 1238.261
582.7853, 1262.173
583.2674, 1260.506
583.7495, 1239.793
584.2316, 1221.418
584.7137, 1217.117
585.1959, 1222.328
585.6780, 1229.870
586.1601, 1239.759
586.6422, 1256.132
587.1243, 1284.640
587.6064, 1308.258
588.0886, 1307.260
588.5707, 1284.079
589.0528, 1271.958
589.5349, 1275.323
590.0170, 1285.399
590.4991, 1307.292
590.9813, 1329.880
591.4634, 1337.002
591.9455, 1328.100
592.4276, 1319.369
592.9097, 1326.033
593.3918, 1344.676
593.8740, 1357.366
594.3561, 1360.540
594.8382, 1370.171
595.3203, 1396.262
595.8024, 1426.365
596.2845, 1448.671
596.7667, 1463.399
597.2488, 1473.493
597.7309, 1473.906
598.2130, 1475.422
598.6951, 1489.982
599.1772, 1511.442
599.6594, 1524.087
600.1415, 1522.956
600.6236, 1519.172
601.1057, 1527.767
601.5878, 1549.770
602.0699, 1566.068
602.5521, 1573.681
603.0342, 1579.960
603.5163, 1587.386
603.9984, 1594.674
604.4805, 1600.548
604.9626, 1604.808
605.4448, 1608.123
605.9269, 1609.941
606.4090, 1611.591
606.8911, 1614.712
607.3732, 1619.270
607.8553, 1625.175
608.3375, 1632.649
608.8196, 1639.739
609.3017, 1642.902
609.7838, 1641.152
610.2659, 1638.805
610.7480, 1629.742
611.2302, 1626.850
611.7123, 1639.598
612.1944, 1659.139
612.6765, 1672.635
613.1586, 1676.331
613.6407, 1677.631
614.1229, 1680.914
614.6050, 1686.427
615.0871, 1695.009
615.5692, 1706.654
616.0513, 1721.362
616.5334, 1740.931
617.0156, 1759.932
617.4977, 1763.901
617.9798, 1736.191
618.4619, 1728.230
618.9440, 1751.370
619.4261, 1781.031
619.9083, 1808.437
620.3904, 1832.776
620.8725, 1854.025
621.3546, 1871.622
621.8367, 1889.482
622.3188, 1912.266
622.8010, 1938.623
623.2831, 1963.649
623.7652, 1986.670
624.2473, 2010.651
624.7294, 2037.380
625.2115, 2066.629
625.6937, 2098.367
626.1758, 2137.547
626.6579, 2171.024
627.1400, 2190.763
627.6221, 2212.090
628.1042, 2245.605
628.5864, 2287.987
629.0685, 2328.622
629.5506, 2362.092
630.0327, 2399.080
630.5148, 2456.225
630.9969, 2529.845
631.4791, 2599.430
631.9612, 2661.826
632.4433, 2724.822
632.9254, 2794.195
633.4075, 2867.572
633.8896, 2935.893
634.3718, 2989.997
634.8539, 3054.402
635.3360, 3131.157
635.8181, 3218.086
636.3002, 3315.716
636.7823, 3422.131
637.2645, 3533.163
637.7466, 3646.445
638.2287, 3765.775
638.7108, 3898.390
639.1929, 4042.566
639.6750, 4182.118
640.1572, 4314.609
640.6393, 4450.494
641.1214, 4595.361
641.6035, 4750.005
642.0856, 4915.656
642.5677, 5100.162
643.0499, 5283.132
643.5320, 5463.781
644.0141, 5641.719
644.4962, 5813.250
644.9783, 5981.659
645.4604, 6152.811
645.9426, 6328.880
646.4247, 6508.435
646.9068, 6694.253
647.3889, 6882.837
647.8710, 7058.313
648.3531, 7218.728
648.8353, 7359.208
649.3174, 7474.522
649.7995, 7567.979
650.2816, 7652.656
650.7637, 7729.438
651.2458, 7795.279
651.7280, 7867.018
652.2101, 7911.627
652.6922, 7903.629
653.1743, 7853.071
653.6564, 7786.451
654.1385, 7716.126
654.6207, 7624.989
655.1028, 7485.971
655.5849, 7307.469
656.0670, 7121.416
656.5491, 6930.513
657.0313, 6747.403
657.5134, 6584.501
657.9955, 6430.034
658.4776, 6253.768
658.9597, 6039.772
659.4418, 5833.142
659.9240, 5629.469
660.4061, 5436.752
660.8882, 5260.373
661.3703, 5097.822
661.8524, 4944.284
662.3345, 4799.569
662.8167, 4656.707
663.2988, 4504.539
663.7809, 4351.624
664.2630, 4220.589
664.7451, 4113.223
665.2272, 4013.964
665.7094, 3914.910
666.1915, 3820.079
666.6736, 3737.690
667.1557, 3669.563
667.6378, 3609.300
668.1199, 3563.942
668.6021, 3518.078
669.0842, 3463.623
669.5663, 3406.508
670.0484, 3354.778
670.5305, 3310.517
671.0126, 3270.215
671.4948, 3229.200
671.9769, 3191.426
672.4590, 3162.664
672.9411, 3142.882
673.4232, 3131.166
673.9053, 3127.701
674.3875, 3128.551
674.8696, 3128.351
675.3517, 3127.414
675.8338, 3123.186
676.3159, 3109.558
676.7980, 3101.210
677.2802, 3101.785
677.7623, 3109.380
678.2444, 3125.226
678.7265, 3148.728
679.2086, 3167.429
679.6907, 3170.745
680.1729, 3170.523
680.6550, 3179.695
681.1371, 3194.423
681.6192, 3203.625
682.1013, 3204.229
682.5834, 3203.699
683.0656, 3211.065
683.5477, 3225.007
684.0298, 3229.160
684.5119, 3219.355
684.9940, 3210.392
685.4761, 3210.418
685.9583, 3208.483
686.4404, 3191.881
686.9225, 3163.119
687.4046, 3140.805
687.8867, 3145.347
688.3688, 3138.782
688.8510, 3090.917
689.3331, 3026.041
689.8152, 2978.319
690.2973, 2950.080
690.7794, 2919.283
691.2615, 2869.344
691.7437, 2806.343
692.2258, 2745.127
692.7079, 2685.642
693.1900, 2628.214
693.6721, 2574.909
694.1542, 2518.906
694.6364, 2452.253
695.1185, 2378.422
695.6006, 2311.458
696.0827, 2256.992
696.5648, 2201.014
697.0469, 2134.118
697.5291, 2071.236
698.0112, 2023.555
698.4933, 1989.246
698.9754, 1962.960
699.4575, 1943.393
699.9396, 1922.566
700.4218, 1886.692
700.9039, 1841.761
701.3860, 1809.756
701.8681, 1792.693
702.3502, 1777.875
702.8323, 1758.631
703.3145, 1737.567
703.7966, 1719.624
704.2787, 1702.704
704.7608, 1695.620
705.2429, 1709.865
705.7250, 1720.648
706.2072, 1714.004
706.6893, 1702.307
707.1714, 1702.863
707.6535, 1718.670
708.1356, 1733.454
708.6177, 1739.294
709.0999, 1738.268
709.5820, 1729.129
710.0641, 1715.173
710.5462, 1705.356
711.0283, 1702.407
711.5104, 1702.936
711.9926, 1703.509
712.4747, 1704.100
712.9568, 1704.674
713.4389, 1705.863
713.9210, 1705.196
714.4031, 1701.807
714.8853, 1696.587
715.3674, 1691.686
715.8495, 1686.260
716.3316, 1675.065
716.8137, 1653.221
717.2958, 1630.553
717.7780, 1610.806
718.2601, 1591.839
718.7422, 1570.980
719.2243, 1548.487
719.7064, 1526.392
720.1885, 1505.737
720.6707, 1486.189
721.1528, 1467.356
721.6349, 1449.162
722.1170, 1430.769
722.5991, 1411.891
723.0812, 1394.898
723.5634, 1382.694
724.0455, 1371.670
724.5276, 1352.255
725.0097, 1318.583
725.4918, 1290.056
725.9739, 1266.318
726.4561, 1247.922
726.9382, 1239.598
727.4203, 1234.833
727.9024, 1223.434
728.3845, 1203.251
728.8666, 1185.915
729.3488, 1181.581
729.8309, 1181.144
730.3130, 1174.339
730.7951, 1162.504
731.2772, 1149.042
731.7593, 1135.342
732.2415, 1125.417
732.7236, 1124.482
733.2057, 1131.072
733.6878, 1134.404
734.1699, 1134.310
734.6520, 1131.518
735.1342, 1125.540
735.6163, 1117.754
736.0984, 1107.725
736.5805, 1096.482
737.0626, 1089.625
737.5447, 1089.649
738.0269, 1091.187
738.5090, 1095.946
738.9911, 1099.324
739.4732, 1097.220
739.9553, 1090.344
740.4374, 1080.913
740.9196, 1069.431
741.4017, 1059.082
741.8838, 1053.920
742.3659, 1052.635
742.8480, 1052.515
743.3301, 1053.153
743.8123, 1052.883
744.2944, 1051.384
744.7765, 1046.183
745.2586, 1031.182
745.7407, 1002.522
746.2228, 988.5018
746.7050, 998.3389
747.1871, 1008.432
747.6692, 1009.367
748.1513, 1008.713
748.6334, 1016.557
749.1155, 1032.365
749.5977, 1038.939
750.0798, 1019.690
750.5619, 1003.238
751.0440, 1009.613
751.5261, 1025.813
752.0082, 1036.125
752.4904, 1038.085
752.9725, 1035.729
753.4546, 1031.112
753.9367, 1025.404
754.4188, 1021.163
754.9009, 1017.972
755.3831, 1011.187
755.8652, 999.3669
756.3473, 992.3898
756.8294, 997.8539
757.3115, 1010.357
757.7936, 1016.313
758.2758, 1012.927
758.7579, 1010.236
759.2400, 1004.131
759.7221, 1003.513
760.2042, 1019.218
760.6863, 1037.839
761.1685, 1039.989
761.6506, 1023.142
762.1327, 1011.142
762.6148, 1018.456
763.0969, 1029.694
763.5790, 1033.390
764.0612, 1032.702
764.5433, 1034.268
765.0254, 1038.803
765.5075, 1040.582
765.9896, 1033.767
766.4717, 1023.579
766.9539, 1024.894
767.4360, 1036.749
767.9181, 1038.708
768.4002, 1025.729
768.8823, 1011.844
769.3644, 1006.861
769.8466, 1008.106
770.3287, 1007.778
770.8108, 1007.331
771.2929, 1002.151
771.7750, 984.8622
772.2571, 971.2574
772.7393, 969.8281
773.2214, 974.3444
773.7035, 976.8273
774.1856, 976.0220
774.6677, 973.2894
775.1498, 969.0541
775.6320, 963.2237
776.1141, 956.0671
776.5962, 947.1271
777.0783, 933.1848
777.5604, 915.1475
778.0425, 901.9482
778.5247, 901.8677
779.0068, 909.2610
779.4889, 912.4474
779.9710, 911.6147
780.4531, 908.0328
780.9352, 901.4055
781.4174, 896.0372
781.8995, 895.2035
782.3816, 897.3334
782.8637, 898.2609
783.3458, 898.8148
783.8279, 895.9868
784.3101, 880.5765
784.7922, 872.8652
785.2743, 889.1271
785.7564, 911.9261
786.2385, 918.9659
786.7206, 907.6936
787.2028, 893.6362
787.6849, 875.9858
788.1670, 863.2985
788.6491, 864.4412
789.1312, 871.8041
789.6133, 873.7952
790.0955, 870.0516
790.5776, 870.5756
791.0597, 884.4291
791.5418, 899.9647
792.0239, 895.6662
792.5060, 876.7280
792.9882, 864.0290
793.4703, 860.1959
793.9524, 859.7468
794.4345, 859.8282
794.9166, 860.3220
795.3987, 860.9000
795.8809, 861.3739
796.3630, 863.6949
796.8451, 872.7772
797.3272, 874.3333
797.8093, 854.8279
798.2914, 831.5521
798.7736, 826.0960
799.2557, 837.8483
799.7378, 845.7078
800.2199, 845.7155
800.7020, 843.0712
801.1841, 836.7850
801.6663, 830.6600
802.1484, 829.1719
802.6305, 831.0778
803.1126, 830.8321
803.5947, 824.8397
804.0768, 820.8663
804.5590, 830.4775
805.0411, 844.8496
805.5232, 846.9055
806.0053, 838.3754
806.4874, 832.2415
806.9695, 833.8397
807.4517, 839.0868
807.9338, 843.6177
808.4159, 847.1144
808.8980, 845.5826
809.3801, 837.6815
809.8622, 834.5728
810.3444, 840.9851
810.8265, 848.7939
811.3086, 850.9700
811.7907, 848.0877
812.2728, 843.8680
812.7549, 836.7478
813.2371, 830.7776
813.7192, 824.9700
814.2013, 821.4614
814.6834, 821.8690
815.1655, 825.1099
815.6476, 830.5156
816.1298, 838.6510
816.6119, 842.5581
817.0940, 833.5485
817.5761, 825.1056
818.0582, 831.2933
818.5403, 842.9838
819.0225, 845.0198
819.5046, 835.3742
819.9867, 822.3691
820.4688, 809.4722
820.9509, 800.9612
821.4330, 808.8435
821.9152, 826.8564
822.3973, 831.6622
822.8794, 820.8827
823.3615, 809.8635
823.8436, 807.3526
824.3257, 810.1331
824.8079, 811.7489
825.2900, 811.5710
825.7721, 819.1132
826.2542, 840.5367
826.7363, 850.7466
827.2184, 834.5358
827.7006, 811.6490
828.1826, 805.5181
828.6647, 815.9531
829.1469, 818.7522
829.6290, 803.4501
830.1111, 795.6332
830.5932, 806.2045
831.0753, 818.1318
831.5574, 818.9396
832.0396, 812.6086
832.5217, 809.2155
833.0038, 811.6552
833.4859, 815.0942
833.9680, 817.2572
834.4501, 819.2357
834.9323, 822.8226
835.4144, 826.6425
835.8965, 829.1797
836.3786, 829.4982
836.8607, 824.5468
837.3428, 808.9799
837.8250, 790.8867
838.3071, 785.3080
838.7892, 789.3170
839.2713, 791.8690
839.7534, 791.4407
840.2355, 792.0600
840.7177, 796.2775
841.1998, 802.3760
841.6819, 807.6196
842.1640, 812.2446
842.6461, 811.9004
843.1282, 803.7507
843.6104, 801.1992
844.0925, 811.9219
844.5746, 825.4758
845.0567, 830.0811
845.5388, 825.9255
846.0209, 820.9182
846.5031, 813.6774
846.9852, 807.5554
847.4673, 800.4630
847.9494, 796.8737
848.4315, 803.8914
848.9136, 815.1039
849.3958, 816.7822
849.8779, 804.5066
850.3600, 794.0081
850.8421, 788.9534
851.3242, 789.4650
851.8063, 801.2728
852.2885, 815.7499
852.7706, 819.1246
853.2527, 811.2077
853.7348, 805.4059
854.2169, 811.5214
854.6990, 820.3538
855.1812, 821.1138
855.6633, 817.2988
856.1454, 816.0414
856.6275, 817.4621
857.1096, 817.0762
857.5917, 812.6855
858.0739, 808.8265
858.5560, 813.9506
859.0381, 825.5040
859.5202, 826.9925
860.0023, 818.2476
860.4844, 809.2294
860.9666, 802.2401
861.4487, 798.3299
861.9308, 799.3513
862.4129, 803.5532
862.8950, 802.3980
863.3771, 791.4709
863.8593, 789.8484
864.3414, 805.6656
864.8235, 818.6326
865.3056, 816.1232
865.7877, 807.0251
866.2698, 806.3187
866.7520, 815.4548
867.2341, 819.2302
867.7162, 810.1040
868.1983, 804.8525
868.6804, 811.3187
869.1625, 819.9396
869.6447, 823.0875
870.1268, 821.6800
870.6089, 820.5500
871.0910, 822.0688
871.5731, 820.5181
872.0552, 807.7172
872.5374, 795.9567
873.0195, 797.0538
873.5016, 805.7222
873.9837, 813.0860
874.4658, 816.6893
874.9479, 817.2949
875.4301, 812.9219
875.9122, 809.2037
876.3943, 815.3163
876.8764, 826.5294
877.3585, 833.7909
877.8406, 835.8626
878.3228, 833.0628
878.8049, 825.3715
879.2870, 817.2704
879.7691, 815.7694
880.2512, 819.4718
880.7333, 822.5411
881.2155, 824.8378
881.6976, 820.8187
882.1797, 808.0074
882.6618, 798.9294
883.1439, 805.6340
883.6260, 823.2186
884.1082, 833.4213
884.5903, 834.5113
885.0724, 837.0445
885.5545, 842.3655
886.0366, 847.4448
886.5187, 851.5416
887.0009, 853.7426
887.4830, 851.2396
887.9651, 843.0459
888.4472, 843.5548
888.9293, 863.2018
889.4114, 876.0236
889.8936, 876.0632
890.3757, 870.9239
890.8578, 862.6221
891.3399, 853.2698
891.8220, 847.0969
892.3041, 844.2743
892.7863, 845.7173
893.2684, 854.9308
893.7505, 864.6700
894.2326, 873.5038
894.7147, 879.6082
895.1968, 879.9006
895.6790, 875.2640
896.1611, 871.1570
896.6432, 869.9512
897.1253, 869.5279
897.6074, 869.3329
898.0895, 868.6672
898.5717, 864.9952
899.0538, 860.6448
899.5359, 861.2190
900.0180, 868.1663
900.5001, 876.6769
900.9822, 884.6134
901.4644, 890.2136
901.9465, 890.0236
902.4286, 885.8862
902.9107, 880.1508
903.3928, 874.3744
903.8749, 873.9340
904.3571, 882.0362
904.8392, 893.3015
905.3213, 900.3741
905.8034, 904.1738
906.2855, 908.7950
906.7676, 914.0582
907.2498, 916.3044
907.7319, 914.4225
908.2140, 913.4593
908.6961, 917.7922
909.1782, 926.2856
909.6603, 935.1497
910.1425, 944.1793
910.6246, 959.1887
911.1067, 982.5884
911.5888, 1001.205
912.0709, 1008.689
912.5530, 1009.809
913.0352, 1008.990
913.5173, 1006.685
913.9994, 1016.841
914.4815, 1047.726
914.9636, 1068.021
915.4457, 1065.937
915.9279, 1064.471
916.4100, 1077.815
916.8921, 1100.857
917.3742, 1123.915
917.8563, 1147.041
918.3384, 1169.550
918.8206, 1194.442
919.3027, 1214.709
919.7848, 1222.611
920.2669, 1230.942
920.7490, 1249.751
921.2311, 1277.476
921.7133, 1307.803
922.1954, 1340.953
922.6775, 1374.858
923.1596, 1411.731
923.6417, 1446.333
924.1238, 1475.267
924.6060, 1501.164
925.0881, 1524.208
925.5702, 1546.333
926.0523, 1577.836
926.5344, 1628.988
927.0165, 1678.685
927.4987, 1721.036
927.9808, 1753.936
928.4629, 1766.067
928.9450, 1770.449
929.4271, 1794.310
929.9092, 1842.483
930.3914, 1884.972
930.8735, 1904.088
931.3556, 1909.019
931.8377, 1902.923
932.3198, 1890.252
932.8019, 1877.023
933.2841, 1863.154
933.7662, 1846.142
934.2483, 1824.877
934.7304, 1798.182
935.2125, 1760.894
935.6946, 1720.199
936.1768, 1689.508
936.6589, 1663.047
937.1410, 1625.491
937.6231, 1576.426
938.1052, 1528.748
938.5873, 1490.206
939.0695, 1457.622
939.5516, 1428.679
940.0337, 1401.525
940.5158, 1370.803
940.9979, 1336.843
941.4800, 1301.551
941.9622, 1265.668
942.4443, 1231.353
942.9264, 1200.089
943.4085, 1172.338
943.8906, 1148.774
944.3727, 1129.267
944.8549, 1115.220
945.3370, 1106.254
945.8191, 1088.198
946.3012, 1054.564
946.7833, 1023.366
947.2654, 1015.529
947.7476, 1024.142
948.2297, 1020.792
948.7118, 1004.900
949.1939, 991.3963
949.6760, 981.6915
950.1581, 976.2969
950.6403, 976.0408
951.1224, 978.3494
951.6045, 980.1483
952.0866, 981.2372
952.5687, 978.1104
953.0508, 969.8209
953.5330, 962.0725
954.0151, 955.9557
954.4972, 949.6422
954.9793, 940.8472
955.4614, 933.1181
955.9435, 933.7913
956.4257, 943.9311
956.9078, 951.4189
957.3899, 955.8724
957.8720, 958.6706
958.3541, 960.2568
958.8362, 959.8873
959.3184, 956.1577
959.8005, 950.5820
960.2826, 946.9875
960.7647, 945.3665
961.2468, 946.1274
961.7289, 954.6745
962.2111, 955.8659
962.6932, 937.7625
963.1753, 920.0533
963.6574, 921.5948
964.1395, 937.1636
964.6216, 946.5673
965.1038, 945.3566
965.5859, 947.9509
966.0680, 961.5472
966.5501, 969.7597
967.0322, 960.8434
967.5143, 949.8713
967.9965, 953.8785
968.4786, 969.2916
968.9607, 975.0712
969.4428, 962.8305
969.9249, 954.3754
970.4070, 949.2225
970.8892, 950.3670
971.3713, 962.3141
971.8534, 978.9991
972.3355, 995.5860
972.8176, 1011.243
973.2997, 1021.335
973.7819, 1020.574
974.2640, 1021.478
974.7461, 1022.831
975.2282, 1029.807
975.7103, 1053.552
976.1924, 1079.598
976.6746, 1085.064
977.1567, 1070.167
977.6388, 1066.091
978.1209, 1093.382
978.6030, 1112.348
979.0851, 1104.011
979.5673, 1093.750
980.0494, 1097.424
980.5315, 1109.940
981.0136, 1124.733
981.4957, 1140.428
981.9778, 1148.569
982.4600, 1138.729
982.9421, 1132.130
983.4242, 1140.005
983.9063, 1149.838
984.3884, 1153.893
984.8705, 1152.632
985.3527, 1144.995
985.8348, 1131.033
986.3169, 1126.715
986.7990, 1148.507
987.2811, 1166.599
987.7632, 1164.957
988.2454, 1157.580
988.7275, 1153.840
989.2096, 1154.214
989.6917, 1158.183
990.1738, 1165.678
990.6559, 1172.928
991.1381, 1176.846
991.6202, 1182.173
992.1023, 1192.849
992.5844, 1204.497
993.0665, 1212.076
993.5486, 1217.691
994.0308, 1227.439
994.5129, 1242.998
994.9950, 1256.135
995.4771, 1259.364
995.9592, 1264.241
996.4413, 1279.585
996.9235, 1297.284
997.4056, 1310.851
997.8877, 1319.765
998.3698, 1323.571
998.8519, 1321.693
999.3340, 1322.960
999.8162, 1332.908
1000.298, 1345.175
1000.780, 1354.783
1001.263, 1366.128
1001.745, 1385.165
1002.227, 1409.433
1002.709, 1432.222
1003.191, 1451.803
1003.673, 1470.077
1004.155, 1481.569
1004.637, 1499.442
1005.119, 1536.070
1005.602, 1578.830
1006.084, 1615.936
1006.566, 1648.262
1007.048, 1680.810
1007.530, 1714.619
1008.012, 1753.406
1008.494, 1807.814
1008.976, 1857.081
1009.458, 1880.106
1009.941, 1900.215
1010.423, 1946.703
1010.905, 2008.967
1011.387, 2055.336
1011.869, 2076.754
1012.351, 2095.449
1012.833, 2118.876
1013.315, 2144.075
1013.798, 2174.970
1014.280, 2202.422
1014.762, 2213.993
1015.244, 2215.638
1015.726, 2223.136
1016.208, 2240.848
1016.690, 2256.653
1017.172, 2263.072
1017.654, 2270.197
1018.137, 2279.600
1018.619, 2294.554
1019.101, 2320.124
1019.583, 2352.913
1020.065, 2384.394
1020.547, 2412.411
1021.029, 2446.001
1021.511, 2488.779
1021.994, 2536.762
1022.476, 2593.030
1022.958, 2649.674
1023.440, 2698.247
1023.922, 2742.379
1024.404, 2789.464
1024.886, 2840.706
1025.368, 2895.375
1025.850, 2954.508
1026.333, 3014.830
1026.815, 3086.154
1027.297, 3148.006
1027.779, 3177.217
1028.261, 3189.331
1028.743, 3218.579
1029.225, 3271.647
1029.707, 3303.763
1030.190, 3290.224
1030.672, 3278.713
1031.154, 3298.559
1031.636, 3306.140
1032.118, 3264.288
1032.600, 3194.990
1033.082, 3136.897
1033.564, 3093.641
1034.047, 3043.069
1034.529, 2982.208
1035.011, 2914.595
1035.493, 2833.335
1035.975, 2753.300
1036.457, 2679.580
1036.939, 2613.061
1037.421, 2557.214
1037.903, 2512.272
1038.385, 2465.039
1038.868, 2407.068
1039.350, 2360.347
1039.832, 2331.573
1040.314, 2307.546
1040.796, 2277.335
1041.278, 2253.050
1041.760, 2255.797
1042.242, 2283.301
1042.725, 2288.257
1043.207, 2245.983
1043.689, 2237.263
1044.171, 2288.932
1044.653, 2332.068
1045.135, 2330.639
1045.617, 2319.338
1046.099, 2339.181
1046.582, 2384.028
1047.064, 2411.053
1047.546, 2412.794
1048.028, 2423.490
1048.510, 2450.709
1048.992, 2467.970
1049.474, 2463.767
1049.956, 2451.463
1050.438, 2444.206
1050.921, 2439.063
1051.403, 2425.336
1051.885, 2402.624
1052.367, 2374.443
1052.849, 2340.486
1053.331, 2302.403
1053.813, 2259.547
1054.295, 2218.686
1054.777, 2186.064
1055.260, 2157.870
1055.742, 2126.006
1056.224, 2090.269
1056.706, 2049.075
1057.188, 2002.407
1057.670, 1968.599
1058.152, 1952.437
1058.634, 1933.142
1059.117, 1895.840
1059.599, 1854.920
1060.081, 1836.401
1060.563, 1835.438
1061.045, 1831.277
1061.527, 1823.408
1062.009, 1805.149
1062.491, 1777.304
1062.974, 1758.592
1063.456, 1758.917
1063.938, 1763.909
1064.420, 1756.954
1064.902, 1741.378
1065.384, 1718.409
1065.866, 1694.168
1066.348, 1692.043
1066.830, 1707.062
1067.313, 1706.467
1067.795, 1678.357
1068.277, 1644.762
1068.759, 1625.102
1069.241, 1609.682
1069.723, 1585.319
1070.205, 1557.173
1070.687, 1535.682
1071.169, 1517.490
1071.652, 1490.326
1072.134, 1452.770
1072.616, 1419.915
1073.098, 1406.056
1073.580, 1389.781
1074.062, 1344.318
1074.544, 1297.652
1075.026, 1282.754
1075.508, 1283.022
1075.991, 1267.322
1076.473, 1234.673
1076.955, 1208.684
1077.437, 1200.445
1077.919, 1192.726
1078.401, 1177.851
1078.883, 1161.178
1079.365, 1146.776
1079.848, 1131.578
1080.330, 1109.544
1080.812, 1083.769
1081.294, 1065.222
1081.776, 1057.198
1082.258, 1050.211
1082.740, 1043.002
1083.222, 1035.962
1083.704, 1028.569
1084.187, 1022.018
1084.669, 1017.623
1085.151, 1014.557
1085.633, 1011.001
1086.115, 1006.851
1086.597, 1003.075
1087.079, 1000.186
1087.561, 996.6341
1088.043, 991.8492
1088.526, 987.0394
1089.008, 982.7642
1089.490, 978.8429
1089.972, 975.4583
1090.454, 972.2400
1090.936, 964.7461
1091.418, 950.6625
1091.900, 946.2690
1092.383, 955.4597
1092.865, 958.8359
1093.347, 948.6329
1093.829, 934.6034
1094.311, 925.7435
1094.793, 920.3229
1095.275, 914.5896
1095.757, 908.3972
1096.240, 899.8959
1096.722, 889.0513
1097.204, 874.1622
1097.686, 855.3694
1098.168, 841.3909
1098.650, 837.9538
1099.132, 839.0067
1099.614, 835.5097
1100.096, 830.4754
1100.578, 832.4332
1101.061, 838.0715
1101.543, 838.3050
1102.025, 833.0975
1102.507, 828.2233
1102.989, 825.8531
1103.471, 822.4282
1103.953, 813.0294
1104.435, 803.7437
1104.918, 801.5666
1105.400, 802.2195
1105.882, 800.4133
1106.364, 797.2419
1106.846, 795.3731
1107.328, 795.5271
1107.810, 798.4128
1108.292, 808.3247
1108.775, 812.5408
1109.257, 799.6410
1109.739, 785.8049
1110.221, 782.6702
1110.703, 782.7762
1111.185, 774.1020
1111.667, 760.3808
1112.149, 759.1791
1112.631, 779.0243
1113.114, 790.1873
1113.596, 786.8522
1114.078, 778.5688
1114.560, 761.0390
1115.042, 747.1622
1115.524, 748.6368
1116.006, 755.9935
1116.488, 751.2039
1116.970, 734.1375
1117.453, 726.8115
1117.935, 732.0911
1118.417, 735.5786
1118.899, 734.8564
1119.381, 737.5659
1119.863, 748.6664
1120.345, 755.9966
1120.827, 744.9142
1121.310, 723.7567
1121.792, 718.1292
1122.274, 726.0272
1122.756, 729.1433
1123.238, 727.4406
1123.720, 728.3593
1124.202, 733.3541
1124.684, 736.6980
1125.167, 734.6705
1125.649, 731.1700
1126.131, 730.9141
1126.613, 732.6221
1127.095, 735.5679
1127.577, 738.1038
1128.059, 737.9354
1128.541, 734.2820
1129.023, 723.7282
1129.505, 706.0383
1129.988, 694.5247
1130.470, 702.5263
1130.952, 711.9096
1131.434, 710.2418
1131.916, 705.7341
1132.398, 703.0090
1132.880, 703.4460
1133.362, 711.6528
1133.845, 725.1496
1134.327, 728.7604
1134.809, 714.0847
1135.291, 702.9654
1135.773, 700.7717
1136.255, 699.8419
1136.737, 698.5704
1137.219, 696.7694
1137.702, 691.4833
1138.184, 687.6246
1138.666, 697.5290
1139.148, 722.3931
1139.630, 730.4440
1140.112, 716.8024
1140.594, 707.7677
1141.076, 707.3831
1141.558, 706.6506
1142.041, 701.0643
1142.523, 698.1103
1143.005, 707.0867
1143.487, 721.0038
1143.969, 720.0516
1144.451, 707.4175
1144.933, 697.1183
1145.415, 690.2505
1145.897, 691.0024
1146.380, 698.4643
1146.862, 700.8530
1147.344, 691.4431
1147.826, 679.7892
1148.308, 673.7345
1148.790, 672.6025
1149.272, 679.1100
1149.754, 687.4742
1150.237, 688.5032
1150.719, 685.0729
1151.201, 687.0224
1151.683, 695.4772
1152.165, 697.7996
1152.647, 685.3228
1153.129, 672.5616
1153.611, 660.2002
1154.094, 653.9208
1154.576, 660.9109
1155.058, 672.0322
1155.540, 679.7996
1156.022, 683.4932
1156.504, 681.3433
1156.986, 670.8936
1157.468, 667.1333
1157.950, 674.0206
1158.432, 676.1068
1158.915, 668.5926
1159.397, 663.7175
1159.879, 668.3629
1160.361, 676.7483
1160.843, 682.3813
1161.325, 684.7758
1161.807, 680.6772
1162.289, 671.2249
1162.772, 664.6099
1163.254, 661.1685
1163.736, 660.0286
1164.218, 660.7305
1164.700, 660.9856
1165.182, 658.9334
1165.664, 661.4134
1166.146, 685.3563
1166.629, 708.8115
1167.111, 700.5181
1167.593, 678.2961
1168.075, 664.0477
1168.557, 658.5245
1169.039, 657.0349
1169.521, 658.2095
1170.003, 659.9295
1170.485, 662.3356
1170.968, 663.6274
1171.450, 660.8370
1171.932, 659.8192
1172.414, 667.1177
1172.896, 674.0705
1173.378, 669.1546
1173.860, 658.8125
1174.342, 661.3917
1174.824, 679.7227
1175.307, 684.0030
1175.789, 669.3533
1176.271, 662.8698
1176.753, 669.9952
1177.235, 674.4402
1177.717, 668.3771
1178.199, 661.7424
1178.681, 666.0919
1179.164, 673.8466
1179.646, 663.6955
1180.128, 643.9041
1180.610, 642.0873
1181.092, 653.3950
1181.574, 658.7329
1182.056, 656.1466
1182.538, 656.6080
1183.021, 665.0662
1183.503, 670.7324
1183.985, 660.4241
1184.467, 651.1288
1184.949, 657.7069
1185.431, 667.6798
1185.913, 671.1528
1186.395, 669.7306
1186.877, 665.7386
1187.359, 660.1594
1187.842, 657.1481
1188.324, 658.8359
1188.806, 659.2648
1189.288, 658.6731
1189.770, 655.8655
1190.252, 648.8222
1190.734, 643.6588
1191.216, 644.8945
1191.699, 648.0927
1192.181, 646.1501
1192.663, 640.7058
1193.145, 639.8119
1193.627, 643.0180
1194.109, 647.4929
1194.591, 652.3561
1195.073, 652.5781
1195.556, 647.7224
1196.038, 645.2170
1196.520, 649.7842
1197.002, 655.7715
1197.484, 658.1271
1197.966, 658.4836
1198.448, 656.7052
1198.930, 655.3876
1199.412, 658.8410
1199.895, 664.6398
1200.377, 668.1511
1200.859, 668.5722
1201.341, 666.0770
1201.823, 657.7836
1202.305, 652.1439
1202.787, 652.1733
1203.269, 651.8713
1203.751, 646.6017
1204.234, 646.3309
1204.716, 661.2350
1205.198, 679.9768
1205.680, 682.1064
1206.162, 670.0412
1206.644, 663.4937
1207.126, 662.0567
1207.608, 656.8349
1208.091, 648.0974
1208.573, 647.9000
1209.055, 658.3681
1209.537, 663.5959
1210.019, 652.5319
1210.501, 638.4404
1210.983, 634.1396
1211.465, 635.4935
1211.948, 641.0240
1212.430, 647.2042
1212.912, 649.6246
1213.394, 649.4427
1213.876, 649.5562
1214.358, 650.4293
1214.840, 651.4294
1215.322, 653.4759
1215.804, 653.5421
1216.286, 647.6528
1216.769, 646.1652
1217.251, 655.7683
1217.733, 662.6985
1218.215, 657.1000
1218.697, 644.6730
1219.179, 632.6898
1219.661, 623.0073
1220.143, 628.3589
1220.626, 646.2296
1221.108, 656.1436
1221.590, 657.8613
1222.072, 659.8093
1222.554, 663.7880
1223.036, 665.0063
1223.518, 660.4444
1224.000, 656.2059
1224.483, 660.9320
1224.965, 664.3856
1225.447, 654.7870
1225.929, 642.7451
1226.411, 638.9154
1226.893, 639.9605
1227.375, 638.2770
1227.857, 634.1047
1228.339, 636.0469
1228.822, 649.7300
1229.304, 656.0526
1229.786, 652.7853
1230.268, 647.0684
1230.750, 638.4264
1231.232, 634.7869
1231.714, 641.2397
1232.196, 650.6735
1232.678, 654.8437
1233.161, 655.1641
1233.643, 654.3882
1234.125, 652.9128
1234.607, 651.9590
1235.089, 651.2908
1235.571, 650.4020
1236.053, 648.9575
1236.535, 645.4183
1237.018, 639.2014
1237.500, 636.1180
1237.982, 643.2133
1238.464, 648.6298
1238.946, 643.6861
1239.428, 639.8947
1239.910, 648.3461
1240.392, 657.4607
1240.875, 653.0867
1241.357, 641.3475
1241.839, 638.1785
1242.321, 643.9171
1242.803, 650.7516
1243.285, 659.0299
1243.767, 662.9943
1244.249, 662.0906
1244.731, 659.2075
1245.214, 655.5457
1245.696, 654.1624
1246.178, 657.6730
1246.660, 662.0112
1247.142, 662.2333
1247.624, 660.7961
1248.106, 661.9310
1248.588, 661.9818
1249.070, 653.1285
1249.553, 640.9247
1250.035, 637.7459
1250.517, 644.3096
1250.999, 648.9771
1251.481, 649.2479
1251.963, 648.9476
1252.445, 646.5123
1252.927, 647.4911
1253.410, 654.1629
1253.892, 661.2194
1254.374, 666.0919
1254.856, 668.5057
1255.338, 668.3385
1255.820, 665.0107
1256.302, 654.4064
1256.784, 640.5549
1257.266, 634.5236
1257.749, 634.4792
1258.231, 634.8546
1258.713, 635.0007
1259.195, 637.7343
1259.677, 643.8414
1260.159, 645.8384
1260.641, 632.8788
1261.123, 626.5137
1261.605, 642.7534
1262.088, 654.8547
1262.570, 645.5986
1263.052, 633.7271
1263.534, 632.7852
1264.016, 639.5065
1264.498, 648.7183
1264.980, 659.7183
1265.462, 666.5828
1265.945, 669.2940
1266.427, 666.1489
1266.909, 658.1315
##END=



