##NAMES=Inesite
##RRUFFID=R090030
##IDEAL CHEMISTRY=Ca_2_Mn^2+^_7_Si_10_O_28_(OH)_2_&#183;5H_2_O
##LOCALITY=Hale Creek Mine, Mad River Ridge, Hale Creek, Trinity County, California
##OWNER=RRUFF
##SOURCE=James Shigley 
##DESCRIPTION=Clusters of pink slender chisel-shaped laths
##STATUS=The identification of this mineral has been confirmed by X-ray diffraction.
##URL=rruff.info/R090030
92.37695, 305.9598
92.85907, 304.9689
93.34119, 305.6482
93.82330, 305.5997
94.30542, 303.4490
94.78754, 299.0379
95.26965, 293.1382
95.75177, 287.0067
96.23389, 281.3494
96.71600, 275.6564
97.19812, 269.4525
97.68024, 262.5256
98.16235, 255.8529
98.64447, 250.9041
99.12659, 248.3399
99.60870, 245.0007
100.0908, 240.5152
100.5729, 235.7497
101.0551, 231.3492
101.5372, 227.5417
102.0193, 224.2851
102.5014, 221.6552
102.9835, 219.1429
103.4656, 217.7817
103.9478, 218.1294
104.4299, 219.7399
104.9120, 221.8233
105.3941, 223.7586
105.8762, 225.5222
106.3583, 227.5631
106.8405, 229.7182
107.3226, 232.1355
107.8047, 234.8062
108.2868, 237.7481
108.7689, 241.1342
109.2510, 245.0562
109.7332, 249.4979
110.2153, 255.0665
110.6974, 262.6839
111.1795, 271.2592
111.6616, 279.5239
112.1437, 287.5745
112.6259, 294.2320
113.1080, 299.0399
113.5901, 302.1185
114.0722, 302.1048
114.5543, 297.6032
115.0364, 288.7279
115.5185, 278.1408
116.0007, 264.8398
116.4828, 250.9603
116.9649, 237.3377
117.4470, 224.2063
117.9291, 211.8516
118.4112, 200.4993
118.8934, 190.0283
119.3755, 181.1667
119.8576, 174.1010
120.3397, 168.2204
120.8218, 163.1242
121.3039, 158.6433
121.7861, 154.7878
122.2682, 151.5582
122.7503, 149.5578
123.2324, 147.6313
123.7145, 145.5063
124.1966, 143.4346
124.6788, 141.7901
125.1609, 140.7766
125.6430, 140.3691
126.1251, 140.3578
126.6072, 140.7459
127.0893, 141.4023
127.5715, 142.3154
128.0536, 143.4698
128.5357, 144.8390
129.0178, 146.6116
129.4999, 148.6032
129.9821, 149.8965
130.4642, 150.2746
130.9463, 150.0460
131.4284, 149.5104
131.9105, 148.6821
132.3926, 147.5205
132.8748, 145.9599
133.3569, 144.0562
133.8390, 141.8342
134.3211, 139.1291
134.8032, 136.0916
135.2853, 133.1812
135.7674, 130.3714
136.2496, 127.7672
136.7317, 125.4141
137.2138, 123.2820
137.6959, 121.3124
138.1780, 119.4311
138.6601, 117.6243
139.1423, 116.0583
139.6244, 114.6612
140.1065, 113.5786
140.5886, 112.9215
141.0707, 112.6687
141.5528, 112.6993
142.0350, 112.9029
142.5171, 113.3916
142.9992, 113.7650
143.4813, 113.9316
143.9634, 114.0659
144.4455, 114.2524
144.9277, 114.5210
145.4098, 114.8960
145.8919, 115.4335
146.3740, 116.3077
146.8561, 117.0189
147.3382, 117.3939
147.8204, 117.6460
148.3025, 118.0623
148.7846, 118.7640
149.2667, 119.5951
149.7488, 120.2980
150.2309, 121.0003
150.7131, 121.3384
151.1952, 121.0918
151.6773, 120.3558
152.1594, 119.4132
152.6415, 118.2933
153.1236, 117.0693
153.6058, 115.9751
154.0879, 115.1695
154.5700, 114.0250
155.0521, 111.8148
155.5342, 108.4938
156.0163, 105.3364
156.4985, 103.0205
156.9806, 101.0089
157.4627, 98.81827
157.9448, 96.27504
158.4269, 93.79874
158.9090, 92.08807
159.3912, 91.48678
159.8733, 90.82034
160.3554, 89.66020
160.8375, 88.37349
161.3196, 87.30093
161.8017, 86.60664
162.2839, 86.14148
162.7660, 85.45322
163.2481, 84.22011
163.7302, 83.19348
164.2123, 82.42323
164.6944, 81.91961
165.1766, 81.72727
165.6587, 81.88334
166.1408, 82.33189
166.6229, 82.71069
167.1050, 82.74915
167.5871, 83.01089
168.0693, 83.81822
168.5514, 84.93832
169.0335, 85.91920
169.5156, 86.45377
169.9977, 86.57021
170.4798, 86.71997
170.9620, 86.77202
171.4441, 86.96779
171.9262, 87.48985
172.4083, 88.28427
172.8904, 89.11209
173.3725, 89.80960
173.8547, 90.37443
174.3368, 90.92932
174.8189, 91.54636
175.3010, 92.10816
175.7831, 92.56058
176.2652, 92.90581
176.7474, 93.04410
177.2295, 92.84245
177.7116, 92.36469
178.1937, 91.75526
178.6758, 90.99931
179.1579, 90.14186
179.6401, 89.24208
180.1222, 88.31011
180.6043, 87.31194
181.0864, 86.19382
181.5685, 85.00373
182.0506, 83.82111
182.5328, 82.65696
183.0149, 81.53027
183.4970, 80.46764
183.9791, 79.37327
184.4612, 78.53275
184.9433, 78.13576
185.4255, 78.02770
185.9076, 77.94247
186.3897, 77.70962
186.8718, 77.34412
187.3539, 77.01261
187.8360, 76.65571
188.3182, 76.40767
188.8003, 76.25249
189.2824, 76.23158
189.7645, 76.43742
190.2466, 76.98674
190.7287, 77.90498
191.2109, 78.59464
191.6930, 78.91705
192.1751, 79.15230
192.6572, 79.32433
193.1393, 79.47279
193.6214, 79.66444
194.1036, 79.96431
194.5857, 80.39461
195.0678, 80.76127
195.5499, 80.92162
196.0320, 81.15871
196.5141, 81.60032
196.9963, 82.24515
197.4784, 83.04354
197.9605, 83.97694
198.4426, 85.07751
198.9247, 86.00105
199.4068, 86.61426
199.8890, 87.16940
200.3711, 87.83025
200.8532, 88.61025
201.3353, 89.41866
201.8174, 90.16802
202.2995, 90.85617
202.7817, 91.61336
203.2638, 92.41907
203.7459, 93.31143
204.2280, 94.33801
204.7101, 95.51080
205.1922, 96.76366
205.6744, 98.05972
206.1565, 99.40067
206.6386, 100.7813
207.1207, 102.2824
207.6028, 103.7933
208.0849, 105.1010
208.5671, 106.1258
209.0492, 107.2171
209.5313, 108.7504
210.0134, 110.5663
210.4955, 112.3482
210.9776, 113.9227
211.4598, 115.3965
211.9419, 117.0315
212.4240, 118.8849
212.9061, 120.7725
213.3882, 122.6661
213.8703, 124.5126
214.3525, 126.2088
214.8346, 127.7330
215.3167, 129.0638
215.7988, 130.0558
216.2809, 130.4862
216.7630, 130.9114
217.2451, 131.7894
217.7273, 132.8138
218.2094, 133.4427
218.6915, 133.2780
219.1736, 132.4447
219.6557, 131.6885
220.1378, 131.0795
220.6200, 130.4702
221.1021, 129.8858
221.5842, 129.2652
222.0663, 128.4881
222.5484, 127.4409
223.0305, 126.1703
223.5127, 125.1261
223.9948, 124.4640
224.4769, 123.9021
224.9590, 123.4218
225.4411, 122.9953
225.9232, 122.6156
226.4054, 122.2952
226.8875, 122.0124
227.3696, 121.4645
227.8517, 120.2435
228.3338, 119.1827
228.8159, 118.5219
229.2981, 118.1459
229.7802, 117.8456
230.2623, 117.4871
230.7444, 117.0774
231.2265, 116.7040
231.7086, 116.1313
232.1908, 115.8413
232.6729, 116.0453
233.1550, 116.6204
233.6371, 117.3323
234.1192, 118.0457
234.6013, 118.7684
235.0835, 119.5641
235.5656, 120.2587
236.0477, 121.1962
236.5298, 122.6833
237.0119, 124.4952
237.4940, 126.1576
237.9762, 127.3932
238.4583, 128.2832
238.9404, 129.2187
239.4225, 130.5560
239.9046, 131.5482
240.3867, 131.8965
240.8689, 131.7017
241.3510, 131.1722
241.8331, 130.3558
242.3152, 129.3197
242.7973, 128.2657
243.2794, 127.1701
243.7616, 126.0995
244.2437, 125.0893
244.7258, 124.1337
245.2079, 123.2092
245.6900, 122.2914
246.1721, 121.4252
246.6543, 120.6747
247.1364, 120.0375
247.6185, 119.5031
248.1006, 119.1628
248.5827, 118.9463
249.0648, 118.5948
249.5470, 118.0072
250.0291, 117.2449
250.5112, 116.3376
250.9933, 115.2138
251.4754, 114.3318
251.9576, 114.0951
252.4397, 114.3607
252.9218, 114.4850
253.4039, 114.2598
253.8860, 113.8850
254.3681, 113.6353
254.8503, 113.5113
255.3324, 113.2646
255.8145, 112.5698
256.2966, 111.5578
256.7787, 110.9232
257.2608, 110.9466
257.7430, 111.1887
258.2251, 111.3166
258.7072, 111.3327
259.1893, 111.2495
259.6714, 110.9358
260.1535, 110.4756
260.6357, 110.3753
261.1178, 110.9301
261.5999, 111.5301
262.0820, 111.7185
262.5641, 111.6164
263.0462, 111.6008
263.5284, 112.0256
264.0105, 112.7882
264.4926, 113.2346
264.9747, 113.0000
265.4568, 112.9799
265.9389, 113.6234
266.4211, 114.7645
266.9032, 116.0568
267.3853, 117.2801
267.8674, 118.4891
268.3495, 119.9629
268.8316, 121.8835
269.3138, 123.8103
269.7959, 125.4724
270.2780, 127.0518
270.7601, 128.8149
271.2422, 130.8968
271.7243, 133.2641
272.2065, 135.7982
272.6886, 138.5636
273.1707, 141.3777
273.6528, 144.1885
274.1349, 147.0171
274.6170, 149.7964
275.0992, 152.4795
275.5813, 155.2415
276.0634, 158.5850
276.5455, 163.0887
277.0276, 167.0894
277.5097, 170.2686
277.9919, 172.9209
278.4740, 175.2835
278.9561, 177.4545
279.4382, 179.4274
279.9203, 181.2780
280.4024, 183.2866
280.8846, 184.4859
281.3667, 184.5278
281.8488, 184.0428
282.3309, 183.5374
282.8130, 183.1173
283.2951, 182.4626
283.7773, 180.9932
284.2594, 178.2155
284.7415, 175.8471
285.2236, 174.1373
285.7057, 172.6245
286.1878, 170.9521
286.6700, 169.1364
287.1521, 167.5081
287.6342, 166.4616
288.1163, 166.1153
288.5984, 165.9414
289.0805, 165.8685
289.5627, 166.0094
290.0448, 166.3016
290.5269, 166.8318
291.0090, 167.8407
291.4911, 169.6085
291.9732, 172.1980
292.4554, 174.6908
292.9375, 176.9795
293.4196, 179.2867
293.9017, 181.7655
294.3838, 184.3234
294.8659, 186.8136
295.3481, 189.1749
295.8302, 191.3750
296.3123, 192.8421
296.7944, 193.6238
297.2765, 193.5527
297.7586, 192.4924
298.2408, 190.5637
298.7229, 187.9231
299.2050, 184.6653
299.6871, 180.7946
300.1692, 176.3236
300.6513, 170.8009
301.1335, 165.1853
301.6156, 159.5459
302.0977, 153.9060
302.5798, 148.1086
303.0619, 142.1298
303.5440, 136.3243
304.0262, 131.3838
304.5083, 127.9675
304.9904, 124.5614
305.4725, 121.0480
305.9546, 117.5994
306.4367, 114.2801
306.9189, 111.1387
307.4010, 108.2511
307.8831, 105.7238
308.3652, 103.5925
308.8473, 101.7945
309.3294, 100.3521
309.8116, 99.14762
310.2937, 98.15831
310.7758, 97.35234
311.2579, 96.66417
311.7400, 96.02197
312.2221, 95.39261
312.7043, 95.03276
313.1864, 95.01355
313.6685, 95.14588
314.1506, 95.40773
314.6327, 95.76384
315.1148, 96.14273
315.5970, 96.47555
316.0791, 96.78286
316.5612, 97.35271
317.0433, 98.46925
317.5254, 99.53806
318.0075, 100.2996
318.4897, 100.9620
318.9718, 101.8834
319.4539, 103.2577
319.9360, 104.9167
320.4181, 106.3348
320.9002, 107.2408
321.3824, 108.2121
321.8645, 109.2786
322.3466, 110.4189
322.8287, 111.6125
323.3108, 112.8454
323.7929, 114.1445
324.2751, 115.5533
324.7572, 117.1781
325.2393, 118.7153
325.7214, 119.9461
326.2035, 121.2684
326.6856, 123.0518
327.1678, 125.2823
327.6499, 127.6016
328.1320, 129.6099
328.6141, 131.2114
329.0962, 132.9958
329.5783, 135.1806
330.0605, 137.3181
330.5426, 139.1962
331.0247, 140.8650
331.5068, 142.5144
331.9889, 144.3316
332.4710, 146.2744
332.9532, 147.6445
333.4353, 148.2090
333.9174, 148.4170
334.3995, 148.3434
334.8816, 147.9604
335.3637, 147.2049
335.8459, 146.0502
336.3280, 144.5261
336.8101, 142.7247
337.2922, 140.2497
337.7743, 138.0851
338.2564, 136.4609
338.7386, 135.0545
339.2206, 133.5757
339.7028, 131.9426
340.1849, 130.3098
340.6670, 128.8849
341.1491, 127.6416
341.6312, 126.7041
342.1133, 126.0975
342.5955, 125.7319
343.0776, 125.5763
343.5597, 125.6205
344.0418, 125.8616
344.5239, 126.3096
345.0060, 126.9707
345.4882, 127.7266
345.9703, 128.7879
346.4524, 129.7395
346.9345, 130.3603
347.4166, 130.8000
347.8987, 131.3557
348.3809, 132.2303
348.8630, 133.3126
349.3451, 134.1476
349.8272, 134.7865
350.3093, 135.0588
350.7914, 134.9278
351.2736, 134.4731
351.7557, 133.7672
352.2378, 132.8348
352.7199, 131.6668
353.2020, 130.2401
353.6841, 128.5196
354.1663, 126.6370
354.6484, 124.4666
355.1305, 122.2476
355.6126, 120.1390
356.0947, 118.1437
356.5768, 116.1472
357.0590, 114.0071
357.5411, 111.7271
358.0232, 109.5379
358.5053, 107.4447
358.9874, 105.4596
359.4695, 103.6140
359.9517, 101.8793
360.4338, 100.2053
360.9159, 98.55527
361.3980, 96.95139
361.8801, 95.40935
362.3622, 93.85453
362.8444, 92.55747
363.3265, 91.72692
363.8086, 91.12626
364.2907, 90.54424
364.7728, 89.92477
365.2549, 89.25198
365.7371, 88.43260
366.2192, 87.42254
366.7013, 86.65085
367.1834, 86.44429
367.6655, 86.33283
368.1476, 85.94872
368.6298, 85.28635
369.1119, 84.61044
369.5940, 84.14993
370.0761, 83.85076
370.5582, 83.44461
371.0403, 82.85498
371.5225, 82.25720
372.0046, 81.83286
372.4867, 81.49521
372.9688, 81.02518
373.4509, 80.23316
373.9330, 79.33163
374.4152, 78.68688
374.8973, 78.34162
375.3794, 77.91211
375.8615, 77.20254
376.3436, 76.28924
376.8257, 75.27688
377.3079, 74.13326
377.7900, 72.98767
378.2721, 71.88426
378.7542, 70.84258
379.2363, 69.94144
379.7184, 69.18091
380.2006, 68.60460
380.6827, 68.33837
381.1648, 68.37486
381.6469, 68.34624
382.1290, 68.15465
382.6111, 67.82114
383.0933, 67.31364
383.5754, 66.61550
384.0575, 65.96740
384.5396, 65.55958
385.0217, 65.38548
385.5038, 65.25084
385.9860, 65.15054
386.4681, 65.08978
386.9502, 65.17088
387.4323, 65.31649
387.9144, 65.24212
388.3965, 64.77613
388.8787, 64.06535
389.3608, 63.47691
389.8429, 62.96092
390.3250, 62.62278
390.8071, 62.61322
391.2892, 62.73714
391.7714, 62.80646
392.2535, 62.77108
392.7356, 62.57369
393.2177, 62.10889
393.6998, 61.27954
394.1819, 60.67393
394.6641, 60.41491
395.1462, 60.24442
395.6283, 60.02160
396.1104, 59.76328
396.5925, 59.55844
397.0746, 59.46438
397.5568, 59.47008
398.0389, 59.51361
398.5210, 59.57538
399.0031, 59.70160
399.4852, 59.95322
399.9673, 60.24720
400.4495, 60.51728
400.9316, 60.73536
401.4137, 60.87449
401.8958, 60.85003
402.3779, 60.46735
402.8600, 60.46746
403.3422, 61.08155
403.8243, 61.81530
404.3064, 62.51871
404.7885, 63.13076
405.2706, 63.56787
405.7527, 63.71772
406.2349, 63.64208
406.7170, 63.84977
407.1991, 64.63203
407.6812, 65.28215
408.1633, 65.63477
408.6454, 65.78219
409.1276, 65.83551
409.6097, 65.83511
410.0918, 65.72511
410.5739, 65.37188
411.0560, 64.71490
411.5381, 64.14706
412.0203, 63.77325
412.5024, 63.47417
412.9845, 63.13573
413.4666, 62.79218
413.9487, 62.61224
414.4308, 62.80443
414.9130, 63.26594
415.3951, 63.60620
415.8772, 63.79548
416.3593, 63.93496
416.8414, 63.97327
417.3235, 64.02535
417.8057, 64.26422
418.2878, 64.75673
418.7699, 65.39645
419.2520, 66.12344
419.7341, 66.92844
420.2162, 67.74710
420.6984, 68.63276
421.1805, 69.41735
421.6626, 69.84593
422.1447, 69.92628
422.6268, 69.99227
423.1089, 70.19589
423.5911, 70.44063
424.0732, 70.65856
424.5553, 70.84353
425.0374, 70.80370
425.5195, 70.35983
426.0016, 69.53628
426.4838, 68.66808
426.9659, 67.75677
427.4480, 66.80250
427.9301, 65.68527
428.4122, 64.53580
428.8943, 63.68195
429.3765, 63.26545
429.8586, 63.04422
430.3407, 62.59507
430.8228, 61.77975
431.3049, 61.02096
431.7870, 60.37114
432.2692, 59.74559
432.7513, 59.06848
433.2334, 58.35088
433.7155, 57.65418
434.1976, 57.02662
434.6797, 56.46957
435.1619, 55.99260
435.6440, 55.67724
436.1261, 55.34829
436.6082, 54.92089
437.0903, 54.48885
437.5724, 54.17061
438.0546, 54.00570
438.5367, 53.92006
439.0188, 53.75552
439.5009, 53.38937
439.9830, 53.34515
440.4651, 54.00017
440.9473, 54.65608
441.4294, 54.92188
441.9115, 54.90625
442.3936, 54.98896
442.8757, 55.48058
443.3578, 56.21897
443.8400, 56.60588
444.3221, 56.48955
444.8042, 56.40462
445.2863, 56.61987
445.7684, 56.91493
446.2505, 57.07673
446.7327, 57.05608
447.2148, 57.00389
447.6969, 57.11367
448.1790, 57.33088
448.6611, 57.31492
449.1432, 56.91628
449.6254, 56.46899
450.1075, 56.35520
450.5896, 56.44818
451.0717, 56.33422
451.5538, 55.75520
452.0359, 55.02890
452.5181, 54.49128
453.0002, 54.10755
453.4823, 53.60809
453.9644, 52.81427
454.4465, 51.89967
454.9286, 51.27256
455.4108, 50.98944
455.8929, 50.74899
456.3750, 50.48043
456.8571, 50.22276
457.3392, 50.02102
457.8214, 49.88005
458.3035, 49.76674
458.7856, 49.64839
459.2677, 49.52425
459.7498, 49.45874
460.2319, 49.51489
460.7141, 49.54742
461.1962, 49.49207
461.6783, 49.39559
462.1604, 49.30826
462.6425, 49.25208
463.1246, 49.25419
463.6068, 49.37711
464.0889, 49.69218
464.5710, 49.93696
465.0531, 50.03273
465.5352, 50.13537
466.0173, 50.32618
466.4995, 50.58805
466.9816, 50.86056
467.4637, 51.10680
467.9458, 51.33367
468.4279, 51.57426
468.9100, 51.85926
469.3922, 52.07965
469.8743, 52.12794
470.3564, 52.14590
470.8385, 52.26310
471.3206, 52.49693
471.8027, 52.72570
472.2849, 52.90737
472.7670, 53.01447
473.2491, 52.90028
473.7312, 52.48093
474.2133, 52.04375
474.6954, 51.79111
475.1776, 51.67557
475.6597, 51.60609
476.1418, 51.60650
476.6239, 51.60328
477.1060, 51.50142
477.5881, 51.35060
478.0703, 51.30254
478.5524, 51.41433
479.0345, 51.62243
479.5166, 51.82859
479.9987, 52.01160
480.4808, 52.31338
480.9630, 52.75730
481.4451, 53.30901
481.9272, 54.00384
482.4093, 54.79308
482.8914, 55.53319
483.3735, 56.13347
483.8557, 56.64699
484.3378, 57.26434
484.8199, 57.96064
485.3020, 58.81314
485.7841, 60.09032
486.2662, 61.33357
486.7484, 62.07631
487.2305, 62.35132
487.7126, 62.65044
488.1947, 63.50483
488.6768, 64.85358
489.1589, 65.70390
489.6411, 65.78045
490.1232, 65.77784
490.6053, 65.98396
491.0874, 66.21265
491.5695, 66.24307
492.0516, 66.00925
492.5338, 65.64359
493.0159, 65.32069
493.4980, 65.01353
493.9801, 64.46860
494.4622, 63.58693
494.9443, 62.58196
495.4265, 61.63688
495.9086, 60.71357
496.3907, 59.70370
496.8728, 58.56084
497.3549, 57.33736
497.8370, 56.08401
498.3192, 54.79366
498.8013, 53.38703
499.2834, 51.78426
499.7655, 50.20737
500.2476, 49.05037
500.7297, 48.47060
501.2119, 47.74255
501.6940, 46.61779
502.1761, 45.49939
502.6582, 44.65159
503.1403, 44.06414
503.6224, 43.63766
504.1045, 43.33276
504.5866, 43.07618
505.0688, 42.58297
505.5509, 41.49807
506.0330, 40.74251
506.5151, 40.68862
506.9972, 40.71216
507.4793, 40.28889
507.9615, 39.43768
508.4436, 38.58693
508.9257, 38.10823
509.4078, 37.93775
509.8899, 37.68482
510.3720, 37.25689
510.8542, 36.94888
511.3363, 37.01286
511.8184, 37.17522
512.3005, 37.16969
512.7827, 36.94291
513.2648, 36.61250
513.7469, 36.16984
514.2290, 35.69242
514.7111, 35.42950
515.1932, 35.44323
515.6754, 35.52572
516.1575, 35.54600
516.6396, 35.50361
517.1217, 35.41627
517.6038, 35.21874
518.0859, 35.05280
518.5681, 35.03035
519.0502, 35.06997
519.5323, 35.01144
520.0144, 34.81153
520.4965, 34.59642
520.9786, 34.52819
521.4608, 34.64265
521.9429, 34.68598
522.4250, 34.66594
522.9071, 34.57941
523.3892, 34.30102
523.8713, 33.99114
524.3535, 33.95447
524.8356, 34.31029
525.3177, 34.74766
525.7998, 34.67393
526.2819, 33.92972
526.7640, 33.47818
527.2462, 33.60412
527.7283, 33.80641
528.2104, 33.82034
528.6925, 33.72378
529.1746, 33.73422
529.6567, 34.02739
530.1389, 34.33564
530.6210, 34.21693
531.1031, 33.70216
531.5852, 33.34722
532.0673, 33.35650
532.5494, 33.51443
533.0316, 33.59502
533.5137, 33.60422
533.9958, 33.51895
534.4779, 33.19980
534.9600, 32.89585
535.4421, 32.82967
535.9243, 32.95338
536.4064, 33.09250
536.8885, 33.17027
537.3706, 33.18364
537.8527, 33.11884
538.3348, 32.89457
538.8170, 32.75550
539.2991, 32.76310
539.7812, 32.79418
540.2633, 32.73186
540.7454, 32.63023
541.2275, 32.65685
541.7097, 32.93200
542.1918, 33.34086
542.6739, 33.56832
543.1560, 33.54873
543.6381, 33.56083
544.1202, 33.67455
544.6024, 33.82387
545.0845, 34.02054
545.5666, 34.23478
546.0487, 34.33234
546.5308, 34.09200
547.0129, 33.77073
547.4951, 33.80135
547.9772, 34.17614
548.4593, 34.63881
548.9414, 35.16046
549.4235, 35.61924
549.9056, 35.70309
550.3878, 35.32350
550.8699, 35.16097
551.3520, 35.54898
551.8341, 36.04403
552.3162, 36.33191
552.7983, 36.39448
553.2805, 36.26458
553.7626, 35.93896
554.2447, 35.52281
554.7268, 35.33470
555.2089, 35.59606
555.6910, 35.69173
556.1732, 35.57131
556.6553, 35.33248
557.1374, 34.95143
557.6195, 34.49665
558.1016, 34.14430
558.5837, 34.03263
559.0659, 34.05060
559.5480, 33.92497
560.0301, 33.62922
560.5122, 33.35035
560.9943, 33.14916
561.4764, 32.97846
561.9586, 32.77211
562.4407, 32.53682
562.9228, 32.36732
563.4049, 32.36907
563.8870, 32.40491
564.3691, 32.30989
564.8513, 32.10564
565.3334, 31.91794
565.8155, 31.79519
566.2976, 31.74501
566.7797, 31.79200
567.2618, 32.01197
567.7440, 32.15260
568.2261, 32.18125
568.7082, 32.16073
569.1903, 32.07372
569.6724, 31.97063
570.1545, 31.97467
570.6367, 32.16087
571.1188, 32.40361
571.6009, 32.39394
572.0830, 32.02055
572.5651, 31.82509
573.0472, 32.05083
573.5294, 32.28588
574.0115, 32.22621
574.4936, 31.99224
574.9757, 31.93687
575.4578, 32.27633
575.9399, 32.75809
576.4221, 33.12777
576.9042, 33.39083
577.3863, 33.56648
577.8684, 33.63872
578.3505, 33.68385
578.8326, 33.77215
579.3148, 33.90520
579.7969, 34.13351
580.2790, 34.45851
580.7611, 34.87921
581.2432, 35.55224
581.7253, 36.27753
582.2075, 36.67991
582.6896, 36.64241
583.1717, 36.48101
583.6538, 36.63477
584.1359, 37.14743
584.6180, 37.66203
585.1002, 38.19390
585.5823, 38.71515
586.0643, 39.17078
586.5464, 39.62942
587.0286, 40.20219
587.5107, 40.93129
587.9928, 41.66705
588.4749, 42.26239
588.9570, 42.74476
589.4391, 43.21415
589.9213, 43.67921
590.4034, 44.14625
590.8855, 44.58324
591.3676, 45.03791
591.8497, 45.65755
592.3318, 46.50035
592.8140, 47.41224
593.2961, 48.43898
593.7782, 49.45584
594.2603, 50.32183
594.7424, 51.01817
595.2245, 51.59176
595.7067, 52.05841
596.1888, 52.44360
596.6709, 52.89033
597.1530, 53.41181
597.6351, 53.97997
598.1172, 54.52452
598.5994, 55.15739
599.0815, 56.04761
599.5636, 57.13462
600.0457, 58.12597
600.5278, 58.82100
601.0099, 59.30341
601.4921, 59.69059
601.9742, 59.98013
602.4563, 60.35442
602.9384, 60.92556
603.4205, 61.54213
603.9026, 61.98484
604.3848, 62.25909
604.8669, 62.48037
605.3490, 62.64512
605.8311, 62.78233
606.3132, 62.94445
606.7953, 63.09023
607.2775, 63.12988
607.7596, 63.02909
608.2417, 62.82563
608.7238, 62.55863
609.2059, 62.19416
609.6880, 61.93951
610.1702, 61.97972
610.6523, 61.91677
611.1344, 61.49063
611.6165, 60.93634
612.0986, 60.59795
612.5807, 60.58225
613.0629, 60.66166
613.5450, 60.59776
614.0271, 60.45981
614.5092, 60.51449
614.9913, 60.81874
615.4734, 61.08065
615.9556, 61.07345
616.4377, 60.89584
616.9198, 60.88893
617.4019, 61.04961
617.8840, 61.35921
618.3661, 61.93058
618.8483, 62.56785
619.3304, 63.05486
619.8125, 63.42353
620.2946, 63.86502
620.7767, 64.50062
621.2589, 65.30710
621.7410, 66.21988
622.2231, 67.26374
622.7052, 68.34211
623.1873, 69.49523
623.6694, 70.63383
624.1516, 71.60609
624.6337, 72.50780
625.1158, 73.61590
625.5979, 75.06729
626.0800, 76.71499
626.5621, 78.43700
627.0443, 80.22548
627.5264, 82.02071
628.0085, 83.81362
628.4906, 85.62310
628.9727, 87.46745
629.4548, 89.33921
629.9370, 91.42451
630.4191, 93.56652
630.9012, 96.06988
631.3833, 99.22505
631.8654, 102.6645
632.3475, 105.9887
632.8297, 109.1641
633.3118, 112.4749
633.7939, 116.1607
634.2760, 120.1665
634.7581, 124.1661
635.2402, 128.1249
635.7224, 132.2041
636.2045, 136.2116
636.6866, 140.5754
637.1687, 145.7607
637.6508, 151.7162
638.1329, 157.7787
638.6151, 163.6820
639.0972, 169.6736
639.5793, 175.8427
640.0614, 182.2402
640.5435, 188.9609
641.0256, 196.0028
641.5078, 203.6119
641.9899, 212.1015
642.4720, 221.5395
642.9541, 231.2986
643.4362, 241.6066
643.9183, 251.9818
644.4005, 262.1386
644.8826, 272.3605
645.3647, 282.9677
645.8468, 294.0002
646.3289, 305.3360
646.8110, 316.9129
647.2932, 328.6144
647.7753, 340.3979
648.2574, 352.2626
648.7395, 362.9586
649.2216, 371.8066
649.7037, 379.3466
650.1859, 386.6399
650.6680, 394.1859
651.1501, 399.4520
651.6322, 401.9608
652.1143, 402.4450
652.5964, 401.5807
653.0786, 398.9312
653.5607, 393.3097
654.0428, 384.3662
654.5249, 373.6253
655.0070, 363.2289
655.4891, 353.2283
655.9713, 342.0659
656.4534, 329.3307
656.9355, 316.2570
657.4176, 302.9989
657.8997, 289.9733
658.3818, 277.6136
658.8640, 265.9848
659.3461, 254.8660
659.8282, 243.9929
660.3103, 233.6953
660.7924, 224.3647
661.2745, 215.9457
661.7567, 207.9153
662.2388, 199.9928
662.7209, 192.4848
663.2030, 186.0066
663.6851, 180.8297
664.1672, 175.7241
664.6494, 170.3205
665.1315, 165.3625
665.6136, 161.0910
666.0957, 157.4223
666.5778, 154.2980
667.0599, 151.6996
667.5421, 149.3596
668.0242, 147.0246
668.5063, 144.7788
668.9884, 142.8407
669.4705, 141.2299
669.9526, 139.6946
670.4348, 138.0794
670.9169, 136.5138
671.3990, 135.3211
671.8811, 134.7027
672.3632, 133.9592
672.8453, 132.8062
673.3275, 131.7990
673.8096, 131.2345
674.2917, 131.0368
674.7738, 131.0607
675.2559, 131.2499
675.7380, 131.5518
676.2202, 131.8940
676.7023, 132.2838
677.1844, 132.8569
677.6665, 133.7328
678.1486, 134.3749
678.6307, 134.1717
679.1129, 133.7645
679.5950, 134.4328
680.0771, 136.4571
680.5592, 138.2855
681.0413, 139.4081
681.5234, 140.3078
682.0056, 141.1553
682.4877, 142.1024
682.9698, 143.5583
683.4519, 145.6809
683.9340, 147.8417
684.4161, 149.0071
684.8983, 149.0590
685.3804, 149.4721
685.8625, 150.3819
686.3446, 151.4148
686.8267, 152.5916
687.3088, 153.7075
687.7910, 154.5852
688.2731, 155.2188
688.7552, 155.4208
689.2373, 154.9748
689.7194, 154.1547
690.2015, 153.3028
690.6837, 152.3460
691.1658, 150.9258
691.6479, 148.8799
692.1300, 146.5729
692.6121, 144.5358
693.0942, 142.8547
693.5764, 140.9149
694.0585, 138.6913
694.5406, 136.2389
695.0227, 133.4726
695.5048, 130.5655
695.9869, 127.6526
696.4691, 124.7657
696.9512, 121.9253
697.4333, 119.1200
697.9154, 116.3720
698.3975, 113.6069
698.8796, 110.8841
699.3618, 108.5006
699.8439, 106.5984
700.3260, 104.9000
700.8081, 103.0360
701.2902, 100.9558
701.7723, 99.18993
702.2545, 98.07060
702.7366, 96.87595
703.2187, 95.23596
703.7008, 93.61629
704.1829, 92.50031
704.6650, 91.91413
705.1472, 91.47234
705.6293, 90.96941
706.1114, 90.43552
706.5935, 89.85705
707.0756, 89.26811
707.5577, 88.92766
708.0399, 88.94624
708.5220, 89.05056
709.0041, 88.91919
709.4862, 88.55069
709.9683, 88.43445
710.4504, 88.86902
710.9326, 89.14887
711.4147, 89.12526
711.8968, 88.92594
712.3789, 88.58898
712.8610, 88.17395
713.3431, 87.83815
713.8253, 87.70671
714.3074, 87.65392
714.7895, 87.48073
715.2716, 87.20239
715.7537, 86.92931
716.2358, 86.69659
716.7180, 86.42273
717.2001, 86.05435
717.6822, 85.59037
718.1643, 84.99915
718.6464, 84.17488
719.1285, 83.38656
719.6107, 82.64053
720.0928, 81.95616
720.5749, 81.51463
721.0570, 81.13764
721.5391, 80.33897
722.0212, 78.82467
722.5034, 77.09454
722.9855, 75.83855
723.4676, 74.97445
723.9497, 74.05962
724.4318, 73.03904
724.9139, 71.98787
725.3961, 70.94820
725.8782, 69.91711
726.3603, 68.92368
726.8424, 68.03365
727.3245, 67.01888
727.8066, 65.80852
728.2888, 64.52342
728.7709, 63.15636
729.2530, 61.78764
729.7351, 60.55788
730.2172, 59.51492
730.6993, 58.55831
731.1815, 57.60436
731.6636, 56.65377
732.1457, 55.71807
732.6278, 54.80048
733.1099, 53.84409
733.5920, 52.78904
734.0742, 51.73194
734.5563, 50.84921
735.0384, 50.20123
735.5205, 49.40495
736.0026, 48.33037
736.4847, 47.26265
736.9669, 46.21404
737.4490, 45.27924
737.9311, 44.59338
738.4132, 44.15152
738.8953, 43.75405
739.3774, 43.25892
739.8596, 42.69525
740.3417, 42.11016
740.8238, 41.50465
741.3059, 40.89957
741.7880, 40.28576
742.2701, 39.73695
742.7523, 39.34974
743.2344, 39.10766
743.7165, 38.77943
744.1986, 38.26148
744.6807, 37.80918
745.1628, 37.50173
745.6450, 37.23126
746.1271, 36.92000
746.6092, 36.57386
747.0913, 36.20928
747.5734, 35.80841
748.0555, 35.50489
748.5377, 35.60519
749.0198, 35.95736
749.5019, 35.93016
749.9840, 35.43309
750.4661, 34.91340
750.9482, 34.61414
751.4304, 34.50487
751.9125, 34.52008
752.3946, 34.73987
752.8767, 34.89632
753.3588, 35.01771
753.8409, 35.05132
754.3231, 34.91692
754.8052, 34.70702
755.2873, 34.53097
755.7694, 34.41772
756.2515, 34.37379
756.7336, 34.40396
757.2158, 34.50679
757.6979, 34.72936
758.1800, 35.04052
758.6621, 35.24852
759.1442, 35.28071
759.6263, 35.25446
760.1085, 35.31763
760.5906, 35.47065
761.0727, 35.50737
761.5548, 35.24398
762.0369, 35.14161
762.5190, 35.38290
763.0012, 35.70514
763.4833, 35.93319
763.9654, 36.06755
764.4475, 36.17894
764.9296, 36.30151
765.4117, 36.39830
765.8939, 36.40583
766.3760, 36.37762
766.8581, 36.46478
767.3402, 36.65699
767.8223, 36.70454
768.3044, 36.42749
768.7866, 35.98930
769.2687, 35.84009
769.7508, 36.12146
770.2329, 36.16301
770.7150, 35.83598
771.1971, 35.41963
771.6793, 35.01263
772.1614, 34.60841
772.6435, 34.19844
773.1256, 33.78098
773.6077, 33.37225
774.0898, 32.94384
774.5720, 32.56005
775.0541, 32.32986
775.5362, 32.17222
776.0183, 31.91673
776.5004, 31.51800
776.9825, 31.05927
777.4647, 30.61352
777.9468, 30.18440
778.4289, 29.77665
778.9110, 29.36507
779.3931, 29.11944
779.8752, 29.20277
780.3574, 29.27722
780.8395, 28.97029
781.3216, 28.37174
781.8037, 27.96124
782.2858, 27.88516
782.7679, 27.81207
783.2501, 27.65214
783.7322, 27.47233
784.2143, 27.33511
784.6964, 27.22646
785.1785, 27.09884
785.6606, 26.93067
786.1428, 26.72738
786.6249, 26.45119
787.1070, 26.14118
787.5891, 25.98313
788.0712, 25.99338
788.5533, 26.00412
789.0355, 25.93522
789.5176, 25.84148
789.9997, 25.81437
790.4818, 25.87323
790.9639, 25.87619
791.4460, 25.78891
791.9282, 25.69211
792.4103, 25.59164
792.8924, 25.49819
793.3745, 25.44076
793.8566, 25.40491
794.3387, 25.31233
794.8209, 25.07787
795.3030, 24.84370
795.7851, 24.73166
796.2672, 24.72756
796.7493, 24.84001
797.2314, 25.05230
797.7136, 25.23419
798.1957, 25.30377
798.6778, 25.27862
799.1599, 25.17865
799.6420, 24.95885
800.1241, 24.86253
800.6063, 25.01871
801.0884, 25.10372
801.5705, 24.86586
802.0526, 24.52421
802.5347, 24.34191
803.0168, 24.34108
803.4990, 24.40065
803.9811, 24.53821
804.4632, 24.67259
804.9453, 24.76006
805.4274, 24.80775
805.9095, 24.82327
806.3917, 24.81242
806.8738, 24.79203
807.3559, 24.78076
807.8380, 24.75903
808.3201, 24.66401
808.8022, 24.50013
809.2844, 24.38341
809.7665, 24.33520
810.2486, 24.32924
810.7307, 24.36290
811.2128, 24.41536
811.6949, 24.42127
812.1771, 24.35956
812.6592, 24.29220
813.1413, 24.18604
813.6234, 24.11102
814.1055, 24.14947
814.5876, 24.21302
815.0698, 24.16086
815.5519, 23.97351
816.0340, 23.80793
816.5161, 23.75992
816.9982, 23.78662
817.4803, 23.88498
817.9625, 24.01278
818.4446, 24.05072
818.9267, 23.97565
819.4088, 23.86502
819.8909, 23.77677
820.3730, 23.72049
820.8552, 23.75429
821.3373, 23.92303
821.8194, 23.97153
822.3015, 23.78977
822.7836, 23.62391
823.2657, 23.68202
823.7479, 23.83700
824.2300, 23.82102
824.7121, 23.56833
825.1942, 23.37745
825.6763, 23.29433
826.1584, 23.30283
826.6406, 23.44727
827.1227, 23.65363
827.6048, 23.83962
828.0869, 23.97761
828.5690, 24.04821
829.0511, 24.01591
829.5333, 23.92918
830.0154, 23.87388
830.4975, 23.84060
830.9796, 23.78412
831.4617, 23.69553
831.9438, 23.57157
832.4260, 23.38920
832.9081, 23.20368
833.3902, 23.20392
833.8723, 23.53296
834.3544, 23.66731
834.8365, 23.41763
835.3187, 23.20949
835.8008, 23.22285
836.2829, 23.35905
836.7650, 23.54306
837.2471, 23.76904
837.7292, 23.85375
838.2114, 23.57657
838.6935, 23.31333
839.1756, 23.35990
839.6577, 23.53799
840.1398, 23.59436
840.6219, 23.50079
841.1041, 23.35927
841.5862, 23.21604
842.0683, 23.13688
842.5504, 23.32422
843.0325, 23.71389
843.5146, 23.83289
843.9968, 23.61058
844.4789, 23.36106
844.9610, 23.25106
845.4431, 23.21243
845.9252, 23.11694
846.4073, 22.93987
846.8895, 22.83017
847.3716, 22.77466
847.8537, 22.80744
848.3358, 23.06196
848.8179, 23.30975
849.3000, 23.32274
849.7822, 23.13082
850.2643, 22.95238
850.7464, 22.83737
851.2285, 22.77993
851.7106, 22.82882
852.1927, 22.89850
852.6749, 22.86448
853.1570, 22.75601
853.6391, 22.72096
854.1212, 22.82691
854.6033, 22.92035
855.0854, 22.73275
855.5676, 22.35130
856.0497, 22.23077
856.5318, 22.38363
857.0139, 22.50884
857.4960, 22.50963
857.9781, 22.44686
858.4603, 22.37387
858.9424, 22.29398
859.4245, 22.24796
859.9066, 22.28971
860.3887, 22.27205
860.8708, 22.11821
861.3530, 21.97095
861.8351, 21.86920
862.3172, 21.83670
862.7993, 21.93746
863.2814, 22.21204
863.7635, 22.43400
864.2457, 22.52475
864.7278, 22.51147
865.2099, 22.35357
865.6920, 22.13028
866.1741, 21.95241
866.6563, 21.85383
867.1384, 21.85493
867.6205, 22.00585
868.1026, 22.19698
868.5847, 22.19379
869.0668, 22.02812
869.5490, 21.90342
870.0311, 21.84831
870.5132, 21.81948
870.9953, 21.78844
871.4774, 21.77622
871.9595, 21.83102
872.4417, 21.97119
872.9238, 22.07904
873.4059, 22.14104
873.8880, 22.19307
874.3701, 22.25674
874.8522, 22.30588
875.3344, 22.31016
875.8165, 22.27640
876.2986, 22.24603
876.7807, 22.20291
877.2628, 22.20003
877.7449, 22.35218
878.2271, 22.47190
878.7092, 22.32598
879.1913, 22.02411
879.6734, 21.82817
880.1555, 21.83055
880.6376, 21.93253
881.1198, 22.10128
881.6019, 22.27888
882.0840, 22.33990
882.5661, 22.30841
883.0482, 22.29574
883.5303, 22.32989
884.0125, 22.35418
884.4946, 22.30809
884.9767, 22.24175
885.4588, 22.35424
885.9409, 22.70466
886.4230, 22.88458
886.9052, 22.77316
887.3873, 22.70422
887.8694, 22.88111
888.3515, 23.16781
888.8336, 23.35156
889.3157, 23.42533
889.7979, 23.44732
890.2800, 23.29072
890.7621, 23.24947
891.2442, 23.53776
891.7263, 23.86316
892.2084, 23.92038
892.6906, 23.79069
893.1727, 23.80305
893.6548, 24.12503
894.1369, 24.41453
894.6190, 24.38024
895.1011, 24.23400
895.5833, 24.19353
896.0654, 24.26101
896.5475, 24.41735
897.0296, 24.64471
897.5117, 24.86406
897.9938, 24.99357
898.4760, 25.06906
898.9581, 25.16407
899.4402, 25.28297
899.9223, 25.49841
900.4044, 25.83052
900.8865, 26.18458
901.3687, 26.50547
901.8508, 26.80167
902.3329, 27.09858
902.8150, 27.41724
903.2971, 27.61785
903.7792, 27.50472
904.2614, 27.61318
904.7435, 28.27068
905.2256, 29.07870
905.7077, 29.68704
906.1898, 30.12159
906.6719, 30.53083
907.1541, 30.80252
907.6362, 31.25590
908.1183, 32.18869
908.6004, 33.11658
909.0825, 33.56682
909.5646, 33.80643
910.0468, 34.33669
910.5289, 35.27991
911.0110, 36.37361
911.4931, 37.53138
911.9752, 38.66716
912.4573, 39.68087
912.9395, 40.61361
913.4216, 41.52892
913.9037, 42.45319
914.3858, 43.46606
914.8679, 44.61842
915.3500, 45.83491
915.8321, 46.99701
916.3142, 48.10142
916.7963, 49.15197
917.2784, 50.14745
917.7606, 51.12306
918.2427, 52.10201
918.7248, 53.01339
919.2069, 53.74585
919.6890, 54.34978
920.1711, 55.24562
920.6533, 56.53071
921.1354, 57.87867
921.6175, 59.20598
922.0996, 60.66614
922.5817, 62.41894
923.0638, 64.32685
923.5460, 66.17393
924.0281, 67.93331
924.5102, 69.82666
924.9923, 71.98752
925.4744, 74.16860
925.9565, 76.24181
926.4387, 78.33321
926.9208, 80.65959
927.4029, 83.10539
927.8850, 85.26801
928.3671, 86.99699
928.8492, 88.50796
929.3314, 90.18526
929.8135, 91.53265
930.2956, 91.87090
930.7777, 91.46870
931.2598, 90.98641
931.7419, 90.56013
932.2241, 89.87419
932.7062, 88.71220
933.1883, 87.07000
933.6704, 84.76893
934.1525, 81.96455
934.6346, 79.38806
935.1168, 77.10144
935.5989, 74.54182
936.0810, 71.42731
936.5631, 68.16791
937.0452, 65.29194
937.5273, 62.79232
938.0095, 60.60224
938.4916, 58.84505
938.9737, 56.84182
939.4558, 54.34217
939.9379, 51.77528
940.4200, 49.30614
940.9022, 47.03331
941.3843, 45.22729
941.8664, 44.04522
942.3485, 42.83465
942.8306, 41.66329
943.3127, 40.38324
943.7949, 38.71515
944.2770, 37.11089
944.7591, 36.03244
945.2412, 35.39619
945.7233, 34.77526
946.2054, 34.08540
946.6876, 33.38150
947.1697, 32.57301
947.6518, 31.86435
948.1339, 31.45438
948.6160, 31.23106
949.0981, 31.00198
949.5803, 30.73660
950.0624, 30.55927
950.5445, 30.65025
951.0266, 30.70330
951.5087, 30.22743
951.9908, 29.59458
952.4730, 29.50124
952.9551, 29.88050
953.4372, 30.21223
953.9193, 30.27737
954.4014, 30.24272
954.8835, 30.30057
955.3657, 30.40153
955.8478, 30.38079
956.3299, 30.25881
956.8120, 30.15602
957.2941, 30.09567
957.7762, 30.20371
958.2584, 30.58320
958.7405, 31.09464
959.2226, 31.47469
959.7047, 31.72285
960.1868, 31.83136
960.6689, 31.76353
961.1511, 31.70458
961.6332, 31.70786
962.1153, 31.73775
962.5974, 31.78648
963.0795, 31.82967
963.5616, 31.74941
964.0438, 31.40588
964.5259, 31.24041
965.0080, 31.37530
965.4901, 31.53215
965.9722, 31.58396
966.4543, 31.63347
966.9365, 31.79782
967.4186, 32.06808
967.9007, 32.32849
968.3828, 32.49208
968.8649, 32.75034
969.3470, 33.20134
969.8292, 33.69990
970.3113, 34.22634
970.7934, 34.70129
971.2755, 34.95234
971.7576, 34.97371
972.2397, 35.11900
972.7219, 35.59779
973.2040, 36.20235
973.6861, 36.79684
974.1682, 37.44991
974.6503, 38.34129
975.1324, 39.35091
975.6146, 40.14207
976.0967, 40.60151
976.5788, 40.97326
977.0609, 41.45015
977.5430, 41.97848
978.0251, 42.51495
978.5073, 43.03657
978.9894, 43.51627
979.4715, 43.93861
979.9536, 44.25727
980.4357, 44.44770
980.9178, 44.53849
981.4000, 44.59046
981.8821, 44.57500
982.3642, 44.37226
982.8463, 43.99149
983.3284, 43.47713
983.8105, 42.84066
984.2927, 42.20045
984.7748, 41.63281
985.2569, 41.16259
985.7390, 40.86241
986.2211, 40.74099
986.7032, 40.63905
987.1854, 40.56369
987.6675, 40.44850
988.1496, 40.25496
988.6317, 40.05308
989.1138, 39.87003
989.5959, 39.75541
990.0781, 39.94939
990.5602, 40.58591
991.0423, 41.14033
991.5244, 41.55510
992.0065, 41.96731
992.4886, 42.33685
992.9708, 42.82130
993.4529, 43.63955
993.9350, 44.76032
994.4171, 45.83517
994.8992, 46.69948
995.3813, 47.76834
995.8635, 49.18095
996.3456, 50.65435
996.8277, 52.04726
997.3098, 53.43323
997.7919, 54.87092
998.2740, 56.37402
998.7562, 58.07919
999.2383, 60.14961
999.7204, 62.22179
1000.203, 64.24036
1000.685, 66.19500
1001.167, 67.82089
1001.649, 69.49058
1002.131, 71.86685
1002.613, 75.03216
1003.095, 78.14307
1003.577, 80.80467
1004.059, 83.35344
1004.542, 85.80692
1005.024, 88.36954
1005.506, 91.20417
1005.988, 94.32130
1006.470, 97.75986
1006.952, 101.5113
1007.434, 105.4262
1007.916, 109.4018
1008.398, 113.4765
1008.881, 117.7054
1009.363, 122.0150
1009.845, 126.3701
1010.327, 130.7001
1010.809, 134.9763
1011.291, 139.1568
1011.773, 143.0704
1012.255, 146.6727
1012.738, 149.8042
1013.220, 152.1973
1013.702, 153.9516
1014.184, 155.4281
1014.666, 156.5713
1015.148, 156.8209
1015.630, 155.9009
1016.112, 154.3363
1016.594, 152.5504
1017.077, 150.7164
1017.559, 149.4355
1018.041, 148.5561
1018.523, 147.2437
1019.005, 145.3978
1019.487, 143.5754
1019.969, 142.0790
1020.451, 140.8059
1020.934, 139.5750
1021.416, 138.4181
1021.898, 137.5273
1022.380, 136.8954
1022.862, 136.2283
1023.344, 135.4438
1023.826, 135.0513
1024.308, 135.4012
1024.791, 136.1924
1025.273, 136.9193
1025.755, 137.5843
1026.237, 138.1752
1026.719, 138.6924
1027.201, 139.1906
1027.683, 139.7656
1028.165, 139.9605
1028.647, 139.4803
1029.130, 138.3980
1029.612, 136.8796
1030.094, 134.9246
1030.576, 132.4229
1031.058, 129.2769
1031.540, 125.9044
1032.022, 122.4150
1032.504, 118.6412
1032.986, 114.3451
1033.469, 109.7729
1033.951, 105.4147
1034.433, 101.2777
1034.915, 97.38254
1035.397, 93.76057
1035.879, 90.27125
1036.361, 86.73071
1036.843, 83.51395
1037.326, 80.95445
1037.808, 78.87941
1038.290, 76.89529
1038.772, 74.94640
1039.254, 73.30037
1039.736, 71.85186
1040.218, 70.89011
1040.700, 70.80807
1041.182, 70.87619
1041.665, 70.52577
1042.147, 69.97947
1042.629, 69.75302
1043.111, 69.88433
1043.593, 70.16119
1044.075, 70.52470
1044.557, 71.10864
1045.039, 72.02896
1045.521, 73.08953
1046.004, 74.17717
1046.486, 75.30228
1046.968, 76.48067
1047.450, 77.68503
1047.932, 79.08071
1048.414, 80.86905
1048.896, 82.60915
1049.378, 84.24419
1049.861, 85.73734
1050.343, 87.00732
1050.825, 88.14486
1051.307, 89.40355
1051.789, 90.86736
1052.271, 91.89281
1052.753, 92.08652
1053.235, 92.18126
1053.718, 92.37698
1054.200, 92.57762
1054.682, 92.64603
1055.164, 92.68452
1055.646, 92.87106
1056.128, 93.23002
1056.610, 93.77579
1057.092, 94.63034
1057.574, 95.51112
1058.057, 96.30016
1058.539, 97.10068
1059.021, 97.93950
1059.503, 98.87022
1059.985, 99.90649
1060.467, 101.0625
1060.949, 102.6664
1061.431, 105.0143
1061.913, 107.5834
1062.396, 110.3174
1062.878, 113.0712
1063.360, 115.6326
1063.842, 118.1734
1064.324, 121.2258
1064.806, 124.7696
1065.288, 127.4373
1065.770, 128.2914
1066.253, 128.7457
1066.735, 129.8176
1067.217, 130.2818
1067.699, 129.1147
1068.181, 126.7345
1068.663, 123.8101
1069.145, 120.4802
1069.627, 116.6653
1070.109, 111.9905
1070.592, 107.3755
1071.074, 103.2502
1071.556, 99.30177
1072.038, 95.04237
1072.520, 90.90165
1073.002, 87.55174
1073.484, 84.99478
1073.966, 82.57181
1074.448, 80.02775
1074.931, 77.58957
1075.413, 75.27858
1075.895, 73.21372
1076.377, 71.54617
1076.859, 70.13637
1077.341, 68.86510
1077.823, 67.67761
1078.305, 66.48481
1078.788, 65.25282
1079.270, 64.01517
1079.752, 62.80898
1080.234, 61.58624
1080.716, 60.28196
1081.198, 58.96162
1081.680, 57.69900
1082.162, 56.48669
1082.644, 55.21404
1083.127, 53.80714
1083.609, 52.56916
1084.091, 51.87976
1084.573, 51.10064
1085.055, 49.68710
1085.537, 48.10058
1086.019, 46.76839
1086.501, 45.71640
1086.984, 44.90652
1087.466, 44.35116
1087.948, 43.77353
1088.430, 43.15349
1088.912, 42.36141
1089.394, 41.21312
1089.876, 39.96138
1090.358, 38.78899
1090.840, 37.71983
1091.323, 36.77369
1091.805, 35.95257
1092.287, 35.14632
1092.769, 34.21603
1093.251, 33.41772
1093.733, 33.06536
1094.215, 32.67977
1094.697, 31.77714
1095.179, 30.63446
1095.662, 29.74693
1096.144, 29.16476
1096.626, 28.57169
1097.108, 27.79742
1097.590, 27.11075
1098.072, 26.59171
1098.554, 26.19541
1099.036, 25.95906
1099.519, 25.78735
1100.001, 25.57754
1100.483, 25.31885
1100.965, 25.01723
1101.447, 24.63654
1101.929, 24.30113
1102.411, 23.90734
1102.893, 23.73119
1103.375, 24.31226
1103.858, 24.85515
1104.340, 24.30837
1104.822, 23.00665
1105.304, 22.30714
1105.786, 22.62228
1106.268, 22.74064
1106.750, 22.19791
1107.232, 21.75730
1107.714, 21.82159
1108.197, 21.94221
1108.679, 21.71780
1109.161, 21.29269
1109.643, 21.03126
1110.125, 20.98796
1110.607, 20.90543
1111.089, 20.71125
1111.571, 20.54839
1112.054, 20.50717
1112.536, 20.43606
1113.018, 20.19799
1113.500, 19.90110
1113.982, 19.70758
1114.464, 19.62059
1114.946, 19.57641
1115.428, 19.66855
1115.911, 19.64620
1116.393, 19.43208
1116.875, 19.19239
1117.357, 18.99652
1117.839, 18.79929
1118.321, 18.49982
1118.803, 18.14707
1119.285, 18.04183
1119.767, 18.33379
1120.250, 18.49825
1120.732, 18.49877
1121.214, 18.44630
1121.696, 18.37549
1122.178, 18.24806
1122.660, 17.98179
1123.142, 17.68053
1123.624, 17.64626
1124.106, 17.93936
1124.589, 18.01315
1125.071, 17.78019
1125.553, 17.63821
1126.035, 17.69253
1126.517, 17.76176
1126.999, 17.74761
1127.481, 17.66626
1127.963, 17.53501
1128.446, 17.35957
1128.928, 17.21315
1129.410, 17.10280
1129.892, 16.93955
1130.374, 16.69870
1130.856, 16.54146
1131.338, 16.54888
1131.820, 16.57964
1132.302, 16.47202
1132.785, 16.29548
1133.267, 16.29434
1133.749, 16.45266
1134.231, 16.50657
1134.713, 16.44652
1135.195, 16.36787
1135.677, 16.29700
1136.159, 16.17006
1136.641, 15.92741
1137.124, 15.68326
1137.606, 15.67151
1138.088, 15.81425
1138.570, 15.78067
1139.052, 15.62538
1139.534, 15.66785
1140.016, 15.91081
1140.498, 15.98224
1140.981, 15.71046
1141.463, 15.35166
1141.945, 15.13852
1142.427, 15.05873
1142.909, 15.16255
1143.391, 15.35119
1143.873, 15.41890
1144.355, 15.36654
1144.838, 15.24937
1145.320, 15.09594
1145.802, 14.95757
1146.284, 14.86625
1146.766, 14.81175
1147.248, 14.79001
1147.730, 14.79383
1148.212, 14.83145
1148.694, 14.87946
1149.177, 14.89235
1149.659, 14.87589
1150.141, 14.88897
1150.623, 14.96259
1151.105, 14.98178
1151.587, 14.83124
1152.069, 14.65410
1152.551, 14.51849
1153.033, 14.43148
1153.516, 14.40458
1153.998, 14.42903
1154.480, 14.52209
1154.962, 14.67564
1155.444, 14.72154
1155.926, 14.48504
1156.408, 14.30939
1156.890, 14.37605
1157.373, 14.44303
1157.855, 14.36162
1158.337, 14.21343
1158.819, 14.04671
1159.301, 13.89909
1159.783, 13.92446
1160.265, 14.23852
1160.747, 14.44817
1161.229, 14.52625
1161.712, 14.49915
1162.194, 14.22737
1162.676, 14.02646
1163.158, 14.17484
1163.640, 14.47838
1164.122, 14.59748
1164.604, 14.53026
1165.086, 14.33798
1165.568, 13.90922
1166.051, 13.70791
1166.533, 13.83696
1167.015, 13.75988
1167.497, 14.08297
1167.979, 14.25927
1168.461, 14.29669
1168.943, 13.77924
1169.425, 13.97829
1169.908, 13.89017
1170.390, 13.79030
1170.872, 14.09020
1171.354, 13.65345
1171.836, 13.94700
1172.318, 13.94904
1172.800, 14.08449
1173.282, 13.83045
1173.765, 13.64035
1174.247, 13.39130
1174.729, 13.48166
1175.211, 13.80120
1175.693, 13.93970
1176.175, 13.89772
1176.657, 13.92315
1177.139, 14.08348
1177.621, 14.18737
1178.104, 14.08657
1178.586, 13.89600
1179.068, 13.70996
1179.550, 13.55262
1180.032, 13.46351
1180.514, 13.42619
1180.996, 13.40508
1181.478, 13.40196
1181.960, 13.46025
1182.443, 13.59937
1182.925, 13.69770
1183.407, 13.63632
1183.889, 13.57190
1184.371, 13.58066
1184.853, 13.64617
1185.335, 13.81209
1185.817, 13.99274
1186.300, 14.04238
1186.782, 13.96056
1187.264, 13.89438
1187.746, 13.89896
1188.228, 13.86785
1188.710, 13.69488
1189.192, 13.59870
1189.674, 13.72777
1190.156, 13.89779
1190.639, 14.00518
1191.121, 14.02871
1191.603, 13.88633
1192.085, 13.55115
1192.567, 13.42255
1193.049, 13.59188
1193.531, 13.70535
1194.013, 13.72003
1194.495, 13.67807
1194.978, 13.56914
1195.460, 13.50577
1195.942, 13.62076
1196.424, 13.84074
1196.906, 13.94139
1197.388, 13.92927
1197.870, 13.94767
1198.352, 13.99458
1198.835, 13.97586
1199.317, 13.87842
1199.799, 13.80854
1200.281, 13.82281
1200.763, 13.84429
1201.245, 13.75980
1201.727, 13.65927
1202.209, 13.74279
1202.692, 13.91575
1203.174, 14.00082
1203.656, 13.99327
1204.138, 13.90382
1204.620, 13.75768
1205.102, 13.63886
1205.584, 13.58049
1206.066, 13.61019
1206.548, 13.84311
1207.031, 14.06324
1207.513, 14.09853
1207.995, 14.03744
1208.477, 13.93089
1208.959, 13.82648
1209.441, 13.80867
1209.923, 13.88682
1210.405, 13.94886
1210.887, 14.03607
1211.370, 13.99934
1211.852, 13.64409
1212.334, 13.37647
1212.816, 13.45780
1213.298, 13.59960
1213.780, 13.51920
1214.262, 13.34527
1214.744, 13.43434
1215.227, 13.83236
1215.709, 13.96956
1216.191, 13.76186
1216.673, 13.65285
1217.155, 13.72119
1217.637, 13.78700
1218.119, 13.77698
1218.601, 13.69145
1219.083, 13.50160
1219.566, 13.31939
1220.048, 13.52865
1220.530, 13.98691
1221.012, 13.96788
1221.494, 13.55886
1221.976, 13.18893
1222.458, 12.97153
1222.940, 13.04448
1223.422, 13.45789
1223.905, 13.85289
1224.387, 13.90628
1224.869, 13.80518
1225.351, 13.69514
1225.833, 13.59341
1226.315, 13.47754
1226.797, 13.40896
1227.279, 13.51259
1227.762, 13.76406
1228.244, 14.04131
1228.726, 14.35358
1229.208, 14.42883
1229.690, 13.88817
1230.172, 13.49375
1230.654, 13.62726
1231.136, 13.86949
1231.619, 13.99863
1232.101, 14.03723
1232.583, 14.00486
1233.065, 13.91763
1233.547, 13.88728
1234.029, 13.95705
1234.511, 13.91219
1234.993, 13.67364
1235.475, 13.65952
1235.958, 14.03210
1236.440, 14.29147
1236.922, 14.12130
1237.404, 13.83441
1237.886, 13.87029
1238.368, 14.09331
1238.850, 14.06326
1239.332, 13.84848
1239.814, 13.70388
1240.297, 13.64574
1240.779, 13.66053
1241.261, 13.73548
1241.743, 13.83906
1242.225, 13.95757
1242.707, 14.05292
1243.189, 14.09450
1243.671, 14.09434
1244.154, 14.05086
1244.636, 13.98279
1245.118, 13.88430
1245.600, 13.78944
1246.082, 13.74687
1246.564, 13.76119
1247.046, 13.81698
1247.528, 13.91765
1248.010, 14.03906
1248.493, 14.31781
1248.975, 14.40992
1249.457, 14.07366
1249.939, 13.74044
1250.421, 13.65721
1250.903, 13.69629
1251.385, 13.68975
1251.867, 13.65220
1252.349, 13.67292
1252.832, 13.75848
1253.314, 13.82493
1253.796, 13.87050
1254.278, 13.85362
1254.760, 13.76678
1255.242, 13.67528
1255.724, 13.61387
1256.206, 13.60050
1256.689, 13.68053
1257.171, 13.77969
1257.653, 13.73549
1258.135, 13.65026
1258.617, 13.76854
1259.099, 13.95917
1259.581, 13.87710
1260.063, 13.55927
1260.546, 13.37595
1261.028, 13.46335
1261.510, 13.59861
1261.992, 13.71864
1262.474, 13.81488
1262.956, 13.88463
1263.438, 13.92779
1263.920, 13.97293
1264.402, 13.96725
1264.885, 13.75238
1265.367, 13.45091
1265.849, 13.54729
1266.331, 14.16051
1266.813, 14.36030
1267.295, 14.02394
1267.777, 13.89670
1268.259, 14.12739
1268.741, 14.25047
1269.224, 14.05780
1269.706, 13.81657
1270.188, 13.77885
1270.670, 13.84350
1271.152, 13.84009
1271.634, 13.78603
1272.116, 13.70617
1272.598, 13.61504
1273.081, 13.49954
1273.563, 13.40789
1274.045, 13.50143
1274.527, 13.80588
1275.009, 14.09298
1275.491, 14.28767
1275.973, 14.35376
1276.455, 14.14622
1276.938, 13.96495
1277.420, 14.03928
1277.902, 14.15408
1278.384, 14.10133
1278.866, 13.94916
1279.348, 13.84708
1279.830, 13.79303
1280.312, 13.72021
1280.794, 13.59173
1281.276, 13.62621
1281.759, 13.89001
1282.241, 13.93134
1282.723, 13.60227
1283.205, 13.40896
1283.687, 13.67212
1284.169, 14.04505
1284.651, 14.07255
1285.133, 13.92625
1285.616, 13.89765
1286.098, 13.98577
##END=



