##NAMES=Inyoite
##RRUFFID=R040161
##IDEAL CHEMISTRY=CaB_3_O_3_(OH)_5_&#183;4H_2_O
##LOCALITY=Kramer deposit, Boron, Kern County, California, USA
##OWNER=RRUFF
##SOURCE=University of Arizona Mineral Museum
##DESCRIPTION=Group of colorless indistinct rounded crystals
##STATUS=The identification of this mineral has been confirmed by X-ray diffraction and chemical analysis
##URL=rruff.info/R040161
##MEASURED CHEMISTRY=Ca_1.00_B_3.00_O_3_(OH)_5_Â·4H_2_O
82.45007, 21.04454
82.93219, 20.08706
83.41431, 21.35437
83.89642, 23.63829
84.37854, 25.39427
84.86066, 26.24652
85.34277, 26.47355
85.82489, 26.33643
86.30701, 25.61267
86.78912, 25.15160
87.27124, 26.04845
87.75336, 27.27324
88.23547, 27.33973
88.71759, 24.93554
89.19971, 20.98476
89.68182, 19.16961
90.16394, 21.15431
90.64606, 23.27007
91.12817, 24.54259
91.61029, 25.02863
92.09241, 24.84484
92.57452, 23.86035
93.05664, 22.05783
93.53876, 21.13116
94.02087, 21.94790
94.50299, 22.91312
94.98511, 23.86671
95.46722, 24.61347
95.94934, 24.77261
96.43146, 23.71000
96.91357, 20.67333
97.39569, 19.99212
97.87781, 23.74848
98.35992, 27.68793
98.84204, 29.50839
99.32416, 29.00353
99.80627, 27.49649
100.2884, 26.63009
100.7705, 26.91965
101.2526, 26.49372
101.7347, 24.50050
102.2169, 22.32776
102.6990, 21.24627
103.1811, 21.55051
103.6632, 22.46119
104.1453, 22.69415
104.6274, 21.72491
105.1096, 21.42604
105.5917, 21.83884
106.0738, 23.07132
106.5559, 25.80100
107.0380, 30.62571
107.5201, 35.74800
108.0023, 37.15678
108.4844, 34.11201
108.9665, 31.45339
109.4486, 30.79867
109.9307, 31.78714
110.4128, 33.60328
110.8950, 36.28598
111.3771, 39.30267
111.8592, 41.91912
112.3413, 44.34028
112.8234, 45.83579
113.3055, 45.53801
113.7877, 43.62382
114.2698, 41.61281
114.7519, 39.34406
115.2340, 37.84563
115.7161, 38.27131
116.1982, 41.01182
116.6804, 44.92059
117.1625, 49.24814
117.6446, 54.13882
118.1267, 58.42311
118.6088, 60.54591
119.0909, 62.33549
119.5731, 65.28896
120.0552, 69.84039
120.5373, 75.55349
121.0194, 81.68928
121.5015, 87.97868
121.9836, 95.53660
122.4658, 104.7911
122.9479, 115.3476
123.4300, 127.4069
123.9121, 141.5032
124.3942, 156.0453
124.8763, 166.9775
125.3585, 172.8278
125.8406, 177.3762
126.3227, 179.4678
126.8048, 181.6523
127.2869, 187.1334
127.7690, 197.7641
128.2512, 212.3023
128.7333, 225.3792
129.2154, 236.3552
129.6975, 246.4178
130.1796, 255.1462
130.6617, 263.2555
131.1439, 271.4709
131.6260, 280.1696
132.1081, 289.4387
132.5902, 299.9793
133.0723, 313.3486
133.5544, 326.4803
134.0366, 338.8146
134.5187, 350.4754
135.0008, 361.9589
135.4829, 373.6630
135.9650, 385.4884
136.4471, 394.9809
136.9293, 396.8895
137.4114, 401.9789
137.8935, 414.6914
138.3756, 433.3616
138.8577, 453.7777
139.3398, 472.8440
139.8220, 490.5628
140.3041, 510.5707
140.7862, 533.0439
141.2683, 557.0043
141.7504, 579.6529
142.2325, 602.5821
142.7147, 631.1844
143.1968, 670.3232
143.6789, 720.3353
144.1610, 771.1060
144.6431, 818.7582
145.1252, 870.0221
145.6074, 929.1645
146.0895, 995.9216
146.5716, 1067.620
147.0537, 1144.158
147.5358, 1225.121
148.0179, 1297.868
148.5001, 1363.989
148.9822, 1420.990
149.4643, 1468.356
149.9464, 1506.088
150.4285, 1531.459
150.9106, 1540.353
151.3928, 1532.723
151.8749, 1520.682
152.3570, 1502.611
152.8391, 1481.734
153.3212, 1459.318
153.8033, 1435.358
154.2855, 1413.883
154.7676, 1397.984
155.2497, 1387.365
155.7318, 1380.877
156.2139, 1379.339
156.6960, 1381.400
157.1782, 1386.052
157.6603, 1393.450
158.1424, 1402.035
158.6245, 1411.449
159.1066, 1421.197
159.5887, 1429.931
160.0709, 1434.225
160.5530, 1438.432
161.0351, 1449.623
161.5172, 1469.252
161.9993, 1490.807
162.4814, 1508.018
162.9636, 1523.700
163.4457, 1543.954
163.9278, 1567.006
164.4099, 1596.892
164.8920, 1642.192
165.3741, 1705.895
165.8563, 1776.668
166.3384, 1847.787
166.8205, 1920.689
167.3026, 1998.769
167.7847, 2085.784
168.2668, 2178.406
168.7490, 2270.651
169.2311, 2364.674
169.7132, 2454.023
170.1953, 2533.971
170.6774, 2607.842
171.1595, 2681.011
171.6417, 2759.396
172.1238, 2837.217
172.6059, 2900.158
173.0880, 2947.000
173.5701, 2979.875
174.0522, 2994.651
174.5344, 2999.262
175.0165, 3004.847
175.4986, 3018.198
175.9807, 3035.248
176.4628, 3045.786
176.9449, 3051.521
177.4271, 3046.267
177.9092, 3023.760
178.3913, 2991.706
178.8734, 2961.866
179.3555, 2942.991
179.8376, 2926.824
180.3197, 2887.789
180.8019, 2816.885
181.2840, 2737.169
181.7661, 2657.449
182.2482, 2574.504
182.7303, 2483.460
183.2124, 2380.053
183.6946, 2269.933
184.1767, 2168.029
184.6588, 2072.488
185.1409, 1991.318
185.6230, 1932.522
186.1051, 1884.809
186.5873, 1833.445
187.0694, 1770.209
187.5515, 1703.494
188.0336, 1655.386
188.5157, 1636.628
188.9978, 1619.866
189.4800, 1600.839
189.9621, 1579.826
190.4442, 1556.386
190.9263, 1530.284
191.4084, 1502.960
191.8905, 1478.139
192.3727, 1457.598
192.8548, 1436.305
193.3369, 1415.029
193.8190, 1391.950
194.3011, 1363.432
194.7832, 1327.883
195.2654, 1290.805
195.7475, 1265.312
196.2296, 1259.568
196.7117, 1250.049
197.1938, 1232.991
197.6759, 1211.924
198.1581, 1188.341
198.6402, 1162.914
199.1223, 1138.715
199.6044, 1122.061
200.0865, 1117.375
200.5686, 1111.713
201.0508, 1103.300
201.5329, 1094.007
202.0150, 1084.594
202.4971, 1075.451
202.9792, 1067.830
203.4613, 1063.844
203.9435, 1064.535
204.4256, 1066.821
204.9077, 1073.065
205.3898, 1078.878
205.8719, 1082.042
206.3540, 1081.795
206.8362, 1077.820
207.3183, 1068.765
207.8004, 1051.662
208.2825, 1037.208
208.7646, 1029.508
209.2467, 1021.052
209.7289, 1006.613
210.2110, 986.1837
210.6931, 964.0027
211.1752, 944.7451
211.6573, 928.8106
212.1395, 914.8901
212.6216, 904.2326
213.1037, 894.4266
213.5858, 884.1968
214.0679, 873.6810
214.5500, 863.8925
215.0322, 855.8210
215.5143, 849.5817
215.9964, 844.5325
216.4785, 842.5970
216.9606, 840.0331
217.4427, 835.8870
217.9249, 829.9104
218.4070, 821.3784
218.8891, 808.2010
219.3712, 789.9573
219.8533, 782.5544
220.3354, 801.4109
220.8176, 816.5705
221.2997, 817.4881
221.7818, 808.4204
222.2639, 799.0934
222.7460, 796.5524
223.2281, 799.9236
223.7103, 799.9798
224.1924, 792.4371
224.6745, 786.0687
225.1566, 784.4406
225.6387, 784.7858
226.1208, 781.9864
226.6030, 772.4299
227.0851, 759.0901
227.5672, 755.0381
228.0493, 771.1299
228.5314, 782.0782
229.0135, 779.7128
229.4957, 771.6660
229.9778, 766.6044
230.4599, 768.4465
230.9420, 774.9929
231.4241, 781.2047
231.9062, 788.2577
232.3884, 792.6246
232.8705, 792.7319
233.3526, 791.0273
233.8347, 789.7849
234.3168, 789.7231
234.7989, 789.6526
235.2811, 786.8939
235.7632, 778.6354
236.2453, 774.5308
236.7274, 778.6838
237.2095, 784.3889
237.6916, 787.1918
238.1738, 786.2693
238.6559, 783.8422
239.1380, 782.7951
239.6201, 783.8300
240.1022, 783.6053
240.5843, 782.9499
241.0665, 780.2454
241.5486, 773.0761
242.0307, 762.3051
242.5128, 751.9699
242.9949, 745.9852
243.4770, 744.6334
243.9592, 744.2048
244.4413, 744.3995
244.9234, 745.9680
245.4055, 750.8035
245.8876, 757.4456
246.3697, 762.1425
246.8519, 761.0646
247.3340, 755.2546
247.8161, 754.4089
248.2982, 762.4080
248.7803, 770.4527
249.2624, 775.1547
249.7446, 777.9224
250.2267, 781.2718
250.7088, 786.9837
251.1909, 793.7137
251.6730, 796.9393
252.1551, 793.6426
252.6373, 793.1115
253.1194, 802.0889
253.6015, 813.5289
254.0836, 818.8914
254.5657, 814.1339
255.0478, 805.9529
255.5300, 805.0675
256.0121, 812.8660
256.4942, 822.7935
256.9763, 837.1943
257.4584, 850.5971
257.9406, 858.8607
258.4227, 861.0389
258.9048, 859.4847
259.3869, 854.9719
259.8690, 847.2277
260.3511, 842.9504
260.8333, 845.7587
261.3154, 850.5071
261.7975, 853.5891
262.2796, 854.8989
262.7617, 855.9585
263.2438, 858.8400
263.7260, 862.8172
264.2081, 863.0474
264.6902, 856.4690
265.1723, 850.0486
265.6544, 849.8569
266.1365, 854.1821
266.6187, 857.3915
267.1008, 855.9661
267.5829, 851.7868
268.0650, 848.3452
268.5471, 845.3361
269.0292, 844.3370
269.5114, 849.1638
269.9935, 856.5674
270.4756, 860.7983
270.9577, 858.6598
271.4398, 854.1520
271.9219, 851.2002
272.4041, 849.8047
272.8862, 850.0076
273.3683, 852.1300
273.8504, 855.8824
274.3325, 860.8463
274.8146, 868.7238
275.2968, 874.6854
275.7789, 873.3868
276.2610, 866.8117
276.7431, 863.6982
277.2252, 868.6185
277.7073, 876.3381
278.1895, 878.1446
278.6716, 873.6016
279.1537, 867.2212
279.6358, 858.7998
280.1179, 849.9886
280.6000, 843.2515
281.0822, 838.9409
281.5643, 837.8278
282.0464, 842.5551
282.5285, 853.8737
283.0106, 861.0653
283.4927, 861.9054
283.9749, 858.7486
284.4570, 851.5291
284.9391, 840.9532
285.4212, 832.8562
285.9033, 833.0455
286.3854, 841.3088
286.8676, 844.1989
287.3497, 837.7126
287.8318, 830.2764
288.3139, 825.5377
288.7960, 823.1171
289.2781, 821.6888
289.7603, 820.6544
290.2424, 819.8246
290.7245, 818.4036
291.2066, 815.5446
291.6887, 813.1769
292.1708, 812.2740
292.6530, 811.7759
293.1351, 809.9178
293.6172, 806.1279
294.0993, 802.0569
294.5814, 800.7675
295.0635, 804.6129
295.5457, 806.8643
296.0278, 808.4386
296.5099, 807.9116
296.9920, 802.0919
297.4741, 791.9464
297.9562, 783.2996
298.4384, 782.4584
298.9205, 790.5977
299.4026, 798.5887
299.8847, 808.5225
300.3668, 816.2429
300.8489, 818.1036
301.3311, 816.6442
301.8131, 817.3018
302.2953, 823.9653
302.7774, 835.2965
303.2595, 844.2866
303.7416, 848.2742
304.2237, 853.8539
304.7058, 865.0245
305.1880, 877.1693
305.6701, 884.2340
306.1522, 883.7936
306.6343, 881.3450
307.1164, 886.6967
307.5985, 902.3177
308.0807, 916.4585
308.5628, 923.5621
309.0449, 931.0264
309.5270, 944.4694
310.0091, 963.9312
310.4912, 983.1338
310.9734, 996.0627
311.4555, 1003.340
311.9376, 1011.379
312.4197, 1020.214
312.9018, 1030.495
313.3839, 1043.194
313.8661, 1057.551
314.3482, 1071.413
314.8303, 1082.397
315.3124, 1092.921
315.7945, 1107.177
316.2766, 1125.316
316.7588, 1146.313
317.2409, 1172.129
317.7230, 1199.498
318.2051, 1222.998
318.6872, 1241.349
319.1693, 1256.640
319.6515, 1267.793
320.1336, 1276.241
320.6157, 1289.292
321.0978, 1310.780
321.5799, 1335.633
322.0620, 1355.379
322.5442, 1368.922
323.0263, 1384.646
323.5084, 1409.076
323.9905, 1435.316
324.4726, 1452.927
324.9547, 1460.279
325.4369, 1466.515
325.9190, 1481.902
326.4011, 1507.714
326.8832, 1522.402
327.3653, 1522.974
327.8474, 1515.803
328.3296, 1500.315
328.8117, 1479.507
329.2938, 1461.249
329.7759, 1450.468
330.2580, 1445.052
330.7401, 1435.782
331.2223, 1418.335
331.7044, 1402.303
332.1865, 1390.639
332.6686, 1379.925
333.1507, 1365.049
333.6328, 1344.933
334.1150, 1324.812
334.5971, 1313.145
335.0792, 1314.791
335.5613, 1311.864
336.0434, 1299.294
336.5255, 1287.193
337.0077, 1280.422
337.4898, 1278.869
337.9719, 1279.864
338.4540, 1280.767
338.9361, 1282.265
339.4182, 1291.170
339.9004, 1313.183
340.3825, 1334.315
340.8646, 1348.583
341.3467, 1360.430
341.8288, 1375.680
342.3109, 1396.864
342.7931, 1420.751
343.2752, 1441.787
343.7573, 1459.122
344.2394, 1480.046
344.7215, 1508.508
345.2036, 1539.725
345.6858, 1571.403
346.1679, 1603.270
346.6500, 1631.870
347.1321, 1653.169
347.6142, 1669.552
348.0963, 1686.823
348.5785, 1704.548
349.0606, 1726.549
349.5427, 1762.860
350.0248, 1806.826
350.5069, 1837.370
350.9890, 1842.564
351.4712, 1839.646
351.9533, 1844.075
352.4354, 1853.689
352.9175, 1856.932
353.3996, 1848.415
353.8817, 1830.126
354.3639, 1805.389
354.8460, 1770.057
355.3281, 1738.568
355.8102, 1718.252
356.2923, 1701.638
356.7744, 1680.926
357.2566, 1654.198
357.7387, 1622.467
358.2208, 1585.457
358.7029, 1540.228
359.1850, 1506.729
359.6671, 1493.377
360.1493, 1481.631
360.6314, 1462.015
361.1135, 1437.526
361.5956, 1416.140
362.0777, 1402.653
362.5598, 1395.023
363.0420, 1385.394
363.5241, 1369.622
364.0062, 1358.807
364.4883, 1354.563
364.9704, 1354.942
365.4525, 1360.992
365.9347, 1371.849
366.4168, 1380.627
366.8989, 1375.854
367.3810, 1355.963
367.8631, 1348.839
368.3452, 1364.330
368.8274, 1382.710
369.3095, 1394.349
369.7916, 1400.929
370.2737, 1406.946
370.7558, 1415.344
371.2379, 1423.705
371.7201, 1426.251
372.2022, 1422.031
372.6843, 1421.429
373.1664, 1432.135
373.6485, 1446.959
374.1306, 1454.127
374.6128, 1450.839
375.0949, 1448.746
375.5770, 1457.217
376.0591, 1470.575
376.5412, 1476.854
377.0233, 1473.179
377.5055, 1465.826
377.9876, 1460.965
378.4697, 1458.952
378.9518, 1455.586
379.4339, 1445.458
379.9160, 1438.803
380.3982, 1444.444
380.8803, 1458.944
381.3624, 1472.044
381.8445, 1477.985
382.3266, 1479.474
382.8087, 1484.901
383.2909, 1500.588
383.7730, 1511.864
384.2551, 1515.460
384.7372, 1516.504
385.2193, 1518.104
385.7014, 1521.349
386.1836, 1527.467
386.6657, 1540.290
387.1478, 1560.882
387.6299, 1566.555
388.1120, 1547.635
388.5941, 1523.848
389.0763, 1496.486
389.5584, 1469.902
390.0405, 1451.684
390.5226, 1446.494
391.0047, 1446.155
391.4868, 1437.833
391.9690, 1421.005
392.4511, 1401.418
392.9332, 1380.155
393.4153, 1356.870
393.8974, 1329.272
394.3795, 1297.448
394.8617, 1271.257
395.3438, 1260.438
395.8259, 1256.656
396.3080, 1245.326
396.7901, 1224.901
397.2722, 1202.601
397.7544, 1181.278
398.2365, 1162.505
398.7186, 1151.759
399.2007, 1151.974
399.6828, 1156.742
400.1649, 1165.604
400.6471, 1176.938
401.1292, 1188.682
401.6113, 1200.231
402.0934, 1210.502
402.5755, 1217.859
403.0576, 1221.165
403.5398, 1224.779
404.0219, 1226.418
404.5040, 1230.437
404.9861, 1242.968
405.4682, 1259.883
405.9503, 1270.395
406.4325, 1266.699
406.9146, 1253.830
407.3967, 1250.160
407.8788, 1260.590
408.3609, 1270.303
408.8430, 1278.411
409.3252, 1283.520
409.8073, 1284.750
410.2894, 1281.878
410.7715, 1274.523
411.2536, 1258.652
411.7357, 1236.865
412.2179, 1224.597
412.7000, 1226.892
413.1821, 1229.054
413.6642, 1218.243
414.1463, 1200.205
414.6284, 1186.502
415.1106, 1182.060
415.5927, 1179.003
416.0748, 1170.542
416.5569, 1158.621
417.0390, 1150.520
417.5211, 1149.822
418.0033, 1149.668
418.4854, 1138.577
418.9675, 1111.096
419.4496, 1091.542
419.9317, 1090.054
420.4138, 1089.196
420.8960, 1074.275
421.3781, 1048.833
421.8602, 1027.487
422.3423, 1020.237
422.8244, 1022.952
423.3065, 1017.330
423.7887, 993.7211
424.2708, 976.8563
424.7529, 974.1021
425.2350, 975.2066
425.7171, 971.5213
426.1992, 962.0343
426.6814, 952.1550
427.1635, 947.6061
427.6456, 947.8101
428.1277, 946.4830
428.6098, 944.0145
429.0919, 939.1970
429.5741, 928.2014
430.0562, 915.3360
430.5383, 907.9283
431.0204, 910.3085
431.5025, 912.8006
431.9846, 905.1492
432.4668, 890.5658
432.9489, 880.9231
433.4310, 879.8332
433.9131, 882.4805
434.3952, 883.5623
434.8773, 882.8804
435.3595, 882.5791
435.8416, 884.1730
436.3237, 884.9086
436.8058, 882.0983
437.2879, 877.0200
437.7701, 872.7685
438.2522, 870.8736
438.7343, 871.1547
439.2164, 873.3749
439.6985, 879.6583
440.1806, 884.0564
440.6628, 885.0594
441.1449, 885.5629
441.6270, 887.8206
442.1091, 891.4793
442.5912, 894.4445
443.0733, 894.9773
443.5555, 893.6385
444.0376, 892.5747
444.5197, 891.8978
445.0018, 891.1909
445.4839, 891.3134
445.9660, 890.7505
446.4482, 886.5364
446.9303, 877.4463
447.4124, 871.7453
447.8945, 879.5797
448.3766, 893.4041
448.8587, 895.3503
449.3409, 882.2589
449.8230, 868.6933
450.3051, 866.0700
450.7872, 873.5273
451.2693, 879.8036
451.7514, 883.5222
452.2336, 887.7476
452.7157, 895.3605
453.1978, 903.3947
453.6799, 906.8281
454.1620, 904.4915
454.6441, 900.6052
455.1263, 900.8255
455.6084, 906.1411
456.0905, 909.9471
456.5726, 908.1024
457.0547, 909.0134
457.5368, 917.9387
458.0190, 930.6899
458.5011, 940.4550
458.9832, 944.2025
459.4653, 944.8162
459.9474, 944.1657
460.4295, 942.1227
460.9117, 948.5753
461.3938, 970.2607
461.8759, 994.4407
462.3580, 1011.074
462.8401, 1020.795
463.3222, 1025.840
463.8044, 1021.514
464.2865, 1016.957
464.7686, 1022.465
465.2507, 1035.436
465.7328, 1045.187
466.2149, 1046.993
466.6971, 1043.464
467.1792, 1039.455
467.6613, 1034.312
468.1434, 1030.099
468.6255, 1028.403
469.1076, 1026.242
469.5898, 1021.931
470.0719, 1015.526
470.5540, 1007.659
471.0361, 998.5294
471.5182, 988.6541
472.0003, 978.9955
472.4825, 968.8289
472.9646, 961.0474
473.4467, 958.6953
473.9288, 957.2753
474.4109, 954.3864
474.8930, 949.7793
475.3752, 943.6375
475.8573, 933.3421
476.3394, 922.6628
476.8215, 919.5946
477.3036, 924.3847
477.7857, 927.7663
478.2679, 924.9514
478.7500, 917.9448
479.2321, 911.0329
479.7142, 902.9990
480.1963, 897.9756
480.6784, 900.5997
481.1606, 903.9902
481.6427, 900.7709
482.1248, 891.4015
482.6069, 882.1290
483.0890, 877.6600
483.5711, 877.1027
484.0533, 875.2935
484.5354, 870.4579
485.0175, 867.3415
485.4996, 866.8430
485.9817, 867.9238
486.4638, 871.2330
486.9460, 876.0906
487.4281, 878.4556
487.9102, 872.4526
488.3923, 861.6535
488.8744, 857.3098
489.3565, 860.2477
489.8387, 865.5909
490.3208, 872.7288
490.8029, 879.7856
491.2850, 882.9630
491.7671, 881.1594
492.2492, 878.7906
492.7314, 876.8241
493.2135, 875.3583
493.6956, 874.0316
494.1777, 873.0798
494.6598, 873.8672
495.1419, 877.4705
495.6241, 883.6849
496.1062, 891.3893
496.5883, 902.6313
497.0704, 912.4254
497.5525, 921.2173
498.0346, 927.8597
498.5168, 928.0873
498.9989, 923.4555
499.4810, 924.2181
499.9631, 943.6586
500.4452, 975.1008
500.9273, 990.5497
501.4095, 985.5260
501.8916, 983.7935
502.3737, 999.5853
502.8558, 1022.400
503.3379, 1034.538
503.8200, 1032.653
504.3022, 1032.824
504.7843, 1044.483
505.2664, 1059.376
505.7485, 1068.453
506.2306, 1071.008
506.7127, 1068.879
507.1949, 1062.316
507.6770, 1053.439
508.1591, 1051.658
508.6412, 1062.843
509.1233, 1072.844
509.6054, 1081.966
510.0876, 1088.893
510.5697, 1093.063
511.0518, 1094.167
511.5339, 1091.240
512.0161, 1081.380
512.4982, 1068.410
512.9803, 1063.088
513.4624, 1066.294
513.9445, 1072.369
514.4266, 1081.374
514.9088, 1090.619
515.3909, 1096.481
515.8730, 1098.751
516.3551, 1100.732
516.8372, 1104.123
517.3193, 1107.155
517.8015, 1106.737
518.2836, 1104.099
518.7657, 1104.592
519.2478, 1111.308
519.7299, 1121.690
520.2120, 1129.845
520.6942, 1136.380
521.1763, 1139.338
521.6584, 1135.258
522.1405, 1131.278
522.6226, 1131.580
523.1047, 1135.173
523.5869, 1138.842
524.0690, 1140.953
524.5511, 1142.207
525.0332, 1144.501
525.5153, 1147.809
525.9974, 1147.638
526.4796, 1141.919
526.9617, 1133.998
527.4438, 1125.326
527.9259, 1116.351
528.4080, 1113.809
528.8901, 1124.518
529.3723, 1136.123
529.8544, 1144.959
530.3365, 1148.742
530.8186, 1140.404
531.3007, 1117.979
531.7828, 1093.834
532.2650, 1086.591
532.7471, 1100.528
533.2292, 1104.393
533.7113, 1087.690
534.1934, 1072.680
534.6755, 1068.089
535.1577, 1068.417
535.6398, 1066.157
536.1219, 1059.122
536.6040, 1049.629
537.0861, 1038.919
537.5682, 1027.472
538.0504, 1016.529
538.5325, 1006.110
539.0146, 997.7632
539.4967, 993.7625
539.9788, 992.7534
540.4609, 988.0923
540.9431, 977.4946
541.4252, 966.7670
541.9073, 955.1004
542.3894, 945.1017
542.8715, 940.7321
543.3536, 941.2297
543.8358, 940.8403
544.3179, 934.2051
544.8000, 923.7315
545.2821, 920.8083
545.7642, 928.7495
546.2463, 935.1894
546.7285, 937.5687
547.2106, 936.7411
547.6927, 931.5687
548.1748, 922.7051
548.6569, 916.2614
549.1390, 915.8871
549.6211, 918.6127
550.1032, 921.7414
550.5853, 925.1957
551.0674, 929.0063
551.5496, 933.2522
552.0317, 937.7299
552.5138, 942.1802
552.9959, 946.7822
553.4780, 950.7703
553.9601, 952.9185
554.4423, 955.8668
554.9244, 961.7380
555.4065, 968.7822
555.8886, 973.1185
556.3707, 973.1861
556.8528, 974.8406
557.3350, 987.8925
557.8171, 1010.377
558.2992, 1025.856
558.7813, 1031.752
559.2634, 1034.022
559.7455, 1036.017
560.2277, 1037.294
560.7098, 1036.756
561.1919, 1034.005
561.6740, 1030.133
562.1561, 1022.991
562.6382, 1016.413
563.1204, 1014.826
563.6025, 1018.257
564.0846, 1024.276
564.5667, 1031.935
565.0488, 1039.413
565.5309, 1038.325
566.0131, 1022.841
566.4952, 1013.548
566.9773, 1019.750
567.4594, 1028.672
567.9415, 1031.463
568.4236, 1029.451
568.9058, 1030.512
569.3879, 1041.103
569.8700, 1053.402
570.3521, 1059.790
570.8342, 1061.263
571.3163, 1060.143
571.7985, 1056.776
572.2806, 1054.694
572.7627, 1058.595
573.2448, 1069.353
573.7269, 1077.958
574.2090, 1083.111
574.6912, 1087.886
575.1733, 1093.847
575.6554, 1099.401
576.1375, 1101.062
576.6196, 1098.755
577.1017, 1099.218
577.5839, 1112.167
578.0660, 1132.741
578.5481, 1142.895
579.0302, 1141.016
579.5123, 1140.750
579.9944, 1148.624
580.4766, 1161.420
580.9587, 1173.629
581.4408, 1185.927
581.9229, 1195.418
582.4050, 1198.160
582.8871, 1201.082
583.3693, 1209.694
583.8514, 1222.015
584.3335, 1232.962
584.8156, 1240.124
585.2977, 1246.310
585.7798, 1256.212
586.2620, 1270.124
586.7441, 1284.232
587.2262, 1299.170
587.7083, 1313.151
588.1904, 1322.098
588.6725, 1330.259
589.1547, 1346.006
589.6368, 1374.593
590.1189, 1399.929
590.6010, 1406.915
591.0831, 1410.331
591.5652, 1430.865
592.0474, 1468.245
592.5295, 1508.275
593.0116, 1541.839
593.4937, 1570.244
593.9758, 1596.471
594.4579, 1613.744
594.9401, 1644.670
595.4222, 1706.730
595.9043, 1768.541
596.3864, 1805.667
596.8685, 1830.119
597.3506, 1873.937
597.8328, 1953.730
598.3149, 2046.718
598.7970, 2134.888
599.2791, 2220.275
599.7612, 2306.781
600.2433, 2395.489
600.7255, 2490.848
601.2076, 2596.585
601.6897, 2712.457
602.1718, 2836.434
602.6539, 2965.905
603.1360, 3108.022
603.6182, 3266.181
604.1003, 3434.548
604.5824, 3607.365
605.0645, 3786.234
605.5466, 3977.458
606.0287, 4188.062
606.5109, 4409.965
606.9930, 4631.130
607.4751, 4853.341
607.9572, 5086.466
608.4393, 5334.017
608.9214, 5593.824
609.4036, 5865.379
609.8857, 6149.175
610.3678, 6434.255
610.8499, 6728.869
611.3320, 7012.951
611.8141, 7295.758
612.2963, 7557.779
612.7784, 7782.765
613.2605, 7965.862
613.7426, 8101.869
614.2247, 8189.212
614.7068, 8224.720
615.1890, 8202.602
615.6711, 8123.174
616.1532, 7975.211
616.6353, 7747.351
617.1174, 7465.601
617.5995, 7154.080
618.0817, 6811.186
618.5638, 6444.747
619.0459, 6028.192
619.5280, 5619.902
620.0101, 5235.094
620.4922, 4874.845
620.9744, 4539.695
621.4565, 4228.890
621.9386, 3938.014
622.4207, 3661.281
622.9028, 3401.767
623.3849, 3178.789
623.8671, 2996.001
624.3492, 2828.924
624.8313, 2672.378
625.3134, 2525.929
625.7955, 2390.336
626.2776, 2264.790
626.7598, 2152.708
627.2419, 2060.789
627.7240, 1976.243
628.2061, 1895.797
628.6882, 1818.178
629.1703, 1739.923
629.6525, 1661.735
630.1346, 1592.320
630.6167, 1541.264
631.0988, 1506.321
631.5809, 1476.356
632.0630, 1454.078
632.5452, 1425.047
633.0273, 1377.947
633.5094, 1328.760
633.9915, 1295.960
634.4736, 1278.738
634.9557, 1262.458
635.4379, 1245.828
635.9200, 1228.024
636.4021, 1208.664
636.8842, 1187.812
637.3663, 1163.024
637.8484, 1135.017
638.3306, 1112.383
638.8127, 1105.490
639.2948, 1111.165
639.7769, 1110.078
640.2590, 1100.881
640.7411, 1089.594
641.2233, 1077.004
641.7054, 1063.906
642.1875, 1050.786
642.6696, 1037.679
643.1517, 1025.402
643.6339, 1013.754
644.1160, 1003.364
644.5981, 993.8406
645.0802, 986.0797
645.5623, 982.3262
646.0444, 982.5694
646.5266, 983.5607
647.0087, 982.4725
647.4908, 979.5181
647.9729, 975.6284
648.4550, 970.8433
648.9371, 964.8525
649.4193, 955.8835
649.9014, 947.5488
650.3835, 945.0621
650.8656, 947.1893
651.3477, 944.7552
651.8298, 928.8216
652.3120, 916.4068
652.7941, 919.2105
653.2762, 928.4360
653.7583, 933.3042
654.2404, 931.6206
654.7225, 925.4023
655.2047, 915.2018
655.6868, 903.1695
656.1689, 897.2072
656.6510, 898.3817
657.1331, 899.0277
657.6152, 897.2332
658.0974, 894.9579
658.5795, 894.1230
659.0616, 894.3685
659.5437, 894.1040
660.0258, 893.0477
660.5079, 891.6339
660.9901, 891.1252
661.4722, 889.6212
661.9543, 882.6442
662.4364, 871.9847
662.9185, 866.2970
663.4006, 872.3695
663.8828, 883.9526
664.3649, 886.7631
664.8470, 880.4651
665.3291, 876.6450
665.8112, 877.8456
666.2933, 879.8787
666.7755, 879.3192
667.2576, 877.0301
667.7397, 876.9651
668.2218, 883.3550
668.7039, 885.1142
669.1860, 874.8416
669.6682, 863.4885
670.1503, 860.4717
670.6324, 863.9960
671.1145, 866.7837
671.5966, 865.1674
672.0787, 861.8785
672.5609, 860.0490
673.0430, 859.7838
673.5251, 862.7971
674.0072, 870.1321
674.4893, 875.4412
674.9714, 874.3431
675.4536, 869.1489
675.9357, 865.7844
676.4178, 864.7697
676.8999, 864.4701
677.3820, 865.2350
677.8641, 866.3132
678.3463, 868.3296
678.8284, 870.0506
679.3105, 869.5056
679.7926, 866.0711
680.2747, 861.0419
680.7568, 853.7674
681.2390, 846.2857
681.7211, 843.7672
682.2032, 846.2892
682.6853, 852.0220
683.1674, 861.3657
683.6495, 869.5245
684.1317, 867.9384
684.6138, 853.3015
685.0959, 846.4965
685.5780, 857.8486
686.0601, 864.5897
686.5422, 857.4257
687.0244, 845.3175
687.5065, 836.9157
687.9886, 833.4966
688.4707, 832.8868
688.9528, 835.5106
689.4349, 839.0417
689.9171, 842.0122
690.3992, 843.6760
690.8813, 841.2903
691.3634, 834.1937
691.8455, 825.5855
692.3276, 818.5641
692.8098, 813.0067
693.2919, 807.7499
693.7740, 801.6531
694.2561, 798.4066
694.7382, 800.0295
695.2203, 803.5845
695.7025, 808.2324
696.1846, 813.2683
696.6667, 816.4077
697.1488, 818.1884
697.6309, 816.3126
698.1130, 805.8769
698.5952, 793.1761
699.0773, 786.5739
699.5594, 786.0528
700.0415, 785.8124
700.5236, 781.9363
701.0057, 778.0988
701.4879, 784.6431
701.9700, 802.5735
702.4521, 808.5904
702.9342, 795.9777
703.4163, 783.4184
703.8984, 782.8768
704.3806, 789.5418
704.8627, 791.9409
705.3448, 789.4572
705.8269, 784.8876
706.3090, 774.0175
706.7911, 765.7228
707.2733, 766.6897
707.7554, 773.4349
708.2375, 780.7331
708.7196, 786.7736
709.2017, 790.3644
709.6838, 787.6511
710.1660, 782.2991
710.6481, 785.1797
711.1302, 795.8532
711.6123, 803.7401
712.0944, 804.3727
712.5765, 804.0023
713.0587, 810.8936
713.5408, 825.5457
714.0229, 836.8184
714.5050, 842.3348
714.9871, 847.5533
715.4692, 851.5605
715.9514, 856.9735
716.4335, 865.7544
716.9156, 877.8694
717.3977, 892.4952
717.8798, 910.5220
718.3619, 929.2227
718.8441, 946.6310
719.3262, 963.1832
719.8083, 979.6431
720.2904, 996.0511
720.7725, 1011.416
721.2546, 1024.506
721.7368, 1038.195
722.2189, 1060.168
722.7010, 1091.639
723.1831, 1123.075
723.6652, 1153.730
724.1473, 1184.495
724.6295, 1216.171
725.1116, 1247.979
725.5937, 1277.950
726.0758, 1304.528
726.5579, 1334.218
727.0400, 1375.010
727.5222, 1412.445
728.0043, 1435.541
728.4864, 1450.513
728.9685, 1469.873
729.4506, 1496.008
729.9327, 1516.432
730.4149, 1518.089
730.8970, 1506.605
731.3791, 1495.286
731.8612, 1483.398
732.3433, 1463.154
732.8254, 1431.583
733.3076, 1395.086
733.7897, 1360.222
734.2718, 1326.663
734.7539, 1288.386
735.2360, 1244.174
735.7181, 1196.794
736.2003, 1138.293
736.6824, 1084.228
737.1645, 1047.452
737.6466, 1022.525
738.1287, 993.5624
738.6108, 953.0247
739.0930, 915.6072
739.5751, 892.0910
740.0572, 874.3668
740.5393, 852.9760
741.0214, 828.6320
741.5035, 806.0926
741.9857, 787.7451
742.4678, 773.7571
742.9499, 766.9749
743.4320, 766.4283
743.9141, 756.4861
744.3962, 734.5316
744.8784, 716.8439
745.3605, 710.8948
745.8426, 710.2047
746.3247, 706.4608
746.8068, 699.3718
747.2889, 691.5650
747.7711, 682.4641
748.2532, 673.3576
748.7353, 662.0543
749.2174, 652.6753
749.6995, 650.2505
750.1816, 653.5286
750.6638, 656.0676
751.1459, 654.2047
751.6280, 651.7482
752.1101, 651.8250
752.5922, 653.9399
753.0743, 659.6703
753.5565, 667.6141
754.0386, 668.1826
754.5207, 655.0625
755.0028, 636.4417
755.4849, 629.7408
755.9670, 636.9469
756.4492, 636.4104
756.9313, 623.6512
757.4134, 613.5817
757.8955, 614.3668
758.3776, 620.0535
758.8597, 620.9991
759.3419, 616.5082
759.8240, 615.2175
760.3061, 621.8686
760.7882, 626.9796
761.2703, 625.8033
761.7524, 622.0807
762.2346, 619.9759
762.7167, 619.6556
763.1988, 618.4991
763.6809, 614.7006
764.1630, 610.0034
764.6451, 605.1002
765.1273, 601.0905
765.6094, 601.8425
766.0915, 607.3090
766.5736, 612.0632
767.0557, 612.7615
767.5378, 610.6754
768.0200, 607.9031
768.5021, 603.7957
768.9842, 603.5195
769.4663, 609.6967
769.9484, 614.2856
770.4305, 613.8106
770.9127, 609.8110
771.3948, 603.2566
771.8769, 593.6332
772.3590, 588.3076
772.8411, 593.4421
773.3232, 596.6853
773.8054, 590.8770
774.2875, 582.3760
774.7696, 576.9683
775.2517, 575.7311
775.7338, 578.8188
776.2159, 588.9127
776.6981, 597.8229
777.1802, 593.7980
777.6623, 582.1992
778.1444, 575.4033
778.6265, 574.5369
779.1086, 574.4886
779.5908, 572.3581
780.0729, 569.8328
780.5550, 570.7358
781.0371, 575.7545
781.5192, 576.7922
782.0013, 572.0297
782.4835, 568.1199
782.9656, 567.7089
783.4477, 569.2567
783.9298, 571.7795
784.4119, 575.3876
784.8940, 575.5250
785.3762, 565.6844
785.8583, 560.5328
786.3404, 570.8696
786.8225, 582.0806
787.3046, 579.2747
787.7867, 565.6083
788.2689, 555.3734
788.7510, 555.1458
789.2331, 557.8568
789.7152, 556.8409
790.1973, 555.2263
790.6794, 559.5853
791.1616, 568.5524
791.6437, 574.7670
792.1258, 575.0925
792.6079, 571.7625
793.0900, 566.5560
793.5721, 560.0832
794.0543, 559.5770
794.5364, 566.3930
795.0185, 569.7679
795.5006, 564.0118
795.9827, 559.7038
796.4648, 569.5129
796.9470, 591.3936
797.4291, 602.9612
797.9112, 597.0340
798.3933, 590.8264
798.8754, 582.8342
799.3575, 576.9618
799.8397, 576.1206
800.3218, 578.8147
800.8039, 581.7215
801.2860, 583.7195
801.7681, 588.5095
802.2502, 603.5250
802.7324, 617.2190
803.2145, 614.7629
803.6966, 604.4293
804.1787, 603.9694
804.6608, 616.7309
805.1429, 630.4605
805.6251, 634.9625
806.1072, 633.4545
806.5893, 632.0049
807.0714, 630.6829
807.5535, 630.7657
808.0356, 632.6791
808.5178, 631.7383
808.9999, 623.6114
809.4820, 613.1260
809.9641, 614.7151
810.4462, 636.7290
810.9283, 639.0223
811.4105, 607.1072
811.8926, 579.0618
812.3747, 572.3223
812.8568, 575.0674
813.3389, 573.0577
813.8210, 566.2057
814.3032, 565.9989
814.7853, 584.2189
815.2674, 596.4634
815.7495, 589.9965
816.2316, 577.4147
816.7137, 568.7683
817.1959, 564.6978
817.6780, 562.7202
818.1601, 562.1692
818.6422, 561.6776
819.1243, 559.7678
819.6064, 557.3322
820.0886, 555.9894
820.5707, 555.4307
821.0528, 554.8056
821.5349, 553.6875
822.0170, 550.1528
822.4991, 540.5190
822.9813, 527.5049
823.4634, 524.0869
823.9455, 530.8204
824.4276, 535.0933
824.9097, 534.0842
825.3918, 530.9146
825.8740, 527.1663
826.3561, 523.6305
826.8382, 523.2547
827.3203, 528.4383
827.8024, 531.2433
828.2845, 530.7969
828.7667, 528.9883
829.2488, 524.1964
829.7309, 519.7846
830.2130, 520.3162
830.6951, 526.0099
831.1772, 531.6450
831.6594, 537.9256
832.1415, 541.5234
832.6236, 538.5514
833.1057, 534.0117
833.5878, 533.2914
834.0699, 535.8033
834.5521, 537.4460
835.0342, 536.1020
835.5163, 535.1135
835.9984, 539.7573
836.4805, 545.6005
836.9626, 544.0235
837.4448, 536.7303
837.9269, 531.5964
838.4090, 531.2188
838.8911, 531.9810
839.3732, 529.8497
839.8553, 526.0326
840.3375, 525.0237
840.8196, 526.8605
841.3017, 530.0031
841.7838, 534.6478
842.2659, 538.3837
842.7480, 539.7856
843.2302, 538.8760
843.7123, 535.1088
844.1944, 525.8994
844.6765, 522.6726
845.1586, 529.1810
845.6407, 536.0754
846.1229, 541.7002
846.6050, 545.2670
847.0871, 545.0229
847.5692, 541.3492
848.0513, 538.9086
848.5334, 539.0015
849.0156, 539.4842
849.4977, 537.2136
849.9798, 537.4069
850.4619, 548.0805
850.9440, 563.5484
851.4261, 569.9875
851.9083, 562.5552
852.3904, 556.2159
852.8725, 565.0122
853.3546, 576.2450
853.8367, 574.5531
854.3188, 565.4375
854.8010, 560.2144
855.2831, 561.3760
855.7652, 566.6950
856.2473, 575.7526
856.7294, 584.4760
857.2115, 583.5128
857.6937, 575.6238
858.1758, 573.2829
858.6579, 577.6071
859.1400, 584.7238
859.6221, 593.2556
860.1042, 600.8579
860.5864, 603.8520
861.0685, 602.4208
861.5506, 601.8709
862.0327, 601.8313
862.5148, 604.3790
862.9969, 611.0444
863.4791, 618.5262
863.9612, 625.2318
864.4433, 630.4631
864.9254, 631.2855
865.4075, 623.2352
865.8896, 620.1306
866.3718, 625.9244
866.8539, 631.7145
867.3360, 632.5745
867.8181, 632.9847
868.3002, 641.0378
868.7823, 655.9132
869.2645, 661.3182
869.7466, 642.8799
870.2287, 627.5110
870.7108, 628.8350
871.1929, 634.8336
871.6750, 636.0043
872.1572, 632.5906
872.6393, 626.6900
873.1214, 618.7656
873.6035, 614.0161
874.0856, 619.3499
874.5677, 627.1792
875.0499, 627.9128
875.5320, 624.8088
876.0141, 626.6130
876.4962, 633.6589
876.9783, 636.5813
877.4604, 628.1423
877.9426, 616.0554
878.4247, 614.0284
878.9068, 618.9997
879.3889, 619.1485
879.8710, 614.0170
880.3531, 608.5508
880.8353, 604.6927
881.3174, 602.3358
881.7995, 601.4221
882.2816, 601.8859
882.7637, 603.8000
883.2458, 607.6033
883.7280, 609.1193
884.2101, 606.7589
884.6922, 605.3215
885.1743, 609.0393
885.6564, 614.3452
886.1385, 612.8636
886.6207, 602.2395
887.1028, 595.5571
887.5849, 594.8444
888.0670, 594.8483
888.5491, 594.4259
889.0313, 593.9991
889.5134, 594.0330
889.9955, 594.3961
890.4776, 594.4934
890.9597, 594.3488
891.4418, 593.8240
891.9240, 591.6346
892.4061, 590.4356
892.8882, 591.5444
893.3703, 594.5377
893.8524, 599.3012
894.3345, 605.5979
894.8167, 611.2906
895.2988, 616.2322
895.7809, 619.4652
896.2630, 619.0245
896.7451, 617.7458
897.2272, 616.7785
897.7094, 617.8591
898.1915, 626.0446
898.6736, 643.2164
899.1557, 657.6204
899.6378, 656.1407
900.1199, 649.5927
900.6021, 651.4100
901.0842, 658.5632
901.5663, 663.1757
902.0484, 664.8008
902.5305, 670.5372
903.0126, 685.5103
903.4948, 702.0981
903.9769, 708.2761
904.4590, 707.0403
904.9411, 705.7742
905.4232, 705.5513
905.9053, 712.0889
906.3875, 727.1432
906.8696, 742.0770
907.3517, 748.3942
907.8338, 748.4915
908.3159, 748.7414
908.7980, 749.0928
909.2802, 757.4388
909.7623, 776.2653
910.2444, 789.5413
910.7265, 788.0403
911.2086, 781.4868
911.6907, 783.9578
912.1729, 795.3537
912.6550, 806.3860
913.1371, 817.2543
913.6192, 827.1668
914.1013, 835.7560
914.5834, 844.0052
915.0656, 854.1281
915.5477, 863.3426
916.0298, 863.8152
916.5119, 849.8900
916.9940, 848.7054
917.4761, 871.7896
917.9583, 891.2816
918.4404, 898.6812
918.9225, 901.9795
919.4046, 906.0541
919.8867, 911.2133
920.3688, 918.1418
920.8510, 927.0240
921.3331, 937.4437
921.8152, 952.6602
922.2973, 965.5757
922.7794, 970.2935
923.2615, 972.7135
923.7437, 980.5880
924.2258, 993.5892
924.7079, 1003.879
925.1900, 1006.074
925.6721, 1010.281
926.1542, 1027.578
926.6364, 1041.930
927.1185, 1034.928
927.6006, 1017.908
928.0827, 1014.018
928.5648, 1026.846
929.0469, 1033.900
929.5291, 1015.147
930.0112, 994.7592
930.4933, 996.8646
930.9754, 1003.585
931.4575, 989.9553
931.9396, 960.5236
932.4218, 933.7960
932.9039, 916.4523
933.3860, 905.4289
933.8681, 902.4398
934.3502, 900.8170
934.8323, 889.8334
935.3145, 874.3630
935.7966, 865.5323
936.2787, 863.5771
936.7608, 860.8723
937.2429, 853.4131
937.7250, 843.5953
938.2072, 832.7330
938.6893, 822.2892
939.1714, 816.9512
939.6535, 815.1794
940.1356, 811.4734
940.6177, 804.3176
941.0999, 792.1094
941.5820, 772.8004
942.0641, 752.6739
942.5462, 743.9235
943.0283, 744.6187
943.5104, 746.1674
943.9926, 747.8746
944.4747, 744.4675
944.9568, 734.1551
945.4389, 725.0794
945.9210, 725.0034
946.4031, 730.5828
946.8853, 732.7347
947.3674, 731.4686
947.8495, 729.0592
948.3316, 725.5939
948.8137, 721.5990
949.2958, 717.2303
949.7780, 712.3640
950.2601, 706.0605
950.7422, 699.7296
951.2243, 702.2150
951.7064, 715.4869
952.1885, 725.1240
952.6707, 730.1528
953.1528, 729.1100
953.6349, 718.8972
954.1170, 707.4662
954.5991, 706.4450
955.0812, 715.1328
955.5634, 717.7939
956.0455, 713.2280
956.5276, 705.7926
957.0097, 693.5531
957.4918, 683.5983
957.9739, 680.7792
958.4561, 681.3048
958.9382, 678.5720
959.4203, 672.0544
959.9024, 669.9710
960.3845, 675.8090
960.8666, 679.1682
961.3488, 678.9599
961.8309, 675.1547
962.3130, 663.3198
962.7951, 650.1581
963.2772, 650.9761
963.7593, 670.6543
964.2415, 678.1137
964.7236, 663.4172
965.2057, 650.9453
965.6878, 643.6654
966.1699, 640.8668
966.6520, 645.0107
967.1342, 652.6339
967.6163, 655.5012
968.0984, 651.9195
968.5805, 649.6500
969.0626, 646.7184
969.5447, 648.2784
970.0269, 664.4409
970.5090, 677.5626
970.9911, 668.5588
971.4732, 646.6262
971.9553, 637.4489
972.4374, 647.1994
972.9196, 655.9687
973.4017, 663.5416
973.8838, 666.5731
974.3659, 659.0779
974.8480, 650.5557
975.3301, 651.7112
975.8123, 658.8523
976.2944, 659.4109
976.7765, 650.4025
977.2586, 638.2011
977.7407, 615.7343
978.2228, 600.7225
978.7050, 607.0646
979.1871, 619.8821
979.6692, 625.4626
980.1513, 624.0659
980.6334, 621.3911
981.1155, 618.8261
981.5977, 614.4546
982.0798, 604.0587
982.5619, 595.9958
983.0440, 596.6893
983.5261, 600.3262
984.0082, 600.5511
984.4904, 597.5806
984.9725, 594.9456
985.4546, 593.6671
985.9367, 592.4855
986.4188, 591.8477
986.9009, 590.1520
987.3831, 585.7269
987.8652, 580.2255
988.3473, 573.7277
988.8294, 567.8741
989.3115, 569.0050
989.7936, 583.2242
990.2758, 592.0602
990.7579, 582.4125
991.2400, 570.9585
991.7221, 568.7379
992.2042, 570.7083
992.6863, 571.0142
993.1685, 568.7847
993.6506, 563.9139
994.1327, 553.6832
994.6148, 548.7729
995.0969, 560.0660
995.5790, 571.7116
996.0612, 571.3857
996.5433, 565.9807
997.0254, 564.1720
997.5075, 566.5989
997.9896, 570.2128
998.4717, 574.8936
998.9539, 577.8391
999.4360, 575.4492
999.9181, 573.3563
1000.400, 577.3118
1000.882, 582.7311
1001.364, 582.9416
1001.847, 578.5101
1002.329, 575.0694
1002.811, 574.1088
1003.293, 575.7410
1003.775, 582.0970
1004.257, 588.8176
1004.739, 592.5246
1005.221, 595.0287
1005.703, 600.1583
1006.186, 606.6199
1006.668, 607.9907
1007.150, 600.8452
1007.632, 592.7273
1008.114, 583.8010
1008.596, 578.6559
1009.078, 582.4432
1009.560, 590.2844
1010.043, 597.1351
1010.525, 602.2875
1011.007, 606.7010
1011.489, 611.4825
1011.971, 612.5654
1012.453, 605.0649
1012.935, 596.9374
1013.417, 594.3564
1013.899, 592.8408
1014.382, 584.0172
1014.864, 571.4646
1015.346, 569.6981
1015.828, 586.0294
1016.310, 598.6873
1016.792, 597.2921
1017.274, 592.4517
1017.756, 588.9236
1018.239, 585.6604
1018.721, 580.8322
1019.203, 575.1224
1019.685, 571.0330
1020.167, 569.5703
1020.649, 567.5233
1021.131, 562.3303
1021.613, 558.1888
1022.095, 556.0405
1022.578, 556.6442
1023.060, 562.7052
1023.542, 571.6368
1024.024, 577.2603
1024.506, 578.2379
1024.988, 577.1920
1025.470, 571.1591
1025.952, 567.9756
1026.435, 573.5513
1026.917, 580.3875
1027.399, 583.1175
1027.881, 582.2254
1028.363, 578.4465
1028.845, 571.0230
1029.327, 568.3044
1029.809, 575.8834
1030.292, 582.6763
1030.774, 585.8588
1031.256, 587.1915
1031.738, 586.9208
1032.220, 586.0752
1032.702, 586.6683
1033.184, 589.0413
1033.666, 589.9078
1034.148, 585.2081
1034.630, 584.4412
1035.113, 593.6172
1035.595, 602.2400
1036.077, 603.1035
1036.559, 600.5768
1037.041, 602.2634
1037.523, 608.5248
1038.005, 609.0660
1038.487, 595.3710
1038.970, 589.7140
1039.452, 599.8831
1039.934, 609.7703
1040.416, 610.9855
1040.898, 609.4944
1041.380, 612.9251
1041.862, 620.6340
1042.344, 625.4389
1042.826, 625.8235
1043.309, 626.6921
1043.791, 629.5802
1044.273, 629.9761
1044.755, 622.9054
1045.237, 617.5583
1045.719, 625.0033
1046.201, 641.6992
1046.683, 650.6829
1047.166, 648.4221
1047.648, 651.0106
1048.130, 660.2864
1048.612, 669.3483
1049.094, 676.2106
1049.576, 682.1947
1050.058, 688.8049
1050.540, 694.7409
1051.022, 695.1952
1051.505, 688.7761
1051.987, 692.0581
1052.469, 707.0828
1052.951, 718.6043
1053.433, 722.6049
1053.915, 725.0596
1054.397, 729.9192
1054.879, 736.0698
1055.361, 742.0362
1055.844, 747.5658
1056.326, 748.8677
1056.808, 745.9775
1057.290, 745.5205
1057.772, 748.6335
1058.254, 753.9819
1058.736, 761.0950
1059.218, 767.3030
1059.701, 768.3230
1060.183, 766.1771
1060.665, 768.2440
1061.147, 773.5792
1061.629, 777.0513
1062.111, 778.1780
1062.593, 778.8256
1063.075, 779.6426
1063.557, 777.4949
1064.040, 767.0640
1064.522, 756.5692
1065.004, 766.2481
1065.486, 785.8992
1065.968, 789.2444
1066.450, 778.7139
1066.932, 769.2758
1067.414, 765.1461
1067.896, 763.2317
1068.379, 762.0167
1068.861, 759.9707
1069.343, 755.1729
1069.825, 748.6287
1070.307, 740.0566
1070.789, 731.5046
1071.271, 727.8437
1071.753, 728.4227
1072.236, 727.2668
1072.718, 721.5914
1073.200, 714.3760
1073.682, 704.2438
1074.164, 697.2311
1074.646, 702.6498
1075.128, 710.9857
1075.610, 709.8489
1076.093, 701.2914
1076.575, 693.9668
1077.057, 690.1495
1077.539, 687.4474
1078.021, 684.7040
1078.503, 683.0364
1078.985, 683.7696
1079.467, 684.9650
1079.949, 685.5175
1080.432, 685.3002
1080.914, 684.0424
1081.396, 681.7993
1081.878, 679.9525
1082.360, 677.6604
1082.842, 677.4416
1083.324, 681.2675
1083.806, 685.3387
1084.288, 691.5377
1084.771, 694.4131
1085.253, 684.5074
1085.735, 665.5344
1086.217, 655.8259
1086.699, 659.2606
1087.181, 661.5763
1087.663, 660.5090
1088.145, 663.7695
1088.628, 678.7018
1089.110, 687.7880
1089.592, 674.3477
1090.074, 651.0585
1090.556, 646.9761
1091.038, 663.1642
1091.520, 666.7344
1092.002, 655.0773
1092.484, 647.3380
1092.967, 646.7348
1093.449, 649.7936
1093.931, 655.4137
1094.413, 660.2819
1094.895, 659.9368
1095.377, 655.7200
1095.859, 652.4712
1096.341, 649.9902
1096.823, 646.2877
1097.306, 641.4974
1097.788, 638.3304
1098.270, 637.6375
1098.752, 638.3427
1099.234, 639.7300
1099.716, 641.4982
1100.198, 643.3661
1100.680, 645.1810
1101.163, 646.4925
1101.645, 647.5198
1102.127, 649.7926
1102.609, 652.6047
1103.091, 651.8610
1103.573, 645.4941
1104.055, 638.0377
1104.537, 629.7607
1105.020, 625.8304
1105.502, 636.0033
1105.984, 649.5103
1106.466, 652.3982
1106.948, 647.8622
1107.430, 645.6065
1107.912, 647.6859
1108.394, 649.6271
1108.876, 649.2016
1109.359, 648.9332
1109.841, 650.2940
1110.323, 651.4923
1110.805, 651.0416
1111.287, 650.0755
1111.769, 650.0235
1112.251, 650.8045
1112.733, 651.7137
1113.215, 654.0225
1113.698, 653.0337
1114.180, 644.8497
1114.662, 639.3866
1115.144, 639.2734
1115.626, 641.9827
1116.108, 647.0147
1116.590, 652.6198
1117.072, 655.9116
1117.555, 656.8930
1118.037, 652.3318
1118.519, 640.1738
1119.001, 634.8276
1119.483, 639.0007
1119.965, 635.4174
1120.447, 647.1453
1120.929, 653.8574
1121.411, 655.8233
1121.894, 638.8283
1122.376, 646.3176
1122.858, 643.9945
1123.340, 641.2690
1123.822, 652.2045
1124.304, 637.9668
1124.786, 648.6857
1125.268, 649.4423
1125.750, 654.7584
1126.233, 650.2021
1126.715, 648.6946
1127.197, 650.2913
1127.679, 658.2806
1128.161, 666.3467
1128.643, 671.0711
1129.125, 672.2343
1129.607, 669.4410
1130.090, 663.1924
1130.572, 658.8090
1131.054, 659.9495
1131.536, 661.7936
1132.018, 660.3248
1132.500, 660.3652
1132.982, 667.8908
1133.464, 676.8750
1133.947, 679.6332
1134.429, 677.0802
1134.911, 675.1505
1135.393, 674.4978
1135.875, 674.6575
1136.357, 675.7589
1136.839, 677.5453
1137.321, 681.3798
1137.803, 683.7231
1138.286, 681.5623
1138.768, 677.9453
1139.250, 677.3043
1139.732, 679.4160
1140.214, 682.5419
1140.696, 687.0798
1141.178, 689.2977
1141.660, 688.7056
1142.142, 688.8242
1142.625, 690.8315
1143.107, 692.7693
1143.589, 693.0765
1144.071, 692.6345
1144.553, 693.1708
1145.035, 694.1465
1145.517, 693.8502
1145.999, 692.5700
1146.482, 690.2299
1146.964, 687.7863
1147.446, 688.8924
1147.928, 694.7444
1148.410, 702.0533
1148.892, 711.2534
1149.374, 716.0126
1149.856, 704.0520
1150.339, 691.1413
1150.821, 697.0897
1151.303, 710.3349
1151.785, 710.9282
1152.267, 700.1436
1152.749, 695.0125
1153.231, 701.2001
1153.713, 706.9147
1154.195, 709.2391
1154.677, 711.0914
1155.160, 713.1004
1155.642, 715.1339
1156.124, 716.1299
1156.606, 717.9823
1157.088, 724.9503
1157.570, 735.9784
1158.052, 737.6821
1158.534, 727.2383
1159.017, 720.3831
1159.499, 718.1943
1159.981, 717.9315
1160.463, 718.8763
1160.945, 721.0800
1161.427, 724.8292
1161.909, 728.6196
1162.391, 729.1221
1162.874, 727.9174
1163.356, 731.1022
1163.838, 737.0686
1164.320, 739.9426
1164.802, 740.1902
1165.284, 743.7294
1165.766, 751.7026
1166.248, 756.0490
1166.730, 750.2444
1167.213, 742.0801
1167.695, 735.2144
1168.177, 731.7180
1168.659, 734.6130
1169.141, 741.1830
1169.623, 751.5080
1170.105, 761.8505
1170.587, 760.8648
1171.069, 744.0430
1171.552, 737.4983
1172.034, 754.4564
1172.516, 768.4070
1172.998, 776.7401
1173.480, 779.1395
1173.962, 771.9423
1174.444, 763.5616
1174.926, 763.0850
1175.409, 768.2693
1175.891, 771.7681
1176.373, 773.6192
1176.855, 771.7016
1177.337, 765.7834
1177.819, 768.0343
1178.301, 780.4691
1178.783, 791.8033
1179.266, 796.5760
1179.748, 794.5977
1180.230, 782.1943
1180.712, 769.4062
1181.194, 777.0136
1181.676, 792.7188
1182.158, 795.0898
1182.640, 788.5062
1183.122, 784.4865
1183.604, 784.4545
1184.087, 783.1172
1184.569, 777.6140
1185.051, 778.1450
1185.533, 797.1398
1186.015, 812.5253
1186.497, 811.5103
1186.979, 807.4446
1187.461, 809.0928
1187.944, 813.8096
1188.426, 818.7698
1188.908, 823.1575
1189.390, 821.1826
1189.872, 808.1624
1190.354, 806.9254
1190.836, 821.6188
1191.318, 828.6555
1191.801, 821.6235
1192.283, 815.5683
1192.765, 819.3240
1193.247, 825.4926
1193.729, 823.9298
1194.211, 819.3166
1194.693, 824.5585
1195.175, 835.5341
1195.657, 840.3627
1196.140, 841.1180
1196.622, 848.2967
1197.104, 861.2149
1197.586, 865.3010
1198.068, 852.9478
1198.550, 843.7961
1199.032, 853.4188
1199.514, 865.5204
1199.996, 875.1255
1200.479, 879.1227
1200.961, 868.7026
1201.443, 855.1780
1201.925, 858.2847
1202.407, 875.4349
1202.889, 879.4423
1203.371, 861.9709
1203.853, 859.1984
1204.336, 877.9030
1204.818, 888.5662
1205.300, 883.6219
1205.782, 878.3784
1206.264, 881.4623
1206.746, 884.5195
1207.228, 875.8707
1207.710, 863.3438
1208.193, 869.7844
1208.675, 887.3696
1209.157, 893.2068
1209.639, 889.7959
1210.121, 887.1960
1210.603, 887.1782
1211.085, 887.8290
1211.567, 888.4341
1212.049, 887.1877
1212.531, 876.6345
1213.014, 872.5654
1213.496, 894.4042
1213.978, 913.3891
1214.460, 900.7854
1214.942, 880.1424
1215.424, 884.9031
1215.906, 907.5408
1216.388, 916.0113
1216.871, 907.3031
1217.353, 902.8547
1217.835, 903.4575
1218.317, 905.3331
1218.799, 908.3509
1219.281, 910.1316
1219.763, 909.7794
1220.245, 905.7568
1220.728, 895.1149
1221.210, 886.2634
1221.692, 901.4846
1222.174, 924.7472
1222.656, 918.4316
1223.138, 896.2487
1223.620, 885.6581
1224.102, 887.7045
1224.584, 894.0125
1225.067, 901.8970
1225.549, 909.7473
1226.031, 917.4551
1226.513, 923.7604
1226.995, 928.9314
1227.477, 931.7095
1227.959, 929.7818
1228.441, 927.1692
1228.923, 927.8761
1229.406, 928.7975
1229.888, 923.7267
1230.370, 913.6177
1230.852, 909.9280
1231.334, 912.9669
1231.816, 913.8086
1232.298, 912.1785
1232.780, 916.2992
1233.263, 927.4435
1233.745, 934.6516
1234.227, 931.6359
##END=



