##NAMES=Iodargyrite
##RRUFFID=R080017
##IDEAL CHEMISTRY=Ag^1+^I^1-^
##LOCALITY=Broken Hill, New South Wales, Australia
##OWNER=RRUFF
##SOURCE=Michael Scott
##DESCRIPTION=Lemon-yellow prismatic hexagonal crystals
##STATUS=The identification of this mineral has been confirmed by single-crystal X-ray diffraction.
##URL=rruff.info/R080017
103.5307, 462.0151
104.0128, 479.5194
104.4949, 496.2859
104.9771, 512.3861
105.4592, 527.8966
105.9413, 543.1293
106.4234, 556.2801
106.9055, 571.4126
107.3876, 590.4559
107.8698, 618.4871
108.3519, 642.8577
108.8340, 663.6403
109.3161, 680.9133
109.7982, 694.0718
110.2803, 701.1285
110.7624, 705.4630
111.2446, 708.8742
111.7267, 713.4431
112.2088, 714.9200
112.6909, 712.1130
113.1730, 705.1590
113.6551, 697.4282
114.1373, 688.9464
114.6194, 680.1344
115.1015, 671.2278
115.5836, 664.3065
116.0657, 655.5243
116.5478, 642.5446
117.0300, 624.6509
117.5121, 608.4318
117.9942, 597.4263
118.4763, 589.1736
118.9584, 580.5382
119.4405, 567.1761
119.9227, 555.0756
120.4048, 549.1400
120.8869, 551.2631
121.3690, 553.1810
121.8511, 548.5809
122.3332, 540.0245
122.8154, 532.9028
123.2975, 531.6249
123.7796, 532.4758
124.2617, 531.3094
124.7438, 526.5162
125.2259, 521.6621
125.7081, 520.7672
126.1902, 522.7983
126.6723, 522.1108
127.1544, 517.1830
127.6365, 510.9011
128.1186, 504.6753
128.6008, 498.8078
129.0829, 493.2194
129.5650, 487.7110
130.0471, 482.2952
130.5292, 477.3654
131.0113, 474.1396
131.4935, 471.9675
131.9756, 467.9056
132.4577, 460.2291
132.9398, 450.4925
133.4219, 443.8725
133.9040, 440.6859
134.3862, 437.6532
134.8683, 430.8050
135.3504, 420.2051
135.8325, 410.1731
136.3146, 402.0350
136.7967, 395.6836
137.2789, 390.0538
137.7610, 385.3382
138.2431, 380.7574
138.7252, 375.0558
139.2073, 367.9876
139.6894, 360.9034
140.1716, 354.1010
140.6537, 347.4620
141.1358, 341.7307
141.6179, 337.2042
142.1000, 333.1631
142.5821, 328.2630
143.0643, 322.0867
143.5464, 315.8630
144.0285, 309.9174
144.5106, 304.0807
144.9927, 299.1377
145.4748, 295.7397
145.9570, 293.1490
146.4391, 289.3483
146.9212, 283.5810
147.4033, 277.4900
147.8854, 271.7134
148.3675, 266.0455
148.8497, 261.0698
149.3318, 257.2567
149.8139, 254.3273
150.2960, 250.8537
150.7781, 245.5876
151.2602, 240.6992
151.7424, 237.4085
152.2245, 238.4794
152.7066, 237.9771
153.1887, 234.5023
153.6708, 228.4117
154.1529, 223.8171
154.6351, 221.3557
155.1172, 220.1853
155.5993, 219.7278
156.0814, 221.7917
156.5635, 222.6425
157.0456, 221.0663
157.5278, 217.0702
158.0099, 213.2823
158.4920, 210.3499
158.9741, 207.7629
159.4562, 205.0553
159.9383, 201.5017
160.4205, 198.3718
160.9026, 196.5090
161.3847, 196.0568
161.8668, 194.8603
162.3489, 191.4547
162.8310, 187.1212
163.3132, 183.3510
163.7953, 180.7667
164.2774, 178.7718
164.7595, 177.3690
165.2416, 176.7032
165.7237, 175.4600
166.2059, 171.9596
166.6880, 167.6055
167.1701, 164.5346
167.6522, 164.8515
168.1343, 166.0142
168.6164, 166.2015
169.0986, 165.0745
169.5807, 163.6250
170.0628, 162.5624
170.5449, 161.6562
171.0270, 160.4616
171.5091, 158.2983
171.9913, 155.9693
172.4734, 154.3547
172.9555, 153.7473
173.4376, 153.2558
173.9197, 152.1234
174.4018, 150.4959
174.8840, 148.7702
175.3661, 147.1113
175.8482, 145.5214
176.3303, 143.9026
176.8124, 142.0520
177.2945, 140.6166
177.7767, 140.6268
178.2588, 141.7854
178.7409, 142.8659
179.2230, 143.5629
179.7051, 143.5956
180.1872, 142.2453
180.6694, 138.9530
181.1515, 135.0312
181.6336, 131.9121
182.1157, 129.6308
182.5978, 128.4557
183.0799, 129.3694
183.5621, 131.5884
184.0442, 132.9436
184.5263, 132.8979
185.0084, 131.9867
185.4905, 130.6157
185.9726, 128.8393
186.4547, 127.8508
186.9369, 129.5338
187.4190, 133.0867
187.9011, 134.9064
188.3832, 133.6613
188.8653, 130.8371
189.3474, 129.8003
189.8296, 130.5932
190.3117, 131.7585
190.7938, 132.0697
191.2759, 131.6319
191.7580, 131.2353
192.2401, 130.9713
192.7223, 130.9060
193.2044, 131.4745
193.6865, 132.7960
194.1686, 133.8551
194.6507, 133.5081
195.1328, 131.8248
195.6150, 130.2279
196.0971, 129.0098
196.5792, 128.1387
197.0613, 127.4714
197.5434, 126.9849
198.0255, 126.8031
198.5077, 127.2415
198.9898, 128.3370
199.4719, 129.0950
199.9540, 129.0776
200.4361, 128.5152
200.9182, 128.8482
201.4004, 130.3285
201.8825, 131.9349
202.3646, 132.4502
202.8467, 131.6937
203.3288, 131.4079
203.8109, 132.3767
204.2931, 134.3183
204.7752, 134.4976
205.2573, 132.3342
205.7394, 129.8017
206.2215, 129.2792
206.7036, 131.2949
207.1858, 132.4987
207.6679, 131.7198
208.1500, 129.1499
208.6321, 127.9386
209.1142, 128.5863
209.5963, 129.6519
210.0785, 129.4015
210.5606, 127.3567
211.0427, 125.8396
211.5248, 125.7004
212.0069, 126.8844
212.4890, 126.6576
212.9712, 124.2331
213.4533, 121.6079
213.9354, 121.2963
214.4175, 124.2218
214.8996, 126.6430
215.3817, 127.5862
215.8639, 127.0413
216.3460, 126.6670
216.8281, 126.5402
217.3102, 126.4789
217.7923, 126.2177
218.2744, 125.5493
218.7566, 125.2363
219.2387, 125.6570
219.7208, 126.8480
220.2029, 127.2392
220.6850, 126.4959
221.1671, 125.3445
221.6493, 124.5698
222.1314, 124.2288
222.6135, 124.1368
223.0956, 124.3804
223.5777, 124.9939
224.0598, 125.2246
224.5420, 125.2585
225.0241, 124.7125
225.5062, 122.8782
225.9883, 118.6035
226.4704, 115.5537
226.9525, 115.0092
227.4347, 117.1118
227.9168, 117.8889
228.3989, 116.6452
228.8810, 114.8202
229.3631, 113.9134
229.8452, 114.2127
230.3274, 114.8694
230.8095, 115.8811
231.2916, 117.2793
231.7737, 118.1642
232.2558, 118.4475
232.7379, 118.3124
233.2201, 117.8741
233.7022, 116.8767
234.1843, 116.0906
234.6664, 115.7654
235.1485, 115.9133
235.6306, 115.8105
236.1128, 115.5156
236.5949, 114.9067
237.0770, 113.7407
237.5591, 111.3771
238.0412, 109.7236
238.5233, 109.3568
239.0055, 110.2762
239.4876, 110.7602
239.9697, 110.5707
240.4518, 110.2106
240.9339, 110.1793
241.4160, 110.8667
241.8982, 111.0926
242.3803, 110.4399
242.8624, 108.9464
243.3445, 108.1058
243.8266, 108.2579
244.3087, 108.6679
244.7909, 108.7190
245.2730, 108.2013
245.7551, 107.7114
246.2372, 107.1229
246.7193, 106.5056
247.2014, 107.0755
247.6836, 110.1253
248.1657, 112.7910
248.6478, 112.5129
249.1299, 107.1520
249.6120, 103.5930
250.0941, 103.4212
250.5762, 106.0731
251.0584, 106.8431
251.5405, 104.6006
252.0226, 101.9846
252.5047, 100.9102
252.9868, 102.0697
253.4689, 103.1740
253.9511, 104.2433
254.4332, 105.1273
254.9153, 104.7014
255.3974, 101.8866
255.8795, 99.43187
256.3617, 99.40820
256.8438, 103.3089
257.3259, 105.6380
257.8080, 105.3609
258.2901, 103.2485
258.7722, 102.4476
259.2544, 103.7766
259.7365, 105.0347
260.2186, 104.7939
260.7007, 102.2214
261.1828, 100.7284
261.6649, 100.9164
262.1471, 102.1632
262.6292, 102.4596
263.1113, 101.1867
263.5934, 100.2132
264.0755, 100.7588
264.5576, 103.5880
265.0398, 105.1934
265.5219, 105.3533
266.0040, 104.3505
266.4861, 102.4802
266.9682, 99.07155
267.4503, 96.51186
267.9325, 96.22453
268.4146, 98.83015
268.8967, 100.8228
269.3788, 102.1418
269.8609, 102.9089
270.3430, 103.2904
270.8252, 103.2540
271.3073, 102.9371
271.7894, 102.2830
272.2715, 101.2291
272.7536, 100.4945
273.2357, 100.0986
273.7179, 100.0016
274.2000, 100.2802
274.6821, 101.0781
275.1642, 101.5814
275.6463, 101.3443
276.1284, 100.3639
276.6106, 99.87329
277.0927, 99.93396
277.5748, 100.3503
278.0569, 101.1618
278.5390, 102.5162
279.0211, 102.9951
279.5032, 101.6784
279.9854, 98.89687
280.4675, 97.59639
280.9496, 97.95624
281.4317, 99.19606
281.9138, 100.9435
282.3959, 103.2574
282.8781, 104.4516
283.3602, 103.7180
283.8423, 101.5792
284.3244, 100.2976
284.8065, 99.93792
285.2886, 99.96604
285.7708, 99.86720
286.2529, 99.66405
286.7350, 99.85007
287.2171, 100.6918
287.6992, 101.8758
288.1813, 102.4540
288.6635, 102.4011
289.1456, 102.2624
289.6277, 102.6136
290.1098, 103.3351
290.5919, 103.6224
291.0740, 103.3378
291.5562, 102.5790
292.0383, 101.1582
292.5204, 99.12078
293.0025, 97.68923
293.4846, 98.40208
293.9667, 100.4825
294.4489, 101.0166
294.9310, 99.34142
295.4131, 96.86836
295.8952, 95.43346
296.3773, 94.98295
296.8594, 95.10622
297.3416, 95.98589
297.8237, 97.23763
298.3058, 97.82273
298.7879, 97.54774
299.2700, 97.24619
299.7521, 98.07849
300.2343, 99.74472
300.7164, 101.2459
301.1985, 102.1530
301.6806, 102.5975
302.1627, 102.6566
302.6448, 102.3075
303.1270, 101.9485
303.6091, 102.4403
304.0912, 103.1827
304.5733, 102.9496
305.0554, 99.78252
305.5375, 96.17707
306.0197, 95.33798
306.5018, 97.12737
306.9839, 99.09801
307.4660, 99.31236
307.9481, 98.59006
308.4302, 98.08788
308.9124, 98.25230
309.3945, 98.68227
309.8766, 99.22047
310.3587, 99.81300
310.8408, 100.1453
311.3229, 99.28748
311.8051, 98.40069
312.2872, 98.90793
312.7693, 102.3469
313.2514, 105.1972
313.7335, 104.7725
314.2156, 102.0029
314.6978, 99.61674
315.1799, 98.97960
315.6620, 99.13023
316.1441, 99.48396
316.6262, 100.0542
317.1083, 100.5137
317.5905, 100.6786
318.0726, 100.6428
318.5547, 100.5714
319.0368, 100.5819
319.5189, 100.5210
320.0010, 100.2111
320.4832, 99.52524
320.9653, 99.17339
321.4474, 99.65894
321.9295, 100.4843
322.4116, 101.0674
322.8937, 101.1480
323.3759, 101.1011
323.8580, 100.9146
324.3401, 100.5745
324.8222, 100.5561
325.3043, 101.4388
325.7864, 102.3952
326.2686, 102.7874
326.7507, 101.9803
327.2328, 101.2425
327.7149, 100.6249
328.1970, 100.1583
328.6791, 100.0942
329.1613, 100.7432
329.6434, 101.5468
330.1255, 102.2353
330.6076, 102.9177
331.0897, 103.3276
331.5718, 103.4555
332.0540, 103.3060
332.5361, 102.8556
333.0182, 101.7372
333.5003, 100.7927
333.9824, 100.3608
334.4645, 100.5215
334.9467, 101.0018
335.4288, 102.1092
335.9109, 103.3152
336.3930, 103.6849
336.8751, 102.9290
337.3572, 102.0259
337.8394, 101.2999
338.3215, 100.7804
338.8036, 99.79880
339.2857, 98.06380
339.7678, 96.37091
340.2499, 95.64064
340.7321, 96.02702
341.2142, 96.51105
341.6963, 96.78943
342.1784, 96.99336
342.6605, 97.87675
343.1426, 99.56651
343.6248, 101.3017
344.1069, 102.4166
344.5890, 102.9246
345.0711, 103.4963
345.5532, 104.3318
346.0353, 105.1243
346.5175, 105.0831
346.9996, 104.2193
347.4817, 103.2985
347.9638, 102.4514
348.4459, 101.8736
348.9280, 102.6463
349.4102, 105.1556
349.8923, 107.6988
350.3744, 107.6170
350.8565, 105.5208
351.3386, 103.7765
351.8207, 104.1309
352.3029, 105.3420
352.7850, 105.1521
353.2671, 103.5141
353.7492, 101.8435
354.2313, 101.2567
354.7134, 101.4948
355.1956, 102.1387
355.6777, 103.4114
356.1598, 104.6810
356.6419, 105.3333
357.1240, 105.4440
357.6061, 105.4165
358.0883, 105.4933
358.5704, 105.5541
359.0525, 105.4565
359.5346, 105.0817
360.0167, 104.7221
360.4988, 104.3962
360.9810, 104.2068
361.4631, 104.3879
361.9452, 106.0624
362.4273, 107.3624
362.9094, 106.9337
363.3915, 104.1772
363.8737, 101.8173
364.3558, 100.8625
364.8379, 100.7572
365.3200, 100.8619
365.8021, 101.2728
366.2842, 101.6419
366.7664, 101.5711
367.2485, 101.0470
367.7306, 101.4789
368.2127, 104.7668
368.6948, 107.9850
369.1769, 109.2160
369.6591, 105.6306
370.1412, 103.4838
370.6233, 103.8972
371.1054, 106.0867
371.5875, 107.0398
372.0696, 105.8709
372.5518, 104.5315
373.0339, 103.8475
373.5160, 104.1156
373.9981, 104.1825
374.4802, 103.9718
374.9623, 103.6208
375.4445, 103.3881
375.9266, 103.3814
376.4087, 103.1484
376.8908, 102.2973
377.3729, 100.8778
377.8550, 100.8369
378.3372, 102.5561
378.8193, 104.6378
379.3014, 105.5371
379.7835, 105.1914
380.2656, 105.3420
380.7477, 106.6438
381.2299, 108.3452
381.7120, 108.2795
382.1941, 106.4117
382.6762, 104.4694
383.1583, 103.8595
383.6404, 104.1901
384.1226, 103.7415
384.6047, 102.1052
385.0868, 100.5612
385.5689, 101.1010
386.0510, 103.2327
386.5331, 105.1067
387.0153, 105.8548
387.4974, 105.8411
387.9795, 105.4336
388.4616, 104.6438
388.9437, 103.8734
389.4258, 103.2453
389.9080, 102.8794
390.3901, 102.9916
390.8722, 103.9757
391.3543, 105.0647
391.8364, 105.8071
392.3185, 106.2084
392.8007, 106.3153
393.2828, 106.0499
393.7649, 105.5606
394.2470, 104.7999
394.7291, 103.4212
395.2112, 102.7272
395.6934, 103.5837
396.1755, 105.3212
396.6576, 106.9384
397.1397, 108.9589
397.6218, 110.0971
398.1039, 109.5105
398.5861, 106.9734
399.0682, 105.1452
399.5503, 104.4880
400.0324, 104.5143
400.5145, 104.8811
400.9966, 106.1334
401.4788, 106.9505
401.9609, 107.0001
402.4430, 106.5271
402.9251, 106.5259
403.4072, 107.3718
403.8893, 108.1197
404.3714, 108.2107
404.8535, 107.3110
405.3357, 107.2754
405.8178, 108.5296
406.2999, 110.0805
406.7820, 110.3916
407.2641, 109.2584
407.7462, 108.0291
408.2284, 106.9059
408.7105, 106.0168
409.1926, 106.0411
409.6747, 107.0583
410.1568, 108.4021
410.6389, 109.6910
411.1211, 110.8707
411.6032, 111.7318
412.0853, 112.3098
412.5674, 112.4120
413.0495, 111.5117
413.5316, 109.7725
414.0138, 108.0593
414.4959, 106.4819
414.9780, 105.3395
415.4601, 105.3938
415.9422, 106.7589
416.4243, 108.0700
416.9065, 108.0277
417.3886, 107.2587
417.8707, 106.6858
418.3528, 106.4801
418.8349, 106.7115
419.3170, 107.5946
419.7992, 109.0266
420.2813, 110.4678
420.7634, 112.5405
421.2455, 113.9955
421.7276, 113.7081
422.2097, 110.3742
422.6919, 108.0345
423.1740, 108.8417
423.6561, 110.9876
424.1382, 111.7162
424.6203, 107.9420
425.1024, 105.3729
425.5846, 106.2647
426.0667, 110.9183
426.5488, 113.3578
427.0309, 112.3381
427.5130, 110.2232
427.9951, 108.5113
428.4773, 106.9310
428.9594, 106.4546
429.4415, 107.7080
429.9236, 109.8420
430.4057, 110.5936
430.8878, 109.5773
431.3700, 108.3561
431.8521, 107.7295
432.3342, 107.6984
432.8163, 106.6860
433.2984, 104.3634
433.7805, 102.2035
434.2627, 102.1331
434.7448, 103.9596
435.2269, 105.8146
435.7090, 107.4505
436.1911, 108.6257
436.6732, 108.6057
437.1554, 107.5132
437.6375, 106.3308
438.1196, 105.5074
438.6017, 105.0771
439.0838, 105.1930
439.5659, 105.9469
440.0481, 106.8335
440.5302, 107.4567
441.0123, 107.9216
441.4944, 108.4047
441.9765, 108.9129
442.4586, 109.5168
442.9408, 110.4904
443.4229, 111.7299
443.9050, 112.4713
444.3871, 111.9445
444.8692, 111.1066
445.3513, 110.5896
445.8335, 110.6808
446.3156, 110.7634
446.7977, 111.0136
447.2798, 111.1432
447.7619, 110.6221
448.2440, 107.9896
448.7262, 106.2792
449.2083, 106.5680
449.6904, 109.0040
450.1725, 110.3727
450.6546, 110.1904
451.1367, 109.5291
451.6189, 109.2457
452.1010, 109.5852
452.5831, 109.3882
453.0652, 108.3153
453.5473, 106.8755
454.0294, 106.1660
454.5116, 106.2209
454.9937, 106.7458
455.4758, 107.8928
455.9579, 109.4736
456.4400, 110.4135
456.9221, 110.6866
457.4043, 110.6294
457.8864, 110.7127
458.3685, 110.7474
458.8506, 110.0260
459.3327, 107.8875
459.8148, 105.7487
460.2970, 105.4977
460.7791, 106.7123
461.2612, 108.0087
461.7433, 108.6513
462.2254, 109.0170
462.7076, 109.4282
463.1897, 109.9307
463.6718, 110.3315
464.1539, 110.6656
464.6360, 110.7906
465.1181, 110.5554
465.6003, 109.0067
466.0824, 108.0873
466.5645, 108.8785
467.0466, 110.8408
467.5287, 111.8997
468.0108, 110.9245
468.4930, 109.8155
468.9751, 109.2860
469.4572, 109.5667
469.9393, 109.5201
470.4214, 108.7221
470.9035, 107.9844
471.3857, 108.3698
471.8678, 110.4351
472.3499, 111.8380
472.8320, 112.0748
473.3141, 111.4288
473.7962, 110.7621
474.2784, 110.0345
474.7605, 109.5813
475.2426, 109.7946
475.7247, 110.5302
476.2068, 110.7683
476.6889, 110.3812
477.1711, 110.0970
477.6532, 111.0717
478.1353, 112.8289
478.6174, 114.0533
479.0995, 114.2408
479.5816, 113.7967
480.0638, 112.7714
480.5459, 111.3843
481.0280, 110.4787
481.5101, 110.6475
481.9922, 111.4128
482.4743, 112.6163
482.9565, 114.4089
483.4386, 115.6367
483.9207, 115.9045
484.4028, 115.3331
484.8849, 114.0366
485.3670, 110.1576
485.8492, 107.6712
486.3313, 108.2956
486.8134, 111.2782
487.2955, 112.6936
487.7776, 111.4977
488.2597, 109.9574
488.7419, 108.8502
489.2240, 108.1556
489.7061, 108.1207
490.1882, 109.0258
490.6703, 110.1790
491.1524, 110.8842
491.6346, 111.1361
492.1167, 110.8679
492.5988, 109.7849
493.0809, 108.4395
493.5630, 108.3089
494.0451, 109.3665
494.5273, 110.8319
495.0094, 112.4658
495.4915, 114.1460
495.9736, 115.8179
496.4557, 117.5111
496.9378, 118.4897
497.4200, 117.5157
497.9021, 115.5302
498.3842, 113.9870
498.8663, 113.4089
499.3484, 113.2360
499.8305, 113.1894
500.3127, 113.2755
500.7948, 113.5080
501.2769, 114.2358
501.7590, 114.8210
502.2411, 114.8717
502.7232, 114.2648
503.2054, 113.8426
503.6875, 113.7444
504.1696, 113.8587
504.6517, 114.1184
505.1338, 114.6357
505.6159, 115.1114
506.0981, 115.6028
506.5802, 116.0049
507.0623, 116.0271
507.5444, 115.5522
508.0265, 115.0856
508.5086, 114.9642
508.9908, 115.0682
509.4729, 114.1860
509.9550, 112.1922
510.4371, 110.2249
510.9192, 109.0243
511.4013, 108.6550
511.8835, 109.7420
512.3655, 112.8690
512.8477, 115.8797
513.3298, 115.7780
513.8119, 113.5837
514.2940, 111.7196
514.7761, 111.4047
515.2582, 111.7547
515.7404, 112.2017
516.2225, 112.7358
516.7046, 113.3722
517.1867, 114.8214
517.6688, 115.8875
518.1509, 115.5506
518.6331, 112.6724
519.1152, 110.8471
519.5973, 111.7221
520.0794, 113.5538
520.5615, 114.0826
521.0436, 111.9560
521.5258, 110.6264
522.0079, 110.7019
522.4900, 111.9963
522.9721, 113.9802
523.4542, 117.2487
523.9363, 119.3562
524.4185, 118.3213
524.9006, 114.1684
525.3827, 111.8344
525.8648, 111.4661
526.3469, 112.0875
526.8290, 113.0530
527.3112, 114.1959
527.7933, 114.8623
528.2754, 114.8114
528.7575, 114.3968
529.2396, 113.7488
529.7217, 113.0400
530.2039, 112.7837
530.6860, 114.1718
531.1681, 115.4047
531.6502, 114.5818
532.1323, 111.6917
532.6144, 110.0086
533.0966, 112.2365
533.5787, 115.2084
534.0608, 116.6818
534.5429, 115.2535
535.0250, 114.0206
535.5071, 113.2583
535.9893, 112.8203
536.4714, 112.5071
536.9535, 112.2069
537.4356, 112.2934
537.9177, 113.1095
538.3998, 114.4239
538.8820, 114.5766
539.3641, 113.3214
539.8462, 112.0462
540.3283, 111.8185
540.8104, 112.4404
541.2925, 112.1637
541.7747, 110.7114
542.2568, 109.7442
542.7389, 111.9147
543.2210, 115.9185
543.7031, 118.7052
544.1852, 119.3529
544.6674, 118.6017
545.1495, 115.6705
545.6316, 111.7674
546.1137, 109.9122
546.5958, 114.1369
547.0779, 118.5007
547.5601, 119.3541
548.0422, 116.4087
548.5243, 114.3486
549.0064, 114.8337
549.4885, 116.0366
549.9706, 116.8545
550.4528, 117.2575
550.9349, 117.2569
551.4170, 116.5845
551.8991, 115.7171
552.3812, 115.4453
552.8633, 115.9825
553.3455, 116.2156
553.8276, 115.7672
554.3097, 114.8919
554.7918, 114.2802
555.2739, 113.9417
555.7560, 114.1022
556.2382, 115.6282
556.7203, 117.6214
557.2024, 117.6282
557.6845, 115.4779
558.1666, 113.6173
558.6487, 114.9435
559.1309, 117.4558
559.6130, 118.3957
560.0951, 116.0600
560.5772, 114.0867
561.0593, 114.8852
561.5414, 117.1212
562.0236, 118.4253
562.5057, 117.2368
562.9878, 116.0945
563.4699, 115.5909
563.9520, 115.7098
564.4341, 116.4192
564.9163, 118.7945
565.3984, 120.2280
565.8805, 118.8018
566.3626, 113.5547
566.8447, 111.7141
567.3268, 114.0158
567.8090, 117.5763
568.2911, 119.2542
568.7732, 119.2158
569.2553, 118.7084
569.7374, 117.7693
570.2195, 116.9257
570.7017, 117.1240
571.1838, 118.0637
571.6659, 118.7865
572.1480, 118.4854
572.6301, 118.0225
573.1122, 118.3777
573.5944, 119.4162
574.0765, 119.8680
574.5586, 118.4072
575.0407, 116.7552
575.5228, 115.9095
576.0049, 116.0902
576.4871, 116.8424
576.9692, 119.0631
577.4513, 121.2462
577.9334, 121.9349
578.4155, 120.5018
578.8976, 118.9613
579.3798, 117.3404
579.8619, 115.9055
580.3440, 115.4774
580.8261, 116.1277
581.3082, 116.8968
581.7903, 117.6716
582.2725, 118.1850
582.7546, 117.1331
583.2367, 114.6672
583.7188, 112.7905
584.2009, 113.3391
584.6830, 115.2234
585.1652, 117.2560
585.6473, 119.3986
586.1294, 120.9240
586.6115, 121.2508
587.0936, 120.8286
587.5757, 120.1208
588.0579, 118.2308
588.5400, 117.2608
589.0221, 118.5265
589.5042, 120.8985
589.9863, 121.7131
590.4684, 119.8972
590.9506, 118.2517
591.4327, 117.5493
591.9148, 117.6705
592.3969, 117.5329
592.8790, 117.0760
593.3611, 116.6248
593.8433, 116.3633
594.3254, 116.2865
594.8075, 116.4546
595.2896, 116.9140
595.7717, 117.1874
596.2538, 116.1450
596.7360, 114.7152
597.2181, 114.8406
597.7002, 117.9560
598.1823, 120.6683
598.6644, 120.1654
599.1465, 117.7996
599.6287, 115.8843
600.1108, 114.9533
600.5929, 114.8210
601.0750, 116.0393
601.5571, 118.3249
602.0392, 119.3968
602.5214, 118.4269
603.0035, 117.3426
603.4856, 116.9826
603.9677, 117.4233
604.4498, 117.2989
604.9319, 116.3632
605.4141, 115.6215
605.8962, 116.3584
606.3783, 118.2893
606.8604, 119.4365
607.3425, 119.5167
607.8246, 118.9628
608.3068, 117.7769
608.7889, 116.3751
609.2710, 115.7090
609.7531, 116.6555
610.2352, 117.8123
610.7173, 118.2199
611.1995, 118.1109
611.6816, 118.1244
612.1637, 118.2879
612.6458, 118.7816
613.1279, 120.2097
613.6100, 122.6180
614.0922, 123.0538
614.5743, 119.9490
615.0564, 116.9469
615.5385, 116.3381
616.0206, 118.7553
616.5027, 119.6389
616.9849, 118.6155
617.4670, 117.1873
617.9491, 117.2367
618.4312, 118.4712
618.9133, 119.3461
619.3954, 119.4508
619.8776, 119.3820
620.3597, 120.1099
620.8418, 121.2103
621.3239, 121.7293
621.8060, 120.7378
622.2881, 119.5483
622.7703, 118.7860
623.2524, 118.4292
623.7345, 118.3528
624.2166, 119.1786
624.6987, 119.6540
625.1808, 119.1211
625.6630, 117.4852
626.1451, 116.2248
626.6272, 115.1939
627.1093, 114.7549
627.5914, 115.4692
628.0735, 117.4748
628.5557, 118.4500
629.0378, 118.0940
629.5199, 117.4209
630.0020, 117.9526
630.4841, 119.1905
630.9662, 119.4222
631.4484, 117.7761
631.9305, 115.9372
632.4126, 115.6468
632.8947, 116.3663
633.3768, 116.9996
633.8589, 117.0021
634.3411, 116.9292
634.8232, 117.0357
635.3053, 117.2834
635.7874, 117.4046
636.2695, 117.0831
636.7516, 116.9503
637.2338, 117.2140
637.7159, 117.8832
638.1980, 118.9446
638.6801, 120.7112
639.1622, 121.9883
639.6443, 121.2233
640.1265, 118.7850
640.6086, 118.1830
641.0907, 119.9311
641.5728, 122.0230
642.0549, 122.6027
642.5370, 121.9719
643.0192, 120.5318
643.5013, 117.7701
643.9834, 115.4702
644.4655, 114.5672
644.9476, 114.9195
645.4297, 116.2444
645.9119, 120.6156
646.3940, 123.5935
646.8761, 123.3893
647.3582, 120.7973
647.8403, 118.6065
648.3224, 116.5541
648.8046, 115.4056
649.2867, 115.6234
649.7688, 117.0623
650.2509, 118.5532
650.7330, 120.1730
651.2151, 121.1549
651.6973, 120.1896
652.1794, 118.2671
652.6615, 118.2541
653.1436, 120.4709
653.6257, 122.1127
654.1078, 119.6955
654.5900, 116.1181
655.0721, 114.6972
655.5542, 117.4143
656.0363, 119.7867
656.5184, 119.9045
657.0005, 119.1011
657.4827, 119.1787
657.9648, 121.3346
658.4469, 122.3841
658.9290, 121.4362
659.4111, 119.4541
659.8932, 118.9315
660.3754, 120.0567
660.8575, 121.0534
661.3396, 121.2706
661.8217, 120.9162
662.3038, 120.4023
662.7859, 119.7470
663.2681, 119.0800
663.7502, 118.3849
664.2323, 117.7805
664.7144, 117.3449
665.1965, 117.0864
665.6786, 117.0682
666.1608, 117.5325
666.6429, 118.0879
667.1250, 118.5046
667.6071, 118.7561
668.0892, 118.8945
668.5714, 119.0906
669.0535, 118.9938
669.5356, 117.9396
670.0177, 115.5559
670.4998, 115.0098
670.9819, 117.0372
671.4641, 119.8237
671.9462, 120.6680
672.4283, 119.9759
672.9104, 119.3570
673.3925, 119.2170
673.8746, 119.4549
674.3568, 120.2319
674.8389, 121.2955
675.3210, 122.1004
675.8031, 122.1065
676.2852, 122.1194
676.7673, 122.8018
677.2495, 123.9114
677.7316, 123.8722
678.2137, 121.3163
678.6958, 119.5207
679.1779, 120.0355
679.6600, 122.7093
680.1422, 123.5888
680.6243, 122.4499
681.1064, 120.9230
681.5885, 120.0959
682.0706, 119.7750
682.5527, 119.2471
683.0349, 118.4577
683.5170, 117.9841
683.9991, 118.8945
684.4812, 120.0600
684.9633, 119.9691
685.4454, 117.6780
685.9276, 116.2614
686.4097, 117.9155
686.8918, 120.4231
687.3739, 121.3006
687.8560, 119.0355
688.3381, 117.7160
688.8203, 117.8693
689.3024, 118.7582
689.7845, 118.8975
690.2666, 118.1520
690.7487, 118.7610
691.2308, 122.0044
691.7130, 125.8439
692.1951, 126.4541
692.6772, 124.5313
693.1593, 122.6413
693.6414, 122.2926
694.1235, 122.2522
694.6057, 121.5171
695.0878, 120.2583
695.5699, 119.2054
696.0520, 118.3493
696.5341, 117.9857
697.0162, 118.6567
697.4984, 120.3282
697.9805, 120.4845
698.4626, 118.2931
698.9447, 116.2923
699.4268, 116.0240
699.9089, 117.4033
700.3911, 118.9672
700.8732, 120.7520
701.3553, 122.2695
701.8374, 123.0021
702.3195, 123.2037
702.8016, 123.4493
703.2838, 123.9246
703.7659, 123.6565
704.2480, 120.4778
704.7301, 117.0948
705.2122, 116.2187
705.6943, 120.8619
706.1765, 123.8634
706.6586, 123.9476
707.1407, 122.7185
707.6228, 122.0344
708.1049, 122.0434
708.5870, 121.9393
709.0692, 121.4935
709.5513, 121.0868
710.0334, 121.8579
710.5155, 123.4556
710.9976, 123.9135
711.4797, 121.8297
711.9618, 119.2832
712.4439, 118.6296
712.9260, 119.2126
713.4081, 119.4290
713.8903, 117.5084
714.3724, 116.2549
714.8545, 117.2603
715.3366, 120.1138
715.8187, 121.9059
716.3008, 122.0720
716.7830, 122.1731
717.2651, 122.9186
717.7472, 124.1235
718.2293, 124.0737
718.7114, 122.7001
719.1935, 121.2432
719.6757, 120.2265
720.1578, 119.7560
720.6399, 120.4651
721.1220, 122.2541
721.6041, 123.4176
722.0862, 121.9924
722.5684, 120.0905
723.0505, 119.3491
723.5326, 120.2339
724.0147, 120.9566
724.4968, 121.3022
724.9789, 121.3609
725.4611, 121.0134
725.9432, 119.8809
726.4253, 120.1144
726.9074, 122.1930
727.3895, 124.2734
727.8716, 124.0708
728.3538, 122.1168
728.8359, 120.3769
729.3180, 119.0408
729.8001, 118.5613
730.2822, 120.3159
730.7643, 122.8260
731.2465, 124.0618
731.7286, 122.8229
732.2107, 121.2420
732.6928, 119.2974
733.1749, 117.5649
733.6570, 116.9665
734.1392, 118.1377
734.6213, 118.9516
735.1034, 118.8217
735.5855, 118.5251
736.0676, 120.1436
736.5497, 123.4933
737.0319, 125.7062
737.5140, 125.3947
737.9961, 124.0498
738.4782, 123.3582
738.9603, 123.2021
739.4424, 123.2772
739.9246, 123.7343
740.4067, 124.1087
740.8888, 123.9261
741.3709, 123.4087
741.8530, 123.6743
742.3351, 125.9134
742.8173, 127.1280
743.2994, 126.1188
743.7815, 123.3955
744.2636, 121.7840
744.7457, 121.3505
745.2278, 121.0926
745.7100, 119.8589
746.1921, 118.6370
746.6742, 120.2544
747.1563, 124.1893
747.6384, 126.7692
748.1205, 124.6409
748.6027, 121.3915
749.0848, 119.1223
749.5669, 118.0062
750.0490, 118.0031
750.5311, 120.5390
751.0132, 122.5586
751.4954, 122.2606
751.9775, 119.3485
752.4596, 118.7447
752.9417, 120.8740
753.4238, 123.1933
753.9059, 123.6540
754.3881, 122.7986
754.8702, 121.7940
755.3523, 120.7233
755.8344, 120.1587
756.3165, 121.2479
756.7986, 122.5965
757.2808, 122.7620
757.7629, 121.0075
758.2450, 120.0784
758.7271, 121.1657
759.2092, 122.6069
759.6913, 123.2717
760.1735, 122.9501
760.6556, 122.6573
761.1377, 122.3787
761.6198, 122.2492
762.1019, 122.7735
762.5840, 123.5897
763.0662, 123.3500
763.5483, 121.6600
764.0304, 119.8491
764.5125, 118.4116
764.9946, 117.7809
765.4767, 118.6276
765.9589, 122.6683
766.4410, 125.4154
766.9231, 125.5400
767.4052, 124.3839
767.8873, 123.1578
768.3694, 121.7919
768.8516, 120.5845
769.3337, 119.3639
769.8158, 118.7837
770.2979, 120.7222
770.7800, 124.2669
771.2621, 125.9265
771.7443, 124.2040
772.2264, 121.7865
772.7085, 120.1554
773.1906, 119.5358
773.6727, 120.2632
774.1548, 125.3068
774.6370, 128.0968
775.1191, 125.9252
775.6012, 121.6440
776.0833, 119.8478
776.5654, 121.2009
777.0475, 122.1425
777.5297, 121.8282
778.0118, 121.1213
778.4939, 122.0099
778.9760, 123.9423
779.4581, 124.7535
779.9402, 122.8332
780.4224, 120.7111
780.9045, 120.3635
781.3866, 121.2683
781.8687, 122.4573
782.3508, 124.7157
782.8329, 125.9029
783.3151, 125.0343
783.7972, 123.0996
784.2793, 122.3257
784.7614, 122.8953
785.2435, 123.7407
785.7256, 124.7999
786.2078, 125.6696
786.6899, 125.3527
787.1720, 124.0915
787.6541, 122.7864
788.1362, 121.1289
788.6183, 120.2350
789.1005, 121.8609
789.5826, 124.8407
790.0647, 126.2066
790.5468, 123.4379
791.0289, 121.2608
791.5110, 120.6466
791.9932, 121.2400
792.4753, 122.2148
792.9574, 123.6804
793.4395, 124.5762
793.9216, 124.3874
794.4037, 123.5646
794.8859, 122.4549
795.3680, 121.3645
795.8501, 121.3307
796.3322, 124.6863
796.8143, 127.4594
797.2964, 126.4828
797.7786, 122.9576
798.2607, 121.3428
798.7428, 123.7742
799.2249, 125.5713
799.7070, 125.6793
800.1891, 124.3939
800.6713, 122.1373
801.1534, 118.8940
801.6355, 116.8988
802.1176, 117.5865
802.5997, 119.5718
803.0818, 121.1084
803.5640, 122.2513
804.0461, 123.1660
804.5282, 124.2579
805.0103, 124.7987
805.4924, 123.9922
805.9745, 122.2595
806.4567, 121.5566
806.9388, 122.4394
807.4209, 123.1762
807.9030, 123.2884
808.3851, 122.9207
808.8672, 122.3537
809.3494, 121.6313
809.8315, 121.1690
810.3136, 121.4001
810.7957, 121.7730
811.2778, 121.4890
811.7599, 120.8680
812.2421, 120.8071
812.7242, 122.4458
813.2063, 123.7750
813.6884, 123.8916
814.1705, 123.2534
814.6526, 123.4530
815.1348, 124.8591
815.6169, 125.5540
816.0990, 124.7235
816.5811, 123.0719
817.0632, 122.0462
817.5453, 121.5621
818.0275, 121.2901
818.5096, 120.6292
818.9917, 120.5397
819.4738, 122.6875
819.9559, 125.9270
820.4380, 127.1721
820.9202, 123.2487
821.4023, 120.6194
821.8844, 120.8445
822.3665, 122.8346
822.8486, 123.6989
823.3307, 123.3872
823.8129, 123.4744
824.2950, 124.8018
824.7771, 126.3242
825.2592, 126.5625
825.7413, 125.7768
826.2234, 124.6073
826.7056, 122.3842
827.1877, 120.8519
827.6698, 121.1986
828.1519, 122.6315
828.6340, 123.2414
829.1161, 122.4993
829.5983, 122.1799
830.0804, 122.6894
830.5625, 123.6642
831.0446, 124.7342
831.5267, 125.7415
832.0089, 125.7247
832.4910, 123.6111
832.9731, 121.7877
833.4552, 123.7297
833.9373, 127.0733
834.4194, 128.0069
834.9016, 121.4334
835.3837, 117.8144
835.8658, 119.7766
836.3479, 124.2355
836.8300, 126.7437
837.3121, 127.1903
837.7943, 126.2753
838.2764, 123.6620
838.7585, 121.0432
839.2406, 121.0833
839.7227, 122.7748
840.2048, 124.0768
840.6870, 124.3223
841.1691, 124.3404
841.6512, 124.5948
842.1333, 124.8081
842.6154, 124.5907
843.0975, 123.4438
843.5797, 123.0211
844.0618, 123.6339
844.5439, 124.5238
845.0260, 124.6180
845.5081, 124.1288
845.9902, 124.1398
846.4724, 124.8530
846.9545, 125.8179
847.4366, 127.1532
847.9187, 128.2687
848.4008, 128.4405
848.8829, 127.2176
849.3651, 125.9510
849.8472, 124.7597
850.3293, 123.6427
850.8114, 122.4204
851.2935, 120.9700
851.7756, 120.9227
852.2578, 122.5017
852.7399, 124.2021
853.2220, 124.7226
853.7041, 124.4475
854.1862, 123.7889
854.6683, 122.7734
855.1505, 122.0824
855.6326, 122.0439
856.1147, 122.4292
856.5968, 122.9330
857.0789, 123.4039
857.5610, 125.6739
858.0432, 130.6918
858.5253, 134.5426
859.0074, 133.1833
859.4895, 128.5792
859.9716, 128.7335
860.4537, 133.1751
860.9359, 136.4214
861.4180, 133.8855
861.9001, 129.8087
862.3822, 126.5923
862.8643, 124.4533
863.3464, 123.8396
863.8286, 125.9852
864.3107, 127.4965
864.7928, 126.8500
865.2749, 124.6843
865.7570, 124.0613
866.2391, 124.8952
866.7213, 125.7958
867.2034, 125.9807
867.6855, 125.9260
868.1676, 126.1166
868.6497, 126.4903
869.1318, 126.8643
869.6140, 127.1152
870.0961, 127.4573
870.5782, 128.2145
871.0603, 128.9965
871.5424, 128.6956
872.0245, 127.1913
872.5067, 125.7521
872.9888, 124.6684
873.4709, 123.8748
873.9530, 123.1228
874.4351, 122.5930
874.9172, 122.7171
875.3994, 124.1733
875.8815, 125.4987
876.3636, 126.1107
876.8457, 126.2881
877.3278, 126.4138
877.8099, 126.4230
878.2921, 126.7208
878.7742, 127.6027
879.2563, 128.1231
879.7384, 126.4249
880.2205, 123.4216
880.7026, 121.7690
881.1848, 122.0719
881.6669, 122.9551
882.1490, 124.0607
882.6311, 124.9761
883.1132, 125.3107
883.5953, 124.8676
884.0775, 124.2053
884.5596, 123.0197
885.0417, 122.1823
885.5238, 122.5525
886.0059, 123.9215
886.4880, 125.0021
886.9702, 125.7545
887.4523, 126.5009
887.9344, 127.8123
888.4165, 128.9741
888.8986, 129.3066
889.3807, 128.7796
889.8629, 128.0508
890.3450, 126.7626
890.8271, 125.9614
891.3092, 126.1711
891.7913, 127.1876
892.2734, 127.9037
892.7556, 128.3330
893.2377, 128.8877
893.7198, 130.3939
894.2019, 131.6257
894.6840, 131.0738
895.1661, 129.2046
895.6483, 127.3334
896.1304, 125.5838
896.6125, 124.1758
897.0946, 122.7778
897.5767, 121.9130
898.0588, 123.2899
898.5410, 127.0641
899.0231, 129.0415
899.5052, 127.7322
899.9873, 125.7013
900.4694, 126.7255
900.9515, 129.1009
901.4337, 129.8069
901.9158, 126.6466
902.3979, 124.4796
902.8800, 125.7754
903.3621, 127.8380
903.8442, 128.3493
904.3264, 127.0161
904.8085, 125.7425
905.2906, 124.5467
905.7727, 123.6470
906.2548, 123.3143
906.7369, 123.3709
907.2191, 123.4803
907.7012, 123.5981
908.1833, 124.1193
908.6654, 125.9708
909.1475, 127.5789
909.6296, 128.0093
910.1118, 127.2867
910.5939, 126.6443
911.0760, 126.0806
911.5581, 125.6283
912.0402, 125.3075
912.5223, 125.1092
913.0045, 125.0405
913.4866, 125.0845
913.9687, 125.1838
914.4508, 125.3728
914.9329, 125.5456
915.4150, 125.9943
915.8972, 126.3418
916.3793, 125.3606
916.8614, 122.4171
917.3435, 120.9031
917.8256, 121.9388
918.3077, 123.9022
918.7899, 123.7599
919.2720, 122.5158
919.7541, 122.7481
920.2362, 126.0872
920.7183, 128.8702
921.2004, 128.9250
921.6826, 127.8426
922.1647, 127.3063
922.6468, 127.6357
923.1289, 127.5845
923.6110, 127.0499
924.0931, 126.4556
924.5753, 126.2499
925.0574, 126.2818
925.5395, 126.3059
926.0216, 126.2945
926.5037, 126.0131
926.9858, 124.7893
927.4680, 123.7262
927.9501, 123.6237
928.4322, 124.4075
928.9143, 125.2111
929.3964, 126.1589
929.8785, 126.6290
930.3607, 126.1154
930.8428, 125.1394
931.3249, 124.8257
931.8070, 125.0634
932.2891, 125.4904
932.7712, 126.2902
933.2534, 126.8568
933.7355, 126.8313
934.2176, 126.4285
934.6997, 126.0749
935.1818, 125.7623
935.6639, 125.4855
936.1461, 125.1873
936.6282, 125.0793
937.1103, 125.7538
937.5924, 126.7706
938.0745, 127.0563
938.5566, 126.2545
939.0388, 125.5567
939.5209, 125.7160
940.0030, 126.0883
940.4851, 126.1767
940.9672, 125.9181
941.4493, 125.7952
941.9315, 125.7796
942.4136, 126.0311
942.8957, 127.0993
943.3778, 128.3329
943.8599, 128.1385
944.3420, 126.8142
944.8242, 125.9449
945.3063, 126.9899
945.7884, 127.9030
946.2705, 127.4051
946.7526, 126.2036
947.2347, 126.4535
947.7169, 128.4938
948.1990, 129.7393
948.6811, 129.4087
949.1632, 128.2804
949.6453, 126.8323
950.1274, 125.5533
950.6096, 125.5175
951.0917, 127.8568
951.5738, 129.5616
952.0559, 129.3423
952.5380, 128.4034
953.0201, 127.4972
953.5023, 126.5325
953.9844, 126.5095
954.4665, 127.5481
954.9486, 128.4634
955.4307, 127.9495
955.9128, 126.9303
956.3950, 126.8414
956.8771, 127.6233
957.3591, 127.6795
957.8412, 124.7479
958.3234, 123.1247
958.8055, 124.8605
959.2876, 128.6913
959.7697, 129.5008
960.2518, 127.3561
960.7339, 125.5518
961.2161, 125.2610
961.6982, 125.7816
962.1803, 126.7465
962.6624, 127.8835
963.1445, 128.7920
963.6266, 130.0723
964.1088, 129.8148
964.5909, 126.7246
965.0730, 123.7011
965.5551, 124.5395
966.0372, 128.6212
966.5193, 130.0919
967.0015, 128.5137
967.4836, 126.3722
967.9657, 124.7622
968.4478, 124.0732
968.9299, 125.1177
969.4120, 127.9012
969.8942, 129.8081
970.3763, 130.8468
970.8584, 130.6838
971.3405, 128.6052
971.8226, 125.7296
972.3047, 125.3117
972.7869, 126.8600
973.2690, 128.3645
973.7511, 129.1633
974.2332, 129.4645
974.7153, 128.8485
975.1974, 128.0367
975.6796, 128.1914
976.1617, 130.1678
976.6438, 130.5133
977.1259, 128.6766
977.6080, 126.5746
978.0901, 126.5662
978.5723, 127.6438
979.0544, 127.5815
979.5365, 126.1942
980.0186, 125.0795
980.5007, 125.1849
980.9828, 125.6086
981.4650, 125.7536
981.9471, 125.7685
982.4292, 126.9282
982.9113, 129.3647
983.3934, 131.4192
983.8755, 132.3121
984.3577, 132.6837
984.8398, 133.7538
985.3219, 134.8781
985.8040, 134.8149
986.2861, 131.3291
986.7682, 129.3870
987.2504, 130.5019
987.7325, 132.2766
988.2146, 131.9680
988.6967, 129.7301
989.1788, 128.8302
989.6609, 129.5132
990.1431, 130.2268
990.6252, 129.4092
991.1073, 128.3264
991.5894, 128.1435
992.0715, 128.9049
992.5536, 129.4489
993.0358, 129.4016
993.5179, 129.8442
994.0000, 131.4845
994.4821, 133.4486
994.9642, 133.1687
995.4464, 131.3151
995.9285, 130.2992
996.4106, 131.7431
996.8927, 132.7356
997.3748, 130.8535
997.8569, 128.2284
998.3391, 127.3508
998.8212, 128.9775
999.3033, 129.6009
999.7854, 128.9546
1000.268, 128.4733
1000.750, 130.0751
1001.232, 132.2985
1001.714, 132.4220
1002.196, 130.6370
1002.678, 129.4782
1003.160, 130.5723
1003.642, 131.7325
1004.124, 132.2995
1004.607, 132.4624
1005.089, 132.7469
1005.571, 133.1412
1006.053, 133.3477
1006.535, 133.2598
1007.017, 133.0320
1007.499, 132.5241
1007.981, 132.1015
1008.464, 132.2882
1008.946, 133.7527
1009.428, 134.2306
1009.910, 133.3575
1010.392, 132.2164
1010.874, 131.6245
1011.356, 131.3785
1011.838, 130.5648
1012.320, 129.3456
1012.803, 128.6256
1013.285, 129.4584
1013.767, 130.3403
1014.249, 130.2541
1014.731, 129.7726
1015.213, 130.1794
1015.695, 131.6359
1016.177, 133.0933
1016.659, 134.4652
1017.142, 135.4246
1017.624, 135.4107
1018.106, 134.7877
1018.588, 133.9650
1019.070, 132.9374
1019.552, 132.1961
1020.034, 132.0334
1020.516, 131.9014
1020.999, 131.3879
1021.481, 130.7020
1021.963, 131.2104
1022.445, 132.7393
1022.927, 134.0854
1023.409, 134.6954
1023.891, 134.8766
1024.373, 134.5736
1024.855, 134.0537
1025.338, 133.8342
1025.820, 134.2194
1026.302, 133.9899
1026.784, 132.8650
1027.266, 131.8284
1027.748, 132.1203
1028.230, 133.1480
1028.712, 133.7698
1029.195, 133.9168
1029.677, 134.2348
1030.159, 135.8751
1030.641, 136.6654
1031.123, 135.5832
1031.605, 133.2053
1032.087, 131.2647
1032.569, 129.7924
1033.052, 129.2005
1033.534, 129.9156
1034.016, 130.8096
1034.498, 130.6619
1034.980, 130.2107
1035.462, 130.3988
1035.944, 131.7592
1036.426, 132.5449
1036.908, 132.5306
1037.391, 132.5674
1037.873, 133.5915
1038.355, 135.0285
1038.837, 135.1105
1039.319, 134.1518
1039.801, 133.5790
1040.283, 134.9153
1040.765, 135.7097
1041.247, 134.7894
1041.730, 133.1059
1042.212, 131.9299
1042.694, 131.2608
1043.176, 132.0803
1043.658, 134.7993
1044.140, 136.9799
1044.622, 135.1962
1045.104, 132.6548
1045.587, 132.9589
1046.069, 136.7193
1046.551, 138.4970
1047.033, 137.4704
1047.515, 136.0070
1047.997, 134.7828
1048.479, 133.9485
1048.961, 134.0102
1049.443, 134.7209
1049.926, 135.5174
1050.408, 136.6716
1050.890, 137.0339
1051.372, 135.1973
1051.854, 133.1918
1052.336, 132.6282
1052.818, 133.5627
1053.300, 135.1730
1053.782, 137.4574
1054.265, 138.7925
1054.747, 137.2984
1055.229, 134.9790
1055.711, 133.1051
1056.193, 131.8114
1056.675, 131.3957
1057.157, 132.0974
1057.639, 133.0044
1058.122, 134.0334
1058.604, 135.0721
1059.086, 136.2670
1059.568, 137.2662
1060.050, 137.1800
1060.532, 135.7599
1061.014, 134.6013
1061.496, 134.6553
1061.979, 134.7615
1062.461, 134.3504
1062.943, 133.5988
1063.425, 133.4545
1063.907, 133.8429
1064.389, 133.9864
1064.871, 133.3537
1065.353, 132.8093
1065.835, 133.1995
1066.318, 133.9733
1066.800, 134.4002
1067.282, 134.2851
1067.764, 134.2922
1068.246, 134.3609
1068.728, 134.8295
1069.210, 136.7587
1069.692, 138.8045
1070.174, 138.2031
1070.657, 135.6771
1071.139, 134.1696
1071.621, 135.8632
1072.103, 137.0376
1072.585, 137.0983
1073.067, 136.3802
1073.549, 134.7223
1074.031, 132.6468
1074.514, 132.6427
1074.996, 135.1397
1075.478, 137.8090
1075.960, 139.6540
1076.442, 140.7271
1076.924, 140.8253
1077.406, 140.1345
1077.888, 139.4771
1078.370, 138.8390
1078.853, 138.5175
1079.335, 138.7492
1079.817, 139.0359
1080.299, 138.8316
1080.781, 138.3349
1081.263, 137.7531
1081.745, 136.8455
1082.227, 136.7861
1082.709, 138.0327
1083.192, 138.9518
1083.674, 137.8577
1084.156, 135.9000
1084.638, 136.6837
1085.120, 139.2753
1085.602, 140.4924
1086.084, 137.4343
1086.566, 134.8793
1087.048, 133.8005
1087.531, 133.8495
1088.013, 134.9820
1088.495, 137.0727
1088.977, 138.8068
1089.459, 140.0885
1089.941, 140.3725
1090.423, 138.1169
1090.905, 135.7984
1091.388, 135.1994
1091.870, 135.9841
1092.352, 136.6486
1092.834, 137.2488
1093.316, 137.2981
1093.798, 136.5755
1094.280, 135.6648
1094.762, 134.8496
1095.245, 134.4705
1095.727, 135.1984
1096.209, 137.4128
1096.691, 138.7599
1097.173, 138.8387
1097.655, 138.6481
1098.137, 138.4963
1098.619, 138.4959
1099.101, 139.2266
1099.583, 140.3065
1100.066, 140.7353
1100.548, 139.5272
1101.030, 138.7986
1101.512, 139.5961
1101.994, 140.5518
1102.476, 140.6148
1102.958, 139.8408
1103.440, 138.9279
1103.923, 137.9199
1104.405, 137.2007
1104.887, 137.3108
1105.369, 137.4358
1105.851, 137.0154
1106.333, 136.3257
1106.815, 135.7702
1107.297, 135.2311
1107.780, 135.9645
1108.262, 138.2667
1108.744, 140.3772
1109.226, 140.7023
1109.708, 140.0297
1110.190, 138.5969
1110.672, 136.6673
1111.154, 136.3534
1111.636, 138.5856
1112.119, 139.9513
1112.601, 139.4781
1113.083, 138.2319
1113.565, 137.4461
1114.047, 137.1526
1114.529, 137.6102
1115.011, 139.0687
1115.493, 139.8477
1115.975, 139.0374
1116.458, 138.3438
1116.940, 138.5935
1117.422, 139.4120
1117.904, 139.5172
1118.386, 139.1147
1118.868, 138.9685
1119.350, 139.7530
1119.832, 140.0370
1120.315, 137.8996
1120.797, 136.1743
1121.279, 137.6701
1121.761, 142.3217
1122.243, 143.2472
1122.725, 140.6893
1123.207, 138.3650
1123.689, 138.8177
1124.172, 139.9136
1124.654, 140.4649
1125.136, 140.6594
1125.618, 140.9128
1126.100, 141.3135
1126.582, 141.3228
1127.064, 140.8923
1127.546, 140.2209
1128.028, 138.6274
1128.510, 137.5309
1128.993, 139.4871
1129.475, 143.5784
1129.957, 144.6113
1130.439, 140.5716
1130.921, 138.4361
1131.403, 139.7163
1131.885, 142.1629
1132.367, 143.1408
1132.850, 143.2193
1133.332, 143.3766
1133.814, 143.7376
1134.296, 143.4799
1134.778, 141.9031
1135.260, 140.6378
1135.742, 140.3067
1136.224, 140.4054
1136.707, 139.6531
1137.189, 138.4662
1137.671, 137.9806
1138.153, 138.5878
1138.635, 139.3579
1139.117, 139.9106
1139.599, 140.5966
1140.081, 141.7740
1140.563, 143.1917
1141.046, 143.7556
1141.528, 143.5184
1142.010, 142.6568
1142.492, 140.4163
1142.974, 139.0823
1143.456, 140.9750
1143.938, 143.4646
1144.420, 144.0699
1144.902, 142.7013
1145.385, 141.9989
1145.867, 141.9369
1146.349, 141.9404
1146.831, 141.7075
1147.313, 141.3651
1147.795, 140.7915
1148.277, 140.2658
1148.759, 140.2587
1149.242, 140.8915
1149.724, 141.3337
1150.206, 141.5072
1150.688, 141.9550
1151.170, 143.7846
1151.652, 145.5327
1152.134, 145.8405
1152.616, 144.8648
1153.099, 143.2144
1153.581, 140.2176
1154.063, 139.3796
1154.545, 141.6406
1155.027, 144.0094
1155.509, 142.0111
1155.991, 138.8295
1156.473, 139.0507
1156.955, 142.7180
1157.438, 144.5025
1157.920, 142.6041
1158.402, 142.2014
1158.884, 145.0733
1159.366, 148.5775
1159.848, 148.7808
1160.330, 146.8486
1160.812, 144.2348
1161.294, 140.9551
1161.777, 139.6338
1162.259, 141.9339
1162.741, 144.0972
1163.223, 144.9204
1163.705, 144.6807
1164.187, 143.0549
1164.669, 141.0070
1165.151, 141.2011
1165.634, 145.4111
1166.116, 147.8513
1166.598, 145.5152
1167.080, 143.0935
1167.562, 143.0597
1168.044, 144.6230
1168.526, 144.9049
1169.008, 144.2726
1169.490, 144.0630
1169.973, 145.1258
1170.455, 145.9668
1170.937, 146.1058
1171.419, 145.7890
1171.901, 144.8176
1172.383, 143.4195
1172.865, 143.6160
1173.347, 145.1666
1173.829, 146.7249
1174.312, 148.1697
1174.794, 148.7956
1175.276, 147.5557
1175.758, 145.9163
1176.240, 145.0902
1176.722, 145.0880
1177.204, 146.6452
1177.686, 149.5701
1178.169, 151.5340
1178.651, 150.0670
1179.133, 148.3513
1179.615, 148.1397
1180.097, 148.6375
1180.579, 148.6604
1181.061, 148.1996
1181.543, 148.1455
1182.026, 148.5588
1182.508, 148.4744
1182.990, 146.6731
1183.472, 144.6554
1183.954, 143.0639
1184.436, 142.1169
1184.918, 142.3102
1185.400, 143.6950
1185.882, 145.5739
1186.365, 147.9714
1186.847, 149.3722
1187.329, 147.0275
1187.811, 144.5186
1188.293, 145.2650
1188.775, 148.3113
1189.257, 149.7279
1189.739, 149.3939
1190.221, 149.1063
1190.704, 149.2504
1191.186, 149.2901
1191.668, 148.2339
1192.150, 147.2240
1192.632, 147.6261
1193.114, 149.2200
1193.596, 149.6786
1194.078, 148.8954
1194.561, 147.9039
1195.043, 146.8734
1195.525, 146.1564
1196.007, 146.6692
1196.489, 147.2981
1196.971, 146.4569
1197.453, 144.0906
1197.935, 144.0275
1198.417, 146.5736
1198.900, 148.8190
1199.382, 149.7388
1199.864, 149.9062
1200.346, 149.3689
1200.828, 148.7619
1201.310, 148.8346
1201.792, 149.6771
1202.274, 151.2870
1202.756, 153.9486
1203.239, 154.6944
1203.721, 150.9397
1204.203, 146.9038
1204.685, 147.9636
1205.167, 151.2362
1205.649, 152.7689
1206.131, 151.9118
1206.613, 150.8086
1207.096, 149.2908
1207.578, 148.9317
1208.060, 151.8202
1208.542, 154.6873
1209.024, 152.6689
1209.506, 148.7177
1209.988, 147.8584
1210.470, 151.5911
1210.953, 153.3248
1211.435, 152.9052
1211.917, 151.8639
1212.399, 150.4992
1212.881, 149.6277
1213.363, 150.8028
1213.845, 152.8438
1214.327, 153.4416
1214.809, 151.7155
1215.292, 151.4270
1215.774, 152.7989
1216.256, 153.8978
1216.738, 152.5462
1217.220, 150.9179
1217.702, 151.1354
1218.184, 152.6402
1218.666, 154.3606
1219.148, 156.6922
1219.631, 157.0429
1220.113, 155.1126
1220.595, 153.0404
1221.077, 152.7277
1221.559, 152.8525
1222.041, 152.0174
1222.523, 150.7491
1223.005, 150.4857
1223.488, 151.6350
1223.970, 151.6536
1224.452, 150.2153
1224.934, 149.4588
1225.416, 152.2341
1225.898, 155.4001
1226.380, 156.2127
1226.862, 155.2324
1227.344, 154.2583
1227.827, 153.0980
1228.309, 153.6154
1228.791, 156.0909
1229.273, 158.5143
1229.755, 159.8328
1230.237, 159.8575
1230.719, 157.4797
1231.201, 153.8121
1231.683, 151.9588
1232.166, 152.0710
1232.648, 152.5069
1233.130, 153.1080
1233.612, 153.5410
1234.094, 153.3737
1234.576, 153.0900
1235.058, 152.9996
1235.540, 153.0786
1236.023, 153.1661
1236.505, 153.2558
1236.987, 154.0874
1237.469, 155.8155
1237.951, 157.2310
1238.433, 156.8065
1238.915, 156.3521
1239.397, 157.8083
1239.880, 159.8377
1240.362, 158.7009
1240.844, 154.7212
1241.326, 152.8746
1241.808, 154.0205
1242.290, 155.8016
1242.772, 157.5076
1243.254, 158.3548
1243.736, 157.5341
1244.219, 155.8620
1244.701, 155.2866
1245.183, 155.6361
1245.665, 155.5697
1246.147, 154.7987
1246.629, 154.7505
1247.111, 157.1854
1247.593, 159.4555
1248.075, 160.6154
1248.558, 160.7313
1249.040, 159.2451
1249.522, 156.8020
1250.004, 156.5005
1250.486, 159.0079
1250.968, 160.7037
1251.450, 158.3034
1251.932, 156.8878
1252.415, 158.6924
1252.897, 161.9103
1253.379, 162.7237
1253.861, 161.7735
1254.343, 160.5740
1254.825, 159.3474
1255.307, 158.5055
1255.789, 158.4619
1256.271, 158.3509
1256.754, 157.6808
1257.236, 157.2015
1257.718, 159.1581
1258.200, 162.0306
1258.682, 162.7091
1259.164, 160.5426
1259.646, 158.3845
1260.128, 156.1918
1260.610, 155.2684
1261.093, 156.3558
1261.575, 158.1111
1262.057, 158.6879
1262.539, 158.5025
1263.021, 157.7931
1263.503, 156.5286
1263.985, 157.1143
1264.467, 160.4669
1264.950, 162.5981
1265.432, 162.1081
1265.914, 160.6444
1266.396, 159.7653
1266.878, 159.4514
1267.360, 160.0532
1267.842, 161.5706
1268.324, 161.5039
1268.807, 159.5609
1269.289, 158.5188
1269.771, 159.3700
1270.253, 160.6218
1270.735, 160.8906
1271.217, 160.7995
1271.699, 161.0082
1272.181, 161.4325
1272.663, 161.2172
1273.146, 160.3815
1273.628, 159.9741
1274.110, 160.3512
1274.592, 160.8448
1275.074, 160.7603
1275.556, 160.8440
1276.038, 161.9128
1276.520, 163.4579
1277.002, 163.2981
1277.485, 161.7231
1277.967, 160.3447
1278.449, 159.4785
1278.931, 159.3341
1279.413, 160.9321
1279.895, 162.2101
1280.377, 162.1000
1280.859, 161.1784
1281.342, 160.9903
1281.824, 161.2295
1282.306, 160.6530
1282.788, 158.7103
1283.270, 158.4704
1283.752, 162.5035
1284.234, 165.7071
1284.716, 166.3286
1285.198, 165.3825
1285.681, 163.8558
1286.163, 162.4451
1286.645, 162.6230
1287.127, 164.7751
1287.609, 166.4229
1288.091, 167.4799
1288.573, 167.4520
1289.055, 165.7997
1289.537, 164.0903
1290.020, 164.6601
1290.502, 166.2545
1290.984, 167.5509
1291.466, 168.3882
1291.948, 169.0148
1292.430, 169.5761
1292.912, 168.5916
1293.394, 165.3234
1293.877, 162.1308
1294.359, 160.9527
1294.841, 161.0924
1295.323, 162.5418
1295.805, 164.7928
1296.287, 166.0804
1296.769, 166.4688
1297.251, 166.9439
1297.734, 167.7779
1298.216, 168.1433
1298.698, 167.1705
1299.180, 165.9137
1299.662, 164.8196
1300.144, 163.9269
1300.626, 163.2446
1301.108, 162.8229
1301.590, 162.8092
1302.073, 163.2272
1302.555, 164.1126
1303.037, 166.6426
1303.519, 167.8965
1304.001, 166.5822
1304.483, 164.5724
1304.965, 164.2702
##END=



