##NAMES=Iquiqueite
##RRUFFID=R060822
##IDEAL CHEMISTRY=K_3_Na_4_Mg(Cr^6+^O_4_)B_24_O_39_(OH)&#183;12H_2_O
##LOCALITY=Salar de Miraje, Pampa de Tamanigal, Atacama, Chile
##OWNER=RRUFF
##SOURCE=Michael Scott
##DESCRIPTION=Transparent pale yellow crystals imbedded in nitratine
##STATUS=The identification of this mineral has been confirmed only by single crystal X-ray diffraction.
##URL=rruff.info/R060822
157.6094, 100.3528
158.0915, 100.5513
158.5736, 100.0559
159.0558, 99.45723
159.5379, 99.39639
160.0200, 100.0721
160.5021, 101.0671
160.9842, 101.5944
161.4663, 101.4543
161.9485, 101.5838
162.4306, 102.3651
162.9127, 103.5410
163.3948, 104.6281
163.8769, 105.4553
164.3590, 106.1509
164.8412, 106.9020
165.3233, 107.7046
165.8054, 108.5751
166.2875, 109.4874
166.7696, 110.4582
167.2517, 111.6018
167.7339, 113.1210
168.2160, 114.7015
168.6981, 115.9558
169.1802, 116.8009
169.6623, 117.6181
170.1444, 118.8309
170.6266, 120.5077
171.1087, 122.1340
171.5908, 123.4292
172.0729, 124.6850
172.5550, 126.0900
173.0371, 127.6962
173.5193, 129.4662
174.0014, 131.4099
174.4835, 133.6756
174.9656, 135.7739
175.4477, 137.5102
175.9298, 139.1343
176.4120, 140.8537
176.8941, 142.7552
177.3762, 144.7962
177.8583, 146.8439
178.3404, 148.9503
178.8225, 150.9995
179.3047, 152.9690
179.7868, 154.8925
180.2689, 156.8793
180.7510, 158.9832
181.2331, 161.1187
181.7152, 162.8387
182.1973, 163.7028
182.6795, 164.6628
183.1616, 166.1624
183.6437, 167.8431
184.1258, 169.1041
184.6079, 169.6035
185.0900, 169.3987
185.5722, 168.8150
186.0543, 167.9515
186.5364, 166.7218
187.0185, 164.9810
187.5006, 162.8277
187.9827, 160.5373
188.4649, 158.3340
188.9470, 156.0875
189.4291, 153.3716
189.9112, 149.9543
190.3933, 146.2937
190.8754, 142.6893
191.3576, 139.1199
191.8397, 135.4734
192.3218, 131.4653
192.8039, 127.3937
193.2860, 123.8802
193.7681, 121.3056
194.2503, 119.0334
194.7324, 116.3502
195.2145, 113.1717
195.6966, 110.0779
196.1787, 107.4484
196.6608, 105.0772
197.1430, 102.7475
197.6251, 100.3634
198.1072, 98.02107
198.5893, 95.92054
199.0714, 94.14893
199.5535, 92.36962
200.0357, 90.28539
200.5178, 88.15752
200.9999, 86.31103
201.4820, 84.93887
201.9641, 83.86388
202.4462, 82.57633
202.9284, 80.87179
203.4105, 79.28773
203.8926, 78.03416
204.3747, 76.94921
204.8568, 75.82282
205.3389, 74.53611
205.8211, 73.13754
206.3032, 71.87093
206.7853, 70.76806
207.2674, 69.77638
207.7495, 68.92620
208.2316, 68.16319
208.7138, 67.41805
209.1959, 66.65250
209.6780, 65.86576
210.1601, 65.07515
210.6422, 64.19923
211.1243, 63.40759
211.6065, 62.78257
212.0886, 62.25598
212.5707, 61.71019
213.0528, 61.06531
213.5349, 60.34188
214.0170, 59.76063
214.4992, 59.48087
214.9813, 59.15907
215.4634, 58.70462
215.9455, 58.14216
216.4276, 57.49883
216.9097, 56.76653
217.3918, 55.98044
217.8740, 55.49922
218.3561, 55.58068
218.8382, 55.62769
219.3203, 55.37227
219.8024, 54.89182
220.2845, 54.43535
220.7667, 54.16747
221.2488, 54.03947
221.7309, 53.77630
222.2130, 53.20922
222.6951, 52.68589
223.1772, 52.42492
223.6594, 52.37742
224.1415, 52.30391
224.6236, 52.05381
225.1057, 51.68164
225.5878, 51.38779
226.0699, 51.17706
226.5521, 51.03363
227.0342, 50.98350
227.5163, 51.01558
227.9984, 51.01416
228.4805, 50.90976
228.9626, 50.73544
229.4448, 50.55876
229.9269, 50.36090
230.4090, 50.19687
230.8911, 50.15005
231.3732, 50.22169
231.8553, 50.23243
232.3375, 50.03254
232.8196, 49.76507
233.3017, 49.60498
233.7838, 49.58998
234.2659, 49.65001
234.7480, 49.72176
235.2302, 49.80494
235.7123, 49.90718
236.1944, 50.16243
236.6765, 50.36232
237.1586, 50.25842
237.6407, 49.75697
238.1229, 49.20660
238.6050, 49.02536
239.0871, 49.26084
239.5692, 49.61534
240.0513, 50.20697
240.5334, 50.77739
241.0156, 51.14850
241.4977, 51.27732
241.9798, 51.25444
242.4619, 51.15723
242.9440, 50.94307
243.4261, 50.81835
243.9083, 50.86098
244.3904, 50.97270
244.8725, 51.13507
245.3546, 51.33282
245.8367, 51.49284
246.3188, 51.52967
246.8010, 51.45488
247.2831, 51.20730
247.7652, 50.60567
248.2473, 49.97026
248.7294, 49.48725
249.2115, 49.18702
249.6937, 48.99096
250.1758, 48.82316
250.6579, 48.73743
251.1400, 48.52333
251.6221, 48.16374
252.1042, 47.70646
252.5863, 47.13054
253.0685, 46.45658
253.5506, 45.77827
254.0327, 45.18737
254.5148, 44.66052
254.9969, 44.32201
255.4790, 44.40000
255.9612, 44.44409
256.4433, 44.11837
256.9254, 43.46761
257.4075, 42.83153
257.8896, 42.59444
258.3718, 42.86737
258.8539, 43.05883
259.3360, 43.19593
259.8181, 43.24926
260.3002, 43.16778
260.7823, 42.97547
261.2645, 42.76658
261.7466, 42.64461
262.2287, 42.64721
262.7108, 42.43615
263.1929, 41.65977
263.6750, 41.04048
264.1572, 41.05676
264.6393, 41.57556
265.1214, 42.05949
265.6035, 42.06142
266.0856, 41.56073
266.5677, 41.24325
267.0499, 41.20756
267.5320, 41.21032
268.0141, 41.14319
268.4962, 41.02523
268.9783, 40.92924
269.4604, 40.90172
269.9425, 40.94160
270.4247, 41.03448
270.9068, 41.29055
271.3889, 41.47431
271.8710, 41.45528
272.3531, 41.29231
272.8352, 41.10753
273.3174, 40.94323
273.7995, 40.83587
274.2816, 40.98212
274.7637, 41.67088
275.2458, 42.22814
275.7279, 42.44085
276.2101, 42.37703
276.6922, 42.11616
277.1743, 41.63332
277.6564, 41.09157
278.1385, 41.01423
278.6206, 41.63107
279.1028, 42.16766
279.5849, 42.41929
280.0670, 42.44537
280.5491, 42.30247
281.0312, 41.97213
281.5133, 41.59685
281.9955, 41.49742
282.4776, 41.76071
282.9597, 41.92306
283.4418, 41.76964
283.9239, 41.47285
284.4060, 41.28794
284.8882, 41.27654
285.3703, 41.40758
285.8524, 41.69592
286.3345, 42.16130
286.8166, 42.54587
287.2987, 42.80619
287.7809, 42.95197
288.2630, 42.95547
288.7451, 42.79926
289.2272, 42.62251
289.7093, 42.57629
290.1914, 42.65354
290.6736, 42.75102
291.1557, 42.88098
291.6378, 43.00998
292.1199, 43.09910
292.6020, 43.14378
293.0841, 43.17028
293.5663, 43.18106
294.0484, 43.18818
294.5305, 43.24786
295.0126, 43.36579
295.4947, 43.53849
295.9768, 43.77036
296.4590, 44.05964
296.9411, 44.38990
297.4232, 44.78808
297.9053, 45.20776
298.3874, 45.52665
298.8695, 45.72170
299.3517, 45.83615
299.8338, 45.80194
300.3159, 45.66002
300.7980, 45.72545
301.2801, 46.26386
301.7622, 47.00419
302.2444, 47.37995
302.7265, 47.26793
303.2086, 47.10081
303.6907, 47.08987
304.1728, 47.21782
304.6549, 47.44597
305.1371, 47.82121
305.6192, 48.20790
306.1013, 48.43120
306.5834, 48.50275
307.0655, 48.42045
307.5476, 48.02897
308.0298, 47.49017
308.5119, 47.19338
308.9940, 47.25700
309.4761, 47.48187
309.9582, 47.66273
310.4403, 47.80797
310.9225, 47.98319
311.4046, 48.29097
311.8867, 48.61552
312.3688, 48.74041
312.8509, 48.61279
313.3330, 48.45884
313.8152, 48.50908
314.2973, 48.69722
314.7794, 48.80585
315.2615, 48.73655
315.7436, 48.60114
316.2257, 48.51834
316.7079, 48.49179
317.1900, 48.47936
317.6721, 48.49999
318.1542, 48.50085
318.6363, 48.36623
319.1184, 48.04400
319.6006, 47.63777
320.0827, 47.21325
320.5648, 46.76963
321.0469, 46.28444
321.5290, 45.67855
322.0111, 45.08825
322.4933, 44.79025
322.9754, 44.92200
323.4575, 44.92648
323.9396, 44.36592
324.4217, 43.42328
324.9038, 42.67510
325.3860, 42.31378
325.8681, 42.13349
326.3502, 41.86304
326.8323, 41.49996
327.3144, 41.16772
327.7965, 40.93064
328.2787, 40.74600
328.7608, 40.54801
329.2429, 40.32754
329.7250, 40.09007
330.2071, 39.81312
330.6892, 39.51114
331.1714, 39.28108
331.6535, 39.29810
332.1356, 39.30278
332.6177, 38.89153
333.0998, 38.04806
333.5819, 37.40300
334.0641, 37.51326
334.5462, 38.17056
335.0283, 38.47393
335.5104, 38.16730
335.9925, 37.72828
336.4746, 37.44025
336.9568, 37.28044
337.4389, 37.14625
337.9210, 36.97679
338.4031, 36.82047
338.8852, 36.81328
339.3673, 37.06581
339.8495, 37.18830
340.3315, 36.92954
340.8137, 36.44323
341.2958, 36.01854
341.7779, 35.73392
342.2600, 35.56015
342.7421, 35.48471
343.2242, 35.51627
343.7064, 35.53879
344.1885, 35.54457
344.6706, 35.52390
345.1527, 35.42330
345.6348, 35.23714
346.1169, 35.12384
346.5991, 35.28041
347.0812, 35.71832
347.5633, 35.92339
348.0454, 35.74490
348.5275, 35.45958
349.0096, 35.20992
349.4918, 35.00721
349.9739, 34.86164
350.4560, 34.78675
350.9381, 34.77021
351.4202, 34.74780
351.9023, 34.62596
352.3845, 34.60381
352.8666, 34.85336
353.3487, 35.22876
353.8308, 35.45662
354.3129, 35.42421
354.7950, 35.23447
355.2772, 35.07154
355.7593, 34.89073
356.2414, 34.83881
356.7235, 35.04871
357.2056, 35.33001
357.6877, 35.49302
358.1699, 35.50534
358.6520, 35.44842
359.1341, 35.39602
359.6162, 35.33459
360.0983, 35.38471
360.5804, 35.69708
361.0626, 35.97376
361.5447, 36.00167
362.0268, 35.83848
362.5089, 35.70829
362.9910, 35.77124
363.4731, 36.00401
363.9553, 36.18924
364.4374, 36.32736
364.9195, 36.42388
365.4016, 36.43457
365.8837, 36.41708
366.3658, 36.46268
366.8480, 36.60892
367.3301, 36.79691
367.8122, 36.89741
368.2943, 36.83454
368.7764, 36.79639
369.2585, 36.76888
369.7407, 36.77314
370.2228, 36.82761
370.7049, 36.93331
371.1870, 37.08434
371.6691, 37.30028
372.1512, 37.62730
372.6334, 37.72688
373.1155, 37.37361
373.5976, 37.03006
374.0797, 36.82307
374.5618, 36.76030
375.0439, 36.84441
375.5261, 37.10538
376.0082, 37.47459
376.4903, 37.59691
376.9724, 37.27875
377.4545, 36.97306
377.9366, 36.68191
378.4188, 36.47140
378.9009, 36.44876
379.3830, 36.64299
379.8651, 36.90303
380.3472, 36.95304
380.8293, 36.68316
381.3115, 36.56892
381.7936, 36.81182
382.2757, 37.08892
382.7578, 37.24260
383.2399, 37.26692
383.7220, 37.23727
384.2042, 37.18410
384.6863, 37.11562
385.1684, 37.16544
385.6505, 37.43974
386.1326, 37.68459
386.6147, 37.75581
387.0969, 37.74219
387.5790, 37.78490
388.0611, 37.94808
388.5432, 38.19436
389.0253, 38.47012
389.5074, 38.78722
389.9896, 39.08621
390.4717, 39.34711
390.9538, 39.58031
391.4359, 39.77207
391.9180, 39.91782
392.4001, 40.09189
392.8823, 40.40151
393.3644, 40.81268
393.8465, 41.09337
394.3286, 41.11203
394.8107, 41.15014
395.2928, 41.46766
395.7750, 42.00207
396.2571, 42.54130
396.7392, 42.99798
397.2213, 43.41695
397.7034, 43.87893
398.1855, 44.38896
398.6677, 44.86215
399.1498, 45.20240
399.6319, 45.49040
400.1140, 45.91896
400.5961, 46.60689
401.0782, 47.24191
401.5604, 47.54446
402.0425, 47.64310
402.5246, 47.96095
403.0067, 48.68739
403.4888, 49.52429
403.9709, 49.96575
404.4531, 49.95657
404.9352, 50.12144
405.4173, 50.77131
405.8994, 51.52507
406.3815, 51.93676
406.8636, 51.99854
407.3458, 52.09862
407.8279, 52.56379
408.3100, 53.36852
408.7921, 54.02254
409.2742, 54.40524
409.7563, 54.78969
410.2385, 55.32251
410.7206, 55.91548
411.2027, 56.40612
411.6848, 56.72567
412.1669, 56.91344
412.6490, 57.04296
413.1311, 57.05102
413.6133, 57.10772
414.0954, 57.45923
414.5775, 57.68071
415.0596, 57.38329
415.5417, 56.58951
416.0238, 55.66022
416.5060, 54.94247
416.9881, 54.44997
417.4702, 53.74247
417.9523, 52.72391
418.4344, 51.57654
418.9165, 50.18339
419.3987, 48.73006
419.8808, 47.47657
420.3629, 46.55437
420.8450, 45.81268
421.3271, 44.93945
421.8092, 43.86194
422.2914, 42.84443
422.7735, 41.81634
423.2556, 40.92430
423.7377, 40.33582
424.2198, 40.01796
424.7019, 39.72161
425.1841, 39.16868
425.6662, 38.40181
426.1483, 37.92960
426.6304, 37.97578
427.1125, 37.95604
427.5946, 37.50132
428.0768, 36.84417
428.5589, 36.34171
429.0410, 36.14589
429.5231, 36.08171
430.0052, 35.92796
430.4873, 35.68223
430.9695, 35.47002
431.4516, 35.38261
431.9337, 35.28757
432.4158, 34.98856
432.8979, 34.48152
433.3800, 34.10585
433.8622, 34.12309
434.3443, 34.34883
434.8264, 34.48047
435.3085, 34.49087
435.7906, 34.37181
436.2727, 34.05653
436.7549, 33.59336
437.2370, 33.23192
437.7191, 32.97356
438.2012, 32.82560
438.6833, 32.84203
439.1654, 32.97199
439.6476, 33.09884
440.1297, 33.18333
440.6118, 33.22761
441.0939, 33.23631
441.5760, 33.21594
442.0581, 33.13432
442.5403, 32.92837
443.0224, 32.70548
443.5045, 32.51657
443.9866, 32.38268
444.4687, 32.35514
444.9508, 32.49226
445.4330, 32.77050
445.9151, 32.92961
446.3972, 32.78572
446.8793, 32.74002
447.3614, 32.93334
447.8435, 33.22050
448.3257, 33.46099
448.8078, 33.60256
449.2899, 33.63826
449.7720, 33.51313
450.2541, 33.12488
450.7362, 32.93531
451.2184, 33.16317
451.7005, 33.39016
452.1826, 33.41596
452.6647, 33.30448
453.1468, 33.24199
453.6289, 33.35831
454.1111, 33.57619
454.5932, 33.66448
455.0753, 33.55910
455.5574, 33.51884
456.0395, 33.66940
456.5216, 33.89944
457.0038, 34.14836
457.4859, 34.40925
457.9680, 34.62868
458.4501, 34.75485
458.9322, 34.80532
459.4143, 34.81085
459.8965, 34.72290
460.3786, 34.73619
460.8607, 35.14043
461.3428, 35.77405
461.8249, 36.21264
462.3070, 36.26905
462.7892, 36.21855
463.2713, 36.27901
463.7534, 36.41138
464.2355, 36.46811
464.7176, 36.39229
465.1997, 36.21926
465.6819, 35.96664
466.1640, 35.56098
466.6461, 35.36417
467.1282, 35.56940
467.6103, 35.88938
468.0924, 36.07857
468.5746, 36.14006
469.0567, 36.24251
469.5388, 36.52770
470.0209, 36.94618
470.5030, 37.15808
470.9851, 36.84818
471.4673, 36.71383
471.9494, 36.94096
472.4315, 37.32293
472.9136, 37.66059
473.3957, 37.90107
473.8778, 38.10836
474.3600, 38.34126
474.8421, 38.58612
475.3242, 38.96147
475.8063, 39.69167
476.2884, 40.31631
476.7705, 40.62806
477.2527, 40.74571
477.7348, 40.87815
478.2169, 41.12658
478.6990, 41.40515
479.1811, 41.57523
479.6632, 41.63195
480.1454, 41.62322
480.6275, 41.52731
481.1096, 41.39696
481.5917, 41.34497
482.0738, 41.34299
482.5559, 41.14292
483.0380, 40.50023
483.5201, 39.63679
484.0023, 38.89086
484.4844, 38.27618
484.9665, 37.74115
485.4486, 37.27129
485.9307, 36.85908
486.4128, 36.47666
486.8950, 36.14821
487.3771, 35.79951
487.8592, 35.40041
488.3413, 34.96847
488.8234, 34.49641
489.3055, 33.98809
489.7877, 33.52924
490.2698, 33.20753
490.7519, 33.02672
491.2340, 32.89411
491.7161, 32.89704
492.1982, 32.83935
492.6804, 32.57292
493.1625, 32.23538
493.6446, 32.04267
494.1267, 32.07069
494.6088, 32.19376
495.0909, 32.20619
495.5731, 32.07388
496.0552, 31.93878
496.5373, 31.79270
497.0194, 31.65157
497.5015, 31.50023
497.9836, 31.36055
498.4658, 31.28726
498.9479, 31.33238
499.4300, 31.41775
499.9121, 31.36191
500.3942, 31.13079
500.8763, 30.97593
501.3585, 31.04264
501.8406, 31.14990
502.3227, 31.11412
502.8048, 30.93715
503.2869, 30.78259
503.7690, 30.79929
504.2512, 30.85554
504.7333, 30.71291
505.2154, 30.35810
505.6975, 30.01893
506.1796, 29.79350
506.6617, 29.70034
507.1439, 29.80784
507.6260, 30.26843
508.1081, 30.61786
508.5902, 30.69558
509.0723, 30.61677
509.5544, 30.47551
510.0366, 30.30417
510.5187, 30.16114
511.0008, 30.11354
511.4829, 30.16078
511.9650, 30.10658
512.4471, 29.83272
512.9293, 29.59748
513.4114, 29.43261
513.8935, 29.34005
514.3756, 29.33682
514.8577, 29.42095
515.3398, 29.53350
515.8220, 29.61514
516.3041, 29.67030
516.7862, 29.63584
517.2683, 29.39072
517.7504, 29.21623
518.2325, 29.30346
518.7147, 29.52488
519.1968, 29.66445
519.6789, 29.64002
520.1610, 29.53071
520.6431, 29.36779
521.1252, 29.17119
521.6074, 29.12962
522.0895, 29.34934
522.5716, 29.61282
523.0537, 29.65171
523.5358, 29.50020
524.0179, 29.40515
524.5001, 29.42650
524.9822, 29.50026
525.4643, 29.64157
525.9464, 29.80250
526.4285, 29.82655
526.9106, 29.63324
527.3928, 29.35200
527.8749, 29.22538
528.3570, 29.32910
528.8391, 29.42009
529.3212, 29.46903
529.8033, 29.53251
530.2855, 29.70208
530.7676, 29.91266
531.2497, 29.98658
531.7318, 29.80211
532.2139, 29.48807
532.6960, 29.39972
533.1782, 29.62847
533.6603, 29.82288
534.1424, 29.94815
534.6245, 30.00385
535.1066, 29.93546
535.5887, 29.77775
536.0709, 29.67525
536.5530, 29.76302
537.0351, 29.93450
537.5172, 29.96677
537.9993, 29.85081
538.4814, 29.79611
538.9636, 29.94013
539.4457, 30.14365
539.9278, 30.17124
540.4099, 30.00229
540.8920, 29.81547
541.3741, 29.54692
541.8563, 29.35720
542.3384, 29.51991
542.8205, 29.96772
543.3026, 30.26630
543.7847, 30.11800
544.2668, 29.66187
544.7490, 29.40594
545.2311, 29.56945
545.7132, 29.63786
546.1953, 29.49664
546.6774, 29.33851
547.1595, 29.35853
547.6417, 29.51876
548.1238, 29.58148
548.6059, 29.31280
549.0880, 28.84830
549.5701, 28.77184
550.0522, 29.25875
550.5344, 29.68168
551.0165, 29.79412
551.4986, 29.80371
551.9807, 29.87543
552.4628, 30.01839
552.9449, 30.09838
553.4271, 29.95231
553.9092, 29.72445
554.3913, 29.68957
554.8734, 29.86156
555.3555, 30.05221
555.8376, 30.18805
556.3198, 30.25571
556.8019, 30.19804
557.2840, 29.94283
557.7661, 29.76520
558.2482, 29.77180
558.7303, 29.84015
559.2125, 29.86344
559.6946, 29.83780
560.1767, 29.83405
560.6588, 29.91948
561.1409, 30.03106
561.6230, 29.86845
562.1052, 29.07083
562.5873, 28.62417
563.0694, 28.89245
563.5515, 29.28612
564.0336, 29.38469
564.5157, 29.19156
564.9979, 28.96347
565.4800, 28.85860
565.9621, 28.85672
566.4442, 28.94451
566.9263, 29.14907
567.4084, 29.25479
567.8906, 29.14502
568.3727, 28.92392
568.8548, 28.72377
569.3369, 28.54403
569.8190, 28.38948
570.3011, 28.26252
570.7833, 28.16268
571.2654, 28.07061
571.7475, 27.99925
572.2296, 28.02938
572.7117, 28.22304
573.1938, 28.48483
573.6760, 28.58324
574.1581, 28.40594
574.6402, 28.26322
575.1223, 28.20438
575.6044, 28.13302
576.0865, 27.94461
576.5687, 27.69545
577.0508, 27.53492
577.5329, 27.55531
578.0150, 27.68393
578.4971, 27.76232
578.9792, 27.77583
579.4614, 27.82243
579.9435, 27.95781
580.4256, 28.08882
580.9077, 28.17522
581.3898, 28.20625
581.8719, 28.14245
582.3541, 27.87365
582.8362, 27.59215
583.3183, 27.49932
583.8004, 27.55697
584.2825, 27.63696
584.7646, 27.70630
585.2468, 27.73989
585.7289, 27.68824
586.2110, 27.52027
586.6931, 27.46243
587.1752, 27.56047
587.6573, 27.71117
588.1394, 27.93867
588.6215, 28.17059
589.1036, 28.28022
589.5858, 28.23079
590.0679, 28.14539
590.5500, 28.22687
591.0321, 28.50704
591.5142, 28.60175
591.9963, 28.37881
592.4785, 28.16266
592.9606, 28.06503
593.4427, 28.06725
593.9248, 28.16257
594.4069, 28.36717
594.8890, 28.57822
595.3712, 28.77325
595.8533, 28.91101
596.3354, 28.83364
596.8175, 28.50855
597.2996, 28.25893
597.7817, 28.34387
598.2639, 28.69530
598.7460, 28.94421
599.2281, 29.05543
599.7102, 29.12995
600.1923, 29.20961
600.6744, 29.23935
601.1566, 29.10904
601.6387, 28.85845
602.1208, 28.68554
602.6029, 28.76074
603.0850, 29.00349
603.5671, 29.07445
604.0493, 28.87693
604.5314, 28.76649
605.0135, 28.87707
605.4956, 29.05927
605.9777, 29.26784
606.4598, 29.47508
606.9420, 29.57362
607.4241, 29.41413
607.9062, 29.18530
608.3883, 29.09608
608.8704, 29.13758
609.3525, 29.29067
609.8347, 29.57595
610.3168, 29.87213
610.7989, 30.01239
611.2810, 29.96877
611.7631, 29.88385
612.2452, 29.59180
612.7274, 29.43892
613.2095, 29.61286
613.6916, 30.00688
614.1737, 30.52892
614.6558, 31.12321
615.1379, 31.60479
615.6201, 31.63773
616.1022, 31.20096
616.5843, 31.09373
617.0664, 31.49691
617.5485, 31.90964
618.0306, 32.09565
618.5128, 32.16092
618.9949, 32.21280
619.4770, 32.25644
619.9591, 32.34740
620.4412, 32.61458
620.9233, 32.90528
621.4055, 32.90776
621.8876, 32.63186
622.3697, 32.45839
622.8518, 32.62733
623.3339, 33.04434
623.8160, 33.43513
624.2982, 33.80706
624.7803, 34.13655
625.2624, 34.41933
625.7445, 34.66554
626.2266, 34.84612
626.7087, 34.99706
627.1909, 35.20891
627.6730, 35.54253
628.1551, 35.89062
628.6372, 36.06329
629.1193, 36.05761
629.6014, 35.99906
630.0836, 35.89712
630.5657, 35.76140
631.0478, 35.51595
631.5299, 35.24087
632.0120, 35.16770
632.4941, 35.51191
632.9763, 35.79881
633.4584, 35.74528
633.9405, 35.50576
634.4226, 35.26805
634.9047, 35.08085
635.3868, 34.99361
635.8690, 35.07521
636.3511, 35.27766
636.8332, 35.25790
637.3153, 34.85497
637.7974, 34.49047
638.2795, 34.22285
638.7617, 34.00128
639.2438, 33.79329
639.7259, 33.59767
640.2080, 33.43814
640.6901, 33.38667
641.1722, 33.31203
641.6544, 32.96597
642.1365, 32.37676
642.6186, 31.83521
643.1007, 31.43109
643.5828, 31.07647
644.0649, 30.64916
644.5471, 30.14341
645.0292, 29.82890
645.5113, 29.85663
645.9934, 29.89830
646.4755, 29.88330
646.9576, 29.79284
647.4398, 29.56683
647.9219, 29.21884
648.4040, 28.88386
648.8861, 28.68176
649.3682, 28.60821
649.8503, 28.67586
650.3325, 28.98092
650.8146, 29.15901
651.2967, 29.00765
651.7788, 28.75016
652.2609, 28.55073
652.7430, 28.41993
653.2252, 28.38124
653.7073, 28.50470
654.1894, 28.67289
654.6715, 28.78619
655.1536, 28.85520
655.6357, 28.93563
656.1179, 29.04815
656.6000, 29.10814
657.0821, 28.97553
657.5642, 28.60568
658.0463, 28.49123
658.5284, 28.92429
659.0106, 29.27401
659.4927, 29.40514
659.9748, 29.40287
660.4569, 29.32991
660.9390, 29.20970
661.4211, 29.09485
661.9033, 29.02888
662.3854, 28.99598
662.8675, 28.97499
663.3496, 28.96557
663.8317, 28.90818
664.3138, 28.75222
664.7960, 28.59130
665.2781, 28.58153
665.7602, 28.76823
666.2423, 28.84753
666.7244, 28.66630
667.2065, 28.53527
667.6887, 28.70786
668.1708, 28.97329
668.6529, 28.95770
669.1350, 28.58888
669.6171, 28.22149
670.0992, 28.29758
670.5814, 28.74401
671.0635, 28.87908
671.5456, 28.56112
672.0277, 28.39798
672.5098, 28.75873
672.9919, 29.27740
673.4741, 29.51135
673.9562, 29.44978
674.4383, 29.32378
674.9204, 29.07183
675.4025, 28.89207
675.8846, 28.97787
676.3668, 29.24975
676.8489, 29.57413
677.3310, 29.89419
677.8131, 30.08769
678.2952, 29.95975
678.7773, 29.49219
679.2595, 29.21333
679.7416, 29.23582
680.2237, 29.27076
680.7058, 29.19025
681.1879, 29.11578
681.6700, 29.21398
682.1522, 29.47997
682.6343, 29.64526
683.1164, 29.50970
683.5985, 29.23547
684.0806, 28.97665
684.5627, 28.74584
685.0449, 28.57273
685.5270, 28.46364
686.0091, 28.45242
686.4912, 28.60612
686.9733, 28.94995
687.4554, 29.16664
687.9376, 29.11479
688.4197, 29.10891
688.9018, 29.27830
689.3839, 29.47571
689.8660, 29.54933
690.3481, 29.48872
690.8303, 29.39529
691.3124, 29.29511
691.7945, 29.23528
692.2766, 29.35138
692.7587, 29.62135
693.2408, 29.79502
693.7230, 29.77843
694.2051, 29.68922
694.6872, 29.64596
695.1693, 29.64883
695.6514, 29.71758
696.1335, 29.85789
696.6157, 30.05021
697.0978, 30.33118
697.5799, 30.63478
698.0620, 30.94243
698.5441, 31.21833
699.0262, 31.34271
699.5084, 31.15408
699.9905, 30.84547
700.4726, 30.87374
700.9547, 31.24499
701.4368, 31.68813
701.9189, 32.22603
702.4011, 32.62349
702.8832, 32.52975
703.3653, 32.01473
703.8474, 31.88588
704.3295, 32.47574
704.8116, 33.04667
705.2938, 33.32990
705.7759, 33.53473
706.2580, 33.91217
706.7401, 34.44263
707.2222, 34.89928
707.7043, 35.11816
708.1865, 35.20715
708.6686, 35.39756
709.1507, 35.69038
709.6328, 36.10425
710.1149, 36.77350
710.5970, 37.32768
711.0792, 37.41437
711.5613, 37.16489
712.0434, 36.96289
712.5255, 36.81755
713.0076, 36.74927
713.4897, 36.78539
713.9719, 36.88647
714.4540, 36.97469
714.9361, 37.08619
715.4182, 37.34568
715.9003, 37.82019
716.3824, 38.48067
716.8646, 39.30164
717.3467, 40.30619
717.8288, 41.23049
718.3109, 41.96895
718.7930, 42.80467
719.2751, 43.79406
719.7573, 45.02708
720.2394, 46.70049
720.7215, 48.91174
721.2036, 51.24749
721.6857, 53.68451
722.1678, 56.09570
722.6500, 58.57830
723.1321, 60.93166
723.6142, 62.92525
724.0963, 64.42874
724.5784, 64.71989
725.0605, 62.58484
725.5427, 57.97277
726.0248, 52.73158
726.5069, 46.21889
726.9890, 40.50866
727.4711, 36.55046
727.9532, 33.78356
728.4353, 31.62757
728.9174, 30.07572
729.3995, 29.04022
729.8817, 28.77449
730.3638, 28.75524
730.8459, 28.70190
731.3280, 28.60707
731.8101, 28.50176
732.2922, 28.38754
732.7744, 28.20177
733.2565, 27.85832
733.7386, 27.39634
734.2207, 27.06707
734.7028, 26.87792
735.1849, 26.80513
735.6671, 26.92859
736.1492, 27.07877
736.6313, 27.07262
737.1134, 26.95680
737.5955, 26.94243
738.0776, 27.20658
738.5598, 27.40935
739.0419, 27.31377
739.5240, 27.10136
740.0061, 26.99066
740.4882, 27.00491
740.9703, 27.08339
741.4525, 27.20086
741.9346, 27.29278
742.4167, 27.16008
742.8988, 26.75107
743.3809, 26.49481
743.8630, 26.47164
744.3452, 26.53934
744.8273, 26.69018
745.3094, 26.85044
745.7915, 26.85178
746.2736, 26.59609
746.7557, 26.45546
747.2379, 26.69152
747.7200, 26.96859
748.2021, 26.97994
748.6842, 26.80201
749.1663, 26.64958
749.6484, 26.61092
750.1306, 26.64078
750.6127, 26.70454
751.0948, 26.79557
751.5769, 26.81695
752.0590, 26.76361
752.5411, 26.64714
753.0233, 26.39541
753.5054, 26.15608
753.9875, 26.16926
754.4696, 26.43078
754.9517, 26.59678
755.4338, 26.56324
755.9160, 26.49665
756.3981, 26.43846
756.8802, 26.40619
757.3623, 26.43481
757.8444, 26.51557
758.3265, 26.58948
758.8087, 26.61575
759.2908, 26.59896
759.7729, 26.46690
760.2550, 26.21879
760.7371, 26.38395
761.2192, 27.24788
761.7014, 27.97903
762.1835, 27.81959
762.6656, 27.00784
763.1477, 26.60702
763.6298, 26.95453
764.1119, 27.07398
764.5941, 26.53818
765.0762, 26.02744
765.5583, 26.05388
766.0404, 26.44065
766.5225, 26.81021
767.0046, 27.02068
767.4868, 27.06534
767.9689, 26.83727
768.4510, 26.44757
768.9331, 26.18048
769.4152, 26.04876
769.8973, 26.29982
770.3795, 27.19053
770.8616, 28.09031
771.3437, 28.01651
771.8258, 26.77432
772.3079, 25.98349
772.7900, 25.90039
773.2722, 25.92453
773.7543, 25.98106
774.2364, 26.05388
774.7185, 26.14398
775.2006, 26.24369
775.6827, 26.32381
776.1649, 26.35321
776.6470, 26.38089
777.1291, 26.49742
777.6112, 26.65165
778.0933, 26.67250
778.5754, 26.54116
779.0576, 26.46864
779.5397, 26.62706
780.0218, 26.90346
780.5039, 26.93626
780.9860, 26.59780
781.4681, 26.35382
781.9503, 26.21451
782.4324, 26.17748
782.9145, 26.34508
783.3966, 26.56494
783.8787, 26.58698
784.3608, 26.34795
784.8430, 26.17875
785.3251, 26.34761
785.8072, 26.55441
786.2893, 26.50061
786.7714, 26.26510
787.2535, 26.01073
787.7357, 25.80269
788.2178, 25.73968
788.6999, 25.97457
789.1820, 26.41821
789.6641, 26.52001
790.1462, 26.16383
790.6284, 26.01416
791.1105, 26.31728
791.5926, 26.71599
792.0747, 26.94599
792.5568, 27.02164
793.0389, 26.99036
793.5211, 26.77712
794.0032, 26.58554
794.4853, 26.43251
794.9674, 26.34924
795.4495, 26.38431
795.9316, 26.50604
796.4138, 26.66910
796.8959, 26.85515
797.3780, 26.97417
797.8601, 26.83221
798.3422, 26.54233
798.8243, 26.54917
799.3065, 26.86931
799.7886, 27.10582
800.2707, 27.08739
800.7528, 26.97294
801.2349, 26.97025
801.7170, 27.08962
802.1992, 27.15411
802.6813, 27.16820
803.1634, 27.11862
803.6455, 26.82448
804.1276, 26.61256
804.6097, 26.83797
805.0919, 27.37960
805.5740, 27.78620
806.0561, 27.88652
806.5382, 27.81287
807.0203, 27.50308
807.5024, 27.16880
807.9846, 27.25869
808.4667, 27.71152
808.9488, 28.01070
809.4309, 27.88269
809.9130, 27.54646
810.3951, 27.34855
810.8773, 27.29218
811.3594, 27.34300
811.8415, 27.56169
812.3236, 27.73918
812.8057, 27.78416
813.2878, 27.76629
813.7700, 27.73335
814.2521, 27.69053
814.7342, 27.75085
815.2163, 28.04034
815.6984, 28.29840
816.1805, 28.43881
816.6627, 28.49407
817.1448, 28.46571
817.6269, 28.38371
818.1090, 28.33066
818.5911, 28.36007
819.0732, 28.38614
819.5554, 28.29256
820.0375, 28.09732
820.5196, 27.81317
821.0017, 27.44142
821.4838, 27.26467
821.9659, 27.46778
822.4481, 27.80672
822.9302, 27.87113
823.4123, 27.60665
823.8944, 27.43701
824.3765, 27.45670
824.8586, 27.44139
825.3408, 27.28354
825.8229, 27.12031
826.3050, 27.08291
826.7871, 27.15306
827.2692, 27.20291
827.7513, 27.16136
828.2335, 27.13349
828.7156, 27.25024
829.1977, 27.37994
829.6798, 27.29599
830.1619, 27.04536
830.6440, 26.87404
831.1262, 26.90760
831.6083, 27.06816
832.0904, 27.27873
832.5725, 27.52905
833.0546, 27.67321
833.5367, 27.69929
834.0189, 27.67988
834.5010, 27.65041
834.9831, 27.57077
835.4652, 27.37778
835.9473, 27.06801
836.4294, 26.77714
836.9116, 26.34962
837.3937, 26.15145
837.8758, 26.40961
838.3579, 26.77026
838.8400, 27.01325
839.3221, 27.12988
839.8043, 27.16249
840.2864, 27.11550
840.7685, 27.03729
841.2506, 26.90742
841.7327, 26.80292
842.2148, 26.90452
842.6970, 27.14415
843.1791, 27.22536
843.6612, 27.04130
844.1433, 26.79481
844.6254, 26.73730
845.1075, 26.83657
845.5897, 26.85062
846.0718, 26.76595
846.5539, 26.64869
847.0360, 26.46552
847.5181, 26.33634
848.0002, 26.36857
848.4824, 26.53979
848.9645, 26.75052
849.4466, 27.17098
849.9287, 27.31481
850.4108, 26.81112
850.8929, 26.34545
851.3751, 26.36523
851.8572, 26.66187
852.3393, 26.87755
852.8214, 26.92925
853.3035, 26.98555
853.7856, 27.26077
854.2678, 27.53061
854.7499, 27.44354
855.2320, 27.12579
855.7141, 26.94539
856.1962, 26.96190
856.6783, 26.90240
857.1605, 26.52679
857.6426, 26.02642
858.1247, 25.98025
858.6068, 26.47842
859.0889, 26.67348
859.5710, 26.35790
860.0532, 26.13427
860.5353, 26.41712
861.0174, 26.87811
861.4995, 26.90405
861.9816, 26.40372
862.4637, 26.15592
862.9459, 26.42471
863.4280, 26.65623
863.9101, 26.67832
864.3922, 26.58771
864.8743, 26.43551
865.3564, 26.25823
865.8386, 26.12156
866.3207, 26.04380
866.8028, 26.04484
867.2849, 26.22441
867.7670, 26.44916
868.2491, 26.49275
868.7313, 26.37463
869.2134, 26.24927
869.6954, 26.18013
870.1776, 26.13723
870.6597, 26.08787
871.1418, 26.03080
871.6239, 25.95202
872.1060, 25.84454
872.5881, 25.75772
873.0703, 25.68613
873.5524, 25.68089
874.0345, 25.80912
874.5166, 26.03616
874.9987, 26.21077
875.4808, 26.31902
875.9630, 26.39812
876.4451, 26.41581
876.9272, 26.43935
877.4093, 26.52587
877.8914, 26.62137
878.3735, 26.62737
878.8557, 26.53942
879.3378, 26.51159
879.8199, 26.66942
880.3020, 26.86072
880.7841, 26.99059
881.2662, 27.06467
881.7484, 27.04511
882.2305, 26.96898
882.7126, 26.98452
883.1947, 27.17972
883.6768, 27.47706
884.1589, 27.77018
884.6411, 28.06236
885.1232, 28.42654
885.6053, 28.87339
886.0874, 29.07910
886.5695, 28.89064
887.0516, 28.53552
887.5338, 28.26622
888.0159, 28.07654
888.4980, 27.88619
888.9801, 27.72710
889.4622, 27.50335
889.9443, 27.17392
890.4265, 26.80984
890.9086, 26.37526
891.3907, 25.95617
891.8728, 25.74408
892.3549, 25.81624
892.8370, 25.79191
893.3192, 25.52981
893.8013, 25.18373
894.2834, 24.73643
894.7655, 24.31903
895.2476, 24.14292
895.7297, 24.18250
896.2119, 24.15543
896.6940, 23.84941
897.1761, 23.53788
897.6582, 23.59023
898.1403, 23.85974
898.6224, 24.03946
899.1046, 24.10584
899.5867, 24.12845
900.0688, 24.13880
900.5509, 24.09556
901.0330, 23.90332
901.5151, 23.60338
901.9973, 23.61673
902.4794, 24.02674
902.9615, 24.23008
903.4436, 24.02084
903.9257, 23.75308
904.4078, 23.69440
904.8900, 23.78996
905.3721, 23.85883
905.8542, 23.88449
906.3363, 23.91858
906.8184, 23.95264
907.3005, 24.00454
907.7827, 24.16407
908.2648, 24.29012
908.7469, 24.17335
909.2290, 23.83855
909.7111, 23.59492
910.1932, 23.51855
910.6754, 23.59218
911.1575, 23.93368
911.6396, 24.32448
912.1217, 24.51137
912.6038, 24.54378
913.0859, 24.61284
913.5681, 24.78998
914.0502, 24.97057
914.5323, 25.07931
915.0144, 25.10702
915.4965, 24.96173
915.9786, 24.70791
916.4608, 24.63748
916.9429, 24.80963
917.4250, 25.05448
917.9071, 25.25285
918.3892, 25.41049
918.8713, 25.51851
919.3535, 25.56068
919.8356, 25.75778
920.3177, 26.18592
920.7998, 26.51916
921.2819, 26.59670
921.7640, 26.56948
922.2462, 26.60686
922.7283, 26.70800
923.2104, 26.82398
923.6925, 26.99846
924.1746, 27.12285
924.6567, 27.12627
925.1389, 27.14518
925.6210, 27.26056
926.1031, 27.43913
926.5852, 27.64574
927.0673, 27.88346
927.5494, 28.02573
928.0316, 27.91624
928.5137, 27.82463
928.9958, 27.97065
929.4779, 28.18606
929.9600, 28.25245
930.4421, 28.17824
930.9243, 28.09155
931.4064, 28.04129
931.8885, 28.07718
932.3706, 28.37188
932.8527, 28.72312
933.3348, 28.73575
933.8170, 28.47471
934.2991, 28.20947
934.7812, 28.02737
935.2633, 27.94328
935.7454, 27.98551
936.2275, 28.10110
936.7097, 28.14774
937.1918, 28.12714
937.6739, 28.07716
938.1560, 27.98100
938.6381, 28.01795
939.1202, 28.28778
939.6024, 28.70486
940.0845, 29.16959
940.5666, 29.68384
941.0487, 30.07742
941.5308, 30.47476
942.0129, 30.47307
942.4951, 29.83468
942.9772, 28.98006
943.4593, 28.03692
943.9414, 27.11465
944.4235, 26.43973
944.9056, 26.05814
945.3878, 25.78227
945.8699, 25.67252
946.3520, 25.56275
946.8341, 25.29540
947.3162, 25.06922
947.7983, 25.12918
948.2805, 25.41767
948.7626, 25.66313
949.2447, 25.77058
949.7268, 25.83839
950.2089, 25.93646
950.6910, 26.01084
951.1732, 25.93851
951.6553, 25.82662
952.1374, 25.90433
952.6195, 26.20021
953.1016, 26.52764
953.5837, 26.78290
954.0659, 26.94790
954.5480, 26.93713
955.0301, 26.83092
955.5122, 26.84912
955.9943, 26.98607
956.4764, 27.07354
956.9586, 27.04044
957.4407, 26.98553
957.9228, 27.03516
958.4049, 27.15420
958.8870, 27.19102
959.3691, 27.14435
959.8513, 27.08368
960.3334, 27.01998
960.8155, 26.94037
961.2976, 26.82944
961.7797, 26.71164
962.2618, 26.62695
962.7440, 26.57199
963.2261, 26.59398
963.7082, 26.73823
964.1903, 26.85571
964.6724, 26.93765
965.1545, 26.95018
965.6367, 26.88587
966.1188, 26.72953
966.6009, 26.40115
967.0830, 25.75199
967.5651, 25.33330
968.0472, 25.36048
968.5294, 25.37732
969.0115, 25.21313
969.4936, 24.98691
969.9757, 24.82283
970.4578, 24.70831
970.9399, 24.55118
971.4221, 24.31223
971.9042, 24.06926
972.3863, 23.83413
972.8684, 23.62145
973.3505, 23.44792
973.8326, 23.29907
974.3148, 23.14835
974.7969, 22.99600
975.2790, 22.87243
975.7611, 22.78924
976.2432, 22.74793
976.7253, 22.77376
977.2075, 22.82597
977.6896, 22.86932
978.1717, 22.88690
978.6538, 22.83414
979.1359, 22.70531
979.6180, 22.57559
980.1002, 22.48440
980.5823, 22.46917
981.0644, 22.66241
981.5465, 22.97880
982.0286, 23.14336
982.5107, 23.13831
982.9929, 23.11754
983.4750, 23.15318
983.9571, 23.14718
984.4392, 22.92857
984.9213, 22.58378
985.4034, 22.55604
985.8856, 22.84220
986.3677, 22.99862
986.8498, 22.93845
987.3319, 22.86068
987.8140, 22.89662
988.2961, 22.94284
988.7783, 22.80138
989.2604, 22.46385
989.7425, 22.17007
990.2246, 21.87767
990.7067, 21.79804
991.1888, 22.07148
991.6710, 22.36823
992.1531, 22.44179
992.6352, 22.38113
993.1173, 22.41397
993.5994, 22.59337
994.0815, 22.64910
994.5637, 22.49041
995.0458, 22.34616
995.5279, 22.25413
996.0100, 22.20966
996.4921, 22.24778
996.9742, 22.32779
997.4564, 22.31827
997.9385, 22.14120
998.4206, 22.08538
998.9027, 22.39266
999.3848, 22.56722
999.8669, 22.21929
1000.349, 21.81196
1000.831, 21.85107
1001.313, 22.23938
1001.795, 22.50740
1002.278, 22.49801
1002.760, 22.50809
1003.242, 22.72797
1003.724, 22.91211
1004.206, 22.90216
1004.688, 22.76520
1005.170, 22.56178
1005.652, 22.32308
1006.134, 22.07871
1006.617, 21.77329
1007.099, 21.68318
1007.581, 22.28381
1008.063, 22.93161
1008.545, 22.87931
1009.027, 22.44462
1009.509, 22.23107
1009.991, 22.33875
1010.473, 22.53171
1010.956, 22.71164
1011.438, 22.79262
1011.920, 22.56653
1012.402, 22.25720
1012.884, 22.24352
1013.366, 22.45066
1013.848, 22.64547
1014.330, 22.75361
1014.813, 22.75424
1015.295, 22.59768
1015.777, 22.43546
1016.259, 22.59503
1016.741, 22.90670
1017.223, 22.87510
1017.705, 22.53998
1018.187, 22.26143
1018.669, 22.15359
1019.152, 22.10709
1019.634, 22.02405
1020.116, 21.94625
1020.598, 22.01343
1021.080, 22.18196
1021.562, 22.11448
1022.044, 21.81035
1022.526, 21.75414
1023.008, 22.12608
1023.491, 22.59735
1023.973, 22.85987
1024.455, 22.94093
1024.937, 22.88654
1025.419, 22.69532
1025.901, 22.58639
1026.383, 22.58521
1026.865, 22.53271
1027.348, 22.34632
1027.830, 22.19202
1028.312, 22.25048
1028.794, 22.48256
1029.276, 22.74649
1029.758, 23.07329
1030.240, 23.19571
1030.722, 23.02665
1031.204, 22.90418
1031.687, 22.91986
1032.169, 23.13587
1032.651, 23.66706
1033.133, 24.44366
1033.615, 25.07004
1034.097, 25.49934
1034.579, 25.91219
1035.061, 26.30741
1035.544, 26.70274
1036.026, 27.07046
1036.508, 27.49562
1036.990, 28.10422
1037.472, 28.86095
1037.954, 29.50136
1038.436, 29.89742
1038.918, 30.45526
1039.401, 31.16928
1039.883, 32.07143
1040.365, 33.27855
1040.847, 34.58812
1041.329, 35.76211
1041.811, 36.82851
1042.293, 37.98022
1042.775, 39.18582
1043.257, 40.52215
1043.740, 42.18880
1044.222, 43.74207
1044.704, 44.82653
1045.186, 45.88560
1045.668, 47.41600
1046.150, 49.33200
1046.632, 51.14810
1047.114, 53.00098
1047.596, 54.42597
1048.079, 55.30032
1048.561, 55.85851
1049.043, 56.04532
1049.525, 56.06932
1050.007, 56.15008
1050.489, 56.25243
1050.971, 56.17028
1051.453, 55.78594
1051.936, 55.44320
1052.418, 55.05586
1052.900, 54.89400
1053.382, 54.95003
1053.864, 55.38088
1054.346, 56.30500
1054.828, 57.73014
1055.310, 59.74455
1055.792, 62.60283
1056.275, 65.24981
1056.757, 67.48325
1057.239, 69.38030
1057.721, 70.53538
1058.203, 71.73454
1058.685, 73.60010
1059.167, 76.18153
1059.649, 79.29360
1060.131, 82.72173
1060.614, 87.51891
1061.096, 94.46938
1061.578, 102.3053
1062.060, 110.2577
1062.542, 118.9871
1063.024, 129.0551
1063.506, 140.4497
1063.988, 152.9723
1064.471, 166.4388
1064.953, 181.8083
1065.435, 197.0432
1065.917, 217.1555
1066.399, 251.1769
1066.881, 285.4315
1067.363, 315.0914
1067.845, 332.7268
1068.328, 323.4247
1068.810, 283.2718
1069.292, 235.8452
1069.774, 181.0238
1070.256, 132.7877
1070.738, 97.81851
1071.220, 72.57017
1071.702, 55.87578
1072.184, 45.36509
1072.667, 38.34598
1073.149, 34.11031
1073.631, 30.99919
1074.113, 28.53681
1074.595, 26.75719
1075.077, 25.99576
1075.559, 25.63451
1076.041, 25.27147
1076.523, 24.88400
1077.006, 24.53360
1077.488, 24.22105
1077.970, 23.85558
1078.452, 23.32658
1078.934, 22.86537
1079.416, 22.55670
1079.898, 22.38656
1080.380, 22.40378
1080.863, 22.51963
1081.345, 22.68429
1081.827, 22.83971
1082.309, 22.76421
1082.791, 22.24250
1083.273, 21.81572
1083.755, 21.85717
1084.237, 21.94859
1084.719, 21.74402
1085.202, 21.45117
1085.684, 21.36324
1086.166, 21.46102
1086.648, 21.53008
1087.130, 21.49422
1087.612, 21.46333
1088.094, 21.51533
1088.576, 21.55218
1089.058, 21.49643
1089.541, 21.40844
1090.023, 21.34480
1090.505, 21.30979
1090.987, 21.29774
1091.469, 21.31144
1091.951, 21.31269
1092.433, 21.32450
1092.915, 21.27282
1093.397, 21.09810
1093.880, 20.86407
1094.362, 20.51799
1094.844, 20.19401
1095.326, 20.19426
1095.808, 20.57487
1096.290, 20.87718
1096.772, 20.91385
1097.254, 20.89023
1097.737, 20.83842
1098.219, 20.80056
1098.701, 20.83411
1099.183, 20.88800
1099.665, 20.84435
1100.147, 20.71164
1100.629, 20.70899
1101.111, 20.86988
1101.594, 21.21054
1102.076, 22.12402
1102.558, 22.77793
1103.040, 22.48386
1103.522, 21.81720
1104.004, 21.45960
1104.486, 21.40426
1104.968, 21.27812
1105.450, 20.90302
1105.932, 20.74324
1106.415, 21.09231
1106.897, 21.42049
1107.379, 21.49570
1107.861, 21.47471
1108.343, 21.48161
1108.825, 21.51512
1109.307, 21.55194
1109.789, 21.59658
1110.272, 21.61336
1110.754, 21.50253
1111.236, 21.49669
1111.718, 21.80619
1112.200, 22.08208
1112.682, 22.07859
1113.164, 21.89091
1113.646, 21.65240
1114.129, 21.35395
1114.611, 21.20666
1115.093, 21.31884
1115.575, 21.42920
1116.057, 21.60595
1116.539, 21.66541
1117.021, 21.45666
1117.503, 21.14246
1117.985, 20.87537
1118.468, 20.66650
1118.950, 20.61961
1119.432, 20.83100
1119.914, 21.00378
1120.396, 21.14917
1120.878, 21.23653
1121.360, 21.30482
1121.842, 21.23166
1122.324, 20.82323
1122.807, 20.23913
1123.289, 19.95325
1123.771, 20.00760
1124.253, 20.16743
1124.735, 20.53422
1125.217, 20.68196
1125.699, 20.42038
1126.181, 20.19806
1126.664, 20.33825
1127.146, 20.59866
1127.628, 20.54990
1128.110, 20.21393
1128.592, 20.05544
1129.074, 20.11691
1129.556, 20.06344
1130.038, 19.81947
1130.521, 19.67953
1131.003, 19.78690
1131.485, 19.98001
1131.967, 20.09067
1132.449, 20.13105
1132.931, 20.14261
1133.413, 20.12526
1133.895, 20.06231
1134.377, 19.95195
1134.859, 19.88781
1135.342, 19.89717
1135.824, 19.93994
1136.306, 19.99591
1136.788, 20.01782
1137.270, 19.89645
1137.752, 19.66718
1138.234, 19.45503
1138.716, 19.28418
1139.199, 19.37300
1139.681, 19.71574
1140.163, 19.94795
1140.645, 19.89902
1141.127, 19.72857
1141.609, 19.56802
1142.091, 19.45877
1142.573, 19.53147
1143.056, 19.70351
1143.538, 19.76710
1144.020, 19.73382
1144.502, 19.70295
1144.984, 19.70968
1145.466, 19.78421
1145.948, 19.97604
1146.430, 20.12069
1146.912, 19.98652
1147.395, 19.73314
1147.877, 19.55061
1148.359, 19.42600
1148.841, 19.30989
1149.323, 19.20556
1149.805, 19.16318
1150.287, 19.20476
1150.769, 19.24701
1151.251, 19.17129
1151.734, 19.14595
1152.216, 19.42186
1152.698, 19.71103
1153.180, 19.62693
1153.662, 19.34888
1154.144, 19.29751
1154.626, 19.51496
1155.108, 19.62566
1155.591, 19.39142
1156.073, 19.21934
1156.555, 19.37771
1157.037, 19.51802
1157.519, 19.34161
1158.001, 19.10821
1158.483, 19.16275
1158.965, 19.41858
1159.448, 19.50426
1159.930, 19.31452
1160.412, 19.19387
1160.894, 19.23746
1161.376, 19.28356
1161.858, 19.31821
1162.340, 19.31941
1162.822, 19.21266
1163.304, 19.10471
1163.786, 19.19886
1164.269, 19.48286
1164.751, 19.54055
1165.233, 19.21976
1165.715, 19.04742
1166.197, 19.08372
1166.679, 19.19466
1167.161, 19.39340
1167.643, 19.51347
1168.126, 19.36695
1168.608, 19.09338
1169.090, 19.08226
1169.572, 19.35224
1170.054, 19.40667
1170.536, 19.21057
1171.018, 19.23107
1171.500, 19.57830
1171.983, 19.77106
1172.465, 19.54601
1172.947, 19.21594
1173.429, 19.16647
1173.911, 19.29333
1174.393, 19.29669
1174.875, 19.20004
1175.357, 19.07931
1175.839, 18.96541
1176.322, 19.00887
1176.804, 19.23376
1177.286, 19.49719
1177.768, 19.71728
1178.250, 19.82426
1178.732, 19.60023
1179.214, 19.30311
1179.696, 19.39616
1180.178, 19.70535
1180.661, 19.93217
1181.143, 20.04437
1181.625, 20.08665
1182.107, 20.08043
1182.589, 20.08705
1183.071, 20.19350
1183.553, 20.23454
1184.035, 19.95913
1184.518, 19.70058
1185.000, 19.81330
1185.482, 20.08784
1185.964, 20.27280
1186.446, 20.32197
1186.928, 20.19292
1187.410, 19.81003
1187.892, 19.59562
1188.375, 19.88928
1188.857, 20.05893
1189.339, 19.77459
1189.821, 19.42976
1190.303, 19.24936
1190.785, 19.19520
1191.267, 19.22824
1191.749, 19.33649
1192.231, 19.38070
1192.714, 19.32975
1193.196, 19.28967
1193.678, 19.30079
1194.160, 19.21498
1194.642, 18.90878
1195.124, 18.68817
1195.606, 18.81792
1196.088, 19.11958
1196.570, 19.24295
1197.053, 19.20014
1197.535, 19.14555
1198.017, 19.07745
1198.499, 19.09142
1198.981, 19.19813
1199.463, 19.32380
1199.945, 19.44061
1200.427, 19.45441
1200.910, 19.26041
1201.392, 19.00426
1201.874, 18.94671
1202.356, 19.02781
1202.838, 19.18715
1203.320, 19.32950
1203.802, 19.11457
1204.284, 18.60781
1204.766, 18.25696
1205.249, 18.24211
1205.731, 18.44256
1206.213, 18.91373
1206.695, 19.34272
1207.177, 19.43782
1207.659, 19.37541
1208.141, 19.25505
1208.623, 19.14980
1209.105, 19.21080
1209.588, 19.37798
1210.070, 19.30863
1210.552, 18.79861
1211.034, 18.59773
1211.516, 19.31694
1211.998, 19.83093
1212.480, 19.55849
1212.962, 19.18775
1213.445, 19.15744
1213.927, 19.31186
1214.409, 19.44676
1214.891, 19.55141
1215.373, 19.51800
1215.855, 19.24533
1216.337, 19.13272
1216.819, 19.23773
1217.302, 19.33890
1217.784, 19.39983
1218.266, 19.34804
1218.748, 19.09563
1219.230, 18.85446
1219.712, 18.99010
1220.194, 19.39359
1220.676, 19.57368
1221.158, 19.55511
1221.641, 19.52082
1222.123, 19.47996
1222.605, 19.33748
1223.087, 19.08813
1223.569, 18.94042
1224.051, 19.03712
1224.533, 19.19648
1225.015, 19.17080
1225.497, 19.12020
1225.979, 19.33102
1226.462, 19.61084
1226.944, 19.66807
1227.426, 19.53862
1227.908, 19.33784
1228.390, 19.11687
1228.872, 18.99326
1229.354, 19.04644
1229.836, 19.12235
1230.319, 19.21324
1230.801, 19.24203
1231.283, 19.04148
1231.765, 18.88086
1232.247, 19.10038
1232.729, 19.49510
1233.211, 19.59952
1233.693, 19.40430
1234.176, 19.23066
1234.658, 19.05107
1235.140, 18.97324
1235.622, 19.03614
1236.104, 19.09517
1236.586, 19.08432
1237.068, 19.14508
1237.550, 19.41392
1238.032, 19.73126
1238.515, 19.80653
1238.997, 19.66732
1239.479, 19.38130
1239.961, 19.00315
1240.443, 18.92468
1240.925, 19.11784
1241.407, 19.19239
1241.889, 19.03998
1242.371, 18.85027
1242.854, 18.73458
1243.336, 18.70678
1243.818, 18.86597
1244.300, 19.03687
1244.782, 19.00962
1245.264, 18.89032
1245.746, 18.75201
1246.228, 18.66562
1246.711, 18.80602
1247.193, 19.15862
1247.675, 19.32361
1248.157, 19.05346
1248.639, 18.87249
1249.121, 19.02942
1249.603, 19.12210
1250.085, 18.86234
1250.568, 18.64891
1251.050, 18.82503
1251.532, 19.14929
1252.014, 19.22104
1252.496, 19.06260
1252.978, 18.91918
1253.460, 18.78378
1253.942, 18.70996
1254.424, 18.69827
1254.906, 18.79309
1255.389, 19.00965
1255.871, 19.24975
1256.353, 19.46050
1256.835, 19.56058
1257.317, 19.40661
1257.799, 19.11703
1258.281, 18.86154
1258.763, 18.68645
1259.246, 18.80295
1259.728, 19.04441
1260.210, 18.92355
1260.692, 18.46552
1261.174, 18.22982
1261.656, 18.47033
1262.138, 18.66853
1262.620, 18.41982
1263.103, 18.24259
1263.585, 18.48531
1264.067, 18.77569
1264.549, 18.87663
1265.031, 18.85258
1265.513, 18.76663
1265.995, 18.64535
1266.477, 18.58372
1266.959, 18.58833
1267.442, 18.62955
1267.924, 18.73239
1268.406, 18.76868
1268.888, 18.70147
1269.370, 18.65081
1269.852, 18.66479
1270.334, 18.76182
1270.816, 18.97702
1271.298, 19.22012
1271.781, 19.31073
1272.263, 19.28125
1272.745, 19.19098
1273.227, 19.06895
1273.709, 18.96194
1274.191, 18.89565
1274.673, 18.96505
1275.155, 19.16639
1275.638, 19.22012
1276.120, 18.84915
1276.602, 18.63877
1277.084, 19.14413
1277.566, 19.63474
1278.048, 19.65924
1278.530, 19.48555
1279.012, 19.28246
##END=



