##NAMES=Iranite
##RRUFFID=R060781
##IDEAL CHEMISTRY=Pb^2+^_10_Cu^2+^(Cr^6+^O_4_)_6_(SiO_4_)_2_(OH)_2_
##LOCALITY=Chapacase mine, Sierra Cerillos district, Tocopilla, Chile
##OWNER=RRUFF
##SOURCE=Michael Scott
##DESCRIPTION=Corroded aggregate of orange platy crystals associated with red wulfenite; structure type sample.
##STATUS=The identification of this mineral is confirmed by single-crystal X-ray diffraction and chemical analysis.
##URL=rruff.info/R060781
##MEASURED CHEMISTRY=Cu_1.00_Pb_10.00_((Cr_0.99_[box]_0.01_)_Σ=1_(O_3.82_(OH)_0.18_)_Σ=4_)_6_(Si_1.00_O_4_)_2_(OH)_2_
116.6693, 2482.153
117.1515, 2721.650
117.6336, 2958.796
118.1157, 3173.587
118.5978, 3387.609
119.0799, 3611.612
119.5620, 3843.710
120.0442, 4090.390
120.5263, 4370.098
121.0084, 4668.264
121.4905, 4960.461
121.9726, 5227.872
122.4547, 5486.002
122.9369, 5754.776
123.4190, 6035.230
123.9011, 6320.180
124.3832, 6608.180
124.8653, 6897.386
125.3474, 7171.660
125.8296, 7407.775
126.3117, 7623.456
126.7938, 7862.629
127.2759, 8143.131
127.7580, 8442.887
128.2401, 8717.949
128.7223, 8969.397
129.2044, 9211.266
129.6865, 9447.090
130.1686, 9679.536
130.6507, 9922.487
131.1328, 10197.08
131.6149, 10491.06
132.0971, 10717.62
132.5792, 10867.32
133.0613, 10990.71
133.5434, 11161.76
134.0255, 11384.22
134.5076, 11600.08
134.9898, 11780.79
135.4719, 11923.83
135.9540, 12072.45
136.4361, 12230.87
136.9182, 12392.52
137.4003, 12539.35
137.8825, 12674.46
138.3646, 12789.97
138.8467, 12874.42
139.3288, 12910.71
139.8109, 12974.82
140.2930, 13088.78
140.7752, 13241.67
141.2573, 13349.09
141.7394, 13389.14
142.2215, 13408.23
142.7036, 13442.62
143.1857, 13487.62
143.6679, 13547.74
144.1500, 13550.18
144.6321, 13559.46
145.1142, 13555.24
145.5963, 13530.28
146.0784, 13496.23
146.5606, 13469.06
147.0427, 13469.35
147.5248, 13455.06
148.0069, 13416.23
148.4890, 13351.19
148.9711, 13268.00
149.4533, 13146.68
149.9354, 13007.99
150.4175, 12898.66
150.8996, 12825.63
151.3817, 12776.61
151.8638, 12747.78
152.3460, 12771.43
152.8281, 12775.67
153.3102, 12755.37
153.7923, 12711.08
154.2744, 12644.69
154.7565, 12544.79
155.2386, 12430.43
155.7208, 12312.94
156.2029, 12155.18
156.6850, 12033.00
157.1671, 11986.27
157.6492, 12015.89
158.1313, 12021.73
158.6135, 11956.05
159.0956, 11856.73
159.5777, 11764.69
160.0598, 11685.48
160.5419, 11621.85
161.0240, 11580.49
161.5062, 11567.06
161.9883, 11546.55
162.4704, 11501.22
162.9525, 11438.29
163.4346, 11370.35
163.9167, 11296.13
164.3989, 11222.57
164.8810, 11157.45
165.3631, 11106.79
165.8452, 11052.81
166.3273, 10986.19
166.8094, 10907.55
167.2916, 10820.13
167.7737, 10707.25
168.2558, 10592.51
168.7379, 10504.70
169.2200, 10467.04
169.7021, 10437.53
170.1843, 10377.68
170.6664, 10291.58
171.1485, 10205.19
171.6306, 10139.71
172.1127, 10085.20
172.5948, 10026.14
173.0770, 9946.055
173.5591, 9864.631
174.0412, 9811.421
174.5233, 9787.396
175.0054, 9760.629
175.4875, 9697.543
175.9697, 9608.732
176.4518, 9522.577
176.9339, 9445.131
177.4160, 9379.435
177.8981, 9339.879
178.3802, 9331.591
178.8624, 9323.053
179.3445, 9266.232
179.8266, 9171.890
180.3087, 9092.070
180.7908, 9076.386
181.2729, 9096.304
181.7551, 9073.110
182.2372, 8989.552
182.7193, 8882.698
183.2014, 8808.198
183.6835, 8763.782
184.1656, 8729.477
184.6478, 8699.605
185.1299, 8670.560
185.6120, 8622.633
186.0941, 8543.806
186.5762, 8454.148
187.0583, 8398.256
187.5405, 8377.783
188.0226, 8364.435
188.5047, 8334.622
188.9868, 8290.002
189.4689, 8245.885
189.9510, 8204.437
190.4332, 8166.635
190.9153, 8137.842
191.3974, 8120.189
191.8795, 8101.672
192.3616, 8068.722
192.8437, 8020.816
193.3259, 7971.101
193.8080, 7922.992
194.2901, 7876.399
194.7722, 7825.006
195.2543, 7764.729
195.7364, 7711.148
196.2186, 7689.773
196.7007, 7703.658
197.1828, 7719.563
197.6649, 7728.718
198.1470, 7731.348
198.6291, 7714.244
199.1112, 7672.776
199.5934, 7618.720
200.0755, 7569.251
200.5576, 7522.772
201.0397, 7488.098
201.5218, 7476.504
202.0039, 7492.108
202.4861, 7488.979
202.9682, 7459.191
203.4503, 7414.637
203.9324, 7386.128
204.4145, 7378.113
204.8966, 7372.192
205.3788, 7356.677
205.8609, 7329.380
206.3430, 7304.635
206.8251, 7284.206
207.3072, 7267.058
207.7893, 7248.117
208.2715, 7225.191
208.7536, 7205.960
209.2357, 7198.442
209.7178, 7207.814
210.1999, 7209.855
210.6820, 7198.633
211.1642, 7138.906
211.6463, 7176.538
212.1284, 7194.030
212.6105, 7192.481
213.0926, 7114.005
213.5747, 7135.519
214.0569, 7117.359
214.5390, 7097.848
215.0211, 7134.251
215.5032, 7068.433
215.9853, 7104.525
216.4674, 7100.335
216.9496, 7114.997
217.4317, 7089.741
217.9138, 7077.189
218.3959, 7105.138
218.8780, 7111.105
219.3601, 7082.363
219.8423, 7099.918
220.3244, 7035.551
220.8065, 7043.608
221.2886, 7083.076
221.7707, 7057.783
222.2528, 7077.501
222.7349, 7080.471
223.2171, 7006.313
223.6992, 7067.069
224.1813, 7069.889
224.6634, 7013.213
225.1455, 7070.212
225.6276, 7022.349
226.1098, 7012.302
226.5919, 7030.786
227.0740, 7020.111
227.5561, 7056.145
228.0382, 7047.741
228.5203, 7012.684
229.0025, 7034.474
229.4846, 7059.229
229.9667, 7070.476
230.4488, 7061.418
230.9309, 7055.061
231.4130, 7054.609
231.8952, 7056.315
232.3773, 7047.025
232.8594, 7014.764
233.3415, 6987.647
233.8236, 6982.169
234.3057, 7014.379
234.7879, 7033.381
235.2700, 7035.496
235.7521, 7022.821
236.2342, 7001.804
236.7163, 6959.322
237.1984, 6925.426
237.6806, 6921.273
238.1627, 6968.219
238.6448, 6999.644
239.1269, 7005.512
239.6090, 6989.823
240.0911, 6978.725
240.5733, 6975.203
241.0554, 6972.713
241.5375, 6963.675
242.0196, 6932.083
242.5017, 6928.845
242.9838, 6976.644
243.4660, 7067.690
243.9481, 7107.796
244.4302, 7068.733
244.9123, 7010.929
245.3944, 6983.702
245.8765, 7009.432
246.3586, 7021.283
246.8408, 7006.675
247.3229, 6966.745
247.8050, 6927.322
248.2871, 6878.083
248.7692, 6840.755
249.2513, 6839.219
249.7335, 6897.133
250.2156, 6941.531
250.6977, 6956.435
251.1798, 6941.434
251.6619, 6932.496
252.1440, 6932.911
252.6262, 6935.761
253.1083, 6933.188
253.5904, 6919.742
254.0725, 6912.636
254.5546, 6917.130
255.0367, 6933.941
255.5189, 6948.163
256.0010, 6961.140
256.4831, 6970.258
256.9652, 6972.021
257.4473, 6964.397
257.9294, 6953.328
258.4116, 6934.707
258.8937, 6906.129
259.3758, 6910.626
259.8579, 6966.507
260.3400, 7034.035
260.8221, 7060.052
261.3043, 7024.187
261.7864, 6999.688
262.2685, 7012.690
262.7506, 7067.655
263.2327, 7099.634
263.7148, 7101.227
264.1970, 7089.701
264.6791, 7086.807
265.1612, 7093.369
265.6433, 7106.570
266.1254, 7126.694
266.6075, 7153.844
267.0897, 7184.259
267.5718, 7222.650
268.0539, 7257.473
268.5360, 7264.788
269.0181, 7232.968
269.5002, 7216.291
269.9824, 7242.521
270.4645, 7315.243
270.9466, 7353.666
271.4287, 7344.332
271.9108, 7321.856
272.3929, 7341.773
272.8751, 7412.345
273.3572, 7483.844
273.8393, 7537.870
274.3214, 7574.071
274.8035, 7606.382
275.2856, 7634.561
275.7678, 7659.766
276.2499, 7681.278
276.7320, 7697.998
277.2141, 7719.339
277.6962, 7750.778
278.1783, 7792.425
278.6604, 7832.663
279.1425, 7872.423
279.6247, 7909.498
280.1068, 7934.119
280.5889, 7944.542
281.0710, 7970.458
281.5531, 8035.146
282.0352, 8134.569
282.5174, 8209.688
282.9995, 8255.117
283.4816, 8289.202
283.9637, 8341.206
284.4458, 8410.933
284.9279, 8471.848
285.4101, 8505.188
285.8922, 8516.371
286.3743, 8539.981
286.8564, 8576.885
287.3385, 8623.866
287.8206, 8677.199
288.3028, 8736.860
288.7849, 8800.467
289.2670, 8873.016
289.7491, 8949.670
290.2312, 9009.121
290.7133, 9047.563
291.1955, 9080.887
291.6776, 9122.804
292.1597, 9174.932
292.6418, 9245.155
293.1239, 9361.905
293.6060, 9499.208
294.0882, 9579.805
294.5703, 9594.683
295.0524, 9594.557
295.5345, 9635.870
296.0166, 9711.161
296.4987, 9793.760
296.9809, 9882.908
297.4630, 9968.061
297.9451, 10022.93
298.4272, 10043.50
298.9093, 10058.44
299.3914, 10104.90
299.8736, 10169.77
300.3557, 10217.10
300.8378, 10204.45
301.3199, 10176.39
301.8020, 10200.07
302.2841, 10282.75
302.7663, 10367.22
303.2484, 10396.57
303.7305, 10392.28
304.2126, 10396.10
304.6947, 10417.70
305.1768, 10460.92
305.6590, 10545.12
306.1411, 10675.57
306.6232, 10784.81
307.1053, 10799.86
307.5874, 10767.45
308.0695, 10759.46
308.5517, 10794.22
309.0338, 10872.08
309.5159, 11016.03
309.9980, 11229.30
310.4801, 11420.57
310.9622, 11506.74
311.4444, 11548.74
311.9265, 11623.11
312.4086, 11767.70
312.8907, 11944.11
313.3728, 12136.14
313.8549, 12343.16
314.3371, 12558.41
314.8192, 12761.71
315.3013, 12976.77
315.7834, 13224.17
316.2655, 13530.12
316.7477, 13851.19
317.2298, 14171.33
317.7119, 14490.16
318.1940, 14820.40
318.6761, 15146.36
319.1582, 15491.70
319.6404, 15875.13
320.1225, 16348.52
320.6046, 16811.66
321.0867, 17226.46
321.5688, 17596.06
322.0509, 17997.45
322.5330, 18447.77
323.0151, 18930.76
323.4973, 19439.28
323.9794, 20013.92
324.4615, 20568.59
324.9436, 21081.78
325.4257, 21556.91
325.9078, 22049.20
326.3900, 22535.39
326.8721, 23050.61
327.3542, 23619.31
327.8363, 24273.44
328.3184, 24938.43
328.8005, 25641.10
329.2827, 26358.07
329.7648, 26985.43
330.2469, 27470.73
330.7290, 27927.67
331.2111, 28412.17
331.6932, 28958.67
332.1754, 29475.04
332.6575, 29966.56
333.1396, 30422.30
333.6217, 30815.32
334.1038, 31130.05
334.5859, 31412.56
335.0681, 31691.52
335.5502, 31981.59
336.0323, 32215.81
336.5144, 32378.77
336.9965, 32493.90
337.4786, 32625.02
337.9608, 32778.02
338.4429, 32918.16
338.9250, 33016.45
339.4071, 33066.67
339.8892, 33152.27
340.3713, 33284.51
340.8535, 33438.03
341.3356, 33566.56
341.8177, 33670.62
342.2998, 33763.95
342.7819, 33865.40
343.2640, 33968.38
343.7462, 34024.74
344.2283, 34034.30
344.7104, 33999.01
345.1925, 33919.24
345.6746, 33795.76
346.1567, 33637.63
346.6389, 33450.41
347.1210, 33231.24
347.6031, 32954.95
348.0852, 32618.54
348.5673, 32264.38
349.0494, 31920.70
349.5316, 31596.21
350.0137, 31309.13
350.4958, 31075.59
350.9779, 30883.08
351.4600, 30724.74
351.9421, 30600.32
352.4243, 30469.71
352.9064, 30295.78
353.3885, 30096.90
353.8706, 29902.71
354.3527, 29756.03
354.8348, 29592.25
355.3170, 29350.33
355.7991, 29036.64
356.2812, 28701.46
356.7633, 28389.97
357.2454, 28064.63
357.7275, 27687.38
358.2097, 27223.01
358.6918, 26731.13
359.1739, 26216.20
359.6560, 25690.24
360.1381, 25213.43
360.6202, 24800.39
361.1024, 24448.95
361.5845, 24161.90
362.0666, 23981.51
362.5487, 23802.33
363.0308, 23588.42
363.5129, 23356.95
363.9951, 23157.22
364.4772, 23016.74
364.9593, 22897.00
365.4414, 22777.98
365.9235, 22623.48
366.4056, 22534.73
366.8878, 22562.71
367.3698, 22651.45
367.8520, 22703.41
368.3341, 22696.26
368.8162, 22678.24
369.2983, 22668.77
369.7804, 22681.83
370.2625, 22650.14
370.7447, 22574.65
371.2268, 22453.45
371.7089, 22274.59
372.1910, 22014.96
372.6731, 21748.98
373.1552, 21500.34
373.6374, 21267.21
374.1195, 21013.73
374.6016, 20722.39
375.0837, 20439.98
375.5658, 20215.21
376.0479, 20049.51
376.5301, 19915.16
377.0122, 19809.26
377.4943, 19727.73
377.9764, 19652.74
378.4585, 19581.43
378.9406, 19531.22
379.4228, 19538.20
379.9049, 19589.57
380.3870, 19596.98
380.8691, 19531.17
381.3512, 19430.02
381.8333, 19349.22
382.3155, 19208.42
382.7976, 19059.96
383.2797, 18904.24
383.7618, 18719.46
384.2439, 18572.20
384.7260, 18409.90
385.2082, 18246.96
385.6903, 18104.97
386.1724, 17924.42
386.6545, 17782.10
387.1366, 17624.53
387.6187, 17473.93
388.1009, 17308.18
388.5830, 17147.13
389.0651, 17001.21
389.5472, 16846.91
390.0293, 16679.46
390.5114, 16529.30
390.9936, 16348.20
391.4757, 16194.25
391.9578, 16052.03
392.4399, 15885.32
392.9220, 15735.45
393.4041, 15579.16
393.8863, 15393.73
394.3684, 15258.97
394.8505, 15102.31
395.3326, 14923.15
395.8147, 14786.67
396.2968, 14610.61
396.7790, 14448.65
397.2611, 14297.34
397.7432, 14134.96
398.2253, 13990.04
398.7074, 13828.30
399.1895, 13665.04
399.6717, 13508.33
400.1538, 13333.05
400.6359, 13192.27
401.1180, 13027.91
401.6001, 12875.28
402.0822, 12725.29
402.5644, 12554.96
403.0465, 12296.56
403.5286, 12053.77
404.0107, 11818.36
404.4928, 11578.09
404.9749, 11333.20
405.4571, 11082.67
405.9392, 10812.57
406.4213, 10531.80
406.9034, 10306.06
407.3855, 10144.98
407.8676, 10001.08
408.3498, 9821.253
408.8319, 9611.605
409.3140, 9412.882
409.7961, 9238.382
410.2782, 9080.609
410.7603, 8920.832
411.2425, 8758.785
411.7246, 8613.607
412.2067, 8509.361
412.6888, 8427.851
413.1709, 8339.279
413.6530, 8233.014
414.1351, 8123.260
414.6172, 8018.773
415.0994, 7920.748
415.5815, 7826.423
416.0636, 7727.042
416.5457, 7636.203
417.0278, 7565.390
417.5099, 7521.900
417.9921, 7481.386
418.4742, 7430.118
418.9563, 7376.364
419.4384, 7332.481
419.9205, 7322.775
420.4026, 7304.184
420.8848, 7257.339
421.3669, 7176.847
421.8490, 7102.868
422.3311, 7035.191
422.8132, 6978.582
423.2953, 6937.278
423.7775, 6924.993
424.2596, 6909.104
424.7417, 6885.626
425.2238, 6855.436
425.7059, 6823.094
426.1880, 6786.653
426.6702, 6751.335
427.1523, 6720.716
427.6344, 6696.215
428.1165, 6671.118
428.5986, 6645.500
429.0807, 6618.797
429.5629, 6586.849
430.0450, 6548.167
430.5271, 6515.853
431.0092, 6496.615
431.4913, 6489.559
431.9734, 6494.062
432.4556, 6513.768
432.9377, 6527.583
433.4198, 6503.825
433.9019, 6450.425
434.3840, 6401.122
434.8661, 6375.777
435.3483, 6357.005
435.8304, 6312.308
436.3125, 6244.310
436.7946, 6184.510
437.2767, 6163.098
437.7589, 6161.078
438.2410, 6153.085
438.7231, 6126.702
439.2052, 6103.044
439.6873, 6106.155
440.1694, 6124.050
440.6516, 6123.746
441.1337, 6064.382
441.6158, 6002.928
442.0979, 5974.442
442.5800, 5995.041
443.0621, 6011.055
443.5443, 6008.589
444.0264, 5995.667
444.5085, 5983.079
444.9906, 5971.833
445.4727, 5961.227
445.9548, 5952.924
446.4370, 5947.324
446.9191, 5934.136
447.4012, 5907.773
447.8833, 5879.601
448.3654, 5857.582
448.8475, 5840.880
449.3297, 5833.846
449.8118, 5843.596
450.2939, 5860.261
450.7760, 5849.374
451.2581, 5805.721
451.7402, 5761.197
452.2224, 5735.134
452.7045, 5725.902
453.1866, 5714.561
453.6687, 5662.819
454.1508, 5703.729
454.6329, 5724.214
455.1151, 5725.372
455.5972, 5649.318
456.0793, 5672.968
456.5614, 5656.661
457.0435, 5638.716
457.5256, 5676.399
458.0077, 5611.576
458.4898, 5648.376
458.9720, 5644.609
459.4541, 5659.410
459.9362, 5634.007
460.4183, 5621.021
460.9004, 5648.252
461.3825, 5653.215
461.8647, 5623.183
462.3468, 5639.164
462.8289, 5572.936
463.3110, 5578.847
463.7931, 5615.883
464.2752, 5587.873
464.7574, 5604.588
465.2395, 5604.270
465.7216, 5526.540
466.2037, 5583.437
466.6858, 5582.112
467.1679, 5521.005
467.6501, 5573.289
468.1322, 5520.424
468.6143, 5505.091
469.0964, 5518.003
469.5785, 5501.471
470.0606, 5531.361
470.5428, 5516.528
471.0249, 5497.701
471.5070, 5496.311
471.9891, 5445.508
472.4712, 5488.533
472.9533, 5505.030
473.4355, 5534.463
473.9176, 5570.609
474.3997, 5590.163
474.8818, 5590.950
475.3639, 5587.881
475.8460, 5595.283
476.3282, 5609.960
476.8103, 5625.078
477.2924, 5638.800
477.7745, 5651.490
478.2566, 5664.359
478.7387, 5676.875
479.2209, 5685.880
479.7030, 5677.518
480.1851, 5672.478
480.6672, 5690.070
481.1493, 5752.037
481.6314, 5797.497
482.1136, 5793.483
482.5957, 5764.146
483.0778, 5751.997
483.5599, 5771.470
484.0420, 5800.028
484.5241, 5838.981
485.0063, 5891.201
485.4884, 5917.058
485.9705, 5900.943
486.4526, 5875.246
486.9347, 5868.916
487.4168, 5892.768
487.8990, 5897.929
488.3811, 5875.032
488.8632, 5832.046
489.3453, 5783.685
489.8274, 5726.789
490.3095, 5690.498
490.7917, 5708.108
491.2738, 5764.167
491.7559, 5781.806
492.2380, 5753.640
492.7201, 5716.229
493.2022, 5718.922
493.6844, 5743.941
494.1665, 5745.741
494.6486, 5690.036
495.1307, 5618.943
495.6128, 5571.014
496.0949, 5543.322
496.5771, 5521.894
497.0592, 5504.296
497.5413, 5486.303
498.0234, 5465.443
498.5055, 5442.737
498.9876, 5413.056
499.4698, 5369.316
499.9519, 5318.434
500.4340, 5271.796
500.9161, 5242.206
501.3982, 5204.099
501.8803, 5143.043
502.3624, 5057.851
502.8445, 5003.815
503.3267, 4995.947
503.8088, 5000.666
504.2909, 4991.683
504.7730, 4964.056
505.2551, 4945.138
505.7372, 4941.684
506.2194, 4944.094
506.7015, 4931.743
507.1836, 4904.669
507.6657, 4869.710
508.1478, 4818.584
508.6299, 4762.368
509.1121, 4741.707
509.5942, 4759.545
510.0763, 4781.396
510.5584, 4775.552
511.0405, 4751.742
511.5226, 4725.981
512.0048, 4694.854
512.4869, 4673.700
512.9690, 4684.699
513.4511, 4717.466
513.9332, 4736.905
514.4153, 4715.949
514.8975, 4687.284
515.3796, 4668.542
515.8617, 4664.002
516.3438, 4661.633
516.8259, 4662.596
517.3080, 4663.489
517.7902, 4660.011
518.2723, 4644.746
518.7544, 4637.012
519.2365, 4644.696
519.7186, 4663.507
520.2007, 4664.088
520.6829, 4638.969
521.1650, 4593.544
521.6471, 4624.628
522.1292, 4643.262
522.6113, 4650.052
523.0934, 4613.118
523.5756, 4629.892
524.0577, 4623.460
524.5398, 4614.925
525.0219, 4635.824
525.5040, 4599.070
525.9861, 4617.083
526.4683, 4611.550
526.9504, 4615.045
527.4325, 4595.196
527.9146, 4580.986
528.3967, 4587.722
528.8788, 4580.996
529.3610, 4553.791
529.8431, 4550.730
530.3252, 4501.192
530.8073, 4490.183
531.2894, 4475.997
531.7715, 4477.872
532.2537, 4479.771
532.7358, 4476.380
533.2179, 4467.686
533.7000, 4461.226
534.1821, 4460.439
534.6642, 4457.243
535.1464, 4446.523
535.6285, 4427.442
536.1106, 4402.842
536.5927, 4369.436
537.0748, 4335.503
537.5569, 4315.973
538.0391, 4310.678
538.5212, 4310.487
539.0033, 4317.542
539.4854, 4325.126
539.9675, 4314.431
540.4496, 4286.202
540.9318, 4258.421
541.4139, 4247.041
541.8960, 4243.607
542.3781, 4237.202
542.8602, 4224.981
543.3423, 4210.855
543.8245, 4192.158
544.3066, 4153.492
544.7887, 4173.322
545.2708, 4181.904
545.7529, 4179.842
546.2350, 4135.259
546.7172, 4145.582
547.1993, 4133.902
547.6814, 4121.320
548.1635, 4139.373
548.6456, 4100.973
549.1277, 4118.542
549.6099, 4113.766
550.0920, 4119.218
550.5741, 4102.528
551.0562, 4092.677
551.5383, 4104.974
552.0204, 4105.008
552.5026, 4085.768
552.9847, 4091.870
553.4668, 4052.697
553.9489, 4053.253
554.4310, 4070.949
554.9131, 4052.825
555.3953, 4059.329
555.8774, 4056.455
556.3595, 4010.947
556.8416, 4039.582
557.3237, 4036.153
557.8058, 3999.801
558.2880, 4025.894
558.7701, 3994.081
559.2522, 3982.937
559.7343, 3987.348
560.2164, 3975.544
560.6985, 3989.306
561.1807, 3978.436
561.6628, 3965.368
562.1449, 3961.903
562.6270, 3931.224
563.1091, 3951.032
563.5912, 3973.724
564.0734, 4010.370
564.5555, 4022.041
565.0376, 4006.743
565.5197, 3996.885
566.0018, 4008.687
566.4839, 4029.461
566.9661, 4019.428
567.4482, 3981.038
567.9303, 3952.356
568.4124, 3977.806
568.8945, 4022.371
569.3766, 4034.690
569.8587, 4001.395
570.3408, 3965.126
570.8229, 3949.043
571.3051, 3947.612
571.7872, 3953.477
572.2693, 3981.320
572.7514, 3998.532
573.2335, 3994.454
573.7156, 3970.861
574.1978, 3940.356
574.6799, 3883.130
575.1620, 3843.263
575.6441, 3845.223
576.1262, 3901.050
576.6083, 3937.862
577.0905, 3953.182
577.5726, 3953.022
578.0547, 3938.208
578.5368, 3909.224
579.0189, 3888.304
579.5010, 3880.044
579.9832, 3882.925
580.4653, 3901.645
580.9474, 3932.065
581.4295, 3954.336
581.9116, 3947.144
582.3937, 3932.045
582.8759, 3933.323
583.3580, 3953.239
583.8401, 3969.315
584.3222, 3967.393
584.8043, 3957.890
585.2864, 3949.914
585.7686, 3949.325
586.2507, 3945.215
586.7328, 3931.627
587.2149, 3914.536
587.6970, 3905.293
588.1791, 3903.129
588.6613, 3911.080
589.1434, 3935.854
589.6255, 3974.771
590.1076, 3989.189
590.5897, 3974.967
591.0718, 3956.529
591.5540, 3955.477
592.0361, 3967.549
592.5182, 3971.732
593.0003, 3962.969
593.4824, 3956.073
593.9645, 3973.786
594.4467, 4005.057
594.9288, 4027.453
595.4109, 4024.823
595.8930, 4016.128
596.3751, 4011.715
596.8572, 4010.807
597.3394, 4009.094
597.8215, 4005.516
598.3036, 4000.614
598.7857, 3991.292
599.2678, 3968.904
599.7499, 3972.791
600.2321, 4023.319
600.7142, 4079.563
601.1963, 4095.854
601.6784, 4062.310
602.1605, 4036.519
602.6426, 4027.402
603.1248, 4031.064
603.6069, 4043.400
604.0890, 4063.551
604.5711, 4078.077
605.0532, 4077.959
605.5353, 4069.045
606.0175, 4057.220
606.4996, 4043.026
606.9817, 4034.660
607.4638, 4036.092
607.9459, 4046.932
608.4280, 4069.099
608.9102, 4113.458
609.3923, 4147.407
609.8744, 4156.246
610.3565, 4150.830
610.8386, 4147.962
611.3207, 4145.983
611.8029, 4150.279
612.2850, 4162.832
612.7671, 4182.722
613.2492, 4207.573
613.7313, 4242.009
614.2134, 4263.419
614.6956, 4239.987
615.1777, 4184.125
615.6598, 4195.860
616.1419, 4285.336
616.6240, 4374.583
617.1061, 4375.219
617.5883, 4321.138
618.0704, 4273.840
618.5525, 4247.188
619.0346, 4235.797
619.5167, 4247.347
619.9988, 4271.093
620.4810, 4283.858
620.9631, 4258.235
621.4452, 4240.270
621.9273, 4252.201
622.4094, 4294.923
622.8915, 4322.883
623.3737, 4329.275
623.8558, 4329.639
624.3379, 4333.437
624.8200, 4341.867
625.3021, 4345.459
625.7842, 4342.968
626.2664, 4338.242
626.7485, 4332.299
627.2306, 4327.188
627.7127, 4334.460
628.1948, 4363.401
628.6769, 4397.944
629.1591, 4420.653
629.6412, 4433.199
630.1233, 4440.897
630.6054, 4443.394
631.0875, 4444.279
631.5696, 4444.425
632.0518, 4443.640
632.5339, 4446.901
633.0160, 4457.994
633.4981, 4471.415
633.9802, 4483.366
634.4623, 4491.817
634.9445, 4503.766
635.4266, 4520.416
635.9087, 4539.048
636.3908, 4557.503
636.8729, 4576.068
637.3550, 4587.238
637.8372, 4583.965
638.3193, 4577.420
638.8014, 4593.309
639.2835, 4627.835
639.7656, 4660.615
640.2477, 4676.853
640.7299, 4688.035
641.2120, 4707.011
641.6941, 4735.372
642.1762, 4756.307
642.6583, 4747.503
643.1404, 4738.305
643.6226, 4751.570
644.1047, 4822.060
644.5868, 4864.768
645.0689, 4862.607
645.5510, 4843.479
646.0331, 4853.970
646.5153, 4904.898
646.9974, 4937.865
647.4795, 4930.456
647.9616, 4902.501
648.4437, 4913.298
648.9258, 4959.534
649.4080, 5003.986
649.8901, 5018.490
650.3722, 5020.073
650.8543, 5031.660
651.3364, 5054.500
651.8185, 5079.322
652.3007, 5108.775
652.7828, 5133.567
653.2649, 5143.834
653.7470, 5117.551
654.2291, 5112.457
654.7112, 5153.563
655.1934, 5211.734
655.6755, 5250.126
656.1576, 5262.667
656.6397, 5270.409
657.1218, 5276.002
657.6039, 5280.388
658.0861, 5285.205
658.5682, 5290.439
659.0502, 5301.028
659.5323, 5322.371
660.0145, 5350.167
660.4966, 5380.182
660.9787, 5411.920
661.4608, 5433.942
661.9429, 5424.457
662.4250, 5409.511
662.9072, 5415.032
663.3893, 5457.291
663.8714, 5491.293
664.3535, 5498.915
664.8356, 5495.557
665.3177, 5499.968
665.7999, 5512.569
666.2820, 5533.171
666.7641, 5566.977
667.2462, 5605.583
667.7283, 5625.844
668.2104, 5626.819
668.6926, 5624.455
669.1747, 5625.948
669.6568, 5629.296
670.1389, 5626.395
670.6210, 5618.467
671.1031, 5618.213
671.5853, 5634.492
672.0674, 5662.653
672.5495, 5702.271
673.0316, 5757.963
673.5137, 5804.636
673.9958, 5835.357
674.4780, 5852.793
674.9601, 5857.345
675.4422, 5828.553
675.9243, 5825.885
676.4064, 5864.658
676.8885, 5922.132
677.3707, 5950.613
677.8528, 5947.621
678.3349, 5945.969
678.8170, 5956.770
679.2991, 5957.542
679.7813, 6009.495
680.2634, 6050.193
680.7455, 6080.245
681.2276, 6067.776
681.7097, 6110.218
682.1918, 6130.651
682.6740, 6150.191
683.1561, 6200.361
683.6382, 6194.074
684.1203, 6243.758
684.6024, 6271.101
685.0845, 6308.666
685.5667, 6324.099
686.0488, 6346.364
686.5309, 6390.774
687.0130, 6422.924
687.4951, 6435.802
687.9772, 6474.017
688.4594, 6466.967
688.9415, 6499.639
689.4236, 6549.450
689.9057, 6563.441
690.3878, 6602.063
690.8699, 6631.302
691.3521, 6617.917
691.8342, 6678.669
692.3163, 6707.353
692.7984, 6751.283
693.2805, 6799.900
693.7626, 6842.588
694.2448, 6884.731
694.7269, 6926.960
695.2090, 6967.761
695.6911, 7009.645
696.1732, 7046.409
696.6553, 7067.457
697.1375, 7072.763
697.6196, 7096.166
698.1017, 7145.756
698.5838, 7199.124
699.0659, 7218.924
699.5480, 7220.178
700.0302, 7239.239
700.5123, 7301.870
700.9944, 7370.561
701.4765, 7419.995
701.9586, 7457.016
702.4407, 7499.567
702.9229, 7566.582
703.4050, 7624.549
703.8871, 7656.756
704.3692, 7666.601
704.8513, 7698.694
705.3334, 7760.500
705.8156, 7824.704
706.2977, 7873.124
706.7798, 7908.012
707.2619, 7955.854
707.7440, 8017.939
708.2261, 8081.369
708.7083, 8136.022
709.1904, 8182.494
709.6725, 8218.875
710.1546, 8240.131
710.6367, 8264.284
711.1188, 8303.378
711.6010, 8349.218
712.0831, 8392.229
712.5652, 8421.314
713.0473, 8459.779
713.5294, 8517.702
714.0115, 8583.246
714.4937, 8621.631
714.9758, 8625.762
715.4579, 8644.708
715.9400, 8701.597
716.4221, 8781.531
716.9042, 8845.751
717.3864, 8895.959
717.8685, 8946.330
718.3506, 9008.416
718.8327, 9072.672
719.3148, 9127.209
719.7969, 9171.754
720.2791, 9219.976
720.7612, 9277.539
721.2433, 9340.422
721.7254, 9406.533
722.2075, 9478.403
722.6896, 9544.367
723.1718, 9600.536
723.6539, 9655.695
724.1360, 9721.770
724.6181, 9797.696
725.1002, 9870.244
725.5823, 9935.905
726.0645, 10003.09
726.5466, 10087.34
727.0287, 10181.40
727.5108, 10271.00
727.9929, 10345.85
728.4750, 10416.52
728.9572, 10492.22
729.4393, 10568.19
729.9214, 10630.08
730.4035, 10639.04
730.8856, 10676.00
731.3677, 10770.98
731.8499, 10915.60
732.3320, 11041.75
732.8141, 11150.02
733.2962, 11237.78
733.7783, 11288.76
734.2604, 11318.03
734.7426, 11374.46
735.2247, 11459.71
735.7068, 11564.25
736.1889, 11706.09
736.6710, 11850.87
737.1531, 11958.08
737.6353, 12005.90
738.1174, 12067.07
738.5995, 12173.52
739.0816, 12296.64
739.5637, 12404.33
740.0458, 12480.01
740.5280, 12585.07
741.0101, 12735.09
741.4922, 12900.69
741.9743, 13030.81
742.4564, 13128.37
742.9385, 13226.78
743.4207, 13328.75
743.9028, 13443.43
744.3849, 13590.49
744.8670, 13760.15
745.3491, 13923.28
745.8312, 14056.20
746.3134, 14192.84
746.7955, 14349.54
747.2776, 14524.36
747.7597, 14699.72
748.2418, 14873.65
748.7239, 15047.23
749.2060, 15221.28
749.6881, 15394.46
750.1702, 15564.67
750.6523, 15728.94
751.1345, 15905.35
751.6166, 16115.46
752.0987, 16342.58
752.5808, 16554.50
753.0629, 16744.40
753.5450, 16945.44
754.0272, 17188.86
754.5093, 17446.54
754.9914, 17686.42
755.4735, 17887.67
755.9556, 18103.16
756.4377, 18327.98
756.9199, 18572.53
757.4020, 18849.29
757.8841, 19161.48
758.3662, 19481.32
758.8483, 19800.45
759.3304, 20122.13
759.8126, 20431.34
760.2947, 20738.15
760.7768, 21082.06
761.2589, 21503.87
761.7410, 21935.21
762.2231, 22319.59
762.7053, 22674.34
763.1874, 23044.87
763.6695, 23420.82
764.1516, 23840.76
764.6337, 24328.04
765.1158, 24871.33
765.5980, 25374.04
766.0801, 25826.94
766.5622, 26279.17
767.0443, 26760.17
767.5264, 27262.00
768.0085, 27751.97
768.4907, 28235.71
768.9728, 28735.18
769.4549, 29272.05
769.9370, 29832.12
770.4191, 30404.24
770.9012, 30993.94
771.3834, 31562.01
771.8655, 32071.38
772.3476, 32577.46
772.8297, 33115.25
773.3118, 33696.13
773.7939, 34269.57
774.2761, 34823.18
774.7582, 35390.46
775.2403, 36044.22
775.7224, 36753.39
776.2045, 37381.06
776.6866, 37891.48
777.1688, 38363.30
777.6509, 38828.91
778.1330, 39311.37
778.6151, 39856.61
779.0972, 40556.46
779.5793, 41222.17
780.0615, 41797.99
780.5436, 42321.79
781.0257, 42848.60
781.5078, 43361.26
781.9899, 43945.39
782.4720, 44639.37
782.9542, 45388.37
783.4363, 46058.18
783.9184, 46659.24
784.4005, 47279.95
784.8826, 47985.47
785.3647, 48707.75
785.8469, 49381.25
786.3290, 50025.98
786.8111, 50738.66
787.2932, 51567.14
787.7753, 52452.87
788.2574, 53386.81
788.7396, 54359.54
789.2217, 55378.92
789.7038, 56424.45
790.1859, 57523.84
790.6680, 58663.00
791.1501, 59861.50
791.6323, 61157.83
792.1144, 62561.02
792.5965, 64042.93
793.0786, 65542.01
793.5607, 67125.23
794.0428, 68854.48
794.5250, 70746.38
795.0071, 72649.27
795.4892, 74465.89
795.9713, 76319.76
796.4534, 78264.74
796.9355, 80319.96
797.4177, 82410.29
797.8998, 84561.45
798.3819, 86764.70
798.8640, 89034.09
799.3461, 91345.85
799.8282, 93683.14
800.3104, 96047.05
800.7925, 98380.59
801.2746, 100641.6
801.7567, 102864.6
802.2388, 105117.2
802.7209, 107424.1
803.2031, 109717.6
803.6852, 112043.6
804.1673, 114326.3
804.6494, 116441.4
805.1315, 118391.3
805.6136, 120232.5
806.0958, 121984.9
806.5779, 123609.6
807.0600, 125080.0
807.5421, 126376.1
808.0242, 127448.0
808.5063, 128276.9
808.9885, 128863.0
809.4706, 129140.5
809.9527, 129181.3
810.4348, 129138.7
810.9169, 129084.5
811.3990, 128883.5
811.8812, 128509.4
812.3633, 127976.2
812.8454, 127284.0
813.3275, 126435.3
813.8096, 125533.6
814.2917, 124622.3
814.7739, 123680.0
815.2560, 122652.5
815.7381, 121559.6
816.2202, 120469.9
816.7023, 119366.2
817.1844, 118303.5
817.6666, 117310.0
818.1487, 116386.2
818.6308, 115543.5
819.1129, 114800.6
819.5950, 114118.2
820.0771, 113485.3
820.5593, 112909.3
821.0414, 112409.5
821.5235, 111985.8
822.0056, 111634.5
822.4877, 111313.2
822.9698, 111085.2
823.4520, 111019.4
823.9341, 111118.9
824.4162, 111324.1
824.8983, 111567.7
825.3804, 111960.8
825.8625, 112565.0
826.3447, 113384.6
826.8268, 114278.5
827.3089, 115239.3
827.7910, 116273.2
828.2731, 117362.6
828.7552, 118521.2
829.2374, 119822.2
829.7195, 121257.1
830.2016, 122815.1
830.6837, 124530.5
831.1658, 126309.3
831.6479, 128119.2
832.1301, 129956.8
832.6122, 131772.9
833.0943, 133518.1
833.5764, 135298.8
834.0585, 137199.4
834.5406, 139229.5
835.0228, 141198.7
835.5049, 143076.8
835.9870, 144893.6
836.4691, 146674.4
836.9512, 148403.8
837.4333, 150085.6
837.9155, 151720.0
838.3975, 153272.5
838.8796, 154667.8
839.3618, 155989.6
839.8439, 157314.7
840.3260, 158697.5
840.8081, 159969.7
841.2902, 161132.8
841.7723, 162168.3
842.2545, 163052.6
842.7366, 163793.1
843.2187, 164465.8
843.7008, 165107.4
844.1829, 165586.2
844.6650, 165803.3
845.1472, 165776.5
845.6293, 165532.9
846.1114, 165080.1
846.5935, 164398.8
847.0756, 163436.6
847.5577, 162297.0
848.0399, 161101.5
848.5220, 159866.8
849.0041, 158446.0
849.4862, 156774.8
849.9683, 155028.7
850.4504, 153447.7
850.9326, 151964.8
851.4147, 150439.0
851.8968, 148796.1
852.3789, 147197.9
852.8610, 145688.8
853.3431, 144280.5
853.8253, 143012.6
854.3074, 141958.0
854.7895, 140885.6
855.2716, 139791.7
855.7537, 138660.9
856.2358, 137488.5
856.7180, 136274.0
857.2001, 134953.9
857.6822, 133526.1
858.1643, 131980.3
858.6464, 130269.9
859.1285, 128436.5
859.6107, 126511.8
860.0928, 124478.1
860.5749, 122417.8
861.0570, 120360.3
861.5391, 118266.8
862.0212, 116065.0
862.5034, 113754.6
862.9855, 111330.3
863.4676, 108740.3
863.9497, 106098.7
864.4318, 103531.2
864.9139, 101005.5
865.3961, 98427.95
865.8782, 95721.97
866.3603, 93022.35
866.8424, 90366.39
867.3245, 87736.66
867.8066, 85082.39
868.2888, 82368.38
868.7709, 79659.50
869.2530, 76941.04
869.7351, 74275.50
870.2172, 71663.92
870.6993, 69127.80
871.1815, 66706.51
871.6636, 64406.08
872.1457, 62241.33
872.6278, 60289.45
873.1099, 58497.43
873.5920, 56735.97
874.0742, 54997.20
874.5563, 53249.39
875.0384, 51426.45
875.5205, 49641.69
876.0026, 48193.45
876.4847, 47068.10
876.9669, 45948.32
877.4490, 44723.24
877.9311, 43501.12
878.4132, 42378.77
878.8953, 41356.60
879.3774, 40435.49
879.8596, 39677.82
880.3417, 38944.45
880.8238, 38199.55
881.3059, 37467.84
881.7880, 36800.65
882.2701, 36209.21
882.7523, 35615.20
883.2344, 35001.38
883.7165, 34394.97
884.1986, 33852.43
884.6807, 33357.98
885.1628, 32881.57
885.6450, 32420.07
886.1271, 31962.39
886.6092, 31505.45
887.0913, 31053.25
887.5734, 30612.30
888.0555, 30172.63
888.5377, 29765.04
889.0198, 29389.14
889.5019, 29041.68
889.9840, 28730.05
890.4661, 28446.63
890.9482, 28166.18
891.4304, 27878.66
891.9125, 27604.04
892.3946, 27356.31
892.8767, 27128.33
893.3588, 26906.53
893.8409, 26679.42
894.3231, 26470.05
894.8052, 26273.96
895.2873, 26099.51
895.7694, 25947.88
896.2515, 25823.78
896.7336, 25757.23
897.2158, 25766.34
897.6979, 25793.42
898.1800, 25773.96
898.6621, 25741.19
899.1442, 25740.02
899.6263, 25798.07
900.1085, 25861.70
900.5906, 25919.60
901.0727, 25984.97
901.5548, 26070.58
902.0369, 26177.39
902.5190, 26305.56
903.0012, 26461.47
903.4833, 26605.96
903.9654, 26684.18
904.4475, 26727.58
904.9296, 26776.62
905.4117, 26829.83
905.8939, 26920.03
906.3760, 27102.79
906.8581, 27294.15
907.3402, 27425.27
907.8223, 27483.53
908.3044, 27556.06
908.7866, 27653.65
909.2687, 27728.60
909.7508, 27715.70
910.2329, 27651.81
910.7150, 27608.47
911.1971, 27600.21
911.6793, 27574.43
912.1614, 27535.78
912.6435, 27446.11
913.1256, 27268.57
913.6077, 26980.15
914.0898, 26726.84
914.5720, 26520.45
915.0541, 26303.35
915.5362, 26009.98
916.0183, 25671.94
916.5004, 25371.57
916.9825, 25113.32
917.4647, 24840.63
917.9468, 24508.79
918.4289, 24161.36
918.9110, 23827.65
919.3931, 23514.96
919.8752, 23169.17
920.3574, 22783.90
920.8395, 22384.24
921.3216, 21981.23
921.8037, 21572.85
922.2858, 21170.93
922.7679, 20771.50
923.2501, 20368.50
923.7322, 19958.60
924.2143, 19543.50
924.6964, 19111.97
925.1785, 18664.63
925.6606, 18244.03
926.1428, 17856.55
926.6249, 17484.99
927.1070, 17134.29
927.5891, 16793.25
928.0712, 16420.51
928.5533, 16026.29
929.0354, 15647.64
929.5175, 15311.59
929.9996, 15003.03
930.4818, 14718.61
930.9639, 14458.01
931.4460, 14208.58
931.9281, 13972.00
932.4102, 13743.49
932.8923, 13520.05
933.3745, 13307.94
933.8566, 13139.59
934.3387, 13005.56
934.8208, 12870.06
935.3029, 12718.61
935.7850, 12561.28
936.2672, 12400.23
936.7493, 12239.42
937.2314, 12092.56
937.7135, 11963.83
938.1956, 11840.77
938.6777, 11721.20
939.1599, 11609.04
939.6420, 11515.72
940.1241, 11436.48
940.6062, 11349.85
941.0883, 11249.72
941.5704, 11148.65
942.0526, 11057.68
942.5347, 10972.44
943.0168, 10886.98
943.4989, 10780.47
943.9810, 10715.82
944.4631, 10718.53
944.9453, 10723.07
945.4274, 10649.31
945.9095, 10514.40
946.3916, 10411.74
946.8737, 10352.33
947.3558, 10305.25
947.8380, 10252.38
948.3201, 10197.07
948.8022, 10139.98
949.2843, 10078.61
949.7664, 10028.96
950.2485, 9998.531
950.7307, 9965.756
951.2128, 9916.157
951.6949, 9851.886
952.1770, 9779.037
952.6591, 9699.478
953.1412, 9633.500
953.6234, 9610.509
954.1055, 9593.310
954.5876, 9554.966
955.0697, 9494.147
955.5518, 9433.473
956.0339, 9374.232
956.5161, 9315.437
956.9982, 9255.560
957.4803, 9196.607
957.9624, 9137.752
958.4445, 9083.481
958.9266, 9057.219
959.4088, 9119.432
959.8909, 9165.984
960.3730, 9108.361
960.8551, 8987.245
961.3372, 8929.987
961.8193, 8991.347
962.3015, 8992.926
962.7836, 8884.260
963.2657, 8726.936
963.7478, 8626.396
964.2299, 8573.649
964.7120, 8542.508
965.1942, 8537.314
965.6763, 8526.915
966.1584, 8488.616
966.6405, 8437.140
967.1226, 8391.530
967.6047, 8355.057
968.0869, 8319.046
968.5690, 8285.256
969.0511, 8246.735
969.5332, 8186.361
970.0153, 8116.870
970.4974, 8067.583
970.9796, 8044.667
971.4617, 8030.247
971.9438, 8032.865
972.4259, 8026.515
972.9080, 7982.339
973.3901, 7890.538
973.8723, 7865.687
974.3544, 7923.573
974.8365, 7973.600
975.3186, 7939.975
975.8007, 7863.290
976.2828, 7816.719
976.7650, 7798.067
977.2471, 7774.756
977.7292, 7714.333
978.2113, 7665.577
978.6934, 7656.793
979.1755, 7675.984
979.6577, 7673.717
980.1398, 7648.943
980.6219, 7613.188
981.1040, 7563.161
981.5861, 7514.604
982.0682, 7496.732
982.5504, 7496.303
983.0325, 7484.583
983.5146, 7437.144
983.9967, 7396.227
984.4788, 7368.544
984.9609, 7350.930
985.4431, 7340.547
985.9252, 7337.314
986.4073, 7336.298
986.8894, 7338.604
987.3715, 7333.830
987.8536, 7312.221
988.3358, 7277.276
988.8179, 7228.855
989.3000, 7152.499
989.7821, 7106.109
990.2642, 7101.352
990.7463, 7112.958
991.2285, 7133.699
991.7106, 7158.658
992.1927, 7139.284
992.6748, 7076.133
993.1569, 7019.325
993.6390, 7007.739
994.1212, 7012.460
994.6033, 7020.111
995.0854, 7028.146
995.5675, 7014.014
996.0496, 6964.398
996.5317, 6925.310
997.0139, 6919.802
997.4960, 6930.842
997.9781, 6913.603
998.4602, 6875.698
998.9423, 6843.350
999.4244, 6846.379
999.9066, 6838.379
1000.389, 6781.033
1000.871, 6705.797
1001.353, 6669.213
1001.835, 6682.422
1002.317, 6687.133
1002.799, 6675.113
1003.281, 6653.868
1003.763, 6629.822
1004.246, 6604.408
1004.728, 6578.268
1005.210, 6548.659
1005.692, 6530.060
1006.174, 6535.306
1006.656, 6546.551
1007.138, 6556.910
1007.620, 6567.158
1008.103, 6554.023
1008.585, 6516.895
1009.067, 6477.088
1009.549, 6451.235
1010.031, 6429.485
1010.513, 6401.468
1010.995, 6367.875
1011.477, 6338.251
1011.959, 6318.712
1012.442, 6295.024
1012.924, 6257.071
1013.406, 6217.286
1013.888, 6215.563
1014.370, 6244.782
1014.852, 6268.996
1015.334, 6274.156
1015.816, 6270.370
1016.299, 6265.288
1016.781, 6254.465
1017.263, 6228.508
1017.745, 6173.752
1018.227, 6147.791
1018.709, 6162.698
1019.191, 6180.502
1019.673, 6142.979
1020.155, 6081.549
1020.638, 6065.515
1021.120, 6109.410
1021.602, 6134.008
1022.084, 6082.624
1022.566, 6024.541
1023.048, 5996.152
1023.530, 5996.748
1024.012, 6005.865
1024.495, 6024.048
1024.977, 6032.383
1025.459, 6015.087
1025.941, 5985.626
1026.423, 5949.467
1026.905, 5912.247
1027.387, 5891.591
1027.869, 5913.060
1028.351, 5917.004
1028.833, 5887.576
1029.316, 5844.183
1029.798, 5822.748
1030.280, 5819.404
1030.762, 5820.314
1031.244, 5824.849
1031.726, 5823.450
1032.208, 5802.603
1032.690, 5777.552
1033.173, 5765.511
1033.655, 5775.046
1034.137, 5758.860
1034.619, 5709.045
1035.101, 5670.057
1035.583, 5690.568
1036.065, 5738.146
1036.547, 5764.823
1037.030, 5768.281
1037.512, 5752.393
1037.994, 5695.138
1038.476, 5645.888
1038.958, 5621.472
1039.440, 5615.431
1039.922, 5609.202
1040.404, 5602.828
1040.886, 5598.668
1041.369, 5602.087
1041.851, 5599.176
1042.333, 5566.899
1042.815, 5524.853
1043.297, 5502.053
1043.779, 5517.270
1044.261, 5520.667
1044.743, 5508.545
1045.225, 5492.076
1045.708, 5480.794
1046.190, 5474.543
1046.672, 5475.661
1047.154, 5484.273
1047.636, 5488.035
1048.118, 5489.702
1048.600, 5474.698
1049.082, 5425.184
1049.565, 5351.138
1050.047, 5329.242
1050.529, 5360.707
1051.011, 5383.890
1051.493, 5370.379
1051.975, 5337.598
1052.457, 5290.331
1052.939, 5240.065
1053.422, 5208.543
1053.904, 5211.594
1054.386, 5216.879
1054.868, 5226.362
1055.350, 5230.893
1055.832, 5213.061
1056.314, 5181.311
1056.796, 5163.608
1057.278, 5163.807
1057.760, 5167.624
1058.243, 5172.711
1058.725, 5173.694
1059.207, 5164.722
1059.689, 5146.888
1060.171, 5142.494
1060.653, 5152.911
1061.135, 5156.086
1061.617, 5136.978
1062.100, 5108.359
1062.582, 5076.367
1063.064, 5046.972
1063.546, 5034.569
1064.028, 5064.432
1064.510, 5078.876
1064.992, 5070.407
1065.474, 5049.648
1065.956, 5026.885
1066.439, 5003.650
1066.921, 4985.595
1067.403, 4973.583
1067.885, 4965.266
1068.367, 4964.041
1068.849, 4961.755
1069.331, 4951.442
1069.813, 4933.278
1070.296, 4922.824
1070.778, 4920.207
1071.260, 4921.047
1071.742, 4928.775
1072.224, 4933.447
1072.706, 4917.607
1073.188, 4890.380
1073.670, 4874.246
1074.152, 4885.492
1074.635, 4889.335
1075.117, 4879.949
1075.599, 4866.477
1076.081, 4865.607
1076.563, 4870.375
1077.045, 4855.227
1077.527, 4812.906
1078.009, 4781.695
1078.491, 4796.799
1078.974, 4815.563
1079.456, 4809.818
1079.938, 4781.412
1080.420, 4765.223
1080.902, 4761.212
1081.384, 4763.160
1081.866, 4775.347
1082.348, 4784.590
1082.831, 4774.136
1083.313, 4751.793
1083.795, 4735.767
1084.277, 4728.875
1084.759, 4728.159
1085.241, 4735.683
1085.723, 4743.898
1086.205, 4743.107
1086.688, 4735.928
1087.170, 4728.091
1087.652, 4720.583
1088.134, 4710.508
1088.616, 4685.527
1089.098, 4670.221
1089.580, 4682.244
1090.062, 4714.378
1090.544, 4718.548
1091.026, 4697.006
1091.509, 4677.113
1091.991, 4675.541
1092.473, 4676.373
1092.955, 4664.734
1093.437, 4648.509
1093.919, 4642.817
1094.401, 4650.964
1094.883, 4662.137
1095.366, 4678.087
1095.848, 4687.086
1096.330, 4667.344
1096.812, 4636.974
1097.294, 4625.827
1097.776, 4637.063
1098.258, 4642.412
1098.740, 4627.063
1099.223, 4616.589
1099.705, 4624.512
1100.187, 4640.587
1100.669, 4625.955
1101.151, 4588.769
1101.633, 4564.439
1102.115, 4573.540
1102.597, 4587.687
1103.079, 4598.081
1103.562, 4603.033
1104.044, 4598.764
1104.526, 4582.749
1105.008, 4578.933
1105.490, 4589.108
1105.972, 4598.179
1106.454, 4587.237
1106.936, 4574.044
1107.418, 4580.439
1107.901, 4604.565
1108.383, 4610.545
1108.865, 4589.113
1109.347, 4568.653
1109.829, 4554.215
1110.311, 4548.988
1110.793, 4565.423
1111.275, 4593.935
1111.758, 4615.063
1112.240, 4624.704
1112.722, 4623.149
1113.204, 4600.732
1113.686, 4579.620
1114.168, 4578.627
1114.650, 4594.960
1115.132, 4595.195
1115.615, 4581.441
1116.097, 4576.497
1116.579, 4610.430
1117.061, 4640.600
1117.543, 4638.595
1118.025, 4616.163
1118.507, 4601.062
1118.989, 4594.065
1119.471, 4583.126
1119.953, 4564.002
1120.436, 4548.581
1120.918, 4549.683
1121.400, 4561.215
1121.882, 4580.124
1122.364, 4610.500
1122.846, 4619.523
1123.328, 4598.744
1123.810, 4581.131
1124.293, 4590.796
1124.775, 4610.183
1125.257, 4592.427
1125.739, 4553.837
1126.221, 4540.394
1126.703, 4602.427
1127.185, 4645.345
1127.667, 4650.829
1128.150, 4639.624
1128.632, 4632.475
1129.114, 4629.753
1129.596, 4635.818
1130.078, 4651.167
1130.560, 4663.199
1131.042, 4663.749
1131.524, 4659.082
1132.006, 4646.380
1132.489, 4631.307
1132.971, 4647.046
1133.453, 4693.616
1133.935, 4728.569
1134.417, 4738.276
1134.899, 4729.543
1135.381, 4685.912
1135.863, 4638.065
1136.345, 4632.096
1136.828, 4690.807
1137.310, 4712.293
1137.792, 4689.020
1138.274, 4663.879
1138.756, 4669.459
1139.238, 4692.023
1139.720, 4721.686
1140.202, 4753.377
1140.685, 4765.918
1141.167, 4737.367
1141.649, 4718.934
1142.131, 4720.126
1142.613, 4730.428
1143.095, 4735.957
1143.577, 4737.755
1144.059, 4737.522
1144.542, 4735.260
1145.024, 4733.659
1145.506, 4738.604
1145.988, 4738.721
1146.470, 4724.765
1146.952, 4702.402
1147.434, 4704.575
1147.916, 4726.215
1148.398, 4736.587
1148.880, 4699.744
1149.363, 4678.026
1149.845, 4724.024
1150.327, 4789.613
1150.809, 4817.063
1151.291, 4803.130
1151.773, 4783.201
1152.255, 4757.638
1152.737, 4743.569
1153.219, 4766.131
1153.702, 4795.193
1154.184, 4809.754
1154.666, 4808.418
1155.148, 4795.486
1155.630, 4767.383
1156.112, 4744.036
1156.594, 4730.479
1157.076, 4722.525
1157.559, 4709.946
1158.041, 4702.547
1158.523, 4716.336
1159.005, 4761.859
1159.487, 4795.327
1159.969, 4813.484
1160.451, 4823.854
1160.933, 4831.375
1161.416, 4833.167
1161.898, 4815.466
1162.380, 4787.048
1162.862, 4771.255
1163.344, 4798.610
1163.826, 4805.377
1164.308, 4774.195
1164.790, 4737.229
1165.272, 4731.805
1165.755, 4748.763
1166.237, 4759.729
1166.719, 4762.440
1167.201, 4756.907
1167.683, 4726.187
1168.165, 4707.460
1168.647, 4714.405
1169.129, 4740.670
1169.611, 4776.771
1170.094, 4819.516
1170.576, 4847.735
1171.058, 4856.357
1171.540, 4848.986
1172.022, 4804.564
1172.504, 4764.944
1172.986, 4766.596
1173.468, 4808.063
1173.951, 4826.977
1174.433, 4823.848
1174.915, 4812.598
1175.397, 4784.610
1175.879, 4812.084
1176.361, 4828.311
1176.843, 4833.894
1177.325, 4796.953
1177.807, 4814.922
1178.290, 4810.890
1178.772, 4805.951
1179.254, 4831.649
1179.736, 4800.894
1180.218, 4826.105
1180.700, 4828.976
1181.182, 4842.071
1181.664, 4833.025
1182.146, 4830.819
1182.629, 4850.764
1183.111, 4858.441
1183.593, 4846.847
1184.075, 4860.592
1184.557, 4829.063
1185.039, 4837.263
1185.521, 4862.604
1186.003, 4852.124
1186.486, 4807.422
1186.968, 4799.705
1187.450, 4816.120
1187.932, 4841.643
1188.414, 4847.898
1188.896, 4840.128
1189.378, 4830.150
1189.860, 4818.991
1190.343, 4809.621
1190.825, 4801.397
1191.307, 4796.452
1191.789, 4799.386
1192.271, 4806.429
1192.753, 4807.784
1193.235, 4803.718
1193.717, 4798.126
1194.199, 4786.639
1194.682, 4781.581
1195.164, 4783.432
1195.646, 4795.253
1196.128, 4835.061
1196.610, 4888.283
1197.092, 4906.333
1197.574, 4878.507
1198.056, 4850.149
1198.538, 4834.791
1199.021, 4831.581
1199.503, 4843.600
1199.985, 4865.381
1200.467, 4879.289
1200.949, 4886.013
1201.431, 4887.250
1201.913, 4879.922
1202.395, 4875.551
1202.878, 4891.065
1203.360, 4900.803
1203.842, 4877.929
1204.324, 4826.886
1204.806, 4818.409
1205.288, 4848.256
1205.770, 4879.634
1206.252, 4894.332
1206.734, 4902.504
1207.217, 4906.726
1207.699, 4908.135
1208.181, 4907.113
1208.663, 4903.761
1209.145, 4902.447
1209.627, 4903.555
1210.109, 4903.316
1210.591, 4897.773
1211.073, 4891.150
1211.556, 4884.006
1212.038, 4878.088
1212.520, 4881.606
1213.002, 4894.114
1213.484, 4897.347
1213.966, 4884.486
1214.448, 4873.073
1214.930, 4883.477
1215.413, 4896.249
1215.895, 4892.232
1216.377, 4872.828
1216.859, 4865.566
1217.341, 4870.534
1217.823, 4876.892
1218.305, 4881.140
1218.787, 4882.968
1219.270, 4880.050
1219.752, 4875.721
1220.234, 4873.845
1220.716, 4874.251
1221.198, 4880.109
1221.680, 4891.815
1222.162, 4901.035
1222.644, 4902.839
1223.126, 4878.765
1223.609, 4898.539
1224.091, 4907.078
1224.573, 4904.972
1225.055, 4860.343
1225.537, 4870.625
1226.019, 4858.900
1226.501, 4846.274
1226.983, 4864.283
1227.465, 4825.841
1227.948, 4843.352
1228.430, 4838.534
1228.912, 4843.942
1229.394, 4827.208
1229.876, 4817.313
1230.358, 4829.566
1230.840, 4829.557
1231.322, 4810.274
1231.805, 4816.319
1232.287, 4777.103
1232.769, 4777.614
1233.251, 4795.268
1233.733, 4780.191
1234.215, 4775.116
1234.697, 4744.887
1235.179, 4716.002
1235.661, 4717.795
1236.144, 4736.771
1236.626, 4756.921
1237.108, 4780.965
1237.590, 4785.212
1238.072, 4768.396
1238.554, 4745.371
1239.036, 4721.934
1239.518, 4700.444
1240.000, 4679.140
1240.483, 4662.556
1240.965, 4662.384
1241.447, 4686.675
1241.929, 4684.988
1242.411, 4651.391
1242.893, 4613.808
1243.375, 4590.901
1243.857, 4580.029
1244.339, 4581.175
1244.822, 4593.146
1245.304, 4612.689
1245.786, 4643.470
1246.268, 4651.367
1246.750, 4626.322
1247.232, 4595.731
1247.714, 4586.687
1248.196, 4583.755
1248.679, 4569.788
1249.161, 4545.983
1249.643, 4538.741
1250.125, 4549.178
1250.607, 4559.849
1251.089, 4564.709
1251.571, 4568.313
1252.053, 4581.407
1252.536, 4591.179
1253.018, 4581.322
1253.500, 4550.933
1253.982, 4523.517
1254.464, 4499.004
1254.946, 4477.696
1255.428, 4449.764
1255.910, 4437.675
1256.392, 4487.222
1256.875, 4546.669
1257.357, 4540.248
1257.839, 4452.973
1258.321, 4412.357
1258.803, 4420.684
1259.285, 4437.973
1259.767, 4444.060
1260.249, 4443.761
1260.731, 4443.324
1261.214, 4436.697
1261.696, 4408.419
1262.178, 4358.086
1262.660, 4327.347
1263.142, 4320.211
1263.624, 4321.096
1264.106, 4326.690
1264.588, 4328.738
1265.071, 4318.835
1265.553, 4302.968
1266.035, 4294.786
1266.517, 4293.574
1266.999, 4290.152
1267.481, 4281.446
1267.963, 4281.326
1268.445, 4314.185
1268.927, 4342.201
1269.410, 4342.313
1269.892, 4321.462
1270.374, 4299.985
1270.856, 4280.007
1271.338, 4275.508
1271.820, 4299.075
1272.302, 4311.412
1272.784, 4276.692
1273.266, 4240.494
1273.749, 4226.984
1274.231, 4233.829
1274.713, 4262.130
1275.195, 4302.486
1275.677, 4315.199
1276.159, 4258.143
1276.641, 4219.801
1277.123, 4238.252
1277.606, 4262.314
1278.088, 4250.281
1278.570, 4212.685
1279.052, 4191.670
1279.534, 4184.549
1280.016, 4180.893
1280.498, 4174.871
1280.980, 4174.757
1281.463, 4183.402
1281.945, 4194.499
1282.427, 4205.724
1282.909, 4213.133
1283.391, 4204.103
1283.873, 4180.869
1284.355, 4159.423
1284.837, 4143.948
1285.319, 4132.181
1285.802, 4125.910
1286.284, 4118.175
1286.766, 4086.832
1287.248, 4055.228
1287.730, 4072.479
1288.212, 4138.267
1288.694, 4159.177
1289.176, 4107.401
1289.658, 4069.878
1290.141, 4068.939
1290.623, 4082.448
1291.105, 4083.203
1291.587, 4080.881
1292.069, 4092.572
1292.551, 4121.775
1293.033, 4118.981
1293.515, 4077.317
1293.998, 4042.529
1294.480, 4030.614
1294.962, 4028.209
1295.444, 4023.754
1295.926, 4020.022
1296.408, 4020.227
1296.890, 4024.277
1297.372, 4035.586
1297.854, 4054.554
1298.337, 4062.461
1298.819, 4050.520
1299.301, 4018.682
##END=



