##NAMES=Iriginite
##RRUFFID=R060269
##IDEAL CHEMISTRY=(U^6+^O_2_)Mo^6+^_2_O_7_&#183;3H_2_O
##LOCALITY=Hervey's Range Deposit, 55 kilometers west of Townsville, Queensland, Australia
##OWNER=RRUFF
##SOURCE=Michael Scott
##DESCRIPTION=Tan colored radial group of acicular prismatic crystals
##STATUS=The identification of this mineral is confirmed by single-crystal X-ray diffraction and chemical analysis.
##URL=rruff.info/R060269
##MEASURED CHEMISTRY=(UO_2_)Mo^6+^_2_O_7_Â·3H_2_O
90.01007, 0.0000000E+00
90.49219, 14.35322
90.97430, 13.80942
91.45642, 13.61652
91.93854, 14.23880
92.42065, 15.07547
92.90277, 15.12443
93.38489, 14.20125
93.86700, 13.05253
94.34912, 12.61396
94.83124, 12.78802
95.31335, 13.03084
95.79547, 12.88247
96.27759, 12.49057
96.75970, 12.51470
97.24182, 13.16774
97.72394, 14.12650
98.20605, 14.70527
98.68817, 14.87950
99.17029, 14.88031
99.65240, 14.91733
100.1345, 15.00562
100.6166, 14.83987
101.0988, 14.12917
101.5809, 13.03393
102.0630, 13.02249
102.5451, 14.47345
103.0272, 16.33396
103.5093, 17.50605
103.9915, 17.89523
104.4736, 17.79575
104.9557, 17.13264
105.4378, 15.73105
105.9199, 14.75862
106.4020, 14.33871
106.8842, 14.28176
107.3663, 14.26214
107.8484, 14.31842
108.3305, 14.36775
108.8126, 14.38569
109.2947, 14.39418
109.7769, 14.33410
110.2590, 14.11526
110.7411, 13.81148
111.2232, 13.65801
111.7053, 13.86931
112.1874, 14.08355
112.6696, 14.13673
113.1517, 13.49028
113.6338, 13.24506
114.1159, 13.89532
114.5980, 15.26933
115.0801, 16.15319
115.5623, 15.78148
116.0444, 15.03583
116.5265, 14.59953
117.0086, 14.87554
117.4907, 15.28877
117.9728, 15.74381
118.4550, 16.24204
118.9371, 16.44765
119.4192, 15.94450
119.9013, 15.12087
120.3834, 14.47935
120.8655, 14.25033
121.3477, 14.25905
121.8298, 14.36070
122.3119, 14.51976
122.7940, 14.90020
123.2761, 16.07132
123.7582, 17.59161
124.2404, 18.47794
124.7225, 17.25414
125.2046, 15.43157
125.6867, 15.05949
126.1688, 16.81405
126.6509, 19.11904
127.1331, 20.09668
127.6152, 20.01024
128.0973, 20.16844
128.5794, 21.95882
129.0615, 24.67340
129.5436, 26.52321
130.0258, 26.75350
130.5079, 26.34529
130.9900, 26.94740
131.4721, 28.55418
131.9542, 30.83489
132.4363, 33.68188
132.9185, 37.03913
133.4006, 40.47611
133.8827, 43.66147
134.3648, 46.85096
134.8469, 51.29823
135.3290, 57.12452
135.8112, 63.70584
136.2933, 70.14476
136.7754, 76.41207
137.2575, 83.40683
137.7396, 91.48055
138.2217, 100.4874
138.7039, 110.4150
139.1860, 121.4888
139.6681, 133.1580
140.1502, 144.8657
140.6323, 156.4924
141.1144, 168.1727
141.5966, 180.0497
142.0787, 192.1690
142.5608, 204.1023
143.0429, 216.1590
143.5250, 227.8361
144.0071, 237.5627
144.4893, 243.7289
144.9714, 250.4248
145.4535, 259.4680
145.9356, 272.1000
146.4177, 284.7449
146.8998, 296.8532
147.3820, 308.8925
147.8641, 323.4811
148.3462, 342.2148
148.8283, 361.8092
149.3104, 380.6774
149.7925, 396.5762
150.2747, 414.5703
150.7568, 435.8055
151.2389, 459.9194
151.7210, 482.5104
152.2031, 502.0460
152.6852, 520.7670
153.1674, 540.2835
153.6495, 563.5558
154.1316, 584.4069
154.6137, 601.0264
155.0958, 613.3191
155.5779, 626.2508
156.0601, 641.6931
156.5422, 657.4697
157.0243, 671.5361
157.5064, 681.1443
157.9885, 691.2342
158.4706, 703.2872
158.9528, 717.5434
159.4349, 732.3392
159.9170, 747.6796
160.3991, 763.2077
160.8812, 778.5107
161.3633, 791.6250
161.8455, 805.9664
162.3276, 823.5441
162.8097, 844.8803
163.2918, 866.5784
163.7739, 885.9907
164.2560, 903.9223
164.7382, 917.4328
165.2203, 934.8641
165.7024, 953.0001
166.1845, 969.2930
166.6666, 984.2081
167.1487, 995.1448
167.6309, 999.1588
168.1130, 998.3645
168.5951, 997.1234
169.0772, 999.9260
169.5593, 1001.940
170.0414, 998.7991
170.5236, 988.8022
171.0057, 975.9597
171.4878, 962.0489
171.9699, 947.3019
172.4520, 932.7476
172.9341, 918.6989
173.4163, 905.0806
173.8984, 891.8041
174.3805, 878.7043
174.8626, 866.0480
175.3447, 853.6927
175.8268, 841.6512
176.3090, 830.0071
176.7911, 818.0517
177.2732, 806.7183
177.7553, 797.6293
178.2374, 791.2231
178.7195, 787.1035
179.2017, 785.3366
179.6838, 785.7294
180.1659, 786.7267
180.6480, 787.4378
181.1301, 787.8483
181.6122, 787.8363
182.0944, 786.7267
182.5765, 785.6395
183.0586, 786.7504
183.5407, 790.0132
184.0228, 793.9039
184.5049, 796.9919
184.9871, 799.5438
185.4692, 802.4006
185.9513, 805.9518
186.4334, 809.9440
186.9155, 814.0002
187.3976, 818.1240
187.8798, 822.0728
188.3619, 825.2344
188.8440, 827.8281
189.3261, 831.0953
189.8082, 835.9418
190.2903, 841.7969
190.7725, 846.2741
191.2546, 849.1356
191.7367, 852.1776
192.2188, 857.9118
192.7009, 866.2407
193.1830, 874.4394
193.6652, 881.2432
194.1473, 887.0021
194.6294, 893.5820
195.1115, 901.0959
195.5936, 909.0421
196.0757, 916.8152
196.5579, 924.4117
197.0400, 932.0010
197.5221, 940.3017
198.0042, 949.1002
198.4863, 955.1485
198.9684, 957.9879
199.4506, 959.0436
199.9327, 960.8978
200.4148, 963.9125
200.8969, 964.6680
201.3790, 961.4193
201.8611, 954.0681
202.3433, 945.5243
202.8254, 935.3815
203.3075, 924.6224
203.7896, 915.1321
204.2717, 907.0416
204.7538, 899.1933
205.2360, 891.1934
205.7181, 883.0558
206.2002, 874.4407
206.6823, 865.0396
207.1644, 855.5251
207.6465, 846.8385
208.1287, 838.7903
208.6108, 832.5035
209.0929, 829.1408
209.5750, 829.5346
210.0571, 828.3312
210.5392, 825.2440
211.0214, 820.8367
211.5035, 815.9163
211.9856, 810.0517
212.4677, 805.0319
212.9498, 801.7816
213.4319, 800.6645
213.9140, 799.8582
214.3962, 799.1663
214.8783, 798.8816
215.3604, 799.8834
215.8425, 802.7620
216.3246, 805.5773
216.8067, 807.3663
217.2889, 807.7051
217.7710, 808.4356
218.2531, 809.9180
218.7352, 811.6085
219.2173, 811.9769
219.6994, 809.9948
220.1816, 808.6346
220.6637, 809.5284
221.1458, 813.9173
221.6279, 816.9255
222.1100, 818.0001
222.5921, 817.8796
223.0743, 818.3810
223.5564, 819.2720
224.0385, 821.2370
224.5206, 824.7343
225.0027, 830.5124
225.4848, 835.9327
225.9670, 840.6638
226.4491, 845.0745
226.9312, 850.1868
227.4133, 855.9532
227.8954, 862.4554
228.3775, 869.5703
228.8597, 877.3610
229.3418, 885.8328
229.8239, 894.9011
230.3060, 904.6598
230.7881, 915.0781
231.2702, 926.1544
231.7524, 938.0599
232.2345, 950.9025
232.7166, 965.7545
233.1987, 979.4332
233.6808, 991.5361
234.1629, 1002.504
234.6451, 1013.583
235.1272, 1024.098
235.6093, 1035.651
236.0914, 1049.496
236.5735, 1068.386
237.0556, 1083.207
237.5378, 1092.532
238.0199, 1098.265
238.5020, 1105.131
238.9841, 1113.812
239.4662, 1122.780
239.9483, 1131.757
240.4305, 1141.891
240.9126, 1148.974
241.3947, 1151.712
241.8768, 1151.785
242.3589, 1153.401
242.8410, 1157.466
243.3232, 1161.623
243.8053, 1164.892
244.2874, 1167.122
244.7695, 1168.782
245.2516, 1169.828
245.7337, 1170.330
246.2159, 1170.696
246.6980, 1172.168
247.1801, 1171.561
247.6622, 1167.415
248.1443, 1158.589
248.6264, 1149.424
249.1086, 1140.101
249.5907, 1130.316
250.0728, 1119.341
250.5549, 1106.649
251.0370, 1093.640
251.5191, 1080.636
252.0013, 1067.492
252.4834, 1055.186
252.9655, 1044.072
253.4476, 1033.666
253.9297, 1023.038
254.4118, 1011.750
254.8940, 1001.243
255.3761, 992.2990
255.8582, 985.4965
256.3403, 977.7673
256.8224, 968.9332
257.3046, 959.3193
257.7867, 949.4885
258.2688, 938.9050
258.7509, 929.1090
259.2330, 920.9065
259.7151, 914.5973
260.1973, 907.9338
260.6794, 901.1594
261.1615, 893.9608
261.6436, 885.9638
262.1257, 876.8129
262.6078, 867.5801
263.0900, 858.6998
263.5721, 850.1406
264.0542, 841.3375
264.5363, 831.8650
265.0184, 822.5322
265.5005, 814.0684
265.9827, 806.6579
266.4648, 799.7327
266.9469, 793.0479
267.4290, 786.5983
267.9111, 781.5321
268.3932, 778.4044
268.8754, 775.8489
269.3575, 772.4129
269.8396, 767.9949
270.3217, 762.8663
270.8038, 756.6132
271.2859, 749.3381
271.7681, 744.1845
272.2502, 741.5498
272.7323, 740.2161
273.2144, 739.2365
273.6965, 738.7284
274.1786, 737.8734
274.6608, 736.2224
275.1429, 734.0099
275.6250, 732.9703
276.1071, 733.3145
276.5892, 734.2292
277.0714, 735.0334
277.5535, 735.7219
278.0356, 736.3697
278.5177, 736.8222
278.9998, 737.2917
279.4819, 738.7089
279.9641, 741.2006
280.4462, 744.2014
280.9283, 747.5090
281.4104, 751.1255
281.8925, 754.1451
282.3746, 756.0491
282.8568, 757.5583
283.3389, 761.1647
283.8210, 767.1613
284.3031, 772.9530
284.7852, 775.8743
285.2673, 776.1599
285.7495, 778.9756
286.2316, 785.6342
286.7137, 794.1017
287.1958, 799.8682
287.6779, 802.8344
288.1600, 805.8343
288.6422, 810.8154
289.1243, 817.5467
289.6064, 824.1918
290.0885, 830.9058
290.5706, 836.9536
291.0527, 840.6693
291.5349, 842.2087
292.0170, 843.7750
292.4991, 846.2117
292.9812, 849.6104
293.4633, 854.6115
293.9454, 861.6180
294.4276, 868.8279
294.9097, 873.2493
295.3918, 875.4413
295.8739, 878.2509
296.3560, 884.2015
296.8381, 891.6259
297.3203, 896.0037
297.8024, 896.9638
298.2845, 897.2980
298.7666, 900.1257
299.2487, 904.7488
299.7308, 909.1276
300.2130, 912.8036
300.6951, 915.5785
301.1772, 917.0120
301.6593, 917.1131
302.1414, 916.5135
302.6235, 915.7239
303.1057, 914.6426
303.5878, 913.0457
304.0699, 910.4185
304.5520, 907.5878
305.0341, 905.8737
305.5162, 905.1075
305.9984, 903.7426
306.4805, 900.1956
306.9626, 895.4835
307.4447, 891.1912
307.9268, 888.3419
308.4089, 885.1405
308.8911, 879.9929
309.3732, 873.1036
309.8553, 865.3390
310.3374, 855.8660
310.8195, 846.3591
311.3016, 838.8605
311.7838, 834.6887
312.2659, 830.6845
312.7480, 824.8531
313.2301, 817.6896
313.7122, 810.3004
314.1943, 802.8977
314.6765, 795.5947
315.1586, 788.3779
315.6407, 781.1756
316.1228, 774.4033
316.6049, 768.6501
317.0870, 763.4381
317.5692, 758.0667
318.0513, 751.3461
318.5334, 745.0895
319.0155, 740.3793
319.4976, 737.4408
319.9797, 734.6071
320.4619, 730.8176
320.9440, 726.9861
321.4261, 724.1818
321.9082, 724.3965
322.3903, 723.9539
322.8724, 721.0204
323.3546, 715.4944
323.8367, 711.4412
324.3188, 710.4502
324.8009, 710.7833
325.2830, 711.1226
325.7651, 711.6265
326.2473, 711.8023
326.7294, 711.3609
327.2115, 710.4210
327.6936, 709.8487
328.1757, 710.3215
328.6578, 710.7328
329.1400, 710.5092
329.6221, 708.2064
330.1042, 707.2282
330.5863, 708.0965
331.0684, 710.3137
331.5505, 712.4366
332.0327, 714.6682
332.5148, 716.5624
332.9969, 717.9061
333.4790, 718.4708
333.9611, 718.9875
334.4432, 719.3124
334.9254, 719.6661
335.4075, 720.4206
335.8896, 721.6490
336.3717, 723.1837
336.8538, 725.2941
337.3359, 728.2072
337.8180, 729.3121
338.3001, 728.0858
338.7823, 725.8736
339.2644, 724.1279
339.7465, 722.8837
340.2286, 721.9874
340.7107, 721.7564
341.1928, 721.9132
341.6750, 720.2264
342.1571, 716.1866
342.6392, 712.0943
343.1213, 710.1863
343.6034, 710.5156
344.0855, 710.0558
344.5677, 708.2227
345.0498, 705.4026
345.5319, 702.2455
346.0140, 698.7188
346.4961, 695.7820
346.9782, 694.6340
347.4604, 694.7909
347.9425, 693.7264
348.4246, 690.9163
348.9067, 687.7189
349.3888, 685.8645
349.8709, 685.2887
350.3531, 685.6055
350.8352, 687.4385
351.3173, 689.8563
351.7994, 690.9153
352.2815, 690.4693
352.7636, 689.6075
353.2458, 688.7774
353.7279, 688.3121
354.2100, 688.9730
354.6921, 692.5338
355.1742, 696.3277
355.6563, 696.6129
356.1385, 693.7859
356.6206, 692.0432
357.1027, 695.7545
357.5848, 701.6066
358.0669, 705.6270
358.5490, 705.6954
359.0312, 705.2700
359.5133, 706.5787
359.9954, 709.1878
360.4775, 711.7647
360.9596, 713.8313
361.4417, 715.5311
361.9239, 716.8254
362.4060, 717.3885
362.8881, 718.4836
363.3702, 721.5461
363.8523, 725.2557
364.3344, 727.5898
364.8166, 726.2115
365.2987, 724.9462
365.7808, 725.6324
366.2629, 728.6964
366.7450, 730.8099
367.2271, 730.5523
367.7093, 729.5787
368.1914, 729.3443
368.6735, 730.7281
369.1556, 732.0488
369.6377, 733.3195
370.1198, 734.4767
370.6020, 734.7134
371.0841, 732.6591
371.5662, 730.9566
372.0483, 731.1672
372.5304, 734.9646
373.0125, 737.4930
373.4947, 738.2228
373.9768, 737.7582
374.4589, 737.3621
374.9410, 736.6698
375.4231, 736.8344
375.9052, 738.8965
376.3874, 743.4344
376.8695, 745.0326
377.3516, 742.8539
377.8337, 739.1744
378.3158, 736.8972
378.7979, 736.2610
379.2801, 735.1966
379.7622, 733.1438
380.2443, 730.2197
380.7264, 726.6236
381.2085, 722.2629
381.6906, 717.9797
382.1728, 714.7804
382.6549, 712.4084
383.1370, 709.3851
383.6191, 705.2784
384.1012, 700.6748
384.5833, 696.3285
385.0655, 692.2410
385.5476, 688.4532
386.0297, 684.8356
386.5118, 681.5143
386.9939, 678.5901
387.4760, 676.0696
387.9582, 674.1116
388.4403, 673.3541
388.9224, 673.2415
389.4045, 672.6287
389.8866, 670.0367
390.3687, 667.4269
390.8509, 666.4308
391.3330, 667.0032
391.8151, 668.4999
392.2972, 672.1201
392.7793, 675.7455
393.2614, 677.1857
393.7436, 674.1144
394.2257, 671.2692
394.7078, 670.7272
395.1899, 671.9498
395.6720, 673.5222
396.1541, 675.6518
396.6363, 677.5182
397.1184, 678.4916
397.6005, 677.9118
398.0826, 678.3474
398.5647, 681.5137
399.0468, 685.4519
399.5290, 687.7869
400.0111, 686.1624
400.4932, 685.2929
400.9753, 685.9206
401.4574, 688.0530
401.9395, 691.1962
402.4217, 696.4359
402.9038, 701.5593
403.3859, 704.9395
403.8680, 705.5571
404.3501, 706.8868
404.8322, 709.4069
405.3144, 712.6517
405.7965, 715.2830
406.2786, 717.1511
406.7607, 718.9498
407.2428, 721.0480
407.7249, 723.4716
408.2071, 725.6363
408.6892, 727.6016
409.1713, 729.1698
409.6534, 729.5729
410.1355, 728.9213
410.6176, 729.5515
411.0998, 732.8917
411.5819, 737.4847
412.0640, 739.6578
412.5461, 739.4642
413.0282, 738.7095
413.5103, 738.2969
413.9925, 738.3717
414.4746, 739.5873
414.9567, 742.5699
415.4388, 745.1639
415.9209, 744.5615
416.4030, 741.7838
416.8852, 739.3479
417.3673, 738.8834
417.8494, 739.0775
418.3315, 738.9803
418.8136, 738.5369
419.2957, 737.6921
419.7779, 736.1625
420.2600, 734.3254
420.7421, 732.5848
421.2242, 731.0398
421.7063, 729.6170
422.1884, 728.7354
422.6706, 728.0698
423.1527, 726.3445
423.6348, 721.8570
424.1169, 717.4105
424.5990, 714.4042
425.0811, 713.9869
425.5633, 712.6728
426.0454, 709.9163
426.5275, 706.4039
427.0096, 702.9696
427.4917, 700.0000
427.9738, 696.5240
428.4560, 692.0486
428.9381, 686.6201
429.4202, 682.2687
429.9023, 679.3587
430.3844, 676.9295
430.8665, 674.1923
431.3487, 670.9381
431.8308, 668.7107
432.3129, 667.8553
432.7950, 667.7945
433.2771, 667.2657
433.7592, 666.2335
434.2414, 665.6127
434.7235, 665.9705
435.2056, 667.0980
435.6877, 668.1234
436.1698, 669.0134
436.6519, 670.0999
437.1341, 671.9666
437.6162, 674.2834
438.0983, 676.2552
438.5804, 677.7019
439.0625, 678.6668
439.5446, 678.5345
440.0268, 677.7741
440.5089, 678.0871
440.9910, 680.8356
441.4731, 684.8886
441.9552, 689.7090
442.4373, 695.4822
442.9195, 700.3152
443.4016, 702.4363
443.8837, 703.3331
444.3658, 704.8131
444.8479, 707.6418
445.3300, 710.9043
445.8122, 714.2087
446.2943, 717.6016
446.7764, 721.7900
447.2585, 727.2745
447.7406, 733.2648
448.2227, 739.4797
448.7049, 746.3283
449.1870, 752.5046
449.6691, 758.0352
450.1512, 762.8513
450.6333, 766.5778
451.1154, 768.5564
451.5976, 770.9365
452.0797, 774.3983
452.5618, 778.8556
453.0439, 782.9342
453.5260, 786.5544
454.0081, 789.8049
454.4903, 792.6010
454.9724, 794.9285
455.4545, 797.4637
455.9366, 800.3193
456.4187, 803.3014
456.9008, 805.7889
457.3830, 807.9334
457.8651, 810.6055
458.3472, 815.0851
458.8293, 820.1373
459.3114, 823.4920
459.7935, 825.1158
460.2757, 826.1759
460.7578, 828.0137
461.2399, 829.7209
461.7220, 829.8591
462.2041, 827.1406
462.6862, 824.3328
463.1684, 823.8709
463.6505, 824.6982
464.1326, 824.3820
464.6147, 821.1037
465.0968, 817.1107
465.5789, 813.8153
466.0611, 811.5491
466.5432, 808.1031
467.0253, 801.5022
467.5074, 794.3767
467.9895, 788.9574
468.4716, 786.6489
468.9538, 784.3091
469.4359, 781.6198
469.9180, 778.7927
470.4001, 776.3073
470.8822, 773.4338
471.3643, 772.2955
471.8465, 774.2582
472.3286, 779.7299
472.8107, 784.0626
473.2928, 786.9905
473.7749, 789.3560
474.2570, 791.8066
474.7392, 794.3517
475.2213, 797.4810
475.7034, 801.2407
476.1855, 805.7204
476.6676, 811.0817
477.1497, 817.3484
477.6319, 824.4579
478.1140, 833.7415
478.5961, 843.4703
479.0782, 850.1667
479.5603, 853.3858
480.0424, 856.5688
480.5246, 862.1512
481.0067, 869.5565
481.4888, 878.0406
481.9709, 888.9276
482.4530, 899.1033
482.9352, 906.4007
483.4173, 911.5842
483.8994, 917.0752
484.3815, 924.9550
484.8636, 932.3046
485.3457, 937.6939
485.8279, 940.7760
486.3100, 942.9530
486.7921, 945.5259
487.2742, 946.5715
487.7563, 944.1895
488.2384, 936.0770
488.7206, 928.5561
489.2027, 923.1039
489.6848, 918.6438
490.1669, 911.3255
490.6490, 900.8643
491.1311, 888.6002
491.6133, 874.2697
492.0954, 857.8922
492.5775, 845.3904
493.0596, 837.6512
493.5417, 830.3268
494.0238, 818.1370
494.5060, 802.0182
494.9881, 786.3649
495.4702, 772.2574
495.9523, 759.3599
496.4344, 747.6797
496.9165, 737.0740
497.3987, 727.0541
497.8808, 716.6869
498.3629, 707.0486
498.8450, 699.4481
499.3271, 693.9766
499.8092, 688.8929
500.2914, 683.1627
500.7735, 677.3776
501.2556, 671.9473
501.7377, 667.5128
502.2198, 662.8740
502.7019, 657.2703
503.1841, 651.2203
503.6662, 646.0989
504.1483, 641.9539
504.6304, 638.7532
505.1125, 636.8627
505.5946, 636.4579
506.0768, 635.0214
506.5589, 631.9335
507.0410, 628.7651
507.5231, 627.1304
508.0052, 627.4662
508.4873, 626.3760
508.9695, 623.1451
509.4516, 618.9170
509.9337, 615.6898
510.4158, 613.4403
510.8979, 611.7737
511.3800, 610.7631
511.8622, 610.1188
512.3443, 609.2195
512.8264, 608.0726
513.3085, 606.7403
513.7906, 604.9260
514.2728, 603.0833
514.7549, 601.9485
515.2370, 601.9563
515.7191, 601.7751
516.2012, 600.1896
516.6833, 597.9639
517.1655, 596.2445
517.6476, 596.0780
518.1297, 595.8167
518.6118, 594.6150
519.0939, 592.5984
519.5760, 591.2841
520.0582, 591.4951
520.5403, 591.9160
521.0224, 592.1401
521.5045, 592.5383
521.9866, 591.4489
522.4688, 587.7891
522.9509, 583.8254
523.4330, 582.7206
523.9151, 585.1525
524.3972, 586.5680
524.8793, 585.5616
525.3615, 583.2870
525.8436, 583.3065
526.3257, 585.5710
526.8078, 586.9159
527.2899, 584.5153
527.7720, 580.0331
528.2542, 577.2172
528.7363, 576.2567
529.2184, 576.2615
529.7005, 577.0088
530.1826, 578.1092
530.6647, 579.1299
531.1469, 580.4296
531.6290, 580.8064
532.1111, 578.5636
532.5932, 574.9724
533.0753, 572.6331
533.5574, 573.9552
534.0396, 575.0338
534.5217, 573.9998
535.0038, 570.6166
535.4859, 568.8502
535.9680, 569.9089
536.4501, 571.5001
536.9323, 572.4065
537.4144, 572.6633
537.8965, 571.9984
538.3786, 569.9694
538.8607, 567.6140
539.3428, 566.7058
539.8250, 567.3620
540.3071, 567.7919
540.7892, 567.3710
541.2713, 566.4967
541.7534, 566.1878
542.2355, 566.3998
542.7177, 566.6289
543.1998, 566.4475
543.6819, 566.1226
544.1640, 566.1231
544.6461, 566.4994
545.1282, 566.8454
545.6104, 566.8511
546.0925, 566.6735
546.5746, 566.4904
547.0567, 566.4068
547.5388, 566.2385
548.0209, 565.8824
548.5031, 565.3982
548.9852, 564.9122
549.4673, 564.0385
549.9494, 563.6029
550.4315, 563.9667
550.9136, 565.1254
551.3958, 566.0734
551.8779, 567.1205
552.3600, 567.4368
552.8421, 565.7761
553.3242, 561.6325
553.8063, 561.0075
554.2885, 565.1597
554.7706, 570.0634
555.2527, 569.4294
555.7348, 564.2121
556.2169, 560.3526
556.6990, 559.7635
557.1812, 561.2742
557.6633, 564.7064
558.1454, 569.2306
558.6275, 571.7294
559.1096, 567.8426
559.5917, 562.9477
560.0739, 561.9462
560.5560, 565.2252
561.0381, 568.1149
561.5202, 568.2824
562.0023, 567.5706
562.4844, 567.3519
562.9666, 568.5737
563.4487, 569.1263
563.9308, 568.2431
564.4129, 566.9132
564.8950, 566.6923
565.3771, 568.0133
565.8593, 569.4510
566.3414, 570.6537
566.8235, 571.7227
567.3056, 573.3683
567.7877, 575.7047
568.2698, 577.6884
568.7520, 578.7165
569.2341, 578.8877
569.7162, 578.5715
570.1983, 577.7783
570.6804, 576.5938
571.1625, 574.2029
571.6447, 571.7154
572.1268, 571.2313
572.6089, 574.3692
573.0910, 577.1716
573.5731, 576.0315
574.0552, 573.0000
574.5374, 571.6374
575.0195, 574.9727
575.5016, 578.2871
575.9837, 580.0854
576.4658, 580.4033
576.9479, 580.3519
577.4301, 579.5229
577.9122, 578.8637
578.3943, 578.8322
578.8764, 579.5656
579.3585, 580.1210
579.8406, 580.3729
580.3228, 580.7234
580.8049, 581.6303
581.2870, 583.0612
581.7691, 584.6525
582.2512, 586.4272
582.7333, 588.0911
583.2155, 589.0984
583.6975, 589.5909
584.1796, 590.0798
584.6617, 591.0693
585.1439, 591.9379
585.6260, 592.0540
586.1081, 591.5107
586.5902, 590.8018
587.0723, 589.3839
587.5544, 588.4735
588.0366, 588.9688
588.5187, 591.3703
589.0008, 593.4004
589.4829, 594.7382
589.9650, 595.6481
590.4471, 596.2382
590.9293, 596.1428
591.4114, 596.7422
591.8935, 598.6603
592.3756, 600.7554
592.8577, 600.4084
593.3398, 597.4158
593.8220, 595.5943
594.3041, 596.6146
594.7862, 599.2624
595.2683, 600.7432
595.7504, 601.1830
596.2325, 601.6002
596.7147, 603.0773
597.1968, 604.6384
597.6789, 604.8918
598.1610, 603.7176
598.6431, 602.8675
599.1252, 603.5027
599.6074, 604.7824
600.0895, 605.9957
600.5716, 606.6593
601.0537, 607.8898
601.5358, 610.7192
602.0179, 613.8572
602.5001, 615.5705
602.9822, 615.1694
603.4643, 614.6686
603.9464, 614.3426
604.4285, 614.1614
604.9106, 613.8427
605.3928, 613.2855
605.8749, 613.4682
606.3570, 615.4551
606.8391, 618.5086
607.3212, 620.0032
607.8033, 619.9938
608.2855, 619.9965
608.7676, 621.4779
609.2497, 623.5276
609.7318, 624.8239
610.2139, 624.9818
610.6960, 625.3951
611.1782, 627.7368
611.6603, 630.3306
612.1424, 631.4163
612.6245, 627.8929
613.1066, 626.0978
613.5887, 627.8948
614.0709, 631.7302
614.5530, 634.5463
615.0351, 635.6588
615.5172, 637.1539
615.9993, 639.8519
616.4814, 643.4003
616.9636, 645.9548
617.4457, 647.4822
617.9278, 648.3943
618.4099, 648.2289
618.8920, 647.6942
619.3741, 649.1435
619.8563, 652.7022
620.3384, 656.1690
620.8205, 657.4969
621.3026, 657.8035
621.7847, 658.3347
622.2668, 659.2097
622.7490, 660.7382
623.2311, 663.7411
623.7132, 667.2399
624.1953, 669.9845
624.6774, 670.0409
625.1595, 671.5069
625.6417, 675.6912
626.1238, 681.4794
626.6059, 685.6916
627.0880, 688.1271
627.5701, 689.6078
628.0522, 689.8405
628.5344, 689.3733
629.0165, 691.4109
629.4986, 696.0125
629.9807, 700.6017
630.4628, 702.3829
630.9449, 703.1418
631.4271, 706.9356
631.9092, 714.1879
632.3913, 720.8654
632.8734, 723.1827
633.3555, 723.8290
633.8376, 725.6962
634.3198, 730.1824
634.8019, 734.3486
635.2840, 736.8947
635.7661, 738.8455
636.2482, 741.7082
636.7303, 746.1050
637.2125, 750.3616
637.6946, 753.9656
638.1767, 757.4179
638.6588, 762.2843
639.1409, 768.7794
639.6230, 775.5458
640.1052, 782.3431
640.5873, 789.0091
641.0694, 794.6732
641.5515, 799.4827
642.0336, 804.4335
642.5157, 810.1334
642.9979, 816.4333
643.4800, 823.2537
643.9621, 830.6824
644.4442, 837.8649
644.9263, 843.0742
645.4084, 848.7551
645.8906, 856.9860
646.3727, 870.0341
646.8548, 882.0386
647.3369, 892.1228
647.8190, 901.3885
648.3011, 910.9832
648.7833, 921.1946
649.2654, 930.8698
649.7475, 939.7077
650.2296, 948.2011
650.7117, 957.5028
651.1938, 967.6725
651.6760, 978.5301
652.1581, 990.6200
652.6402, 1003.029
653.1223, 1014.403
653.6044, 1024.815
654.0865, 1035.263
654.5687, 1045.609
655.0508, 1056.541
655.5329, 1068.913
656.0150, 1082.777
656.4971, 1096.441
656.9792, 1109.462
657.4614, 1122.231
657.9435, 1134.957
658.4256, 1147.687
658.9077, 1160.163
659.3898, 1172.308
659.8719, 1184.305
660.3541, 1196.583
660.8362, 1209.051
661.3183, 1220.486
661.8004, 1230.438
662.2825, 1239.558
662.7646, 1248.031
663.2468, 1256.300
663.7289, 1265.503
664.2110, 1276.786
664.6931, 1288.233
665.1752, 1299.394
665.6573, 1309.666
666.1395, 1317.865
666.6216, 1321.333
667.1037, 1325.053
667.5858, 1331.790
668.0679, 1340.781
668.5500, 1346.057
669.0322, 1346.572
669.5143, 1345.524
669.9964, 1344.438
670.4785, 1343.193
670.9606, 1340.059
671.4427, 1335.024
671.9249, 1327.843
672.4070, 1316.246
672.8891, 1302.649
673.3712, 1293.509
673.8533, 1289.876
674.3354, 1284.773
674.8176, 1272.010
675.2997, 1255.566
675.7818, 1239.619
676.2639, 1224.598
676.7460, 1210.735
677.2281, 1198.917
677.7103, 1188.202
678.1924, 1177.445
678.6745, 1166.061
679.1566, 1156.258
679.6387, 1148.666
680.1208, 1142.506
680.6030, 1135.441
681.0851, 1127.591
681.5672, 1121.581
682.0493, 1119.038
682.5314, 1118.318
683.0135, 1116.603
683.4957, 1114.219
683.9778, 1112.546
684.4599, 1113.159
684.9420, 1114.045
685.4241, 1113.872
685.9063, 1112.629
686.3884, 1111.008
686.8705, 1109.146
687.3526, 1107.002
687.8347, 1104.404
688.3168, 1101.200
688.7990, 1099.004
689.2811, 1098.410
689.7632, 1097.472
690.2453, 1094.935
690.7274, 1090.768
691.2095, 1084.543
691.6917, 1076.096
692.1738, 1066.761
692.6559, 1057.790
693.1380, 1049.120
693.6201, 1041.015
694.1022, 1034.259
694.5844, 1026.052
695.0665, 1013.571
695.5486, 999.1854
696.0307, 985.8797
696.5128, 974.6697
696.9949, 964.3693
697.4771, 955.7416
697.9592, 947.5426
698.4413, 937.1354
698.9234, 923.7255
699.4055, 911.4222
699.8876, 901.7330
700.3698, 893.4061
700.8519, 882.9581
701.3340, 870.7764
701.8161, 859.7059
702.2982, 852.7502
702.7803, 846.6630
703.2625, 837.1419
703.7446, 824.9432
704.2267, 814.2374
704.7088, 807.6436
705.1909, 802.1898
705.6730, 796.5928
706.1552, 790.7298
706.6373, 784.9013
707.1194, 778.8248
707.6015, 773.1623
708.0836, 768.6728
708.5657, 765.4980
709.0479, 760.1100
709.5300, 751.9987
710.0121, 744.7213
710.4942, 742.8326
710.9763, 744.0576
711.4584, 742.5857
711.9406, 737.3099
712.4227, 732.3083
712.9048, 731.7557
713.3869, 732.4279
713.8690, 730.8344
714.3511, 724.7720
714.8333, 719.0555
715.3154, 714.2247
715.7975, 710.4452
716.2796, 708.2823
716.7617, 709.0143
717.2438, 707.3351
717.7260, 701.6041
718.2081, 694.8461
718.6902, 693.2847
719.1723, 696.1827
719.6544, 697.7728
720.1365, 695.6520
720.6187, 692.3611
721.1008, 690.6711
721.5829, 690.1440
722.0650, 689.7180
722.5471, 689.5338
723.0292, 688.7346
723.5114, 686.2205
723.9935, 682.5988
724.4756, 680.5644
724.9577, 681.1684
725.4398, 681.8727
725.9219, 682.1396
726.4041, 681.9153
726.8862, 680.4247
727.3683, 677.4657
727.8504, 675.4606
728.3325, 676.5131
728.8146, 679.2361
729.2968, 681.0296
729.7789, 681.8605
730.2610, 681.5966
730.7431, 679.2609
731.2252, 676.4715
731.7073, 674.3985
732.1895, 673.1924
732.6716, 672.0868
733.1537, 670.6634
733.6358, 669.5597
734.1179, 669.1866
734.6000, 669.7267
735.0822, 669.9277
735.5643, 669.8022
736.0464, 669.2806
736.5285, 668.1082
737.0106, 666.4651
737.4927, 665.0023
737.9749, 663.7841
738.4570, 662.8061
738.9391, 662.1151
739.4212, 661.6672
739.9033, 661.4189
740.3854, 661.3690
740.8676, 661.5422
741.3497, 661.7791
741.8318, 662.3693
742.3139, 663.8212
742.7960, 667.3555
743.2781, 668.3513
743.7603, 665.6183
744.2424, 661.7372
744.7245, 660.8898
745.2066, 662.6232
745.6887, 662.9755
746.1708, 660.5557
746.6530, 657.6064
747.1351, 656.7001
747.6172, 657.0842
748.0993, 657.4642
748.5814, 657.5547
749.0635, 657.3398
749.5457, 656.3790
750.0278, 655.1821
750.5099, 654.9374
750.9920, 656.7213
751.4741, 657.4021
751.9562, 656.1402
752.4384, 653.6659
752.9205, 651.6860
753.4026, 650.1942
753.8847, 649.2620
754.3668, 649.3591
754.8489, 649.5482
755.3311, 648.2131
755.8132, 645.7975
756.2953, 643.6409
756.7774, 642.1070
757.2595, 641.2087
757.7416, 641.0137
758.2238, 641.4830
758.7059, 642.4335
759.1880, 644.6586
759.6701, 646.0081
760.1522, 645.5568
760.6343, 643.7202
761.1165, 642.5316
761.5986, 641.9911
762.0807, 642.2618
762.5628, 644.5388
763.0449, 647.1965
763.5270, 646.9797
764.0092, 644.3445
764.4913, 641.7413
764.9734, 639.9474
765.4555, 639.1086
765.9376, 639.7076
766.4197, 641.7491
766.9019, 643.2742
767.3840, 644.0799
767.8661, 644.5067
768.3482, 644.6130
768.8303, 644.4198
769.3124, 644.6276
769.7946, 645.3300
770.2767, 645.2955
770.7588, 642.4738
771.2409, 638.7543
771.7230, 637.6816
772.2051, 639.3125
772.6873, 641.6650
773.1694, 644.4188
773.6515, 646.8298
774.1336, 648.4154
774.6157, 649.0540
775.0978, 649.1179
775.5800, 648.0379
776.0621, 647.1961
776.5442, 647.4850
777.0263, 648.9589
777.5084, 650.3048
777.9905, 651.4866
778.4727, 652.9168
778.9548, 655.8159
779.4369, 658.9144
779.9190, 659.4184
780.4011, 656.9193
780.8832, 655.1100
781.3654, 656.5142
781.8475, 659.1542
782.3296, 661.7350
782.8117, 664.2542
783.2938, 666.0906
783.7759, 666.8655
784.2581, 667.5077
784.7402, 668.6448
785.2223, 670.2733
785.7044, 672.4661
786.1865, 675.2711
786.6686, 678.0519
787.1508, 679.7133
787.6329, 681.1118
788.1150, 683.6288
788.5971, 687.5637
789.0792, 692.0925
789.5613, 697.4033
790.0435, 702.8083
790.5256, 707.8085
791.0077, 712.2170
791.4898, 716.4916
791.9719, 720.4734
792.4540, 724.5344
792.9362, 728.5318
793.4183, 732.6408
793.9004, 738.8176
794.3825, 747.4941
794.8646, 756.2288
795.3467, 762.4205
795.8289, 767.4998
796.3110, 773.2225
796.7931, 779.9489
797.2752, 787.5074
797.7573, 795.6923
798.2394, 804.9206
798.7216, 815.5412
799.2037, 828.1094
799.6858, 840.6768
800.1679, 852.9170
800.6500, 865.9014
801.1321, 881.1684
801.6143, 898.4001
802.0964, 916.5713
802.5785, 935.5823
803.0606, 954.6270
803.5427, 971.4240
804.0248, 988.3771
804.5070, 1008.653
804.9891, 1033.886
805.4712, 1059.026
805.9533, 1081.636
806.4354, 1105.103
806.9175, 1132.181
807.3997, 1163.764
807.8818, 1195.318
808.3639, 1226.457
808.8460, 1257.617
809.3281, 1287.894
809.8102, 1318.580
810.2924, 1353.884
810.7745, 1394.878
811.2566, 1435.845
811.7387, 1471.315
812.2208, 1505.339
812.7029, 1541.407
813.1851, 1580.698
813.6672, 1620.401
814.1493, 1661.277
814.6314, 1701.505
815.1135, 1738.773
815.5956, 1773.211
816.0778, 1809.145
816.5599, 1847.307
817.0420, 1883.755
817.5241, 1915.059
818.0062, 1941.938
818.4883, 1965.949
818.9705, 1987.372
819.4526, 2005.915
819.9347, 2020.131
820.4168, 2032.368
820.8989, 2044.715
821.3810, 2058.331
821.8632, 2067.323
822.3453, 2071.060
822.8274, 2071.577
823.3095, 2069.495
823.7916, 2065.343
824.2737, 2062.310
824.7559, 2060.543
825.2380, 2058.691
825.7201, 2057.905
826.2022, 2055.122
826.6843, 2047.155
827.1664, 2033.396
827.6486, 2016.893
828.1307, 1996.883
828.6128, 1975.538
829.0949, 1955.102
829.5770, 1936.496
830.0591, 1905.573
830.5413, 1860.867
831.0234, 1813.522
831.5055, 1772.422
831.9876, 1734.466
832.4697, 1693.054
832.9518, 1648.332
833.4340, 1601.672
833.9161, 1550.734
834.3982, 1501.264
834.8803, 1457.641
835.3624, 1420.640
835.8445, 1382.012
836.3267, 1339.635
836.8088, 1300.002
837.2909, 1266.942
837.7730, 1239.648
838.2551, 1213.358
838.7372, 1188.150
839.2194, 1165.128
839.7015, 1145.230
840.1836, 1127.715
840.6657, 1112.304
841.1478, 1098.695
841.6299, 1086.057
842.1121, 1073.963
842.5942, 1063.012
843.0763, 1053.315
843.5584, 1044.795
844.0405, 1036.954
844.5226, 1029.689
845.0048, 1023.774
845.4869, 1020.054
845.9690, 1017.432
846.4511, 1013.626
846.9332, 1009.067
847.4153, 1005.245
847.8975, 1003.607
848.3796, 1002.136
848.8617, 1000.009
849.3438, 997.2617
849.8259, 994.0484
850.3080, 989.5217
850.7902, 986.6840
851.2723, 987.2017
851.7544, 988.7066
852.2365, 985.2648
852.7186, 977.6722
853.2007, 970.5303
853.6829, 965.7535
854.1650, 961.7349
854.6471, 958.1898
855.1292, 954.1259
855.6113, 947.8455
856.0934, 936.2084
856.5756, 925.9637
857.0577, 918.3040
857.5398, 912.0143
858.0219, 905.2702
858.5040, 898.0374
858.9861, 890.3237
859.4683, 882.0980
859.9504, 873.2765
860.4325, 863.0790
860.9146, 852.4614
861.3967, 843.2786
861.8788, 836.3223
862.3610, 829.9290
862.8431, 823.8810
863.3252, 817.9468
863.8073, 811.8611
864.2894, 805.0729
864.7715, 799.7678
865.2537, 796.1405
865.7358, 793.5101
866.2179, 791.3779
866.7000, 789.6768
867.1821, 788.1449
867.6642, 786.7416
868.1464, 785.7645
868.6285, 784.6904
869.1106, 784.6436
869.5927, 786.6580
870.0748, 791.2787
870.5569, 795.8226
871.0391, 799.4503
871.5212, 804.4950
872.0033, 812.6345
872.4854, 823.5227
872.9675, 833.9789
873.4496, 844.2100
873.9318, 855.6649
874.4139, 869.6077
874.8960, 885.0088
875.3781, 901.5322
875.8602, 919.0130
876.3423, 935.6310
876.8245, 949.4587
877.3066, 963.9684
877.7887, 980.3464
878.2708, 998.0689
878.7529, 1015.048
879.2350, 1031.230
879.7172, 1046.986
880.1993, 1061.771
880.6814, 1076.566
881.1635, 1093.422
881.6456, 1111.205
882.1277, 1127.254
882.6099, 1138.409
883.0920, 1150.313
883.5741, 1166.172
884.0562, 1182.884
884.5383, 1195.634
885.0204, 1203.767
885.5026, 1212.352
885.9847, 1222.723
886.4668, 1232.536
886.9489, 1238.742
887.4310, 1241.960
887.9131, 1243.116
888.3953, 1241.782
888.8774, 1240.343
889.3595, 1242.348
889.8416, 1243.106
890.3237, 1237.837
890.8058, 1223.957
891.2880, 1212.062
891.7701, 1203.036
892.2522, 1193.455
892.7343, 1179.873
893.2164, 1163.244
893.6985, 1145.562
894.1807, 1127.151
894.6628, 1109.181
895.1449, 1093.435
895.6270, 1077.851
896.1091, 1060.922
896.5912, 1042.592
897.0734, 1023.390
897.5555, 1002.767
898.0376, 982.9349
898.5197, 965.2478
899.0018, 949.2023
899.4839, 933.6230
899.9661, 918.5664
900.4482, 904.4033
900.9303, 891.1481
901.4124, 878.8957
901.8945, 867.8131
902.3766, 857.7533
902.8588, 847.7930
903.3409, 837.3548
903.8230, 828.2811
904.3051, 821.2001
904.7872, 815.2236
905.2693, 808.1650
905.7515, 800.3442
906.2336, 793.7589
906.7157, 789.4931
907.1978, 785.0845
907.6799, 777.1276
908.1620, 768.3895
908.6442, 762.2255
909.1263, 761.3607
909.6084, 759.6845
910.0905, 756.9615
910.5726, 753.4777
911.0547, 748.9901
911.5369, 743.6882
912.0190, 739.5593
912.5011, 736.7404
912.9832, 734.6749
913.4653, 733.2826
913.9474, 732.1745
914.4296, 730.9376
914.9117, 729.5179
915.3938, 728.3865
915.8759, 727.3386
916.3580, 726.9641
916.8401, 727.8027
917.3223, 729.5126
917.8044, 729.8090
918.2865, 728.8002
918.7686, 728.4197
919.2507, 730.6021
919.7328, 733.1065
920.2150, 733.0212
920.6971, 731.5462
921.1792, 731.6600
921.6613, 735.1518
922.1434, 739.0937
922.6255, 743.1942
923.1077, 747.4438
923.5898, 751.5972
924.0719, 755.6879
924.5540, 760.9186
925.0361, 767.6130
925.5182, 775.2155
926.0004, 783.3600
926.4825, 792.0582
926.9646, 801.4854
927.4467, 811.8870
927.9288, 822.4396
928.4109, 833.1531
928.8931, 843.9752
929.3752, 853.7595
929.8573, 862.5636
930.3394, 877.8463
930.8215, 899.4860
931.3036, 922.0403
931.7858, 941.4232
932.2679, 959.8078
932.7500, 978.6826
933.2321, 998.2287
933.7142, 1021.183
934.1964, 1049.579
934.6785, 1079.506
935.1606, 1110.209
935.6427, 1141.538
936.1248, 1171.232
936.6069, 1199.968
937.0891, 1231.272
937.5712, 1267.327
938.0533, 1305.776
938.5354, 1345.723
939.0175, 1386.317
939.4996, 1425.523
939.9818, 1459.929
940.4639, 1498.484
940.9460, 1542.901
941.4281, 1588.811
941.9102, 1630.783
942.3923, 1669.300
942.8745, 1709.468
943.3566, 1752.102
943.8387, 1792.874
944.3208, 1826.918
944.8029, 1858.041
945.2850, 1890.586
945.7672, 1924.865
946.2493, 1953.854
946.7314, 1977.236
947.2135, 1995.547
947.6956, 2008.929
948.1777, 2017.492
948.6599, 2021.178
949.1420, 2019.972
949.6241, 2013.555
950.1062, 2001.856
950.5883, 1984.806
951.0704, 1960.579
951.5526, 1931.252
952.0347, 1901.057
952.5168, 1870.896
952.9989, 1838.583
953.4810, 1803.543
953.9631, 1767.129
954.4453, 1729.938
954.9274, 1692.742
955.4095, 1658.122
955.8916, 1626.742
956.3737, 1597.566
956.8558, 1572.590
957.3380, 1547.601
957.8201, 1517.977
958.3022, 1483.011
958.7843, 1453.403
959.2664, 1430.645
959.7485, 1408.183
960.2307, 1382.527
960.7128, 1355.134
961.1949, 1329.870
961.6770, 1306.048
962.1591, 1281.782
962.6412, 1255.395
963.1234, 1228.979
963.6055, 1203.205
964.0876, 1177.872
964.5697, 1152.421
965.0518, 1127.506
965.5339, 1099.962
966.0161, 1068.545
966.4982, 1037.294
966.9803, 1012.037
967.4624, 989.6570
967.9445, 965.0477
968.4266, 936.7662
968.9088, 910.0051
969.3909, 886.5345
969.8730, 865.0451
970.3551, 844.6627
970.8372, 825.6504
971.3193, 806.9521
971.8015, 788.6910
972.2836, 771.1443
972.7657, 754.3624
973.2478, 738.7654
973.7299, 725.0380
974.2120, 712.7670
974.6942, 700.7809
975.1763, 687.7195
975.6584, 676.4957
976.1405, 667.9435
976.6226, 660.6953
977.1047, 653.0287
977.5869, 644.8710
978.0690, 635.5262
978.5511, 624.7027
979.0332, 615.2551
979.5153, 610.9081
979.9974, 608.0947
980.4796, 603.4581
980.9617, 596.3456
981.4438, 589.5715
981.9259, 583.0343
982.4080, 577.0870
982.8901, 571.7250
983.3723, 567.0721
983.8544, 563.7504
984.3365, 561.5482
984.8186, 559.5906
985.3007, 557.8096
985.7828, 555.7600
986.2650, 552.5828
986.7471, 549.2262
987.2292, 547.3515
987.7113, 547.5617
988.1934, 546.9211
988.6755, 544.9559
989.1577, 542.9698
989.6398, 543.2825
990.1219, 544.2401
990.6040, 542.3542
991.0861, 537.1889
991.5682, 533.3732
992.0504, 533.9228
992.5325, 535.0937
993.0146, 535.4219
993.4967, 534.9481
993.9788, 533.5401
994.4609, 531.2106
994.9431, 529.6037
995.4252, 529.9614
995.9073, 530.4955
996.3894, 528.7891
996.8715, 526.0545
997.3536, 524.2465
997.8358, 524.7926
998.3179, 524.9667
998.8000, 524.6332
999.2821, 524.0043
999.7642, 522.9222
1000.246, 521.6277
1000.728, 521.7742
1001.211, 523.3750
1001.693, 524.8577
1002.175, 525.1194
1002.657, 524.9750
1003.139, 525.0852
1003.621, 525.3127
1004.103, 524.4886
1004.585, 522.1146
1005.068, 520.6113
1005.550, 520.7773
1006.032, 521.8637
1006.514, 523.1981
1006.996, 524.4337
1007.478, 524.8903
1007.960, 524.2952
1008.442, 523.1122
1008.924, 520.1338
1009.407, 517.8104
1009.889, 518.2241
1010.371, 521.5268
1010.853, 522.8864
1011.335, 522.2995
1011.817, 521.1359
1012.299, 519.8373
1012.781, 518.7867
1013.263, 518.0826
1013.746, 517.8959
1014.228, 518.9015
1014.710, 522.8160
1015.192, 524.8115
1015.674, 523.8041
1016.156, 521.2053
1016.638, 518.7346
1017.120, 516.4501
1017.603, 514.4238
1018.085, 512.5867
1018.567, 511.5638
1019.049, 512.4761
1019.531, 513.6840
1020.013, 513.9467
1020.495, 513.3025
1020.977, 513.2345
1021.459, 513.7752
1021.942, 514.6407
1022.424, 516.1447
1022.906, 517.3826
1023.388, 516.8580
1023.870, 515.2017
1024.352, 513.6456
1024.834, 512.3474
1025.316, 511.5297
1025.799, 511.2748
1026.281, 511.3862
1026.763, 511.9438
1027.245, 512.7756
1027.727, 512.4687
1028.209, 511.0048
1028.691, 509.9438
1029.173, 510.7834
1029.656, 511.9933
1030.138, 512.7592
1030.620, 512.9886
1031.102, 512.3737
1031.584, 510.4306
1032.066, 509.7447
1032.548, 511.3607
1033.030, 513.4821
1033.512, 513.2886
1033.995, 511.7697
1034.477, 510.5342
1034.959, 509.8639
1035.441, 509.7710
1035.923, 510.6293
1036.405, 511.6681
1036.887, 512.7596
1037.369, 513.7602
1037.851, 513.1344
1038.334, 511.0436
1038.816, 508.8645
1039.298, 506.6797
1039.780, 505.3813
1040.262, 506.2115
1040.744, 508.1898
1041.226, 509.3068
1041.708, 509.1379
1042.191, 509.2412
1042.673, 509.8315
1043.155, 510.3291
1043.637, 510.2848
1044.119, 509.6693
1044.601, 507.6140
1045.083, 504.2428
1045.565, 503.2266
1046.047, 509.2326
1046.530, 513.7384
1047.012, 513.7229
1047.494, 510.6084
1047.976, 507.7135
1048.458, 505.1357
1048.940, 504.0291
1049.422, 504.9589
1049.904, 506.5538
1050.386, 508.7214
1050.869, 510.4593
1051.351, 510.3911
1051.833, 508.0049
1052.315, 507.0446
1052.797, 507.7781
1053.279, 508.6998
1053.761, 508.7846
1054.243, 508.5931
1054.726, 509.5251
1055.208, 510.9769
1055.690, 511.3554
1056.172, 508.7866
1056.654, 506.8831
1057.136, 506.0880
1057.618, 506.1485
1058.100, 507.2187
1058.583, 509.0265
1059.065, 509.5778
1059.547, 508.7504
1060.029, 507.8843
1060.511, 507.8707
1060.993, 508.1638
1061.475, 508.6236
1061.957, 509.1295
1062.439, 509.1897
1062.922, 508.7371
1063.404, 508.2757
1063.886, 507.9492
1064.368, 507.6113
1064.850, 506.9820
1065.332, 506.2679
1065.814, 505.6979
1066.296, 505.2562
1066.778, 505.3305
1067.261, 506.3533
1067.743, 507.0834
1068.225, 506.5102
1068.707, 505.3448
1069.189, 506.5956
1069.671, 509.4630
1070.153, 510.9610
1070.635, 506.6522
1071.118, 504.9555
1071.600, 513.7440
1072.082, 523.7933
1072.564, 524.8550
1073.046, 515.9049
1073.528, 510.9207
1074.010, 510.4502
1074.492, 511.1491
1074.974, 511.2138
1075.457, 510.6926
1075.939, 509.1369
1076.421, 506.9637
1076.903, 505.9107
1077.385, 506.7863
1077.867, 506.6067
1078.349, 504.4507
1078.831, 502.2910
1079.313, 503.2955
1079.796, 505.9413
1080.278, 507.4613
1080.760, 507.4344
1081.242, 507.3741
1081.724, 507.8540
1082.206, 508.2964
1082.688, 508.4612
1083.170, 508.4586
1083.652, 508.5177
1084.135, 508.6981
1084.617, 509.5269
1085.099, 511.9022
1085.581, 513.0733
1086.063, 509.6085
1086.545, 505.4411
1087.027, 504.3946
1087.509, 506.9464
1087.992, 507.8553
1088.474, 507.0018
1088.956, 506.4378
1089.438, 507.9419
1089.920, 509.9010
1090.402, 510.7852
1090.884, 510.8122
1091.366, 510.4005
1091.849, 509.2823
1092.331, 508.3541
1092.813, 507.6108
1093.295, 507.1407
1093.777, 507.0381
1094.259, 507.2632
1094.741, 508.1299
1095.223, 509.4387
1095.705, 509.7852
1096.188, 506.9508
1096.670, 505.2768
1097.152, 506.3447
1097.634, 508.6447
1098.116, 509.5688
1098.598, 509.2684
1099.080, 508.2426
1099.562, 506.4624
1100.044, 505.3585
1100.527, 506.7614
1101.009, 508.3674
1101.491, 508.4984
1101.973, 507.4224
1102.455, 506.6196
1102.937, 506.0620
1103.419, 506.5165
1103.901, 508.8287
1104.384, 510.7322
1104.866, 508.5797
1105.348, 505.3310
1105.830, 504.8575
1106.312, 508.7699
1106.794, 510.5613
1107.276, 509.7378
1107.758, 508.5028
1108.240, 507.9799
1108.723, 507.9470
1109.205, 508.1066
1109.687, 508.4165
1110.169, 508.7766
1110.651, 509.6147
1111.133, 509.7787
1111.615, 508.9835
1112.097, 507.8950
1112.579, 506.7863
1113.062, 505.9069
1113.544, 506.3607
1114.026, 508.0320
1114.508, 509.9430
1114.990, 512.7809
1115.472, 514.2821
1115.954, 512.7574
1116.436, 510.1055
1116.919, 509.1683
1117.401, 509.8345
1117.883, 510.6729
1118.365, 511.5467
1118.847, 511.8004
1119.329, 510.1035
1119.811, 508.3651
1120.293, 508.2661
1120.776, 509.3128
1121.258, 509.1587
1121.740, 507.5617
1122.222, 507.1995
1122.704, 508.9907
1123.186, 510.9818
1123.668, 511.2374
1124.150, 510.5323
1124.632, 509.4081
1125.115, 507.8241
1125.597, 507.6803
1126.079, 509.5593
1126.561, 510.9898
1127.043, 510.8775
1127.525, 510.0157
1128.007, 509.6576
1128.489, 509.5104
1128.971, 508.9513
1129.454, 507.2982
1129.936, 506.9115
1130.418, 508.7279
1130.900, 510.3516
1131.382, 510.2954
1131.864, 509.0139
1132.346, 507.2951
1132.828, 505.4760
1133.311, 504.6325
1133.793, 505.6393
1134.275, 507.1511
1134.757, 509.7574
1135.239, 511.7390
1135.721, 511.1112
1136.203, 508.2875
1136.685, 506.4445
1137.167, 505.6202
1137.650, 505.6388
1138.132, 507.1466
1138.614, 508.6217
1139.096, 509.4991
1139.578, 509.8528
1140.060, 509.7147
1140.542, 509.0812
1141.024, 507.8564
1141.506, 506.0130
1141.989, 504.8812
1142.471, 506.5724
1142.953, 508.2907
1143.435, 507.6591
1143.917, 505.4124
1144.399, 504.2307
1144.881, 504.2376
1145.363, 504.4093
1145.846, 504.5250
1146.328, 505.0851
1146.810, 507.5937
1147.292, 510.0588
1147.774, 510.1830
1148.256, 507.8583
1148.738, 506.4562
1149.220, 506.1033
1149.703, 506.4797
1150.185, 507.7257
1150.667, 509.0122
1151.149, 509.2294
1151.631, 508.8148
1152.113, 508.2482
1152.595, 507.5313
1153.077, 507.3946
1153.559, 508.2876
1154.042, 508.5575
1154.524, 507.1479
1155.006, 505.3093
1155.488, 505.4455
1155.970, 506.8542
1156.452, 508.3311
1156.934, 510.0366
1157.416, 510.1837
1157.898, 507.5462
1158.381, 505.4834
1158.863, 506.1957
1159.345, 508.6299
1159.827, 510.0509
1160.309, 510.6322
1160.791, 510.7972
1161.273, 510.4850
1161.755, 510.1800
1162.238, 510.1120
1162.720, 509.9345
1163.202, 509.1800
1163.684, 508.0789
1164.166, 508.1485
1164.648, 509.0580
1165.130, 509.3282
1165.612, 506.9750
1166.094, 505.5197
1166.577, 506.8310
1167.059, 508.7358
1167.541, 509.0230
1168.023, 507.8859
1168.505, 507.1549
1168.987, 506.8264
1169.469, 506.4411
1169.951, 505.2745
1170.433, 504.5105
1170.916, 505.4198
1171.398, 506.5572
1171.880, 505.5716
1172.362, 502.6454
1172.844, 501.8636
1173.326, 503.4903
1173.808, 505.0987
1174.290, 504.8691
1174.773, 504.2790
1175.255, 504.2646
1175.737, 504.4681
1176.219, 504.0594
1176.701, 503.0338
1177.183, 502.4395
1177.665, 502.4112
1178.147, 502.7388
1178.630, 503.7941
1179.112, 504.6437
1179.594, 504.2674
1180.076, 503.1568
1180.558, 502.7667
1181.040, 503.0759
1181.522, 504.9873
1182.004, 509.0840
1182.486, 511.8730
1182.969, 508.5449
1183.451, 503.9857
1183.933, 502.4322
1184.415, 503.5429
1184.897, 503.5641
1185.379, 502.3315
1185.861, 501.9288
1186.343, 503.0750
1186.825, 504.4257
1187.308, 505.1649
1187.790, 505.1213
1188.272, 503.6367
1188.754, 500.8198
1189.236, 499.3994
1189.718, 499.4848
1190.200, 500.2318
1190.682, 501.6149
1191.165, 502.8783
1191.647, 502.9355
1192.129, 502.6201
1192.611, 502.9694
1193.093, 504.1362
1193.575, 504.5245
1194.057, 504.0081
1194.539, 503.6003
1195.021, 503.7846
1195.504, 504.0489
1195.986, 503.3377
1196.468, 502.6038
1196.950, 503.4605
1197.432, 506.5522
1197.914, 507.2542
1198.396, 505.1818
1198.878, 503.2861
1199.360, 503.0901
1199.843, 503.5921
1200.325, 504.2152
1200.807, 504.5263
1201.289, 503.6617
1201.771, 501.0562
1202.253, 499.6678
1202.735, 499.5700
1203.217, 500.3244
1203.700, 502.4461
1204.182, 504.3737
1204.664, 503.6969
1205.146, 501.8418
1205.628, 501.1741
1206.110, 502.3619
1206.592, 503.2963
1207.074, 503.9892
1207.557, 504.3484
1208.039, 504.0729
1208.521, 503.6563
1209.003, 503.6952
1209.485, 503.9668
1209.967, 504.0435
1210.449, 503.7072
1210.931, 503.7420
1211.413, 504.2105
1211.896, 504.6553
1212.378, 504.6115
1212.860, 504.5146
1213.342, 504.9278
1213.824, 505.6150
1214.306, 506.1299
1214.788, 506.6477
1215.270, 506.2548
1215.752, 504.8446
1216.235, 503.2666
1216.717, 501.6045
1217.199, 500.5452
1217.681, 501.5767
1218.163, 503.5561
1218.645, 503.6913
1219.127, 501.0549
1219.609, 500.0663
1220.092, 501.0244
1220.574, 502.4884
1221.056, 504.0272
1221.538, 504.9125
1222.020, 504.0863
1222.502, 502.1480
1222.984, 500.3528
1223.466, 498.4621
1223.948, 498.4733
1224.431, 500.6602
1224.913, 502.6619
1225.395, 502.2857
1225.877, 501.2019
1226.359, 500.5584
1226.841, 500.3412
1227.323, 500.3651
1227.805, 500.6657
1228.287, 500.9385
1228.770, 501.1574
1229.252, 501.4539
1229.734, 502.0649
1230.216, 502.6554
1230.698, 502.9492
1231.180, 503.0326
1231.662, 503.0853
1232.144, 503.0849
1232.627, 503.4529
1233.109, 504.2416
1233.591, 504.6651
1234.073, 503.8369
1234.555, 502.7559
1235.037, 501.5417
1235.519, 500.7726
1236.001, 501.9606
1236.484, 505.1002
1236.966, 506.5986
1237.448, 506.1308
1237.930, 504.7953
1238.412, 502.3989
1238.894, 500.3517
1239.376, 499.6350
1239.858, 499.7050
1240.340, 499.8019
1240.823, 499.9364
1241.305, 500.3740
1241.787, 501.1185
1242.269, 501.6835
1242.751, 501.0600
1243.233, 501.0812
1243.715, 503.1999
1244.197, 505.8047
1244.679, 506.3199
1245.162, 505.0601
1245.644, 503.1477
1246.126, 500.8006
1246.608, 499.8226
1247.090, 503.3822
1247.572, 505.4641
1248.054, 503.4969
1248.536, 500.1885
1249.019, 499.7251
1249.501, 501.3560
1249.983, 502.6795
1250.465, 503.5423
1250.947, 504.9479
1251.429, 508.9896
1251.911, 511.1579
1252.393, 510.2217
1252.875, 507.6783
1253.358, 504.5048
1253.840, 501.5997
1254.322, 501.6834
1254.804, 504.5188
1255.286, 506.1468
1255.768, 505.2087
1256.250, 503.1766
1256.732, 499.7749
1257.214, 496.6307
1257.697, 495.7774
1258.179, 496.4932
1258.661, 498.2506
1259.143, 500.6877
1259.625, 501.7439
1260.107, 500.5353
1260.589, 499.8446
1261.071, 500.1775
1261.554, 500.6303
1262.036, 499.7425
1262.518, 498.7933
1263.000, 499.6255
1263.482, 501.8412
1263.964, 503.0499
1264.446, 502.8395
1264.928, 503.1378
1265.411, 504.2846
1265.893, 505.0986
1266.375, 503.8822
1266.857, 502.4370
1267.339, 502.6764
1267.821, 503.9224
1268.303, 503.8083
1268.785, 502.1761
1269.267, 501.1273
1269.750, 500.8815
1270.232, 501.4590
1270.714, 503.8932
1271.196, 506.1151
1271.678, 506.4566
1272.160, 505.8517
1272.642, 505.8302
1273.124, 506.3077
1273.606, 505.7520
1274.089, 504.1363
1274.571, 503.0922
1275.053, 504.5423
1275.535, 505.5784
1276.017, 505.0878
1276.499, 503.7271
1276.981, 501.8322
1277.463, 499.8215
1277.946, 499.7190
1278.428, 501.3366
1278.910, 502.4399
1279.392, 500.9979
1279.874, 500.5380
1280.356, 502.1078
1280.838, 503.9518
1281.320, 503.8444
1281.802, 502.7444
1282.285, 502.8046
1282.767, 503.7911
1283.249, 504.2724
1283.731, 503.6084
1284.213, 502.9124
1284.695, 502.2264
1285.177, 501.6897
1285.659, 501.5501
1286.141, 501.5488
1286.624, 501.2789
1287.106, 500.8892
1287.588, 500.9202
1288.070, 501.7458
1288.552, 501.3130
1289.034, 499.3694
1289.516, 498.0050
1289.998, 499.3533
1290.481, 501.3908
1290.963, 502.8733
1291.445, 503.7300
1291.927, 503.8758
1292.409, 503.2322
1292.891, 503.4103
1293.373, 504.3613
1293.855, 504.7900
1294.338, 502.5514
1294.820, 501.2558
1295.302, 504.2066
1295.784, 507.5240
1296.266, 507.0547
1296.748, 503.7031
1297.230, 504.4039
1297.712, 508.1966
1298.194, 510.6046
1298.677, 506.9622
1299.159, 505.6607
1299.641, 509.1206
1300.123, 512.6171
1300.605, 512.1328
1301.087, 509.3010
1301.569, 507.7484
1302.051, 506.9713
1302.533, 505.7868
1303.016, 503.5507
##END=



