##NAMES=Isocubanite
##RRUFFID=R090050
##IDEAL CHEMISTRY=Cu^1+^Fe^2+^Fe^3+^S^2-^_3_
##LOCALITY=Henderson #2 mine, Chibougamau, Quebec, Canada
##OWNER=RRUFF
##SOURCE=Lloyd Twaites LT1378
##DESCRIPTION=The sample was obtained by heating cubanite, R061068. It was heated first at T = 200°C for a day, followed by T = 160°C for five weeks.
##STATUS=The identification of this mineral is confirmed by single-crystal X-ray diffraction and chemical analysis.
##URL=rruff.info/R090050
##MEASURED CHEMISTRY=Cu_1.00_Fe_2.00_S_3.00_
92.02539, 1036.410
92.50751, 1076.000
92.98962, 1102.231
93.47174, 1085.328
93.95386, 1051.465
94.43597, 1017.392
94.91809, 991.8267
95.40021, 972.8715
95.88232, 950.5233
96.36444, 923.4721
96.84656, 895.0167
97.32867, 865.2787
97.81078, 835.6256
98.29290, 808.2287
98.77502, 784.6752
99.25713, 764.4612
99.73925, 741.6503
100.2214, 713.3712
100.7035, 685.7575
101.1856, 660.8221
101.6677, 638.8717
102.1498, 619.7244
102.6320, 603.1296
103.1141, 588.8342
103.5962, 578.6160
104.0783, 574.0404
104.5604, 572.6698
105.0425, 572.7313
105.5247, 574.1916
106.0068, 574.9749
106.4889, 571.4916
106.9710, 564.2633
107.4531, 553.7123
107.9352, 539.3122
108.4173, 521.4074
108.8995, 501.2694
109.3816, 475.3789
109.8637, 450.5624
110.3458, 433.9658
110.8279, 427.0612
111.3100, 425.3194
111.7922, 424.2041
112.2743, 424.3768
112.7564, 422.9594
113.2385, 417.1427
113.7206, 410.3911
114.2027, 405.7492
114.6849, 404.6830
115.1670, 406.3495
115.6491, 407.9971
116.1312, 412.5179
116.6133, 413.2504
117.0954, 407.6080
117.5776, 397.7615
118.0597, 386.4626
118.5418, 375.2218
119.0239, 363.9589
119.5060, 357.8804
119.9881, 358.4361
120.4703, 361.5343
120.9524, 367.6358
121.4345, 375.6070
121.9166, 381.8267
122.3987, 382.5675
122.8808, 376.6881
123.3630, 371.6617
123.8451, 368.8086
124.3272, 366.1268
124.8093, 361.0039
125.2914, 352.5985
125.7735, 344.2946
126.2557, 341.4205
126.7378, 342.7454
127.2199, 342.5603
127.7020, 336.7549
128.1841, 327.4400
128.6662, 321.6171
129.1483, 321.7909
129.6305, 324.2813
130.1126, 326.7872
130.5947, 329.1252
131.0768, 330.2007
131.5589, 329.0099
132.0410, 325.4268
132.5232, 320.5999
133.0053, 312.3711
133.4874, 304.4515
133.9695, 298.5897
134.4516, 295.1856
134.9337, 293.8069
135.4159, 293.8553
135.8980, 295.6937
136.3801, 298.5258
136.8622, 304.4631
137.3443, 310.1117
137.8264, 312.4450
138.3086, 310.3512
138.7907, 305.0428
139.2728, 299.8686
139.7549, 292.7512
140.2370, 288.2249
140.7191, 289.3536
141.2013, 292.8524
141.6834, 293.6291
142.1655, 288.7581
142.6476, 279.6022
143.1297, 272.3623
143.6118, 267.5034
144.0939, 263.5796
144.5761, 259.9962
145.0582, 256.8472
145.5403, 254.6303
146.0224, 254.1274
146.5045, 254.6801
146.9866, 254.1377
147.4688, 250.8278
147.9509, 247.7168
148.4330, 248.0877
148.9151, 252.4309
149.3972, 257.2033
149.8793, 261.9021
150.3615, 265.4404
150.8436, 265.7455
151.3257, 260.4224
151.8078, 252.2102
152.2899, 247.8556
152.7720, 250.0660
153.2542, 251.3433
153.7363, 247.4653
154.2184, 240.9725
154.7005, 235.7306
155.1826, 234.4194
155.6647, 236.6179
156.1469, 238.0201
156.6290, 237.5927
157.1111, 237.3171
157.5932, 237.6423
158.0753, 238.5303
158.5574, 240.0112
159.0396, 242.4965
159.5217, 246.5172
160.0038, 246.3577
160.4859, 236.8162
160.9680, 228.3317
161.4501, 226.3027
161.9323, 230.1135
162.4144, 235.2190
162.8965, 237.0362
163.3786, 234.7843
163.8607, 231.7783
164.3428, 226.3279
164.8250, 221.3318
165.3071, 219.2282
165.7892, 220.3128
166.2713, 222.7378
166.7534, 224.6800
167.2355, 226.2090
167.7177, 226.3922
168.1998, 223.1531
168.6819, 219.1941
169.1640, 218.3311
169.6461, 221.7379
170.1282, 226.7904
170.6104, 230.8340
171.0925, 234.0045
171.5746, 235.9623
172.0567, 236.6017
172.5388, 235.9203
173.0209, 233.5088
173.5031, 227.8511
173.9852, 222.5110
174.4673, 220.8382
174.9494, 222.5108
175.4315, 224.4936
175.9136, 224.4272
176.3958, 222.3974
176.8779, 221.0121
177.3600, 221.7437
177.8421, 222.2507
178.3242, 221.1155
178.8063, 218.3300
179.2885, 214.8688
179.7706, 211.4161
180.2527, 207.7049
180.7348, 205.2113
181.2169, 203.3348
181.6990, 203.1553
182.1812, 206.5311
182.6633, 213.2090
183.1454, 220.2961
183.6275, 223.4864
184.1096, 220.3502
184.5917, 218.2912
185.0738, 217.6790
185.5560, 217.7245
186.0381, 218.3429
186.5202, 219.3403
187.0023, 219.9592
187.4844, 218.8523
187.9665, 214.3691
188.4487, 210.6618
188.9308, 208.2222
189.4129, 206.3003
189.8950, 204.0821
190.3771, 201.3193
190.8592, 198.5361
191.3414, 196.7115
191.8235, 195.3876
192.3056, 195.9420
192.7877, 201.0881
193.2698, 207.4971
193.7519, 210.2657
194.2341, 207.2891
194.7162, 201.4053
195.1983, 198.3062
195.6804, 198.1286
196.1625, 198.8758
196.6446, 201.5362
197.1268, 204.7063
197.6089, 204.6216
198.0910, 198.7541
198.5731, 191.0901
199.0552, 188.3534
199.5373, 191.2793
200.0195, 194.1032
200.5016, 192.8777
200.9837, 188.5212
201.4658, 185.6793
201.9479, 185.5679
202.4300, 187.9312
202.9122, 193.3820
203.3943, 202.4668
203.8764, 209.3414
204.3585, 207.3600
204.8406, 196.5928
205.3227, 188.9896
205.8048, 189.2965
206.2870, 192.6404
206.7691, 195.9490
207.2512, 198.8437
207.7333, 201.7225
208.2154, 206.2669
208.6975, 213.6313
209.1797, 215.7170
209.6618, 204.2351
210.1439, 191.6502
210.6260, 184.6906
211.1081, 184.5026
211.5902, 187.9873
212.0724, 191.8709
212.5545, 196.9849
213.0366, 199.7651
213.5187, 198.2197
214.0008, 195.7368
214.4829, 193.9025
214.9651, 193.2218
215.4472, 193.7075
215.9293, 195.9742
216.4114, 203.0264
216.8935, 205.2652
217.3756, 199.2891
217.8578, 191.7752
218.3399, 187.0784
218.8220, 186.2402
219.3041, 187.5706
219.7862, 188.4342
220.2683, 187.4602
220.7505, 188.9510
221.2326, 196.5294
221.7147, 204.0819
222.1968, 206.1871
222.6789, 201.8235
223.1610, 194.6630
223.6432, 189.9936
224.1253, 188.5378
224.6074, 188.7722
225.0895, 193.5419
225.5716, 198.4239
226.0537, 198.1572
226.5358, 191.7210
227.0180, 184.2423
227.5001, 183.1925
227.9822, 191.0549
228.4643, 197.8994
228.9464, 204.9769
229.4285, 209.9191
229.9107, 208.8353
230.3928, 200.7009
230.8749, 190.5993
231.3570, 184.9040
231.8391, 183.8125
232.3212, 184.1947
232.8034, 186.5341
233.2855, 189.7531
233.7676, 192.8655
234.2497, 195.8550
234.7318, 197.7861
235.2139, 196.3070
235.6961, 191.9368
236.1782, 189.6885
236.6603, 192.3964
237.1424, 197.5078
237.6245, 201.0361
238.1066, 202.2010
238.5888, 202.8233
239.0709, 205.3689
239.5530, 209.0309
240.0351, 210.8727
240.5172, 208.4682
240.9993, 203.8742
241.4815, 201.1517
241.9636, 201.0525
242.4457, 201.4777
242.9278, 200.5373
243.4099, 198.9250
243.8920, 198.1772
244.3742, 199.9025
244.8563, 202.7861
245.3384, 203.5138
245.8205, 201.0738
246.3026, 198.7419
246.7847, 198.2016
247.2668, 198.9793
247.7490, 200.6138
248.2311, 203.8896
248.7132, 207.4020
249.1953, 207.2380
249.6774, 201.3888
250.1595, 195.8807
250.6417, 193.3630
251.1238, 192.6095
251.6059, 192.3150
252.0880, 192.1990
252.5701, 191.7959
253.0522, 189.5286
253.5344, 183.6741
254.0165, 179.4452
254.4986, 178.8528
254.9807, 180.2527
255.4628, 182.3598
255.9449, 184.8910
256.4271, 186.8279
256.9092, 185.0634
257.3913, 175.7230
257.8734, 170.2549
258.3555, 173.0307
258.8376, 178.9793
259.3198, 183.6116
259.8019, 185.1692
260.2840, 184.6472
260.7661, 183.9745
261.2482, 182.8311
261.7303, 182.1845
262.2125, 182.7193
262.6946, 183.3763
263.1767, 183.4883
263.6588, 182.7935
264.1409, 181.1178
264.6230, 177.7187
265.1052, 170.0803
265.5873, 165.8433
266.0694, 165.0114
266.5515, 167.2278
267.0336, 174.3478
267.5157, 185.8563
267.9979, 197.0443
268.4800, 200.3733
268.9621, 190.9131
269.4442, 183.9957
269.9263, 180.1254
270.4084, 177.8694
270.8906, 176.6208
271.3727, 176.1428
271.8548, 176.2549
272.3369, 176.7354
272.8190, 177.5210
273.3011, 178.9613
273.7833, 181.2708
274.2654, 183.9094
274.7475, 187.2109
275.2296, 190.7852
275.7117, 193.3040
276.1938, 193.2622
276.6760, 190.0650
277.1581, 187.9368
277.6402, 187.9031
278.1223, 187.7297
278.6044, 185.9671
279.0865, 183.0096
279.5686, 180.3313
280.0508, 179.0772
280.5329, 179.2580
281.0150, 180.3757
281.4971, 184.0484
281.9792, 186.8391
282.4613, 186.9695
282.9435, 185.1551
283.4256, 183.2116
283.9077, 182.3195
284.3898, 182.3209
284.8719, 181.8531
285.3540, 179.2352
285.8362, 178.0705
286.3183, 180.9678
286.8004, 185.8166
287.2825, 188.6833
287.7646, 187.4178
288.2467, 183.1793
288.7289, 179.9619
289.2110, 178.5047
289.6931, 177.0723
290.1752, 175.4010
290.6573, 173.6140
291.1394, 171.9523
291.6216, 170.5220
292.1037, 169.0896
292.5858, 166.8751
293.0679, 161.3404
293.5500, 159.9929
294.0321, 168.6431
294.5143, 179.6637
294.9964, 183.7322
295.4785, 178.3789
295.9606, 169.2180
296.4427, 164.0412
296.9248, 164.3835
297.4070, 164.5010
297.8891, 164.3098
298.3712, 163.7576
298.8533, 162.3103
299.3354, 160.0319
299.8175, 158.3816
300.2997, 159.0989
300.7818, 162.7215
301.2639, 165.0495
301.7460, 164.9086
302.2281, 164.4063
302.7102, 164.9320
303.1924, 166.5149
303.6745, 168.6628
304.1566, 171.5246
304.6387, 174.7802
305.1208, 174.6777
305.6029, 168.1042
306.0851, 161.5317
306.5672, 157.8112
307.0493, 156.7308
307.5314, 157.3432
308.0135, 159.3195
308.4956, 162.4418
308.9778, 165.7499
309.4599, 171.0400
309.9420, 174.3594
310.4241, 174.0076
310.9062, 170.8419
311.3883, 165.6091
311.8705, 157.9963
312.3526, 150.4585
312.8347, 149.2704
313.3168, 156.8773
313.7989, 163.7896
314.2810, 168.5459
314.7632, 171.4457
315.2453, 172.3768
315.7274, 171.2042
316.2095, 169.6091
316.6916, 170.3072
317.1737, 174.3829
317.6559, 175.7168
318.1380, 170.8863
318.6201, 164.8514
319.1022, 162.8504
319.5843, 165.3615
320.0664, 168.2339
320.5485, 167.4879
321.0306, 162.7364
321.5128, 158.8968
321.9949, 155.3099
322.4770, 153.1166
322.9591, 153.2957
323.4412, 155.6458
323.9233, 159.5504
324.4055, 165.4414
324.8876, 172.3722
325.3697, 173.7896
325.8518, 165.1348
326.3339, 156.8428
326.8160, 152.9642
327.2982, 152.3053
327.7803, 152.1196
328.2624, 151.1277
328.7445, 149.8978
329.2266, 150.0526
329.7087, 152.1681
330.1909, 154.3867
330.6730, 157.1467
331.1551, 159.5492
331.6372, 159.6864
332.1193, 156.9556
332.6014, 154.1476
333.0836, 155.9081
333.5657, 165.4074
334.0478, 169.5769
334.5299, 162.0220
335.0120, 152.8750
335.4941, 152.4906
335.9763, 161.1427
336.4584, 168.8305
336.9405, 165.4016
337.4226, 149.4719
337.9047, 139.3130
338.3868, 137.1877
338.8690, 137.8342
339.3511, 138.1994
339.8332, 138.9282
340.3153, 143.5929
340.7974, 155.6187
341.2795, 172.5922
341.7617, 178.1924
342.2438, 161.2521
342.7259, 147.9062
343.2080, 145.7773
343.6901, 150.4179
344.1722, 156.1334
344.6544, 160.6785
345.1365, 162.9956
345.6186, 160.6641
346.1007, 147.3495
346.5828, 139.0445
347.0649, 138.6454
347.5471, 141.7042
348.0292, 145.3687
348.5113, 148.6579
348.9934, 150.6394
349.4755, 149.8408
349.9576, 145.0054
350.4398, 142.6954
350.9219, 145.6747
351.4040, 148.2744
351.8861, 146.2302
352.3682, 140.8890
352.8503, 137.1345
353.3325, 138.9851
353.8146, 145.9395
354.2967, 150.1103
354.7788, 148.4774
355.2609, 147.5166
355.7430, 150.0428
356.2252, 153.6755
356.7073, 154.6057
357.1894, 150.9794
357.6715, 144.7876
358.1536, 140.9544
358.6357, 140.2815
359.1179, 141.0750
359.5999, 144.7218
360.0821, 148.7637
360.5642, 151.9711
361.0463, 153.7434
361.5284, 152.9424
362.0105, 146.9101
362.4926, 132.1505
362.9748, 125.9886
363.4569, 137.6047
363.9390, 148.6650
364.4211, 149.9646
364.9032, 143.6926
365.3853, 137.6035
365.8675, 137.8356
366.3496, 143.5299
366.8317, 146.4064
367.3138, 144.4140
367.7959, 141.9818
368.2780, 139.7058
368.7602, 137.6980
369.2423, 136.0940
369.7244, 134.9733
370.2065, 134.0955
370.6886, 132.7580
371.1707, 130.1813
371.6529, 129.2043
372.1350, 130.6653
372.6171, 133.4022
373.0992, 137.4746
373.5813, 142.5226
374.0634, 146.9062
374.5456, 148.9731
375.0277, 148.6791
375.5098, 146.8906
375.9919, 141.1908
376.4740, 136.7607
376.9561, 137.6441
377.4383, 141.5940
377.9204, 143.2177
378.4025, 138.1784
378.8846, 129.4132
379.3667, 125.3112
379.8488, 127.2007
380.3310, 130.3900
380.8131, 133.9006
381.2952, 137.3073
381.7773, 140.4718
382.2594, 143.6077
382.7415, 145.3339
383.2237, 143.5170
383.7058, 138.1790
384.1879, 132.8478
384.6700, 126.9950
385.1521, 123.0173
385.6342, 123.2501
386.1164, 127.4601
386.5985, 132.3225
387.0806, 136.6721
387.5627, 140.2647
388.0448, 142.6656
388.5269, 143.9674
389.0091, 143.5961
389.4912, 139.5120
389.9733, 133.4202
390.4554, 129.1373
390.9375, 127.9820
391.4196, 128.4058
391.9018, 129.3230
392.3839, 130.7019
392.8660, 132.2993
393.3481, 134.2822
393.8302, 136.1474
394.3123, 136.8662
394.7945, 136.1228
395.2766, 135.4023
395.7587, 135.7237
396.2408, 136.3362
396.7229, 135.6905
397.2050, 133.3210
397.6872, 130.7717
398.1693, 129.8078
398.6514, 130.6046
399.1335, 131.1812
399.6156, 132.2380
400.0977, 132.4215
400.5798, 130.0137
401.0620, 125.5931
401.5441, 121.8672
402.0262, 120.7402
402.5083, 121.4551
402.9904, 120.1669
403.4725, 112.8896
403.9547, 108.8165
404.4368, 113.3576
404.9189, 120.6607
405.4010, 122.1078
405.8831, 115.2954
406.3652, 106.5086
406.8474, 105.1991
407.3295, 114.6531
407.8116, 122.4453
408.2937, 130.0253
408.7758, 134.9164
409.2579, 135.1256
409.7401, 131.2896
410.2222, 125.0592
410.7043, 116.9519
411.1864, 107.8110
411.6685, 104.8164
412.1506, 114.6960
412.6328, 122.7435
413.1149, 128.1552
413.5970, 130.0815
414.0791, 125.6306
414.5612, 114.2564
415.0433, 102.4847
415.5255, 101.7054
416.0076, 116.1349
416.4897, 126.9877
416.9718, 131.9023
417.4539, 133.9475
417.9360, 133.5471
418.4182, 131.2712
418.9003, 128.2828
419.3824, 125.1127
419.8645, 121.9316
420.3466, 119.4576
420.8287, 117.8129
421.3109, 116.6766
421.7930, 114.9197
422.2751, 113.9644
422.7572, 116.4268
423.2393, 123.8441
423.7214, 130.8488
424.2036, 129.9782
424.6857, 121.6467
425.1678, 117.0992
425.6499, 121.1674
426.1320, 126.8330
426.6141, 127.2038
427.0963, 122.9131
427.5784, 118.7874
428.0605, 116.7694
428.5426, 116.1661
429.0247, 115.6079
429.5068, 114.9246
429.9890, 116.0135
430.4711, 120.9120
430.9532, 128.3723
431.4353, 134.2278
431.9174, 139.2723
432.3995, 141.5183
432.8817, 137.8385
433.3638, 130.8376
433.8459, 126.0294
434.3280, 125.2021
434.8101, 126.5892
435.2922, 128.1386
435.7744, 130.1999
436.2565, 130.6658
436.7386, 127.9622
437.2207, 124.8401
437.7028, 123.3743
438.1849, 123.3556
438.6671, 123.2579
439.1492, 121.9906
439.6313, 119.8608
440.1134, 118.7085
440.5955, 118.9339
441.0776, 119.6748
441.5598, 121.5924
442.0418, 123.6049
442.5240, 124.0355
443.0061, 122.7029
443.4882, 121.7407
443.9703, 124.7739
444.4524, 133.9599
444.9345, 136.9954
445.4167, 128.3530
445.8988, 118.9214
446.3809, 109.6696
446.8630, 102.8100
447.3451, 102.6306
447.8272, 112.8679
448.3094, 128.1848
448.7915, 134.6874
449.2736, 129.6654
449.7557, 123.5140
450.2378, 117.8844
450.7199, 112.5916
451.2021, 105.9943
451.6842, 98.38763
452.1663, 94.87755
452.6484, 102.4262
453.1305, 118.1441
453.6126, 129.2337
454.0948, 134.5656
454.5769, 135.9535
455.0590, 131.4030
455.5411, 124.1221
456.0232, 119.9706
456.5053, 121.8762
456.9875, 125.0132
457.4696, 125.4266
457.9517, 123.5692
458.4338, 121.5014
458.9159, 119.8839
459.3980, 118.3561
459.8802, 115.7856
460.3623, 111.7469
460.8444, 110.2580
461.3265, 114.3680
461.8086, 119.7437
462.2907, 123.0749
462.7729, 124.0054
463.2550, 122.3913
463.7371, 117.3801
464.2192, 110.1781
464.7013, 107.7394
465.1834, 117.2276
465.6656, 122.0350
466.1477, 114.5862
466.6298, 103.9398
467.1119, 100.7372
467.5940, 107.0090
468.0761, 116.2070
468.5583, 120.6245
469.0404, 119.6849
469.5225, 117.8332
470.0046, 112.7262
470.4867, 109.1534
470.9688, 109.1161
471.4510, 111.5083
471.9331, 115.0733
472.4152, 119.4968
472.8973, 122.9800
473.3794, 120.9248
473.8615, 111.2237
474.3437, 105.0047
474.8258, 107.1321
475.3079, 111.2032
475.7900, 113.2515
476.2721, 113.4538
476.7542, 114.2730
477.2364, 119.6882
477.7185, 126.2656
478.2006, 124.6742
478.6827, 113.3425
479.1648, 103.1811
479.6469, 100.4384
480.1291, 102.1979
480.6112, 102.7014
481.0933, 100.7148
481.5754, 100.2709
482.0575, 105.3324
482.5396, 112.8852
483.0217, 116.8959
483.5038, 116.0563
483.9860, 114.2063
484.4681, 115.4096
484.9502, 119.7803
485.4323, 120.7093
485.9144, 114.8574
486.3965, 109.3377
486.8787, 107.2559
487.3608, 107.5950
487.8429, 108.1525
488.3250, 108.0434
488.8071, 108.3495
489.2892, 111.3911
489.7714, 120.1588
490.2535, 124.1928
490.7356, 119.3778
491.2177, 114.4705
491.6998, 115.1621
492.1819, 119.5190
492.6641, 121.8222
493.1462, 118.1368
493.6283, 110.6836
494.1104, 105.7788
494.5925, 103.6712
495.0746, 103.4765
495.5568, 106.9766
496.0389, 110.9597
496.5210, 113.0660
497.0031, 113.1932
497.4852, 113.0415
497.9673, 113.1365
498.4495, 113.8936
498.9316, 117.4378
499.4137, 124.8745
499.8958, 130.1559
500.3779, 128.5356
500.8600, 122.7679
501.3422, 118.6972
501.8243, 117.0293
502.3064, 116.1489
502.7885, 114.8235
503.2706, 113.8338
503.7527, 115.2205
504.2349, 119.4644
504.7170, 123.5420
505.1991, 124.1733
505.6812, 121.0949
506.1633, 120.0549
506.6454, 124.4956
507.1276, 126.9422
507.6097, 122.7536
508.0918, 115.3371
508.5739, 109.6885
509.0560, 107.7137
509.5381, 108.6325
510.0203, 112.1128
510.5024, 120.6763
510.9845, 123.1343
511.4666, 110.4127
511.9487, 100.5762
512.4308, 103.8001
512.9130, 114.7794
513.3951, 122.3209
513.8772, 120.3703
514.3593, 113.4134
514.8414, 109.2757
515.3235, 108.1706
515.8057, 108.1861
516.2878, 109.2555
516.7699, 111.0323
517.2520, 113.1583
517.7341, 115.6432
518.2162, 118.5839
518.6984, 123.7951
519.1805, 128.4861
519.6626, 128.4951
520.1447, 124.0416
520.6268, 118.7687
521.1089, 114.0603
521.5911, 109.9660
522.0732, 106.6994
522.5553, 104.0593
523.0374, 102.5007
523.5195, 103.6286
524.0016, 104.8148
524.4838, 102.8154
524.9659, 98.21143
525.4480, 94.73669
525.9301, 95.16246
526.4122, 98.83975
526.8943, 102.5879
527.3765, 107.8830
527.8586, 110.9382
528.3407, 109.4247
528.8228, 107.0903
529.3049, 107.4061
529.7870, 110.4261
530.2692, 113.2667
530.7513, 113.0794
531.2334, 110.4927
531.7155, 109.4497
532.1976, 110.8346
532.6797, 111.7043
533.1619, 109.8495
533.6440, 107.3236
534.1261, 106.0717
534.6082, 106.3887
535.0903, 107.9225
535.5724, 112.3415
536.0546, 117.4399
536.5367, 116.8304
537.0188, 109.1675
537.5009, 104.0052
537.9830, 110.0106
538.4651, 124.5180
538.9473, 132.1371
539.4294, 129.0776
539.9115, 124.6336
540.3936, 119.5931
540.8757, 115.4148
541.3578, 114.9290
541.8400, 118.1795
542.3221, 121.1087
542.8042, 119.0687
543.2863, 111.9158
543.7684, 108.7896
544.2505, 114.7707
544.7326, 118.7781
545.2147, 117.2505
545.6968, 113.4518
546.1790, 110.9357
546.6611, 110.6125
547.1432, 111.0842
547.6253, 110.9321
548.1074, 110.2172
548.5895, 109.5321
549.0717, 108.5880
549.5538, 108.3463
550.0359, 110.3007
550.5180, 113.0968
551.0001, 114.6994
551.4822, 114.5945
551.9644, 113.7113
552.4465, 111.7643
552.9286, 109.6159
553.4107, 109.0615
553.8928, 110.4575
554.3749, 113.3446
554.8571, 118.2580
555.3392, 124.9818
555.8213, 125.7329
556.3034, 113.9090
556.7855, 105.0736
557.2676, 105.6276
557.7498, 110.1532
558.2319, 111.9578
558.7140, 109.6186
559.1961, 106.5853
559.6782, 106.7182
560.1603, 110.0514
560.6425, 113.1513
561.1246, 116.4621
561.6067, 118.7788
562.0888, 119.4280
562.5709, 119.1808
563.0530, 119.0852
563.5352, 119.4193
564.0173, 119.0229
564.4994, 115.6178
564.9815, 110.6289
565.4636, 109.5342
565.9457, 113.6709
566.4279, 117.2331
566.9100, 115.3861
567.3921, 110.0588
567.8742, 108.3510
568.3563, 112.7209
568.8384, 116.5773
569.3206, 117.6686
569.8027, 117.0395
570.2848, 115.7868
570.7669, 114.1642
571.2490, 112.0074
571.7311, 109.0132
572.2133, 105.3720
572.6954, 103.3269
573.1775, 104.1184
573.6596, 104.8704
574.1417, 105.0409
574.6238, 105.1382
575.1060, 105.8194
575.5881, 107.0357
576.0702, 107.8789
576.5523, 106.7196
577.0344, 104.6533
577.5165, 106.7521
577.9987, 114.4838
578.4808, 119.8300
578.9629, 117.8445
579.4450, 112.5591
579.9271, 109.9129
580.4092, 110.4275
580.8914, 110.4817
581.3735, 108.1397
581.8556, 105.0071
582.3377, 102.3681
582.8198, 100.5184
583.3019, 100.1243
583.7841, 101.6457
584.2662, 104.7268
584.7483, 108.6051
585.2304, 117.5335
585.7125, 119.9080
586.1946, 108.7257
586.6768, 97.59843
587.1589, 95.90549
587.6410, 101.5601
588.1231, 107.0301
588.6052, 107.8828
589.0873, 106.3050
589.5695, 107.1074
590.0516, 110.7718
590.5337, 113.2661
591.0158, 113.1493
591.4979, 112.4201
591.9800, 112.6940
592.4622, 113.7730
592.9443, 114.8653
593.4264, 116.4505
593.9085, 117.3126
594.3906, 115.3457
594.8727, 111.8216
595.3549, 110.5021
595.8370, 112.6634
596.3191, 116.3565
596.8012, 119.8003
597.2833, 123.6674
597.7654, 122.1835
598.2476, 108.3148
598.7297, 98.03833
599.2118, 97.52117
599.6939, 102.8825
600.1760, 110.7326
600.6581, 119.4371
601.1403, 125.0865
601.6224, 120.4713
602.1045, 106.3190
602.5866, 101.4697
603.0687, 111.0558
603.5508, 118.6444
604.0330, 112.2080
604.5151, 100.7881
604.9972, 95.84550
605.4793, 99.45223
605.9614, 105.1842
606.4435, 112.0103
606.9257, 118.0040
607.4078, 119.6858
607.8899, 117.1941
608.3720, 114.3592
608.8541, 113.7393
609.3362, 114.2739
609.8184, 112.4669
610.3005, 103.6408
610.7826, 99.64362
611.2647, 104.8282
611.7468, 110.8475
612.2289, 111.8191
612.7111, 108.9877
613.1932, 107.0821
613.6753, 108.9063
614.1574, 112.6950
614.6395, 115.3818
615.1216, 116.9580
615.6038, 117.4800
616.0859, 115.8850
616.5680, 114.7948
617.0501, 117.8978
617.5322, 123.5808
618.0143, 126.1337
618.4965, 123.1776
618.9786, 118.1899
619.4607, 111.3635
619.9428, 104.4118
620.4249, 100.6937
620.9070, 100.9574
621.3892, 103.4929
621.8713, 107.0302
622.3534, 111.5294
622.8355, 113.0700
623.3176, 107.2320
623.7997, 104.1420
624.2819, 108.8357
624.7640, 114.5410
625.2461, 114.3976
625.7282, 108.1116
626.2103, 101.2970
626.6924, 97.17668
627.1745, 95.98379
627.6566, 99.85667
628.1387, 109.3466
628.6208, 115.9082
629.1030, 114.9256
629.5851, 111.2029
630.0672, 112.7701
630.5493, 120.0412
631.0314, 124.1310
631.5135, 122.1664
631.9957, 118.1627
632.4778, 113.5985
632.9599, 109.1100
633.4420, 105.3167
633.9241, 102.5087
634.4063, 101.1967
634.8884, 102.5159
635.3705, 106.9497
635.8526, 109.9542
636.3347, 110.2893
636.8168, 110.8942
637.2990, 113.3019
637.7811, 116.2613
638.2632, 118.5434
638.7453, 119.9331
639.2274, 119.8587
639.7095, 115.0492
640.1917, 109.5643
640.6738, 113.4056
641.1559, 126.5356
641.6380, 134.6094
642.1201, 128.6383
642.6022, 115.0380
643.0844, 108.5124
643.5665, 114.3117
644.0486, 116.5146
644.5307, 110.8695
645.0128, 105.7551
645.4949, 106.8814
645.9771, 111.8701
646.4592, 115.2437
646.9413, 114.5331
647.4234, 112.5774
647.9055, 114.4630
648.3876, 120.0338
648.8698, 120.9878
649.3519, 115.2627
649.8340, 108.0366
650.3161, 100.2711
650.7982, 93.81780
651.2803, 93.07906
651.7625, 100.6873
652.2446, 107.9421
652.7267, 111.1178
653.2088, 112.4303
653.6909, 114.1777
654.1730, 116.4814
654.6552, 118.2801
655.1373, 118.8156
655.6194, 118.9612
656.1015, 121.5973
656.5836, 129.5168
657.0657, 132.6682
657.5479, 125.6727
658.0300, 118.3716
658.5121, 114.3000
658.9942, 113.0959
659.4763, 114.0888
659.9584, 117.8403
660.4406, 121.0884
660.9227, 120.4880
661.4048, 117.1634
661.8869, 113.1369
662.3690, 108.6561
662.8511, 107.1666
663.3333, 112.4463
663.8154, 121.8344
664.2975, 124.1143
664.7796, 109.9226
665.2617, 101.7987
665.7438, 103.9498
666.2260, 109.0484
666.7081, 113.4885
667.1902, 116.5497
667.6723, 117.7619
668.1544, 116.5772
668.6365, 114.8798
669.1187, 116.3783
669.6008, 120.8437
670.0829, 122.7260
670.5650, 120.5704
671.0471, 117.5554
671.5292, 115.8515
672.0114, 115.1564
672.4935, 114.1177
672.9756, 110.8349
673.4577, 110.4960
673.9398, 119.7050
674.4219, 129.0639
674.9041, 126.4361
675.3862, 114.3018
675.8683, 106.4720
676.3504, 111.9678
676.8325, 124.4081
677.3146, 127.7022
677.7968, 119.0736
678.2789, 114.9440
678.7610, 119.5562
679.2431, 125.6658
679.7252, 129.2463
680.2073, 131.0728
680.6895, 132.6416
681.1716, 134.2484
681.6537, 135.6396
682.1358, 137.0813
682.6179, 138.0211
683.1000, 137.1767
683.5822, 134.7417
684.0643, 132.6505
684.5464, 132.1501
685.0285, 132.8676
685.5106, 134.0793
685.9927, 137.4905
686.4749, 137.3820
686.9570, 127.3093
687.4391, 119.9325
687.9212, 124.6508
688.4033, 135.1259
688.8854, 138.8459
689.3676, 130.6295
689.8497, 120.5057
690.3318, 116.0730
690.8139, 116.0752
691.2960, 119.2065
691.7781, 125.0967
692.2603, 129.0293
692.7424, 127.7690
693.2245, 123.3790
693.7066, 121.4669
694.1887, 125.4332
694.6708, 124.8849
695.1530, 114.6762
695.6351, 105.6005
696.1172, 103.6150
696.5993, 106.1306
697.0814, 108.3065
697.5635, 108.4416
698.0457, 108.1369
698.5278, 109.1633
699.0099, 111.0483
699.4920, 112.5467
699.9741, 113.6132
700.4562, 113.1259
700.9384, 109.8451
701.4205, 105.4507
701.9026, 103.2308
702.3847, 102.6801
702.8668, 106.1125
703.3489, 120.4860
703.8311, 131.6620
704.3132, 130.8480
704.7953, 122.7923
705.2774, 114.0096
705.7595, 106.9734
706.2416, 103.6057
706.7238, 108.4830
707.2059, 119.1648
707.6880, 124.2931
708.1701, 123.0010
708.6522, 121.5923
709.1343, 123.1220
709.6164, 125.3736
710.0985, 124.9570
710.5806, 121.7412
711.0627, 117.1123
711.5449, 106.7640
712.0270, 99.76408
712.5091, 104.0822
712.9912, 112.8113
713.4733, 115.1090
713.9554, 109.1275
714.4376, 103.3885
714.9197, 107.2397
715.4018, 117.5088
715.8839, 120.5788
716.3660, 115.0206
716.8481, 113.1778
717.3303, 121.1987
717.8124, 131.1699
718.2945, 133.4432
718.7766, 128.6359
719.2587, 125.1809
719.7408, 125.6588
720.2230, 125.3870
720.7051, 120.1576
721.1872, 114.5286
721.6693, 115.1143
722.1514, 121.7285
722.6335, 127.9590
723.1157, 129.0168
723.5978, 126.1731
724.0799, 122.2696
724.5620, 117.0774
725.0441, 113.0163
725.5262, 110.9073
726.0084, 109.3617
726.4905, 106.1957
726.9726, 102.5732
727.4547, 103.2332
727.9368, 112.1759
728.4189, 119.5269
728.9011, 121.9437
729.3832, 121.7964
729.8653, 120.6886
730.3474, 119.0715
730.8295, 117.0190
731.3116, 114.4726
731.7938, 112.3677
732.2759, 112.5321
732.7580, 114.9976
733.2401, 117.8628
733.7222, 121.4331
734.2043, 124.2461
734.6865, 125.8104
735.1686, 125.8422
735.6507, 123.3890
736.1328, 117.0273
736.6149, 113.1465
737.0970, 114.2640
737.5792, 117.1269
738.0613, 120.8208
738.5434, 124.2214
739.0255, 125.3246
739.5076, 123.5472
739.9897, 120.8380
740.4719, 119.1190
740.9540, 118.4304
741.4361, 119.1971
741.9182, 121.5844
742.4003, 124.7526
742.8824, 129.2907
743.3646, 133.4398
743.8467, 134.7746
744.3288, 133.3395
744.8109, 130.6893
745.2930, 124.1169
745.7751, 119.6545
746.2573, 121.9048
746.7394, 126.3853
747.2215, 127.5167
747.7036, 124.8136
748.1857, 121.6555
748.6678, 120.4043
749.1500, 120.6179
749.6321, 122.3829
750.1142, 125.6931
750.5963, 124.2743
751.0784, 114.6644
751.5605, 106.8070
752.0427, 110.3057
752.5248, 122.5885
753.0069, 129.1672
753.4890, 125.5891
753.9711, 123.7466
754.4532, 128.3922
754.9354, 132.3791
755.4175, 128.8245
755.8996, 120.6540
756.3817, 115.3298
756.8638, 116.0692
757.3459, 119.1458
757.8281, 119.6227
758.3102, 118.7002
758.7923, 122.3901
759.2744, 131.4308
759.7565, 136.4518
760.2386, 131.4001
760.7208, 122.7251
761.2029, 122.1660
761.6850, 133.1040
762.1671, 138.2853
762.6492, 133.5274
763.1313, 128.4704
763.6135, 125.5918
764.0956, 124.2903
764.5777, 124.0291
765.0598, 124.5651
765.5419, 125.2893
766.0240, 125.6448
766.5062, 126.1112
766.9883, 127.9681
767.4704, 130.6521
767.9525, 131.3252
768.4346, 129.2344
768.9167, 127.2900
769.3989, 128.3047
769.8810, 131.5883
770.3631, 132.8286
770.8452, 130.7214
771.3273, 128.9263
771.8094, 126.3587
772.2916, 125.4563
772.7737, 129.7215
773.2558, 136.2279
773.7379, 138.2086
774.2200, 132.4376
774.7021, 127.8382
775.1843, 132.4780
775.6664, 140.4664
776.1485, 144.4486
776.6306, 144.1240
777.1127, 140.7269
777.5948, 134.7244
778.0770, 127.8120
778.5591, 122.0304
779.0412, 117.2188
779.5233, 117.1547
780.0054, 124.6201
780.4875, 131.0127
780.9697, 133.5205
781.4518, 133.6846
781.9339, 132.4778
782.4160, 130.0605
782.8981, 127.9344
783.3802, 125.6924
783.8624, 124.7018
784.3445, 126.2258
784.8266, 129.0926
785.3087, 132.5814
785.7908, 136.0167
786.2729, 137.7326
786.7551, 136.5453
787.2372, 133.3280
787.7193, 129.0216
788.2014, 123.6813
788.6835, 121.3513
789.1656, 123.3272
789.6478, 125.1921
790.1299, 123.5711
790.6120, 120.4674
791.0941, 120.7671
791.5762, 125.1649
792.0583, 130.6715
792.5404, 143.4431
793.0225, 150.3913
793.5046, 140.0871
793.9868, 122.8781
794.4689, 111.4739
794.9510, 109.0282
795.4331, 113.1057
795.9152, 127.1746
796.3973, 142.9288
796.8795, 144.5224
797.3616, 134.6724
797.8437, 125.5721
798.3258, 120.0306
798.8079, 119.9880
799.2900, 128.5654
799.7722, 143.2445
800.2543, 149.3103
800.7364, 141.3284
801.2185, 135.8994
801.7006, 135.9769
802.1827, 137.1704
802.6649, 138.1021
803.1470, 138.5865
803.6291, 138.6175
804.1112, 138.4014
804.5933, 136.6393
805.0754, 131.1241
805.5576, 124.9992
806.0397, 120.9673
806.5218, 119.0257
807.0039, 118.7491
807.4860, 119.9551
807.9681, 122.3232
808.4503, 125.7993
808.9324, 130.0476
809.4145, 133.3712
809.8966, 135.8715
810.3787, 136.6999
810.8608, 134.9227
811.3430, 132.7372
811.8251, 132.3432
812.3072, 133.3754
812.7893, 133.2539
813.2714, 131.6157
813.7535, 129.3944
814.2357, 125.5394
814.7178, 122.2291
815.1999, 120.6921
815.6820, 120.9680
816.1641, 123.5076
816.6462, 128.5280
817.1284, 132.7512
817.6105, 132.2439
818.0926, 129.2392
818.5747, 128.1487
819.0568, 128.8056
819.5389, 128.8224
820.0211, 127.2766
820.5032, 126.3857
820.9853, 129.2143
821.4674, 135.2927
821.9495, 136.8078
822.4316, 129.8725
822.9138, 126.9290
823.3959, 133.2308
823.8780, 141.0751
824.3601, 146.8838
824.8422, 150.1744
825.3243, 149.3365
825.8065, 141.9788
826.2886, 135.7119
826.7707, 134.0798
827.2528, 134.2127
827.7349, 134.5485
828.2170, 134.3879
828.6992, 131.7814
829.1813, 126.3654
829.6634, 122.7463
830.1455, 128.2861
830.6276, 139.0744
831.1097, 140.3464
831.5919, 132.2991
832.0740, 127.1985
832.5561, 129.0907
833.0382, 132.3441
833.5203, 131.1390
834.0024, 133.1382
834.4846, 135.3407
834.9667, 133.7443
835.4488, 138.5518
835.9309, 137.7442
836.4130, 135.9676
836.8951, 134.9272
837.3773, 134.8077
837.8594, 136.3008
838.3415, 139.9807
838.8236, 141.6247
839.3057, 136.8683
839.7878, 130.9293
840.2700, 128.4989
840.7521, 128.9657
841.2342, 131.4522
841.7163, 135.2151
842.1984, 137.2160
842.6805, 133.9259
843.1627, 127.7703
843.6448, 126.4733
844.1269, 130.1820
844.6090, 133.5580
845.0911, 135.7624
845.5732, 137.2651
846.0554, 138.3828
846.5375, 139.0278
847.0196, 138.9596
847.5017, 138.2899
847.9838, 136.5859
848.4659, 131.7264
848.9481, 128.3177
849.4302, 128.7818
849.9123, 131.2622
850.3944, 134.6177
850.8765, 138.1877
851.3586, 138.7108
851.8408, 131.2758
852.3229, 123.3734
852.8050, 121.3048
853.2871, 123.1523
853.7692, 127.0117
854.2513, 131.6786
854.7335, 133.3129
855.2156, 128.9678
855.6977, 123.8923
856.1798, 130.5107
856.6619, 148.1906
857.1440, 155.3335
857.6262, 148.9786
858.1083, 142.2869
858.5904, 141.3620
859.0725, 142.1258
859.5546, 137.9215
860.0367, 138.6694
860.5189, 140.7677
861.0010, 136.3070
861.4831, 137.0345
861.9652, 140.3630
862.4473, 134.3300
862.9294, 130.6457
863.4116, 129.4055
863.8937, 129.3812
864.3758, 130.2403
864.8579, 132.0808
865.3400, 137.3133
865.8221, 141.8254
866.3043, 139.0876
866.7864, 131.7215
867.2685, 127.9617
867.7506, 130.2710
868.2327, 132.7590
868.7148, 128.4676
869.1970, 120.0853
869.6791, 116.2781
870.1612, 117.0651
870.6433, 122.3695
871.1254, 133.7594
871.6075, 141.9924
872.0897, 138.6861
872.5718, 127.9695
873.0539, 123.3522
873.5360, 128.0466
874.0181, 131.4763
874.5002, 134.4736
874.9823, 135.1418
875.4644, 132.2266
875.9465, 127.0283
876.4286, 119.1711
876.9108, 109.2396
877.3929, 104.4292
877.8750, 111.4156
878.3571, 119.2575
878.8392, 122.9051
879.3214, 123.4025
879.8035, 121.1881
880.2856, 117.1014
880.7677, 112.4466
881.2498, 107.6849
881.7319, 104.8023
882.2141, 107.0574
882.6962, 113.0566
883.1783, 120.2450
883.6604, 127.9260
884.1425, 128.9844
884.6246, 120.2696
885.1068, 110.3420
885.5889, 108.8225
886.0710, 114.6004
886.5531, 119.3416
887.0352, 123.6686
887.5173, 124.9487
887.9995, 120.9900
888.4816, 116.5373
888.9637, 113.4012
889.4458, 112.1337
889.9279, 114.5151
890.4100, 122.1060
890.8922, 126.9708
891.3743, 129.6837
891.8564, 127.5021
892.3385, 113.2184
892.8206, 97.15100
893.3027, 91.48874
893.7849, 96.26800
894.2670, 103.6283
894.7491, 111.4547
895.2312, 116.5425
895.7133, 113.2924
896.1954, 106.6689
896.6776, 105.2335
897.1597, 108.5573
897.6418, 111.3266
898.1239, 111.2553
898.6060, 110.2855
899.0881, 111.2818
899.5703, 113.4327
900.0524, 111.9425
900.5345, 106.5988
901.0166, 101.4173
901.4987, 96.81441
901.9808, 94.67043
902.4630, 97.02447
902.9451, 102.6272
903.4272, 107.4979
903.9093, 114.5366
904.3914, 113.9457
904.8735, 95.45238
905.3557, 82.20211
905.8378, 86.18002
906.3199, 96.76112
906.8020, 103.6105
907.2841, 106.0321
907.7662, 105.3216
908.2484, 97.16874
908.7305, 91.80966
909.2126, 96.10987
909.6947, 102.8448
910.1768, 105.2080
910.6589, 104.1519
911.1411, 104.1724
911.6232, 106.9929
912.1053, 109.1547
912.5874, 105.4202
913.0695, 100.5909
913.5516, 103.9294
914.0338, 112.5444
914.5159, 117.2218
914.9980, 115.8576
915.4801, 111.5747
915.9622, 106.3318
916.4443, 101.3490
916.9265, 100.2499
917.4086, 103.0138
917.8907, 103.1236
918.3728, 99.58634
918.8549, 96.36874
919.3370, 95.02078
919.8192, 95.36997
920.3013, 97.59510
920.7834, 101.8064
921.2655, 103.9119
921.7476, 103.1591
922.2297, 101.5971
922.7119, 98.18840
923.1940, 95.35172
923.6761, 94.31678
924.1582, 94.89713
924.6403, 96.94542
925.1224, 100.8716
925.6046, 104.2585
926.0867, 109.6553
926.5688, 110.7939
927.0509, 98.80785
927.5330, 84.24902
928.0151, 80.22541
928.4973, 86.61816
928.9794, 94.53413
929.4615, 100.6237
929.9436, 104.0758
930.4257, 102.0454
930.9078, 98.24771
931.3900, 98.71770
931.8721, 102.5208
932.3542, 105.8226
932.8363, 107.1485
933.3184, 106.1122
933.8005, 101.6952
934.2827, 95.32780
934.7648, 89.84612
935.2469, 85.56364
935.7290, 86.93964
936.2111, 95.02100
936.6932, 100.9348
937.1754, 99.12187
937.6575, 93.30925
938.1396, 90.45857
938.6217, 90.94943
939.1038, 89.05530
939.5859, 82.53848
940.0681, 79.85532
940.5502, 85.39247
941.0323, 92.28562
941.5144, 94.81327
941.9965, 93.89477
942.4786, 93.36526
942.9608, 93.15620
943.4429, 93.45152
943.9250, 95.39693
944.4071, 96.51223
944.8892, 95.51778
945.3713, 93.34803
945.8535, 90.56874
946.3356, 87.50372
946.8177, 85.61355
947.2998, 86.61296
947.7819, 86.95846
948.2640, 83.21627
948.7462, 79.51477
949.2283, 79.76202
949.7104, 83.16603
950.1925, 88.75443
950.6746, 95.75173
951.1567, 99.05421
951.6389, 91.62678
952.1210, 81.09420
952.6031, 75.52045
953.0852, 74.88438
953.5673, 81.69947
954.0494, 94.28111
954.5316, 103.4117
955.0137, 104.1113
955.4958, 100.3263
955.9779, 96.78324
956.4600, 93.65627
956.9421, 91.71691
957.4242, 90.97067
957.9063, 92.41824
958.3884, 96.65258
958.8705, 98.99825
959.3527, 95.07433
959.8348, 87.70969
960.3169, 85.50893
960.7990, 89.50928
961.2811, 93.31507
961.7632, 97.42376
962.2454, 99.46873
962.7275, 97.37702
963.2096, 94.55307
963.6917, 95.16230
964.1738, 98.73983
964.6559, 100.0395
965.1381, 95.88297
965.6202, 94.60928
966.1023, 99.99968
966.5844, 104.2104
967.0665, 102.6630
967.5486, 98.62021
968.0308, 96.52117
968.5129, 96.64844
968.9950, 96.35285
969.4771, 93.43792
969.9592, 92.20781
970.4413, 97.64319
970.9235, 102.1587
971.4056, 97.32484
971.8877, 87.45372
972.3698, 82.20164
972.8519, 84.16116
973.3340, 86.96001
973.8162, 85.56242
974.2983, 85.04159
974.7804, 92.71026
975.2625, 102.0595
975.7446, 102.3418
976.2267, 94.87782
976.7089, 89.31079
977.1910, 90.26415
977.6731, 92.10451
978.1552, 86.78471
978.6373, 90.28576
979.1194, 82.50795
979.6016, 91.77196
980.0837, 96.56602
980.5658, 94.96856
981.0479, 92.86647
981.5300, 94.37670
982.0121, 91.67435
982.4943, 94.77731
982.9764, 89.27062
983.4585, 86.70586
983.9406, 87.17024
984.4227, 85.72208
984.9048, 80.47704
985.3870, 77.90173
985.8691, 84.96603
986.3512, 97.26414
986.8333, 99.25881
987.3154, 89.21442
987.7975, 83.10824
988.2797, 82.12051
988.7618, 83.58421
989.2439, 86.83560
989.7260, 91.54266
990.2081, 98.50256
990.6902, 106.8054
991.1724, 107.4980
991.6545, 96.31046
992.1366, 87.29333
992.6187, 80.50764
993.1008, 77.17024
993.5829, 78.39880
994.0651, 82.98959
994.5472, 91.49062
995.0293, 104.0854
995.5114, 108.7378
995.9935, 97.77192
996.4756, 89.85325
996.9578, 88.81641
997.4399, 89.88786
997.9220, 92.01938
998.4041, 93.76772
998.8862, 92.16975
999.3683, 86.82806
999.8505, 84.31369
1000.333, 89.53834
1000.815, 93.53409
1001.297, 90.92887
1001.779, 87.62746
1002.261, 89.52063
1002.743, 94.26486
1003.225, 96.42991
1003.707, 94.66355
1004.190, 91.87744
1004.672, 88.95443
1005.154, 86.14278
1005.636, 82.54049
1006.118, 79.86272
1006.600, 81.44473
1007.082, 85.64303
1007.564, 86.97997
1008.046, 83.41223
1008.529, 80.34014
1009.011, 83.20749
1009.493, 87.64940
1009.975, 88.53455
1010.457, 87.62728
1010.939, 88.39444
1011.421, 90.84480
1011.903, 92.87685
1012.385, 93.48327
1012.868, 92.74521
1013.350, 89.46790
1013.832, 85.62389
1014.314, 86.17963
1014.796, 89.19335
1015.278, 87.06395
1015.760, 79.77673
1016.242, 77.29658
1016.725, 85.80637
1017.207, 97.66824
1017.689, 102.4434
1018.171, 101.2930
1018.653, 96.62502
1019.135, 89.35075
1019.617, 85.32056
1020.099, 85.79494
1020.581, 88.56434
1021.064, 92.39693
1021.546, 96.06226
1022.028, 96.58999
1022.510, 94.41505
1022.992, 95.12988
1023.474, 98.82278
1023.956, 102.6393
1024.438, 106.1589
1024.921, 106.3814
1025.403, 100.5316
1025.885, 91.28098
1026.367, 84.07030
1026.849, 78.68626
1027.331, 81.02470
1027.813, 93.60094
1028.295, 98.44943
1028.777, 88.32108
1029.260, 77.66425
1029.742, 78.41814
1030.224, 86.98011
1030.706, 93.74134
1031.188, 99.20202
1031.670, 99.86913
1032.152, 94.13604
1032.634, 88.22958
1033.116, 83.61687
1033.599, 79.65276
1034.081, 74.81615
1034.563, 70.80012
1035.045, 73.59256
1035.527, 86.67193
1036.009, 94.51960
1036.491, 96.33578
1036.973, 94.10918
1037.456, 84.35243
1037.938, 75.88210
1038.420, 77.68838
1038.902, 86.34597
1039.384, 89.95659
1039.866, 85.42054
1040.348, 84.58804
1040.830, 92.75302
1041.313, 97.02007
1041.795, 90.07339
1042.277, 81.62826
1042.759, 78.80729
1043.241, 80.78944
1043.723, 85.75274
1044.205, 96.54607
1044.687, 102.2339
1045.169, 98.35210
1045.651, 94.60070
1046.134, 94.31406
1046.616, 94.63885
1047.098, 91.81629
1047.580, 87.80815
1048.062, 89.43176
1048.544, 100.6703
1049.026, 105.5973
1049.508, 93.44045
1049.991, 85.93021
1050.473, 96.44756
1050.955, 109.1022
1051.437, 109.9115
1051.919, 101.9885
1052.401, 95.42405
1052.883, 91.70486
1053.365, 89.04729
1053.848, 87.19211
1054.330, 86.19258
1054.812, 87.12305
1055.294, 87.99720
1055.776, 86.67266
1056.258, 83.99892
1056.740, 82.19283
1057.222, 81.63930
1057.704, 81.99534
1058.187, 83.60915
1058.669, 85.54459
1059.151, 88.39640
1059.633, 90.52625
1060.115, 90.26673
1060.597, 88.23547
1061.079, 85.57427
1061.561, 82.32394
1062.043, 80.76405
1062.526, 83.83959
1063.008, 85.99122
1063.490, 81.73781
1063.972, 78.13316
1064.454, 83.89844
1064.936, 94.41016
1065.418, 99.53928
1065.900, 97.18481
1066.383, 92.41980
1066.865, 83.92970
1067.347, 77.69898
1067.829, 76.46807
1068.311, 78.71492
1068.793, 85.56392
1069.275, 93.93932
1069.757, 98.79307
1070.240, 99.16672
1070.722, 97.47519
1071.204, 92.97305
1071.686, 88.91152
1072.168, 86.75950
1072.650, 85.69971
1073.132, 85.35720
1073.614, 85.45518
1074.096, 85.70603
1074.578, 86.03903
1075.061, 86.40325
1075.543, 86.78343
1076.025, 87.18210
1076.507, 87.79005
1076.989, 88.22933
1077.471, 87.49760
1077.953, 86.76397
1078.435, 88.91857
1078.918, 93.44376
1079.400, 94.71024
1079.882, 88.92460
1080.364, 83.11456
1080.846, 80.13041
1081.328, 78.84603
1081.810, 79.19993
1082.292, 80.25220
1082.774, 81.18227
1083.257, 81.69375
1083.739, 81.01994
1084.221, 77.86739
1084.703, 76.67258
1085.185, 82.28625
1085.667, 87.40279
1086.149, 85.25864
1086.631, 81.29887
1087.114, 83.52143
1087.596, 90.14246
1088.078, 92.36620
1088.560, 86.86958
1089.042, 80.82963
1089.524, 75.92612
1090.006, 72.80608
1090.488, 71.53394
1090.970, 72.48325
1091.453, 78.35931
1091.935, 86.32841
1092.417, 89.04934
1092.899, 84.38445
1093.381, 79.56419
1093.863, 78.96487
1094.345, 76.62011
1094.827, 65.08505
1095.309, 54.96473
1095.792, 56.94643
1096.274, 66.58562
1096.756, 74.80131
1097.238, 79.98033
1097.720, 84.17078
1098.202, 89.71854
1098.684, 91.99673
1099.166, 87.30196
1099.649, 81.04424
1100.131, 74.67255
1100.613, 70.42658
1101.095, 72.94461
1101.577, 81.70970
1102.059, 86.50465
1102.541, 83.10230
1103.023, 78.45139
1103.505, 72.02741
1103.988, 67.21131
1104.470, 65.62504
1104.952, 66.78699
1105.434, 71.16949
1105.916, 77.91268
1106.398, 83.32779
1106.880, 87.55681
1107.362, 88.76055
1107.844, 84.62682
1108.327, 80.03291
1108.809, 76.39378
1109.291, 73.38706
1109.773, 70.44423
1110.255, 67.88307
1110.737, 66.63319
1111.219, 66.74598
1111.701, 68.21117
1112.184, 72.11433
1112.666, 75.84859
1113.148, 79.52942
1113.630, 82.20113
1114.112, 82.58147
1114.594, 81.77902
1115.076, 82.34606
1115.558, 84.73978
1116.041, 83.74894
1116.523, 73.21346
1117.005, 70.06653
1117.487, 81.78338
1117.969, 92.99693
1118.451, 96.67834
1118.933, 95.68819
1119.415, 92.46872
1119.897, 87.50944
1120.380, 86.69716
1120.862, 94.73881
1121.344, 94.58274
1121.826, 80.49254
1122.308, 69.22169
1122.790, 66.61120
1123.272, 69.15288
1123.754, 74.89301
1124.236, 82.23784
1124.719, 85.74565
1125.201, 85.02955
1125.683, 81.88789
1126.165, 74.76884
1126.647, 71.34178
1127.129, 73.89600
1127.611, 79.56750
1128.093, 87.87186
1128.576, 94.55065
1129.058, 90.22939
1129.540, 75.73510
1130.022, 69.30543
1130.504, 71.59286
1130.986, 75.47124
1131.468, 80.24760
1131.950, 82.48463
1132.432, 80.16881
1132.915, 77.08007
1133.397, 78.15964
1133.879, 81.68211
1134.361, 80.89481
1134.843, 76.28194
1135.325, 73.30036
1135.807, 72.41036
1136.289, 74.74207
1136.771, 80.56133
1137.254, 85.31833
1137.736, 85.28608
1138.218, 82.25403
1138.700, 78.45069
1139.182, 74.56220
1139.664, 72.68558
1140.146, 72.86594
1140.628, 76.67955
1141.111, 83.22881
1141.593, 84.60886
1142.075, 76.54870
1142.557, 67.47570
1143.039, 68.00224
1143.521, 72.83287
1144.003, 73.30392
1144.485, 71.20010
1144.968, 69.15515
1145.450, 68.16529
1145.932, 70.30474
1146.414, 75.87770
1146.896, 81.61568
1147.378, 86.43950
1147.860, 87.97919
1148.342, 79.82401
1148.824, 70.58086
1149.307, 71.62922
1149.789, 78.60549
1150.271, 83.83318
1150.753, 85.65406
1151.235, 84.30692
1151.717, 79.14999
1152.199, 74.43710
1152.681, 72.47269
1153.163, 71.89307
1153.646, 72.25202
1154.128, 73.16894
1154.610, 74.37350
1155.092, 75.81802
1155.574, 77.51824
1156.056, 79.48722
1156.538, 81.53889
1157.020, 84.72440
1157.503, 86.39555
1157.985, 85.90705
1158.467, 83.56550
1158.949, 78.31670
1159.431, 72.11921
1159.913, 65.69642
1160.395, 59.95546
1160.877, 61.83704
1161.359, 79.39920
1161.842, 89.05813
1162.324, 86.15214
1162.806, 82.06641
1163.288, 78.61433
1163.770, 76.54311
1164.252, 76.97744
1164.734, 78.76585
1165.216, 79.28434
1165.698, 78.38366
1166.181, 78.21115
1166.663, 78.89260
1167.145, 79.91844
1167.627, 81.40099
1168.109, 82.75797
1168.591, 84.04344
1169.073, 83.80844
1169.555, 79.89405
1170.037, 73.73235
1170.520, 70.24141
1171.002, 69.44583
1171.484, 73.74818
1171.966, 82.96946
1172.448, 85.83705
1172.930, 79.48974
1173.412, 74.72038
1173.894, 79.09238
1174.377, 85.73875
1174.859, 83.23994
1175.341, 75.51472
1175.823, 72.66010
1176.305, 74.00368
1176.787, 79.00554
1177.269, 86.31068
1177.751, 91.20607
1178.234, 92.15469
1178.716, 92.21085
1179.198, 94.96423
1179.680, 95.13355
1180.162, 81.26308
1180.644, 66.05986
1181.126, 68.30904
1181.608, 80.00002
1182.090, 86.19039
1182.573, 85.39257
1183.055, 83.66513
1183.537, 83.26870
1184.019, 81.90579
1184.501, 75.91277
1184.983, 71.73230
1185.465, 75.75328
1185.947, 80.49187
1186.429, 77.88716
1186.912, 71.98222
1187.394, 71.51304
1187.876, 77.04671
1188.358, 79.68517
1188.840, 75.08530
1189.322, 72.20596
1189.804, 72.90149
1190.286, 74.18460
1190.769, 74.19991
1191.251, 75.39929
1191.733, 82.22142
1192.215, 90.57231
1192.697, 88.99551
1193.179, 75.94962
1193.661, 65.60886
1194.143, 56.60457
1194.625, 56.97376
1195.108, 70.66953
1195.590, 82.00195
1196.072, 83.11923
1196.554, 79.79187
1197.036, 78.05075
1197.518, 78.12899
1198.000, 82.83517
1198.482, 90.85605
1198.964, 87.84853
1199.447, 75.22058
1199.929, 70.98746
1200.411, 78.26856
1200.893, 83.49845
1201.375, 78.75211
1201.857, 71.77926
1202.339, 71.92383
1202.821, 75.20832
1203.304, 74.81235
1203.786, 72.99890
1204.268, 73.22429
1204.750, 75.79642
1205.232, 82.58829
1205.714, 92.28907
1206.196, 94.71992
1206.678, 81.82236
1207.161, 69.85152
1207.643, 70.69091
1208.125, 73.94633
1208.607, 72.71701
1209.089, 69.84514
1209.571, 67.93409
1210.053, 67.34061
1210.535, 68.92889
1211.017, 66.73450
1211.500, 73.69836
1211.982, 65.15611
1212.464, 60.29811
1212.946, 60.74312
1213.428, 65.56277
1213.910, 79.28704
1214.392, 91.38329
1214.874, 90.72353
1215.356, 81.19019
1215.839, 74.01577
1216.321, 68.91200
1216.803, 70.26446
1217.285, 79.81277
1217.767, 83.39518
1218.249, 77.97166
1218.731, 73.04319
1219.213, 73.17658
1219.696, 71.47193
1220.178, 75.34551
1220.660, 75.22984
1221.142, 79.95726
1221.624, 87.04357
1222.106, 87.89263
1222.588, 83.35995
1223.070, 76.31238
1223.552, 68.56928
1224.035, 65.44066
1224.517, 69.42870
1224.999, 73.35900
1225.481, 68.74245
1225.963, 64.13490
1226.445, 68.25677
1226.927, 75.62307
1227.409, 82.14027
1227.891, 86.68998
1228.374, 87.99753
1228.856, 86.39414
1229.338, 84.11387
1229.820, 81.20836
1230.302, 79.37261
1230.784, 80.20114
1231.266, 80.48508
1231.748, 80.92448
1232.231, 78.46259
1232.713, 67.41749
1233.195, 55.69995
1233.677, 55.58705
1234.159, 65.57448
1234.641, 72.13636
1235.123, 74.45033
1235.605, 77.84217
1236.088, 83.24585
1236.570, 84.36312
1237.052, 79.15506
1237.534, 73.17600
1238.016, 69.73226
1238.498, 69.38448
1238.980, 74.23034
1239.462, 81.36259
1239.944, 82.50517
1240.427, 79.49565
1240.909, 76.80895
1241.391, 75.30978
1241.873, 76.53175
1242.355, 80.30238
1242.837, 84.16911
1243.319, 87.21553
1243.801, 87.43072
1244.283, 78.84456
1244.766, 72.09595
1245.248, 79.67287
1245.730, 89.11272
1246.212, 85.88134
1246.694, 76.38238
1247.176, 73.30613
1247.658, 77.47912
1248.140, 80.85873
1248.622, 82.98579
1249.105, 82.71125
1249.587, 77.31084
1250.069, 73.93962
1250.551, 74.99634
1251.033, 77.02449
1251.515, 77.65164
1251.997, 78.62888
1252.479, 83.36618
1252.962, 90.35977
1253.444, 90.58621
1253.926, 84.16563
1254.408, 76.09145
1254.890, 67.12807
1255.372, 64.31729
1255.854, 68.98629
1256.336, 76.10365
1256.818, 82.85033
1257.301, 87.51704
1257.783, 87.66269
1258.265, 85.26323
1258.747, 81.20320
1259.229, 77.65714
1259.711, 79.99037
1260.193, 84.07650
1260.675, 80.08540
1261.157, 69.15380
1261.640, 63.42805
1262.122, 67.70409
1262.604, 71.76645
1263.086, 71.11001
1263.568, 71.59649
1264.050, 78.23268
1264.532, 82.86146
1265.014, 77.10997
1265.497, 70.31954
1265.979, 74.54041
1266.461, 86.45574
1266.943, 92.32407
1267.425, 91.84414
1267.907, 85.78801
1268.389, 73.04063
1268.871, 67.69331
1269.354, 72.32417
1269.836, 79.26681
1270.318, 85.10925
1270.800, 87.96950
1271.282, 85.23455
1271.764, 80.92620
1272.246, 82.55732
1272.728, 86.38883
1273.210, 85.88837
1273.693, 82.49660
1274.175, 78.23536
1274.657, 74.39788
1275.139, 73.69636
1275.621, 76.66997
1276.103, 78.58533
1276.585, 76.37150
1277.067, 74.61197
1277.549, 73.82585
1278.032, 75.07254
1278.514, 82.15881
1278.996, 88.23734
1279.478, 86.20119
1279.960, 79.99036
1280.442, 76.78662
1280.924, 76.59663
1281.406, 81.41477
1281.889, 78.38525
1282.371, 76.77280
1282.853, 78.99315
1283.335, 70.84763
1283.817, 74.08508
1284.299, 74.69580
1284.781, 63.21659
1285.263, 52.94115
1285.745, 57.46081
1286.228, 76.83495
##END=



