##NAMES=Isokite
##RRUFFID=R070526
##IDEAL CHEMISTRY=CaMgP^5+^O_4_F
##LOCALITY=Kjorrestad, near Bamle, Norway
##OWNER=RRUFF
##SOURCE=University of Arizona Mineral Museum
##DESCRIPTION=Colorless crystals, associated with wagnerite, R050519.
##STATUS=The identification of this mineral is confirmed by single-crystal X-ray diffraction and chemical analysis.
##URL=rruff.info/R070526
##MEASURED CHEMISTRY=Ca_1.00_Mg_1.00_(P_1.00_O_4_)(F_0.80_(OH)_0.20_)_Σ=1_ ; = light phase. The gray phase is wagnerite: Mg_2.00_(P_1.00_O_4_)(F_0.80_(OH)_0.20_)_Σ=1_ 
154.6658, 1450.047
155.1479, 1448.208
155.6300, 1444.209
156.1121, 1431.494
156.5943, 1422.884
157.0764, 1426.784
157.5585, 1441.286
158.0406, 1457.963
158.5227, 1473.572
159.0048, 1487.126
159.4870, 1495.814
159.9691, 1488.418
160.4512, 1478.157
160.9333, 1471.836
161.4154, 1469.496
161.8975, 1472.982
162.3797, 1487.622
162.8618, 1507.427
163.3439, 1515.955
163.8260, 1505.974
164.3081, 1492.093
164.7902, 1484.530
165.2724, 1483.146
165.7545, 1485.127
166.2366, 1490.591
166.7187, 1498.146
167.2008, 1504.576
167.6829, 1509.286
168.1651, 1513.406
168.6472, 1517.780
169.1293, 1522.437
169.6114, 1527.857
170.0935, 1537.202
170.5756, 1546.423
171.0578, 1548.318
171.5399, 1537.791
172.0220, 1524.095
172.5041, 1516.380
172.9862, 1514.731
173.4683, 1516.459
173.9505, 1522.414
174.4326, 1530.196
174.9147, 1536.830
175.3968, 1542.082
175.8789, 1545.396
176.3610, 1544.102
176.8432, 1536.932
177.3253, 1533.871
177.8074, 1546.168
178.2895, 1563.163
178.7716, 1572.236
179.2537, 1569.100
179.7359, 1559.287
180.2180, 1547.512
180.7001, 1532.531
181.1822, 1522.236
181.6643, 1524.959
182.1464, 1532.671
182.6286, 1537.171
183.1107, 1535.038
183.5928, 1531.616
184.0749, 1535.362
184.5570, 1548.298
185.0391, 1558.433
185.5213, 1556.828
186.0034, 1551.503
186.4855, 1550.240
186.9676, 1556.657
187.4497, 1564.114
187.9318, 1561.917
188.4140, 1547.333
188.8961, 1536.206
189.3782, 1538.502
189.8603, 1545.152
190.3424, 1548.478
190.8245, 1545.874
191.3067, 1541.431
191.7888, 1541.511
192.2709, 1547.800
192.7530, 1550.704
193.2351, 1543.001
193.7172, 1532.612
194.1994, 1525.318
194.6815, 1522.657
195.1636, 1522.937
195.6457, 1524.719
196.1278, 1528.478
196.6099, 1531.388
197.0921, 1532.034
197.5742, 1531.855
198.0563, 1532.033
198.5384, 1532.934
199.0205, 1533.316
199.5026, 1530.729
199.9848, 1524.215
200.4669, 1520.409
200.9490, 1523.859
201.4311, 1529.038
201.9132, 1532.732
202.3953, 1534.286
202.8775, 1534.594
203.3596, 1534.529
203.8417, 1534.095
204.3238, 1533.100
204.8059, 1525.800
205.2880, 1521.943
205.7702, 1531.460
206.2523, 1555.165
206.7344, 1578.395
207.2165, 1585.275
207.6986, 1574.464
208.1807, 1562.349
208.6629, 1547.915
209.1450, 1535.751
209.6271, 1529.925
210.1092, 1530.266
210.5913, 1531.538
211.0734, 1526.135
211.5556, 1513.527
212.0377, 1511.730
212.5198, 1534.916
213.0019, 1558.535
213.4840, 1567.972
213.9661, 1563.766
214.4483, 1555.624
214.9304, 1550.129
215.4125, 1547.259
215.8946, 1546.530
216.3767, 1549.539
216.8589, 1553.105
217.3410, 1555.335
217.8231, 1556.491
218.3052, 1557.820
218.7873, 1560.365
219.2694, 1563.976
219.7516, 1567.406
220.2337, 1571.018
220.7158, 1573.856
221.1979, 1575.353
221.6800, 1575.782
222.1621, 1575.892
222.6443, 1575.736
223.1264, 1575.560
223.6085, 1576.356
224.0906, 1578.021
224.5727, 1580.998
225.0548, 1590.695
225.5370, 1601.575
226.0191, 1602.090
226.5012, 1580.354
226.9833, 1546.346
227.4654, 1526.878
227.9475, 1526.141
228.4297, 1530.853
228.9118, 1536.461
229.3939, 1542.600
229.8760, 1549.029
230.3581, 1556.784
230.8402, 1563.681
231.3224, 1565.204
231.8045, 1560.021
232.2866, 1554.019
232.7687, 1549.271
233.2508, 1545.375
233.7329, 1541.951
234.2151, 1538.779
234.6972, 1536.255
235.1793, 1534.556
235.6614, 1533.488
236.1435, 1534.780
236.6256, 1543.418
237.1078, 1552.534
237.5899, 1554.434
238.0720, 1546.526
238.5541, 1535.735
239.0362, 1526.276
239.5183, 1518.205
240.0005, 1518.031
240.4826, 1535.958
240.9647, 1556.329
241.4468, 1561.767
241.9289, 1549.685
242.4110, 1534.100
242.8932, 1522.010
243.3753, 1513.897
243.8574, 1514.569
244.3395, 1530.975
244.8216, 1549.398
245.3037, 1553.099
245.7859, 1542.022
246.2680, 1534.245
246.7501, 1544.912
247.2322, 1566.299
247.7143, 1575.368
248.1964, 1564.180
248.6786, 1548.827
249.1607, 1546.507
249.6428, 1554.996
250.1249, 1562.132
250.6070, 1563.132
251.0891, 1560.377
251.5713, 1558.207
252.0534, 1541.870
252.5355, 1561.594
253.0176, 1572.802
253.4997, 1575.950
253.9818, 1546.901
254.4640, 1559.428
254.9461, 1555.293
255.4282, 1550.475
255.9103, 1568.854
256.3924, 1544.488
256.8745, 1562.499
257.3567, 1563.594
257.8388, 1572.431
258.3209, 1564.503
258.8030, 1561.753
259.2851, 1575.773
259.7672, 1580.508
260.2494, 1570.650
260.7315, 1579.979
261.2136, 1555.028
261.6957, 1560.158
262.1778, 1578.267
262.6599, 1569.252
263.1421, 1578.888
263.6242, 1581.420
264.1063, 1551.672
264.5884, 1578.063
265.0705, 1580.176
265.5526, 1557.360
266.0348, 1581.827
266.5169, 1562.448
266.9990, 1558.720
267.4811, 1566.769
267.9632, 1562.540
268.4453, 1577.670
268.9275, 1574.150
269.4096, 1568.964
269.8917, 1571.050
270.3738, 1552.530
270.8559, 1572.237
271.3380, 1565.832
271.8202, 1572.407
272.3023, 1581.923
272.7844, 1568.913
273.2665, 1579.752
273.7486, 1553.607
274.2307, 1558.407
274.7129, 1559.875
275.1950, 1581.123
275.6771, 1555.158
276.1592, 1559.099
276.6413, 1575.773
277.1234, 1574.630
277.6056, 1580.937
278.0877, 1565.190
278.5698, 1570.161
279.0519, 1569.421
279.5340, 1588.413
280.0161, 1591.828
280.4983, 1576.456
280.9804, 1561.163
281.4625, 1581.576
281.9446, 1568.147
282.4267, 1572.975
282.9088, 1558.947
283.3910, 1561.200
283.8731, 1563.195
284.3552, 1573.535
284.8373, 1558.569
285.3194, 1576.430
285.8015, 1580.136
286.2837, 1592.310
286.7658, 1599.249
287.2479, 1595.689
287.7300, 1590.618
288.2121, 1589.811
288.6942, 1593.207
289.1764, 1596.141
289.6585, 1593.618
290.1406, 1585.284
290.6227, 1577.333
291.1048, 1568.496
291.5869, 1561.530
292.0691, 1556.921
292.5512, 1554.970
293.0333, 1556.271
293.5154, 1561.615
293.9975, 1570.377
294.4796, 1581.790
294.9618, 1600.249
295.4439, 1611.810
295.9260, 1605.296
296.4081, 1590.358
296.8902, 1579.093
297.3723, 1575.858
297.8545, 1577.364
298.3366, 1580.885
298.8187, 1586.868
299.3008, 1589.386
299.7829, 1582.246
300.2650, 1573.096
300.7472, 1572.188
301.2293, 1582.473
301.7114, 1590.491
302.1935, 1581.364
302.6756, 1560.595
303.1577, 1552.674
303.6399, 1568.034
304.1220, 1589.527
304.6041, 1596.032
305.0862, 1588.243
305.5683, 1581.532
306.0504, 1580.670
306.5326, 1583.728
307.0147, 1590.068
307.4968, 1600.003
307.9789, 1606.323
308.4610, 1599.864
308.9431, 1581.600
309.4253, 1574.921
309.9074, 1592.464
310.3895, 1611.402
310.8716, 1615.738
311.3537, 1607.981
311.8358, 1599.393
312.3180, 1595.997
312.8001, 1597.171
313.2822, 1600.422
313.7643, 1613.361
314.2464, 1618.926
314.7285, 1606.768
315.2107, 1587.258
315.6928, 1574.442
316.1749, 1573.312
316.6570, 1579.640
317.1391, 1586.343
317.6212, 1594.763
318.1034, 1600.757
318.5855, 1603.931
319.0676, 1605.177
319.5497, 1603.324
320.0318, 1599.370
320.5139, 1597.428
320.9961, 1602.196
321.4782, 1614.567
321.9603, 1623.867
322.4424, 1628.951
322.9245, 1631.899
323.4066, 1633.569
323.8888, 1633.478
324.3709, 1629.726
324.8530, 1620.081
325.3351, 1608.050
325.8172, 1606.196
326.2993, 1621.130
326.7815, 1633.473
327.2636, 1638.330
327.7457, 1639.011
328.2278, 1638.520
328.7099, 1637.723
329.1920, 1635.188
329.6742, 1627.144
330.1563, 1612.961
330.6384, 1604.702
331.1205, 1607.084
331.6026, 1613.834
332.0847, 1621.531
332.5669, 1629.700
333.0490, 1636.052
333.5311, 1638.600
334.0132, 1638.439
334.4953, 1638.638
334.9774, 1639.951
335.4596, 1639.578
335.9417, 1632.055
336.4238, 1621.146
336.9059, 1617.169
337.3880, 1626.678
337.8702, 1639.887
338.3523, 1652.085
338.8344, 1662.241
339.3165, 1663.054
339.7986, 1647.562
340.2808, 1623.984
340.7629, 1614.123
341.2450, 1621.217
341.7271, 1631.796
342.2092, 1645.822
342.6913, 1659.935
343.1735, 1671.077
343.6556, 1678.309
344.1377, 1678.633
344.6198, 1666.110
345.1019, 1633.081
345.5840, 1617.621
346.0662, 1633.061
346.5483, 1652.449
347.0304, 1664.013
347.5125, 1666.540
347.9946, 1660.456
348.4767, 1644.438
348.9589, 1621.198
349.4410, 1611.456
349.9231, 1632.323
350.4052, 1646.418
350.8873, 1643.005
351.3694, 1632.642
351.8516, 1626.590
352.3337, 1628.872
352.8158, 1636.597
353.2979, 1646.108
353.7800, 1658.396
354.2621, 1668.707
354.7443, 1681.051
355.2264, 1687.434
355.7085, 1678.335
356.1906, 1656.855
356.6727, 1638.822
357.1548, 1639.358
357.6370, 1653.261
358.1191, 1658.640
358.6012, 1652.266
359.0833, 1644.749
359.5654, 1641.147
360.0475, 1640.689
360.5297, 1642.903
361.0118, 1649.159
361.4939, 1655.991
361.9760, 1660.443
362.4581, 1662.659
362.9402, 1663.873
363.4224, 1665.148
363.9045, 1664.773
364.3866, 1658.494
364.8687, 1644.477
365.3508, 1633.878
365.8329, 1630.902
366.3151, 1632.269
366.7972, 1634.828
367.2793, 1637.936
367.7614, 1640.689
368.2435, 1642.271
368.7256, 1642.612
369.2078, 1642.550
369.6899, 1640.006
370.1720, 1639.278
370.6541, 1643.459
371.1362, 1650.519
371.6183, 1656.561
372.1005, 1659.624
372.5826, 1660.768
373.0647, 1662.754
373.5468, 1666.331
374.0289, 1669.493
374.5110, 1673.408
374.9932, 1676.036
375.4753, 1675.568
375.9574, 1671.997
376.4395, 1666.990
376.9216, 1661.723
377.4037, 1656.190
377.8859, 1651.486
378.3680, 1646.574
378.8501, 1644.126
379.3322, 1647.235
379.8143, 1652.962
380.2964, 1656.105
380.7786, 1654.120
381.2607, 1649.482
381.7428, 1646.390
382.2249, 1644.969
382.7070, 1638.955
383.1891, 1621.229
383.6713, 1602.574
384.1534, 1598.111
384.6355, 1609.662
385.1176, 1622.544
385.5997, 1632.512
386.0818, 1639.472
386.5640, 1642.296
387.0461, 1640.793
387.5282, 1638.528
388.0103, 1638.303
388.4924, 1640.202
388.9745, 1643.362
389.4567, 1653.694
389.9388, 1659.028
390.4209, 1649.919
390.9030, 1632.783
391.3851, 1619.452
391.8672, 1615.246
392.3494, 1617.046
392.8315, 1618.398
393.3136, 1618.841
393.7957, 1619.671
394.2778, 1623.031
394.7599, 1625.088
395.2421, 1621.821
395.7242, 1614.292
396.2063, 1607.863
396.6884, 1607.684
397.1705, 1612.796
397.6526, 1614.929
398.1348, 1612.502
398.6169, 1609.735
399.0990, 1605.619
399.5811, 1603.034
400.0632, 1607.632
400.5453, 1623.442
401.0275, 1637.245
401.5096, 1629.684
401.9917, 1603.914
402.4738, 1591.062
402.9559, 1603.712
403.4380, 1622.398
403.9202, 1623.621
404.4023, 1609.108
404.8844, 1599.596
405.3665, 1604.295
405.8486, 1613.565
406.3307, 1617.628
406.8129, 1616.751
407.2950, 1617.147
407.7771, 1623.338
408.2592, 1633.040
408.7413, 1636.144
409.2234, 1625.668
409.7056, 1618.217
410.1877, 1617.648
410.6698, 1620.231
411.1519, 1622.924
411.6340, 1624.711
412.1161, 1624.855
412.5983, 1621.202
413.0804, 1612.150
413.5625, 1612.178
414.0446, 1635.334
414.5267, 1653.573
415.0089, 1654.813
415.4910, 1646.441
415.9731, 1641.850
416.4552, 1648.138
416.9373, 1657.882
417.4194, 1655.590
417.9016, 1638.773
418.3837, 1632.008
418.8658, 1649.122
419.3479, 1671.686
419.8300, 1682.657
420.3121, 1682.091
420.7943, 1679.515
421.2764, 1677.158
421.7585, 1676.294
422.2406, 1680.755
422.7227, 1690.678
423.2048, 1697.051
423.6870, 1691.752
424.1691, 1678.713
424.6512, 1676.739
425.1333, 1701.966
425.6154, 1717.054
426.0975, 1703.750
426.5797, 1678.606
427.0618, 1664.237
427.5439, 1665.693
428.0260, 1669.609
428.5081, 1658.010
428.9902, 1625.605
429.4724, 1607.562
429.9545, 1620.477
430.4366, 1630.342
430.9187, 1623.634
431.4008, 1606.631
431.8829, 1590.099
432.3651, 1578.615
432.8472, 1572.409
433.3293, 1574.148
433.8114, 1585.771
434.2935, 1592.563
434.7756, 1589.876
435.2578, 1582.393
435.7399, 1571.818
436.2220, 1558.954
436.7041, 1550.263
437.1862, 1552.983
437.6683, 1559.761
438.1505, 1558.761
438.6326, 1549.802
439.1147, 1542.167
439.5968, 1541.556
440.0789, 1545.857
440.5610, 1547.724
441.0432, 1544.227
441.5253, 1543.380
442.0074, 1549.891
442.4895, 1558.302
442.9716, 1563.086
443.4537, 1563.132
443.9359, 1559.514
444.4180, 1552.249
444.9001, 1540.863
445.3822, 1536.911
445.8643, 1551.204
446.3464, 1560.845
446.8286, 1556.315
447.3107, 1546.047
447.7928, 1541.977
448.2749, 1548.515
448.7570, 1556.576
449.2391, 1552.230
449.7213, 1535.518
450.2034, 1526.278
450.6855, 1530.875
451.1676, 1538.112
451.6497, 1540.859
452.1318, 1539.454
452.6140, 1534.266
453.0961, 1519.527
453.5782, 1505.708
454.0603, 1503.787
454.5424, 1511.387
455.0245, 1518.927
455.5067, 1522.704
455.9888, 1524.099
456.4709, 1525.630
456.9530, 1527.835
457.4351, 1528.800
457.9172, 1526.583
458.3994, 1524.681
458.8815, 1526.228
459.3636, 1530.321
459.8457, 1533.834
460.3278, 1534.850
460.8099, 1533.486
461.2921, 1529.824
461.7742, 1522.091
462.2563, 1515.908
462.7384, 1514.118
463.2205, 1512.917
463.7026, 1508.294
464.1848, 1500.395
464.6669, 1494.864
465.1490, 1498.630
465.6311, 1507.322
466.1132, 1508.355
466.5953, 1500.046
467.0775, 1493.296
467.5596, 1496.517
468.0417, 1504.977
468.5238, 1504.902
469.0059, 1490.170
469.4880, 1478.381
469.9702, 1479.536
470.4523, 1485.181
470.9344, 1482.442
471.4165, 1470.064
471.8986, 1459.857
472.3807, 1464.384
472.8629, 1483.695
473.3450, 1494.456
473.8271, 1489.215
474.3092, 1483.187
474.7913, 1477.698
475.2734, 1473.364
475.7556, 1471.365
476.2377, 1471.911
476.7198, 1472.198
477.2019, 1467.242
477.6840, 1457.688
478.1661, 1454.749
478.6483, 1462.104
479.1304, 1470.580
479.6125, 1474.282
480.0946, 1474.644
480.5767, 1474.160
481.0588, 1472.658
481.5410, 1471.272
482.0231, 1469.781
482.5052, 1469.061
482.9873, 1472.639
483.4694, 1481.749
483.9515, 1489.690
484.4337, 1487.493
484.9158, 1472.368
485.3979, 1464.294
485.8800, 1471.391
486.3621, 1475.531
486.8442, 1466.349
487.3264, 1450.941
487.8085, 1440.745
488.2906, 1440.338
488.7727, 1444.741
489.2548, 1447.270
489.7369, 1447.938
490.2191, 1446.090
490.7012, 1438.160
491.1833, 1432.363
491.6654, 1437.427
492.1475, 1448.384
492.6296, 1451.866
493.1118, 1437.605
493.5939, 1421.677
494.0760, 1419.206
494.5581, 1427.036
495.0402, 1434.981
495.5223, 1440.265
496.0045, 1442.346
496.4866, 1439.296
496.9687, 1428.418
497.4508, 1425.596
497.9329, 1436.725
498.4150, 1449.260
498.8972, 1461.775
499.3793, 1470.698
499.8614, 1468.596
500.3435, 1452.048
500.8256, 1430.699
501.3077, 1421.562
501.7899, 1426.851
502.2720, 1431.002
502.7541, 1432.754
503.2362, 1432.987
503.7184, 1431.082
504.2005, 1428.163
504.6826, 1427.067
505.1647, 1428.241
505.6468, 1432.213
506.1289, 1442.281
506.6111, 1456.021
507.0932, 1465.308
507.5753, 1467.792
508.0574, 1463.970
508.5395, 1452.777
509.0216, 1431.324
509.5038, 1419.075
509.9859, 1421.779
510.4680, 1427.040
510.9501, 1431.189
511.4322, 1433.853
511.9143, 1434.625
512.3964, 1433.366
512.8785, 1431.899
513.3607, 1434.662
513.8428, 1442.992
514.3249, 1442.861
514.8070, 1425.779
515.2891, 1410.420
515.7712, 1408.314
516.2534, 1415.400
516.7355, 1424.037
517.2176, 1435.714
517.6997, 1442.706
518.1818, 1433.508
518.6639, 1415.075
519.1461, 1405.932
519.6282, 1411.005
520.1103, 1421.904
520.5924, 1431.467
521.0745, 1440.572
521.5566, 1436.956
522.0388, 1400.560
522.5209, 1376.557
523.0030, 1387.967
523.4851, 1415.034
523.9672, 1433.496
524.4493, 1436.061
524.9315, 1430.607
525.4136, 1425.845
525.8957, 1421.599
526.3778, 1411.452
526.8599, 1389.229
527.3420, 1374.116
527.8242, 1383.614
528.3063, 1405.411
528.7884, 1420.804
529.2705, 1427.139
529.7526, 1428.247
530.2347, 1421.822
530.7169, 1413.117
531.1990, 1411.770
531.6811, 1418.408
532.1632, 1423.448
532.6453, 1418.171
533.1274, 1404.390
533.6096, 1398.478
534.0917, 1408.031
534.5738, 1415.408
535.0559, 1417.569
535.5380, 1417.657
536.0201, 1418.940
536.5023, 1421.339
536.9844, 1421.428
537.4665, 1413.357
537.9486, 1401.868
538.4307, 1401.971
538.9128, 1415.390
539.3950, 1425.194
539.8771, 1423.624
540.3592, 1415.323
540.8413, 1406.507
541.3234, 1395.290
541.8055, 1391.818
542.2877, 1407.103
542.7698, 1423.610
543.2519, 1425.666
543.7340, 1416.393
544.2161, 1408.124
544.6982, 1407.540
545.1804, 1411.338
545.6625, 1411.619
546.1446, 1405.937
546.6267, 1404.411
547.1088, 1414.500
547.5909, 1422.329
548.0731, 1417.902
548.5552, 1405.728
549.0373, 1398.092
549.5194, 1402.177
550.0015, 1408.618
550.4836, 1406.710
550.9658, 1399.211
551.4479, 1396.474
551.9300, 1401.521
552.4121, 1408.213
552.8942, 1409.680
553.3763, 1405.311
553.8585, 1405.364
554.3406, 1417.061
554.8227, 1423.859
555.3048, 1416.117
555.7869, 1403.768
556.2690, 1399.711
556.7512, 1406.316
557.2333, 1414.115
557.7154, 1412.479
558.1975, 1403.146
558.6796, 1397.766
559.1617, 1397.784
559.6439, 1396.758
560.1260, 1390.299
560.6081, 1381.840
561.0902, 1377.531
561.5723, 1378.643
562.0544, 1379.359
562.5366, 1377.610
563.0187, 1374.854
563.5008, 1370.774
563.9829, 1366.645
564.4650, 1367.023
564.9471, 1374.981
565.4293, 1386.743
565.9114, 1392.822
566.3935, 1391.846
566.8756, 1388.861
567.3577, 1378.707
567.8398, 1371.804
568.3220, 1374.339
568.8041, 1384.184
569.2862, 1396.187
569.7683, 1411.463
570.2504, 1423.089
570.7325, 1422.372
571.2147, 1412.449
571.6968, 1402.710
572.1789, 1395.457
572.6610, 1387.019
573.1431, 1371.873
573.6252, 1350.070
574.1074, 1343.815
574.5895, 1369.861
575.0716, 1389.631
575.5537, 1393.507
576.0358, 1389.370
576.5179, 1382.978
577.0001, 1376.383
577.4822, 1371.990
577.9643, 1372.361
578.4464, 1376.317
578.9285, 1381.918
579.4106, 1389.928
579.8928, 1391.766
580.3749, 1381.012
580.8570, 1365.756
581.3391, 1359.745
581.8212, 1364.146
582.3033, 1366.475
582.7855, 1362.605
583.2676, 1358.533
583.7497, 1357.505
584.2318, 1359.192
584.7140, 1363.112
585.1961, 1368.985
585.6782, 1374.577
586.1603, 1375.455
586.6425, 1370.935
587.1246, 1371.057
587.6067, 1379.958
588.0888, 1386.821
588.5709, 1381.496
589.0530, 1371.956
589.5352, 1372.092
590.0173, 1388.854
590.4994, 1399.167
590.9815, 1385.240
591.4636, 1362.645
591.9457, 1351.282
592.4279, 1351.714
592.9100, 1353.137
593.3921, 1348.530
593.8742, 1340.478
594.3563, 1336.384
594.8384, 1336.522
595.3206, 1340.027
595.8027, 1355.367
596.2848, 1366.176
596.7669, 1357.803
597.2490, 1338.308
597.7311, 1330.392
598.2133, 1349.107
598.6954, 1369.879
599.1775, 1365.034
599.6596, 1345.136
600.1417, 1341.291
600.6238, 1359.877
601.1060, 1376.467
601.5881, 1367.182
602.0702, 1335.689
602.5523, 1324.307
603.0344, 1355.546
603.5165, 1377.089
603.9987, 1379.995
604.4808, 1374.667
604.9629, 1365.799
605.4450, 1355.959
605.9271, 1350.672
606.4092, 1355.143
606.8914, 1364.279
607.3735, 1372.666
607.8556, 1379.591
608.3377, 1378.475
608.8198, 1366.157
609.3019, 1349.826
609.7841, 1337.029
610.2662, 1327.974
610.7483, 1320.207
611.2304, 1312.881
611.7125, 1307.737
612.1946, 1306.183
612.6768, 1306.512
613.1589, 1307.954
613.6410, 1309.759
614.1231, 1309.248
614.6052, 1301.616
615.0873, 1290.690
615.5695, 1289.456
616.0516, 1298.584
616.5337, 1304.088
617.0158, 1300.112
617.4979, 1291.452
617.9800, 1283.885
618.4622, 1276.950
618.9443, 1274.279
619.4264, 1277.896
619.9085, 1283.724
620.3906, 1293.128
620.8727, 1302.298
621.3549, 1305.787
621.8370, 1302.237
622.3191, 1295.091
622.8012, 1286.031
623.2833, 1276.055
623.7654, 1270.697
624.2476, 1270.081
624.7297, 1274.103
625.2118, 1286.423
625.6939, 1300.187
626.1760, 1302.701
626.6581, 1292.465
627.1403, 1283.604
627.6224, 1274.531
628.1045, 1270.805
628.5866, 1283.328
629.0687, 1301.517
629.5508, 1304.208
630.0330, 1284.697
630.5151, 1261.178
630.9972, 1258.394
631.4793, 1274.203
631.9614, 1280.951
632.4435, 1275.375
632.9257, 1271.582
633.4078, 1278.602
633.8899, 1289.421
634.3720, 1290.627
634.8541, 1279.357
635.3362, 1272.934
635.8184, 1276.415
636.3005, 1284.142
636.7826, 1297.998
637.2647, 1312.087
637.7468, 1313.484
638.2289, 1297.567
638.7111, 1277.054
639.1932, 1269.547
639.6753, 1274.346
640.1574, 1275.969
640.6395, 1272.555
641.1216, 1271.354
641.6038, 1279.441
642.0859, 1289.502
642.5680, 1287.531
643.0501, 1270.302
643.5322, 1255.953
644.0143, 1248.857
644.4965, 1245.137
644.9786, 1242.500
645.4607, 1241.124
645.9428, 1243.005
646.4249, 1248.741
646.9070, 1253.551
647.3892, 1248.573
647.8713, 1234.839
648.3534, 1231.172
648.8355, 1241.175
649.3176, 1250.062
649.7997, 1251.095
650.2819, 1246.863
650.7640, 1241.385
651.2461, 1233.865
651.7282, 1228.868
652.2103, 1226.016
652.6924, 1227.020
653.1746, 1238.897
653.6567, 1253.946
654.1388, 1256.055
654.6209, 1240.126
655.1030, 1221.056
655.5851, 1218.535
656.0673, 1229.911
656.5494, 1233.946
657.0315, 1229.495
657.5136, 1221.554
657.9957, 1208.839
658.4778, 1196.907
658.9600, 1197.219
659.4421, 1212.970
659.9242, 1223.014
660.4063, 1221.928
660.8884, 1218.594
661.3705, 1216.854
661.8527, 1216.184
662.3348, 1216.210
662.8169, 1216.495
663.2990, 1214.395
663.7811, 1201.824
664.2632, 1184.475
664.7454, 1188.035
665.2275, 1214.404
665.7096, 1235.694
666.1917, 1240.430
666.6738, 1235.751
667.1559, 1230.864
667.6381, 1225.195
668.1202, 1222.565
668.6023, 1228.539
669.0844, 1230.977
669.5665, 1221.662
670.0486, 1208.539
670.5308, 1201.571
671.0129, 1202.338
671.4950, 1204.827
671.9771, 1206.613
672.4592, 1205.832
672.9413, 1194.868
673.4235, 1175.336
673.9056, 1165.343
674.3877, 1171.821
674.8698, 1185.037
675.3519, 1194.317
675.8340, 1199.499
676.3162, 1203.513
676.7983, 1209.506
677.2804, 1210.235
677.7625, 1199.235
678.2446, 1186.210
678.7267, 1180.207
679.2089, 1181.219
679.6910, 1182.514
680.1731, 1178.824
680.6552, 1175.358
681.1373, 1180.379
681.6194, 1190.674
682.1016, 1196.295
682.5837, 1194.931
683.0658, 1190.999
683.5479, 1188.539
684.0300, 1187.032
684.5121, 1182.535
684.9943, 1171.954
685.4764, 1164.484
685.9585, 1164.020
686.4406, 1164.759
686.9227, 1162.306
687.4048, 1158.101
687.8870, 1157.311
688.3691, 1163.850
688.8512, 1170.028
689.3333, 1169.781
689.8154, 1166.730
690.2975, 1167.091
690.7797, 1170.677
691.2618, 1171.034
691.7439, 1163.381
692.2260, 1152.675
692.7081, 1152.506
693.1902, 1165.628
693.6724, 1171.822
694.1545, 1166.469
694.6366, 1158.854
695.1187, 1152.478
695.6008, 1148.275
696.0829, 1148.935
696.5651, 1157.488
697.0472, 1163.226
697.5293, 1160.423
698.0114, 1156.267
698.4935, 1156.763
698.9756, 1160.372
699.4578, 1162.709
699.9399, 1161.997
700.4220, 1160.028
700.9041, 1158.180
701.3862, 1156.818
701.8683, 1159.573
702.3505, 1167.490
702.8326, 1169.627
703.3147, 1158.419
703.7968, 1143.282
704.2789, 1140.552
704.7610, 1155.251
705.2432, 1160.256
705.7253, 1144.958
706.2074, 1133.157
706.6895, 1135.045
707.1716, 1142.999
707.6537, 1149.360
708.1359, 1152.419
708.6180, 1152.642
709.1001, 1148.690
709.5822, 1143.181
710.0643, 1139.528
710.5464, 1137.354
711.0286, 1135.025
711.5107, 1132.099
711.9928, 1130.735
712.4749, 1133.455
712.9570, 1139.522
713.4391, 1142.658
713.9213, 1142.211
714.4034, 1140.123
714.8855, 1132.020
715.3676, 1126.837
715.8497, 1135.669
716.3318, 1152.634
716.8140, 1157.957
717.2961, 1140.609
717.7782, 1122.513
718.2603, 1112.137
718.7424, 1107.915
719.2245, 1110.536
719.7067, 1117.876
720.1888, 1124.517
720.6709, 1127.608
721.1530, 1127.368
721.6351, 1121.876
722.1172, 1111.763
722.5994, 1109.688
723.0815, 1118.379
723.5636, 1126.864
724.0457, 1129.344
724.5278, 1128.157
725.0099, 1128.261
725.4921, 1131.614
725.9742, 1130.244
726.4563, 1119.404
726.9384, 1109.141
727.4205, 1101.757
727.9026, 1098.253
728.3848, 1101.622
728.8669, 1111.623
729.3490, 1119.703
729.8311, 1118.309
730.3132, 1112.862
730.7953, 1110.367
731.2775, 1110.159
731.7596, 1110.316
732.2417, 1110.261
732.7238, 1108.329
733.2059, 1102.122
733.6880, 1092.883
734.1702, 1089.688
734.6523, 1094.776
735.1344, 1099.638
735.6165, 1102.578
736.0986, 1105.238
736.5807, 1109.866
737.0629, 1115.220
737.5450, 1117.240
738.0271, 1112.245
738.5092, 1109.490
738.9913, 1115.178
739.4734, 1121.852
739.9556, 1122.889
740.4377, 1119.144
740.9198, 1114.416
741.4019, 1110.410
741.8840, 1106.017
742.3661, 1098.195
742.8483, 1088.831
743.3304, 1086.193
743.8125, 1090.701
744.2946, 1093.582
744.7767, 1090.335
745.2589, 1085.768
745.7410, 1087.594
746.2231, 1097.101
746.7052, 1103.712
747.1873, 1106.884
747.6694, 1107.747
748.1516, 1105.718
748.6337, 1102.169
749.1158, 1097.894
749.5979, 1093.126
750.0800, 1088.554
750.5621, 1081.260
751.0443, 1077.760
751.5264, 1087.102
752.0085, 1100.282
752.4906, 1103.360
752.9727, 1096.293
753.4548, 1089.544
753.9370, 1089.877
754.4191, 1094.231
754.9012, 1097.777
755.3833, 1100.414
755.8654, 1098.993
756.3475, 1092.107
756.8297, 1086.735
757.3118, 1086.981
757.7939, 1091.039
758.2760, 1095.453
758.7581, 1101.670
759.2402, 1103.823
759.7224, 1100.201
760.2045, 1094.829
760.6866, 1085.395
761.1687, 1076.997
761.6508, 1076.632
762.1329, 1084.675
762.6151, 1092.699
763.0972, 1096.487
763.5793, 1098.585
764.0614, 1102.853
764.5435, 1106.482
765.0256, 1103.443
765.5078, 1093.252
765.9899, 1080.202
766.4720, 1066.353
766.9541, 1055.159
767.4362, 1057.927
767.9183, 1075.095
768.4005, 1087.642
768.8826, 1093.695
769.3647, 1091.882
769.8468, 1077.679
770.3289, 1057.446
770.8110, 1048.734
771.2932, 1057.229
771.7753, 1064.468
772.2574, 1072.428
772.7395, 1076.950
773.2216, 1072.268
773.7037, 1065.273
774.1859, 1066.542
774.6680, 1077.272
775.1501, 1084.318
775.6322, 1075.387
776.1143, 1064.926
776.5964, 1067.087
777.0786, 1076.628
777.5607, 1084.847
778.0428, 1089.304
778.5249, 1089.105
779.0070, 1082.932
779.4891, 1073.149
779.9713, 1064.321
780.4534, 1056.443
780.9355, 1055.294
781.4176, 1064.036
781.8997, 1067.231
782.3818, 1050.891
782.8640, 1026.476
783.3461, 1024.529
783.8282, 1058.231
784.3103, 1080.450
784.7924, 1088.075
785.2745, 1088.198
785.7567, 1077.878
786.2388, 1064.186
786.7209, 1054.524
787.2030, 1049.857
787.6851, 1048.665
788.1672, 1053.913
788.6494, 1058.680
789.1315, 1056.946
789.6136, 1052.275
790.0957, 1049.813
790.5778, 1050.276
791.0599, 1051.674
791.5421, 1052.619
792.0242, 1054.022
792.5063, 1059.236
792.9884, 1066.883
793.4705, 1066.933
793.9526, 1057.891
794.4348, 1051.872
794.9169, 1056.238
795.3990, 1065.405
795.8811, 1068.304
796.3632, 1063.103
796.8453, 1061.465
797.3275, 1066.454
797.8096, 1070.189
798.2917, 1068.337
798.7738, 1065.393
799.2559, 1065.890
799.7380, 1069.593
800.2202, 1072.102
800.7023, 1074.988
801.1844, 1073.465
801.6665, 1060.697
802.1486, 1046.457
802.6307, 1040.071
803.1129, 1040.999
803.5950, 1044.912
804.0771, 1050.630
804.5592, 1053.924
805.0413, 1046.904
805.5234, 1035.718
806.0056, 1034.032
806.4877, 1040.932
806.9698, 1046.737
807.4519, 1047.614
807.9340, 1046.596
808.4161, 1047.332
808.8983, 1049.697
809.3804, 1053.385
809.8625, 1059.804
810.3446, 1060.254
810.8267, 1049.516
811.3088, 1038.417
811.7910, 1037.859
812.2731, 1045.243
812.7552, 1045.375
813.2373, 1023.943
813.7194, 1016.896
814.2015, 1042.678
814.6837, 1064.691
815.1658, 1058.848
815.6479, 1038.463
816.1300, 1024.350
816.6121, 1020.537
817.0942, 1025.210
817.5764, 1049.441
818.0585, 1070.367
818.5406, 1063.209
819.0227, 1042.282
819.5048, 1032.213
819.9869, 1036.880
820.4691, 1044.579
820.9512, 1047.403
821.4333, 1047.141
821.9154, 1047.362
822.3975, 1047.287
822.8796, 1041.576
823.3618, 1029.767
823.8439, 1021.988
824.3260, 1024.488
824.8081, 1031.527
825.2902, 1031.577
825.7723, 1023.172
826.2545, 1021.794
826.7366, 1031.890
827.2187, 1038.193
827.7008, 1034.637
828.1829, 1026.475
828.6650, 1015.916
829.1472, 1003.776
829.6293, 1003.452
830.1114, 1028.990
830.5935, 1046.920
831.0756, 1050.016
831.5577, 1045.603
832.0399, 1033.275
832.5220, 1018.563
833.0041, 1012.541
833.4862, 1019.255
833.9683, 1026.643
834.4504, 1028.482
834.9326, 1027.203
835.4147, 1023.020
835.8968, 1018.188
836.3789, 1017.388
836.8610, 1021.190
837.3431, 1025.222
837.8253, 1026.585
838.3074, 1025.114
838.7895, 1018.754
839.2716, 1008.949
839.7537, 1002.500
840.2358, 1000.403
840.7180, 1001.628
841.2001, 1006.140
841.6822, 1011.239
842.1643, 1010.938
842.6464, 1004.305
843.1285, 1001.383
843.6107, 1002.877
844.0928, 1006.337
844.5749, 1012.848
845.0570, 1018.528
845.5391, 1018.859
846.0212, 1014.038
846.5034, 1008.881
846.9855, 1000.388
847.4676, 995.9220
847.9497, 999.6602
848.4318, 1004.113
848.9139, 1006.393
849.3961, 1005.721
849.8782, 999.5480
850.3603, 985.9152
850.8424, 977.5727
851.3245, 982.6375
851.8066, 991.7844
852.2888, 1001.289
852.7709, 1009.116
853.2530, 1012.917
853.7351, 1012.445
854.2172, 1008.575
854.6993, 1000.242
855.1815, 992.3317
855.6636, 993.3572
856.1457, 998.5168
856.6278, 995.2175
857.1099, 984.2405
857.5920, 977.5750
858.0742, 980.9053
858.5563, 989.2838
859.0384, 997.6960
859.5205, 1005.341
860.0026, 1006.269
860.4847, 1000.359
860.9669, 987.7556
861.4490, 965.3221
861.9311, 949.9166
862.4132, 958.3421
862.8953, 983.9393
863.3774, 999.6904
863.8596, 1005.327
864.3417, 1000.824
864.8238, 975.9379
865.3059, 956.5817
865.7880, 958.0323
866.2701, 969.6002
866.7523, 976.7142
867.2344, 979.3027
867.7165, 978.5203
868.1986, 972.7460
868.6807, 965.8843
869.1628, 955.3364
869.6450, 947.1938
870.1271, 947.7374
870.6092, 954.8130
871.0913, 961.9883
871.5734, 967.7261
872.0555, 972.1902
872.5377, 976.1997
873.0198, 978.3303
873.5019, 975.5749
873.9840, 970.6894
874.4661, 969.7977
874.9482, 973.2871
875.4304, 973.4434
875.9125, 961.9387
876.3946, 948.6204
876.8767, 946.3757
877.3588, 952.4496
877.8409, 963.7141
878.3231, 977.7824
878.8052, 985.1191
879.2873, 980.8228
879.7694, 971.9226
880.2515, 967.9327
880.7336, 968.1029
881.2158, 968.0447
881.6979, 967.7680
882.1800, 969.3353
882.6621, 973.9333
883.1442, 975.4969
883.6263, 967.9998
884.1085, 954.4845
884.5906, 944.8327
885.0727, 938.1230
885.5548, 940.9966
886.0369, 960.8072
886.5190, 973.2286
887.0012, 962.1542
887.4833, 944.0229
887.9654, 942.9711
888.4475, 960.5416
888.9296, 969.2896
889.4117, 962.7418
889.8939, 956.4337
890.3760, 950.0978
890.8581, 946.3730
891.3402, 948.2192
891.8223, 953.5910
892.3044, 958.0444
892.7866, 960.8057
893.2687, 963.7495
893.7508, 966.7564
894.2329, 970.7648
894.7150, 978.0380
895.1971, 985.4353
895.6793, 991.1199
896.1614, 993.6569
896.6435, 988.2396
897.1256, 967.8466
897.6077, 950.3288
898.0898, 952.5088
898.5720, 960.0403
899.0541, 954.8889
899.5362, 942.5410
900.0183, 938.7725
900.5004, 947.7432
900.9825, 958.7595
901.4647, 964.5510
901.9468, 965.8458
902.4289, 960.9293
902.9110, 953.0397
903.3931, 950.7643
903.8752, 954.4250
904.3574, 958.3976
904.8395, 959.7462
905.3216, 959.2877
905.8037, 957.7078
906.2858, 955.3370
906.7679, 952.5704
907.2501, 949.7513
907.7322, 952.7866
908.2143, 963.5676
908.6964, 973.4333
909.1785, 974.7753
909.6606, 970.7305
910.1428, 970.8137
910.6249, 975.5497
911.1070, 978.5283
911.5891, 979.5092
912.0712, 978.3734
912.5533, 975.0110
913.0355, 969.3374
913.5176, 959.9413
913.9998, 947.4163
914.4819, 943.7045
914.9640, 953.5639
915.4461, 960.7450
915.9282, 963.1616
916.4103, 962.8835
916.8925, 959.2354
917.3746, 954.6367
917.8567, 954.5630
918.3388, 961.1373
918.8209, 961.9553
919.3030, 949.8694
919.7852, 941.7697
920.2673, 942.6774
920.7494, 947.4848
921.2315, 954.5592
921.7136, 962.2578
922.1957, 966.4883
922.6779, 966.4359
923.1600, 963.6703
923.6421, 956.1110
924.1242, 948.6808
924.6063, 941.4016
925.0884, 937.1817
925.5706, 941.3809
926.0527, 952.4253
926.5348, 960.1902
927.0169, 959.1233
927.4990, 958.0776
927.9811, 964.6452
928.4633, 970.2175
928.9454, 964.0412
929.4275, 952.6320
929.9096, 948.6690
930.3917, 954.5867
930.8738, 962.3315
931.3560, 968.6509
931.8381, 972.7978
932.3202, 971.0940
932.8023, 968.6902
933.2844, 976.4022
933.7665, 990.0543
934.2487, 993.4225
934.7308, 980.4830
935.2129, 965.8053
935.6950, 962.1323
936.1771, 965.5505
936.6592, 973.3150
937.1414, 982.6183
937.6235, 984.8613
938.1056, 980.5051
938.5877, 980.4507
939.0698, 991.2385
939.5519, 1003.658
940.0341, 1003.325
940.5162, 995.2477
940.9983, 993.4731
941.4804, 997.3480
941.9625, 1000.440
942.4446, 1001.538
942.9268, 1008.780
943.4089, 1029.648
943.8910, 1055.668
944.3731, 1067.090
944.8552, 1066.355
945.3373, 1073.011
945.8195, 1087.921
946.3016, 1101.041
946.7837, 1108.566
947.2658, 1118.090
947.7479, 1138.028
948.2300, 1164.643
948.7122, 1183.286
949.1943, 1193.505
949.6764, 1205.410
950.1585, 1219.465
950.6406, 1239.127
951.1227, 1267.774
951.6049, 1295.763
952.0870, 1309.036
952.5691, 1310.068
953.0512, 1326.135
953.5333, 1363.347
954.0154, 1385.820
954.4976, 1384.797
954.9797, 1380.800
955.4618, 1384.474
955.9439, 1392.775
956.4260, 1404.525
956.9081, 1421.445
957.3903, 1401.534
957.8724, 1326.195
958.3545, 1260.973
958.8366, 1219.433
959.3187, 1185.897
959.8008, 1149.977
960.2830, 1115.444
960.7651, 1091.420
961.2472, 1079.911
961.7293, 1069.202
962.2114, 1062.296
962.6935, 1050.679
963.1757, 1025.329
963.6578, 1003.045
964.1399, 1000.506
964.6220, 1010.117
965.1041, 1008.621
965.5862, 988.9437
966.0684, 977.6317
966.5505, 981.5639
967.0326, 984.8492
967.5147, 983.1453
967.9968, 979.5980
968.4789, 976.7421
968.9611, 974.3126
969.4432, 971.0757
969.9253, 966.5894
970.4074, 962.1423
970.8895, 957.6874
971.3716, 953.4717
971.8538, 947.0359
972.3359, 942.7846
972.8180, 948.9944
973.3001, 962.4918
973.7822, 965.3981
974.2643, 946.3470
974.7465, 934.1091
975.2286, 938.1224
975.7107, 944.4822
976.1928, 948.3387
976.6749, 949.7330
977.1570, 948.4645
977.6392, 944.9200
978.1213, 941.5129
978.6034, 938.2384
979.0855, 936.0198
979.5676, 933.2146
980.0497, 933.5488
980.5319, 942.7634
981.0140, 954.3403
981.4961, 959.2938
981.9782, 957.2209
982.4603, 955.1451
982.9424, 956.7997
983.4246, 956.0502
983.9067, 944.7514
984.3888, 936.7253
984.8709, 946.0081
985.3530, 962.5219
985.8351, 969.9255
986.3173, 966.5833
986.7994, 964.0585
987.2815, 968.5786
987.7636, 971.5642
988.2457, 968.9420
988.7278, 964.3801
989.2100, 958.8183
989.6921, 954.1423
990.1742, 954.7084
990.6563, 960.6154
991.1384, 961.9891
991.6205, 948.4922
992.1027, 938.2191
992.5848, 941.2711
993.0669, 948.8575
993.5490, 956.6525
994.0311, 962.4551
994.5132, 962.3561
994.9954, 955.9628
995.4775, 951.5648
995.9596, 952.7856
996.4417, 956.5161
996.9238, 963.7377
997.4059, 970.5608
997.8881, 973.1194
998.3702, 972.8325
998.8523, 973.2810
999.3344, 975.1239
999.8165, 974.4659
1000.299, 965.8034
1000.781, 959.0357
1001.263, 960.3912
1001.745, 964.8730
1002.227, 968.5906
1002.709, 971.6585
1003.191, 976.1413
1003.673, 982.3378
1004.156, 984.8198
1004.638, 977.8287
1005.120, 970.7854
1005.602, 967.4654
1006.084, 967.0627
1006.566, 969.9514
1007.048, 974.7142
1007.530, 979.7396
1008.013, 984.5894
1008.495, 985.9614
1008.977, 980.8809
1009.459, 973.9595
1009.941, 964.7349
1010.423, 957.1312
1010.905, 954.6646
1011.387, 956.4852
1011.869, 960.9083
1012.352, 967.5092
1012.834, 974.6772
1013.316, 985.0886
1013.798, 991.5978
1014.280, 984.7355
1014.762, 978.2691
1015.244, 988.1552
1015.726, 1005.392
1016.208, 1010.723
1016.691, 1000.833
1017.173, 992.7132
1017.655, 993.3110
1018.137, 995.6385
1018.619, 999.7685
1019.101, 1001.764
1019.583, 993.4814
1020.065, 983.0612
1020.548, 988.8333
1021.030, 1012.911
1021.512, 1024.333
1021.994, 996.4990
1022.476, 978.2739
1022.958, 999.2503
1023.440, 1022.299
1023.922, 1017.987
1024.404, 999.4913
1024.887, 988.9530
1025.369, 989.1946
1025.851, 992.2158
1026.333, 1000.242
1026.815, 1004.877
1027.297, 1000.388
1027.779, 995.6454
1028.261, 997.6776
1028.744, 1002.045
1029.226, 1002.234
1029.708, 997.7756
1030.190, 992.0436
1030.672, 980.7058
1031.154, 975.4556
1031.636, 984.9675
1032.118, 993.4146
1032.600, 988.8587
1033.083, 980.8477
1033.565, 983.4470
1034.047, 996.1545
1034.529, 1003.746
1035.011, 999.9596
1035.493, 998.8535
1035.975, 1004.534
1036.457, 1009.370
1036.939, 1010.667
1037.422, 1009.192
1037.904, 1003.841
1038.386, 995.6847
1038.868, 993.3106
1039.350, 1005.429
1039.832, 1007.545
1040.314, 988.5770
1040.796, 975.7557
1041.279, 981.4072
1041.761, 993.7008
1042.243, 1002.331
1042.725, 1007.879
1043.207, 1013.086
1043.689, 1018.491
1044.171, 1022.273
1044.653, 1025.570
1045.135, 1024.359
1045.618, 1014.187
1046.100, 1004.794
1046.582, 1006.110
1047.064, 1013.555
1047.546, 1012.026
1048.028, 997.4563
1048.510, 996.3296
1048.992, 1014.679
1049.474, 1025.703
1049.957, 1020.360
1050.439, 1013.579
1050.921, 1016.735
1051.403, 1024.715
1051.885, 1025.423
1052.367, 1018.362
1052.849, 1018.862
1053.331, 1027.639
1053.814, 1040.093
1054.296, 1056.746
1054.778, 1066.313
1055.260, 1060.944
1055.742, 1048.911
1056.224, 1043.821
1056.706, 1044.447
1057.188, 1041.021
1057.671, 1033.763
1058.153, 1028.131
1058.635, 1024.997
1059.117, 1030.037
1059.599, 1046.599
1060.081, 1062.895
1060.563, 1063.621
1061.045, 1053.628
1061.527, 1044.431
1062.010, 1037.220
1062.492, 1038.571
1062.974, 1048.246
1063.456, 1061.620
1063.938, 1076.534
1064.420, 1086.781
1064.902, 1086.075
1065.384, 1078.998
1065.866, 1071.354
1066.349, 1064.243
1066.831, 1058.407
1067.313, 1055.492
1067.795, 1062.463
1068.277, 1079.330
1068.759, 1093.936
1069.241, 1098.135
1069.723, 1097.557
1070.206, 1094.306
1070.688, 1093.106
1071.170, 1103.755
1071.652, 1119.878
1072.134, 1129.417
1072.616, 1130.849
1073.098, 1128.070
1073.580, 1122.031
1074.063, 1117.009
1074.545, 1116.342
1075.027, 1117.549
1075.509, 1120.178
1075.991, 1122.354
1076.473, 1121.663
1076.955, 1118.620
1077.437, 1115.136
1077.919, 1111.670
1078.402, 1108.547
1078.884, 1104.904
1079.366, 1102.923
1079.848, 1104.496
1080.330, 1107.256
1080.812, 1108.792
1081.294, 1110.354
1081.776, 1115.262
1082.259, 1123.976
1082.741, 1129.687
1083.223, 1127.390
1083.705, 1127.963
1084.187, 1134.708
1084.669, 1142.875
1085.151, 1155.796
1085.633, 1164.816
1086.115, 1155.098
1086.598, 1130.010
1087.080, 1120.306
1087.562, 1133.601
1088.044, 1145.381
1088.526, 1158.825
1089.008, 1162.022
1089.490, 1144.103
1089.972, 1129.023
1090.454, 1140.342
1090.937, 1167.105
1091.419, 1176.725
1091.901, 1166.745
1092.383, 1166.070
1092.865, 1177.009
1093.347, 1176.876
1093.829, 1158.599
1094.311, 1147.680
1094.794, 1161.515
1095.276, 1182.303
1095.758, 1181.038
1096.240, 1163.085
1096.722, 1151.925
1097.204, 1147.446
1097.686, 1150.245
1098.168, 1159.773
1098.651, 1172.703
1099.133, 1187.388
1099.615, 1197.756
1100.097, 1196.739
1100.579, 1190.550
1101.061, 1187.718
1101.543, 1188.344
1102.025, 1194.888
1102.507, 1204.648
1102.990, 1209.796
1103.472, 1209.316
1103.954, 1209.163
1104.436, 1212.801
1104.918, 1217.340
1105.400, 1220.856
1105.882, 1223.684
1106.364, 1225.262
1106.846, 1226.962
1107.329, 1231.806
1107.811, 1238.382
1108.293, 1241.060
1108.775, 1237.577
1109.257, 1236.466
1109.739, 1241.258
1110.221, 1248.850
1110.703, 1264.085
1111.186, 1275.473
1111.668, 1269.857
1112.150, 1256.660
1112.632, 1252.770
1113.114, 1259.402
1113.596, 1265.471
1114.078, 1272.985
1114.560, 1275.339
1115.042, 1267.484
1115.525, 1262.010
1116.007, 1264.970
1116.489, 1270.250
1116.971, 1271.961
1117.453, 1271.068
1117.935, 1270.733
1118.417, 1270.509
1118.899, 1274.889
1119.381, 1285.674
1119.864, 1288.445
1120.346, 1278.567
1120.828, 1271.171
1121.310, 1276.312
1121.792, 1285.661
1122.274, 1285.084
1122.756, 1278.390
1123.238, 1284.050
1123.721, 1298.092
1124.203, 1296.757
1124.685, 1281.119
1125.167, 1276.466
1125.649, 1290.798
1126.131, 1303.071
1126.613, 1293.294
1127.095, 1280.118
1127.578, 1292.376
1128.060, 1312.351
1128.542, 1313.075
1129.024, 1301.914
1129.506, 1293.972
1129.988, 1292.301
1130.470, 1295.439
1130.952, 1303.713
1131.434, 1311.340
1131.917, 1315.046
1132.399, 1317.304
1132.881, 1316.542
1133.363, 1317.654
1133.845, 1328.132
1134.327, 1342.521
1134.809, 1349.342
1135.291, 1347.099
1135.773, 1345.547
1136.256, 1346.194
1136.738, 1346.904
1137.220, 1348.045
1137.702, 1348.403
1138.184, 1346.807
1138.666, 1345.252
1139.148, 1345.866
1139.630, 1348.010
1140.113, 1348.730
1140.595, 1347.035
1141.077, 1353.140
1141.559, 1368.432
1142.041, 1378.456
1142.523, 1379.930
1143.005, 1377.855
1143.487, 1374.651
1143.969, 1373.512
1144.452, 1380.668
1144.934, 1391.031
1145.416, 1386.505
1145.898, 1374.152
1146.380, 1379.713
1146.862, 1399.067
1147.344, 1407.035
1147.826, 1398.096
1148.308, 1389.099
1148.791, 1390.346
1149.273, 1395.866
1149.755, 1404.780
1150.237, 1410.925
1150.719, 1403.856
1151.201, 1393.636
1151.683, 1395.343
1152.165, 1405.703
1152.648, 1410.784
1153.130, 1406.942
1153.612, 1405.839
1154.094, 1412.760
1154.576, 1419.749
1155.058, 1424.453
1155.540, 1429.087
1156.022, 1436.591
1156.505, 1443.279
1156.987, 1444.858
1157.469, 1441.958
1157.951, 1437.286
1158.433, 1428.789
1158.915, 1426.645
1159.397, 1431.600
1159.879, 1440.776
1160.361, 1454.774
1160.844, 1463.844
1161.326, 1461.197
1161.808, 1454.089
1162.290, 1453.103
1162.772, 1456.259
1163.254, 1456.771
1163.736, 1455.944
1164.218, 1458.523
1164.700, 1464.435
1165.183, 1471.853
1165.665, 1479.963
1166.147, 1487.720
1166.629, 1494.542
1167.111, 1500.506
1167.593, 1505.997
1168.075, 1510.375
1168.557, 1514.362
1169.040, 1515.906
1169.522, 1510.682
1170.004, 1501.346
1170.486, 1492.947
1170.968, 1486.068
1171.450, 1489.733
1171.932, 1524.738
1172.414, 1541.631
1172.896, 1511.321
1173.379, 1487.858
1173.861, 1497.112
1174.343, 1516.780
1174.825, 1525.577
1175.307, 1527.230
1175.789, 1534.549
1176.271, 1548.709
1176.753, 1553.931
1177.235, 1549.582
1177.718, 1544.781
1178.200, 1541.107
1178.682, 1541.015
1179.164, 1545.714
1179.646, 1554.304
1180.128, 1567.620
1180.610, 1580.656
1181.092, 1584.683
1181.575, 1581.973
1182.057, 1572.354
1182.539, 1561.413
1183.021, 1562.021
1183.503, 1573.958
1183.985, 1586.214
1184.467, 1594.621
1184.949, 1601.263
1185.432, 1607.293
1185.914, 1611.760
1186.396, 1615.033
1186.878, 1615.687
1187.360, 1611.294
1187.842, 1604.374
1188.324, 1596.603
1188.806, 1589.093
1189.288, 1591.507
1189.771, 1611.611
1190.253, 1618.682
1190.735, 1606.594
1191.217, 1603.179
1191.699, 1617.365
1192.181, 1630.497
1192.663, 1630.368
1193.145, 1626.162
1193.627, 1633.518
1194.110, 1644.694
1194.592, 1628.273
1195.074, 1596.574
1195.556, 1593.427
1196.038, 1614.384
1196.520, 1631.185
1197.002, 1637.382
1197.484, 1642.787
1197.967, 1653.000
1198.449, 1660.437
1198.931, 1658.166
1199.413, 1652.820
1199.895, 1642.918
1200.377, 1637.750
1200.859, 1649.647
1201.341, 1670.623
1201.823, 1690.350
1202.306, 1706.998
1202.788, 1702.005
1203.270, 1651.461
1203.752, 1631.361
1204.234, 1654.785
1204.716, 1677.008
1205.198, 1688.082
1205.680, 1689.216
1206.162, 1678.828
1206.645, 1667.746
1207.127, 1673.586
1207.609, 1691.271
1208.091, 1702.549
1208.573, 1708.940
1209.055, 1719.710
1209.537, 1731.608
1210.019, 1726.242
1210.502, 1703.231
1210.984, 1685.618
1211.466, 1685.227
1211.948, 1695.905
1212.430, 1725.620
1212.912, 1749.431
1213.394, 1744.558
1213.876, 1731.228
1214.359, 1722.901
1214.841, 1721.866
1215.323, 1734.751
1215.805, 1759.382
1216.287, 1765.478
1216.769, 1738.659
1217.251, 1730.635
1217.733, 1747.145
1218.215, 1766.507
1218.698, 1786.048
1219.180, 1797.965
1219.662, 1797.080
1220.144, 1790.602
1220.626, 1787.330
1221.108, 1786.160
1221.590, 1784.737
1222.072, 1782.863
1222.554, 1776.015
1223.037, 1769.142
1223.519, 1781.339
1224.001, 1809.291
1224.483, 1822.791
1224.965, 1808.563
1225.447, 1798.180
1225.929, 1817.582
1226.411, 1834.112
1226.894, 1825.669
1227.376, 1816.338
1227.858, 1827.013
1228.340, 1842.337
1228.822, 1840.548
1229.304, 1827.538
1229.786, 1824.394
1230.268, 1832.591
1230.750, 1840.503
1231.233, 1848.604
1231.715, 1851.975
1232.197, 1849.692
1232.679, 1849.518
1233.161, 1854.663
1233.643, 1856.252
1234.125, 1844.752
1234.607, 1832.405
1235.089, 1840.223
1235.572, 1855.813
1236.054, 1861.839
1236.536, 1862.051
1237.018, 1862.223
1237.500, 1863.272
1237.982, 1864.750
1238.464, 1866.600
1238.946, 1869.877
1239.429, 1876.892
1239.911, 1881.945
1240.393, 1883.091
1240.875, 1883.501
1241.357, 1881.263
1241.839, 1884.322
1242.321, 1901.543
1242.803, 1919.818
1243.286, 1915.344
1243.768, 1895.235
1244.250, 1895.519
1244.732, 1912.451
1245.214, 1925.283
1245.696, 1932.582
1246.178, 1934.240
1246.660, 1931.418
1247.142, 1929.855
1247.625, 1932.440
1248.107, 1933.056
1248.589, 1924.654
1249.071, 1916.364
1249.553, 1913.775
1250.035, 1913.401
1250.517, 1906.774
1250.999, 1905.011
1251.481, 1931.414
1251.964, 1973.584
1252.446, 1988.597
1252.928, 1972.606
1253.410, 1962.680
1253.892, 1959.814
1254.374, 1954.791
1254.856, 1946.032
1255.338, 1948.662
1255.821, 1967.992
1256.303, 1985.739
1256.785, 1987.394
1257.267, 1984.414
1257.749, 1994.240
1258.231, 2005.495
1258.713, 2002.325
1259.195, 1992.260
1259.677, 1983.907
1260.160, 1977.610
1260.642, 1970.925
1261.124, 1964.156
1261.606, 1962.204
1262.088, 1968.534
1262.570, 1973.099
1263.052, 1973.305
1263.534, 1976.766
1264.016, 1985.866
##END=



