##NAMES=Ixiolite
##RRUFFID=R070289
##IDEAL CHEMISTRY=(Ta^5+^,Mn^2+^,Nb^5+^)O_2_
##LOCALITY=Voroni Tundra, Kola Peninsula, Russia
##OWNER=RRUFF
##SOURCE=Michael Scott
##DESCRIPTION=Semimetallic black crystal with internal brown hints, associated with quartz, spodumene and mica
##STATUS=The identification of this mineral has been confirmed only by single crystal X-ray diffraction.
##URL=rruff.info/R070289
151.5903, 1477.239
152.0724, 1497.926
152.5545, 1517.174
153.0366, 1532.732
153.5188, 1546.819
154.0009, 1563.724
154.4830, 1598.603
154.9651, 1625.791
155.4472, 1632.793
155.9293, 1599.606
156.4115, 1573.474
156.8936, 1568.099
157.3757, 1578.134
157.8578, 1584.857
158.3399, 1577.560
158.8221, 1568.287
159.3042, 1564.834
159.7863, 1574.948
160.2684, 1585.395
160.7505, 1589.899
161.2326, 1589.645
161.7148, 1593.501
162.1969, 1613.294
162.6790, 1635.953
163.1611, 1648.653
163.6432, 1638.876
164.1253, 1624.862
164.6075, 1614.582
165.0896, 1608.262
165.5717, 1606.206
166.0538, 1611.799
166.5359, 1621.227
167.0180, 1629.032
167.5002, 1629.372
167.9823, 1629.535
168.4644, 1635.954
168.9465, 1649.874
169.4286, 1664.662
169.9107, 1677.505
170.3929, 1687.675
170.8750, 1693.970
171.3571, 1691.972
171.8392, 1687.339
172.3213, 1687.097
172.8034, 1693.622
173.2856, 1699.594
173.7677, 1696.667
174.2498, 1686.953
174.7319, 1677.785
175.2140, 1672.159
175.6961, 1670.170
176.1783, 1672.998
176.6604, 1682.958
177.1425, 1693.948
177.6246, 1699.539
178.1067, 1699.808
178.5888, 1695.569
179.0710, 1681.782
179.5531, 1663.948
180.0352, 1655.556
180.5173, 1664.126
180.9994, 1679.302
181.4815, 1681.909
181.9637, 1672.402
182.4458, 1664.249
182.9279, 1673.086
183.4100, 1694.015
183.8921, 1708.482
184.3742, 1708.821
184.8564, 1700.364
185.3385, 1695.160
185.8206, 1693.346
186.3027, 1692.577
186.7848, 1690.139
187.2669, 1686.356
187.7491, 1683.606
188.2312, 1682.929
188.7133, 1683.935
189.1954, 1684.462
189.6775, 1683.958
190.1596, 1685.481
190.6418, 1696.349
191.1239, 1716.132
191.6060, 1729.846
192.0881, 1727.661
192.5702, 1711.874
193.0524, 1703.178
193.5345, 1702.786
194.0166, 1706.349
194.4987, 1706.722
194.9808, 1703.554
195.4629, 1702.497
195.9451, 1708.753
196.4272, 1722.141
196.9093, 1727.239
197.3914, 1721.377
197.8735, 1710.665
198.3556, 1706.569
198.8378, 1709.751
199.3199, 1715.303
199.8020, 1721.526
200.2841, 1728.543
200.7662, 1733.369
201.2483, 1735.237
201.7305, 1735.365
202.2126, 1736.576
202.6947, 1738.908
203.1768, 1742.184
203.6589, 1746.745
204.1410, 1752.868
204.6232, 1758.055
205.1053, 1762.168
205.5874, 1765.167
206.0695, 1766.330
206.5516, 1764.680
207.0337, 1763.764
207.5159, 1767.818
207.9980, 1779.282
208.4801, 1783.146
208.9622, 1774.859
209.4443, 1757.618
209.9264, 1747.154
210.4086, 1744.686
210.8907, 1746.566
211.3728, 1750.694
211.8549, 1758.016
212.3370, 1764.427
212.8191, 1769.096
213.3013, 1772.244
213.7834, 1776.555
214.2655, 1783.449
214.7476, 1789.229
215.2297, 1790.184
215.7118, 1784.523
216.1940, 1778.935
216.6761, 1774.240
217.1582, 1770.450
217.6403, 1768.400
218.1224, 1767.996
218.6045, 1769.475
219.0867, 1773.374
219.5688, 1780.549
220.0509, 1788.214
220.5330, 1796.552
221.0151, 1805.778
221.4972, 1810.534
221.9794, 1809.705
222.4615, 1805.712
222.9436, 1800.869
223.4257, 1794.674
223.9078, 1788.411
224.3899, 1781.130
224.8721, 1772.100
225.3542, 1771.052
225.8363, 1782.184
226.3184, 1797.299
226.8005, 1806.815
227.2827, 1808.605
227.7648, 1808.699
228.2469, 1808.748
228.7290, 1809.085
229.2111, 1806.226
229.6932, 1796.668
230.1754, 1786.781
230.6575, 1786.037
231.1396, 1801.771
231.6217, 1813.571
232.1038, 1814.441
232.5859, 1801.471
233.0681, 1793.312
233.5502, 1791.577
234.0323, 1793.496
234.5144, 1794.993
234.9965, 1794.911
235.4786, 1796.475
235.9608, 1802.108
236.4429, 1814.249
236.9250, 1818.226
237.4071, 1809.121
237.8892, 1794.867
238.3713, 1788.524
238.8535, 1795.029
239.3356, 1801.174
239.8177, 1802.355
240.2998, 1796.749
240.7819, 1793.152
241.2640, 1791.781
241.7462, 1792.234
242.2283, 1794.356
242.7104, 1800.856
243.1925, 1804.537
243.6746, 1802.318
244.1567, 1791.848
244.6389, 1783.139
245.1210, 1775.181
245.6031, 1769.567
246.0852, 1769.454
246.5673, 1776.503
247.0494, 1786.336
247.5316, 1799.315
248.0137, 1819.729
248.4958, 1827.932
248.9779, 1818.624
249.4600, 1800.014
249.9421, 1787.553
250.4243, 1783.651
250.9064, 1781.379
251.3885, 1777.677
251.8706, 1770.607
252.3527, 1768.898
252.8348, 1774.270
253.3170, 1783.905
253.7991, 1793.162
254.2812, 1803.592
254.7633, 1810.490
255.2454, 1811.567
255.7275, 1805.363
256.2097, 1798.441
256.6918, 1789.914
257.1739, 1781.357
257.6560, 1775.060
258.1381, 1769.741
258.6202, 1769.464
259.1024, 1778.560
259.5845, 1802.254
260.0666, 1812.155
260.5487, 1802.495
261.0308, 1783.389
261.5129, 1773.099
261.9951, 1774.173
262.4772, 1778.223
262.9593, 1782.635
263.4414, 1787.883
263.9235, 1791.331
264.4056, 1792.687
264.8878, 1792.545
265.3699, 1792.072
265.8520, 1791.520
266.3341, 1789.874
266.8162, 1786.001
267.2983, 1779.157
267.7805, 1775.108
268.2626, 1774.211
268.7447, 1775.773
269.2268, 1779.382
269.7089, 1786.026
270.1910, 1791.125
270.6732, 1791.658
271.1553, 1786.680
271.6374, 1787.341
272.1195, 1795.766
272.6016, 1806.726
273.0837, 1812.500
273.5659, 1813.335
274.0480, 1807.935
274.5301, 1792.019
275.0122, 1764.936
275.4943, 1750.009
275.9764, 1750.145
276.4586, 1756.970
276.9407, 1756.831
277.4228, 1748.466
277.9049, 1744.172
278.3870, 1752.746
278.8691, 1773.120
279.3513, 1778.783
279.8334, 1766.573
280.3155, 1747.779
280.7976, 1735.333
281.2798, 1729.276
281.7619, 1731.180
282.2440, 1746.265
282.7261, 1771.809
283.2082, 1786.314
283.6903, 1788.467
284.1725, 1784.402
284.6546, 1780.978
285.1367, 1778.160
285.6188, 1774.102
286.1009, 1766.406
286.5830, 1756.776
287.0652, 1754.140
287.5473, 1759.614
288.0294, 1765.565
288.5115, 1761.364
288.9936, 1748.483
289.4757, 1739.332
289.9579, 1739.814
290.4400, 1746.520
290.9221, 1751.047
291.4042, 1753.484
291.8863, 1752.642
292.3684, 1742.630
292.8506, 1726.758
293.3327, 1719.722
293.8148, 1731.804
294.2969, 1752.260
294.7790, 1758.488
295.2611, 1750.466
295.7433, 1741.172
296.2254, 1745.384
296.7075, 1757.673
297.1896, 1761.951
297.6717, 1747.784
298.1538, 1728.374
298.6360, 1725.368
299.1181, 1737.610
299.6002, 1751.726
300.0823, 1760.755
300.5644, 1764.109
301.0465, 1759.931
301.5287, 1743.581
302.0108, 1724.747
302.4929, 1715.494
302.9750, 1714.342
303.4571, 1713.329
303.9392, 1704.921
304.4214, 1694.024
304.9035, 1687.014
305.3856, 1685.722
305.8677, 1688.473
306.3498, 1698.307
306.8319, 1712.312
307.3141, 1720.335
307.7962, 1707.693
308.2783, 1690.106
308.7604, 1684.177
309.2425, 1698.070
309.7246, 1713.675
310.2068, 1720.463
310.6889, 1720.074
311.1710, 1716.923
311.6531, 1712.236
312.1352, 1706.156
312.6173, 1697.403
313.0995, 1683.171
313.5816, 1674.226
314.0637, 1678.808
314.5458, 1691.989
315.0279, 1704.479
315.5100, 1718.343
315.9922, 1726.343
316.4743, 1722.919
316.9564, 1704.770
317.4385, 1686.260
317.9206, 1668.409
318.4027, 1653.869
318.8849, 1646.352
319.3670, 1653.271
319.8491, 1661.739
320.3312, 1668.125
320.8133, 1672.580
321.2954, 1672.246
321.7776, 1660.088
322.2597, 1645.366
322.7418, 1637.948
323.2239, 1649.965
323.7060, 1658.723
324.1881, 1655.959
324.6703, 1639.976
325.1524, 1631.549
325.6345, 1639.509
326.1166, 1651.736
326.5987, 1658.571
327.0808, 1657.466
327.5630, 1653.840
328.0451, 1646.273
328.5272, 1635.145
329.0093, 1628.788
329.4914, 1629.448
329.9735, 1632.949
330.4557, 1636.823
330.9378, 1641.869
331.4199, 1645.951
331.9020, 1649.272
332.3841, 1651.583
332.8662, 1651.060
333.3484, 1644.915
333.8305, 1640.177
334.3126, 1641.153
334.7947, 1649.861
335.2768, 1658.378
335.7589, 1667.534
336.2411, 1675.593
336.7232, 1677.152
337.2053, 1669.642
337.6874, 1663.104
338.1695, 1662.595
338.6516, 1668.757
339.1338, 1676.379
339.6159, 1687.132
340.0980, 1696.427
340.5801, 1693.861
341.0622, 1677.841
341.5443, 1664.427
342.0265, 1661.893
342.5086, 1668.803
342.9907, 1671.222
343.4728, 1668.553
343.9549, 1663.640
344.4370, 1659.824
344.9192, 1656.979
345.4013, 1653.465
345.8834, 1646.456
346.3655, 1639.033
346.8476, 1643.049
347.3297, 1658.973
347.8119, 1672.535
348.2940, 1663.532
348.7761, 1640.380
349.2582, 1629.145
349.7403, 1642.343
350.2225, 1665.272
350.7046, 1676.800
351.1867, 1678.258
351.6688, 1679.114
352.1509, 1689.110
352.6331, 1702.139
353.1152, 1708.517
353.5973, 1704.041
354.0794, 1696.291
354.5615, 1690.276
355.0436, 1686.176
355.5258, 1684.543
356.0079, 1689.115
356.4900, 1694.379
356.9721, 1694.696
357.4542, 1687.512
357.9363, 1681.110
358.4185, 1679.804
358.9006, 1682.458
359.3827, 1687.107
359.8648, 1698.520
360.3469, 1707.344
360.8290, 1707.479
361.3112, 1697.234
361.7933, 1686.940
362.2754, 1675.465
362.7575, 1667.204
363.2396, 1666.933
363.7217, 1686.722
364.2039, 1703.634
364.6860, 1710.514
365.1681, 1707.135
365.6502, 1704.126
366.1323, 1703.644
366.6144, 1703.330
367.0966, 1701.517
367.5787, 1693.670
368.0608, 1689.885
368.5429, 1692.272
369.0250, 1699.712
369.5071, 1706.594
369.9893, 1714.389
370.4714, 1719.915
370.9535, 1721.092
371.4356, 1714.855
371.9177, 1711.080
372.3998, 1709.542
372.8820, 1710.719
373.3641, 1716.362
373.8462, 1728.240
374.3283, 1740.008
374.8104, 1750.127
375.2925, 1759.070
375.7747, 1761.031
376.2568, 1754.719
376.7389, 1744.031
377.2210, 1733.516
377.7031, 1723.115
378.1852, 1713.635
378.6674, 1704.509
379.1495, 1696.515
379.6316, 1693.871
380.1137, 1697.141
380.5958, 1700.833
381.0779, 1697.282
381.5601, 1688.742
382.0422, 1686.821
382.5243, 1695.379
383.0064, 1710.089
383.4885, 1727.595
383.9706, 1746.898
384.4528, 1759.436
384.9349, 1756.657
385.4170, 1744.097
385.8991, 1728.945
386.3812, 1709.795
386.8633, 1695.806
387.3455, 1699.987
387.8276, 1716.023
388.3097, 1729.559
388.7918, 1730.137
389.2739, 1727.247
389.7560, 1729.758
390.2382, 1739.044
390.7203, 1745.294
391.2024, 1739.356
391.6845, 1728.788
392.1666, 1722.222
392.6487, 1728.664
393.1309, 1733.921
393.6130, 1730.717
394.0951, 1719.849
394.5772, 1711.531
395.0593, 1710.276
395.5414, 1711.165
396.0236, 1711.138
396.5057, 1705.403
396.9878, 1703.930
397.4699, 1710.955
397.9520, 1723.372
398.4341, 1731.330
398.9163, 1731.770
399.3984, 1730.895
399.8805, 1730.640
400.3626, 1730.732
400.8447, 1732.446
401.3268, 1737.051
401.8090, 1742.336
402.2911, 1745.921
402.7732, 1749.148
403.2553, 1746.610
403.7374, 1733.608
404.2195, 1711.287
404.7017, 1701.249
405.1838, 1705.486
405.6659, 1716.719
406.1480, 1731.831
406.6301, 1751.097
407.1122, 1760.945
407.5944, 1757.046
408.0765, 1744.259
408.5586, 1731.845
409.0407, 1719.813
409.5228, 1712.353
410.0049, 1715.595
410.4871, 1725.676
410.9692, 1731.497
411.4513, 1731.409
411.9334, 1729.214
412.4155, 1729.528
412.8976, 1731.326
413.3798, 1731.663
413.8619, 1724.029
414.3440, 1717.240
414.8261, 1724.015
415.3082, 1744.499
415.7903, 1761.277
416.2725, 1760.498
416.7546, 1750.764
417.2367, 1741.551
417.7188, 1733.083
418.2009, 1728.974
418.6830, 1734.290
419.1652, 1746.327
419.6473, 1754.950
420.1294, 1752.630
420.6115, 1749.127
421.0937, 1750.571
421.5758, 1762.519
422.0579, 1769.033
422.5400, 1763.488
423.0221, 1752.247
423.5042, 1745.654
423.9864, 1747.875
424.4685, 1750.549
424.9506, 1752.362
425.4327, 1753.380
425.9148, 1751.885
426.3969, 1745.089
426.8791, 1738.956
427.3612, 1740.000
427.8433, 1752.209
428.3254, 1758.583
428.8075, 1754.655
429.2896, 1744.079
429.7718, 1738.951
430.2539, 1739.490
430.7360, 1743.980
431.2181, 1754.503
431.7002, 1770.185
432.1823, 1776.973
432.6645, 1772.664
433.1466, 1764.481
433.6287, 1762.901
434.1108, 1766.554
434.5929, 1768.561
435.0750, 1764.152
435.5572, 1757.156
436.0393, 1755.145
436.5214, 1757.871
437.0035, 1760.088
437.4856, 1756.512
437.9677, 1750.217
438.4499, 1745.029
438.9320, 1740.262
439.4141, 1739.656
439.8962, 1749.455
440.3783, 1765.813
440.8604, 1779.101
441.3426, 1784.984
441.8247, 1786.483
442.3068, 1783.987
442.7889, 1776.271
443.2710, 1770.765
443.7531, 1770.391
444.2353, 1772.877
444.7174, 1775.707
445.1995, 1782.652
445.6816, 1785.361
446.1637, 1780.299
446.6458, 1768.437
447.1280, 1759.410
447.6101, 1753.185
448.0922, 1749.829
448.5743, 1750.145
449.0564, 1756.918
449.5385, 1759.632
450.0207, 1756.574
450.5028, 1750.663
450.9849, 1746.809
451.4670, 1744.851
451.9491, 1746.042
452.4312, 1752.438
452.9134, 1762.995
453.3955, 1770.422
453.8776, 1774.880
454.3597, 1775.060
454.8418, 1765.238
455.3239, 1748.764
455.8061, 1740.661
456.2882, 1746.778
456.7703, 1758.761
457.2524, 1765.797
457.7345, 1768.555
458.2166, 1769.889
458.6988, 1772.233
459.1809, 1773.628
459.6630, 1771.147
460.1451, 1763.930
460.6272, 1756.918
461.1093, 1750.176
461.5915, 1746.404
462.0736, 1749.160
462.5557, 1771.964
463.0378, 1789.386
463.5199, 1788.116
464.0020, 1770.738
464.4842, 1757.265
464.9663, 1750.536
465.4484, 1749.851
465.9305, 1755.681
466.4126, 1777.288
466.8947, 1788.990
467.3769, 1786.132
467.8590, 1775.424
468.3411, 1767.191
468.8232, 1760.860
469.3053, 1758.642
469.7874, 1763.436
470.2696, 1774.450
470.7517, 1774.984
471.2338, 1761.636
471.7159, 1748.282
472.1980, 1748.514
472.6801, 1762.002
473.1623, 1773.728
473.6444, 1781.891
474.1265, 1786.925
474.6086, 1789.394
475.0907, 1789.324
475.5728, 1786.900
476.0550, 1780.250
476.5371, 1771.967
477.0192, 1765.903
477.5013, 1762.146
477.9834, 1760.873
478.4655, 1763.516
478.9477, 1768.340
479.4298, 1773.337
479.9119, 1781.462
480.3940, 1785.215
480.8761, 1776.484
481.3582, 1759.694
481.8404, 1747.666
482.3225, 1748.297
482.8046, 1751.580
483.2867, 1752.873
483.7688, 1750.871
484.2509, 1750.041
484.7331, 1749.391
485.2152, 1750.814
485.6973, 1756.690
486.1794, 1772.376
486.6615, 1783.338
487.1436, 1787.058
487.6258, 1784.542
488.1079, 1779.831
488.5900, 1771.892
489.0721, 1764.699
489.5542, 1761.520
490.0363, 1762.401
490.5185, 1758.629
491.0006, 1748.525
491.4827, 1738.734
491.9648, 1739.076
492.4470, 1748.019
492.9291, 1757.487
493.4112, 1765.298
493.8933, 1771.472
494.3754, 1775.979
494.8575, 1778.793
495.3397, 1779.477
495.8218, 1776.089
496.3039, 1771.231
496.7860, 1767.656
497.2681, 1765.746
497.7502, 1765.002
498.2324, 1766.493
498.7145, 1768.600
499.1966, 1769.145
499.6787, 1763.772
500.1608, 1760.477
500.6429, 1763.938
501.1251, 1773.488
501.6072, 1777.970
502.0893, 1772.449
502.5714, 1765.451
503.0535, 1760.769
503.5356, 1758.789
504.0178, 1758.522
504.4999, 1761.366
504.9820, 1764.644
505.4641, 1764.197
505.9462, 1759.585
506.4283, 1753.156
506.9105, 1743.456
507.3926, 1732.966
507.8747, 1734.957
508.3568, 1750.276
508.8389, 1762.448
509.3210, 1753.558
509.8032, 1732.184
510.2853, 1722.991
510.7674, 1730.687
511.2495, 1743.610
511.7316, 1752.566
512.2137, 1757.801
512.6959, 1759.730
513.1780, 1756.602
513.6601, 1751.904
514.1422, 1746.098
514.6243, 1739.881
515.1064, 1737.659
515.5886, 1748.227
516.0707, 1758.375
516.5528, 1758.731
517.0349, 1739.590
517.5170, 1728.533
517.9991, 1734.570
518.4813, 1747.660
518.9634, 1755.421
519.4455, 1756.111
519.9276, 1754.103
520.4097, 1747.955
520.8918, 1739.328
521.3740, 1739.851
521.8561, 1751.908
522.3382, 1765.225
522.8203, 1774.254
523.3024, 1778.931
523.7845, 1778.995
524.2667, 1773.994
524.7488, 1765.890
525.2309, 1753.314
525.7130, 1738.765
526.1951, 1731.569
526.6772, 1740.222
527.1594, 1752.648
527.6415, 1753.721
528.1236, 1745.647
528.6057, 1738.091
529.0878, 1736.775
529.5699, 1738.000
530.0521, 1738.796
530.5342, 1738.261
531.0163, 1739.684
531.4984, 1747.925
531.9805, 1757.042
532.4626, 1760.764
532.9448, 1753.223
533.4269, 1746.189
533.9090, 1740.570
534.3911, 1736.365
534.8732, 1732.977
535.3553, 1727.099
535.8375, 1728.518
536.3196, 1746.293
536.8017, 1782.336
537.2838, 1796.461
537.7659, 1784.566
538.2480, 1764.669
538.7302, 1755.751
539.2123, 1756.319
539.6944, 1756.464
540.1765, 1753.485
540.6586, 1750.168
541.1407, 1750.057
541.6229, 1752.863
542.1050, 1757.503
542.5871, 1764.992
543.0692, 1773.017
543.5513, 1778.767
544.0334, 1782.091
544.5156, 1786.926
544.9977, 1801.324
545.4798, 1814.420
545.9619, 1816.910
546.4440, 1796.102
546.9261, 1780.958
547.4083, 1778.859
547.8904, 1784.221
548.3725, 1786.956
548.8546, 1785.072
549.3367, 1784.104
549.8188, 1787.143
550.3010, 1793.228
550.7831, 1788.633
551.2652, 1769.360
551.7473, 1752.721
552.2294, 1754.524
552.7115, 1772.488
553.1937, 1783.171
553.6758, 1783.765
554.1579, 1781.030
554.6400, 1783.830
555.1221, 1790.160
555.6042, 1794.162
556.0864, 1792.281
556.5685, 1788.708
557.0506, 1785.831
557.5327, 1784.239
558.0148, 1786.240
558.4969, 1795.537
558.9791, 1806.864
559.4612, 1818.509
559.9433, 1831.621
560.4254, 1837.818
560.9075, 1828.595
561.3896, 1815.674
561.8718, 1809.405
562.3539, 1814.338
562.8360, 1818.294
563.3181, 1820.437
563.8002, 1821.015
564.2823, 1819.986
564.7645, 1816.626
565.2466, 1815.036
565.7287, 1817.739
566.2108, 1823.612
566.6929, 1827.094
567.1750, 1828.102
567.6572, 1827.969
568.1393, 1825.240
568.6214, 1822.578
569.1035, 1827.163
569.5856, 1842.338
570.0677, 1855.771
570.5499, 1855.375
571.0320, 1846.968
571.5141, 1839.786
571.9962, 1833.276
572.4783, 1832.532
572.9604, 1847.265
573.4426, 1872.426
573.9247, 1882.489
574.4068, 1855.173
574.8889, 1828.432
575.3710, 1816.333
575.8531, 1820.680
576.3353, 1831.850
576.8174, 1854.419
577.2995, 1876.860
577.7816, 1887.112
578.2637, 1883.877
578.7458, 1881.556
579.2280, 1882.241
579.7101, 1884.700
580.1922, 1887.816
580.6743, 1891.184
581.1564, 1892.526
581.6385, 1890.146
582.1207, 1885.489
582.6028, 1878.529
583.0849, 1870.008
583.5670, 1865.216
584.0491, 1869.700
584.5313, 1877.634
585.0134, 1885.197
585.4955, 1892.694
585.9776, 1896.833
586.4597, 1890.956
586.9418, 1883.716
587.4240, 1885.710
587.9061, 1912.704
588.3882, 1923.971
588.8703, 1907.159
589.3524, 1874.012
589.8345, 1860.551
590.3167, 1871.297
590.7988, 1884.470
591.2809, 1890.722
591.7630, 1891.519
592.2451, 1893.593
592.7272, 1896.934
593.2094, 1901.719
593.6915, 1910.662
594.1736, 1920.632
594.6557, 1924.864
595.1378, 1921.081
595.6199, 1916.299
596.1021, 1915.895
596.5842, 1917.764
597.0663, 1918.906
597.5485, 1918.318
598.0306, 1916.833
598.5127, 1910.952
598.9948, 1903.379
599.4769, 1906.000
599.9590, 1931.346
600.4412, 1952.477
600.9233, 1958.854
601.4054, 1949.245
601.8875, 1945.210
602.3696, 1947.966
602.8517, 1953.411
603.3339, 1959.663
603.8160, 1966.413
604.2981, 1967.689
604.7802, 1961.813
605.2623, 1953.896
605.7444, 1951.649
606.2266, 1952.748
606.7087, 1950.752
607.1908, 1936.354
607.6729, 1925.098
608.1550, 1933.707
608.6371, 1956.419
609.1193, 1974.807
609.6014, 1979.388
610.0835, 1979.581
610.5656, 1978.894
611.0477, 1977.385
611.5298, 1976.691
612.0120, 1977.722
612.4941, 1978.724
612.9762, 1978.421
613.4583, 1976.334
613.9404, 1974.739
614.4225, 1973.896
614.9047, 1973.270
615.3868, 1970.809
615.8689, 1966.908
616.3510, 1967.668
616.8331, 1977.527
617.3152, 1989.455
617.7974, 1990.443
618.2795, 1983.401
618.7616, 1979.704
619.2437, 1990.165
619.7258, 2002.948
620.2079, 2010.588
620.6901, 2012.531
621.1722, 2008.601
621.6543, 1991.110
622.1364, 1973.027
622.6185, 1963.327
623.1006, 1966.570
623.5828, 1968.960
624.0649, 1970.580
624.5470, 1971.271
625.0291, 1969.788
625.5112, 1964.878
625.9933, 1965.342
626.4755, 1974.860
626.9576, 1987.736
627.4397, 1991.258
627.9218, 1986.481
628.4039, 1981.444
628.8860, 1979.000
629.3682, 1979.158
629.8503, 1983.096
630.3324, 1990.307
630.8145, 1997.022
631.2966, 1999.830
631.7787, 2002.124
632.2609, 2007.058
632.7430, 2016.567
633.2251, 2022.624
633.7072, 2020.658
634.1893, 2016.384
634.6714, 2014.559
635.1536, 2016.576
635.6357, 2017.797
636.1178, 2017.135
636.5999, 2016.308
637.0820, 2020.853
637.5641, 2031.243
638.0463, 2033.498
638.5284, 2018.010
639.0105, 1996.060
639.4926, 1990.614
639.9747, 1999.739
640.4568, 2012.161
640.9390, 2023.300
641.4211, 2033.218
641.9032, 2045.392
642.3853, 2059.990
642.8674, 2062.285
643.3495, 2027.871
643.8317, 1991.479
644.3138, 1978.345
644.7959, 2011.166
645.2780, 2028.466
645.7601, 2019.745
646.2422, 2004.694
646.7244, 2008.785
647.2065, 2037.008
647.6886, 2058.188
648.1707, 2065.900
648.6528, 2065.030
649.1349, 2064.717
649.6171, 2064.656
650.0992, 2062.738
650.5813, 2057.285
651.0634, 2049.870
651.5455, 2039.206
652.0276, 2026.884
652.5098, 2022.006
652.9919, 2039.395
653.4740, 2057.984
653.9561, 2062.920
654.4382, 2049.838
654.9203, 2041.071
655.4025, 2039.401
655.8846, 2042.809
656.3667, 2051.394
656.8488, 2069.329
657.3309, 2080.038
657.8130, 2082.895
658.2952, 2078.699
658.7773, 2064.063
659.2594, 2040.351
659.7415, 2026.179
660.2236, 2029.253
660.7057, 2039.293
661.1879, 2042.222
661.6700, 2040.083
662.1521, 2038.527
662.6342, 2041.519
663.1163, 2044.906
663.5984, 2044.067
664.0806, 2040.076
664.5627, 2041.893
665.0448, 2061.061
665.5269, 2077.850
666.0090, 2082.835
666.4911, 2073.952
666.9733, 2068.285
667.4554, 2066.325
667.9375, 2066.609
668.4196, 2068.362
668.9017, 2071.553
669.3839, 2075.203
669.8660, 2079.467
670.3481, 2082.977
670.8302, 2081.934
671.3123, 2079.099
671.7944, 2081.322
672.2766, 2096.158
672.7587, 2107.683
673.2408, 2098.709
673.7229, 2079.779
674.2050, 2071.353
674.6871, 2091.563
675.1693, 2109.490
675.6514, 2116.506
676.1335, 2114.269
676.6156, 2110.590
677.0977, 2104.480
677.5798, 2099.164
678.0620, 2095.766
678.5441, 2094.320
679.0262, 2096.532
679.5083, 2102.701
679.9904, 2107.928
680.4725, 2104.783
680.9547, 2099.062
681.4368, 2102.712
681.9189, 2118.099
682.4010, 2132.943
682.8831, 2143.198
683.3652, 2146.557
683.8474, 2139.660
684.3295, 2109.631
684.8116, 2088.588
685.2937, 2083.971
685.7758, 2089.574
686.2579, 2099.118
686.7401, 2115.654
687.2222, 2127.311
687.7043, 2130.450
688.1864, 2128.830
688.6685, 2133.731
689.1506, 2144.388
689.6328, 2148.227
690.1149, 2132.504
690.5970, 2111.332
691.0791, 2105.794
691.5612, 2114.095
692.0433, 2126.965
692.5255, 2148.348
693.0076, 2165.745
693.4897, 2168.806
693.9718, 2155.378
694.4539, 2145.702
694.9360, 2146.094
695.4182, 2147.617
695.9003, 2144.823
696.3824, 2135.486
696.8645, 2132.094
697.3466, 2136.047
697.8287, 2142.276
698.3109, 2145.683
698.7930, 2146.633
699.2751, 2146.037
699.7572, 2142.824
700.2393, 2142.648
700.7214, 2157.294
701.2036, 2177.816
701.6857, 2189.174
702.1678, 2178.269
702.6499, 2166.342
703.1320, 2160.501
703.6141, 2159.463
704.0963, 2160.273
704.5784, 2166.509
705.0605, 2168.211
705.5426, 2159.717
706.0247, 2145.318
706.5068, 2146.709
706.9890, 2165.915
707.4711, 2183.953
707.9532, 2191.606
708.4353, 2190.714
708.9174, 2183.615
709.3995, 2170.908
709.8817, 2158.649
710.3638, 2146.354
710.8459, 2139.473
711.3280, 2147.983
711.8101, 2175.954
712.2922, 2190.750
712.7744, 2164.865
713.2565, 2136.362
713.7386, 2131.386
714.2207, 2161.096
714.7028, 2186.914
715.1849, 2211.409
715.6671, 2227.938
716.1492, 2224.211
716.6313, 2202.500
717.1134, 2190.890
717.5955, 2196.177
718.0776, 2206.577
718.5598, 2208.905
719.0419, 2205.683
719.5240, 2201.585
720.0061, 2193.521
720.4882, 2190.722
720.9703, 2201.594
721.4525, 2220.535
721.9346, 2234.798
722.4167, 2237.536
722.8988, 2242.818
723.3809, 2256.606
723.8630, 2274.553
724.3452, 2277.219
724.8273, 2262.585
725.3094, 2247.175
725.7915, 2238.481
726.2736, 2234.724
726.7557, 2230.448
727.2379, 2226.214
727.7200, 2226.436
728.2021, 2237.167
728.6842, 2251.262
729.1663, 2265.341
729.6484, 2279.196
730.1306, 2284.899
730.6127, 2268.578
731.0948, 2253.170
731.5769, 2252.264
732.0590, 2270.764
732.5411, 2283.078
733.0233, 2287.915
733.5054, 2289.463
733.9875, 2290.117
734.4696, 2290.377
734.9517, 2295.258
735.4338, 2306.372
735.9160, 2315.865
736.3981, 2314.166
736.8802, 2306.193
737.3623, 2298.633
737.8444, 2290.914
738.3266, 2288.434
738.8087, 2295.711
739.2908, 2308.637
739.7729, 2321.695
740.2551, 2339.897
740.7372, 2347.938
741.2193, 2339.366
741.7014, 2323.660
742.1835, 2322.680
742.6656, 2336.622
743.1478, 2347.964
743.6299, 2351.121
744.1120, 2348.691
744.5941, 2341.058
745.0762, 2330.765
745.5583, 2325.482
746.0405, 2335.530
746.5226, 2345.630
747.0047, 2343.780
747.4868, 2332.993
747.9689, 2331.863
748.4510, 2351.194
748.9332, 2369.373
749.4153, 2380.467
749.8974, 2384.612
750.3795, 2381.794
750.8616, 2370.615
751.3438, 2363.298
751.8259, 2370.667
752.3080, 2386.945
752.7901, 2399.539
753.2722, 2408.097
753.7543, 2413.508
754.2365, 2409.660
754.7186, 2407.540
755.2007, 2419.451
755.6828, 2451.032
756.1649, 2470.876
756.6470, 2466.735
757.1292, 2455.779
757.6113, 2447.313
758.0934, 2441.449
758.5755, 2437.481
759.0576, 2435.219
759.5397, 2435.384
760.0219, 2440.583
760.5040, 2448.909
760.9861, 2453.003
761.4682, 2450.547
761.9503, 2450.166
762.4324, 2461.590
762.9146, 2477.749
763.3967, 2490.709
763.8788, 2501.499
764.3609, 2504.063
764.8430, 2488.069
765.3251, 2468.605
765.8073, 2464.685
766.2894, 2482.542
766.7715, 2489.623
767.2536, 2477.142
767.7357, 2460.146
768.2178, 2466.187
768.7000, 2490.525
769.1821, 2513.740
769.6642, 2532.038
770.1463, 2543.204
770.6284, 2539.778
771.1105, 2528.570
771.5927, 2522.746
772.0748, 2530.329
772.5569, 2539.297
773.0390, 2549.421
773.5211, 2558.455
774.0032, 2559.351
774.4854, 2549.553
774.9675, 2541.329
775.4496, 2538.990
775.9317, 2540.000
776.4138, 2537.303
776.8959, 2531.799
777.3781, 2528.221
777.8602, 2529.955
778.3423, 2533.956
778.8244, 2537.930
779.3065, 2542.005
779.7886, 2546.883
780.2708, 2554.767
780.7529, 2561.403
781.2350, 2566.216
781.7171, 2568.985
782.1992, 2567.562
782.6813, 2561.773
783.1635, 2552.282
783.6456, 2532.409
784.1277, 2510.168
784.6098, 2518.986
785.0919, 2555.374
785.5740, 2584.998
786.0562, 2579.336
786.5383, 2562.324
787.0204, 2554.537
787.5025, 2557.177
787.9846, 2555.149
788.4667, 2532.781
788.9489, 2516.964
789.4310, 2521.680
789.9131, 2548.472
790.3952, 2565.669
790.8773, 2572.098
791.3594, 2573.764
791.8416, 2576.951
792.3237, 2578.502
792.8058, 2565.612
793.2879, 2537.924
793.7700, 2516.138
794.2521, 2521.195
794.7343, 2533.737
795.2164, 2536.957
795.6985, 2525.737
796.1806, 2519.777
796.6627, 2525.298
797.1448, 2531.907
797.6270, 2531.772
798.1091, 2523.223
798.5912, 2522.780
799.0733, 2531.896
799.5554, 2541.849
800.0375, 2545.257
800.5197, 2543.165
801.0018, 2535.473
801.4839, 2521.139
801.9660, 2510.490
802.4481, 2514.034
802.9302, 2521.376
803.4124, 2523.891
803.8945, 2519.239
804.3766, 2511.471
804.8587, 2497.878
805.3408, 2484.757
805.8229, 2477.365
806.3051, 2475.697
806.7872, 2480.337
807.2693, 2492.430
807.7514, 2504.229
808.2335, 2506.756
808.7156, 2504.224
809.1978, 2503.647
809.6799, 2508.132
810.1620, 2509.011
810.6441, 2496.666
811.1262, 2482.417
811.6083, 2477.819
812.0905, 2488.291
812.5726, 2496.150
813.0547, 2500.338
813.5368, 2503.135
814.0189, 2508.521
814.5010, 2515.381
814.9832, 2516.132
815.4653, 2508.458
815.9474, 2499.948
816.4295, 2500.168
816.9116, 2502.562
817.3937, 2498.627
817.8759, 2483.200
818.3580, 2467.490
818.8401, 2449.289
819.3222, 2434.941
819.8043, 2431.995
820.2864, 2443.680
820.7686, 2452.099
821.2507, 2455.611
821.7328, 2455.590
822.2149, 2454.606
822.6970, 2451.414
823.1791, 2441.341
823.6613, 2420.797
824.1434, 2402.096
824.6255, 2392.294
825.1076, 2389.451
825.5897, 2391.574
826.0718, 2403.982
826.5540, 2413.354
827.0361, 2419.362
827.5182, 2422.812
828.0003, 2425.281
828.4824, 2426.715
828.9645, 2422.882
829.4467, 2412.180
829.9288, 2400.245
830.4109, 2388.285
830.8930, 2381.006
831.3751, 2387.714
831.8572, 2419.753
832.3394, 2445.255
832.8215, 2456.150
833.3036, 2452.932
833.7857, 2435.685
834.2678, 2396.815
834.7499, 2366.248
835.2321, 2345.602
835.7142, 2334.430
836.1963, 2335.390
836.6784, 2345.742
837.1605, 2356.816
837.6426, 2368.177
838.1248, 2374.087
838.6069, 2363.839
839.0890, 2348.650
839.5711, 2341.163
840.0532, 2348.074
840.5353, 2355.702
841.0175, 2365.437
841.4996, 2373.144
841.9817, 2373.393
842.4638, 2365.818
842.9459, 2361.543
843.4280, 2362.747
843.9102, 2361.383
844.3923, 2339.812
844.8744, 2312.578
845.3565, 2307.079
845.8386, 2336.677
846.3207, 2357.687
846.8029, 2340.997
847.2850, 2315.323
847.7671, 2307.181
848.2492, 2328.691
848.7313, 2334.182
849.2134, 2319.082
849.6956, 2299.502
850.1777, 2291.284
850.6598, 2291.917
851.1419, 2293.743
851.6240, 2296.211
852.1061, 2296.060
852.5883, 2291.064
853.0704, 2282.156
853.5525, 2268.219
854.0346, 2243.998
854.5167, 2232.280
854.9988, 2239.850
855.4810, 2252.504
855.9631, 2262.412
856.4452, 2269.659
856.9273, 2265.410
857.4094, 2248.600
857.8915, 2232.419
858.3737, 2232.255
858.8558, 2237.802
859.3379, 2236.155
859.8200, 2225.552
860.3021, 2211.712
860.7842, 2187.906
861.2664, 2169.785
861.7485, 2168.584
862.2306, 2187.040
862.7127, 2193.714
863.1948, 2186.924
863.6769, 2175.990
864.1591, 2168.072
864.6412, 2160.770
865.1233, 2145.937
865.6054, 2124.024
866.0875, 2105.549
866.5696, 2100.812
867.0518, 2097.907
867.5339, 2088.050
868.0160, 2070.149
868.4981, 2058.301
868.9802, 2055.332
869.4623, 2052.496
869.9445, 2046.034
870.4266, 2036.371
870.9087, 2025.241
871.3908, 2012.542
871.8729, 1998.828
872.3550, 1985.188
872.8372, 1969.880
873.3193, 1946.909
873.8014, 1919.096
874.2835, 1903.083
874.7656, 1920.599
875.2477, 1928.447
875.7299, 1912.445
876.2120, 1879.352
876.6941, 1854.633
877.1762, 1838.350
877.6583, 1823.741
878.1404, 1806.652
878.6226, 1791.228
879.1047, 1785.353
879.5869, 1785.647
880.0690, 1783.256
880.5511, 1773.031
881.0332, 1761.753
881.5153, 1752.603
881.9974, 1743.339
882.4796, 1727.652
882.9617, 1703.624
883.4438, 1684.705
883.9259, 1676.018
884.4080, 1670.242
884.8901, 1655.031
885.3723, 1633.750
885.8544, 1613.856
886.3365, 1595.818
886.8186, 1583.417
887.3007, 1584.914
887.7828, 1590.479
888.2650, 1585.502
888.7471, 1563.282
889.2292, 1548.912
889.7113, 1546.247
890.1934, 1547.775
890.6755, 1544.081
891.1577, 1536.466
891.6398, 1529.393
892.1219, 1524.373
892.6040, 1516.686
893.0861, 1499.406
893.5682, 1480.163
894.0504, 1466.495
894.5325, 1462.396
895.0146, 1456.236
895.4967, 1446.379
895.9788, 1437.498
896.4609, 1436.131
896.9431, 1440.151
897.4252, 1434.376
897.9073, 1417.889
898.3894, 1402.271
898.8715, 1395.487
899.3536, 1393.672
899.8358, 1395.199
900.3179, 1400.410
900.8000, 1400.746
901.2821, 1392.970
901.7642, 1383.837
902.2463, 1374.530
902.7285, 1366.121
903.2106, 1369.457
903.6927, 1383.881
904.1748, 1392.680
904.6569, 1376.994
905.1390, 1357.200
905.6212, 1358.133
906.1033, 1374.420
906.5854, 1381.156
907.0675, 1362.687
907.5496, 1343.855
908.0317, 1329.273
908.5139, 1318.912
908.9960, 1314.249
909.4781, 1315.337
909.9602, 1313.578
910.4423, 1304.673
910.9244, 1293.663
911.4066, 1284.719
911.8887, 1278.495
912.3708, 1276.119
912.8529, 1282.361
913.3350, 1287.062
913.8171, 1289.431
914.2993, 1288.711
914.7814, 1281.999
915.2635, 1268.437
915.7456, 1260.735
916.2277, 1261.286
916.7098, 1265.429
917.1920, 1269.760
917.6741, 1273.397
918.1562, 1275.948
918.6383, 1279.012
919.1204, 1274.677
919.6025, 1249.372
920.0847, 1224.997
920.5668, 1217.761
921.0489, 1231.031
921.5310, 1236.975
922.0131, 1234.943
922.4952, 1230.952
922.9774, 1227.071
923.4595, 1225.677
923.9416, 1233.533
924.4237, 1249.935
924.9058, 1260.346
925.3879, 1255.495
925.8701, 1246.848
926.3522, 1239.632
926.8343, 1233.236
927.3164, 1221.120
927.7985, 1202.054
928.2806, 1188.195
928.7628, 1187.663
929.2449, 1193.297
929.7270, 1193.935
930.2091, 1191.434
930.6912, 1190.850
931.1733, 1196.261
931.6555, 1201.599
932.1376, 1208.209
932.6197, 1212.239
933.1018, 1204.455
933.5839, 1182.203
934.0660, 1168.141
934.5482, 1167.312
935.0303, 1172.550
935.5124, 1177.798
935.9945, 1181.661
936.4766, 1181.236
936.9587, 1174.196
937.4409, 1167.551
937.9230, 1163.253
938.4051, 1160.421
938.8872, 1158.490
939.3693, 1157.554
939.8514, 1158.037
940.3336, 1160.624
940.8157, 1159.473
941.2978, 1141.655
941.7799, 1121.035
942.2620, 1122.554
942.7441, 1145.964
943.2263, 1161.792
943.7084, 1149.899
944.1905, 1136.864
944.6726, 1133.495
945.1547, 1138.244
945.6368, 1142.607
946.1190, 1146.823
946.6011, 1146.767
947.0832, 1137.478
947.5653, 1126.356
948.0474, 1124.568
948.5295, 1128.585
949.0117, 1130.198
949.4938, 1123.172
949.9759, 1117.818
950.4580, 1116.486
950.9401, 1117.432
951.4222, 1119.690
951.9044, 1123.418
952.3865, 1118.349
952.8686, 1100.612
953.3507, 1084.595
953.8328, 1090.392
954.3149, 1104.782
954.7971, 1110.018
955.2792, 1099.057
955.7613, 1093.051
956.2434, 1098.560
956.7255, 1105.785
957.2076, 1109.674
957.6898, 1110.214
958.1719, 1105.718
958.6540, 1096.241
959.1361, 1087.970
959.6182, 1086.255
960.1003, 1086.748
960.5825, 1085.293
961.0646, 1082.240
961.5467, 1080.542
962.0288, 1080.608
962.5109, 1082.482
962.9930, 1087.108
963.4752, 1092.731
963.9573, 1094.037
964.4394, 1091.842
964.9215, 1091.499
965.4036, 1095.906
965.8857, 1100.416
966.3679, 1101.734
966.8500, 1100.729
967.3321, 1098.408
967.8142, 1093.318
968.2963, 1089.942
968.7784, 1088.574
969.2606, 1088.415
969.7427, 1091.671
970.2248, 1095.575
970.7069, 1085.514
971.1890, 1060.704
971.6711, 1044.156
972.1533, 1060.296
972.6354, 1082.214
973.1175, 1092.757
973.5996, 1091.195
974.0817, 1084.611
974.5638, 1070.916
975.0460, 1059.604
975.5281, 1054.680
976.0102, 1054.469
976.4923, 1056.463
976.9744, 1060.157
977.4565, 1064.067
977.9387, 1068.118
978.4208, 1071.603
978.9029, 1075.818
979.3850, 1078.506
979.8671, 1076.299
980.3492, 1068.576
980.8314, 1058.270
981.3135, 1044.385
981.7956, 1033.812
982.2777, 1038.261
982.7598, 1048.822
983.2419, 1036.779
983.7241, 1053.237
984.2062, 1062.329
984.6883, 1064.450
985.1704, 1038.723
985.6525, 1048.956
986.1346, 1044.778
986.6168, 1040.009
987.0989, 1055.304
987.5810, 1033.627
988.0631, 1048.604
988.5452, 1048.949
989.0273, 1055.990
989.5095, 1048.531
989.9916, 1045.551
990.4737, 1057.076
990.9558, 1060.570
991.4379, 1051.441
991.9200, 1058.909
992.4022, 1036.725
992.8843, 1040.561
993.3664, 1055.622
993.8485, 1047.223
994.3306, 1054.955
994.8127, 1056.544
995.2949, 1030.212
995.7770, 1052.437
996.2591, 1053.662
996.7412, 1033.326
997.2233, 1053.887
997.7054, 1036.524
998.1876, 1032.697
998.6697, 1039.057
999.1518, 1034.798
999.6339, 1047.282
1000.116, 1043.636
1000.598, 1038.549
1001.080, 1039.751
1001.562, 1023.131
1002.044, 1039.574
1002.527, 1033.432
1003.009, 1038.517
1003.491, 1046.146
1003.973, 1033.742
1004.455, 1031.965
1004.937, 1043.983
1005.419, 1058.854
1005.901, 1060.668
1006.384, 1041.856
1006.866, 1030.925
1007.348, 1034.377
1007.830, 1041.197
1008.312, 1046.570
1008.794, 1050.153
1009.276, 1048.320
1009.758, 1041.850
1010.240, 1037.147
1010.723, 1038.330
1011.205, 1042.083
1011.687, 1050.231
1012.169, 1058.886
1012.651, 1056.917
1013.133, 1037.260
1013.615, 1028.857
1014.097, 1039.163
1014.580, 1053.609
1015.062, 1049.991
1015.544, 1036.386
1016.026, 1028.396
1016.508, 1029.761
1016.990, 1031.871
1017.472, 1032.281
1017.954, 1031.380
1018.436, 1028.240
1018.919, 1023.225
1019.401, 1025.218
1019.883, 1034.239
1020.365, 1043.184
1020.847, 1049.827
1021.329, 1052.885
1021.811, 1047.418
1022.293, 1037.600
1022.776, 1033.831
1023.258, 1045.102
1023.740, 1050.651
1024.222, 1047.250
1024.704, 1039.479
1025.186, 1032.082
1025.668, 1025.581
1026.150, 1022.064
1026.632, 1021.837
1027.115, 1023.887
1027.597, 1032.361
1028.079, 1038.780
1028.561, 1034.655
1029.043, 1020.815
1029.525, 1019.432
1030.007, 1032.534
1030.489, 1041.055
1030.972, 1031.445
1031.454, 1017.838
1031.936, 1023.650
1032.418, 1040.182
1032.900, 1048.721
1033.382, 1037.542
1033.864, 1025.478
1034.346, 1011.545
1034.828, 1001.441
1035.311, 1004.248
1035.793, 1017.730
1036.275, 1027.281
1036.757, 1031.792
1037.239, 1033.395
1037.721, 1033.669
1038.203, 1031.561
1038.685, 1025.020
1039.167, 1014.710
1039.650, 1005.626
1040.132, 996.3537
1040.614, 995.9788
1041.096, 1011.578
1041.578, 1030.778
1042.060, 1032.261
1042.542, 1022.971
1043.024, 1016.318
1043.507, 1020.936
1043.989, 1018.443
1044.471, 996.3188
1044.953, 976.7033
1045.435, 979.1456
1045.917, 1001.707
1046.399, 1021.716
1046.881, 1038.390
1047.364, 1046.930
1047.846, 1034.405
1048.328, 1021.577
1048.810, 1025.418
1049.292, 1041.833
1049.774, 1050.554
1050.256, 1050.079
1050.738, 1046.619
1051.220, 1041.305
1051.703, 1033.773
1052.185, 1019.840
1052.667, 1004.771
1053.149, 998.5341
1053.631, 1004.991
1054.113, 1011.158
1054.595, 1012.582
1055.077, 1014.244
1055.559, 1020.569
1056.042, 1029.644
1056.524, 1024.871
1057.006, 1008.365
1057.488, 997.4398
1057.970, 1008.788
1058.452, 1021.182
1058.934, 1018.058
1059.416, 1007.887
1059.899, 1007.661
1060.381, 1022.108
1060.863, 1030.919
1061.345, 1032.326
1061.827, 1028.533
1062.309, 1016.493
1062.791, 1003.359
1063.273, 1002.187
1063.755, 1013.658
1064.238, 1021.305
1064.720, 1017.745
1065.202, 1013.198
1065.684, 1009.528
1066.166, 1007.651
1066.648, 1011.914
1067.130, 1020.775
1067.612, 1027.244
1068.094, 1028.201
1068.577, 1028.422
1069.059, 1035.085
1069.541, 1039.308
1070.023, 1030.646
1070.505, 1004.609
1070.987, 993.6152
1071.469, 998.9648
1071.951, 1005.207
1072.434, 999.3290
1072.916, 990.1459
1073.398, 988.6066
1073.880, 992.8148
1074.362, 995.5004
1074.844, 992.5627
1075.326, 992.9872
1075.808, 1000.025
1076.291, 1006.997
1076.773, 999.0146
1077.255, 983.8297
1077.737, 988.5051
1078.219, 1018.149
1078.701, 1038.989
1079.183, 1020.920
1079.665, 1002.619
1080.147, 1005.921
1080.630, 1025.968
1081.112, 1032.823
1081.594, 1026.934
1082.076, 1022.458
1082.558, 1026.962
1083.040, 1030.561
1083.522, 1019.126
1084.004, 1003.768
1084.486, 1000.660
1084.969, 1018.522
1085.451, 1027.268
1085.933, 1024.895
1086.415, 1020.690
1086.897, 1023.458
1087.379, 1028.254
1087.861, 1023.828
1088.343, 1012.881
1088.826, 1007.495
1089.308, 1020.139
1089.790, 1027.663
1090.272, 1024.216
1090.754, 1015.999
1091.236, 1011.593
1091.718, 1010.815
1092.200, 1014.004
1092.682, 1021.586
1093.165, 1027.388
1093.647, 1026.260
1094.129, 1023.219
1094.611, 1021.481
1095.093, 1020.791
1095.575, 1018.231
1096.057, 1013.650
1096.539, 1010.972
1097.022, 1011.888
1097.504, 1014.898
1097.986, 1021.307
1098.468, 1027.657
1098.950, 1028.914
1099.432, 1022.836
1099.914, 1014.613
1100.396, 1002.631
1100.879, 994.1624
1101.361, 997.3021
1101.843, 1006.338
1102.325, 1010.558
1102.807, 1010.796
1103.289, 1010.538
1103.771, 1011.896
1104.253, 1011.310
1104.735, 1005.901
1105.218, 1001.241
1105.700, 1008.748
1106.182, 1024.572
1106.664, 1027.908
1107.146, 1016.317
1107.628, 1005.930
1108.110, 1010.044
1108.592, 1014.588
1109.074, 1008.789
1109.557, 996.9424
1110.039, 1000.446
1110.521, 1019.650
1111.003, 1026.636
1111.485, 1009.128
1111.967, 989.4476
1112.449, 991.1486
1112.931, 1001.024
1113.414, 1004.180
1113.896, 997.1195
1114.378, 994.0305
1114.860, 995.6700
1115.342, 997.9630
1115.824, 998.2318
1116.306, 998.0914
1116.788, 1001.281
1117.271, 1005.937
1117.753, 1007.932
1118.235, 1004.580
1118.717, 1000.450
1119.199, 996.3321
1119.681, 990.6534
1120.163, 978.8277
1120.645, 964.6361
1121.127, 959.6928
1121.609, 963.9479
1122.092, 971.8077
1122.574, 986.5789
1123.056, 996.7206
1123.538, 996.2133
1124.020, 990.9647
1124.502, 994.1445
1124.984, 1004.336
1125.466, 1009.483
1125.949, 1007.207
1126.431, 1001.119
1126.913, 988.7054
1127.395, 977.6722
1127.877, 973.1023
1128.359, 974.7726
1128.841, 985.4847
1129.323, 1006.219
1129.806, 1018.091
1130.288, 1011.427
1130.770, 999.3015
1131.252, 992.8359
1131.734, 989.9010
1132.216, 987.7688
1132.698, 985.4976
1133.180, 986.8758
1133.662, 993.1376
1134.145, 997.7812
1134.627, 994.4397
1135.109, 988.4349
1135.591, 988.6378
1136.073, 993.0050
1136.555, 996.3561
1137.037, 998.8222
1137.519, 996.5198
1138.001, 985.9781
1138.484, 977.5649
1138.966, 987.2420
1139.448, 1006.103
1139.930, 1009.872
1140.412, 999.1802
1140.894, 991.8914
1141.376, 999.6633
1141.858, 1006.575
1142.341, 1009.773
1142.823, 1008.499
1143.305, 997.5294
1143.787, 980.2394
1144.269, 972.2305
1144.751, 976.6118
1145.233, 984.5595
1145.715, 994.2483
1146.198, 1003.062
1146.680, 1011.162
1147.162, 1017.270
1147.644, 1012.625
1148.126, 998.1636
1148.608, 986.9626
1149.090, 983.4344
1149.572, 983.1317
1150.054, 982.4097
1150.536, 983.6140
1151.019, 991.0789
1151.501, 1006.024
1151.983, 1006.416
1152.465, 991.5506
1152.947, 979.9351
1153.429, 986.2023
1153.911, 994.9484
1154.393, 986.5967
1154.876, 972.0660
1155.358, 972.2503
1155.840, 996.6896
1156.322, 1008.959
1156.804, 1007.064
1157.286, 1000.334
1157.768, 993.5055
1158.250, 988.1118
1158.733, 986.2836
1159.215, 987.6359
1159.697, 990.7828
1160.179, 997.8347
1160.661, 1001.246
1161.143, 999.5575
1161.625, 995.7124
1162.107, 992.0861
1162.589, 989.0803
1163.072, 989.1641
1163.554, 991.9404
1164.036, 988.5253
1164.518, 966.2941
1165.000, 956.6965
1165.482, 972.2105
1165.964, 996.0442
1166.446, 994.1841
1166.928, 977.7090
1167.411, 972.7575
1167.893, 986.1165
1168.375, 996.3615
1168.857, 991.5695
1169.339, 989.0546
1169.821, 997.6036
1170.303, 1011.370
1170.785, 1012.620
1171.268, 1004.352
1171.750, 996.2161
1172.232, 990.9631
1172.714, 987.0660
1173.196, 982.8711
1173.678, 981.2238
1174.160, 985.2396
1174.642, 993.5914
1175.125, 996.5941
1175.607, 995.1708
1176.089, 994.2631
1176.571, 997.2039
1177.053, 999.8609
1177.535, 1002.507
1178.017, 1002.297
1178.499, 994.6139
1178.981, 979.5657
1179.464, 971.0460
1179.946, 969.2478
1180.428, 974.3643
1180.910, 996.0219
1181.392, 1014.198
1181.874, 1015.339
1182.356, 1007.689
1182.838, 1002.902
1183.320, 1000.926
1183.803, 1004.113
1184.285, 1012.877
1184.767, 1018.599
1185.249, 1011.192
1185.731, 1002.026
1186.213, 999.0084
1186.695, 1000.535
1187.177, 1000.665
1187.660, 998.9338
1188.142, 1004.782
1188.624, 1020.888
1189.106, 1034.952
1189.588, 1035.774
1190.070, 1030.302
1190.552, 1021.629
1191.034, 1011.206
1191.516, 1007.243
1191.999, 1010.713
1192.481, 1011.046
1192.963, 1005.387
1193.445, 996.4758
1193.927, 981.1381
1194.409, 967.9410
1194.891, 967.5571
1195.373, 980.8062
1195.855, 991.2770
1196.338, 998.9583
1196.820, 1004.554
1197.302, 1008.647
1197.784, 1009.998
1198.266, 1001.267
1198.748, 992.1060
1199.230, 998.4756
1199.712, 1027.054
1200.195, 1032.579
1200.677, 1011.391
1201.159, 992.9062
1201.641, 995.4431
1202.123, 1005.422
1202.605, 1010.471
1203.087, 1011.162
1203.569, 1007.919
1204.052, 998.3534
1204.534, 993.0201
1205.016, 992.3638
1205.498, 993.0352
1205.980, 992.1503
1206.462, 991.7881
1206.944, 994.9776
1207.426, 1000.454
1207.908, 1005.629
1208.391, 1012.477
1208.873, 1011.695
1209.355, 1001.404
1209.837, 991.4623
1210.319, 991.2140
1210.801, 995.1636
1211.283, 999.6573
1211.765, 1003.091
1212.247, 999.2611
1212.730, 982.4896
1213.212, 976.9791
1213.694, 986.8922
1214.176, 1000.381
1214.658, 1008.562
1215.140, 1012.296
1215.622, 1011.961
1216.104, 1007.897
1216.587, 1000.556
1217.069, 985.4094
1217.551, 985.6396
1218.033, 1008.735
1218.515, 1031.798
1218.997, 1024.198
1219.479, 1005.967
1219.961, 1001.046
1220.443, 1010.104
1220.926, 1010.894
1221.408, 998.9153
1221.890, 994.1788
1222.372, 1002.792
1222.854, 1014.999
1223.336, 1023.505
1223.818, 1026.278
1224.300, 1017.885
1224.782, 997.3008
1225.265, 986.4304
1225.747, 986.8439
1226.229, 989.7665
1226.711, 992.8295
1227.193, 996.4493
1227.675, 1005.573
1228.157, 1012.927
1228.639, 1006.259
1229.122, 982.1904
1229.604, 975.4792
1230.086, 989.1460
1230.568, 999.2205
1231.050, 993.9703
1231.532, 986.4807
1232.014, 996.5195
1232.496, 1010.485
1232.979, 1008.435
1233.461, 985.9500
1233.943, 979.0143
1234.425, 988.7700
1234.907, 1004.005
1235.389, 1025.408
1235.871, 1040.373
1236.353, 1031.495
1236.835, 1011.669
1237.318, 997.4074
1237.800, 989.6786
1238.282, 985.1146
1238.764, 983.7129
1239.246, 986.3188
1239.728, 995.6375
1240.210, 1006.286
1240.692, 1016.485
1241.175, 1023.524
1241.657, 1022.872
1242.139, 1012.650
1242.621, 1007.716
1243.103, 1008.058
1243.585, 1010.850
1244.067, 1019.095
1244.549, 1024.072
1245.031, 1014.285
1245.514, 1000.811
1245.996, 1000.562
1246.478, 1015.413
1246.960, 1018.934
1247.442, 1011.208
1247.924, 1002.746
1248.406, 997.6648
1248.888, 996.7543
1249.370, 1005.217
1249.853, 1015.250
1250.335, 1014.068
1250.817, 1002.383
1251.299, 1007.432
1251.781, 1028.709
1252.263, 1041.689
1252.745, 1019.142
1253.227, 999.3066
1253.710, 1004.109
1254.192, 1016.850
1254.674, 1015.816
1255.156, 1003.287
1255.638, 993.0217
1256.120, 986.5356
1256.602, 990.0397
1257.084, 1025.884
1257.567, 1046.945
1258.049, 1031.845
1258.531, 1004.189
1259.013, 996.3214
1259.495, 1003.732
1259.977, 1012.414
1260.459, 1020.660
1260.941, 1023.979
1261.423, 1016.240
1261.906, 1008.067
1262.388, 999.8359
1262.870, 995.5157
1263.352, 1007.025
1263.834, 1025.030
1264.316, 1022.080
1264.798, 998.5220
1265.280, 990.1859
1265.762, 1027.145
1266.245, 1047.014
1266.727, 1033.932
1267.209, 1011.247
1267.691, 1011.037
1268.173, 1023.034
1268.655, 1033.066
1269.137, 1039.358
1269.619, 1035.214
1270.102, 1013.856
1270.584, 1000.902
1271.066, 1002.982
1271.548, 1010.787
1272.030, 1014.954
1272.512, 1016.583
1272.994, 1016.220
1273.476, 1014.113
1273.958, 1013.406
1274.441, 1015.245
1274.923, 1012.019
1275.405, 1000.386
1275.887, 991.0833
1276.369, 999.5128
1276.851, 1012.390
1277.333, 1017.488
1277.815, 1014.995
1278.297, 1009.178
1278.780, 999.6384
1279.262, 997.6713
1279.744, 1007.316
1280.226, 1015.995
1280.708, 1010.218
1281.190, 1002.753
1281.672, 1003.677
1282.154, 1010.412
1282.637, 1013.967
1283.119, 1014.495
1283.601, 1012.243
1284.083, 1006.346
1284.565, 1004.566
1285.047, 1020.401
1285.529, 1031.037
1286.011, 1022.400
1286.494, 1003.439
1286.976, 1001.439
1287.458, 1011.035
1287.940, 1011.513
1288.422, 996.2518
1288.904, 992.5585
1289.386, 1026.254
1289.868, 1051.856
1290.350, 1053.016
1290.833, 1039.747
1291.315, 1027.088
1291.797, 1016.478
1292.279, 1011.325
1292.761, 1012.788
1293.243, 1015.109
1293.725, 1017.657
1294.207, 1020.691
1294.689, 1025.046
1295.172, 1028.217
1295.654, 1026.094
1296.136, 1020.792
1296.618, 1013.567
1297.100, 1004.254
1297.582, 1003.089
1298.064, 1011.229
1298.546, 1020.968
1299.029, 1031.984
1299.511, 1037.048
1299.993, 1019.433
1300.475, 998.8751
1300.957, 999.0587
1301.439, 1016.025
1301.921, 1019.594
1302.403, 1010.286
1302.885, 1003.295
1303.368, 1002.827
1303.850, 1005.294
1304.332, 1012.185
1304.814, 1016.886
1305.296, 1014.349
1305.778, 1007.318
1306.260, 1005.416
1306.742, 1007.700
1307.224, 1010.518
1307.707, 1013.082
1308.189, 1015.545
1308.671, 1019.347
1309.153, 1020.804
1309.635, 1017.485
1310.117, 1012.387
1310.599, 1012.151
1311.081, 1014.900
1311.564, 1018.071
1312.046, 1021.933
1312.528, 1017.928
##END=



