##NAMES=Ixiolite
##RRUFFID=R070495
##IDEAL CHEMISTRY=(Ta^5+^,Mn^2+^,Nb^5+^)O_2_
##LOCALITY=Alto Ligonha pegmatite, Alto Ligonha District, Zambezia Province, Mozambique
##OWNER=RRUFF
##SOURCE=Michael Scott
##DESCRIPTION=Black submetallic grain
##STATUS=The identification of this mineral has been confirmed by single-crystal X-ray diffraction.
##URL=rruff.info/R070495
144.0591, 2378.499
144.5413, 2466.371
145.0234, 2557.059
145.5055, 2652.715
145.9876, 2748.599
146.4697, 2837.914
146.9518, 2919.299
147.4340, 2998.695
147.9161, 3087.044
148.3982, 3182.793
148.8803, 3264.726
149.3624, 3326.149
149.8445, 3371.291
150.3267, 3407.117
150.8088, 3435.118
151.2909, 3452.465
151.7730, 3448.933
152.2551, 3428.969
152.7372, 3415.893
153.2194, 3432.010
153.7015, 3460.733
154.1836, 3459.628
154.6657, 3410.860
155.1478, 3355.213
155.6299, 3330.147
156.1121, 3330.636
156.5942, 3334.524
157.0763, 3325.182
157.5584, 3309.653
158.0405, 3315.565
158.5226, 3360.882
159.0048, 3406.137
159.4869, 3412.892
159.9690, 3389.613
160.4511, 3377.458
160.9332, 3405.673
161.4153, 3460.443
161.8975, 3497.185
162.3796, 3535.496
162.8617, 3560.427
163.3438, 3558.064
163.8259, 3534.377
164.3080, 3514.247
164.7902, 3520.104
165.2723, 3548.504
165.7544, 3564.496
166.2365, 3563.509
166.7186, 3552.778
167.2007, 3532.247
167.6829, 3505.252
168.1650, 3482.426
168.6471, 3478.003
169.1292, 3491.083
169.6113, 3486.061
170.0934, 3444.544
170.5756, 3403.080
171.0577, 3379.814
171.5398, 3372.163
172.0219, 3367.543
172.5040, 3353.714
172.9861, 3330.097
173.4683, 3316.251
173.9504, 3326.538
174.4325, 3332.668
174.9146, 3316.413
175.3967, 3283.510
175.8788, 3254.877
176.3610, 3251.177
176.8431, 3274.060
177.3252, 3288.333
177.8073, 3281.171
178.2894, 3276.384
178.7715, 3287.688
179.2537, 3310.286
179.7358, 3328.072
180.2179, 3323.984
180.7000, 3295.900
181.1821, 3279.580
181.6642, 3289.477
182.1464, 3298.980
182.6285, 3298.434
183.1106, 3289.676
183.5927, 3280.089
184.0748, 3276.144
184.5569, 3278.178
185.0391, 3279.009
185.5212, 3277.464
186.0033, 3275.774
186.4854, 3272.502
186.9675, 3269.378
187.4496, 3270.430
187.9318, 3280.099
188.4139, 3298.753
188.8960, 3312.877
189.3781, 3320.855
189.8602, 3325.332
190.3423, 3326.877
190.8245, 3325.389
191.3066, 3319.728
191.7887, 3307.380
192.2708, 3288.352
192.7529, 3279.813
193.2350, 3299.235
193.7172, 3312.448
194.1993, 3305.385
194.6814, 3285.121
195.1635, 3266.625
195.6456, 3260.614
196.1277, 3266.630
196.6099, 3275.133
197.0920, 3294.365
197.5741, 3307.815
198.0562, 3311.279
198.5383, 3306.404
199.0204, 3295.192
199.5026, 3277.579
199.9847, 3255.179
200.4668, 3244.553
200.9489, 3259.526
201.4310, 3273.056
201.9131, 3278.785
202.3953, 3280.144
202.8774, 3284.182
203.3595, 3295.988
203.8416, 3312.709
204.3237, 3316.875
204.8058, 3290.906
205.2880, 3271.013
205.7701, 3269.034
206.2522, 3274.802
206.7343, 3272.879
207.2164, 3254.212
207.6985, 3224.418
208.1807, 3206.213
208.6628, 3203.708
209.1449, 3209.449
209.6270, 3232.561
210.1091, 3259.748
210.5912, 3274.068
211.0734, 3267.187
211.5555, 3246.909
212.0376, 3236.250
212.5197, 3246.077
213.0018, 3250.950
213.4839, 3242.858
213.9661, 3231.476
214.4482, 3227.349
214.9303, 3234.485
215.4124, 3248.108
215.8945, 3257.362
216.3766, 3258.433
216.8587, 3261.076
217.3409, 3269.165
217.8230, 3277.134
218.3051, 3279.091
218.7872, 3273.589
219.2693, 3265.227
219.7514, 3262.522
220.2336, 3271.415
220.7157, 3274.485
221.1978, 3266.549
221.6799, 3256.830
222.1620, 3251.930
222.6441, 3253.162
223.1263, 3257.651
223.6084, 3261.559
224.0905, 3264.789
224.5726, 3267.719
225.0547, 3273.132
225.5368, 3276.252
226.0190, 3273.471
226.5011, 3264.967
226.9832, 3253.849
227.4653, 3242.029
227.9474, 3226.618
228.4296, 3223.328
228.9117, 3244.736
229.3938, 3266.381
229.8759, 3277.281
230.3580, 3277.940
230.8401, 3275.112
231.3223, 3275.162
231.8044, 3278.702
232.2865, 3277.825
232.7686, 3268.664
233.2507, 3258.489
233.7328, 3247.765
234.2150, 3237.646
234.6971, 3229.852
235.1792, 3225.395
235.6613, 3224.290
236.1434, 3227.214
236.6255, 3238.177
237.1077, 3249.038
237.5898, 3258.318
238.0719, 3266.069
238.5540, 3272.852
239.0361, 3279.102
239.5182, 3284.438
240.0004, 3286.997
240.4825, 3285.170
240.9646, 3282.730
241.4467, 3278.373
241.9288, 3274.719
242.4109, 3277.309
242.8931, 3289.810
243.3752, 3303.559
243.8573, 3295.173
244.3394, 3247.516
244.8215, 3213.618
245.3036, 3209.745
245.7858, 3218.542
246.2679, 3225.813
246.7500, 3227.089
247.2321, 3226.290
247.7142, 3231.744
248.1963, 3248.872
248.6785, 3253.614
249.1606, 3225.532
249.6427, 3195.533
250.1248, 3184.282
250.6069, 3194.771
251.0890, 3212.200
251.5712, 3220.600
252.0533, 3218.732
252.5354, 3219.473
253.0175, 3230.442
253.4996, 3238.693
253.9817, 3234.619
254.4639, 3219.847
254.9460, 3205.375
255.4281, 3201.518
255.9102, 3207.238
256.3923, 3208.014
256.8745, 3196.729
257.3566, 3189.469
257.8387, 3199.836
258.3208, 3221.223
258.8029, 3235.825
259.2850, 3229.208
259.7672, 3208.547
260.2493, 3196.574
260.7314, 3195.895
261.2135, 3198.262
261.6956, 3201.458
262.1777, 3204.271
262.6599, 3204.084
263.1420, 3196.737
263.6241, 3189.007
264.1062, 3194.295
264.5883, 3216.019
265.0704, 3232.196
265.5526, 3226.512
266.0347, 3211.771
266.5168, 3204.216
266.9989, 3209.959
267.4810, 3216.094
267.9631, 3207.091
268.4453, 3184.120
268.9274, 3168.542
269.4095, 3170.414
269.8916, 3181.438
270.3737, 3188.828
270.8558, 3191.599
271.3380, 3195.185
271.8201, 3206.325
272.3022, 3221.230
272.7843, 3226.593
273.2664, 3216.441
273.7485, 3201.330
274.2307, 3194.994
274.7128, 3197.091
275.1949, 3196.982
275.6770, 3185.704
276.1591, 3172.167
276.6412, 3171.629
277.1234, 3187.345
277.6055, 3205.590
278.0876, 3213.978
278.5697, 3212.766
279.0518, 3210.080
279.5339, 3206.782
280.0161, 3202.162
280.4982, 3191.991
280.9803, 3177.696
281.4624, 3171.325
281.9445, 3183.668
282.4266, 3211.483
282.9088, 3228.785
283.3909, 3233.250
283.8730, 3231.051
284.3551, 3219.165
284.8372, 3202.573
285.3193, 3193.481
285.8015, 3199.074
286.2836, 3212.830
286.7657, 3215.251
287.2478, 3194.412
287.7299, 3179.840
288.2120, 3184.060
288.6942, 3193.061
289.1763, 3187.336
289.6584, 3161.529
290.1405, 3130.312
290.6226, 3116.867
291.1047, 3135.465
291.5869, 3139.967
292.0690, 3111.373
292.5511, 3084.065
293.0332, 3086.324
293.5153, 3116.928
293.9974, 3151.138
294.4796, 3164.151
294.9617, 3153.340
295.4438, 3145.606
295.9259, 3145.808
296.4080, 3143.939
296.8901, 3135.052
297.3723, 3121.420
297.8544, 3107.960
298.3365, 3097.646
298.8186, 3090.116
299.3007, 3083.651
299.7828, 3078.008
300.2650, 3073.927
300.7471, 3073.493
301.2292, 3073.716
301.7113, 3071.741
302.1934, 3066.495
302.6755, 3058.140
303.1577, 3044.298
303.6398, 3019.161
304.1219, 3007.051
304.6040, 3028.115
305.0861, 3051.442
305.5682, 3056.354
306.0504, 3041.183
306.5325, 3020.833
307.0146, 3007.410
307.4967, 3000.923
307.9788, 3000.814
308.4609, 3016.457
308.9431, 3026.265
309.4252, 3013.654
309.9073, 2984.981
310.3894, 2959.359
310.8715, 2947.239
311.3536, 2944.811
311.8358, 2945.181
312.3179, 2949.696
312.8000, 2952.085
313.2821, 2944.352
313.7642, 2933.191
314.2463, 2929.533
314.7285, 2939.500
315.2106, 2951.671
315.6927, 2958.348
316.1748, 2959.172
316.6569, 2949.251
317.1390, 2919.893
317.6212, 2886.014
318.1033, 2875.103
318.5854, 2892.784
319.0675, 2909.223
319.5496, 2910.299
320.0317, 2903.345
320.5139, 2901.492
320.9960, 2908.057
321.4781, 2915.919
321.9602, 2915.559
322.4423, 2904.866
322.9244, 2902.317
323.4066, 2920.309
323.8887, 2937.925
324.3708, 2936.865
324.8529, 2919.329
325.3350, 2901.335
325.8171, 2894.276
326.2993, 2897.356
326.7814, 2901.128
327.2635, 2908.798
327.7456, 2913.441
328.2277, 2911.554
328.7098, 2905.960
329.1920, 2901.250
329.6741, 2899.403
330.1562, 2898.076
330.6383, 2891.865
331.1204, 2875.667
331.6025, 2863.183
332.0847, 2859.143
332.5668, 2855.249
333.0489, 2843.031
333.5310, 2823.136
334.0131, 2805.026
334.4952, 2799.493
334.9774, 2807.719
335.4595, 2815.116
335.9416, 2822.442
336.4237, 2828.042
336.9058, 2828.116
337.3879, 2826.323
337.8701, 2830.200
338.3522, 2845.795
338.8343, 2867.505
339.3164, 2882.760
339.7985, 2893.838
340.2806, 2891.655
340.7627, 2855.625
341.2448, 2813.321
341.7270, 2792.250
342.2091, 2799.942
342.6912, 2814.929
343.1733, 2815.649
343.6554, 2804.497
344.1375, 2802.131
344.6197, 2817.029
345.1018, 2835.769
345.5839, 2846.321
346.0660, 2849.217
346.5481, 2846.698
347.0302, 2835.285
347.5124, 2820.830
347.9945, 2811.970
348.4766, 2809.429
348.9587, 2806.492
349.4408, 2796.024
349.9229, 2781.091
350.4051, 2778.392
350.8872, 2805.563
351.3693, 2826.220
351.8514, 2816.209
352.3335, 2788.305
352.8156, 2769.631
353.2978, 2771.421
353.7799, 2787.366
354.2620, 2806.045
354.7441, 2840.148
355.2262, 2853.734
355.7083, 2828.277
356.1905, 2794.674
356.6726, 2776.592
357.1547, 2776.492
357.6368, 2783.932
358.1189, 2789.075
358.6010, 2791.572
359.0832, 2797.403
359.5653, 2813.195
360.0474, 2825.343
360.5295, 2830.868
361.0116, 2830.175
361.4937, 2822.835
361.9759, 2807.828
362.4580, 2790.191
362.9401, 2782.127
363.4222, 2788.255
363.9043, 2791.077
364.3864, 2779.895
364.8686, 2769.176
365.3507, 2771.434
365.8328, 2787.319
366.3149, 2802.719
366.7970, 2804.455
367.2791, 2795.104
367.7613, 2788.651
368.2434, 2786.588
368.7255, 2786.652
369.2076, 2789.646
369.6897, 2793.614
370.1718, 2793.425
370.6540, 2782.847
371.1361, 2771.370
371.6182, 2769.189
372.1003, 2775.344
372.5824, 2782.740
373.0645, 2789.715
373.5467, 2794.547
374.0288, 2791.677
374.5109, 2775.211
374.9930, 2766.874
375.4751, 2776.795
375.9572, 2795.669
376.4394, 2814.830
376.9215, 2831.904
377.4036, 2843.677
377.8857, 2846.313
378.3678, 2838.720
378.8499, 2829.738
379.3321, 2815.182
379.8142, 2803.785
380.2963, 2801.612
380.7784, 2804.810
381.2605, 2806.494
381.7426, 2803.101
382.2248, 2795.388
382.7069, 2783.842
383.1890, 2759.407
383.6711, 2749.783
384.1532, 2770.812
384.6353, 2796.370
385.1175, 2807.821
385.5996, 2803.299
386.0817, 2793.339
386.5638, 2784.976
387.0459, 2778.556
387.5280, 2779.941
388.0102, 2796.016
388.4923, 2808.045
388.9744, 2799.762
389.4565, 2781.826
389.9386, 2773.736
390.4207, 2785.765
390.9029, 2803.647
391.3850, 2813.029
391.8671, 2814.539
392.3492, 2813.256
392.8313, 2809.805
393.3134, 2805.828
393.7956, 2804.565
394.2777, 2806.666
394.7598, 2806.955
395.2419, 2803.431
395.7240, 2797.903
396.2061, 2789.842
396.6883, 2780.222
397.1704, 2775.892
397.6525, 2783.409
398.1346, 2802.052
398.6167, 2816.826
399.0988, 2831.877
399.5810, 2838.967
400.0631, 2829.232
400.5452, 2812.779
401.0273, 2803.249
401.5094, 2805.375
401.9915, 2812.644
402.4737, 2813.594
402.9558, 2803.270
403.4379, 2801.560
403.9200, 2819.327
404.4021, 2836.146
404.8842, 2844.377
405.3664, 2843.942
405.8485, 2836.529
406.3306, 2818.858
406.8127, 2797.858
407.2948, 2794.610
407.7769, 2814.451
408.2591, 2831.341
408.7412, 2829.855
409.2233, 2822.798
409.7054, 2826.760
410.1875, 2846.465
410.6696, 2861.177
411.1518, 2852.828
411.6339, 2831.101
412.1160, 2817.820
412.5981, 2817.259
413.0802, 2821.953
413.5623, 2826.324
414.0445, 2830.262
414.5266, 2831.823
415.0087, 2832.264
415.4908, 2829.149
415.9729, 2818.514
416.4550, 2803.650
416.9372, 2790.539
417.4193, 2781.638
417.9014, 2777.288
418.3835, 2778.513
418.8656, 2789.308
419.3477, 2798.435
419.8299, 2806.306
420.3120, 2812.415
420.7941, 2820.303
421.2762, 2826.954
421.7583, 2821.865
422.2404, 2791.772
422.7226, 2745.991
423.2047, 2728.996
423.6868, 2756.576
424.1689, 2778.414
424.6510, 2771.462
425.1331, 2753.540
425.6153, 2741.446
426.0974, 2738.864
426.5795, 2737.112
427.0616, 2723.130
427.5437, 2703.926
428.0258, 2707.578
428.5080, 2744.718
428.9901, 2781.390
429.4722, 2784.036
429.9543, 2756.811
430.4364, 2739.168
430.9185, 2739.372
431.4007, 2743.990
431.8828, 2748.066
432.3649, 2750.627
432.8470, 2749.458
433.3291, 2743.503
433.8112, 2735.276
434.2934, 2729.646
434.7755, 2729.397
435.2576, 2725.508
435.7397, 2710.710
436.2218, 2699.109
436.7039, 2701.955
437.1861, 2715.412
437.6682, 2727.201
438.1503, 2728.840
438.6324, 2723.194
439.1145, 2719.486
439.5966, 2717.870
440.0788, 2717.974
440.5609, 2724.521
441.0430, 2729.761
441.5251, 2724.396
442.0072, 2707.446
442.4893, 2694.553
442.9715, 2703.114
443.4536, 2722.547
443.9357, 2724.741
444.4178, 2704.954
444.8999, 2684.063
445.3820, 2676.570
445.8642, 2680.131
446.3463, 2681.138
446.8284, 2677.197
447.3105, 2673.543
447.7926, 2672.020
448.2747, 2672.055
448.7569, 2672.579
449.2390, 2673.344
449.7211, 2675.602
450.2032, 2681.732
450.6853, 2693.683
451.1674, 2698.699
451.6496, 2695.058
452.1317, 2686.836
452.6138, 2669.368
453.0959, 2649.654
453.5780, 2639.131
454.0602, 2643.368
454.5423, 2655.162
455.0244, 2664.214
455.5065, 2670.795
455.9886, 2671.898
456.4707, 2663.411
456.9529, 2653.044
457.4350, 2646.389
457.9171, 2643.021
458.3992, 2640.367
458.8813, 2635.228
459.3634, 2631.687
459.8456, 2637.263
460.3277, 2650.387
460.8098, 2657.964
461.2919, 2652.161
461.7740, 2640.489
462.2561, 2639.972
462.7383, 2657.704
463.2204, 2669.415
463.7025, 2668.101
464.1846, 2663.650
464.6667, 2664.925
465.1488, 2670.929
465.6310, 2674.463
466.1131, 2670.270
466.5952, 2659.445
467.0773, 2645.993
467.5594, 2622.074
468.0415, 2610.413
468.5237, 2626.090
469.0058, 2646.770
469.4879, 2652.867
469.9700, 2642.744
470.4521, 2632.137
470.9342, 2635.673
471.4164, 2648.245
471.8985, 2653.761
472.3806, 2650.998
472.8627, 2644.398
473.3448, 2634.302
473.8269, 2622.773
474.3091, 2615.588
474.7912, 2616.346
475.2733, 2614.773
475.7554, 2602.801
476.2375, 2587.942
476.7196, 2581.542
477.2018, 2585.113
477.6839, 2590.387
478.1660, 2588.743
478.6481, 2580.104
479.1302, 2580.537
479.6123, 2606.141
480.0945, 2622.073
480.5766, 2614.581
481.0587, 2598.012
481.5408, 2590.031
482.0229, 2594.991
482.5050, 2600.368
482.9872, 2588.381
483.4693, 2560.765
483.9514, 2545.413
484.4335, 2544.910
484.9156, 2554.540
485.3977, 2584.946
485.8799, 2621.604
486.3620, 2635.376
486.8441, 2609.219
487.3262, 2579.522
487.8083, 2569.449
488.2904, 2572.262
488.7726, 2575.030
489.2547, 2574.644
489.7368, 2572.148
490.2189, 2567.722
490.7010, 2560.614
491.1831, 2560.612
491.6653, 2579.824
492.1474, 2591.399
492.6295, 2579.886
493.1116, 2558.688
493.5937, 2546.259
494.0758, 2548.821
494.5580, 2556.827
495.0401, 2557.510
495.5222, 2550.447
496.0043, 2545.562
496.4864, 2546.592
496.9685, 2544.692
497.4507, 2528.905
497.9328, 2507.726
498.4149, 2497.998
498.8970, 2506.944
499.3791, 2522.604
499.8612, 2541.412
500.3434, 2559.690
500.8255, 2566.814
501.3076, 2559.767
501.7897, 2546.558
502.2718, 2534.525
502.7539, 2523.301
503.2361, 2518.283
503.7182, 2522.627
504.2003, 2528.648
504.6824, 2536.238
505.1645, 2543.071
505.6466, 2545.365
506.1288, 2542.142
506.6109, 2537.829
507.0930, 2539.707
507.5751, 2548.426
508.0572, 2550.728
508.5393, 2545.305
509.0215, 2534.803
509.5036, 2513.499
509.9857, 2489.986
510.4678, 2480.511
510.9499, 2495.533
511.4320, 2510.309
511.9142, 2501.994
512.3963, 2481.100
512.8784, 2474.313
513.3605, 2487.453
513.8427, 2501.280
514.3248, 2495.827
514.8069, 2470.658
515.2890, 2460.053
515.7711, 2477.284
516.2532, 2491.025
516.7354, 2492.988
517.2175, 2488.120
517.6996, 2479.839
518.1817, 2470.099
518.6638, 2463.921
519.1459, 2470.076
519.6281, 2487.285
520.1102, 2494.164
520.5923, 2487.211
521.0744, 2477.203
521.5565, 2466.410
522.0386, 2456.793
522.5208, 2451.202
523.0029, 2450.155
523.4850, 2452.496
523.9671, 2463.241
524.4492, 2474.714
524.9313, 2472.682
525.4135, 2456.304
525.8956, 2439.033
526.3777, 2430.726
526.8598, 2430.199
527.3419, 2429.862
527.8240, 2429.553
528.3062, 2429.671
528.7883, 2431.419
529.2704, 2432.777
529.7525, 2431.521
530.2346, 2427.919
530.7167, 2424.586
531.1989, 2423.540
531.6810, 2424.266
532.1631, 2426.203
532.6452, 2430.215
533.1273, 2430.157
533.6094, 2422.597
534.0916, 2410.646
534.5737, 2396.818
535.0558, 2379.726
535.5379, 2370.873
536.0200, 2379.400
536.5021, 2392.755
536.9843, 2401.127
537.4664, 2404.513
537.9485, 2405.484
538.4306, 2405.221
538.9127, 2404.336
539.3948, 2404.581
539.8770, 2407.889
540.3591, 2407.632
540.8412, 2400.406
541.3233, 2392.704
541.8054, 2386.045
542.2875, 2381.384
542.7697, 2380.715
543.2518, 2386.192
543.7339, 2393.428
544.2160, 2398.345
544.6981, 2400.709
545.1802, 2398.156
545.6624, 2388.963
546.1445, 2379.066
546.6266, 2375.186
547.1087, 2377.558
547.5908, 2375.532
548.0729, 2356.499
548.5551, 2347.594
549.0372, 2368.834
549.5193, 2401.344
550.0014, 2420.160
550.4835, 2419.212
550.9656, 2409.194
551.4478, 2401.148
551.9299, 2394.930
552.4120, 2386.325
552.8941, 2372.990
553.3762, 2362.142
553.8583, 2355.000
554.3405, 2353.015
554.8226, 2359.151
555.3047, 2374.427
555.7868, 2392.946
556.2689, 2422.177
556.7510, 2447.333
557.2332, 2442.707
557.7153, 2411.306
558.1974, 2382.762
558.6795, 2374.203
559.1616, 2381.357
559.6437, 2392.704
560.1259, 2418.308
560.6080, 2429.770
561.0901, 2418.137
561.5722, 2402.093
562.0543, 2389.235
562.5364, 2381.062
563.0186, 2378.782
563.5007, 2384.592
563.9828, 2393.284
564.4649, 2398.541
564.9470, 2400.288
565.4291, 2396.287
565.9113, 2383.551
566.3934, 2372.197
566.8755, 2373.815
567.3576, 2388.502
567.8397, 2397.187
568.3218, 2393.386
568.8040, 2391.113
569.2861, 2397.705
569.7682, 2407.482
570.2503, 2414.476
570.7324, 2416.815
571.2145, 2413.622
571.6967, 2401.639
572.1788, 2382.706
572.6609, 2373.962
573.1430, 2378.307
573.6251, 2385.304
574.1072, 2396.242
574.5894, 2404.729
575.0715, 2400.561
575.5536, 2381.902
576.0357, 2370.458
576.5178, 2381.531
576.9999, 2398.576
577.4821, 2405.104
577.9642, 2402.666
578.4463, 2400.357
578.9284, 2402.530
579.4105, 2406.453
579.8926, 2406.789
580.3748, 2402.244
580.8569, 2398.230
581.3390, 2392.232
581.8211, 2389.488
582.3032, 2394.714
582.7853, 2403.719
583.2675, 2409.459
583.7496, 2409.304
584.2317, 2407.552
584.7138, 2408.522
585.1959, 2410.734
585.6780, 2408.593
586.1602, 2401.235
586.6422, 2398.647
587.1243, 2410.445
587.6064, 2431.545
588.0886, 2438.773
588.5707, 2416.665
589.0528, 2401.612
589.5349, 2397.895
590.0170, 2399.250
590.4991, 2403.303
590.9813, 2408.405
591.4634, 2412.201
591.9455, 2413.883
592.4276, 2412.281
592.9097, 2402.047
593.3918, 2383.729
593.8740, 2374.861
594.3561, 2382.257
594.8382, 2393.080
595.3203, 2394.835
595.8024, 2387.991
596.2845, 2384.490
596.7667, 2383.521
597.2488, 2386.935
597.7309, 2400.851
598.2130, 2416.563
598.6951, 2421.962
599.1772, 2416.396
599.6594, 2410.782
600.1415, 2415.946
600.6236, 2428.492
601.1057, 2432.056
601.5878, 2423.665
602.0699, 2418.603
602.5521, 2423.074
603.0342, 2431.399
603.5163, 2438.891
603.9984, 2445.445
604.4805, 2446.937
604.9626, 2436.351
605.4448, 2426.204
605.9269, 2425.424
606.4090, 2431.064
606.8911, 2438.869
607.3732, 2446.969
607.8553, 2450.689
608.3375, 2441.607
608.8196, 2419.610
609.3017, 2413.719
609.7838, 2435.563
610.2659, 2452.218
610.7480, 2449.676
611.2302, 2437.790
611.7123, 2424.261
612.1944, 2409.651
612.6765, 2397.387
613.1586, 2385.311
613.6407, 2378.978
614.1229, 2389.925
614.6050, 2412.290
615.0871, 2426.083
615.5692, 2422.583
616.0513, 2411.120
616.5334, 2407.014
617.0156, 2412.731
617.4977, 2411.890
617.9798, 2394.781
618.4619, 2383.538
618.9440, 2391.241
619.4261, 2405.965
619.9083, 2410.297
620.3904, 2399.610
620.8725, 2394.112
621.3546, 2413.442
621.8367, 2441.582
622.3188, 2456.340
622.8010, 2457.255
623.2831, 2450.364
623.7652, 2437.703
624.2473, 2423.469
624.7294, 2416.126
625.2115, 2418.276
625.6937, 2419.664
626.1758, 2417.909
626.6579, 2417.993
627.1400, 2425.284
627.6221, 2434.244
628.1042, 2435.924
628.5864, 2427.417
629.0685, 2416.746
629.5506, 2406.482
630.0327, 2399.272
630.5148, 2401.295
630.9969, 2412.323
631.4791, 2426.018
631.9612, 2439.855
632.4433, 2451.606
632.9254, 2455.341
633.4075, 2445.227
633.8896, 2441.167
634.3718, 2448.785
634.8539, 2456.235
635.3360, 2458.933
635.8181, 2458.146
636.3002, 2455.772
636.7823, 2452.032
637.2645, 2449.353
637.7466, 2451.429
638.2287, 2455.495
638.7108, 2454.563
639.1929, 2448.495
639.6750, 2444.999
640.1572, 2449.178
640.6393, 2456.821
641.1214, 2457.581
641.6035, 2446.847
642.0856, 2439.562
642.5677, 2438.049
643.0499, 2437.249
643.5320, 2435.097
644.0141, 2432.174
644.4962, 2429.714
644.9783, 2428.142
645.4604, 2426.679
645.9426, 2423.344
646.4247, 2420.097
646.9068, 2421.388
647.3889, 2427.302
647.8710, 2434.396
648.3531, 2440.837
648.8353, 2447.014
649.3174, 2454.219
649.7995, 2465.340
650.2816, 2470.098
650.7637, 2467.886
651.2458, 2460.078
651.7280, 2438.081
652.2101, 2414.005
652.6922, 2408.121
653.1743, 2427.809
653.6564, 2449.941
654.1385, 2458.420
654.6207, 2457.582
655.1028, 2452.847
655.5849, 2445.291
656.0670, 2438.568
656.5491, 2434.442
657.0313, 2432.669
657.5134, 2433.063
657.9955, 2436.588
658.4776, 2439.113
658.9597, 2439.600
659.4418, 2440.232
659.9240, 2441.106
660.4061, 2442.801
660.8882, 2446.833
661.3703, 2453.780
661.8524, 2459.028
662.3345, 2456.583
662.8167, 2452.721
663.2988, 2459.715
663.7809, 2474.154
664.2630, 2477.346
664.7451, 2460.411
665.2272, 2437.968
665.7094, 2434.150
666.1915, 2452.375
666.6736, 2465.602
667.1557, 2473.548
667.6378, 2476.649
668.1199, 2474.310
668.6021, 2467.939
669.0842, 2455.779
669.5663, 2437.396
670.0484, 2428.328
670.5305, 2443.312
671.0126, 2464.099
671.4948, 2475.543
671.9769, 2478.677
672.4590, 2476.829
672.9411, 2471.383
673.4232, 2465.655
673.9053, 2464.307
674.3875, 2467.039
674.8696, 2464.730
675.3517, 2453.557
675.8338, 2446.758
676.3159, 2451.378
676.7980, 2460.039
677.2802, 2465.300
677.7623, 2467.230
678.2444, 2469.050
678.7265, 2473.873
679.2086, 2476.342
679.6907, 2469.870
680.1729, 2460.491
680.6550, 2458.411
681.1371, 2464.910
681.6192, 2471.922
682.1013, 2471.528
682.5834, 2466.703
683.0656, 2469.873
683.5477, 2482.957
684.0298, 2488.778
684.5119, 2480.997
684.9940, 2468.535
685.4761, 2459.072
685.9583, 2452.413
686.4404, 2445.884
686.9225, 2434.034
687.4046, 2429.165
687.8867, 2442.628
688.3688, 2458.556
688.8510, 2461.778
689.3331, 2452.778
689.8152, 2439.784
690.2973, 2425.589
690.7794, 2415.571
691.2615, 2422.213
691.7437, 2442.332
692.2258, 2454.871
692.7079, 2456.490
693.1900, 2451.680
693.6721, 2442.059
694.1542, 2429.425
694.6364, 2420.173
695.1185, 2415.518
695.6006, 2412.615
696.0827, 2413.922
696.5648, 2414.540
697.0469, 2410.174
697.5291, 2403.619
698.0112, 2400.247
698.4933, 2401.956
698.9754, 2405.999
699.4575, 2410.436
699.9396, 2415.604
700.4218, 2425.183
700.9039, 2437.452
701.3860, 2440.398
701.8681, 2427.698
702.3502, 2406.892
702.8323, 2390.358
703.3145, 2378.037
703.7966, 2369.551
704.2787, 2363.221
704.7608, 2363.520
705.2429, 2380.857
705.7250, 2400.347
706.2072, 2403.442
706.6893, 2388.328
707.1714, 2377.122
707.6535, 2379.655
708.1356, 2386.584
708.6177, 2394.581
709.0999, 2401.027
709.5820, 2401.506
710.0641, 2395.193
710.5462, 2385.163
711.0283, 2373.722
711.5104, 2361.179
711.9926, 2346.642
712.4747, 2328.756
712.9568, 2321.375
713.4389, 2330.236
713.9210, 2346.265
714.4031, 2364.235
714.8853, 2383.124
715.3674, 2392.146
715.8495, 2379.379
716.3316, 2373.304
716.8137, 2386.516
717.2958, 2402.073
717.7780, 2406.950
718.2601, 2402.039
718.7422, 2393.720
719.2243, 2384.033
719.7064, 2375.593
720.1885, 2372.441
720.6707, 2372.635
721.1528, 2369.197
721.6349, 2361.871
722.1170, 2361.123
722.5991, 2374.652
723.0812, 2392.885
723.5634, 2393.397
724.0455, 2367.665
724.5276, 2354.046
725.0097, 2364.463
725.4918, 2371.272
725.9739, 2354.272
726.4561, 2333.508
726.9382, 2338.445
727.4203, 2373.895
727.9024, 2400.026
728.3845, 2394.082
728.8666, 2380.252
729.3488, 2376.253
729.8309, 2378.128
730.3130, 2375.818
730.7951, 2367.528
731.2772, 2362.368
731.7593, 2372.127
732.2415, 2389.244
732.7236, 2382.926
733.2057, 2350.735
733.6878, 2333.576
734.1699, 2344.555
734.6520, 2363.637
735.1342, 2374.537
735.6163, 2377.876
736.0984, 2378.567
736.5805, 2372.072
737.0626, 2369.469
737.5447, 2376.657
738.0269, 2383.472
738.5090, 2383.453
738.9911, 2377.514
739.4732, 2367.427
739.9553, 2351.849
740.4374, 2341.681
740.9196, 2351.664
741.4017, 2370.082
741.8838, 2377.276
742.3659, 2373.743
742.8480, 2369.746
743.3301, 2369.925
743.8123, 2372.516
744.2944, 2375.844
744.7765, 2380.175
745.2586, 2376.633
745.7407, 2358.448
746.2228, 2350.262
746.7050, 2368.674
747.1871, 2393.699
747.6692, 2399.416
748.1513, 2386.620
748.6334, 2380.774
749.1155, 2395.660
749.5977, 2404.467
750.0798, 2393.660
750.5619, 2374.865
751.0440, 2355.930
751.5261, 2340.624
752.0082, 2335.828
752.4904, 2348.380
752.9725, 2365.588
753.4546, 2368.324
753.9367, 2362.412
754.4188, 2369.621
754.9009, 2391.735
755.3831, 2405.031
755.8652, 2393.736
756.3473, 2369.574
756.8294, 2359.136
757.3115, 2366.240
757.7936, 2372.456
758.2758, 2379.434
758.7579, 2382.922
759.2400, 2377.855
759.7221, 2370.053
760.2042, 2365.890
760.6863, 2365.792
761.1685, 2367.599
761.6506, 2374.471
762.1327, 2379.042
762.6148, 2375.111
763.0969, 2367.698
763.5790, 2362.499
764.0612, 2360.974
764.5433, 2363.398
765.0254, 2371.495
765.5075, 2381.049
765.9896, 2385.897
766.4717, 2386.198
766.9539, 2380.722
767.4360, 2369.191
767.9181, 2360.487
768.4002, 2361.230
768.8823, 2368.158
769.3644, 2372.486
769.8466, 2373.831
770.3287, 2373.331
770.8108, 2364.491
771.2929, 2362.759
771.7750, 2388.047
772.2571, 2417.345
772.7393, 2416.556
773.2214, 2379.867
773.7035, 2350.804
774.1856, 2342.278
774.6677, 2342.953
775.1498, 2354.313
775.6320, 2366.785
776.1141, 2365.510
776.5962, 2350.262
777.0783, 2335.344
777.5604, 2329.759
778.0425, 2331.554
778.5247, 2340.096
779.0068, 2353.556
779.4889, 2365.756
779.9710, 2375.655
780.4531, 2377.384
780.9352, 2365.518
781.4174, 2346.670
781.8995, 2338.124
782.3816, 2342.565
782.8637, 2348.154
783.3458, 2358.173
783.8279, 2363.904
784.3101, 2358.636
784.7922, 2348.444
785.2743, 2339.901
785.7564, 2332.951
786.2385, 2331.181
786.7206, 2341.999
787.2028, 2350.207
787.6849, 2344.440
788.1670, 2335.135
788.6491, 2336.120
789.1312, 2346.953
789.6133, 2355.651
790.0955, 2354.818
790.5776, 2349.726
791.0597, 2347.833
791.5418, 2346.406
792.0239, 2336.872
792.5060, 2319.392
792.9882, 2302.277
793.4703, 2289.529
793.9524, 2284.627
794.4345, 2298.036
794.9166, 2332.696
795.3987, 2351.597
795.8809, 2350.578
796.3630, 2345.377
796.8451, 2340.742
797.3272, 2335.943
797.8093, 2328.788
798.2914, 2318.820
798.7736, 2315.014
799.2557, 2323.575
799.7378, 2330.012
800.2199, 2331.219
800.7020, 2329.013
801.1841, 2321.668
801.6663, 2312.293
802.1484, 2310.454
802.6305, 2323.360
803.1126, 2333.181
803.5947, 2322.430
804.0768, 2304.469
804.5590, 2295.220
805.0411, 2294.668
805.5232, 2298.120
806.0053, 2303.648
806.4874, 2311.826
806.9695, 2326.619
807.4517, 2344.443
807.9338, 2345.076
808.4159, 2328.168
808.8980, 2319.077
809.3801, 2326.282
809.8622, 2336.084
810.3444, 2335.789
810.8265, 2326.908
811.3086, 2318.635
811.7907, 2309.587
812.2728, 2304.147
812.7549, 2305.859
813.2371, 2307.801
813.7192, 2304.498
814.2013, 2299.961
814.6834, 2301.603
815.1655, 2311.366
815.6476, 2320.983
816.1298, 2332.004
816.6119, 2338.149
817.0940, 2331.324
817.5761, 2319.662
818.0582, 2314.579
818.5403, 2317.350
819.0225, 2320.980
819.5046, 2321.987
819.9867, 2320.230
820.4688, 2313.896
820.9509, 2305.054
821.4330, 2297.353
821.9152, 2291.939
822.3973, 2292.599
822.8794, 2302.000
823.3615, 2314.678
823.8436, 2320.568
824.3257, 2319.680
824.8079, 2320.553
825.2900, 2324.688
825.7721, 2322.221
826.2542, 2305.517
826.7363, 2288.448
827.2184, 2288.451
827.7006, 2305.392
828.1827, 2319.599
828.6648, 2336.790
829.1469, 2342.316
829.6290, 2324.639
830.1111, 2304.933
830.5933, 2295.323
831.0754, 2293.709
831.5575, 2293.171
832.0396, 2290.549
832.5217, 2296.003
833.0038, 2326.475
833.4860, 2353.404
833.9681, 2348.371
834.4502, 2328.511
834.9323, 2325.388
835.4144, 2343.733
835.8965, 2359.188
836.3787, 2352.192
836.8608, 2335.394
837.3429, 2321.940
837.8250, 2313.306
838.3071, 2317.146
838.7892, 2332.375
839.2714, 2342.369
839.7535, 2336.863
840.2356, 2323.246
840.7177, 2313.897
841.1998, 2308.814
841.6819, 2308.896
842.1641, 2314.630
842.6462, 2323.714
843.1283, 2337.632
843.6104, 2349.038
844.0925, 2348.739
844.5746, 2336.976
845.0568, 2324.377
845.5389, 2302.768
846.0210, 2294.393
846.5031, 2315.107
846.9852, 2336.578
847.4673, 2342.654
847.9495, 2338.042
848.4316, 2332.397
848.9137, 2325.491
849.3958, 2322.207
849.8779, 2327.530
850.3600, 2332.669
850.8422, 2332.377
851.3243, 2329.203
851.8064, 2326.546
852.2885, 2324.954
852.7706, 2323.078
853.2527, 2319.383
853.7349, 2316.393
854.2170, 2319.692
854.6991, 2323.656
855.1812, 2316.998
855.6633, 2301.611
856.1454, 2288.396
856.6276, 2282.411
857.1097, 2282.883
857.5918, 2294.974
858.0739, 2312.381
858.5560, 2305.490
859.0381, 2276.453
859.5203, 2262.999
860.0024, 2277.269
860.4845, 2290.169
860.9666, 2272.125
861.4487, 2234.790
861.9308, 2230.478
862.4130, 2269.697
862.8951, 2293.077
863.3772, 2290.716
863.8593, 2283.772
864.3414, 2281.734
864.8235, 2282.606
865.3057, 2284.670
865.7878, 2290.076
866.2699, 2284.052
866.7520, 2252.937
867.2341, 2229.174
867.7162, 2223.324
868.1984, 2223.519
868.6805, 2223.483
869.1626, 2221.547
869.6447, 2214.032
870.1268, 2197.602
870.6089, 2182.142
871.0911, 2171.228
871.5732, 2162.505
872.0553, 2156.127
872.5374, 2149.984
873.0195, 2138.792
873.5016, 2122.685
873.9838, 2112.233
874.4659, 2121.596
874.9480, 2131.281
875.4301, 2118.547
875.9122, 2093.243
876.3943, 2070.805
876.8765, 2053.411
877.3586, 2039.147
877.8407, 2027.064
878.3228, 2016.520
878.8049, 2006.333
879.2870, 1996.979
879.7692, 1991.435
880.2513, 1989.021
880.7334, 1982.415
881.2155, 1969.388
881.6976, 1956.472
882.1797, 1951.490
882.6619, 1947.930
883.1440, 1917.162
883.6261, 1852.903
884.1082, 1818.411
884.5903, 1826.502
885.0724, 1838.381
885.5546, 1837.978
886.0367, 1827.202
886.5188, 1806.676
887.0009, 1774.844
887.4830, 1754.897
887.9651, 1759.936
888.4473, 1753.703
888.9294, 1716.836
889.4115, 1680.004
889.8936, 1667.227
890.3757, 1669.928
890.8578, 1665.734
891.3400, 1650.917
891.8221, 1636.451
892.3042, 1624.307
892.7863, 1612.377
893.2684, 1597.966
893.7505, 1584.421
894.2327, 1578.485
894.7148, 1578.336
895.1969, 1569.984
895.6790, 1541.519
896.1611, 1515.181
896.6432, 1502.845
897.1254, 1497.755
897.6075, 1495.435
898.0896, 1494.578
898.5717, 1495.397
899.0538, 1497.579
899.5359, 1495.731
900.0181, 1482.186
900.5002, 1465.413
900.9823, 1453.593
901.4644, 1446.777
901.9465, 1448.744
902.4286, 1456.935
902.9108, 1457.621
903.3929, 1442.623
903.8750, 1423.205
904.3571, 1415.024
904.8392, 1414.516
905.3214, 1409.736
905.8035, 1401.670
906.2856, 1401.047
906.7677, 1410.793
907.2498, 1419.053
907.7319, 1414.990
908.2141, 1402.772
908.6962, 1393.709
909.1783, 1387.808
909.6604, 1383.391
910.1425, 1380.183
910.6246, 1380.672
911.1068, 1387.849
911.5889, 1392.828
912.0710, 1381.555
912.5531, 1355.192
913.0352, 1343.970
913.5173, 1353.870
913.9995, 1359.695
914.4816, 1357.086
914.9637, 1350.402
915.4458, 1340.520
915.9279, 1329.678
916.4100, 1322.837
916.8922, 1320.341
917.3743, 1320.464
917.8564, 1324.826
918.3385, 1329.550
918.8206, 1334.770
919.3027, 1339.168
919.7849, 1343.783
920.2670, 1346.898
920.7491, 1341.594
921.2312, 1320.515
921.7133, 1305.866
922.1954, 1302.743
922.6776, 1304.151
923.1597, 1310.513
923.6418, 1317.251
924.1239, 1319.086
924.6060, 1315.924
925.0881, 1311.687
925.5703, 1307.056
926.0524, 1302.352
926.5345, 1294.808
927.0166, 1289.905
927.4987, 1295.271
927.9808, 1305.532
928.4630, 1310.955
928.9451, 1309.203
929.4272, 1303.852
929.9093, 1292.245
930.3914, 1282.880
930.8735, 1286.461
931.3557, 1293.503
931.8378, 1290.873
932.3199, 1280.031
932.8020, 1268.713
933.2841, 1259.918
933.7662, 1257.386
934.2484, 1270.820
934.7305, 1287.519
935.2126, 1290.089
935.6947, 1282.755
936.1768, 1273.169
936.6589, 1264.050
937.1411, 1259.601
937.6232, 1262.731
938.1053, 1268.507
938.5874, 1272.766
939.0695, 1273.895
939.5516, 1264.550
940.0338, 1247.916
940.5159, 1238.333
940.9980, 1239.540
941.4801, 1245.987
941.9622, 1254.188
942.4443, 1261.595
942.9265, 1261.566
943.4086, 1255.693
943.8907, 1252.092
944.3728, 1251.407
944.8549, 1253.961
945.3370, 1260.033
945.8192, 1266.475
946.3013, 1270.486
946.7834, 1271.489
947.2655, 1266.295
947.7476, 1254.917
948.2297, 1244.320
948.7119, 1235.117
949.1940, 1228.709
949.6761, 1225.940
950.1582, 1225.615
950.6403, 1225.952
951.1224, 1227.097
951.6046, 1232.022
952.0867, 1242.161
952.5688, 1246.913
953.0509, 1243.234
953.5330, 1238.671
954.0151, 1237.884
954.4973, 1238.957
954.9794, 1238.036
955.4615, 1234.762
955.9436, 1234.043
956.4257, 1237.274
956.9078, 1238.949
957.3900, 1237.195
957.8721, 1235.113
958.3542, 1235.994
958.8363, 1237.406
959.3184, 1231.893
959.8005, 1215.203
960.2827, 1209.085
960.7648, 1221.453
961.2469, 1229.863
961.7290, 1227.866
962.2111, 1220.382
962.6932, 1208.043
963.1754, 1193.732
963.6575, 1189.418
964.1396, 1199.762
964.6217, 1209.582
965.1038, 1221.478
965.5859, 1229.331
966.0681, 1231.326
966.5502, 1228.293
967.0323, 1217.964
967.5144, 1202.349
967.9965, 1193.036
968.4786, 1193.852
968.9608, 1194.764
969.4429, 1196.946
969.9250, 1197.155
970.4071, 1188.862
970.8892, 1181.502
971.3713, 1189.580
971.8535, 1210.943
972.3356, 1221.227
972.8177, 1208.789
973.2998, 1198.956
973.7819, 1196.703
974.2640, 1196.153
974.7462, 1194.020
975.2283, 1191.964
975.7104, 1192.942
976.1925, 1196.875
976.6746, 1199.347
977.1567, 1198.140
977.6389, 1197.299
978.1210, 1199.884
978.6031, 1200.902
979.0852, 1195.733
979.5673, 1187.730
980.0494, 1182.356
980.5316, 1180.181
981.0137, 1176.674
981.4958, 1167.063
981.9779, 1160.848
982.4600, 1161.973
982.9421, 1166.620
983.4243, 1175.488
983.9064, 1184.421
984.3885, 1184.829
984.8706, 1175.501
985.3527, 1172.172
985.8348, 1189.281
986.3170, 1201.192
986.7991, 1192.058
987.2812, 1178.675
987.7633, 1175.527
988.2454, 1178.347
988.7275, 1176.409
989.2097, 1167.537
989.6918, 1159.971
990.1739, 1153.963
990.6560, 1153.699
991.1381, 1169.847
991.6202, 1184.993
992.1024, 1179.867
992.5845, 1162.586
993.0666, 1152.514
993.5487, 1154.290
994.0308, 1156.432
994.5129, 1153.673
994.9951, 1150.705
995.4772, 1148.107
995.9593, 1147.989
996.4414, 1154.327
996.9235, 1164.197
997.4056, 1171.738
997.8878, 1175.604
998.3699, 1174.757
998.8520, 1164.966
999.3341, 1154.876
999.8162, 1147.309
1000.298, 1143.315
1000.780, 1145.570
1001.263, 1151.740
1001.745, 1157.781
1002.227, 1162.976
1002.709, 1162.192
1003.191, 1145.979
1003.673, 1131.831
1004.155, 1130.227
1004.637, 1134.972
1005.120, 1140.792
1005.602, 1147.272
1006.084, 1156.598
1006.566, 1169.730
1007.048, 1178.173
1007.530, 1176.529
1008.012, 1171.247
1008.494, 1160.870
1008.976, 1152.656
1009.459, 1157.936
1009.941, 1170.165
1010.423, 1171.749
1010.905, 1157.617
1011.387, 1146.284
1011.869, 1148.559
1012.351, 1151.849
1012.833, 1150.918
1013.315, 1146.943
1013.798, 1138.890
1014.280, 1129.417
1014.762, 1124.428
1015.244, 1125.514
1015.726, 1126.286
1016.208, 1119.365
1016.690, 1117.822
1017.172, 1137.684
1017.655, 1156.866
1018.137, 1151.068
1018.619, 1130.484
1019.101, 1119.874
1019.583, 1124.559
1020.065, 1130.798
1020.547, 1136.370
1021.029, 1139.689
1021.511, 1139.541
1021.994, 1137.424
1022.476, 1131.953
1022.958, 1126.336
1023.440, 1128.202
1023.922, 1139.308
1024.404, 1144.787
1024.886, 1132.308
1025.368, 1125.090
1025.851, 1136.949
1026.333, 1150.747
1026.815, 1157.463
1027.297, 1155.996
1027.779, 1142.082
1028.261, 1114.564
1028.743, 1098.432
1029.225, 1105.712
1029.708, 1114.714
1030.190, 1121.018
1030.672, 1126.684
1031.154, 1134.961
1031.636, 1142.548
1032.118, 1145.033
1032.600, 1142.082
1033.082, 1132.406
1033.564, 1103.513
1034.047, 1086.269
1034.529, 1089.709
1035.011, 1100.595
1035.493, 1119.529
1035.975, 1137.526
1036.457, 1140.585
1036.939, 1128.656
1037.421, 1120.980
1037.903, 1122.540
1038.386, 1121.293
1038.868, 1111.929
1039.350, 1105.697
1039.832, 1110.656
1040.314, 1118.328
1040.796, 1117.625
1041.278, 1109.752
1041.760, 1107.892
1042.243, 1118.435
1042.725, 1121.436
1043.207, 1110.269
1043.689, 1102.313
1044.171, 1104.860
1044.653, 1112.326
1045.135, 1120.855
1045.617, 1129.109
1046.099, 1129.446
1046.582, 1117.327
1047.064, 1111.782
1047.546, 1116.153
1048.028, 1118.680
1048.510, 1115.463
1048.992, 1109.424
1049.474, 1102.008
1049.956, 1094.928
1050.438, 1093.959
1050.921, 1100.106
1051.403, 1106.702
1051.885, 1114.882
1052.367, 1116.366
1052.849, 1107.236
1053.331, 1099.533
1053.813, 1103.355
1054.295, 1111.439
1054.778, 1106.719
1055.260, 1089.624
1055.742, 1080.182
1056.224, 1078.484
1056.706, 1081.130
1057.188, 1087.707
1057.670, 1092.615
1058.152, 1092.486
1058.635, 1088.519
1059.117, 1080.876
1059.599, 1071.438
1060.081, 1069.248
1060.563, 1073.756
1061.045, 1083.586
1061.527, 1097.456
1062.009, 1103.855
1062.491, 1097.363
1062.974, 1086.613
1063.456, 1080.683
1063.938, 1078.180
1064.420, 1075.522
1064.902, 1073.667
1065.384, 1077.243
1065.866, 1084.757
1066.348, 1087.351
1066.830, 1082.403
1067.313, 1077.419
1067.795, 1079.038
1068.277, 1082.943
1068.759, 1081.663
1069.241, 1079.801
1069.723, 1088.770
1070.205, 1102.957
1070.687, 1105.256
1071.170, 1093.934
1071.652, 1084.566
1072.134, 1086.400
1072.616, 1091.993
1073.098, 1098.996
1073.580, 1103.012
1074.062, 1095.473
1074.544, 1084.162
1075.026, 1083.004
1075.509, 1090.629
1075.991, 1092.549
1076.473, 1081.707
1076.955, 1073.319
1077.437, 1079.110
1077.919, 1084.758
1078.401, 1080.041
1078.883, 1072.140
1079.365, 1067.544
1079.848, 1066.437
1080.330, 1067.789
1080.812, 1071.858
1081.294, 1074.629
1081.776, 1077.120
1082.258, 1075.517
1082.740, 1062.214
1083.222, 1051.159
1083.704, 1054.475
1084.187, 1064.859
1084.669, 1070.388
1085.151, 1070.501
1085.633, 1067.291
1086.115, 1055.132
1086.597, 1049.870
1087.079, 1056.867
1087.561, 1064.039
1088.044, 1066.437
1088.526, 1066.630
1089.008, 1068.063
1089.490, 1069.706
1089.972, 1064.927
1090.454, 1050.453
1090.936, 1043.604
1091.418, 1046.196
1091.901, 1051.840
1092.383, 1060.625
1092.865, 1063.059
1093.347, 1049.895
1093.829, 1029.683
1094.311, 1021.692
1094.793, 1025.483
1095.275, 1034.935
1095.757, 1049.550
1096.240, 1056.649
1096.722, 1054.039
1097.204, 1053.668
1097.686, 1062.359
1098.168, 1069.990
1098.650, 1060.873
1099.132, 1043.778
1099.614, 1041.268
1100.096, 1048.341
1100.579, 1050.945
1101.061, 1048.586
1101.543, 1046.024
1102.025, 1045.155
1102.507, 1046.889
1102.989, 1053.026
1103.471, 1059.755
1103.953, 1063.208
1104.436, 1064.615
1104.918, 1065.702
1105.400, 1065.919
1105.882, 1064.283
1106.364, 1060.500
1106.846, 1053.427
1107.328, 1040.518
1107.810, 1032.523
1108.292, 1041.977
1108.775, 1050.145
1109.257, 1040.561
1109.739, 1027.896
1110.221, 1029.985
1110.703, 1041.156
1111.185, 1041.631
1111.667, 1025.561
1112.149, 1022.211
1112.631, 1055.366
1113.114, 1073.811
1113.596, 1050.525
1114.078, 1029.061
1114.560, 1040.170
1115.042, 1059.822
1115.524, 1052.470
1116.006, 1021.648
1116.488, 1012.218
1116.971, 1034.136
1117.453, 1044.993
1117.935, 1038.178
1118.417, 1037.605
1118.899, 1054.682
1119.381, 1066.970
1119.863, 1053.135
1120.345, 1026.274
1120.828, 1017.919
1121.310, 1027.184
1121.792, 1038.261
1122.274, 1050.908
1122.756, 1061.951
1123.238, 1070.298
1123.720, 1067.240
1124.202, 1048.071
1124.684, 1025.964
1125.167, 1014.508
1125.649, 1011.940
1126.131, 1019.738
1126.613, 1031.829
1127.095, 1034.827
1127.577, 1030.288
1128.059, 1025.667
1128.541, 1023.224
1129.023, 1022.595
1129.506, 1024.573
1129.988, 1025.445
1130.470, 1019.522
1130.952, 1014.323
1131.434, 1018.855
1131.916, 1026.196
1132.398, 1027.262
1132.880, 1022.607
1133.363, 1016.840
1133.845, 1010.268
1134.327, 1006.727
1134.809, 1005.366
1135.291, 1009.585
1135.773, 1029.647
1136.255, 1045.502
1136.737, 1040.065
1137.219, 1026.063
1137.702, 1020.631
1138.184, 1023.150
1138.666, 1025.176
1139.148, 1026.646
1139.630, 1028.405
1140.112, 1031.936
1140.594, 1029.232
1141.076, 1015.372
1141.558, 1005.338
1142.041, 1012.871
1142.523, 1027.300
1143.005, 1023.163
1143.487, 1004.567
1143.969, 1006.314
1144.451, 1024.618
1144.933, 1033.838
1145.415, 1030.997
1145.898, 1026.136
1146.380, 1023.701
1146.862, 1022.666
1147.344, 1022.159
1147.826, 1022.387
1148.308, 1024.092
1148.790, 1026.359
1149.272, 1028.930
1149.755, 1030.589
1150.237, 1028.983
1150.719, 1024.151
1151.201, 1018.105
1151.683, 1011.252
1152.165, 1004.817
1152.647, 997.8457
1153.129, 993.3594
1153.611, 994.4861
1154.094, 997.1799
1154.576, 997.8797
1155.058, 997.6506
1155.540, 999.8196
1156.022, 1004.857
1156.504, 1005.127
1156.986, 996.5648
1157.468, 992.0450
1157.950, 993.0270
1158.433, 996.7707
1158.915, 1003.068
1159.397, 1009.954
1159.879, 1016.290
1160.361, 1020.578
1160.843, 1018.208
1161.325, 1009.607
1161.807, 1000.501
1162.290, 991.5005
1162.772, 991.5565
1163.254, 1000.776
1163.736, 1005.283
1164.218, 998.9042
1164.700, 991.1831
1165.182, 990.8588
1165.664, 994.8502
1166.146, 1002.331
1166.629, 1008.937
1167.111, 1007.625
1167.593, 1000.775
1168.075, 991.1446
1168.557, 981.3229
1169.039, 978.2742
1169.521, 985.7488
1170.003, 994.2076
1170.485, 1002.799
1170.968, 1007.571
1171.450, 1005.327
1171.932, 1000.095
1172.414, 992.8272
1172.896, 985.6707
1173.378, 982.2621
1173.860, 982.4451
1174.342, 983.3420
1174.825, 985.9005
1175.307, 985.7536
1175.789, 981.2665
1176.271, 980.5179
1176.753, 987.2426
1177.235, 990.9252
1177.717, 982.7684
1178.199, 971.0145
1178.682, 970.7977
1179.164, 979.0115
1179.646, 984.5045
1180.128, 987.3680
1180.610, 986.7286
1181.092, 983.5594
1181.574, 981.4766
1182.056, 981.7328
1182.538, 984.3694
1183.021, 991.3325
1183.503, 995.2386
1183.985, 984.3889
1184.467, 973.7040
1184.949, 982.0250
1185.431, 993.6349
1185.913, 983.5089
1186.395, 960.7106
1186.877, 956.7686
1187.360, 979.6219
1187.842, 991.1725
1188.324, 973.8185
1188.806, 965.6415
1189.288, 976.7195
1189.770, 986.2371
1190.252, 985.6272
1190.734, 980.5216
1191.217, 975.1748
1191.699, 971.0430
1192.181, 973.0760
1192.663, 981.0457
1193.145, 987.9018
1193.627, 993.4702
1194.109, 995.6392
1194.591, 994.2681
1195.073, 991.1603
1195.556, 987.1436
1196.038, 982.4853
1196.520, 976.5639
1197.002, 972.0485
1197.484, 973.1909
1197.966, 976.5414
1198.448, 979.3609
1198.930, 980.6717
1199.412, 978.5105
1199.895, 973.9109
1200.377, 970.4678
1200.859, 968.9766
1201.341, 968.8262
1201.823, 972.2620
1202.305, 973.4357
1202.787, 967.5671
1203.269, 963.8510
1203.752, 968.0164
1204.234, 973.3397
1204.716, 971.7450
1205.198, 966.7728
1205.680, 971.8160
1206.162, 987.6173
1206.644, 990.6058
1207.126, 981.2216
1207.609, 976.3029
1208.091, 978.0406
1208.573, 974.8005
1209.055, 961.8397
1209.537, 953.5447
1210.019, 965.9405
1210.501, 982.5305
1210.983, 983.6052
1211.465, 976.2960
1211.948, 964.8046
1212.430, 953.8559
1212.912, 950.1895
1213.394, 952.8389
1213.876, 956.1670
1214.358, 958.8255
1214.840, 963.0741
1215.322, 976.1489
1215.804, 980.3133
1216.287, 965.7842
1216.769, 951.6716
1217.251, 945.6845
1217.733, 942.4829
1218.215, 936.2097
1218.697, 930.2021
1219.179, 934.7632
1219.661, 949.0652
1220.144, 954.6627
1220.626, 952.5790
1221.108, 952.6840
1221.590, 956.0746
1222.072, 959.8020
1222.554, 962.7493
1223.036, 965.6967
1223.518, 969.5731
1224.000, 972.5920
1224.483, 973.6851
1224.965, 972.3890
1225.447, 966.4342
1225.929, 959.2850
1226.411, 955.8487
1226.893, 954.4203
1227.375, 949.1548
1227.857, 939.0323
1228.339, 933.8730
1228.822, 937.4404
1229.304, 940.1636
1229.786, 940.2248
1230.268, 943.8055
1230.750, 954.8523
1231.232, 962.3888
1231.714, 957.3873
1232.196, 948.4757
1232.679, 950.6008
1233.161, 959.9319
1233.643, 962.8394
1234.125, 961.5785
1234.607, 964.7870
1235.089, 970.4435
1235.571, 969.1599
1236.053, 959.9849
1236.536, 949.5706
1237.018, 939.9739
1237.500, 936.3711
1237.982, 950.0505
1238.464, 959.5391
1238.946, 947.7788
1239.428, 934.3759
1239.910, 934.8727
1240.392, 941.6586
1240.875, 944.1797
1241.357, 942.9689
1241.839, 939.7634
1242.321, 933.2747
1242.803, 934.1173
1243.285, 943.2874
1243.767, 947.1499
1244.249, 943.4852
1244.731, 940.0800
1245.214, 940.3729
1245.696, 940.2003
1246.178, 934.7180
1246.660, 930.1570
1247.142, 937.6366
1247.624, 948.1035
1248.106, 951.0481
1248.588, 948.9017
1249.071, 943.0784
1249.553, 936.6195
1250.035, 936.7611
1250.517, 944.7702
1250.999, 948.1784
1251.481, 942.0859
1251.963, 935.9489
1252.445, 928.7971
1252.927, 924.6951
1253.410, 925.4658
1253.892, 927.7443
1254.374, 929.6599
1254.856, 930.2687
1255.338, 927.3964
1255.820, 923.0367
1256.302, 922.3619
1256.784, 925.5692
1257.266, 938.3950
1257.749, 954.3237
1258.231, 952.1221
1258.713, 933.1050
1259.195, 920.1014
1259.677, 921.9202
1260.159, 926.5776
1260.641, 931.2677
1261.123, 933.6137
1261.606, 931.8147
1262.088, 928.5688
1262.570, 923.2545
1263.052, 919.6611
1263.534, 923.1960
1264.016, 928.6459
1264.498, 921.6459
1264.980, 903.6796
##END=



