##NAMES=Ixiolite
##RRUFFID=R070289
##IDEAL CHEMISTRY=(Ta^5+^,Mn^2+^,Nb^5+^)O_2_
##LOCALITY=Voroni Tundra, Kola Peninsula, Russia
##OWNER=RRUFF
##SOURCE=Michael Scott
##DESCRIPTION=Semimetallic black crystal with internal brown hints, associated with quartz, spodumene and mica
##STATUS=The identification of this mineral has been confirmed only by single crystal X-ray diffraction.
##URL=rruff.info/R070289
164.8920, 3923.844
165.3741, 3973.402
165.8563, 4014.953
166.3384, 4030.022
166.8205, 4030.221
167.3026, 4034.759
167.7847, 4055.018
168.2668, 4083.418
168.7490, 4103.151
169.2311, 4111.633
169.7132, 4117.168
170.1953, 4121.910
170.6774, 4127.157
171.1595, 4135.417
171.6417, 4149.565
172.1238, 4166.749
172.6059, 4180.482
173.0880, 4191.927
173.5701, 4196.941
174.0522, 4188.450
174.5344, 4174.189
175.0165, 4165.860
175.4986, 4171.163
175.9807, 4184.786
176.4628, 4190.859
176.9449, 4182.375
177.4271, 4179.568
177.9092, 4196.353
178.3913, 4221.182
178.8734, 4237.406
179.3555, 4234.358
179.8376, 4220.005
180.3197, 4218.597
180.8019, 4237.133
181.2840, 4256.908
181.7661, 4275.557
182.2482, 4290.800
182.7303, 4297.289
183.2124, 4289.339
183.6946, 4275.985
184.1767, 4286.612
184.6588, 4343.610
185.1409, 4384.937
185.6230, 4384.599
186.1051, 4365.549
186.5873, 4354.050
187.0694, 4362.763
187.5515, 4384.597
188.0336, 4401.441
188.5157, 4412.158
188.9978, 4418.909
189.4800, 4419.781
189.9621, 4418.620
190.4442, 4418.910
190.9263, 4422.053
191.4084, 4428.238
191.8905, 4438.940
192.3727, 4460.208
192.8548, 4474.913
193.3369, 4480.111
193.8190, 4478.735
194.3011, 4471.224
194.7832, 4457.568
195.2654, 4443.239
195.7475, 4440.834
196.2296, 4457.451
196.7117, 4473.277
197.1938, 4486.919
197.6759, 4498.188
198.1581, 4506.875
198.6402, 4512.947
199.1223, 4516.461
199.6044, 4516.306
200.0865, 4506.411
200.5686, 4505.630
201.0508, 4521.563
201.5329, 4541.762
202.0150, 4556.359
202.4971, 4562.789
202.9792, 4565.633
203.4613, 4573.404
203.9435, 4592.542
204.4256, 4601.518
204.9077, 4594.543
205.3898, 4582.231
205.8719, 4569.318
206.3540, 4557.776
206.8362, 4549.813
207.3183, 4550.131
207.8004, 4565.255
208.2825, 4571.724
208.7646, 4559.945
209.2467, 4547.845
209.7289, 4548.414
210.2110, 4561.573
210.6931, 4575.839
211.1752, 4576.817
211.6573, 4559.637
212.1395, 4546.973
212.6216, 4535.280
213.1037, 4530.645
213.5858, 4538.967
214.0679, 4558.469
214.5500, 4581.929
215.0322, 4603.527
215.5143, 4624.134
215.9964, 4636.251
216.4785, 4633.016
216.9606, 4627.851
217.4427, 4622.844
217.9249, 4619.845
218.4070, 4621.821
218.8891, 4632.094
219.3712, 4650.960
219.8533, 4667.414
220.3354, 4679.748
220.8176, 4691.175
221.2997, 4705.502
221.7818, 4719.532
222.2639, 4726.643
222.7460, 4721.349
223.2281, 4704.912
223.7103, 4691.304
224.1924, 4676.921
224.6745, 4670.102
225.1566, 4679.428
225.6387, 4696.014
226.1208, 4705.233
226.6030, 4697.296
227.0851, 4678.783
227.5672, 4678.317
228.0493, 4716.021
228.5314, 4745.240
229.0135, 4757.900
229.4957, 4758.495
229.9778, 4751.031
230.4599, 4737.078
230.9420, 4719.043
231.4241, 4701.747
231.9062, 4679.855
232.3884, 4669.158
232.8705, 4675.264
233.3526, 4689.522
233.8347, 4706.992
234.3168, 4725.580
234.7989, 4741.536
235.2811, 4747.594
235.7632, 4739.630
236.2453, 4731.223
236.7274, 4720.524
237.2095, 4711.792
237.6916, 4709.007
238.1738, 4712.432
238.6559, 4717.771
239.1380, 4718.765
239.6201, 4712.806
240.1022, 4712.321
240.5843, 4725.445
241.0665, 4737.822
241.5486, 4743.002
242.0307, 4740.603
242.5128, 4733.505
242.9949, 4722.714
243.4770, 4707.498
243.9592, 4697.373
244.4413, 4698.053
244.9234, 4698.624
245.4055, 4693.387
245.8876, 4684.472
246.3697, 4678.113
246.8519, 4680.163
247.3340, 4689.238
247.8161, 4692.474
248.2982, 4685.375
248.7803, 4678.137
249.2624, 4672.978
249.7446, 4670.243
250.2267, 4670.423
250.7088, 4673.991
251.1909, 4680.405
251.6730, 4689.204
252.1551, 4704.327
252.6373, 4713.519
253.1194, 4712.389
253.6015, 4704.339
254.0836, 4690.896
254.5657, 4671.151
255.0478, 4651.823
255.5300, 4643.397
256.0121, 4647.017
256.4942, 4657.526
256.9763, 4683.723
257.4584, 4710.441
257.9406, 4725.438
258.4227, 4725.859
258.9048, 4721.595
259.3869, 4724.316
259.8690, 4734.584
260.3511, 4738.218
260.8333, 4725.525
261.3154, 4711.505
261.7975, 4707.150
262.2796, 4712.550
262.7617, 4720.578
263.2438, 4729.531
263.7260, 4738.053
264.2081, 4737.018
264.6902, 4720.338
265.1723, 4701.726
265.6544, 4689.497
266.1365, 4683.137
266.6187, 4681.801
267.1008, 4687.129
267.5829, 4696.838
268.0650, 4708.708
268.5471, 4725.856
269.0292, 4734.774
269.5114, 4715.894
269.9935, 4683.071
270.4756, 4659.733
270.9577, 4655.253
271.4398, 4659.975
271.9219, 4665.625
272.4041, 4672.344
272.8862, 4674.727
273.3683, 4666.219
273.8504, 4653.472
274.3325, 4649.405
274.8146, 4658.003
275.2968, 4669.148
275.7789, 4678.343
276.2610, 4685.048
276.7431, 4686.109
277.2252, 4678.122
277.7073, 4667.045
278.1895, 4663.497
278.6716, 4668.926
279.1537, 4673.259
279.6358, 4669.567
280.1179, 4663.175
280.6000, 4663.440
281.0822, 4672.689
281.5643, 4687.177
282.0464, 4705.703
282.5285, 4729.348
283.0106, 4741.931
283.4927, 4733.555
283.9749, 4718.415
284.4570, 4708.264
284.9391, 4704.242
285.4212, 4703.254
285.9033, 4703.187
286.3854, 4704.076
286.8676, 4705.403
287.3497, 4712.798
287.8318, 4715.218
288.3139, 4702.866
288.7960, 4680.718
289.2781, 4662.005
289.7603, 4654.067
290.2424, 4655.030
290.7245, 4657.472
291.2066, 4667.650
291.6887, 4671.570
292.1708, 4662.267
292.6530, 4647.274
293.1351, 4636.170
293.6172, 4632.285
294.0993, 4631.932
294.5814, 4628.722
295.0635, 4621.642
295.5457, 4613.208
296.0278, 4596.919
296.5099, 4584.037
296.9920, 4586.725
297.4741, 4603.693
297.9562, 4620.316
298.4384, 4619.656
298.9205, 4597.134
299.4026, 4589.533
299.8847, 4618.949
300.3668, 4640.806
300.8489, 4632.688
301.3311, 4604.948
301.8131, 4581.237
302.2953, 4577.410
302.7774, 4589.807
303.2595, 4600.070
303.7416, 4608.824
304.2237, 4614.070
304.7058, 4618.475
305.1880, 4618.339
305.6701, 4606.103
306.1522, 4578.424
306.6343, 4548.722
307.1164, 4543.557
307.5985, 4573.447
308.0807, 4588.634
308.5628, 4563.315
309.0449, 4532.272
309.5270, 4516.591
310.0091, 4517.760
310.4912, 4522.476
310.9734, 4520.630
311.4555, 4512.506
311.9376, 4500.257
312.4197, 4479.942
312.9018, 4461.549
313.3839, 4451.299
313.8661, 4447.485
314.3482, 4446.012
314.8303, 4445.887
315.3124, 4446.598
315.7945, 4448.492
316.2766, 4452.467
316.7588, 4452.415
317.2409, 4444.853
317.7230, 4430.880
318.2051, 4411.164
318.6872, 4380.815
319.1693, 4353.637
319.6515, 4342.619
320.1336, 4344.628
320.6157, 4344.666
321.0978, 4336.001
321.5799, 4325.946
322.0620, 4328.156
322.5442, 4344.701
323.0263, 4357.466
323.5084, 4361.184
323.9905, 4358.393
324.4726, 4349.791
324.9547, 4335.539
325.4369, 4323.662
325.9190, 4323.386
326.4011, 4336.241
326.8832, 4340.872
327.3653, 4328.254
327.8474, 4316.023
328.3296, 4314.366
328.8117, 4321.541
329.2938, 4332.028
329.7759, 4343.617
330.2580, 4354.338
330.7401, 4354.821
331.2223, 4327.738
331.7044, 4311.908
332.1865, 4321.077
332.6686, 4338.974
333.1507, 4347.593
333.6328, 4341.653
334.1150, 4329.246
334.5971, 4322.640
335.0792, 4325.472
335.5613, 4324.274
336.0434, 4315.261
336.5255, 4306.073
337.0077, 4300.399
337.4898, 4298.137
337.9719, 4297.258
338.4540, 4295.899
338.9361, 4294.466
339.4182, 4296.923
339.9004, 4306.248
340.3825, 4315.159
340.8646, 4324.682
341.3467, 4331.565
341.8288, 4331.099
342.3109, 4320.956
342.7931, 4305.696
343.2752, 4288.562
343.7573, 4267.472
344.2394, 4259.788
344.7215, 4278.085
345.2036, 4305.276
345.6858, 4330.868
346.1679, 4353.950
346.6500, 4369.873
347.1321, 4372.424
347.6142, 4365.645
348.0963, 4361.249
348.5785, 4361.558
349.0606, 4360.418
349.5427, 4348.879
350.0248, 4331.461
350.5069, 4322.258
350.9890, 4327.464
351.4712, 4338.803
351.9533, 4352.492
352.4354, 4367.475
352.9175, 4378.757
353.3996, 4384.287
353.8817, 4384.321
354.3639, 4378.213
354.8460, 4362.737
355.3281, 4349.380
355.8102, 4339.848
356.2923, 4334.152
356.7744, 4333.152
357.2566, 4336.829
357.7387, 4343.392
358.2208, 4351.763
358.7029, 4363.642
359.1850, 4367.024
359.6671, 4348.027
360.1493, 4335.476
360.6314, 4350.419
361.1135, 4381.660
361.5956, 4403.459
362.0777, 4400.041
362.5598, 4378.392
363.0420, 4363.832
363.5241, 4358.768
364.0062, 4357.641
364.4883, 4363.128
364.9704, 4369.686
365.4525, 4372.473
365.9347, 4370.572
366.4168, 4366.863
366.8989, 4362.315
367.3810, 4356.301
367.8631, 4360.439
368.3452, 4385.694
368.8274, 4408.648
369.3095, 4415.366
369.7916, 4410.880
370.2737, 4407.516
370.7558, 4411.482
371.2379, 4419.500
371.7201, 4426.391
372.2022, 4432.091
372.6843, 4437.036
373.1664, 4439.862
373.6485, 4443.048
374.1306, 4450.757
374.6128, 4464.624
375.0949, 4477.551
375.5770, 4488.834
376.0591, 4496.018
376.5412, 4489.243
377.0233, 4464.246
377.5055, 4443.311
377.9876, 4453.247
378.4697, 4498.232
378.9518, 4526.562
379.4339, 4532.143
379.9160, 4525.799
380.3982, 4505.917
380.8803, 4478.635
381.3624, 4459.014
381.8445, 4455.493
382.3266, 4464.051
382.8087, 4472.678
383.2909, 4483.589
383.7730, 4491.347
384.2551, 4493.215
384.7372, 4493.635
385.2193, 4498.122
385.7014, 4506.396
386.1836, 4511.429
386.6657, 4503.513
387.1478, 4481.406
387.6299, 4471.123
388.1120, 4483.697
388.5941, 4495.829
389.0763, 4501.241
389.5584, 4500.954
390.0405, 4495.800
390.5226, 4484.632
391.0047, 4473.141
391.4868, 4470.600
391.9690, 4477.674
392.4511, 4487.956
392.9332, 4504.455
393.4153, 4519.161
393.8974, 4524.714
394.3795, 4521.084
394.8617, 4513.318
395.3438, 4497.176
395.8259, 4480.750
396.3080, 4481.191
396.7901, 4500.979
397.2722, 4519.423
397.7544, 4521.109
398.2365, 4509.057
398.7186, 4501.907
399.2007, 4504.457
399.6828, 4506.485
400.1649, 4500.631
400.6471, 4492.451
401.1292, 4492.588
401.6113, 4504.606
402.0934, 4520.938
402.5755, 4530.797
403.0576, 4533.015
403.5398, 4531.405
404.0219, 4523.912
404.5040, 4515.054
404.9861, 4503.077
405.4682, 4491.585
405.9503, 4489.915
406.4325, 4505.795
406.9146, 4531.667
407.3967, 4538.811
407.8788, 4515.178
408.3609, 4497.472
408.8430, 4495.626
409.3252, 4499.992
409.8073, 4504.359
410.2894, 4507.428
410.7715, 4509.098
411.2536, 4507.801
411.7357, 4504.575
412.2179, 4505.821
412.7000, 4514.384
413.1821, 4521.560
413.6642, 4520.503
414.1463, 4513.780
414.6284, 4505.373
415.1106, 4490.954
415.5927, 4481.186
416.0748, 4489.198
416.5569, 4508.875
417.0390, 4519.834
417.5211, 4513.767
418.0033, 4501.530
418.4854, 4499.328
418.9675, 4510.471
419.4496, 4521.164
419.9317, 4531.917
420.4138, 4541.266
420.8960, 4549.082
421.3781, 4554.762
421.8602, 4556.411
422.3423, 4552.380
422.8244, 4544.287
423.3065, 4539.223
423.7887, 4539.697
424.2708, 4539.357
424.7529, 4537.919
425.2350, 4535.241
425.7171, 4530.884
426.1992, 4524.951
426.6814, 4518.490
427.1635, 4511.563
427.6456, 4504.415
428.1277, 4500.867
428.6098, 4502.085
429.0919, 4504.726
429.5741, 4508.250
430.0562, 4511.748
430.5383, 4513.869
431.0204, 4514.457
431.5025, 4513.267
431.9846, 4508.014
432.4668, 4500.456
432.9489, 4496.676
433.4310, 4498.091
433.9131, 4504.425
434.3952, 4518.893
434.8773, 4543.257
435.3595, 4553.089
435.8416, 4533.054
436.3237, 4510.690
436.8058, 4504.583
437.2879, 4510.125
437.7701, 4512.409
438.2522, 4503.447
438.7343, 4488.975
439.2164, 4483.811
439.6985, 4494.069
440.1806, 4503.097
440.6628, 4509.765
441.1449, 4515.929
441.6270, 4522.542
442.1091, 4529.753
442.5912, 4537.873
443.0733, 4548.709
443.5555, 4559.977
444.0376, 4560.708
444.5197, 4545.382
445.0018, 4535.002
445.4839, 4540.617
445.9660, 4553.743
446.4482, 4568.832
446.9303, 4586.196
447.4124, 4597.198
447.8945, 4594.614
448.3766, 4582.260
448.8587, 4564.878
449.3409, 4542.208
449.8230, 4526.152
450.3051, 4528.061
450.7872, 4546.078
451.2693, 4558.410
451.7514, 4561.179
452.2336, 4563.255
452.7157, 4568.826
453.1978, 4574.963
453.6799, 4577.534
454.1620, 4575.354
454.6441, 4569.853
455.1263, 4562.235
455.6084, 4551.553
456.0905, 4544.195
456.5726, 4544.771
457.0547, 4544.095
457.5368, 4537.353
458.0190, 4528.007
458.5011, 4522.358
458.9832, 4523.646
459.4653, 4526.654
459.9474, 4520.828
460.4295, 4505.904
460.9117, 4502.473
461.3938, 4519.225
461.8759, 4542.275
462.3580, 4561.232
462.8401, 4576.238
463.3222, 4587.273
463.8044, 4600.011
464.2865, 4604.391
464.7686, 4584.689
465.2507, 4547.069
465.7328, 4514.620
466.2149, 4496.645
466.6971, 4491.709
467.1792, 4498.115
467.6613, 4524.215
468.1434, 4544.428
468.6255, 4562.834
469.1076, 4572.063
469.5898, 4557.729
470.0719, 4529.385
470.5540, 4514.481
471.0361, 4532.712
471.5182, 4569.428
472.0003, 4579.690
472.4825, 4551.825
472.9646, 4529.162
473.4467, 4522.248
473.9288, 4522.733
474.4109, 4528.476
474.8930, 4538.199
475.3752, 4545.766
475.8573, 4546.180
476.3394, 4542.792
476.8215, 4542.313
477.3036, 4544.932
477.7857, 4543.443
478.2679, 4531.618
478.7500, 4515.575
479.2321, 4511.770
479.7142, 4527.571
480.1963, 4535.447
480.6784, 4523.160
481.1606, 4505.428
481.6427, 4495.179
482.1248, 4493.213
482.6069, 4494.127
483.0890, 4494.106
483.5711, 4493.294
484.0533, 4492.252
484.5354, 4488.687
485.0175, 4488.891
485.4996, 4501.690
485.9817, 4512.626
486.4638, 4504.566
486.9460, 4478.733
487.4281, 4458.682
487.9102, 4471.303
488.3923, 4503.459
488.8744, 4511.134
489.3565, 4489.048
489.8387, 4471.612
490.3208, 4480.055
490.8029, 4502.172
491.2850, 4511.866
491.7671, 4505.847
492.2492, 4497.356
492.7314, 4487.368
493.2135, 4479.191
493.6956, 4478.164
494.1777, 4483.862
494.6598, 4490.306
495.1419, 4493.431
495.6241, 4493.052
496.1062, 4487.714
496.5883, 4469.719
497.0704, 4457.728
497.5525, 4456.860
498.0346, 4460.097
498.5168, 4461.423
498.9989, 4460.376
499.4810, 4460.994
499.9631, 4471.377
500.4452, 4485.922
500.9273, 4478.450
501.4095, 4441.576
501.8916, 4414.311
502.3737, 4419.748
502.8558, 4441.316
503.3379, 4450.670
503.8200, 4442.961
504.3022, 4441.493
504.7843, 4463.987
505.2664, 4492.137
505.7485, 4503.947
506.2306, 4498.808
506.7127, 4488.181
507.1949, 4479.164
507.6770, 4471.527
508.1591, 4464.388
508.6412, 4458.148
509.1233, 4451.783
509.6054, 4443.291
510.0876, 4436.135
510.5697, 4433.458
511.0518, 4434.870
511.5339, 4437.853
512.0161, 4443.274
512.4982, 4447.275
512.9803, 4434.056
513.4624, 4398.583
513.9445, 4378.068
514.4266, 4394.798
514.9088, 4425.007
515.3909, 4435.159
515.8730, 4423.242
516.3551, 4418.273
516.8372, 4440.083
517.3193, 4464.526
517.8015, 4467.551
518.2836, 4451.890
518.7657, 4434.017
519.2478, 4422.551
519.7299, 4414.759
520.2120, 4403.516
520.6942, 4381.477
521.1763, 4370.326
521.6584, 4377.341
522.1405, 4387.055
522.6226, 4392.234
523.1047, 4393.194
523.5869, 4392.222
524.0690, 4389.522
524.5511, 4387.731
525.0332, 4392.789
525.5153, 4404.632
525.9974, 4413.358
526.4796, 4416.989
526.9617, 4416.184
527.4438, 4408.307
527.9259, 4394.581
528.4080, 4387.500
528.8901, 4394.746
529.3723, 4403.230
529.8544, 4403.704
530.3365, 4400.107
530.8186, 4401.756
531.3007, 4411.634
531.7828, 4422.314
532.2650, 4423.165
532.7471, 4412.498
533.2292, 4402.294
533.7113, 4385.267
534.1934, 4377.583
534.6755, 4392.382
535.1577, 4416.078
535.6398, 4429.171
536.1219, 4425.269
536.6040, 4418.697
537.0861, 4425.859
537.5682, 4441.190
538.0504, 4443.533
538.5325, 4428.320
539.0146, 4416.851
539.4967, 4427.258
539.9788, 4453.723
540.4609, 4466.798
540.9431, 4454.020
541.4252, 4446.656
541.9073, 4459.284
542.3894, 4474.788
542.8715, 4474.160
543.3536, 4457.838
543.8358, 4441.292
544.3179, 4436.533
544.8000, 4441.774
545.2821, 4449.527
545.7642, 4460.096
546.2463, 4472.512
546.7285, 4497.202
547.2106, 4515.227
547.6927, 4502.583
548.1748, 4462.785
548.6569, 4439.226
549.1390, 4469.676
549.6211, 4512.609
550.1032, 4521.141
550.5853, 4500.698
551.0674, 4475.868
551.5496, 4454.616
552.0317, 4442.402
552.5138, 4450.340
552.9959, 4490.217
553.4780, 4510.063
553.9601, 4487.586
554.4423, 4471.955
554.9244, 4492.078
555.4065, 4529.230
555.8886, 4551.358
556.3707, 4546.453
556.8528, 4533.935
557.3350, 4541.152
557.8171, 4564.257
558.2992, 4567.957
558.7813, 4541.629
559.2634, 4519.674
559.7455, 4529.166
560.2277, 4560.128
560.7098, 4578.891
561.1919, 4580.409
561.6740, 4578.230
562.1561, 4572.030
562.6382, 4566.979
563.1204, 4571.521
563.6025, 4584.141
564.0846, 4592.826
564.5667, 4587.666
565.0488, 4573.901
565.5309, 4574.186
566.0131, 4598.378
566.4952, 4611.639
566.9773, 4594.056
567.4594, 4574.909
567.9415, 4572.866
568.4236, 4586.133
568.9058, 4602.294
569.3879, 4623.800
569.8700, 4639.095
570.3521, 4631.221
570.8342, 4606.716
571.3163, 4587.464
571.7985, 4580.213
572.2806, 4579.126
572.7627, 4576.807
573.2448, 4572.252
573.7269, 4576.167
574.2090, 4601.246
574.6912, 4619.266
575.1733, 4613.665
575.6554, 4602.332
576.1375, 4607.994
576.6196, 4634.488
577.1017, 4662.760
577.5839, 4673.566
578.0660, 4672.361
578.5481, 4678.388
579.0302, 4692.848
579.5123, 4706.309
579.9944, 4715.039
580.4766, 4719.747
580.9587, 4720.530
581.4408, 4715.797
581.9229, 4714.383
582.4050, 4717.136
582.8871, 4723.893
583.3693, 4738.784
583.8514, 4757.042
584.3335, 4769.140
584.8156, 4770.604
585.2977, 4765.393
585.7798, 4757.852
586.2620, 4747.303
586.7441, 4743.306
587.2262, 4750.084
587.7083, 4757.201
588.1904, 4759.692
588.6725, 4758.367
589.1547, 4753.231
589.6368, 4741.504
590.1189, 4733.342
590.6010, 4735.226
591.0831, 4742.558
591.5652, 4749.986
592.0474, 4756.907
592.5295, 4765.575
593.0116, 4778.321
593.4937, 4791.298
593.9758, 4790.383
594.4579, 4762.865
594.9401, 4751.725
595.4222, 4776.802
595.9043, 4804.405
596.3864, 4818.483
596.8685, 4821.662
597.3506, 4822.143
597.8328, 4821.052
598.3149, 4821.884
598.7970, 4832.066
599.2791, 4846.289
599.7612, 4847.271
600.2433, 4831.625
600.7255, 4819.102
601.2076, 4827.070
601.6897, 4853.036
602.1718, 4876.760
602.6539, 4901.906
603.1360, 4919.313
603.6182, 4928.818
604.1003, 4930.098
604.5824, 4917.465
605.0645, 4895.260
605.5466, 4879.055
606.0287, 4880.451
606.5109, 4888.928
606.9930, 4887.150
607.4751, 4876.821
607.9572, 4871.192
608.4393, 4873.315
608.9214, 4881.990
609.4036, 4897.572
609.8857, 4920.118
610.3678, 4938.504
610.8499, 4953.111
611.3320, 4963.474
611.8141, 4972.300
612.2963, 4975.075
612.7784, 4960.345
613.2605, 4931.807
613.7426, 4913.042
614.2247, 4927.407
614.7068, 4959.561
615.1890, 4969.468
615.6711, 4956.010
616.1532, 4945.160
616.6353, 4943.747
617.1174, 4948.820
617.5995, 4960.404
618.0817, 4978.684
618.5638, 4986.667
619.0459, 4972.838
619.5280, 4961.168
620.0101, 4959.986
620.4922, 4966.627
620.9744, 4982.644
621.4565, 5005.120
621.9386, 5018.454
622.4207, 5003.563
622.9028, 4970.457
623.3849, 4961.162
623.8671, 4980.145
624.3492, 4996.890
624.8313, 5001.571
625.3134, 5000.915
625.7955, 5002.095
626.2776, 5004.993
626.7598, 5008.495
627.2419, 5010.601
627.7240, 5015.261
628.2061, 5027.012
628.6882, 5041.530
629.1703, 5053.693
629.6525, 5061.707
630.1346, 5064.010
630.6167, 5056.605
631.0988, 5042.539
631.5809, 5041.130
632.0630, 5057.347
632.5452, 5066.185
633.0273, 5053.795
633.5094, 5036.920
633.9915, 5033.756
634.4736, 5043.672
634.9557, 5057.755
635.4379, 5084.050
635.9200, 5103.726
636.4021, 5099.575
636.8842, 5084.303
637.3663, 5080.786
637.8484, 5092.845
638.3306, 5101.265
638.8127, 5082.404
639.2948, 5044.021
639.7769, 5037.573
640.2590, 5073.082
640.7411, 5105.016
641.2233, 5120.240
641.7054, 5126.584
642.1875, 5130.238
642.6696, 5131.619
643.1517, 5136.333
643.6339, 5153.028
644.1160, 5165.335
644.5981, 5161.287
645.0802, 5148.220
645.5623, 5136.200
646.0444, 5127.965
646.5266, 5122.050
647.0087, 5116.061
647.4908, 5111.867
647.9729, 5120.842
648.4550, 5147.491
648.9371, 5169.567
649.4193, 5185.094
649.9014, 5189.890
650.3835, 5171.528
650.8656, 5134.970
651.3477, 5116.267
651.8298, 5136.430
652.3120, 5158.572
652.7941, 5167.023
653.2762, 5166.386
653.7583, 5161.108
654.2404, 5153.132
654.7225, 5145.089
655.2047, 5138.444
655.6868, 5134.240
656.1689, 5136.790
656.6510, 5147.076
657.1331, 5158.109
657.6152, 5168.305
658.0974, 5179.021
658.5795, 5196.277
659.0616, 5216.445
659.5437, 5221.510
660.0258, 5192.439
660.5079, 5169.760
660.9901, 5168.444
661.4722, 5179.528
661.9543, 5196.210
662.4364, 5216.003
662.9185, 5238.679
663.4006, 5266.902
663.8828, 5289.668
664.3649, 5274.549
664.8470, 5219.705
665.3291, 5189.260
665.8112, 5198.637
666.2933, 5220.469
666.7755, 5237.208
667.2576, 5249.828
667.7397, 5263.565
668.2218, 5285.698
668.7039, 5297.153
669.1860, 5288.763
669.6682, 5272.876
670.1503, 5252.815
670.6324, 5234.039
671.1145, 5227.111
671.5966, 5237.651
672.0787, 5258.831
672.5609, 5286.846
673.0430, 5319.123
673.5251, 5336.318
674.0072, 5335.735
674.4893, 5323.553
674.9714, 5296.254
675.4536, 5265.369
675.9357, 5263.043
676.4178, 5310.155
676.8999, 5340.129
677.3820, 5342.141
677.8641, 5336.005
678.3463, 5324.556
678.8284, 5314.534
679.3105, 5318.290
679.7926, 5339.707
680.2747, 5359.962
680.7568, 5354.832
681.2390, 5336.921
681.7211, 5340.748
682.2032, 5366.138
682.6853, 5382.040
683.1674, 5372.714
683.6495, 5355.490
684.1317, 5358.618
684.6138, 5387.929
685.0959, 5406.645
685.5780, 5408.026
686.0601, 5406.943
686.5422, 5408.979
687.0244, 5409.013
687.5065, 5396.603
687.9886, 5372.735
688.4707, 5359.382
688.9528, 5375.215
689.4349, 5403.135
689.9171, 5428.818
690.3992, 5450.324
690.8813, 5462.128
691.3634, 5462.788
691.8455, 5454.278
692.3276, 5435.220
692.8098, 5409.274
693.2919, 5412.693
693.7740, 5465.900
694.2561, 5503.216
694.7382, 5504.855
695.2203, 5493.552
695.7025, 5478.608
696.1846, 5463.149
696.6667, 5457.452
697.1488, 5470.303
697.6309, 5484.013
698.1130, 5488.727
698.5952, 5489.223
699.0773, 5487.212
699.5594, 5486.092
700.0415, 5498.697
700.5236, 5535.191
701.0057, 5578.098
701.4879, 5586.362
701.9700, 5557.694
702.4521, 5545.009
702.9342, 5559.275
703.4163, 5573.007
703.8984, 5565.477
704.3806, 5548.197
704.8627, 5551.386
705.3448, 5587.521
705.8269, 5606.958
706.3090, 5583.474
706.7911, 5560.978
707.2733, 5573.009
707.7554, 5601.796
708.2375, 5614.142
708.7196, 5600.459
709.2017, 5580.695
709.6838, 5569.535
710.1660, 5567.668
710.6481, 5581.466
711.1302, 5609.760
711.6123, 5632.000
712.0944, 5640.887
712.5765, 5640.841
713.0587, 5635.952
713.5408, 5625.760
714.0229, 5620.414
714.5050, 5615.723
714.9871, 5622.160
715.4692, 5653.559
715.9514, 5686.914
716.4335, 5703.250
716.9156, 5703.716
717.3977, 5700.815
717.8798, 5696.235
718.3619, 5694.761
718.8441, 5701.798
719.3262, 5713.901
719.8083, 5726.327
720.2904, 5737.847
720.7725, 5748.132
721.2546, 5757.509
721.7368, 5762.938
722.2189, 5753.286
722.7010, 5724.180
723.1831, 5711.255
723.6652, 5722.925
724.1473, 5739.708
724.6295, 5752.721
725.1116, 5762.792
725.5937, 5771.916
726.0758, 5780.251
726.5579, 5786.896
727.0400, 5791.592
727.5222, 5794.687
728.0043, 5793.147
728.4864, 5791.386
728.9685, 5799.688
729.4506, 5819.229
729.9327, 5833.530
730.4149, 5820.260
730.8970, 5794.129
731.3791, 5791.156
731.8612, 5808.884
732.3433, 5822.931
732.8254, 5825.459
733.3076, 5828.328
733.7897, 5845.584
734.2718, 5875.208
734.7539, 5890.419
735.2360, 5876.466
735.7181, 5872.942
736.2003, 5895.254
736.6824, 5918.756
737.1645, 5926.547
737.6466, 5923.311
738.1287, 5924.004
738.6108, 5935.279
739.0930, 5944.495
739.5751, 5941.036
740.0572, 5934.065
740.5393, 5934.552
741.0214, 5941.632
741.5035, 5948.170
741.9857, 5950.750
742.4678, 5954.705
742.9499, 5971.169
743.4320, 5998.480
743.9141, 6011.347
744.3962, 6006.299
744.8784, 6004.860
745.3605, 6017.284
745.8426, 6034.302
746.3247, 6042.343
746.8068, 6039.725
747.2889, 6044.509
747.7711, 6057.486
748.2532, 6076.389
748.7353, 6109.168
749.2174, 6141.428
749.6995, 6162.347
750.1816, 6170.727
750.6638, 6166.621
751.1459, 6141.305
751.6280, 6120.167
752.1101, 6133.168
752.5922, 6164.686
753.0743, 6186.994
753.5565, 6196.673
754.0386, 6197.959
754.5207, 6192.297
755.0028, 6186.835
755.4849, 6196.357
755.9670, 6222.252
756.4492, 6253.183
756.9313, 6297.169
757.4134, 6324.157
757.8955, 6306.438
758.3776, 6275.667
758.8597, 6288.713
759.3419, 6352.154
759.8240, 6383.934
760.3061, 6351.216
760.7882, 6317.267
761.2703, 6303.378
761.7524, 6301.788
762.2346, 6304.101
762.7167, 6309.122
763.1988, 6320.149
763.6809, 6343.872
764.1630, 6365.762
764.6451, 6360.706
765.1273, 6342.257
765.6094, 6350.281
766.0915, 6386.852
766.5736, 6415.133
767.0557, 6411.841
767.5378, 6388.896
768.0200, 6368.901
768.5021, 6349.600
768.9842, 6350.108
769.4663, 6383.668
769.9484, 6408.895
770.4305, 6399.362
770.9127, 6377.496
771.3948, 6378.476
771.8769, 6404.661
772.3590, 6420.571
772.8411, 6406.889
773.3232, 6400.560
773.8054, 6430.925
774.2875, 6465.807
774.7696, 6464.359
775.2517, 6430.375
775.7338, 6403.984
776.2159, 6410.771
776.6981, 6426.422
777.1802, 6423.289
777.6623, 6408.304
778.1444, 6396.992
778.6265, 6391.021
779.1086, 6385.109
779.5908, 6376.065
780.0729, 6367.410
780.5550, 6366.630
781.0371, 6374.791
781.5192, 6380.013
782.0013, 6381.188
782.4835, 6382.541
782.9656, 6386.842
783.4477, 6390.977
783.9298, 6390.730
784.4119, 6386.050
784.8940, 6380.535
785.3762, 6371.703
785.8583, 6365.475
786.3404, 6357.744
786.8225, 6357.751
787.3046, 6385.379
787.7867, 6428.397
788.2689, 6446.731
788.7510, 6419.054
789.2331, 6377.715
789.7152, 6342.949
790.1973, 6315.671
790.6794, 6299.453
791.1616, 6292.270
791.6437, 6283.291
792.1258, 6267.760
792.6079, 6258.679
793.0900, 6279.967
793.5721, 6326.263
794.0543, 6341.457
794.5364, 6321.294
795.0185, 6295.379
795.5006, 6267.783
795.9827, 6246.517
796.4648, 6241.362
796.9470, 6250.634
797.4291, 6256.378
797.9112, 6265.229
798.3933, 6260.624
798.8754, 6228.737
799.3575, 6196.181
799.8397, 6175.347
800.3218, 6165.684
800.8039, 6167.330
801.2860, 6182.978
801.7681, 6190.991
802.2502, 6181.063
802.7324, 6158.213
803.2145, 6111.527
803.6966, 6060.182
804.1787, 6044.384
804.6608, 6070.261
805.1429, 6102.079
805.6251, 6111.384
806.1072, 6104.532
806.5893, 6089.036
807.0714, 6067.540
807.5535, 6065.023
808.0356, 6087.175
808.5178, 6103.076
808.9999, 6090.159
809.4820, 6061.580
809.9641, 6053.134
810.4462, 6076.343
810.9283, 6076.232
811.4105, 6037.893
811.8926, 6000.324
812.3747, 5972.518
812.8568, 5957.189
813.3389, 5966.058
813.8210, 5998.721
814.3032, 6008.616
814.7853, 5967.944
815.2674, 5930.223
815.7495, 5913.300
816.2316, 5907.527
816.7137, 5908.018
817.1959, 5911.083
817.6780, 5910.737
818.1601, 5904.672
818.6422, 5893.650
819.1243, 5868.133
819.6064, 5843.715
820.0886, 5854.964
820.5707, 5890.642
821.0528, 5904.575
821.5349, 5880.935
822.0170, 5844.482
822.4991, 5821.109
822.9813, 5808.309
823.4634, 5791.380
823.9455, 5768.996
824.4276, 5774.815
824.9097, 5825.821
825.3918, 5865.104
825.8740, 5845.695
826.3561, 5784.791
826.8382, 5739.194
827.3203, 5706.123
827.8024, 5695.251
828.2845, 5729.715
828.7667, 5758.051
829.2488, 5755.710
829.7309, 5741.064
830.2130, 5736.206
830.6951, 5742.464
831.1772, 5746.244
831.6594, 5742.897
832.1415, 5738.162
832.6236, 5737.406
833.1057, 5734.354
833.5878, 5715.813
834.0699, 5688.843
834.5521, 5678.866
835.0342, 5700.222
835.5163, 5723.918
835.9984, 5721.822
836.4805, 5705.296
836.9626, 5690.695
837.4448, 5678.980
837.9269, 5668.220
838.4090, 5657.913
838.8911, 5651.316
839.3732, 5654.378
839.8553, 5661.819
840.3375, 5650.096
840.8196, 5618.624
841.3017, 5599.653
841.7838, 5600.626
842.2659, 5606.117
842.7480, 5606.550
843.2302, 5603.239
843.7123, 5600.443
844.1944, 5602.476
844.6765, 5589.356
845.1586, 5542.902
845.6407, 5508.430
846.1229, 5508.130
846.6050, 5521.963
847.0871, 5536.008
847.5692, 5548.756
848.0513, 5547.648
848.5334, 5518.842
849.0156, 5492.425
849.4977, 5476.324
849.9798, 5465.808
850.4619, 5460.129
850.9440, 5456.237
851.4261, 5450.699
851.9083, 5442.934
852.3904, 5425.818
852.8725, 5381.208
853.3546, 5336.072
853.8367, 5319.497
854.3188, 5324.176
854.8010, 5337.999
855.2831, 5355.516
855.7652, 5367.678
856.2473, 5368.225
856.7294, 5358.475
857.2115, 5336.161
857.6937, 5305.078
858.1758, 5284.256
858.6579, 5274.983
859.1400, 5260.282
859.6221, 5231.603
860.1042, 5197.948
860.5864, 5170.940
861.0685, 5150.772
861.5506, 5140.602
862.0327, 5144.826
862.5148, 5140.954
862.9969, 5119.973
863.4791, 5098.059
863.9612, 5091.887
864.4433, 5093.754
864.9254, 5074.674
865.4075, 5014.154
865.8896, 4975.452
866.3718, 4978.027
866.8539, 4978.003
867.3360, 4961.539
867.8181, 4933.642
868.3002, 4894.995
868.7823, 4847.652
869.2645, 4811.882
869.7466, 4805.719
870.2287, 4795.543
870.7108, 4767.563
871.1929, 4730.987
871.6750, 4690.098
872.1572, 4648.469
872.6393, 4611.697
873.1214, 4581.654
873.6035, 4554.917
874.0856, 4531.715
874.5677, 4508.095
875.0499, 4479.456
875.5320, 4446.756
876.0141, 4412.278
876.4962, 4376.489
876.9783, 4338.721
877.4604, 4298.438
877.9426, 4256.498
878.4247, 4212.167
878.9068, 4167.633
879.3889, 4132.951
879.8710, 4107.954
880.3531, 4080.898
880.8353, 4047.007
881.3174, 4014.114
881.7995, 3993.079
882.2816, 3980.803
882.7637, 3956.095
883.2458, 3916.938
883.7280, 3881.613
884.2101, 3854.732
884.6922, 3826.427
885.1743, 3788.129
885.6564, 3747.511
886.1385, 3723.126
886.6207, 3722.219
887.1028, 3704.854
887.5849, 3662.700
888.0670, 3617.480
888.5491, 3571.024
889.0313, 3527.137
889.5134, 3484.399
889.9955, 3445.949
890.4776, 3426.622
890.9597, 3444.509
891.4418, 3450.696
891.9240, 3433.467
892.4061, 3408.509
892.8882, 3381.844
893.3703, 3353.636
893.8524, 3320.379
894.3345, 3282.848
894.8167, 3254.962
895.2988, 3247.328
895.7809, 3244.759
896.2630, 3245.958
896.7451, 3242.922
897.2272, 3221.188
897.7094, 3188.807
898.1915, 3168.445
898.6736, 3168.300
899.1557, 3170.527
899.6378, 3162.457
900.1199, 3147.694
900.6021, 3125.805
901.0842, 3102.175
901.5663, 3089.203
902.0484, 3087.486
902.5305, 3086.757
903.0126, 3080.506
903.4948, 3073.062
903.9769, 3073.335
904.4590, 3077.235
904.9411, 3070.903
905.4232, 3054.871
905.9053, 3037.565
906.3875, 3021.789
906.8696, 3007.176
907.3517, 2993.496
907.8338, 2980.537
908.3159, 2966.130
908.7980, 2950.229
909.2802, 2943.599
909.7623, 2948.931
910.2444, 2951.259
910.7265, 2942.467
911.2086, 2930.008
911.6907, 2925.618
912.1729, 2929.069
912.6550, 2921.837
913.1371, 2898.960
913.6192, 2881.102
914.1013, 2872.406
914.5834, 2868.649
915.0656, 2871.102
915.5477, 2873.898
916.0298, 2861.154
916.5119, 2823.591
916.9940, 2805.621
917.4761, 2826.092
917.9583, 2839.480
918.4404, 2830.344
918.9225, 2814.517
919.4046, 2801.453
919.8867, 2791.932
920.3688, 2788.931
920.8510, 2799.980
921.3331, 2801.176
921.8152, 2780.740
922.2973, 2759.415
922.7794, 2744.666
923.2615, 2735.482
923.7437, 2730.765
924.2258, 2730.144
924.7079, 2732.889
925.1900, 2741.615
925.6721, 2748.987
926.1542, 2761.236
926.6364, 2762.302
927.1185, 2723.169
927.6006, 2670.108
928.0827, 2652.963
928.5648, 2679.749
929.0469, 2704.258
929.5291, 2697.486
930.0112, 2682.853
930.4933, 2677.653
930.9754, 2674.801
931.4575, 2663.631
931.9396, 2646.773
932.4218, 2633.835
932.9039, 2628.247
933.3860, 2627.147
933.8681, 2629.771
934.3502, 2634.132
934.8323, 2639.483
935.3145, 2643.971
935.7966, 2642.541
936.2787, 2635.802
936.7608, 2630.896
937.2429, 2631.969
937.7250, 2630.389
938.2072, 2609.199
938.6893, 2580.058
939.1714, 2571.909
939.6535, 2580.529
940.1356, 2588.919
940.6177, 2592.676
941.0999, 2591.100
941.5820, 2583.143
942.0641, 2572.613
942.5462, 2567.065
943.0283, 2565.187
943.5104, 2558.982
943.9926, 2548.697
944.4747, 2542.715
944.9568, 2543.760
945.4389, 2543.208
945.9210, 2531.698
946.4031, 2516.672
946.8853, 2523.230
947.3674, 2551.202
947.8495, 2561.721
948.3316, 2550.660
948.8137, 2542.924
949.2958, 2549.573
949.7780, 2555.087
950.2601, 2540.122
950.7422, 2510.392
951.2243, 2498.595
951.7064, 2508.834
952.1885, 2509.104
952.6707, 2493.160
953.1528, 2479.919
953.6349, 2479.271
954.1170, 2483.274
954.5991, 2480.868
955.0812, 2472.498
955.5634, 2467.940
956.0455, 2468.527
956.5276, 2468.674
957.0097, 2466.520
957.4918, 2466.743
957.9739, 2474.465
958.4561, 2483.128
958.9382, 2480.791
959.4203, 2466.205
959.9024, 2458.794
960.3845, 2464.968
960.8666, 2465.375
961.3488, 2454.801
961.8309, 2440.974
962.3130, 2425.197
962.7951, 2411.107
963.2772, 2407.215
963.7593, 2416.661
964.2415, 2419.449
964.7236, 2407.757
965.2057, 2400.783
965.6878, 2404.370
966.1699, 2411.064
966.6520, 2418.218
967.1342, 2424.535
967.6163, 2426.859
968.0984, 2424.365
968.5805, 2420.934
969.0626, 2419.642
969.5447, 2413.543
970.0269, 2393.360
970.5090, 2374.578
970.9911, 2369.905
971.4732, 2375.854
971.9553, 2382.477
972.4374, 2388.439
972.9196, 2396.604
973.4017, 2414.798
973.8838, 2425.868
974.3659, 2418.646
974.8480, 2406.040
975.3301, 2399.979
975.8123, 2398.291
976.2944, 2392.027
976.7765, 2378.273
977.2586, 2365.015
977.7407, 2346.335
978.2228, 2337.930
978.7050, 2357.435
979.1871, 2382.219
979.6692, 2390.390
980.1513, 2383.568
980.6334, 2373.186
981.1155, 2358.762
981.5977, 2350.111
982.0798, 2352.647
982.5619, 2358.731
983.0440, 2365.246
983.5261, 2372.706
984.0082, 2385.314
984.4904, 2399.856
984.9725, 2404.167
985.4546, 2392.802
985.9367, 2377.766
986.4188, 2353.751
986.9009, 2338.070
987.3831, 2343.385
987.8652, 2360.871
988.3473, 2389.428
988.8294, 2420.799
989.3115, 2427.480
989.7936, 2393.358
990.2758, 2357.361
990.7579, 2329.422
991.2400, 2311.402
991.7221, 2305.915
992.2042, 2310.120
992.6863, 2324.472
993.1685, 2345.587
993.6506, 2362.393
994.1327, 2371.297
994.6148, 2375.171
995.0969, 2373.524
995.5790, 2369.144
996.0612, 2364.099
996.5433, 2357.346
997.0254, 2344.621
997.5075, 2328.248
997.9896, 2319.248
998.4717, 2323.787
998.9539, 2328.716
999.4360, 2328.741
999.9181, 2326.221
1000.400, 2318.837
1000.882, 2312.444
1001.364, 2316.824
1001.847, 2329.716
1002.329, 2337.456
1002.811, 2333.332
1003.293, 2329.982
1003.775, 2337.116
1004.257, 2342.980
1004.739, 2339.062
1005.221, 2329.347
1005.703, 2317.526
1006.186, 2305.238
1006.668, 2294.366
1007.150, 2283.875
1007.632, 2280.868
1008.114, 2294.353
1008.596, 2309.989
1009.078, 2322.963
1009.560, 2329.656
1010.043, 2322.483
1010.525, 2305.331
1011.007, 2293.897
1011.489, 2294.882
1011.971, 2294.567
1012.453, 2281.015
1012.935, 2271.226
1013.417, 2279.483
1013.899, 2294.281
1014.382, 2303.299
1014.864, 2306.401
1015.346, 2310.080
1015.828, 2318.552
1016.310, 2316.872
1016.792, 2285.220
1017.274, 2258.550
1017.756, 2260.871
1018.239, 2273.760
1018.721, 2279.237
1019.203, 2277.742
1019.685, 2276.979
1020.167, 2279.111
1020.649, 2280.002
1021.131, 2275.892
1021.613, 2273.242
1022.095, 2276.181
1022.578, 2280.948
1023.060, 2283.550
1023.542, 2285.115
1024.024, 2289.662
1024.506, 2298.621
1024.988, 2305.844
1025.470, 2313.847
1025.952, 2314.429
1026.435, 2298.585
1026.917, 2279.533
1027.399, 2265.271
1027.881, 2256.823
1028.363, 2254.881
1028.845, 2259.849
1029.327, 2268.782
1029.809, 2292.516
1030.292, 2304.381
1030.774, 2285.526
1031.256, 2264.319
1031.738, 2261.636
1032.220, 2269.347
1032.702, 2272.048
1033.184, 2268.310
1033.666, 2264.193
1034.148, 2263.441
1034.630, 2257.771
1035.113, 2233.950
1035.595, 2217.802
1036.077, 2231.139
1036.559, 2256.995
1037.041, 2270.126
1037.523, 2269.834
1038.005, 2269.685
1038.487, 2272.303
1038.970, 2271.018
1039.452, 2262.250
1039.934, 2253.586
1040.416, 2246.689
1040.898, 2243.104
1041.380, 2247.002
1041.862, 2257.109
1042.344, 2258.734
1042.826, 2245.702
1043.309, 2237.991
1043.791, 2239.409
1044.273, 2240.255
1044.755, 2236.408
1045.237, 2231.307
1045.719, 2228.315
1046.201, 2227.058
1046.683, 2225.979
1047.166, 2225.756
1047.648, 2222.648
1048.130, 2214.046
1048.612, 2210.881
1049.094, 2218.546
1049.576, 2227.002
1050.058, 2227.090
1050.540, 2222.635
1051.022, 2225.336
1051.505, 2236.905
1051.987, 2236.115
1052.469, 2219.513
1052.951, 2213.562
1053.433, 2226.164
1053.915, 2241.268
1054.397, 2248.701
1054.879, 2250.561
1055.361, 2251.648
1055.844, 2251.222
1056.326, 2235.526
1056.808, 2204.602
1057.290, 2196.240
1057.772, 2217.129
1058.254, 2236.961
1058.736, 2239.782
1059.218, 2235.029
1059.701, 2235.104
1060.183, 2237.590
1060.665, 2233.668
1061.147, 2224.471
1061.629, 2215.875
1062.111, 2208.615
1062.593, 2201.773
1063.075, 2195.099
1063.557, 2191.763
1064.040, 2195.975
1064.522, 2203.140
1065.004, 2203.010
1065.486, 2199.854
1065.968, 2206.845
1066.450, 2220.737
1066.932, 2225.466
1067.414, 2218.412
1067.896, 2214.746
1068.379, 2226.072
1068.861, 2240.148
1069.343, 2246.069
1069.825, 2243.970
1070.307, 2227.461
1070.789, 2205.770
1071.271, 2198.402
1071.753, 2205.190
1072.236, 2209.416
1072.718, 2202.830
1073.200, 2198.013
1073.682, 2207.974
1074.164, 2219.361
1074.646, 2218.943
1075.128, 2214.941
1075.610, 2218.740
1076.093, 2228.092
1076.575, 2234.563
1077.057, 2235.974
1077.539, 2233.358
1078.021, 2221.448
1078.503, 2213.153
1078.985, 2223.822
1079.467, 2230.980
1079.949, 2209.387
1080.432, 2176.029
1080.914, 2160.375
1081.396, 2165.139
1081.878, 2171.180
1082.360, 2176.478
1082.842, 2180.712
1083.324, 2181.184
1083.806, 2183.739
1084.288, 2196.281
1084.771, 2208.248
1085.253, 2204.667
1085.735, 2189.804
1086.217, 2185.509
1086.699, 2200.741
1087.181, 2201.947
1087.663, 2179.697
1088.145, 2162.364
1088.628, 2156.983
1089.110, 2159.381
1089.592, 2169.208
1090.074, 2181.589
1090.556, 2185.888
1091.038, 2181.892
1091.520, 2175.045
1092.002, 2164.312
1092.484, 2157.658
1092.967, 2156.483
1093.449, 2158.846
1093.931, 2164.003
1094.413, 2171.386
1094.895, 2181.454
1095.377, 2191.791
1095.859, 2193.633
1096.341, 2187.323
1096.823, 2169.922
1097.306, 2144.120
1097.788, 2138.508
1098.270, 2160.873
1098.752, 2182.049
1099.234, 2177.283
1099.716, 2165.521
1100.198, 2180.806
1100.680, 2207.563
1101.163, 2213.453
1101.645, 2203.623
1102.127, 2192.811
1102.609, 2184.147
1103.091, 2175.124
1103.573, 2164.486
1104.055, 2156.415
1104.537, 2154.545
1105.020, 2156.678
1105.502, 2162.056
1105.984, 2169.326
1106.466, 2179.729
1106.948, 2189.798
1107.430, 2191.855
1107.912, 2184.670
1108.394, 2176.540
1108.876, 2168.999
1109.359, 2163.898
1109.841, 2165.106
1110.323, 2165.433
1110.805, 2158.672
1111.287, 2149.800
1111.769, 2142.262
1112.251, 2137.927
1112.733, 2144.887
1113.215, 2172.007
1113.698, 2190.204
1114.180, 2200.603
1114.662, 2198.344
1115.144, 2171.581
1115.626, 2147.365
1116.108, 2146.874
1116.590, 2157.610
1117.072, 2155.813
1117.555, 2141.396
1118.037, 2130.423
1118.519, 2122.279
1119.001, 2121.281
1119.483, 2128.233
1119.965, 2142.860
1120.447, 2167.105
1120.929, 2184.282
1121.411, 2175.477
1121.894, 2151.045
1122.376, 2134.962
1122.858, 2127.461
1123.340, 2134.432
1123.822, 2151.960
1124.304, 2156.476
1124.786, 2144.609
1125.268, 2135.625
1125.750, 2140.655
1126.233, 2149.590
1126.715, 2153.315
1127.197, 2152.256
1127.679, 2141.396
1128.161, 2129.608
1128.643, 2135.799
1129.125, 2152.803
1129.607, 2157.233
1130.090, 2144.093
1130.572, 2130.979
1131.054, 2127.391
1131.536, 2124.655
1132.018, 2115.667
1132.500, 2108.804
1132.982, 2109.288
1133.464, 2115.516
1133.947, 2131.988
1134.429, 2152.393
1134.911, 2151.083
1135.393, 2112.773
1135.875, 2094.871
1136.357, 2120.043
1136.839, 2139.084
1137.321, 2140.737
1137.803, 2138.573
1138.286, 2138.009
1138.768, 2141.066
1139.250, 2152.868
1139.732, 2171.323
1140.214, 2174.672
1140.696, 2159.715
1141.178, 2157.086
1141.660, 2170.664
1142.142, 2173.852
1142.625, 2157.721
1143.107, 2135.923
1143.589, 2117.854
1144.071, 2106.540
1144.553, 2111.137
1145.035, 2125.395
1145.517, 2130.708
1145.999, 2129.027
1146.482, 2125.592
1146.964, 2122.088
1147.446, 2119.684
1147.928, 2119.188
1148.410, 2125.314
1148.892, 2147.851
1149.374, 2167.610
1149.856, 2164.349
1150.339, 2152.913
1150.821, 2145.000
1151.303, 2140.852
1151.785, 2141.984
1152.267, 2145.684
1152.749, 2140.821
1153.231, 2121.196
1153.713, 2107.145
1154.195, 2101.898
1154.677, 2104.659
1155.160, 2126.327
1155.642, 2143.573
1156.124, 2140.065
1156.606, 2125.383
1157.088, 2111.139
1157.570, 2098.031
1158.052, 2095.361
1158.534, 2106.141
1159.017, 2114.225
1159.499, 2119.349
1159.981, 2117.487
1160.463, 2106.554
1160.945, 2094.774
1161.427, 2087.278
1161.909, 2086.621
1162.391, 2103.041
1162.874, 2127.519
1163.356, 2125.379
1163.838, 2105.835
1164.320, 2096.981
1164.802, 2101.002
1165.284, 2112.517
1165.766, 2128.467
1166.248, 2140.741
1166.730, 2145.126
1167.213, 2141.041
1167.695, 2118.558
1168.177, 2097.210
1168.659, 2098.606
1169.141, 2108.670
1169.623, 2106.461
1170.105, 2096.632
1170.587, 2100.992
1171.069, 2126.659
1171.552, 2138.357
1172.034, 2115.749
1172.516, 2101.023
1172.998, 2101.252
1173.480, 2109.968
1173.962, 2131.421
1174.444, 2150.438
1174.926, 2149.756
1175.409, 2134.977
1175.891, 2125.066
1176.373, 2120.292
1176.855, 2116.649
1177.337, 2114.123
1177.819, 2113.162
1178.301, 2113.820
1178.783, 2115.331
1179.266, 2117.333
1179.748, 2117.945
1180.230, 2114.660
1180.712, 2109.751
1181.194, 2105.671
1181.676, 2103.365
1182.158, 2106.066
1182.640, 2111.263
1183.122, 2115.379
1183.604, 2116.549
1184.087, 2110.082
1184.569, 2092.771
1185.051, 2079.574
1185.533, 2077.094
1186.015, 2080.484
1186.497, 2092.694
1186.979, 2104.751
1187.461, 2113.244
1187.944, 2115.936
1188.426, 2106.056
1188.908, 2087.250
1189.390, 2082.182
1189.872, 2094.329
1190.354, 2109.221
1190.836, 2129.345
1191.318, 2141.245
1191.801, 2141.697
1192.283, 2134.057
1192.765, 2119.220
1193.247, 2105.395
1193.729, 2104.523
1194.211, 2109.572
1194.693, 2099.492
1195.175, 2082.709
1195.657, 2086.547
1196.140, 2103.049
1196.622, 2103.115
1197.104, 2084.856
1197.586, 2069.898
1198.068, 2067.815
1198.550, 2069.450
1199.032, 2074.129
1199.514, 2074.304
1199.996, 2059.733
1200.479, 2045.100
1200.961, 2040.429
1201.443, 2044.039
1201.925, 2058.854
1202.407, 2080.624
1202.889, 2079.080
1203.371, 2038.661
1203.853, 2026.770
1204.336, 2054.560
1204.818, 2074.092
1205.300, 2074.135
1205.782, 2073.415
1206.264, 2082.313
1206.746, 2092.182
1207.228, 2092.078
1207.710, 2086.721
1208.193, 2088.180
1208.675, 2094.034
1209.157, 2099.596
1209.639, 2102.719
1210.121, 2096.115
1210.603, 2081.467
1211.085, 2068.486
1211.567, 2060.805
1212.049, 2064.073
1212.531, 2097.904
1213.014, 2121.630
1213.496, 2103.064
1213.978, 2078.726
1214.460, 2072.617
1214.942, 2076.423
1215.424, 2082.436
1215.906, 2087.746
1216.388, 2082.664
1216.871, 2063.790
1217.353, 2056.292
1217.835, 2062.974
1218.317, 2069.608
1218.799, 2074.625
1219.281, 2076.846
1219.763, 2075.769
1220.245, 2071.132
1220.728, 2061.348
1221.210, 2053.354
1221.692, 2065.125
1222.174, 2084.101
1222.656, 2081.427
1223.138, 2066.924
1223.620, 2059.651
1224.102, 2061.223
1224.584, 2070.555
1225.067, 2085.693
1225.549, 2090.071
1226.031, 2064.667
1226.513, 2051.063
1226.995, 2079.828
1227.477, 2101.675
1227.959, 2087.069
1228.441, 2065.622
1228.923, 2059.359
1229.406, 2060.678
1229.888, 2054.973
1230.370, 2044.093
1230.852, 2054.032
1231.334, 2086.683
1231.816, 2085.461
1232.298, 2049.094
1232.780, 2028.880
1233.263, 2037.063
1233.745, 2053.294
1234.227, 2066.363
1234.709, 2075.606
1235.191, 2080.764
1235.673, 2081.289
1236.155, 2070.901
##END=



