##NAMES=Jacobsite
##RRUFFID=R070719
##IDEAL CHEMISTRY=Mn^2+^Fe^3+^_2_O_4_
##LOCALITY=Kombat mine, Kombat, Grootfontein District, Otjozondjupa Region, Namibia
##OWNER=RRUFF
##SOURCE=William W. Pinch
##DESCRIPTION=Black, with reddish highlights, octahedra associated with kombatite, R070720, and colorless barysilite, R070651
##STATUS=The identification of this mineral is confirmed by single-crystal X-ray diffraction and chemical analysis.
##URL=rruff.info/R070719
##MEASURED CHEMISTRY=Mn_1.03_(Fe^3+^_1.88_Mn_0.07_Al_0.03_Mg_0.02_)_Î£=2.00_O_4_
115.7883, 1382.496
116.2704, 1440.415
116.7525, 1501.745
117.2346, 1565.479
117.7167, 1631.307
118.1988, 1697.920
118.6810, 1761.313
119.1631, 1827.563
119.6452, 1901.568
120.1273, 1982.804
120.6094, 2074.445
121.0915, 2186.264
121.5737, 2318.485
122.0558, 2443.006
122.5379, 2541.591
123.0200, 2619.178
123.5021, 2684.677
123.9842, 2719.075
124.4664, 2752.424
124.9485, 2825.254
125.4306, 2950.431
125.9127, 3090.552
126.3948, 3210.158
126.8769, 3311.917
127.3591, 3409.063
127.8412, 3503.309
128.3233, 3598.641
128.8054, 3704.793
129.2875, 3829.010
129.7696, 3956.697
130.2518, 4057.340
130.7339, 4133.926
131.2160, 4208.090
131.6981, 4300.685
132.1802, 4406.545
132.6623, 4488.931
133.1445, 4517.015
133.6266, 4503.023
134.1087, 4529.885
134.5908, 4603.277
135.0729, 4701.753
135.5550, 4789.217
136.0372, 4862.160
136.5193, 4946.100
137.0014, 5059.207
137.4835, 5202.729
137.9656, 5345.876
138.4477, 5492.563
138.9299, 5634.653
139.4120, 5744.406
139.8941, 5814.012
140.3762, 5869.948
140.8583, 5939.499
141.3404, 6035.721
141.8225, 6104.555
142.3047, 6140.052
142.7868, 6142.886
143.2689, 6101.528
143.7510, 6007.324
144.2331, 5877.721
144.7152, 5734.557
145.1974, 5575.917
145.6795, 5405.114
146.1616, 5219.471
146.6437, 5014.188
147.1258, 4809.795
147.6079, 4606.627
148.0901, 4403.288
148.5722, 4205.237
149.0543, 4000.151
149.5364, 3808.807
150.0185, 3641.714
150.5006, 3507.668
150.9828, 3387.068
151.4649, 3282.125
151.9470, 3192.020
152.4291, 3108.457
152.9112, 3030.417
153.3933, 2959.289
153.8755, 2895.182
154.3576, 2852.663
154.8397, 2803.553
155.3218, 2737.458
155.8039, 2649.370
156.2860, 2571.670
156.7682, 2521.858
157.2503, 2483.161
157.7324, 2434.251
158.2145, 2354.857
158.6966, 2276.789
159.1787, 2214.201
159.6609, 2174.612
160.1430, 2137.287
160.6251, 2097.524
161.1072, 2055.983
161.5893, 2013.748
162.0714, 1969.259
162.5536, 1925.797
163.0357, 1885.612
163.5178, 1850.263
163.9999, 1817.022
164.4820, 1787.055
164.9641, 1759.429
165.4463, 1728.925
165.9284, 1683.874
166.4105, 1637.495
166.8926, 1604.035
167.3747, 1606.303
167.8568, 1610.726
168.3390, 1589.790
168.8211, 1541.310
169.3032, 1496.213
169.7853, 1480.872
170.2674, 1482.400
170.7495, 1478.309
171.2317, 1449.305
171.7138, 1413.699
172.1959, 1391.698
172.6780, 1388.706
173.1601, 1388.189
173.6422, 1374.769
174.1244, 1351.644
174.6065, 1329.509
175.0886, 1313.475
175.5707, 1302.451
176.0528, 1293.836
176.5349, 1245.174
177.0171, 1285.669
177.4992, 1304.968
177.9813, 1304.208
178.4634, 1223.308
178.9455, 1245.892
179.4276, 1227.004
179.9098, 1206.414
180.3919, 1243.562
180.8740, 1174.319
181.3561, 1210.552
181.8382, 1199.898
182.3203, 1194.931
182.8025, 1184.621
183.2846, 1170.926
183.7667, 1161.333
184.2488, 1161.411
184.7309, 1168.167
185.2130, 1173.551
185.6951, 1177.622
186.1773, 1180.032
186.6594, 1181.328
187.1415, 1181.266
187.6236, 1177.155
188.1057, 1162.653
188.5878, 1141.254
189.0700, 1130.740
189.5521, 1135.835
190.0342, 1147.504
190.5163, 1148.669
190.9984, 1138.995
191.4805, 1127.467
191.9627, 1121.686
192.4448, 1120.917
192.9269, 1115.907
193.4090, 1103.431
193.8911, 1086.649
194.3732, 1075.880
194.8554, 1071.953
195.3375, 1068.858
195.8196, 1061.079
196.3017, 1048.577
196.7838, 1034.381
197.2659, 1016.563
197.7481, 997.0005
198.2302, 990.0389
198.7123, 998.3044
199.1944, 1011.700
199.6765, 1017.090
200.1586, 1013.164
200.6408, 1012.045
201.1229, 1021.909
201.6050, 1043.048
202.0871, 1048.006
202.5692, 1032.805
203.0513, 1007.532
203.5335, 987.2607
204.0156, 971.6130
204.4977, 962.4025
204.9798, 963.0217
205.4619, 975.5278
205.9440, 982.2304
206.4262, 980.8271
206.9083, 974.5695
207.3904, 972.5134
207.8725, 976.7523
208.3546, 979.3914
208.8367, 973.5084
209.3189, 954.9713
209.8010, 946.1873
210.2831, 952.8211
210.7652, 970.1581
211.2473, 976.5484
211.7294, 968.5753
212.2116, 956.4456
212.6937, 947.0334
213.1758, 939.6978
213.6579, 937.4176
214.1400, 942.9767
214.6221, 955.4849
215.1043, 960.3657
215.5864, 954.7715
216.0685, 945.8348
216.5506, 940.2924
217.0327, 938.3026
217.5148, 939.6125
217.9970, 947.3750
218.4791, 962.7360
218.9612, 961.7975
219.4433, 934.9029
219.9254, 901.4589
220.4075, 888.3842
220.8897, 905.3967
221.3718, 922.9254
221.8539, 931.4663
222.3360, 928.8076
222.8181, 928.4584
223.3002, 931.9446
223.7824, 936.7653
224.2645, 937.8864
224.7466, 932.5649
225.2287, 928.3340
225.7108, 929.1988
226.1929, 939.5993
226.6750, 942.1774
227.1572, 932.5195
227.6393, 876.7670
228.1214, 926.7903
228.6035, 955.1810
229.0856, 963.1014
229.5677, 889.2411
230.0499, 920.9838
230.5320, 910.4055
231.0141, 898.0918
231.4962, 944.6976
231.9783, 882.7320
232.4604, 928.4034
232.9426, 931.1082
233.4247, 953.4777
233.9068, 933.2649
234.3889, 926.2044
234.8710, 961.7398
235.3531, 973.6895
235.8353, 948.5750
236.3174, 972.1945
236.7995, 922.2134
237.2816, 922.5881
237.7637, 935.4380
238.2458, 940.1654
238.7280, 929.5753
239.2101, 904.0754
239.6922, 891.4488
240.1743, 895.8807
240.6564, 908.9974
241.1385, 924.9382
241.6207, 952.5881
242.1028, 966.7433
242.5849, 955.8364
243.0670, 916.0324
243.5491, 901.8093
244.0313, 929.2032
244.5134, 968.7695
244.9955, 985.4145
245.4776, 966.2244
245.9597, 946.2739
246.4418, 932.4069
246.9240, 924.0836
247.4061, 926.4007
247.8882, 907.5497
248.3703, 958.0443
248.8524, 986.9062
249.3345, 995.2979
249.8167, 921.9090
250.2988, 954.1229
250.7809, 944.0158
251.2630, 932.1734
251.7451, 979.2504
252.2272, 917.7561
252.7094, 963.8989
253.1915, 967.0748
253.6736, 989.9155
254.1557, 970.1740
254.6378, 963.5848
255.1199, 999.5914
255.6021, 1012.013
256.0842, 987.3692
256.5663, 1011.460
257.0484, 948.4781
257.5305, 961.9036
258.0126, 1008.296
258.4948, 985.7933
258.9769, 1010.663
259.4590, 1017.490
259.9411, 942.3254
260.4232, 1009.753
260.9053, 1015.515
261.3875, 957.9581
261.8696, 1020.500
262.3517, 971.6725
262.8338, 995.9788
263.3159, 998.0258
263.7980, 989.1750
264.2802, 979.1263
264.7623, 966.3134
265.2444, 955.2153
265.7265, 947.1951
266.2086, 940.7225
266.6907, 944.4634
267.1729, 963.6317
267.6550, 992.6231
268.1371, 1009.599
268.6192, 1010.991
269.1013, 1007.924
269.5834, 1008.840
270.0656, 1015.912
270.5477, 1016.141
271.0298, 1004.964
271.5119, 986.2397
271.9940, 975.6722
272.4761, 973.4730
272.9583, 979.1407
273.4404, 996.9667
273.9225, 1031.399
274.4046, 1052.139
274.8867, 1051.440
275.3688, 1034.240
275.8510, 1022.310
276.3331, 1016.489
276.8152, 1013.679
277.2973, 1013.022
277.7794, 1015.253
278.2615, 1011.866
278.7437, 997.9598
279.2258, 977.5970
279.7079, 970.5560
280.1900, 978.9738
280.6721, 992.4117
281.1542, 1003.315
281.6364, 1011.812
282.1185, 1014.762
282.6006, 1008.646
283.0827, 997.0580
283.5648, 996.5909
284.0469, 1009.226
284.5291, 1022.725
285.0112, 1022.950
285.4933, 1010.425
285.9754, 1002.452
286.4575, 1004.016
286.9396, 1013.178
287.4217, 1023.628
287.9038, 1035.271
288.3860, 1048.735
288.8681, 1069.455
289.3502, 1095.407
289.8323, 1109.203
290.3144, 1099.698
290.7965, 1076.506
291.2787, 1068.960
291.7608, 1078.419
292.2429, 1088.277
292.7250, 1076.055
293.2071, 1047.560
293.6892, 1032.413
294.1714, 1048.255
294.6535, 1080.177
295.1356, 1093.882
295.6177, 1088.723
296.0998, 1081.042
296.5819, 1087.593
297.0641, 1104.657
297.5462, 1119.795
298.0283, 1129.775
298.5104, 1134.903
298.9925, 1132.813
299.4746, 1123.417
299.9568, 1116.380
300.4389, 1121.683
300.9210, 1135.794
301.4031, 1150.910
301.8852, 1167.959
302.3673, 1182.147
302.8495, 1184.991
303.3316, 1176.661
303.8137, 1167.421
304.2958, 1167.293
304.7779, 1171.948
305.2600, 1173.603
305.7422, 1161.584
306.2243, 1150.231
306.7064, 1158.431
307.1885, 1185.159
307.6706, 1208.444
308.1527, 1205.777
308.6349, 1191.646
309.1170, 1186.150
309.5991, 1205.257
310.0812, 1229.420
310.5633, 1245.412
311.0454, 1253.575
311.5276, 1257.575
312.0097, 1256.465
312.4918, 1253.505
312.9739, 1252.321
313.4560, 1256.607
313.9381, 1261.041
314.4203, 1261.804
314.9024, 1259.263
315.3845, 1258.072
315.8666, 1263.994
316.3487, 1270.772
316.8308, 1272.495
317.3130, 1258.249
317.7951, 1247.071
318.2772, 1250.211
318.7593, 1266.105
319.2414, 1276.816
319.7235, 1277.130
320.2057, 1269.518
320.6878, 1255.940
321.1699, 1221.618
321.6520, 1196.837
322.1341, 1192.292
322.6162, 1206.373
323.0984, 1222.823
323.5805, 1249.070
324.0626, 1270.556
324.5447, 1277.467
325.0268, 1245.151
325.5089, 1223.861
325.9911, 1226.127
326.4732, 1249.465
326.9553, 1266.743
327.4374, 1279.065
327.9195, 1283.065
328.4016, 1276.709
328.8838, 1239.147
329.3659, 1217.414
329.8480, 1221.597
330.3301, 1246.922
330.8122, 1263.234
331.2943, 1263.567
331.7765, 1261.904
332.2586, 1266.798
332.7407, 1286.827
333.2228, 1297.312
333.7049, 1291.308
334.1870, 1274.490
334.6692, 1271.472
335.1513, 1290.161
335.6334, 1309.948
336.1155, 1319.054
336.5976, 1314.450
337.0797, 1308.322
337.5619, 1298.875
338.0440, 1289.438
338.5261, 1291.598
339.0082, 1308.939
339.4903, 1326.987
339.9724, 1338.192
340.4546, 1342.344
340.9367, 1342.531
341.4188, 1339.602
341.9009, 1331.963
342.3830, 1312.868
342.8651, 1280.794
343.3473, 1252.389
343.8294, 1239.052
344.3115, 1239.432
344.7936, 1237.625
345.2757, 1232.926
345.7578, 1225.692
346.2400, 1214.683
346.7221, 1200.360
347.2042, 1187.952
347.6863, 1182.604
348.1684, 1181.426
348.6505, 1173.081
349.1327, 1155.367
349.6148, 1137.907
350.0969, 1136.093
350.5790, 1145.691
351.0611, 1150.410
351.5432, 1134.690
352.0254, 1111.753
352.5075, 1105.593
352.9896, 1118.731
353.4717, 1131.622
353.9538, 1121.923
354.4359, 1099.088
354.9181, 1081.938
355.4002, 1084.926
355.8823, 1093.330
356.3644, 1091.700
356.8465, 1079.704
357.3286, 1070.350
357.8108, 1076.869
358.2929, 1089.752
358.7750, 1096.672
359.2571, 1088.889
359.7392, 1077.505
360.2213, 1064.229
360.7035, 1049.956
361.1856, 1046.084
361.6677, 1073.323
362.1498, 1105.627
362.6319, 1120.731
363.1140, 1090.715
363.5962, 1065.037
364.0783, 1061.001
364.5604, 1075.754
365.0425, 1088.630
365.5246, 1094.736
366.0067, 1097.585
366.4889, 1099.366
366.9710, 1096.813
367.4531, 1097.356
367.9352, 1107.478
368.4173, 1123.090
368.8994, 1125.780
369.3815, 1101.378
369.8636, 1076.167
370.3458, 1061.988
370.8279, 1067.715
371.3100, 1069.124
371.7921, 1065.414
372.2742, 1057.581
372.7563, 1047.045
373.2385, 1029.438
373.7206, 1016.493
374.2027, 1014.681
374.6848, 1028.017
375.1669, 1036.138
375.6490, 1039.314
376.1312, 1036.968
376.6133, 1026.634
377.0954, 1006.181
377.5775, 986.1077
378.0596, 969.3135
378.5417, 956.0890
379.0239, 947.3434
379.5060, 943.6481
379.9881, 942.9677
380.4702, 945.0553
380.9523, 949.6721
381.4344, 949.2286
381.9166, 937.5844
382.3987, 919.7446
382.8808, 911.3295
383.3629, 912.8403
383.8450, 916.8171
384.3271, 916.5397
384.8093, 913.0118
385.2914, 909.1382
385.7735, 904.7230
386.2556, 901.4051
386.7377, 903.2490
387.2198, 909.4589
387.7020, 914.0219
388.1841, 911.2086
388.6662, 904.5862
389.1483, 898.2630
389.6304, 891.0998
390.1125, 888.1387
390.5947, 898.1635
391.0768, 916.6173
391.5589, 928.8996
392.0410, 921.2487
392.5231, 908.6912
393.0052, 903.2113
393.4874, 911.2180
393.9695, 915.5480
394.4516, 901.8080
394.9337, 880.5950
395.4158, 871.3211
395.8979, 892.8640
396.3801, 915.8569
396.8622, 927.7133
397.3443, 924.0029
397.8264, 921.3534
398.3085, 922.0301
398.7906, 924.8174
399.2728, 928.3279
399.7549, 935.5093
400.2370, 939.9998
400.7191, 939.2512
401.2012, 932.6750
401.6833, 930.3081
402.1655, 936.2446
402.6476, 942.4137
403.1297, 940.4335
403.6118, 923.8048
404.0939, 915.2608
404.5760, 920.3376
405.0582, 936.3651
405.5403, 948.7538
406.0224, 956.2283
406.5045, 963.4197
406.9866, 975.4166
407.4688, 992.9055
407.9509, 1001.941
408.4330, 998.2637
408.9151, 989.3837
409.3972, 993.7155
409.8793, 1011.252
410.3615, 1025.234
410.8436, 1022.667
411.3257, 1008.546
411.8078, 1000.232
412.2899, 999.4529
412.7720, 1001.571
413.2542, 999.3931
413.7363, 995.2843
414.2184, 996.2912
414.7005, 1012.320
415.1826, 1031.861
415.6647, 1041.033
416.1469, 1039.284
416.6290, 1033.584
417.1111, 1027.913
417.5932, 1021.495
418.0753, 1013.532
418.5574, 998.5717
419.0396, 986.4310
419.5217, 982.6783
420.0038, 986.5645
420.4859, 992.8150
420.9680, 1004.913
421.4501, 1015.335
421.9323, 1018.290
422.4144, 1003.695
422.8965, 994.2822
423.3786, 998.9678
423.8607, 1012.234
424.3428, 1018.221
424.8250, 1006.862
425.3071, 995.9847
425.7892, 992.9416
426.2713, 1003.833
426.7534, 1005.445
427.2355, 990.4981
427.7177, 970.7557
428.1998, 964.9590
428.6819, 980.5749
429.1640, 993.3151
429.6461, 996.1371
430.1282, 989.1462
430.6104, 980.9043
431.0925, 970.3353
431.5746, 961.2000
432.0567, 957.2690
432.5388, 958.5825
433.0209, 963.7699
433.5031, 974.4080
433.9852, 987.2285
434.4673, 994.4208
434.9494, 996.0577
435.4315, 994.9109
435.9136, 990.7859
436.3958, 985.4294
436.8779, 983.5632
437.3600, 986.4521
437.8421, 991.3763
438.3242, 997.7975
438.8063, 1004.217
439.2885, 1006.401
439.7706, 997.9097
440.2527, 986.7081
440.7348, 979.6390
441.2169, 977.3018
441.6990, 978.0803
442.1812, 981.7386
442.6633, 987.7087
443.1454, 995.3555
443.6275, 1004.096
444.1096, 1014.811
444.5917, 1030.241
445.0739, 1049.741
445.5560, 1063.936
446.0381, 1070.684
446.5202, 1071.794
447.0023, 1068.245
447.4844, 1052.024
447.9666, 1041.597
448.4487, 1039.777
448.9308, 1043.620
449.4129, 1044.851
449.8950, 1040.723
450.3771, 1038.521
450.8592, 1042.239
451.3413, 1053.667
451.8235, 1059.926
452.3056, 1059.405
452.7877, 1056.289
453.2698, 1056.348
453.7519, 1059.876
454.2340, 1063.277
454.7162, 1065.978
455.1983, 1067.645
455.6804, 1066.604
456.1625, 1062.708
456.6446, 1058.427
457.1267, 1057.819
457.6089, 1058.575
458.0910, 1053.236
458.5731, 1037.520
459.0552, 1020.278
459.5373, 1011.688
460.0194, 1010.484
460.5016, 1012.397
460.9837, 1018.566
461.4658, 1024.726
461.9479, 1026.280
462.4300, 1021.811
462.9121, 1017.856
463.3943, 1020.796
463.8764, 1025.366
464.3585, 1024.713
464.8406, 1005.634
465.3227, 991.9293
465.8048, 997.2428
466.2870, 1021.576
466.7691, 1032.395
467.2512, 1015.632
467.7333, 991.4970
468.2154, 971.9688
468.6975, 956.0047
469.1797, 946.5595
469.6618, 945.9662
470.1439, 951.4901
470.6260, 956.4044
471.1081, 960.9680
471.5902, 964.3112
472.0724, 967.3074
472.5545, 970.3967
473.0366, 963.5836
473.5187, 943.8400
474.0008, 922.8818
474.4829, 916.9081
474.9651, 924.6964
475.4472, 931.5149
475.9293, 932.5826
476.4114, 930.1390
476.8935, 928.4606
477.3756, 927.5129
477.8578, 926.5052
478.3399, 925.1777
478.8220, 923.3559
479.3041, 920.5696
479.7862, 916.2820
480.2683, 912.1773
480.7505, 910.4123
481.2326, 909.7454
481.7147, 907.5598
482.1968, 894.8236
482.6789, 886.7429
483.1610, 894.8306
483.6432, 922.3469
484.1253, 943.3567
484.6074, 951.3498
485.0895, 949.9141
485.5716, 942.2277
486.0537, 918.2001
486.5359, 900.2877
487.0180, 892.5513
487.5001, 892.7615
487.9822, 889.9994
488.4643, 880.5205
488.9464, 874.2682
489.4286, 878.7482
489.9107, 898.0751
490.3928, 904.3648
490.8749, 893.3768
491.3570, 876.6683
491.8391, 873.0472
492.3213, 882.4763
492.8034, 887.9717
493.2855, 880.9641
493.7676, 866.9181
494.2497, 858.1802
494.7318, 854.8245
495.2140, 856.9612
495.6961, 870.0970
496.1782, 887.7972
496.6603, 898.2420
497.1424, 897.8361
497.6245, 892.6692
498.1067, 884.9801
498.5888, 876.0918
499.0709, 869.0474
499.5530, 867.3558
500.0351, 865.9874
500.5172, 859.8247
500.9994, 846.9167
501.4815, 842.4361
501.9636, 859.2391
502.4457, 881.2040
502.9278, 893.7862
503.4099, 888.0309
503.8921, 883.0607
504.3742, 881.6034
504.8563, 882.2887
505.3384, 879.0467
505.8205, 870.2850
506.3026, 860.7536
506.7848, 851.2772
507.2669, 840.7284
507.7490, 839.9361
508.2311, 852.0537
508.7132, 866.7111
509.1953, 867.4259
509.6775, 855.7487
510.1596, 849.6830
510.6417, 857.8298
511.1238, 873.4267
511.6059, 883.7954
512.0880, 889.2269
512.5701, 892.8487
513.0522, 898.5195
513.5344, 903.0798
514.0165, 900.7357
514.4986, 886.8367
514.9807, 876.7784
515.4628, 884.8350
515.9449, 902.5298
516.4271, 915.3282
516.9092, 919.6646
517.3913, 917.2595
517.8734, 903.9294
518.3555, 878.9375
518.8376, 865.1260
519.3198, 872.1960
519.8019, 886.2211
520.2840, 899.8093
520.7661, 916.6598
521.2482, 924.7938
521.7303, 919.1035
522.2125, 907.0079
522.6946, 907.2877
523.1767, 923.8802
523.6588, 936.0369
524.1409, 932.6492
524.6230, 916.4264
525.1052, 908.0458
525.5873, 908.2198
526.0694, 910.5721
526.5515, 907.2437
527.0336, 900.9652
527.5157, 900.0967
527.9979, 908.2706
528.4800, 919.6682
528.9621, 927.8311
529.4442, 934.0225
529.9263, 942.2443
530.4084, 958.9279
530.8906, 975.1652
531.3727, 983.9169
531.8548, 983.9078
532.3369, 982.9272
532.8190, 981.6507
533.3011, 981.4938
533.7833, 983.7603
534.2654, 991.3823
534.7475, 998.1345
535.2296, 1004.051
535.7117, 1008.742
536.1938, 1010.351
536.6760, 1006.411
537.1581, 1004.061
537.6402, 1005.941
538.1223, 1012.078
538.6044, 1023.476
539.0865, 1041.896
539.5687, 1060.835
540.0508, 1073.245
540.5329, 1079.595
541.0150, 1080.984
541.4971, 1074.668
541.9792, 1067.498
542.4614, 1071.418
542.9435, 1084.692
543.4256, 1099.221
543.9077, 1108.333
544.3898, 1117.410
544.8719, 1132.354
545.3541, 1154.433
545.8362, 1177.148
546.3183, 1198.566
546.8004, 1218.685
547.2825, 1237.685
547.7646, 1256.022
548.2468, 1272.484
548.7289, 1285.952
549.2110, 1297.103
549.6931, 1308.349
550.1752, 1316.119
550.6573, 1328.829
551.1395, 1352.028
551.6216, 1388.682
552.1037, 1418.366
552.5858, 1441.249
553.0679, 1457.346
553.5500, 1461.867
554.0322, 1455.608
554.5143, 1460.013
554.9964, 1483.415
555.4785, 1516.140
555.9606, 1541.609
556.4427, 1560.649
556.9249, 1577.008
557.4070, 1591.324
557.8891, 1605.010
558.3712, 1621.115
558.8533, 1640.484
559.3354, 1655.330
559.8176, 1658.179
560.2997, 1655.773
560.7818, 1655.032
561.2639, 1658.014
561.7460, 1662.423
562.2281, 1670.961
562.7103, 1681.133
563.1924, 1683.656
563.6745, 1673.983
564.1566, 1662.551
564.6387, 1651.817
565.1208, 1641.125
565.6030, 1639.241
566.0851, 1650.571
566.5672, 1660.683
567.0493, 1650.851
567.5314, 1622.463
568.0135, 1602.811
568.4957, 1598.991
568.9778, 1602.908
569.4599, 1601.925
569.9420, 1597.197
570.4241, 1593.645
570.9063, 1597.380
571.3884, 1601.424
571.8705, 1596.002
572.3526, 1580.873
572.8347, 1570.390
573.3168, 1574.079
573.7990, 1584.693
574.2811, 1596.359
574.7632, 1611.638
575.2453, 1622.754
575.7274, 1627.612
576.2095, 1627.740
576.6917, 1625.460
577.1738, 1616.448
577.6559, 1612.250
578.1380, 1617.356
578.6201, 1631.074
579.1022, 1641.014
579.5844, 1645.292
580.0665, 1652.721
580.5486, 1674.294
581.0307, 1707.213
581.5128, 1727.668
581.9949, 1729.662
582.4771, 1730.732
582.9592, 1759.714
583.4413, 1805.100
583.9234, 1838.414
584.4055, 1832.125
584.8876, 1821.527
585.3698, 1836.161
585.8519, 1871.565
586.3340, 1903.573
586.8161, 1916.545
587.2982, 1926.967
587.7803, 1943.698
588.2625, 1968.544
588.7446, 1997.903
589.2267, 2038.039
589.7088, 2078.197
590.1909, 2104.167
590.6730, 2105.056
591.1552, 2122.507
591.6373, 2170.146
592.1194, 2234.618
592.6015, 2274.673
593.0836, 2289.143
593.5657, 2299.752
594.0479, 2312.690
594.5300, 2331.331
595.0121, 2369.251
595.4942, 2427.418
595.9763, 2484.060
596.4584, 2516.359
596.9406, 2537.655
597.4227, 2566.024
597.9048, 2608.593
598.3869, 2654.458
598.8690, 2701.911
599.3511, 2748.870
599.8333, 2792.258
600.3154, 2827.062
600.7975, 2862.752
601.2796, 2903.193
601.7617, 2948.391
602.2438, 2989.364
602.7260, 3021.670
603.2081, 3057.480
603.6902, 3108.439
604.1723, 3177.280
604.6544, 3227.049
605.1365, 3251.582
605.6187, 3269.460
606.1008, 3304.617
606.5829, 3354.147
607.0650, 3406.122
607.5471, 3459.804
608.0292, 3511.297
608.5114, 3553.418
608.9935, 3588.285
609.4756, 3624.552
609.9577, 3661.159
610.4398, 3703.920
610.9219, 3760.702
611.4041, 3836.287
611.8862, 3897.599
612.3683, 3926.721
612.8504, 3946.862
613.3325, 3975.783
613.8146, 4018.791
614.2968, 4060.433
614.7789, 4097.800
615.2610, 4135.571
615.7431, 4186.275
616.2252, 4252.095
616.7073, 4306.555
617.1895, 4334.240
617.6716, 4345.961
618.1537, 4370.839
618.6358, 4408.363
619.1179, 4448.652
619.6000, 4490.859
620.0822, 4529.115
620.5643, 4553.671
621.0464, 4561.246
621.5285, 4569.383
622.0106, 4592.058
622.4927, 4618.406
622.9749, 4636.709
623.4570, 4623.707
623.9391, 4627.548
624.4212, 4663.141
624.9033, 4719.160
625.3854, 4767.786
625.8676, 4806.805
626.3497, 4842.190
626.8318, 4875.532
627.3139, 4906.827
627.7960, 4935.231
628.2781, 4960.206
628.7603, 4986.416
629.2424, 5019.146
629.7245, 5055.863
630.2066, 5091.208
630.6887, 5124.707
631.1708, 5155.681
631.6530, 5182.048
632.1351, 5205.869
632.6172, 5230.364
633.0993, 5250.856
633.5814, 5278.043
634.0635, 5324.746
634.5457, 5383.430
635.0278, 5424.879
635.5099, 5425.069
635.9920, 5431.383
636.4741, 5462.551
636.9562, 5521.207
637.4384, 5559.138
637.9205, 5570.618
638.4026, 5578.494
638.8847, 5606.717
639.3668, 5651.717
639.8489, 5675.692
640.3311, 5670.075
640.8132, 5658.873
641.2953, 5670.273
641.7774, 5697.586
642.2595, 5726.684
642.7416, 5755.315
643.2238, 5780.375
643.7059, 5799.174
644.1880, 5812.499
644.6701, 5823.717
645.1522, 5835.008
645.6343, 5843.111
646.1165, 5848.155
646.5986, 5851.241
647.0807, 5842.244
647.5628, 5818.070
648.0449, 5786.275
648.5270, 5749.003
649.0092, 5705.036
649.4913, 5674.548
649.9734, 5662.085
650.4555, 5653.436
650.9376, 5634.155
651.4197, 5602.997
651.9019, 5554.498
652.3840, 5473.650
652.8661, 5390.584
653.3482, 5342.593
653.8303, 5317.414
654.3124, 5278.011
654.7946, 5193.328
655.2767, 5103.443
655.7588, 5029.889
656.2408, 4976.188
656.7230, 4910.833
657.2051, 4820.181
657.6872, 4731.145
658.1693, 4663.772
658.6514, 4627.794
659.1335, 4567.377
659.6157, 4474.186
660.0978, 4371.325
660.5799, 4293.785
661.0620, 4236.167
661.5441, 4168.021
662.0262, 4075.916
662.5084, 3978.777
662.9905, 3900.532
663.4726, 3835.921
663.9547, 3770.394
664.4368, 3695.335
664.9189, 3619.733
665.4011, 3550.990
665.8832, 3488.684
666.3653, 3418.344
666.8474, 3320.004
667.3295, 3228.693
667.8116, 3163.544
668.2938, 3135.157
668.7759, 3085.164
669.2580, 3005.347
669.7401, 2921.585
670.2222, 2863.541
670.7043, 2828.902
671.1865, 2793.813
671.6686, 2754.388
672.1507, 2712.972
672.6328, 2671.417
673.1149, 2629.733
673.5970, 2588.571
674.0792, 2549.651
674.5613, 2509.589
675.0434, 2464.184
675.5255, 2415.112
676.0076, 2370.504
676.4897, 2332.127
676.9719, 2298.154
677.4540, 2267.440
677.9361, 2239.725
678.4182, 2217.335
678.9003, 2202.769
679.3824, 2187.403
679.8646, 2162.497
680.3467, 2129.137
680.8288, 2100.364
681.3109, 2078.512
681.7930, 2056.069
682.2751, 2019.570
682.7573, 1976.482
683.2394, 1941.401
683.7215, 1926.927
684.2036, 1912.464
684.6857, 1880.087
685.1678, 1839.236
685.6500, 1810.839
686.1321, 1818.360
686.6142, 1819.349
687.0963, 1797.424
687.5784, 1756.453
688.0605, 1733.231
688.5427, 1734.979
689.0248, 1736.277
689.5069, 1721.294
689.9890, 1691.743
690.4711, 1665.781
690.9532, 1643.586
691.4354, 1624.897
691.9175, 1610.371
692.3996, 1598.912
692.8817, 1589.254
693.3638, 1581.827
693.8459, 1573.729
694.3281, 1565.242
694.8102, 1554.406
695.2923, 1538.776
695.7744, 1503.803
696.2565, 1481.885
696.7386, 1484.435
697.2208, 1500.868
697.7029, 1502.305
698.1850, 1484.270
698.6671, 1467.440
699.1492, 1462.160
699.6313, 1462.817
700.1135, 1445.838
700.5956, 1412.362
701.0777, 1382.415
701.5598, 1373.999
702.0419, 1374.592
702.5240, 1367.949
703.0062, 1352.414
703.4883, 1338.919
703.9704, 1334.831
704.4525, 1333.642
704.9346, 1330.597
705.4167, 1326.789
705.8989, 1317.740
706.3810, 1301.467
706.8631, 1281.715
707.3452, 1262.118
707.8273, 1242.285
708.3094, 1225.141
708.7916, 1211.694
709.2737, 1200.106
709.7558, 1184.193
710.2379, 1166.538
710.7200, 1156.412
711.2021, 1166.011
711.6843, 1178.911
712.1664, 1182.620
712.6485, 1177.672
713.1306, 1166.255
713.6127, 1138.763
714.0948, 1114.313
714.5770, 1103.976
715.0591, 1108.774
715.5412, 1109.427
716.0233, 1104.868
716.5054, 1098.055
716.9875, 1091.551
717.4697, 1085.384
717.9518, 1073.231
718.4339, 1054.098
718.9160, 1034.837
719.3981, 1024.145
719.8802, 1018.535
720.3624, 1010.737
720.8445, 996.3856
721.3266, 985.8425
721.8087, 990.6000
722.2908, 1001.782
722.7729, 1006.468
723.2551, 997.1489
723.7372, 986.5753
724.2193, 973.2786
724.7014, 960.6703
725.1835, 961.3248
725.6656, 980.0866
726.1478, 991.5795
726.6299, 983.4186
727.1120, 962.8347
727.5941, 950.5246
728.0762, 946.0199
728.5583, 945.9390
729.0405, 957.3372
729.5226, 966.1403
730.0047, 952.1871
730.4868, 914.2991
730.9689, 888.1359
731.4510, 897.0480
731.9332, 915.1490
732.4153, 926.3575
732.8974, 929.5880
733.3795, 927.6465
733.8616, 918.2677
734.3438, 907.3082
734.8259, 899.2661
735.3080, 894.2014
735.7901, 897.2502
736.2722, 911.6459
736.7543, 925.6827
737.2365, 921.8242
737.7186, 906.8362
738.2007, 894.5733
738.6828, 892.4265
739.1649, 890.8295
739.6470, 880.4692
740.1292, 867.2250
740.6113, 864.7076
741.0934, 889.6132
741.5755, 907.7755
742.0576, 911.4365
742.5397, 903.3928
743.0219, 893.7991
743.5040, 881.5461
743.9861, 874.7076
744.4682, 882.4241
744.9503, 897.5535
745.4324, 899.1190
745.9146, 861.9871
746.3967, 894.0538
746.8788, 911.6988
747.3609, 915.6968
747.8430, 865.1744
748.3251, 885.0540
748.8073, 876.7194
749.2894, 867.2281
749.7715, 897.0164
750.2536, 854.4239
750.7357, 883.5892
751.2178, 884.1102
751.7000, 897.7408
752.1821, 882.9834
752.6642, 876.9943
753.1463, 899.4023
753.6284, 906.0866
754.1105, 888.0614
754.5927, 902.5253
755.0748, 858.9410
755.5569, 866.2951
756.0390, 895.6266
756.5211, 879.0287
757.0032, 894.0119
757.4854, 896.9670
757.9675, 845.2608
758.4496, 888.6165
758.9317, 890.8610
759.4138, 850.8934
759.8959, 890.9918
760.3781, 856.8434
760.8602, 849.1967
761.3423, 857.1060
761.8244, 856.1541
762.3065, 859.6497
762.7886, 864.7932
763.2708, 869.6853
763.7529, 846.8525
764.2350, 879.6742
764.7171, 898.0742
765.1992, 902.8273
765.6813, 853.0599
766.1635, 873.6943
766.6456, 866.1150
767.1277, 857.3787
767.6098, 887.9220
768.0919, 846.0845
768.5740, 876.0049
769.0562, 877.2808
769.5383, 891.6666
770.0204, 877.6643
770.5025, 872.4301
770.9846, 895.5932
771.4667, 903.0325
771.9489, 885.7622
772.4310, 900.9814
772.9131, 858.1522
773.3952, 866.2612
773.8773, 896.3478
774.3594, 880.5049
774.8416, 896.2430
775.3237, 899.9534
775.8058, 885.6905
776.2879, 895.5219
776.7700, 900.4010
777.2521, 899.9829
777.7343, 891.6865
778.2164, 883.7654
778.6985, 890.3814
779.1806, 906.2183
779.6627, 919.3293
780.1448, 920.8166
780.6270, 922.4030
781.1091, 932.4409
781.5912, 946.8002
782.0733, 952.7534
782.5554, 946.8386
783.0375, 936.8592
783.5197, 921.7803
784.0018, 904.7617
784.4839, 897.9697
784.9660, 901.5829
785.4481, 909.1985
785.9302, 919.6110
786.4124, 931.1076
786.8945, 941.5711
787.3766, 950.7455
787.8587, 956.7393
788.3408, 956.4343
788.8229, 954.4436
789.3051, 952.1644
789.7872, 949.5501
790.2693, 951.6008
790.7514, 960.5974
791.2335, 970.6943
791.7156, 979.2191
792.1978, 986.2427
792.6799, 990.6168
793.1620, 992.0710
793.6441, 994.5876
794.1262, 1002.901
794.6083, 1013.791
795.0905, 1020.951
795.5726, 1022.901
796.0547, 1029.883
796.5368, 1052.536
797.0189, 1078.613
797.5010, 1097.344
797.9832, 1102.268
798.4653, 1115.286
798.9474, 1139.728
799.4295, 1166.850
799.9116, 1187.322
800.3937, 1201.645
800.8759, 1218.003
801.3580, 1237.164
801.8401, 1259.845
802.3222, 1293.708
802.8043, 1329.482
803.2864, 1352.750
803.7686, 1355.111
804.2507, 1353.032
804.7328, 1348.368
805.2149, 1343.748
805.6970, 1343.274
806.1791, 1350.555
806.6613, 1352.559
807.1434, 1346.287
807.6255, 1336.294
808.1076, 1328.088
808.5897, 1322.432
809.0718, 1324.963
809.5540, 1341.820
810.0361, 1360.043
810.5182, 1365.929
811.0003, 1364.141
811.4824, 1363.785
811.9645, 1369.191
812.4467, 1374.765
812.9288, 1376.611
813.4109, 1378.171
813.8930, 1390.292
814.3751, 1417.541
814.8572, 1436.992
815.3394, 1441.026
815.8215, 1434.201
816.3036, 1426.734
816.7857, 1417.617
817.2678, 1402.749
817.7499, 1373.833
818.2321, 1343.725
818.7142, 1323.739
819.1963, 1310.917
819.6784, 1291.929
820.1605, 1258.894
820.6426, 1224.451
821.1247, 1190.556
821.6068, 1157.919
822.0889, 1135.075
822.5710, 1123.315
823.0532, 1108.217
823.5353, 1077.690
824.0174, 1040.547
824.4995, 1010.900
824.9816, 988.9161
825.4637, 972.3563
825.9459, 961.7352
826.4280, 955.1022
826.9101, 955.4700
827.3922, 963.0797
827.8743, 955.3563
828.3564, 921.5175
828.8386, 892.0970
829.3207, 884.5276
829.8028, 894.9619
830.2849, 891.1094
830.7670, 873.2350
831.2491, 856.8310
831.7313, 854.8410
832.2134, 859.4337
832.6955, 864.1634
833.1776, 868.4202
833.6597, 866.8993
834.1418, 853.7879
834.6240, 837.7691
835.1061, 822.0615
835.5882, 805.8459
836.0703, 798.2750
836.5524, 801.1106
837.0345, 806.1589
837.5167, 808.4972
837.9988, 808.2789
838.4809, 806.2309
838.9630, 802.3774
839.4451, 795.6356
839.9272, 778.5152
840.4094, 762.8599
840.8915, 760.0565
841.3736, 775.5212
841.8557, 784.1901
842.3378, 780.6411
842.8199, 775.2219
843.3021, 775.2673
843.7842, 781.0328
844.2663, 782.0317
844.7484, 777.7538
845.2305, 772.9496
845.7126, 773.2654
846.1948, 775.0042
846.6769, 771.8616
847.1590, 762.1627
847.6411, 755.3307
848.1232, 759.8839
848.6053, 765.0040
849.0875, 761.8565
849.5696, 746.0468
850.0517, 740.1346
850.5338, 746.3807
851.0159, 756.3273
851.4980, 763.5761
851.9802, 768.2200
852.4623, 771.0789
852.9444, 772.3652
853.4265, 769.7704
853.9086, 759.0049
854.3907, 745.1405
854.8729, 731.1487
855.3550, 713.8705
855.8371, 709.7718
856.3192, 729.9226
856.8013, 750.1605
857.2834, 747.7460
857.7656, 722.0135
858.2477, 713.7614
858.7298, 726.5260
859.2119, 742.5405
859.6940, 745.2046
860.1761, 740.7318
860.6583, 737.4301
861.1404, 737.0518
861.6225, 735.5009
862.1046, 728.4074
862.5867, 721.7469
863.0688, 720.0153
863.5510, 724.3658
864.0331, 729.3060
864.5152, 735.0363
864.9973, 740.7880
865.4794, 750.3199
865.9615, 758.9807
866.4437, 749.6349
866.9258, 718.7471
867.4079, 693.3907
867.8900, 695.8638
868.3721, 708.5018
868.8542, 716.2481
869.3364, 714.1172
869.8185, 716.9162
870.3006, 727.0954
870.7827, 738.2641
871.2648, 746.8877
871.7469, 752.6103
872.2291, 748.4966
872.7112, 733.4230
873.1933, 721.1669
873.6754, 729.3204
874.1575, 743.3383
874.6396, 745.9441
875.1218, 731.5617
875.6039, 723.8779
876.0860, 735.6999
876.5681, 749.3666
877.0502, 754.9671
877.5323, 751.4836
878.0145, 749.0277
878.4966, 747.6760
878.9787, 746.7413
879.4608, 745.3375
879.9429, 744.0732
880.4250, 745.1682
880.9072, 748.9205
881.3893, 749.2178
881.8714, 736.8011
882.3535, 725.1115
882.8356, 724.1105
883.3177, 735.5752
883.7999, 741.7607
884.2820, 741.4698
884.7641, 739.5873
885.2462, 739.9176
885.7283, 741.2927
886.2104, 738.3735
886.6926, 731.4859
887.1747, 728.5131
887.6568, 741.2904
888.1389, 754.5271
888.6210, 755.1105
889.1031, 740.5132
889.5853, 736.4523
890.0674, 749.9907
890.5495, 761.9131
891.0316, 761.6916
891.5137, 751.4964
891.9958, 743.5083
892.4780, 737.8262
892.9601, 737.0162
893.4422, 749.9399
893.9243, 762.9741
894.4064, 760.1342
894.8885, 743.0779
895.3707, 735.3251
895.8528, 751.5161
896.3349, 765.8120
896.8170, 768.3472
897.2991, 762.0225
897.7813, 766.7993
898.2634, 782.6537
898.7455, 790.5361
899.2276, 771.8167
899.7097, 744.7320
900.1918, 728.4400
900.6740, 722.7817
901.1561, 727.0366
901.6382, 756.3212
902.1203, 777.9521
902.6024, 780.5941
903.0845, 768.7255
903.5667, 756.6038
904.0488, 743.7446
904.5309, 734.7702
905.0130, 730.4028
905.4951, 731.9614
905.9772, 747.6820
906.4594, 771.1973
906.9415, 785.9354
907.4236, 774.4354
907.9057, 764.9069
908.3878, 772.1534
908.8699, 786.6886
909.3521, 788.9388
909.8342, 775.5237
910.3163, 763.2251
910.7984, 755.1862
911.2805, 750.4921
911.7626, 749.6716
912.2448, 750.9390
912.7269, 749.4313
913.2090, 739.0869
913.6911, 733.1791
914.1732, 743.2513
914.6553, 759.3795
915.1375, 767.0338
915.6196, 761.2784
916.1017, 760.2628
916.5838, 767.2318
917.0659, 774.9849
917.5480, 769.0117
918.0302, 756.0355
918.5123, 760.1696
918.9944, 792.2660
919.4765, 815.0637
919.9586, 791.5759
920.4407, 754.9562
920.9229, 737.7715
921.4050, 749.1860
921.8871, 763.6211
922.3692, 784.8287
922.8513, 801.0286
923.3334, 795.4711
923.8156, 775.2402
924.2977, 768.9736
924.7798, 779.1580
925.2619, 789.3870
925.7440, 787.7691
926.2261, 781.4285
926.7083, 776.3116
927.1904, 773.7642
927.6725, 764.9968
928.1546, 743.9655
928.6367, 728.5928
929.1188, 731.2610
929.6010, 748.6550
930.0831, 767.8103
930.5652, 787.5619
931.0473, 798.7134
931.5294, 786.2972
932.0115, 770.4189
932.4937, 766.9786
932.9758, 775.0950
933.4579, 778.6284
933.9400, 773.8666
934.4221, 769.5145
934.9042, 768.6905
935.3864, 769.8820
935.8685, 767.4720
936.3506, 762.2545
936.8327, 758.9323
937.3148, 758.3679
937.7969, 762.0077
938.2791, 775.6816
938.7612, 793.9397
939.2433, 803.8950
939.7254, 801.6323
940.2075, 794.9858
940.6896, 784.4717
941.1718, 743.8428
941.6539, 776.5741
942.1360, 794.8835
942.6181, 799.5461
943.1002, 749.6882
943.5823, 770.2323
944.0645, 762.5624
944.5466, 753.7357
945.0287, 784.1885
945.5108, 742.2604
945.9929, 772.0903
946.4750, 773.2758
946.9572, 787.5711
947.4393, 773.4783
947.9214, 768.1536
948.4035, 791.2262
948.8856, 798.5750
949.3677, 781.2142
949.8499, 796.3428
950.3320, 753.4232
950.8141, 761.4417
951.2962, 791.4378
951.7783, 775.5044
952.2604, 791.1521
952.7426, 794.7719
953.2247, 743.7303
953.7068, 787.7504
954.1889, 790.6595
954.6710, 751.3564
955.1531, 792.1194
955.6353, 758.6356
956.1174, 751.6535
956.5995, 764.6154
957.0816, 756.7863
957.5637, 781.7366
958.0458, 775.1082
958.5280, 765.6583
959.0101, 768.5213
959.4922, 736.4936
959.9743, 769.1951
960.4564, 757.6810
960.9385, 768.1456
961.4207, 783.5918
961.9028, 760.8931
962.3849, 778.5776
962.8670, 733.6372
963.3491, 762.0000
963.8312, 785.8788
964.3134, 799.8254
964.7955, 798.7802
965.2776, 791.6284
965.7597, 789.7551
966.2418, 791.1025
966.7239, 790.7168
967.2061, 787.8295
967.6882, 782.2640
968.1703, 767.2045
968.6524, 754.3526
969.1345, 754.4981
969.6166, 770.8315
970.0988, 783.0369
970.5809, 791.2505
971.0630, 795.1327
971.5451, 791.4779
972.0272, 784.4976
972.5093, 781.9221
972.9915, 783.8795
973.4736, 788.3983
973.9557, 799.9559
974.4378, 808.1382
974.9199, 802.1798
975.4020, 760.3436
975.8842, 794.0676
976.3663, 813.3695
976.8484, 819.0248
977.3305, 770.1594
977.8126, 791.6961
978.2947, 785.0187
978.7769, 777.1848
979.2590, 808.6301
979.7411, 767.6946
980.2232, 798.5172
980.7053, 800.6953
981.1874, 815.9830
981.6696, 802.8830
982.1517, 798.5508
982.6338, 822.6160
983.1159, 830.9575
983.5980, 814.5893
984.0801, 830.7104
984.5623, 788.7836
985.0444, 797.7946
985.5264, 828.7832
986.0085, 813.8423
986.4907, 830.4828
986.9728, 835.0951
987.4549, 785.0461
987.9370, 830.0588
988.4191, 833.9605
988.9012, 795.6500
989.3834, 837.4057
989.8655, 804.9146
990.3476, 798.9250
990.8297, 812.8795
991.3118, 799.3354
991.7939, 795.2589
992.2761, 808.2693
992.7582, 817.0769
993.2403, 814.6815
993.7224, 806.6895
994.2045, 805.9810
994.6866, 810.1949
995.1688, 811.3124
995.6509, 803.6804
996.1330, 797.6263
996.6151, 800.0547
997.0972, 806.4196
997.5793, 810.4850
998.0615, 810.5724
998.5436, 814.4250
999.0257, 823.1636
999.5078, 832.4517
999.9899, 838.8420
1000.472, 842.2679
1000.954, 841.7025
1001.436, 836.9598
1001.918, 832.2795
1002.401, 826.5389
1002.883, 824.4962
1003.365, 830.4464
1003.847, 842.8410
1004.329, 845.6371
1004.811, 838.6924
1005.293, 829.3897
1005.775, 817.3571
1006.257, 808.5446
1006.740, 813.2365
1007.222, 825.9728
1007.704, 833.4467
1008.186, 827.0121
1008.668, 821.7662
1009.150, 819.2209
1009.632, 818.6937
1010.114, 818.8289
1010.596, 819.9310
1011.079, 824.0350
1011.561, 831.8414
1012.043, 840.6324
1012.525, 854.1370
1013.007, 863.6767
1013.489, 857.5132
1013.971, 828.5923
1014.453, 819.9106
1014.936, 837.4359
1015.418, 855.9588
1015.900, 856.3963
1016.382, 846.5618
1016.864, 844.0798
1017.346, 848.0607
1017.828, 853.0735
1018.310, 861.5408
1018.792, 864.8301
1019.275, 856.4738
1019.757, 841.8064
1020.239, 832.7870
1020.721, 829.3630
1021.203, 832.5909
1021.685, 845.0784
1022.167, 857.4764
1022.649, 857.2000
1023.132, 850.8961
1023.614, 847.8093
1024.096, 851.5291
1024.578, 854.9414
1025.060, 857.6874
1025.542, 859.7740
1026.024, 858.5132
1026.506, 855.8189
1026.989, 869.3174
1027.471, 897.5581
1027.953, 916.0828
1028.435, 899.6800
1028.917, 877.0477
1029.399, 864.9116
1029.881, 862.8544
1030.363, 864.4688
1030.845, 871.2812
1031.328, 875.4168
1031.810, 872.9837
1032.292, 870.0625
1032.774, 879.1597
1033.256, 894.6119
1033.738, 905.0798
1034.220, 904.7520
1034.702, 903.6240
1035.184, 902.7105
1035.667, 903.2708
1036.149, 907.4186
1036.631, 915.2042
1037.113, 919.5334
1037.595, 920.2040
1038.077, 918.0078
1038.559, 911.4274
1039.041, 903.9804
1039.524, 897.6255
1040.006, 892.8289
1040.488, 892.2317
1040.970, 898.8781
1041.452, 901.7346
1041.934, 894.7185
1042.416, 885.5078
1042.898, 891.9973
1043.380, 909.0391
1043.863, 922.7773
1044.345, 928.9086
1044.827, 930.6634
1045.309, 925.2402
1045.791, 918.7974
1046.273, 917.9924
1046.755, 923.8632
1047.237, 923.8094
1047.719, 917.0140
1048.202, 910.0340
1048.684, 905.5909
1049.166, 905.5905
1049.648, 916.4061
1050.130, 936.7558
1050.612, 945.0009
1051.094, 931.2228
1051.576, 921.3251
1052.059, 924.4901
1052.541, 933.7493
1053.023, 931.0666
1053.505, 920.4216
1053.987, 914.7419
1054.469, 920.1992
1054.951, 927.4308
1055.433, 934.3327
1055.916, 939.3416
1056.398, 939.9506
1056.880, 934.3092
1057.362, 937.3915
1057.844, 950.3550
1058.326, 961.3405
1058.808, 959.3687
1059.290, 951.2789
1059.772, 941.4650
1060.255, 931.1911
1060.737, 929.2837
1061.219, 917.1310
1061.701, 951.4798
1062.183, 971.4064
1062.665, 977.6866
1063.147, 929.4459
1063.629, 951.6075
1064.111, 945.5549
1064.594, 938.3485
1065.076, 970.4189
1065.558, 930.1081
1066.040, 961.5556
1066.522, 964.3583
1067.004, 980.2712
1067.486, 967.7955
1067.968, 964.0884
1068.450, 988.7783
1068.933, 997.7476
1069.415, 982.0043
1069.897, 998.7502
1070.379, 957.4482
1070.861, 967.0839
1071.343, 998.6976
1071.825, 984.3814
1072.307, 1001.647
1072.790, 1006.887
1073.272, 957.4626
1073.754, 1003.100
1074.236, 1007.627
1074.718, 969.9413
1075.200, 1012.321
1075.682, 980.4554
1076.164, 975.0905
1076.646, 964.4926
1077.129, 998.1604
1077.611, 1017.405
1078.093, 1023.003
1078.575, 974.0797
1079.057, 995.5588
1079.539, 988.8239
1080.021, 980.9323
1080.503, 1012.320
1080.985, 971.3272
1081.468, 1002.094
1081.950, 1004.214
1082.432, 1019.445
1082.914, 1006.287
1083.396, 1001.897
1083.878, 1025.905
1084.360, 1034.189
1084.842, 1017.763
1085.325, 1033.828
1085.807, 991.8438
1086.289, 1000.797
1086.771, 1031.729
1087.253, 1016.730
1087.735, 1033.313
1088.217, 1037.868
1088.699, 987.7614
1089.182, 1032.718
1089.664, 1036.562
1090.146, 998.1944
1090.628, 1025.068
1091.110, 1035.413
1091.592, 1039.906
1092.074, 1042.417
1092.556, 1043.287
1093.038, 1041.060
1093.521, 1029.778
1094.003, 1017.451
1094.485, 1015.609
1094.967, 1023.969
1095.449, 1032.585
1095.931, 1040.926
1096.413, 1046.290
1096.895, 1046.882
1097.377, 1045.417
1097.860, 1047.674
1098.342, 1052.834
1098.824, 1058.461
1099.306, 1064.373
1099.788, 1069.263
1100.270, 1075.120
1100.752, 1077.175
1101.234, 1070.133
1101.717, 1053.563
1102.199, 1047.368
1102.681, 1051.400
1103.163, 1058.431
1103.645, 1064.398
1104.127, 1070.951
1104.609, 1084.348
1105.091, 1098.746
1105.573, 1096.875
1106.056, 1067.941
1106.538, 1055.989
1107.020, 1069.626
1107.502, 1089.782
1107.984, 1095.437
1108.466, 1091.633
1108.948, 1083.644
1109.430, 1071.676
1109.912, 1066.330
1110.395, 1074.169
1110.877, 1083.195
1111.359, 1090.933
1111.841, 1095.667
1112.323, 1087.348
1112.805, 1070.713
1113.287, 1063.351
1113.769, 1078.320
1114.252, 1091.413
1114.734, 1085.846
1115.216, 1078.129
1115.698, 1085.591
1116.180, 1110.148
1116.662, 1122.596
1117.144, 1122.605
1117.626, 1118.915
1118.109, 1118.898
1118.591, 1116.702
1119.073, 1102.970
1119.555, 1082.866
1120.037, 1075.209
1120.519, 1082.078
1121.001, 1096.629
1121.483, 1120.378
1121.965, 1142.164
1122.448, 1144.165
1122.930, 1136.573
1123.412, 1134.526
1123.894, 1141.298
1124.376, 1144.255
1124.858, 1140.447
1125.340, 1135.133
1125.822, 1128.442
1126.304, 1123.355
1126.787, 1133.413
1127.269, 1152.379
1127.751, 1160.891
1128.233, 1137.137
1128.715, 1124.591
1129.197, 1144.828
1129.679, 1173.684
1130.161, 1193.096
1130.644, 1202.966
1131.126, 1199.880
1131.608, 1184.643
1132.090, 1174.926
1132.572, 1189.139
1133.054, 1205.868
1133.536, 1210.234
1134.018, 1207.140
1134.500, 1211.917
1134.983, 1226.181
1135.465, 1232.866
1135.947, 1227.982
1136.429, 1219.997
1136.911, 1212.980
1137.393, 1210.553
1137.875, 1219.953
1138.357, 1244.354
1138.839, 1254.267
1139.322, 1245.738
1139.804, 1235.583
1140.286, 1229.468
1140.768, 1227.651
1141.250, 1230.717
1141.732, 1238.276
1142.214, 1250.158
1142.696, 1274.665
1143.179, 1287.196
1143.661, 1281.802
1144.143, 1272.538
1144.625, 1271.012
1145.107, 1274.683
1145.589, 1273.594
1146.071, 1269.027
1146.553, 1269.594
1147.036, 1289.025
1147.518, 1301.219
1148.000, 1292.368
1148.482, 1278.405
1148.964, 1293.888
1149.446, 1331.395
1149.928, 1337.785
1150.410, 1302.838
1150.892, 1273.084
1151.375, 1286.882
1151.857, 1308.998
1152.339, 1318.196
1152.821, 1316.051
1153.303, 1310.511
1153.785, 1301.662
1154.267, 1295.991
1154.749, 1296.569
1155.231, 1298.840
1155.714, 1299.429
1156.196, 1299.050
1156.678, 1298.667
1157.160, 1298.688
1157.642, 1294.773
1158.124, 1285.394
1158.606, 1283.348
1159.088, 1306.753
1159.571, 1333.953
1160.053, 1338.496
1160.535, 1327.505
1161.017, 1318.552
1161.499, 1317.005
1161.981, 1310.912
1162.463, 1298.352
1162.945, 1284.703
1163.427, 1272.985
1163.910, 1265.567
1164.392, 1270.051
1164.874, 1285.197
1165.356, 1293.065
1165.838, 1282.004
1166.320, 1275.817
1166.802, 1281.262
1167.284, 1291.377
1167.766, 1295.577
1168.249, 1294.692
1168.731, 1288.810
1169.213, 1275.958
1169.695, 1270.181
1170.177, 1288.348
1170.659, 1298.847
1171.141, 1281.838
1171.623, 1249.635
1172.106, 1250.718
1172.588, 1276.828
1173.070, 1296.062
1173.552, 1292.181
1174.034, 1285.984
1174.516, 1250.527
1174.998, 1283.405
1175.480, 1301.862
1175.963, 1306.672
1176.445, 1256.961
1176.927, 1277.653
1177.409, 1270.130
1177.891, 1261.451
1178.373, 1292.051
1178.855, 1250.270
1179.337, 1280.248
1179.819, 1281.581
1180.302, 1296.023
1180.784, 1282.078
1181.266, 1276.900
1181.748, 1300.120
1182.230, 1307.616
1182.712, 1290.403
1183.194, 1305.679
1183.676, 1262.907
1184.158, 1271.073
1184.641, 1301.216
1185.123, 1285.430
1185.605, 1301.225
1186.087, 1304.992
1186.569, 1254.098
1187.051, 1298.265
1187.533, 1301.322
1188.015, 1262.166
1188.498, 1303.076
1188.980, 1268.364
1189.462, 1264.732
1189.944, 1269.848
1190.426, 1276.173
1190.908, 1273.811
1191.390, 1267.323
1191.872, 1263.899
1192.354, 1267.222
1192.837, 1264.301
1193.319, 1253.737
1193.801, 1243.945
1194.283, 1239.086
1194.765, 1239.546
1195.247, 1250.427
1195.729, 1266.780
1196.211, 1274.936
1196.693, 1268.326
1197.176, 1263.783
1197.658, 1262.308
1198.140, 1263.234
1198.622, 1267.879
1199.104, 1273.347
1199.586, 1276.953
1200.068, 1277.884
1200.550, 1271.439
1201.033, 1249.839
1201.515, 1236.194
1201.997, 1236.044
1202.479, 1241.602
1202.961, 1242.661
1203.443, 1241.419
1203.925, 1240.821
1204.407, 1241.166
1204.890, 1245.849
1205.372, 1263.140
1205.854, 1268.101
1206.336, 1246.992
1206.818, 1216.911
1207.300, 1215.989
1207.782, 1231.274
1208.264, 1235.276
1208.746, 1214.713
1209.229, 1209.011
1209.711, 1232.807
1210.193, 1253.265
1210.675, 1249.593
1211.157, 1232.901
1211.639, 1233.492
1212.121, 1244.385
1212.603, 1246.854
1213.085, 1220.517
1213.568, 1210.790
1214.050, 1232.530
1214.532, 1253.606
1215.014, 1240.834
1215.496, 1209.174
1215.978, 1206.115
1216.460, 1226.060
1216.942, 1244.321
1217.425, 1256.400
1217.907, 1255.507
1218.389, 1233.901
1218.871, 1211.646
1219.353, 1218.962
1219.835, 1243.047
1220.317, 1244.815
1220.799, 1224.401
1221.281, 1208.541
1221.764, 1208.439
1222.246, 1215.538
1222.728, 1232.035
1223.210, 1248.413
1223.692, 1244.670
1224.174, 1228.933
1224.656, 1225.065
1225.138, 1237.032
1225.620, 1244.011
1226.103, 1228.360
1226.585, 1219.471
1227.067, 1229.159
1227.549, 1247.218
1228.031, 1252.341
1228.513, 1246.942
1228.995, 1235.779
1229.477, 1217.569
1229.960, 1205.359
1230.442, 1207.237
1230.924, 1210.301
1231.406, 1209.921
1231.888, 1206.064
1232.370, 1194.192
1232.852, 1178.938
1233.334, 1173.762
1233.816, 1189.853
1234.299, 1199.980
1234.781, 1195.023
1235.263, 1188.999
1235.745, 1190.340
1236.227, 1197.755
1236.709, 1213.236
1237.191, 1231.736
1237.673, 1237.063
1238.156, 1205.264
1238.638, 1186.276
1239.120, 1189.911
1239.602, 1200.213
1240.084, 1203.908
1240.566, 1202.926
1241.048, 1202.142
1241.530, 1201.401
1242.012, 1199.424
1242.495, 1194.873
1242.977, 1189.787
1243.459, 1183.119
1243.941, 1178.833
1244.423, 1183.291
1244.905, 1193.000
1245.387, 1203.024
1245.869, 1211.842
1246.351, 1211.400
1246.834, 1185.268
1247.316, 1171.707
1247.798, 1180.576
1248.280, 1196.398
1248.762, 1197.916
1249.244, 1191.151
1249.726, 1186.656
1250.208, 1185.543
1250.691, 1185.823
1251.173, 1187.895
1251.655, 1189.181
1252.137, 1188.383
1252.619, 1187.935
1253.101, 1194.082
1253.583, 1202.117
1254.065, 1204.159
1254.547, 1198.606
1255.030, 1191.129
1255.512, 1179.974
1255.994, 1174.575
1256.476, 1181.297
1256.958, 1189.538
1257.440, 1179.331
1257.922, 1161.472
1258.404, 1152.749
1258.886, 1159.481
1259.369, 1158.865
1259.851, 1147.546
1260.333, 1141.930
1260.815, 1153.047
1261.297, 1168.374
1261.779, 1177.015
1262.261, 1176.484
1262.743, 1159.117
1263.226, 1114.719
1263.708, 1096.881
1264.190, 1109.380
1264.672, 1122.773
1265.154, 1113.083
1265.636, 1103.495
1266.118, 1125.394
1266.600, 1160.736
1267.083, 1180.469
1267.565, 1183.145
1268.047, 1166.109
1268.529, 1127.348
1269.011, 1098.052
1269.493, 1106.759
1269.975, 1125.755
1270.457, 1139.667
1270.939, 1146.153
1271.422, 1140.898
1271.904, 1121.117
1272.386, 1117.801
1272.868, 1131.931
1273.350, 1140.784
1273.832, 1118.523
1274.314, 1096.245
1274.796, 1095.872
1275.278, 1107.041
1275.761, 1114.828
1276.243, 1119.222
1276.725, 1118.832
1277.207, 1113.715
1277.689, 1109.344
1278.171, 1109.320
1278.653, 1110.991
1279.135, 1117.359
1279.618, 1121.303
1280.100, 1105.039
1280.582, 1074.347
1281.064, 1063.362
1281.546, 1075.446
1282.028, 1084.695
1282.510, 1070.598
1282.992, 1060.577
1283.474, 1064.515
1283.957, 1075.475
1284.439, 1083.115
1284.921, 1087.235
1285.403, 1086.363
1285.885, 1080.209
1286.367, 1073.040
1286.849, 1063.031
1287.331, 1057.912
1287.813, 1061.723
1288.296, 1068.198
1288.778, 1063.967
1289.260, 1055.514
1289.742, 1056.630
1290.224, 1070.822
1290.706, 1075.478
1291.188, 1063.625
1291.670, 1056.439
1292.153, 1062.096
1292.635, 1072.526
1293.117, 1079.018
1293.599, 1081.247
1294.081, 1077.274
##END=



