##NAMES=Jacobsite
##RRUFFID=R070719
##IDEAL CHEMISTRY=Mn^2+^Fe^3+^_2_O_4_
##LOCALITY=Kombat mine, Kombat, Grootfontein District, Otjozondjupa Region, Namibia
##OWNER=RRUFF
##SOURCE=William W. Pinch
##DESCRIPTION=Black, with reddish highlights, octahedra associated with kombatite, R070720, and colorless barysilite, R070651
##STATUS=The identification of this mineral is confirmed by single-crystal X-ray diffraction and chemical analysis.
##URL=rruff.info/R070719
##MEASURED CHEMISTRY=Mn_1.03_(Fe^3+^_1.88_Mn_0.07_Al_0.03_Mg_0.02_)_Î£=2.00_O_4_
135.9154, 2272.099
136.3975, 2269.310
136.8796, 2279.222
137.3618, 2303.103
137.8439, 2335.260
138.3260, 2382.911
138.8081, 2442.183
139.2902, 2489.019
139.7723, 2499.030
140.2545, 2471.582
140.7366, 2452.331
141.2187, 2448.012
141.7008, 2451.041
142.1829, 2455.705
142.6650, 2462.890
143.1472, 2464.937
143.6293, 2452.037
144.1114, 2426.923
144.5935, 2397.223
145.0756, 2362.447
145.5577, 2324.882
146.0399, 2292.730
146.5220, 2271.737
147.0041, 2251.125
147.4862, 2221.393
147.9683, 2182.914
148.4504, 2143.565
148.9326, 2111.617
149.4147, 2087.943
149.8968, 2060.250
150.3789, 2023.882
150.8610, 1984.032
151.3431, 1939.576
151.8252, 1890.792
152.3074, 1845.690
152.7895, 1818.536
153.2716, 1818.894
153.7537, 1817.270
154.2358, 1809.878
154.7179, 1799.274
155.2001, 1787.119
155.6822, 1774.049
156.1643, 1760.557
156.6464, 1748.130
157.1285, 1737.710
157.6106, 1727.242
158.0928, 1714.194
158.5749, 1701.396
159.0570, 1693.674
159.5391, 1694.506
160.0212, 1702.541
160.5033, 1702.336
160.9855, 1687.954
161.4676, 1672.742
161.9497, 1661.155
162.4318, 1652.292
162.9139, 1642.753
163.3960, 1629.851
163.8782, 1613.369
164.3603, 1597.519
164.8424, 1581.836
165.3245, 1566.948
165.8066, 1550.961
166.2887, 1534.204
166.7709, 1523.894
167.2530, 1531.384
167.7351, 1556.139
168.2172, 1568.339
168.6993, 1553.925
169.1814, 1529.578
169.6636, 1516.710
170.1457, 1520.096
170.6278, 1527.861
171.1099, 1528.247
171.5920, 1522.549
172.0741, 1515.017
172.5563, 1504.166
173.0384, 1492.410
173.5205, 1487.176
174.0026, 1491.578
174.4847, 1500.530
174.9668, 1511.147
175.4490, 1523.086
175.9311, 1531.267
176.4132, 1529.524
176.8953, 1518.211
177.3774, 1511.162
177.8595, 1514.922
178.3417, 1520.460
178.8238, 1521.043
179.3059, 1516.234
179.7880, 1511.810
180.2701, 1514.834
180.7522, 1527.191
181.2344, 1539.238
181.7165, 1548.420
182.1986, 1557.530
182.6807, 1568.588
183.1628, 1582.068
183.6449, 1596.542
184.1271, 1609.400
184.6092, 1619.013
185.0913, 1630.278
185.5734, 1644.548
186.0555, 1659.894
186.5376, 1675.340
187.0198, 1690.486
187.5019, 1704.341
187.9840, 1714.620
188.4661, 1720.757
188.9482, 1723.183
189.4303, 1722.866
189.9125, 1718.818
190.3946, 1710.058
190.8767, 1696.002
191.3588, 1676.770
191.8409, 1652.159
192.3230, 1618.257
192.8052, 1583.415
193.2873, 1545.986
193.7694, 1508.915
194.2515, 1478.353
194.7336, 1459.005
195.2157, 1448.915
195.6979, 1427.055
196.1800, 1375.342
196.6621, 1332.953
197.1442, 1320.686
197.6263, 1331.245
198.1084, 1341.417
198.5906, 1335.308
199.0727, 1313.843
199.5548, 1296.204
200.0369, 1283.389
200.5190, 1273.180
201.0011, 1265.378
201.4833, 1259.632
201.9654, 1253.427
202.4475, 1243.819
202.9296, 1231.739
203.4117, 1224.278
203.8938, 1226.650
204.3760, 1230.618
204.8581, 1227.421
205.3402, 1216.186
205.8223, 1205.853
206.3044, 1205.583
206.7865, 1212.493
207.2687, 1216.192
207.7508, 1211.726
208.2329, 1204.135
208.7150, 1201.152
209.1971, 1204.620
209.6792, 1207.179
210.1614, 1200.462
210.6435, 1188.036
211.1256, 1178.062
211.6077, 1174.048
212.0898, 1174.433
212.5719, 1175.564
213.0541, 1176.373
213.5362, 1180.052
214.0183, 1192.270
214.5004, 1209.305
214.9825, 1221.546
215.4646, 1221.926
215.9468, 1212.818
216.4289, 1203.323
216.9110, 1190.563
217.3931, 1182.320
217.8752, 1185.469
218.3573, 1196.543
218.8395, 1205.561
219.3216, 1204.438
219.8037, 1194.058
220.2858, 1185.308
220.7679, 1177.879
221.2500, 1172.875
221.7322, 1169.603
222.2143, 1168.723
222.6964, 1172.145
223.1785, 1186.122
223.6606, 1211.802
224.1427, 1221.791
224.6249, 1191.370
225.1070, 1166.436
225.5891, 1171.076
226.0712, 1199.558
226.5533, 1227.901
227.0354, 1230.902
227.5176, 1203.272
227.9997, 1187.163
228.4818, 1197.031
228.9639, 1206.606
229.4460, 1201.969
229.9281, 1185.546
230.4103, 1170.833
230.8924, 1173.498
231.3745, 1199.267
231.8566, 1216.553
232.3387, 1220.203
232.8208, 1220.538
233.3030, 1222.658
233.7851, 1226.456
234.2672, 1228.287
234.7493, 1223.717
235.2314, 1210.598
235.7135, 1198.708
236.1957, 1187.138
236.6778, 1177.221
237.1599, 1168.213
237.6420, 1160.941
238.1241, 1158.808
238.6062, 1167.329
239.0884, 1193.787
239.5705, 1206.192
240.0526, 1193.254
240.5347, 1177.748
241.0168, 1174.458
241.4989, 1184.077
241.9811, 1196.513
242.4632, 1199.891
242.9453, 1190.244
243.4274, 1183.173
243.9095, 1176.669
244.3916, 1173.727
244.8738, 1177.809
245.3559, 1188.606
245.8380, 1201.722
246.3201, 1212.685
246.8022, 1222.573
247.2843, 1224.975
247.7665, 1209.629
248.2486, 1194.677
248.7307, 1196.167
249.2128, 1214.730
249.6949, 1236.079
250.1770, 1243.848
250.6592, 1233.089
251.1413, 1223.818
251.6234, 1215.000
252.1055, 1208.250
252.5876, 1205.540
253.0697, 1206.839
253.5519, 1209.400
254.0340, 1209.967
254.5161, 1207.417
254.9982, 1208.035
255.4803, 1211.318
255.9624, 1217.958
256.4445, 1231.347
256.9267, 1251.100
257.4088, 1269.410
257.8909, 1278.666
258.3730, 1277.141
258.8551, 1269.299
259.3372, 1241.355
259.8194, 1215.983
260.3015, 1216.545
260.7836, 1244.400
261.2657, 1276.069
261.7478, 1288.476
262.2299, 1277.857
262.7121, 1270.333
263.1942, 1266.600
263.6763, 1265.800
264.1584, 1267.327
264.6405, 1271.108
265.1227, 1277.558
265.6048, 1288.327
266.0869, 1303.777
266.5690, 1314.037
267.0511, 1313.954
267.5332, 1311.970
268.0154, 1315.934
268.4975, 1326.156
268.9796, 1335.749
269.4617, 1336.998
269.9438, 1330.535
270.4259, 1334.274
270.9081, 1362.962
271.3902, 1391.987
271.8723, 1398.870
272.3544, 1383.525
272.8365, 1365.567
273.3186, 1358.231
273.8008, 1361.977
274.2829, 1369.533
274.7650, 1385.380
275.2471, 1401.621
275.7292, 1413.661
276.2113, 1421.165
276.6935, 1422.724
277.1756, 1413.648
277.6577, 1397.186
278.1398, 1393.048
278.6219, 1411.889
279.1040, 1434.473
279.5862, 1447.354
280.0683, 1451.389
280.5504, 1455.253
281.0325, 1466.216
281.5146, 1480.470
281.9967, 1484.003
282.4789, 1464.209
282.9610, 1445.379
283.4431, 1445.321
283.9252, 1461.114
284.4073, 1476.299
284.8894, 1482.748
285.3716, 1481.952
285.8537, 1480.165
286.3358, 1475.576
286.8179, 1472.277
287.3000, 1473.745
287.7821, 1478.833
288.2643, 1482.891
288.7464, 1483.712
289.2285, 1482.208
289.7106, 1480.471
290.1927, 1476.376
290.6748, 1475.648
291.1570, 1484.422
291.6391, 1499.350
292.1212, 1509.801
292.6033, 1510.892
293.0854, 1506.264
293.5675, 1502.729
294.0497, 1499.020
294.5318, 1498.957
295.0139, 1505.101
295.4960, 1515.994
295.9781, 1529.557
296.4602, 1546.671
296.9424, 1562.929
297.4245, 1567.994
297.9066, 1558.947
298.3887, 1555.120
298.8708, 1567.023
299.3529, 1587.257
299.8351, 1604.007
300.3172, 1614.806
300.7993, 1619.292
301.2814, 1613.321
301.7635, 1595.395
302.2456, 1583.638
302.7278, 1583.547
303.2099, 1591.507
303.6920, 1604.769
304.1741, 1623.443
304.6562, 1641.464
305.1383, 1649.097
305.6205, 1645.169
306.1026, 1652.223
306.5847, 1684.615
307.0668, 1723.285
307.5489, 1748.717
308.0310, 1758.518
308.5132, 1760.911
308.9953, 1761.672
309.4774, 1760.812
309.9595, 1762.820
310.4416, 1770.243
310.9237, 1778.929
311.4059, 1785.036
311.8880, 1788.643
312.3701, 1792.930
312.8522, 1799.413
313.3343, 1808.771
313.8164, 1824.431
314.2986, 1850.723
314.7807, 1879.018
315.2628, 1904.117
315.7449, 1926.621
316.2270, 1950.723
316.7091, 1979.716
317.1913, 2012.073
317.6734, 2039.003
318.1555, 2055.484
318.6376, 2072.882
319.1197, 2097.008
319.6018, 2125.410
320.0840, 2151.466
320.5661, 2170.841
321.0482, 2187.404
321.5303, 2214.215
322.0124, 2257.921
322.4945, 2300.977
322.9767, 2339.368
323.4588, 2374.991
323.9409, 2410.607
324.4230, 2447.323
324.9051, 2484.348
325.3872, 2520.383
325.8694, 2553.511
326.3515, 2588.865
326.8336, 2629.185
327.3157, 2670.483
327.7978, 2707.679
328.2799, 2739.612
328.7621, 2771.090
329.2442, 2809.377
329.7263, 2857.599
330.2084, 2905.086
330.6905, 2949.997
331.1726, 2995.375
331.6548, 3045.958
332.1369, 3100.917
332.6190, 3153.041
333.1011, 3193.957
333.5832, 3220.348
334.0653, 3254.284
334.5475, 3307.852
335.0296, 3356.518
335.5117, 3384.835
335.9938, 3396.803
336.4759, 3408.098
336.9580, 3431.630
337.4402, 3467.047
337.9223, 3490.662
338.4044, 3490.187
338.8865, 3491.595
339.3686, 3510.370
339.8507, 3534.594
340.3329, 3544.043
340.8150, 3527.068
341.2971, 3487.036
341.7792, 3438.148
342.2613, 3375.519
342.7434, 3309.194
343.2256, 3235.056
343.7077, 3160.285
344.1898, 3094.030
344.6719, 3039.738
345.1540, 2990.811
345.6361, 2932.488
346.1183, 2855.745
346.6004, 2787.538
347.0825, 2738.120
347.5646, 2691.151
348.0467, 2634.570
348.5288, 2566.385
349.0110, 2492.067
349.4931, 2416.930
349.9752, 2338.150
350.4573, 2268.932
350.9394, 2210.527
351.4215, 2160.448
351.9037, 2124.076
352.3858, 2097.102
352.8679, 2065.642
353.3500, 2013.467
353.8321, 1941.709
354.3142, 1886.522
354.7964, 1860.676
355.2785, 1837.297
355.7606, 1804.421
356.2427, 1765.934
356.7248, 1730.033
357.2069, 1702.336
357.6891, 1679.952
358.1712, 1654.337
358.6533, 1622.902
359.1354, 1593.841
359.6175, 1571.553
360.0996, 1552.870
360.5818, 1535.010
361.0639, 1517.830
361.5460, 1499.278
362.0281, 1473.992
362.5102, 1440.296
362.9923, 1414.464
363.4745, 1408.698
363.9566, 1408.816
364.4387, 1400.383
364.9208, 1380.979
365.4029, 1360.833
365.8850, 1348.837
366.3672, 1343.292
366.8493, 1334.317
367.3314, 1318.686
367.8135, 1300.712
368.2956, 1284.712
368.7777, 1270.571
369.2599, 1256.677
369.7420, 1241.517
370.2241, 1226.535
370.7062, 1213.859
371.1883, 1203.548
371.6704, 1196.556
372.1526, 1195.167
372.6347, 1198.394
373.1168, 1200.449
373.5989, 1201.855
374.0810, 1200.921
374.5631, 1195.473
375.0453, 1185.861
375.5274, 1174.707
376.0095, 1162.008
376.4916, 1149.575
376.9737, 1144.391
377.4558, 1152.750
377.9380, 1160.211
378.4201, 1162.697
378.9022, 1160.533
379.3843, 1152.786
379.8664, 1138.378
380.3485, 1121.843
380.8307, 1112.893
381.3128, 1114.559
381.7949, 1118.364
382.2770, 1127.808
382.7591, 1136.966
383.2412, 1138.996
383.7234, 1133.116
384.2055, 1124.930
384.6876, 1121.189
385.1697, 1123.597
385.6518, 1123.090
386.1339, 1118.591
386.6161, 1112.743
387.0982, 1105.123
387.5803, 1097.062
388.0624, 1091.621
388.5445, 1091.230
389.0266, 1095.429
389.5088, 1099.181
389.9909, 1101.596
390.4730, 1104.586
390.9551, 1109.241
391.4372, 1114.375
391.9193, 1118.671
392.4015, 1121.571
392.8836, 1123.073
393.3657, 1123.045
393.8478, 1121.046
394.3299, 1118.525
394.8120, 1113.506
395.2942, 1109.553
395.7763, 1109.391
396.2584, 1113.315
396.7405, 1119.227
397.2226, 1126.627
397.7047, 1135.537
398.1869, 1139.347
398.6690, 1133.386
399.1511, 1127.216
399.6332, 1125.582
400.1153, 1128.038
400.5974, 1133.046
401.0796, 1141.093
401.5617, 1150.799
402.0438, 1158.940
402.5259, 1165.098
403.0080, 1171.379
403.4901, 1179.443
403.9723, 1188.223
404.4544, 1196.037
404.9365, 1202.474
405.4186, 1208.125
405.9007, 1213.535
406.3828, 1218.601
406.8650, 1221.842
407.3471, 1220.375
407.8292, 1220.033
408.3113, 1232.936
408.7934, 1262.435
409.2755, 1285.848
409.7577, 1289.833
410.2398, 1286.017
410.7219, 1290.771
411.2040, 1307.013
411.6861, 1326.500
412.1682, 1341.281
412.6504, 1350.573
413.1325, 1360.235
413.6146, 1370.774
414.0967, 1381.231
414.5788, 1388.238
415.0609, 1394.333
415.5431, 1408.740
416.0252, 1439.038
416.5073, 1478.975
416.9894, 1499.300
417.4715, 1473.240
417.9536, 1459.629
418.4358, 1469.376
418.9179, 1491.901
419.4000, 1517.472
419.8821, 1542.614
420.3642, 1567.122
420.8463, 1590.834
421.3285, 1613.958
421.8106, 1635.400
422.2927, 1651.826
422.7748, 1669.489
423.2569, 1693.141
423.7390, 1721.223
424.2212, 1747.867
424.7033, 1767.547
425.1854, 1781.764
425.6675, 1800.594
426.1496, 1825.292
426.6317, 1852.559
427.1139, 1881.770
427.5960, 1912.195
428.0781, 1943.417
428.5602, 1975.351
429.0423, 2007.081
429.5244, 2036.497
430.0066, 2063.496
430.4887, 2092.959
430.9708, 2126.725
431.4529, 2163.376
431.9350, 2201.668
432.4171, 2241.878
432.8993, 2280.007
433.3814, 2315.757
433.8635, 2347.726
434.3456, 2371.695
434.8277, 2386.085
435.3098, 2400.367
435.7920, 2422.831
436.2741, 2453.199
436.7562, 2482.887
437.2383, 2508.702
437.7204, 2536.382
438.2025, 2572.160
438.6847, 2612.981
439.1668, 2650.536
439.6489, 2680.935
440.1310, 2705.012
440.6131, 2724.678
441.0952, 2731.264
441.5774, 2745.940
442.0595, 2781.845
442.5416, 2819.198
443.0237, 2839.044
443.5058, 2838.755
443.9879, 2828.504
444.4701, 2818.203
444.9522, 2807.027
445.4343, 2802.031
445.9164, 2806.431
446.3985, 2813.918
446.8806, 2826.987
447.3628, 2841.198
447.8449, 2849.341
448.3270, 2847.459
448.8091, 2837.368
449.2912, 2821.778
449.7733, 2796.950
450.2555, 2777.228
450.7376, 2770.582
451.2197, 2767.841
451.7018, 2763.211
452.1839, 2755.750
452.6660, 2745.465
453.1482, 2731.554
453.6303, 2714.585
454.1124, 2697.749
454.5945, 2682.170
455.0766, 2664.781
455.5587, 2640.578
456.0409, 2612.030
456.5230, 2587.032
457.0051, 2570.857
457.4872, 2556.022
457.9693, 2535.391
458.4514, 2509.712
458.9336, 2483.690
459.4157, 2459.006
459.8978, 2436.113
460.3799, 2416.873
460.8620, 2403.394
461.3441, 2388.934
461.8262, 2374.097
462.3083, 2356.757
462.7905, 2333.410
463.2726, 2303.949
463.7547, 2273.135
464.2368, 2245.655
464.7189, 2221.803
465.2010, 2199.040
465.6832, 2174.869
466.1653, 2154.510
466.6474, 2141.360
467.1295, 2132.910
467.6116, 2126.638
468.0938, 2122.052
468.5759, 2114.345
469.0580, 2089.240
469.5401, 2035.515
470.0222, 1996.228
470.5043, 1988.458
470.9865, 1990.662
471.4686, 1993.474
471.9507, 1994.698
472.4328, 1990.262
472.9149, 1974.978
473.3970, 1951.352
473.8792, 1926.088
474.3613, 1896.021
474.8434, 1874.829
475.3255, 1880.292
475.8076, 1900.159
476.2897, 1908.784
476.7719, 1896.014
477.2540, 1879.315
477.7361, 1872.714
478.2182, 1872.151
478.7003, 1863.609
479.1824, 1840.763
479.6646, 1813.912
480.1467, 1800.193
480.6288, 1805.574
481.1109, 1804.998
481.5930, 1791.581
482.0751, 1776.285
482.5573, 1766.979
483.0394, 1763.348
483.5215, 1761.104
484.0036, 1757.407
484.4857, 1752.196
484.9678, 1744.928
485.4500, 1731.295
485.9321, 1721.451
486.4142, 1720.242
486.8963, 1721.347
487.3784, 1717.808
487.8605, 1708.198
488.3427, 1697.990
488.8248, 1695.397
489.3069, 1701.023
489.7890, 1698.438
490.2711, 1677.796
490.7532, 1661.157
491.2354, 1666.917
491.7175, 1685.314
492.1996, 1693.081
492.6817, 1676.328
493.1638, 1650.193
493.6459, 1629.315
494.1281, 1613.895
494.6102, 1608.720
495.0923, 1620.451
495.5744, 1637.538
496.0565, 1637.781
496.5386, 1617.533
497.0208, 1601.043
497.5029, 1594.996
497.9850, 1594.676
498.4671, 1597.687
498.9492, 1602.654
499.4313, 1605.133
499.9135, 1601.459
500.3956, 1591.972
500.8777, 1580.913
501.3598, 1558.638
501.8419, 1546.523
502.3240, 1557.247
502.8062, 1575.755
503.2883, 1586.205
503.7704, 1583.651
504.2525, 1572.661
504.7346, 1555.281
505.2167, 1528.902
505.6989, 1515.904
506.1810, 1520.878
506.6631, 1535.747
507.1452, 1565.699
507.6273, 1601.554
508.1094, 1622.899
508.5916, 1615.604
509.0737, 1596.611
509.5558, 1589.828
510.0379, 1594.734
510.5200, 1594.854
511.0021, 1582.157
511.4843, 1564.808
511.9664, 1554.884
512.4485, 1552.501
512.9306, 1553.338
513.4127, 1553.606
513.8948, 1558.305
514.3770, 1579.128
514.8591, 1612.863
515.3412, 1636.483
515.8233, 1632.462
516.3054, 1605.476
516.7875, 1585.624
517.2697, 1575.820
517.7518, 1569.846
518.2339, 1565.200
518.7160, 1565.206
519.1981, 1576.750
519.6802, 1599.406
520.1624, 1621.105
520.6445, 1626.308
521.1266, 1614.425
521.6087, 1610.935
522.0908, 1622.804
522.5729, 1632.818
523.0551, 1630.250
523.5372, 1621.944
524.0193, 1618.595
524.5014, 1623.880
524.9835, 1633.885
525.4656, 1647.985
525.9478, 1664.508
526.4299, 1672.977
526.9120, 1667.412
527.3941, 1661.421
527.8762, 1673.992
528.3583, 1706.099
528.8405, 1729.901
529.3226, 1741.198
529.8047, 1744.947
530.2868, 1736.523
530.7689, 1722.926
531.2510, 1724.139
531.7332, 1751.569
532.2153, 1791.686
532.6974, 1809.726
533.1795, 1783.214
533.6616, 1775.752
534.1437, 1806.432
534.6259, 1839.052
535.1080, 1848.251
535.5901, 1837.547
536.0722, 1827.377
536.5543, 1831.564
537.0364, 1847.416
537.5186, 1868.965
538.0007, 1899.500
538.4828, 1923.152
538.9649, 1925.273
539.4470, 1922.691
539.9291, 1937.336
540.4113, 1973.574
540.8934, 2005.458
541.3755, 2012.917
541.8576, 2010.712
542.3397, 2025.142
542.8218, 2058.554
543.3040, 2087.636
543.7861, 2091.823
544.2682, 2076.007
544.7503, 2082.720
545.2324, 2132.011
545.7145, 2175.625
546.1967, 2200.761
546.6788, 2217.213
547.1609, 2233.434
547.6430, 2252.284
548.1251, 2275.669
548.6072, 2307.720
549.0894, 2349.059
549.5715, 2380.954
550.0536, 2392.737
550.5357, 2410.726
551.0178, 2451.453
551.4999, 2500.997
551.9821, 2540.038
552.4642, 2561.550
552.9463, 2577.444
553.4284, 2597.504
553.9105, 2621.023
554.3926, 2645.597
554.8748, 2671.491
555.3569, 2695.483
555.8390, 2713.166
556.3211, 2724.827
556.8032, 2740.792
557.2853, 2766.112
557.7675, 2790.731
558.2496, 2809.186
558.7317, 2823.863
559.2138, 2839.434
559.6959, 2857.436
560.1780, 2874.690
560.6602, 2885.548
561.1423, 2887.500
561.6244, 2893.051
562.1065, 2904.626
562.5886, 2917.606
563.0707, 2935.757
563.5529, 2953.296
564.0350, 2958.753
564.5171, 2944.289
564.9992, 2924.529
565.4813, 2919.283
565.9634, 2927.781
566.4456, 2938.106
566.9277, 2949.039
567.4098, 2958.641
567.8919, 2962.971
568.3740, 2962.780
568.8561, 2966.690
569.3383, 2982.494
569.8204, 2996.757
570.3025, 2994.118
570.7846, 2983.282
571.2667, 2988.572
571.7488, 3020.461
572.2310, 3061.750
572.7131, 3079.873
573.1952, 3061.860
573.6773, 3055.824
574.1594, 3062.773
574.6415, 3079.867
575.1237, 3108.603
575.6058, 3146.464
576.0879, 3191.101
576.5700, 3244.724
577.0521, 3295.538
577.5342, 3320.020
578.0164, 3317.906
578.4985, 3325.920
578.9806, 3354.288
579.4627, 3392.589
579.9448, 3429.901
580.4269, 3466.726
580.9091, 3511.065
581.3912, 3572.722
581.8733, 3634.954
582.3554, 3686.795
582.8375, 3730.152
583.3196, 3770.435
583.8018, 3809.455
584.2839, 3850.017
584.7660, 3897.403
585.2481, 3954.375
585.7302, 4009.931
586.2123, 4054.822
586.6945, 4107.865
587.1766, 4187.367
587.6587, 4279.721
588.1408, 4356.907
588.6229, 4403.396
589.1050, 4438.240
589.5872, 4485.642
590.0693, 4545.828
590.5514, 4618.648
591.0335, 4710.274
591.5156, 4803.743
591.9977, 4878.831
592.4799, 4938.578
592.9620, 5005.550
593.4441, 5087.146
593.9262, 5172.125
594.4083, 5252.469
594.8904, 5331.573
595.3726, 5417.400
595.8547, 5512.460
596.3368, 5606.820
596.8189, 5682.298
597.3010, 5730.090
597.7831, 5800.606
598.2653, 5917.562
598.7474, 6032.932
599.2295, 6129.754
599.7116, 6215.301
600.1937, 6304.036
600.6758, 6401.899
601.1580, 6495.560
601.6401, 6563.250
602.1222, 6612.069
602.6043, 6678.421
603.0864, 6770.588
603.5685, 6871.370
604.0507, 6968.677
604.5328, 7062.147
605.0149, 7154.195
605.4970, 7248.595
605.9791, 7337.348
606.4612, 7410.828
606.9434, 7479.720
607.4255, 7556.785
607.9076, 7645.058
608.3897, 7743.388
608.8718, 7853.174
609.3539, 7973.868
609.8361, 8079.572
610.3182, 8167.247
610.8003, 8244.939
611.2824, 8306.607
611.7645, 8364.680
612.2466, 8431.334
612.7288, 8508.332
613.2109, 8596.510
613.6930, 8707.441
614.1751, 8825.854
614.6572, 8923.055
615.1393, 8997.041
615.6215, 9062.498
616.1036, 9125.412
616.5857, 9190.139
617.0678, 9274.470
617.5499, 9425.083
618.0320, 9529.456
618.5142, 9536.709
618.9963, 9531.644
619.4784, 9582.124
619.9605, 9683.564
620.4426, 9791.103
620.9247, 9875.713
621.4069, 9941.928
621.8890, 9995.487
622.3711, 10030.90
622.8532, 10087.67
623.3353, 10192.63
623.8174, 10306.55
624.2996, 10385.85
624.7817, 10433.16
625.2638, 10489.07
625.7459, 10566.13
626.2280, 10654.26
626.7101, 10749.05
627.1923, 10848.31
627.6744, 10950.52
628.1565, 11054.54
628.6386, 11156.23
629.1207, 11248.21
629.6028, 11331.34
630.0850, 11400.92
630.5671, 11425.68
631.0492, 11469.35
631.5313, 11573.89
632.0134, 11703.69
632.4955, 11798.55
632.9777, 11833.66
633.4598, 11863.30
633.9419, 11950.17
634.4240, 12074.69
634.9061, 12165.27
635.3882, 12207.98
635.8704, 12252.47
636.3525, 12341.18
636.8346, 12463.83
637.3167, 12553.98
637.7988, 12591.40
638.2809, 12627.51
638.7631, 12663.77
639.2452, 12707.09
639.7273, 12766.95
640.2094, 12841.72
640.6915, 12920.19
641.1736, 12997.45
641.6558, 13068.67
642.1379, 13109.57
642.6200, 13111.52
643.1021, 13121.96
643.5842, 13165.20
644.0663, 13212.11
644.5485, 13227.38
645.0306, 13212.10
645.5127, 13205.96
645.9948, 13236.55
646.4769, 13266.06
646.9590, 13263.42
647.4412, 13235.21
647.9233, 13200.48
648.4054, 13166.79
648.8875, 13128.61
649.3696, 13077.28
649.8517, 13012.05
650.3339, 12938.13
650.8160, 12839.43
651.2981, 12752.03
651.7802, 12706.08
652.2623, 12670.81
652.7444, 12601.81
653.2266, 12485.37
653.7087, 12349.25
654.1908, 12210.84
654.6729, 12068.74
655.1550, 11912.33
655.6371, 11741.08
656.1193, 11587.73
656.6014, 11480.33
657.0835, 11401.41
657.5656, 11287.96
658.0477, 11103.03
658.5298, 10932.88
659.0120, 10799.16
659.4941, 10662.00
659.9762, 10485.60
660.4583, 10279.42
660.9404, 10081.57
661.4225, 9913.478
661.9047, 9760.497
662.3868, 9595.646
662.8689, 9418.870
663.3510, 9248.944
663.8331, 9092.717
664.3152, 8938.332
664.7974, 8773.057
665.2795, 8597.781
665.7616, 8428.745
666.2437, 8262.689
666.7258, 8107.176
667.2079, 7975.559
667.6901, 7851.564
668.1722, 7715.547
668.6543, 7564.031
669.1364, 7403.705
669.6185, 7236.525
670.1006, 7065.662
670.5828, 6910.497
671.0649, 6771.188
671.5470, 6646.148
672.0291, 6545.136
672.5112, 6449.201
672.9933, 6333.351
673.4755, 6197.031
673.9576, 6066.423
674.4397, 5946.471
674.9218, 5837.109
675.4039, 5746.516
675.8860, 5665.778
676.3682, 5572.110
676.8503, 5457.330
677.3324, 5334.813
677.8145, 5222.712
678.2966, 5120.219
678.7787, 5036.268
679.2609, 4987.504
679.7430, 4933.446
680.2251, 4856.382
680.7072, 4766.770
681.1893, 4675.699
681.6714, 4583.703
682.1536, 4498.834
682.6357, 4432.904
683.1178, 4373.449
683.5999, 4301.747
684.0820, 4218.946
684.5641, 4141.067
685.0463, 4076.441
685.5284, 4021.807
686.0105, 3970.085
686.4926, 3920.700
686.9747, 3875.646
687.4568, 3850.059
687.9390, 3813.068
688.4211, 3734.717
688.9032, 3639.425
689.3853, 3577.657
689.8674, 3573.624
690.3495, 3572.956
690.8317, 3522.340
691.3138, 3442.845
691.7959, 3384.096
692.2780, 3352.135
692.7601, 3316.489
693.2422, 3253.791
693.7244, 3174.112
694.2065, 3117.670
694.6886, 3107.429
695.1707, 3083.853
695.6528, 3031.688
696.1349, 2978.812
696.6171, 2944.743
697.0992, 2923.970
697.5813, 2899.032
698.0634, 2859.875
698.5455, 2818.106
699.0276, 2789.527
699.5098, 2769.936
699.9919, 2742.820
700.4740, 2704.707
700.9561, 2664.812
701.4382, 2631.280
701.9203, 2602.763
702.4025, 2568.510
702.8846, 2514.904
703.3667, 2473.841
703.8488, 2459.265
704.3309, 2448.741
704.8130, 2424.782
705.2952, 2388.678
705.7773, 2351.823
706.2594, 2320.316
706.7415, 2292.126
707.2236, 2265.452
707.7057, 2239.737
708.1879, 2211.673
708.6700, 2180.271
709.1521, 2147.604
709.6342, 2114.486
710.1163, 2081.161
710.5984, 2056.496
711.0806, 2051.960
711.5627, 2040.466
712.0448, 2012.836
712.5269, 1980.471
713.0090, 1953.288
713.4911, 1931.413
713.9733, 1908.871
714.4554, 1882.415
714.9375, 1852.754
715.4196, 1817.610
715.9017, 1778.619
716.3839, 1749.651
716.8660, 1735.156
717.3481, 1728.219
717.8302, 1724.107
718.3123, 1722.787
718.7944, 1712.155
719.2766, 1681.086
719.7587, 1655.831
720.2408, 1645.118
720.7229, 1639.153
721.2050, 1631.298
721.6871, 1619.622
722.1693, 1601.933
722.6514, 1572.493
723.1335, 1540.620
723.6156, 1523.682
724.0977, 1519.661
724.5798, 1512.915
725.0620, 1498.963
725.5441, 1483.294
726.0262, 1471.662
726.5083, 1464.041
726.9904, 1454.522
727.4725, 1440.420
727.9547, 1427.884
728.4368, 1419.723
728.9189, 1412.251
729.4010, 1401.656
729.8831, 1388.280
730.3652, 1375.873
730.8474, 1367.256
731.3295, 1360.261
731.8116, 1350.792
732.2937, 1339.801
732.7758, 1333.017
733.2579, 1332.388
733.7401, 1332.190
734.2222, 1327.045
734.7043, 1317.077
735.1864, 1303.952
735.6685, 1279.289
736.1506, 1262.803
736.6328, 1263.940
737.1149, 1268.534
737.5970, 1264.816
738.0791, 1253.415
738.5612, 1242.982
739.0433, 1238.582
739.5255, 1236.379
740.0076, 1232.526
740.4897, 1227.202
740.9718, 1220.223
741.4539, 1211.525
741.9360, 1204.740
742.4182, 1204.239
742.9003, 1208.493
743.3824, 1203.458
743.8645, 1178.461
744.3466, 1162.632
744.8287, 1167.733
745.3109, 1175.451
745.7930, 1173.573
746.2751, 1163.523
746.7572, 1153.380
747.2393, 1144.731
747.7214, 1139.151
748.2036, 1141.633
748.6857, 1147.161
749.1678, 1145.068
749.6499, 1134.089
750.1320, 1121.019
750.6141, 1110.507
751.0963, 1102.889
751.5784, 1100.464
752.0605, 1106.532
752.5426, 1108.360
753.0247, 1100.897
753.5068, 1092.496
753.9890, 1086.836
754.4711, 1084.273
754.9532, 1086.550
755.4353, 1100.472
755.9174, 1107.342
756.3995, 1089.932
756.8817, 1064.763
757.3638, 1050.696
757.8459, 1049.260
758.3280, 1056.097
758.8101, 1069.725
759.2922, 1083.360
759.7744, 1079.934
760.2565, 1057.199
760.7386, 1040.116
761.2207, 1032.209
761.7028, 1027.768
762.1849, 1023.241
762.6671, 1019.681
763.1492, 1019.838
763.6313, 1025.635
764.1134, 1030.812
764.5955, 1036.385
765.0776, 1038.711
765.5598, 1031.981
766.0419, 1020.118
766.5240, 1011.690
767.0061, 1010.374
767.4882, 1014.126
767.9703, 1023.725
768.4525, 1036.998
768.9346, 1040.737
769.4167, 1033.442
769.8988, 1023.058
770.3809, 1013.333
770.8630, 1003.004
771.3452, 988.5524
771.8273, 964.4269
772.3094, 952.8768
772.7915, 963.4512
773.2736, 975.3763
773.7557, 982.2139
774.2379, 984.4956
774.7200, 982.7744
775.2021, 977.3808
775.6842, 971.3949
776.1663, 966.5771
776.6484, 962.8746
777.1306, 960.5447
777.6127, 959.3585
778.0948, 957.9431
778.5769, 955.7440
779.0590, 954.1824
779.5411, 955.3093
780.0233, 959.2139
780.5054, 961.6072
780.9875, 961.2849
781.4696, 961.4283
781.9517, 964.1602
782.4338, 966.6298
782.9160, 967.0367
783.3981, 965.1598
783.8802, 960.5198
784.3623, 947.2220
784.8444, 937.1509
785.3265, 941.4481
785.8087, 952.5229
786.2908, 959.1977
786.7729, 959.3873
787.2550, 956.5200
787.7371, 953.2021
788.2192, 948.9526
788.7014, 941.3591
789.1835, 929.6976
789.6656, 921.8745
790.1477, 919.4471
790.6298, 920.7740
791.1119, 926.7209
791.5941, 935.5714
792.0762, 939.4531
792.5583, 933.7954
793.0404, 930.5595
793.5225, 931.3456
794.0046, 935.2572
794.4868, 947.1782
794.9689, 960.9331
795.4510, 961.8116
795.9331, 942.2578
796.4152, 919.3381
796.8973, 910.2722
797.3795, 911.7246
797.8616, 917.4099
798.3437, 926.3492
798.8258, 932.1341
799.3079, 931.2833
799.7900, 926.6171
800.2722, 922.6384
800.7543, 918.2781
801.2364, 919.8976
801.7185, 937.0504
802.2006, 946.9902
802.6827, 936.2945
803.1649, 918.9470
803.6470, 910.3505
804.1291, 912.0081
804.6112, 914.5566
805.0933, 914.2828
805.5754, 913.8415
806.0576, 914.9548
806.5397, 917.3813
807.0218, 921.5449
807.5039, 927.0240
807.9860, 930.5623
808.4681, 928.4963
808.9503, 923.0401
809.4324, 922.5676
809.9145, 927.6512
810.3966, 926.8281
810.8787, 915.4009
811.3608, 903.3411
811.8430, 900.0342
812.3251, 903.9506
812.8072, 903.5695
813.2893, 893.7950
813.7714, 887.2029
814.2535, 885.8668
814.7357, 887.0030
815.2178, 888.9373
815.6999, 891.8636
816.1820, 897.8441
816.6641, 909.1656
817.1462, 916.4589
817.6284, 909.6104
818.1105, 895.0262
818.5926, 882.3326
819.0747, 872.1707
819.5568, 862.4227
820.0389, 852.0405
820.5211, 842.7903
821.0032, 837.5969
821.4853, 836.5854
821.9674, 838.8735
822.4495, 849.1057
822.9316, 850.2917
823.4138, 828.6366
823.8959, 800.9867
824.3780, 789.4066
824.8601, 793.9319
825.3422, 800.0395
825.8243, 812.1931
826.3065, 818.4473
826.7886, 808.6525
827.2707, 794.1602
827.7528, 787.5495
828.2349, 789.3188
828.7170, 791.6947
829.1992, 790.1602
829.6813, 786.4778
830.1633, 782.3092
830.6454, 777.9558
831.1276, 773.6921
831.6097, 769.6976
832.0918, 770.0056
832.5739, 778.6140
833.0560, 790.3434
833.5381, 789.8973
834.0203, 772.7841
834.5024, 758.5457
834.9845, 746.2119
835.4666, 739.0645
835.9487, 745.1076
836.4308, 754.7697
836.9130, 752.8105
837.3951, 735.8993
837.8772, 721.2714
838.3593, 711.1936
838.8414, 706.6424
839.3235, 711.7161
839.8057, 721.1646
840.2878, 727.9265
840.7699, 730.2263
841.2520, 729.9734
841.7341, 727.5804
842.2162, 724.5236
842.6984, 724.1895
843.1805, 725.8655
843.6626, 725.5413
844.1447, 722.2275
844.6268, 718.8080
845.1089, 717.9175
845.5911, 718.7356
846.0732, 696.6833
846.5553, 719.6932
847.0374, 732.1630
847.5195, 734.6595
848.0016, 697.3102
848.4838, 711.4130
848.9659, 704.8964
849.4480, 697.5342
849.9301, 718.8788
850.4122, 687.3252
850.8943, 708.2147
851.3765, 708.1694
851.8586, 717.7057
852.3407, 706.4949
852.8228, 701.6921
853.3049, 717.6432
853.7870, 722.1027
854.2692, 708.5032
854.7513, 718.6486
855.2334, 686.3701
855.7155, 691.3189
856.1976, 712.3299
856.6797, 699.7739
857.1619, 710.2982
857.6440, 712.0325
858.1261, 673.8181
858.6082, 705.0782
859.0903, 706.2931
859.5724, 676.6577
860.0546, 705.5370
860.5367, 677.2065
861.0188, 674.2669
861.5009, 675.4065
861.9830, 677.6481
862.4651, 680.8943
862.9473, 685.2691
863.4294, 694.3024
863.9115, 700.8984
864.3936, 699.8333
864.8757, 693.8224
865.3578, 686.1998
865.8400, 678.1626
866.3221, 673.0821
866.8042, 675.6635
867.2863, 681.0652
867.7684, 682.1213
868.2505, 680.3579
868.7327, 680.4166
869.2148, 683.4622
869.6969, 688.8619
870.1790, 697.0319
870.6611, 705.5995
871.1432, 704.4666
871.6254, 691.7020
872.1075, 685.4977
872.5896, 690.9743
873.0717, 696.3994
873.5538, 693.5068
874.0359, 685.4222
874.5181, 680.7890
875.0002, 681.7538
875.4823, 681.3770
875.9644, 678.4940
876.4465, 675.5654
876.9286, 673.5584
877.4108, 672.0967
877.8929, 669.4614
878.3750, 665.7295
878.8571, 666.4721
879.3392, 680.9134
879.8214, 694.3857
880.3035, 691.5244
880.7856, 681.2515
881.2677, 678.7799
881.7498, 685.5373
882.2319, 692.7022
882.7141, 694.2482
883.1962, 692.8644
883.6783, 694.5295
884.1604, 698.1088
884.6425, 693.8723
885.1246, 680.1104
885.6068, 672.1409
886.0889, 679.7104
886.5710, 693.6808
887.0531, 696.4390
887.5352, 685.4650
888.0173, 677.4117
888.4995, 671.6035
888.9816, 669.9059
889.4637, 677.8224
889.9458, 686.4247
890.4279, 684.1356
890.9100, 672.3091
891.3922, 668.9033
891.8743, 687.6181
892.3564, 700.5180
892.8385, 692.5482
893.3206, 680.2912
893.8027, 679.2907
894.2849, 686.8358
894.7670, 690.5664
895.2491, 684.3905
895.7312, 679.6994
896.2133, 691.4063
896.6954, 707.6920
897.1776, 708.3078
897.6597, 696.4168
898.1418, 687.2789
898.6239, 686.2546
899.1060, 687.2098
899.5881, 682.4618
900.0703, 674.2252
900.5524, 673.8176
901.0345, 681.6947
901.5166, 686.8966
901.9987, 686.4595
902.4808, 684.7935
902.9630, 685.3874
903.4451, 687.7079
903.9272, 689.5317
904.4093, 690.4756
904.8914, 691.8113
905.3735, 696.1484
905.8557, 697.7894
906.3378, 692.5597
906.8199, 684.1297
907.3020, 676.8154
907.7841, 670.6349
908.2662, 668.9030
908.7484, 677.5376
909.2305, 684.8484
909.7126, 683.8671
910.1947, 679.1813
910.6768, 676.1693
911.1589, 675.2104
911.6411, 673.4360
912.1232, 668.2235
912.6053, 664.1104
913.0874, 667.7238
913.5695, 674.6061
914.0516, 675.7930
914.5338, 672.0378
915.0159, 671.6208
915.4980, 678.4508
915.9801, 686.0848
916.4622, 684.5602
916.9443, 675.5869
917.4265, 669.5771
917.9086, 666.4529
918.3907, 670.2748
918.8728, 684.2803
919.3549, 696.9906
919.8370, 696.1588
920.3192, 684.4552
920.8013, 680.2155
921.2834, 688.0192
921.7655, 692.2612
922.2476, 690.8419
922.7297, 686.6534
923.2119, 677.8592
923.6940, 668.5229
924.1761, 666.9554
924.6582, 676.0694
925.1403, 681.1185
925.6224, 674.5428
926.1046, 670.0238
926.5867, 676.6240
927.0688, 686.2000
927.5509, 689.3391
928.0330, 685.8401
928.5151, 681.8860
928.9973, 679.6130
929.4794, 678.7921
929.9615, 682.1572
930.4436, 685.0129
930.9257, 678.6747
931.4078, 666.0764
931.8900, 658.5099
932.3721, 660.8119
932.8542, 666.3284
933.3363, 668.8777
933.8184, 668.5568
934.3005, 662.8414
934.7827, 653.4734
935.2648, 652.8141
935.7469, 664.2748
936.2290, 677.8229
936.7111, 685.1201
937.1932, 686.4122
937.6754, 680.9864
938.1575, 667.5848
938.6396, 658.2023
939.1217, 654.1289
939.6038, 654.5275
940.0859, 661.1083
940.5681, 669.2970
941.0502, 669.6641
941.5323, 659.1443
942.0144, 656.9496
942.4965, 671.6179
942.9786, 682.3996
943.4608, 685.3365
943.9429, 682.4745
944.4250, 671.1578
944.9071, 654.6939
945.3892, 647.3292
945.8713, 657.7681
946.3535, 665.7856
946.8356, 663.6848
947.3177, 659.8894
947.7998, 661.3588
948.2819, 664.7318
948.7640, 662.0742
949.2462, 651.8318
949.7283, 645.3035
950.2104, 653.5123
950.6925, 664.0004
951.1746, 665.7061
951.6567, 662.0685
952.1389, 658.9604
952.6210, 656.8673
953.1031, 652.2258
953.5852, 642.2709
954.0673, 632.5914
954.5494, 630.7730
955.0316, 635.0238
955.5137, 642.7029
955.9958, 652.5207
956.4779, 658.1145
956.9600, 657.1291
957.4421, 652.3537
957.9243, 645.8270
958.4064, 638.8531
958.8885, 638.5793
959.3706, 645.4739
959.8527, 650.4739
960.3348, 652.2224
960.8170, 650.8209
961.2991, 645.3296
961.7812, 638.2814
962.2633, 635.9716
962.7454, 639.9057
963.2275, 641.8047
963.7097, 641.6266
964.1918, 639.3230
964.6739, 632.6773
965.1560, 626.0509
965.6381, 624.3111
966.1202, 627.1229
966.6024, 629.6687
967.0845, 634.0588
967.5666, 635.0721
968.0487, 630.3776
968.5308, 624.0870
969.0129, 615.3074
969.4951, 607.7559
969.9772, 608.8198
970.4593, 620.4644
970.9414, 628.0949
971.4235, 621.9081
971.9056, 616.4025
972.3878, 621.1608
972.8699, 629.1791
973.3520, 634.1771
973.8341, 634.7848
974.3162, 629.4002
974.7983, 614.8074
975.2805, 603.7172
975.7626, 610.8789
976.2447, 623.0011
976.7268, 623.9342
977.2089, 616.7800
977.6910, 610.2136
978.1732, 606.9383
978.6553, 606.0756
979.1374, 607.7534
979.6195, 610.1885
980.1016, 610.4995
980.5837, 609.1938
981.0659, 606.7369
981.5480, 603.7647
982.0301, 604.2045
982.5122, 610.2106
982.9943, 617.4551
983.4764, 618.5275
983.9586, 615.0498
984.4407, 617.9456
984.9228, 627.0850
985.4049, 632.6102
985.8870, 632.0531
986.3691, 626.9307
986.8513, 617.7510
987.3334, 606.1584
987.8155, 596.3109
988.2976, 587.6356
988.7797, 585.4426
989.2618, 592.1436
989.7440, 598.0803
990.2261, 599.1697
990.7082, 597.9638
991.1903, 597.3999
991.6724, 597.4744
992.1545, 598.0948
992.6367, 599.3432
993.1188, 600.9152
993.6009, 601.9805
994.0830, 604.4473
994.5651, 612.5315
995.0472, 621.7016
995.5294, 621.6970
996.0115, 609.7041
996.4936, 601.0095
996.9757, 594.7836
997.4578, 593.7683
997.9399, 605.0160
998.4221, 616.5352
998.9042, 617.0471
999.3863, 608.8933
999.8684, 602.3496
1000.351, 599.2062
1000.833, 597.9669
1001.315, 600.0174
1001.797, 601.8965
1002.279, 599.9686
1002.761, 597.4678
1003.243, 598.7309
1003.725, 604.2411
1004.207, 611.9171
1004.690, 624.1518
1005.172, 633.5289
1005.654, 636.1498
1006.136, 633.4839
1006.618, 622.4767
1007.100, 608.4547
1007.582, 603.6985
1008.064, 611.6712
1008.547, 619.5319
1009.029, 617.9037
1009.511, 611.6352
1009.993, 603.5724
1010.475, 595.3916
1010.957, 589.7755
1011.439, 586.7623
1011.921, 584.3325
1012.403, 581.3199
1012.886, 580.2461
1013.368, 585.6623
1013.850, 593.9658
1014.332, 599.1969
1014.814, 601.4794
1015.296, 601.0900
1015.778, 598.6239
1016.260, 597.5824
1016.742, 601.0319
1017.225, 605.8109
1017.707, 606.2167
1018.189, 603.2392
1018.671, 598.6981
1019.153, 593.6230
1019.635, 595.6852
1020.117, 607.7175
1020.599, 620.0965
1021.082, 622.7742
1021.564, 618.1254
1022.046, 612.6718
1022.528, 606.7015
1023.010, 604.9348
1023.492, 608.1109
1023.974, 612.2078
1024.456, 615.5471
1024.938, 616.6797
1025.421, 592.8332
1025.903, 618.4352
1026.385, 633.4976
1026.867, 638.5861
1027.349, 603.8295
1027.831, 620.5251
1028.313, 616.6006
1028.795, 611.8309
1029.278, 635.7709
1029.760, 606.8097
1030.242, 630.2913
1030.724, 632.8390
1031.206, 644.9678
1031.688, 636.3491
1032.170, 634.1389
1032.652, 652.6821
1033.135, 659.7372
1033.617, 648.7302
1034.099, 661.4680
1034.581, 631.7821
1035.063, 639.3232
1035.545, 662.9266
1036.027, 652.9628
1036.509, 666.0800
1036.991, 670.4063
1037.474, 634.7877
1037.956, 668.6404
1038.438, 672.4473
1038.920, 645.4045
1039.402, 660.2435
1039.884, 655.6006
1040.366, 652.4474
1040.848, 658.4145
1041.330, 666.9711
1041.813, 668.4235
1042.295, 662.2886
1042.777, 659.5459
1043.259, 664.8911
1043.741, 666.7025
1044.223, 659.1586
1044.705, 652.8155
1045.187, 657.0002
1045.670, 664.7802
1046.152, 662.4995
1046.634, 647.4852
1047.116, 639.2166
1047.598, 643.5309
1048.080, 648.8558
1048.562, 651.2958
1049.044, 655.0918
1049.526, 667.4678
1050.009, 682.5867
1050.491, 685.8361
1050.973, 672.0561
1051.455, 662.8698
1051.937, 662.5853
1052.419, 666.3527
1052.901, 677.6455
1053.383, 687.9227
1053.865, 688.2759
1054.348, 681.3347
1054.830, 676.5882
1055.312, 676.8429
1055.794, 675.7095
1056.276, 667.9017
1056.758, 662.7916
1057.240, 667.9029
1057.722, 675.7082
1058.205, 676.8258
1058.687, 672.7823
1059.169, 673.7141
1059.651, 685.9573
1060.133, 694.0026
1060.615, 689.2551
1061.097, 683.0193
1061.579, 681.5086
1062.062, 682.6031
1062.544, 683.4004
1063.026, 683.6494
1063.508, 684.2531
1063.990, 683.7635
1064.472, 686.9394
1064.954, 701.0273
1065.436, 713.7541
1065.918, 717.3347
1066.401, 713.7562
1066.883, 704.3970
1067.365, 690.7064
1067.847, 680.2779
1068.329, 674.5092
1068.811, 674.5743
1069.293, 686.7751
1069.775, 699.3979
1070.257, 702.4270
1070.740, 699.8875
1071.222, 699.1615
1071.704, 701.4849
1072.186, 703.5289
1072.668, 701.4170
1073.150, 701.9722
1073.632, 713.4481
1074.114, 724.3307
1074.597, 722.2257
1075.079, 713.0922
1075.561, 708.7910
1076.043, 711.7292
1076.525, 716.0000
1077.007, 722.9224
1077.489, 725.6194
1077.971, 715.4904
1078.453, 704.1115
1078.936, 702.1045
1079.418, 707.0860
1079.900, 713.4794
1080.382, 719.9588
1080.864, 723.9631
1081.346, 724.0958
1081.828, 721.7531
1082.310, 713.2929
1082.792, 706.4078
1083.275, 710.5010
1083.757, 721.5191
1084.239, 730.1075
1084.721, 734.0119
1085.203, 735.0051
1085.685, 731.8998
1086.167, 728.4567
1086.649, 726.2332
1087.131, 724.9965
1087.614, 724.8472
1088.096, 725.3690
1088.578, 725.6381
1089.060, 725.3828
1089.542, 725.6031
1090.024, 725.0378
1090.506, 727.1069
1090.988, 736.2043
1091.471, 746.5800
1091.953, 753.8364
1092.435, 757.5281
1092.917, 757.2842
1093.399, 752.6167
1093.881, 748.0649
1094.363, 746.7505
1094.845, 744.1297
1095.328, 731.7674
1095.810, 722.3755
1096.292, 732.8027
1096.774, 754.9696
1097.256, 767.5193
1097.738, 765.1643
1098.220, 759.0153
1098.702, 746.4094
1099.184, 738.6055
1099.667, 744.1546
1100.149, 753.5045
1100.631, 759.8483
1101.113, 762.5950
1101.595, 760.8286
1102.077, 752.6923
1102.559, 750.2310
1103.041, 764.9283
1103.523, 774.7715
1104.006, 767.4293
1104.488, 755.6954
1104.970, 748.8710
1105.452, 746.6286
1105.934, 746.7538
1106.416, 749.4628
1106.898, 751.8307
1107.380, 752.1971
1107.863, 753.6948
1108.345, 759.1811
1108.827, 764.3708
1109.309, 764.9614
1109.791, 762.9351
1110.273, 763.6704
1110.755, 768.7327
1111.237, 770.8896
1111.719, 763.5214
1112.202, 761.4410
1112.684, 776.1337
1113.166, 789.3052
1113.648, 782.7776
1114.130, 766.8729
1114.612, 767.1250
1115.094, 789.7577
1115.576, 801.0729
1116.058, 795.1522
1116.541, 786.8542
1117.023, 774.5681
1117.505, 765.3384
1117.987, 763.9704
1118.469, 768.4596
1118.951, 775.6593
1119.433, 786.3929
1119.915, 793.8065
1120.398, 796.8810
1120.880, 798.7248
1121.362, 799.2627
1121.844, 799.6493
1122.326, 800.9684
1122.808, 802.1200
1123.290, 800.8686
1123.772, 797.0339
1124.255, 794.6993
1124.737, 794.1881
1125.219, 794.0801
1125.701, 793.8326
1126.183, 794.5867
1126.665, 796.1045
1127.147, 801.0608
1127.629, 815.9319
1128.111, 839.3658
1128.594, 844.0331
1129.076, 825.7966
1129.558, 816.7428
1130.040, 822.5374
1130.522, 828.9277
1131.004, 828.7114
1131.486, 826.5319
1131.968, 829.0364
1132.450, 834.7081
1132.933, 832.7635
1133.415, 823.3162
1133.897, 825.9756
1134.379, 843.1071
1134.861, 857.5904
1135.343, 861.9774
1135.825, 862.5887
1136.307, 866.8950
1136.790, 871.9530
1137.272, 864.7019
1137.754, 849.5098
1138.236, 857.0412
1138.718, 885.6843
1139.200, 899.2404
1139.682, 885.6006
1140.164, 867.1086
1140.646, 863.1246
1141.129, 868.2155
1141.611, 875.3559
1142.093, 882.8550
1142.575, 886.4276
1143.057, 886.1660
1143.539, 882.0517
1144.021, 875.0105
1144.503, 871.1496
1144.985, 875.6556
1145.468, 882.2310
1145.950, 881.7795
1146.432, 879.7083
1146.914, 886.0552
1147.396, 896.7820
1147.878, 901.8370
1148.360, 900.3553
1148.842, 899.5762
1149.325, 903.9103
1149.807, 906.8027
1150.289, 899.7374
1150.771, 892.1757
1151.253, 894.0814
1151.735, 900.5721
1152.217, 905.8192
1152.699, 908.3124
1153.182, 905.9800
1153.664, 896.5426
1154.146, 891.0754
1154.628, 899.7123
1155.110, 907.9684
1155.592, 904.8164
1156.074, 899.6510
1156.556, 904.4695
1157.038, 914.7054
1157.521, 915.4511
1158.003, 901.7731
1158.485, 895.4733
1158.967, 909.6893
1159.449, 920.0737
1159.931, 917.2272
1160.413, 910.7653
1160.895, 905.9478
1161.377, 902.4911
1161.860, 899.6917
1162.342, 897.6356
1162.824, 894.7960
1163.306, 886.5350
1163.788, 886.5328
1164.270, 904.1540
1164.752, 916.5595
1165.234, 908.7566
1165.717, 895.6988
1166.199, 897.7516
1166.681, 912.7046
1167.163, 920.0928
1167.645, 918.6295
1168.127, 915.4894
1168.609, 911.3988
1169.091, 903.3869
1169.573, 888.7659
1170.056, 876.6075
1170.538, 876.0838
1171.020, 884.1713
1171.502, 894.0082
1171.984, 905.0655
1172.466, 907.8787
1172.948, 902.3282
1173.430, 892.5652
1173.912, 880.0160
1174.395, 873.4835
1174.877, 880.0006
1175.359, 890.6706
1175.841, 891.0372
1176.323, 884.6862
1176.805, 880.6492
1177.287, 878.1951
1177.769, 872.8502
1178.252, 865.5559
1178.734, 865.3149
1179.216, 876.5624
1179.698, 887.6770
1180.180, 888.1880
1180.662, 882.5089
1181.144, 870.7448
1181.626, 859.2911
1182.109, 859.4802
1182.591, 867.5223
1183.073, 871.9207
1183.555, 869.6635
1184.037, 866.2512
1184.519, 861.2916
1185.001, 860.2548
1185.483, 870.7302
1185.965, 881.3226
1186.448, 882.9700
1186.930, 879.1207
1187.412, 875.0938
1187.894, 871.5272
1188.376, 867.6392
1188.858, 861.1612
1189.340, 858.2515
1189.822, 863.7325
1190.304, 867.8513
1190.787, 844.5858
1191.269, 867.2826
1191.751, 879.4398
1192.233, 881.6231
1192.715, 843.9612
1193.197, 857.7513
1193.679, 850.9219
1194.161, 843.2467
1194.644, 864.2756
1195.126, 832.4092
1195.608, 852.9857
1196.090, 852.6281
1196.572, 861.8513
1197.054, 850.3279
1197.536, 845.2122
1198.018, 860.8505
1198.500, 864.9970
1198.983, 851.0821
1199.465, 860.9147
1199.947, 828.3232
1200.429, 832.9596
1200.911, 853.6575
1201.393, 840.7889
1201.875, 851.0005
1202.357, 852.4218
1202.839, 813.8949
1203.322, 844.8394
1203.804, 845.7415
1204.286, 815.7932
1204.768, 844.3603
1205.250, 818.6650
1205.732, 812.3380
1206.214, 832.1367
1206.696, 841.1807
1207.179, 846.5274
1207.661, 840.4207
1208.143, 831.6696
1208.625, 834.0098
1209.107, 843.5371
1209.589, 844.4985
1210.071, 831.7535
1210.553, 822.9470
1211.036, 823.8834
1211.518, 828.3540
1212.000, 840.1134
1212.482, 848.8340
1212.964, 843.6511
1213.446, 833.7960
1213.928, 835.0743
1214.410, 846.7006
1214.892, 850.3457
1215.375, 842.5412
1215.857, 835.5993
1216.339, 828.6838
1216.821, 828.3518
1217.303, 840.3315
1217.785, 847.7027
1218.267, 832.6064
1218.749, 807.8314
1219.231, 809.6942
1219.714, 835.3406
1220.196, 840.0478
1220.678, 825.5214
1221.160, 814.1266
1221.642, 810.1663
1222.124, 809.3384
1222.606, 809.4169
1223.088, 810.0502
1223.571, 811.4547
1224.053, 812.5576
1224.535, 809.3331
1225.017, 805.9544
1225.499, 812.6722
1225.981, 824.9724
1226.463, 828.2440
1226.945, 820.3255
1227.427, 815.7211
1227.910, 825.7626
1228.392, 832.0626
1228.874, 818.6184
1229.356, 805.0505
1229.838, 807.0175
1230.320, 814.0279
1230.802, 813.7542
1231.284, 807.1420
1231.766, 800.3696
1232.249, 791.9608
1232.731, 791.2937
1233.213, 805.8187
1233.695, 814.8976
1234.177, 811.4879
1234.659, 808.9117
1235.141, 816.0093
1235.623, 825.5483
1236.106, 827.1865
1236.588, 821.8352
1237.070, 813.8373
1237.552, 802.9090
1238.034, 803.6445
1238.516, 816.7416
1238.998, 821.2195
1239.480, 810.7793
1239.963, 797.7261
1240.445, 791.2725
1240.927, 787.7660
1241.409, 779.8035
1241.891, 772.3994
1242.373, 778.0202
1242.855, 790.2189
1243.337, 796.3821
1243.819, 795.5048
1244.302, 790.3863
1244.784, 782.0738
1245.266, 776.4355
1245.748, 778.4331
1246.230, 781.8747
1246.712, 785.5734
1247.194, 787.4323
1247.676, 784.8673
1248.158, 780.1377
1248.641, 775.0167
1249.123, 770.2938
1249.605, 771.1009
1250.087, 784.4284
1250.569, 786.1381
1251.051, 769.4968
1251.533, 755.4543
1252.015, 748.3926
1252.498, 747.0143
1252.980, 751.7877
1253.462, 758.5607
1253.944, 760.1241
1254.426, 757.4838
1254.908, 758.1523
1255.390, 761.2557
1255.872, 756.9347
1256.354, 745.5436
1256.837, 737.8960
1257.319, 737.3472
1257.801, 738.8134
1258.283, 738.8071
1258.765, 738.0629
1259.247, 737.1573
1259.729, 736.2281
1260.211, 734.3567
1260.693, 733.2546
1261.176, 738.3268
1261.658, 746.2114
1262.140, 744.5441
1262.622, 729.1264
1263.104, 719.3181
1263.586, 727.4047
1264.068, 732.8378
1264.550, 726.9226
1265.033, 720.6759
1265.515, 720.7241
1265.997, 722.6877
1266.479, 722.1187
1266.961, 719.2480
1267.443, 714.1964
1267.925, 705.3688
1268.407, 706.1049
1268.890, 718.3174
1269.372, 718.6080
1269.854, 701.2678
1270.336, 689.2629
1270.818, 695.9612
1271.300, 707.4276
1271.782, 706.6832
1272.264, 698.8936
1272.746, 691.6918
1273.229, 686.3293
1273.711, 688.6175
1274.193, 693.9340
1274.675, 688.2057
1275.157, 671.3979
1275.639, 660.5780
1276.121, 664.2078
1276.603, 670.9678
1277.085, 680.6584
1277.568, 685.4942
1278.050, 674.2386
1278.532, 663.5473
1279.014, 671.7456
1279.496, 688.4421
1279.978, 691.9776
1280.460, 682.5444
1280.942, 675.8455
1281.425, 671.8301
1281.907, 671.4000
1282.389, 675.7796
1282.871, 678.1458
1283.353, 676.7719
1283.835, 667.3373
1284.317, 644.5376
1284.799, 622.1691
1285.281, 626.8061
1285.764, 647.8044
##END=



