##NAMES=Jadeite
##RRUFFID=R050220
##IDEAL CHEMISTRY=NaAlSi_2_O_6_
##LOCALITY=Clear Creek, San Benito County, California, USA
##OWNER=RRUFF
##SOURCE=Hatt Yoder
##DESCRIPTION=Aggregate of colorless bladed crystals
##STATUS=The identification of this mineral has been confirmed by X-ray diffraction and chemical analysis
##URL=rruff.info/R050220
##MEASURED CHEMISTRY=Na_1.00_Al_1.00_(Si_0.99_Al_0.01_)_2_O_6_
92.29974, 0.0000000E+00
92.78186, 0.0000000E+00
93.26398, 0.0000000E+00
93.74609, 7.637737
94.22821, 7.367481
94.71033, 7.535837
95.19244, 8.052639
95.67456, 8.553539
96.15668, 8.799666
96.63879, 8.886312
97.12091, 9.174097
97.60303, 9.695658
98.08514, 10.35217
98.56726, 10.96562
99.04938, 11.53274
99.53149, 12.19320
100.0136, 13.05345
100.4957, 14.11424
100.9778, 15.15551
101.4600, 16.14258
101.9421, 17.10796
102.4242, 18.08834
102.9063, 19.05509
103.3884, 20.12882
103.8705, 21.41128
104.3527, 23.01532
104.8348, 24.54373
105.3169, 25.99686
105.7990, 27.35672
106.2811, 28.54557
106.7632, 29.40615
107.2454, 30.23867
107.7275, 31.30591
108.2096, 32.98030
108.6917, 34.38649
109.1738, 35.24267
109.6559, 35.40179
110.1381, 36.02518
110.6202, 37.46495
111.1023, 39.24643
111.5844, 40.87164
112.0665, 42.30847
112.5486, 43.62997
113.0308, 44.74504
113.5129, 45.44975
113.9950, 46.64782
114.4771, 48.74453
114.9592, 51.35332
115.4413, 53.91950
115.9235, 56.41835
116.4056, 58.75824
116.8877, 60.87349
117.3698, 62.81477
117.8519, 64.49454
118.3340, 65.74104
118.8162, 66.68881
119.2983, 67.66395
119.7804, 68.94650
120.2625, 70.25056
120.7446, 71.28819
121.2267, 71.64815
121.7089, 72.23242
122.1910, 73.69393
122.6731, 75.90585
123.1552, 78.30091
123.6373, 80.83043
124.1194, 83.25417
124.6016, 85.28295
125.0837, 86.40272
125.5658, 87.38577
126.0479, 89.06887
126.5300, 91.42223
127.0121, 93.94471
127.4943, 96.24715
127.9764, 98.39726
128.4585, 100.6190
128.9406, 103.1262
129.4227, 105.6973
129.9048, 107.8727
130.3869, 109.6284
130.8691, 111.2258
131.3512, 113.0570
131.8333, 115.0445
132.3154, 116.7337
132.7975, 117.5777
133.2796, 117.8599
133.7618, 118.8107
134.2439, 120.2409
134.7260, 121.5940
135.2081, 122.9260
135.6902, 124.5284
136.1723, 126.1643
136.6545, 127.6893
137.1366, 129.1007
137.6187, 130.6410
138.1008, 132.2926
138.5829, 134.1228
139.0650, 136.2390
139.5472, 138.5779
140.0293, 141.4408
140.5114, 144.9439
140.9935, 149.0631
141.4756, 153.9518
141.9577, 159.4118
142.4399, 165.7471
142.9220, 174.2576
143.4041, 186.0794
143.8862, 198.1219
144.3683, 209.4496
144.8504, 222.5152
145.3326, 228.9714
145.8147, 227.1293
146.2968, 217.6548
146.7789, 205.5092
147.2610, 188.4020
147.7431, 170.8203
148.2253, 155.6073
148.7074, 142.7868
149.1895, 132.3725
149.6716, 124.9191
150.1537, 120.4308
150.6358, 116.6309
151.1180, 113.6230
151.6001, 111.2484
152.0822, 109.4151
152.5643, 108.6999
153.0464, 107.9043
153.5285, 106.6489
154.0107, 104.8000
154.4928, 103.6741
154.9749, 103.9677
155.4570, 104.7524
155.9391, 105.1055
156.4212, 104.5981
156.9034, 103.9565
157.3855, 103.3128
157.8676, 102.6472
158.3497, 102.1740
158.8318, 102.0221
159.3139, 102.0553
159.7961, 102.0989
160.2782, 102.1323
160.7603, 102.1469
161.2424, 102.0830
161.7245, 101.8585
162.2066, 101.8485
162.6888, 102.3517
163.1709, 103.1280
163.6530, 103.7887
164.1351, 104.2261
164.6172, 104.4828
165.0993, 104.5768
165.5815, 104.5006
166.0636, 104.2935
166.5457, 103.8732
167.0278, 103.3339
167.5099, 102.8718
167.9920, 102.3542
168.4742, 102.0738
168.9563, 102.3830
169.4384, 103.6394
169.9205, 104.7976
170.4026, 105.0726
170.8847, 104.6810
171.3669, 104.1954
171.8490, 103.7075
172.3311, 103.3809
172.8132, 103.4213
173.2953, 103.9789
173.7774, 104.7150
174.2596, 105.4527
174.7417, 106.1554
175.2238, 106.6706
175.7059, 106.7790
176.1880, 106.6651
176.6701, 106.5246
177.1523, 106.2056
177.6344, 106.1617
178.1165, 107.2262
178.5986, 109.2210
179.0807, 111.0145
179.5628, 111.4479
180.0450, 111.1450
180.5271, 111.3476
181.0092, 112.3943
181.4913, 114.0395
181.9734, 115.8108
182.4555, 117.7407
182.9377, 120.2466
183.4198, 123.5933
183.9019, 127.7986
184.3840, 132.9264
184.8661, 139.4859
185.3482, 146.6152
185.8304, 152.9236
186.3125, 158.3813
186.7946, 163.2355
187.2767, 167.4267
187.7588, 171.1269
188.2409, 174.9348
188.7231, 179.1198
189.2052, 183.5034
189.6873, 187.5388
190.1694, 191.2191
190.6515, 195.0628
191.1336, 199.5254
191.6158, 204.5894
192.0979, 210.1692
192.5800, 216.6666
193.0621, 223.6144
193.5442, 229.4101
194.0263, 234.0411
194.5085, 237.9482
194.9906, 240.9326
195.4727, 243.0605
195.9548, 246.5285
196.4369, 251.9225
196.9190, 259.1331
197.4012, 267.4327
197.8833, 276.5870
198.3654, 287.6498
198.8475, 300.8829
199.3296, 316.2142
199.8117, 335.6846
200.2939, 359.4069
200.7760, 387.4532
201.2581, 422.2532
201.7402, 464.3320
202.2223, 511.2532
202.7044, 565.3329
203.1866, 628.9099
203.6687, 678.7928
204.1508, 711.5664
204.6329, 726.5887
205.1150, 708.9742
205.5971, 651.4365
206.0793, 577.1506
206.5614, 510.5701
207.0435, 452.6674
207.5256, 400.5610
208.0077, 353.7671
208.4898, 312.2622
208.9720, 275.1887
209.4541, 242.1350
209.9362, 214.1934
210.4183, 193.1483
210.9004, 180.1370
211.3825, 170.5291
211.8647, 163.5816
212.3468, 159.3271
212.8289, 155.5816
213.3110, 152.3372
213.7931, 149.6032
214.2752, 147.4244
214.7574, 145.7863
215.2395, 144.7043
215.7216, 144.2623
216.2037, 144.4838
216.6858, 144.7562
217.1679, 145.0299
217.6500, 145.4207
218.1322, 145.9402
218.6143, 146.2973
219.0964, 147.5313
219.5785, 149.8865
220.0606, 153.3900
220.5427, 157.7253
221.0249, 163.0777
221.5070, 169.0042
221.9891, 174.9713
222.4712, 181.1494
222.9533, 187.2668
223.4354, 194.2493
223.9176, 202.5969
224.3997, 204.4421
224.8818, 198.0589
225.3639, 187.1077
225.8460, 174.7836
226.3281, 159.5712
226.8103, 146.3556
227.2924, 136.5690
227.7745, 130.1767
228.2566, 125.2314
228.7387, 122.0360
229.2208, 119.9598
229.7030, 118.4622
230.1851, 117.7477
230.6672, 117.1781
231.1493, 116.6248
231.6314, 116.0830
232.1135, 115.6882
232.5957, 115.4728
233.0778, 115.3688
233.5599, 115.3078
234.0420, 115.2556
234.5241, 115.3162
235.0062, 115.5374
235.4884, 115.9179
235.9705, 116.2615
236.4526, 116.4738
236.9347, 116.7522
237.4168, 117.2740
237.8989, 118.0565
238.3811, 119.0557
238.8632, 120.3641
239.3453, 121.9800
239.8274, 123.3163
240.3095, 124.4150
240.7916, 125.2014
241.2738, 125.5602
241.7559, 125.2215
242.2380, 124.9876
242.7201, 124.9460
243.2022, 125.1005
243.6843, 125.4958
244.1665, 126.2063
244.6486, 127.0760
245.1307, 128.0124
245.6128, 129.1167
246.0949, 130.0649
246.5770, 130.6531
247.0592, 130.9695
247.5413, 131.8993
248.0234, 133.6908
248.5055, 135.7734
248.9876, 137.7067
249.4697, 139.3233
249.9519, 141.1709
250.4340, 143.2460
250.9161, 145.5793
251.3982, 148.3891
251.8803, 151.7144
252.3624, 155.4238
252.8446, 159.3510
253.3267, 163.3596
253.8088, 168.0291
254.2909, 173.8298
254.7730, 180.3491
255.2551, 185.9227
255.7373, 191.0335
256.2194, 194.4204
256.7015, 195.4466
257.1836, 194.2691
257.6657, 190.2138
258.1478, 182.3267
258.6299, 171.7958
259.1121, 161.8022
259.5942, 151.8812
260.0763, 143.2800
260.5584, 136.4615
261.0405, 131.7146
261.5226, 128.1200
262.0048, 125.9732
262.4869, 124.8113
262.9690, 123.4432
263.4511, 121.6577
263.9332, 120.1410
264.4153, 119.1875
264.8975, 118.8411
265.3796, 118.9115
265.8617, 119.5978
266.3438, 120.5280
266.8259, 120.9936
267.3080, 120.8522
267.7902, 120.6145
268.2723, 120.4535
268.7544, 120.3641
269.2365, 120.3645
269.7186, 120.4384
270.2007, 120.6229
270.6829, 120.9456
271.1650, 121.3689
271.6471, 122.0712
272.1292, 123.1952
272.6113, 124.7549
273.0934, 126.1054
273.5756, 127.2050
274.0577, 128.1487
274.5398, 128.9704
275.0219, 129.5780
275.5040, 130.5254
275.9861, 132.1280
276.4683, 134.3055
276.9504, 135.9242
277.4325, 136.8305
277.9146, 137.5772
278.3967, 138.8353
278.8788, 140.6754
279.3610, 142.2745
279.8431, 143.3147
280.3252, 143.9361
280.8073, 144.8792
281.2894, 146.1413
281.7715, 147.7366
282.2537, 149.8792
282.7358, 152.5887
283.2179, 154.8376
283.7000, 156.1705
284.1821, 157.0773
284.6642, 159.1451
285.1464, 162.4722
285.6285, 166.1350
286.1106, 169.3538
286.5927, 172.1864
287.0748, 175.5090
287.5569, 179.5705
288.0391, 184.0392
288.5212, 188.1108
289.0033, 191.7994
289.4854, 195.4543
289.9675, 199.4619
290.4496, 203.7170
290.9318, 207.5574
291.4139, 211.0361
291.8960, 213.8912
292.3781, 215.7035
292.8602, 216.4966
293.3423, 216.3404
293.8245, 215.1774
294.3066, 213.0943
294.7887, 210.3159
295.2708, 206.8576
295.7529, 202.8135
296.2350, 197.8425
296.7172, 192.2170
297.1993, 187.1490
297.6814, 183.2483
298.1635, 180.2266
298.6456, 177.6283
299.1277, 175.4508
299.6099, 173.4540
300.0920, 171.3850
300.5741, 169.3189
301.0562, 167.5315
301.5383, 165.9447
302.0204, 164.7702
302.5026, 164.4762
302.9847, 165.0339
303.4668, 165.8526
303.9489, 166.4463
304.4310, 166.9694
304.9131, 167.7181
305.3953, 168.7641
305.8774, 170.0801
306.3595, 171.5196
306.8416, 173.1319
307.3237, 175.2369
307.8058, 178.3685
308.2880, 181.9821
308.7701, 185.4581
309.2522, 188.8188
309.7343, 191.7866
310.2164, 194.5544
310.6985, 196.8538
311.1807, 197.8328
311.6628, 196.7946
312.1449, 194.3692
312.6270, 190.9814
313.1091, 186.5063
313.5912, 181.7119
314.0734, 176.5658
314.5555, 171.4116
315.0376, 166.8309
315.5197, 162.9255
316.0018, 159.7502
316.4839, 157.6040
316.9661, 156.5970
317.4482, 155.7120
317.9303, 154.2660
318.4124, 152.7842
318.8945, 151.8660
319.3766, 152.1749
319.8588, 152.6736
320.3409, 152.8881
320.8230, 152.8164
321.3051, 153.0129
321.7872, 153.6575
322.2693, 154.6279
322.7515, 155.8277
323.2336, 157.0986
323.7157, 158.7488
324.1978, 161.1122
324.6799, 164.0184
325.1620, 166.6019
325.6442, 168.2129
326.1263, 169.8357
326.6084, 172.0013
327.0905, 175.6489
327.5726, 178.6026
328.0547, 180.7900
328.5369, 182.1828
329.0190, 182.7733
329.5011, 182.8423
329.9832, 181.8569
330.4653, 179.5611
330.9474, 175.6009
331.4296, 171.2178
331.9117, 165.9165
332.3938, 160.4074
332.8759, 155.7052
333.3580, 152.1432
333.8401, 148.8163
334.3223, 145.5100
334.8044, 142.1780
335.2865, 139.1445
335.7686, 136.2068
336.2507, 133.8246
336.7328, 132.6402
337.2150, 133.1834
337.6971, 133.4708
338.1792, 133.1141
338.6613, 132.2154
339.1434, 131.2988
339.6255, 130.2018
340.1076, 129.4642
340.5898, 129.6271
341.0719, 130.8481
341.5540, 131.7371
342.0361, 132.0555
342.5182, 132.0638
343.0003, 132.4198
343.4825, 133.1755
343.9646, 133.8714
344.4467, 134.2195
344.9288, 134.2416
345.4109, 134.2089
345.8930, 134.0544
346.3752, 134.0773
346.8573, 134.7678
347.3394, 136.0945
347.8215, 137.5843
348.3036, 139.0505
348.7857, 140.5395
349.2679, 142.2726
349.7500, 144.2600
350.2321, 146.1662
350.7142, 147.4399
351.1963, 148.3235
351.6784, 149.5238
352.1606, 151.1671
352.6427, 153.3022
353.1248, 156.0723
353.6069, 159.4660
354.0890, 163.2561
354.5711, 167.1645
355.0533, 171.3959
355.5354, 176.2781
356.0175, 181.8392
356.4996, 188.1156
356.9817, 195.6805
357.4638, 204.0769
357.9460, 212.2115
358.4281, 219.3961
358.9102, 226.1972
359.3923, 232.7369
359.8744, 238.9364
360.3565, 245.8262
360.8387, 254.2746
361.3208, 263.6031
361.8029, 272.9321
362.2850, 281.7757
362.7671, 290.7125
363.2492, 299.8568
363.7314, 309.2377
364.2135, 319.1947
364.6956, 329.3333
365.1777, 340.2771
365.6598, 352.4455
366.1419, 366.5387
366.6241, 381.1526
367.1062, 395.0461
367.5883, 409.0870
368.0704, 425.6869
368.5525, 445.6705
369.0346, 467.7970
369.5168, 491.8756
369.9989, 518.5573
370.4810, 545.9083
370.9631, 574.4725
371.4452, 603.6453
371.9273, 632.9086
372.4095, 663.7484
372.8916, 692.2089
373.3737, 718.7391
373.8558, 743.6004
374.3379, 760.5739
374.8200, 770.4708
375.3022, 771.6516
375.7843, 762.3798
376.2664, 741.4531
376.7485, 713.2001
377.2306, 676.5730
377.7127, 633.7676
378.1949, 591.5760
378.6770, 549.9316
379.1591, 510.5840
379.6412, 474.5844
380.1233, 441.6212
380.6054, 413.4423
381.0876, 390.4010
381.5697, 371.4785
382.0518, 355.4998
382.5339, 342.5148
383.0160, 331.0655
383.4981, 320.7401
383.9803, 311.5584
384.4624, 304.2826
384.9445, 298.9625
385.4266, 294.0917
385.9087, 288.3406
386.3908, 281.9556
386.8730, 275.6043
387.3551, 269.6473
387.8372, 263.3917
388.3193, 255.7552
388.8014, 246.9740
389.2835, 238.0110
389.7657, 228.9369
390.2478, 220.2094
390.7299, 212.5191
391.2120, 206.0766
391.6941, 200.1749
392.1762, 194.3860
392.6584, 188.8922
393.1405, 183.8802
393.6226, 179.2859
394.1047, 175.3114
394.5868, 172.3617
395.0689, 170.4037
395.5511, 168.3659
396.0332, 165.5403
396.5153, 162.6592
396.9974, 160.2799
397.4795, 158.5783
397.9616, 157.3121
398.4438, 156.6713
398.9259, 156.4718
399.4080, 156.1362
399.8901, 155.1213
400.3722, 154.3925
400.8543, 154.3702
401.3365, 155.3592
401.8186, 156.1587
402.3007, 156.6938
402.7828, 157.0838
403.2649, 157.4802
403.7470, 157.9386
404.2292, 158.2841
404.7113, 158.3944
405.1934, 158.3127
405.6755, 158.5673
406.1576, 159.2429
406.6397, 160.0605
407.1219, 160.7594
407.6040, 161.2859
408.0861, 162.1915
408.5682, 163.6226
409.0503, 165.3339
409.5324, 166.8801
410.0146, 168.2560
410.4967, 169.7452
410.9788, 171.5035
411.4609, 173.4839
411.9430, 175.5082
412.4251, 177.5717
412.9073, 179.8457
413.3894, 182.7866
413.8715, 186.1578
414.3536, 189.1845
414.8357, 191.4845
415.3178, 193.5595
415.8000, 196.1300
416.2821, 199.0862
416.7642, 201.8085
417.2463, 203.5724
417.7284, 205.0780
418.2105, 207.2148
418.6927, 210.3985
419.1748, 213.1076
419.6569, 214.1373
420.1390, 214.1833
420.6211, 214.2928
421.1032, 214.5886
421.5854, 215.2788
422.0675, 216.6099
422.5496, 218.5667
423.0317, 220.4456
423.5138, 222.0062
423.9959, 223.4767
424.4781, 225.0177
424.9602, 225.9362
425.4423, 227.8091
425.9244, 231.1407
426.4065, 235.4813
426.8886, 239.8547
427.3708, 244.3788
427.8529, 248.8466
428.3350, 253.1196
428.8171, 257.1095
429.2992, 261.6029
429.7813, 266.9222
430.2635, 272.3018
430.7456, 277.1549
431.2277, 281.5355
431.7098, 285.0667
432.1919, 287.7614
432.6740, 289.5185
433.1562, 289.9384
433.6383, 288.9676
434.1204, 287.0862
434.6025, 284.9290
435.0846, 282.2452
435.5667, 277.2044
436.0489, 269.3922
436.5310, 260.5477
437.0131, 252.8145
437.4952, 245.8689
437.9773, 238.7025
438.4594, 230.7039
438.9415, 222.4865
439.4236, 214.7720
439.9058, 207.5251
440.3879, 200.7528
440.8700, 194.2553
441.3521, 188.2471
441.8342, 182.9998
442.3163, 178.6615
442.7985, 174.7826
443.2806, 171.2059
443.7627, 167.9121
444.2448, 164.7932
444.7269, 161.5539
445.2090, 158.7650
445.6912, 156.9075
446.1733, 155.9877
446.6554, 154.7305
447.1375, 152.4029
447.6196, 149.9908
448.1017, 148.1108
448.5839, 147.1649
449.0660, 146.2996
449.5481, 145.6744
450.0302, 145.0982
450.5123, 144.1108
450.9944, 142.3898
451.4766, 140.8599
451.9587, 139.8738
452.4408, 139.4568
452.9229, 138.8681
453.4050, 138.0272
453.8871, 137.1858
454.3693, 136.5379
454.8514, 136.0819
455.3335, 135.8759
455.8156, 136.0289
456.2977, 136.2842
456.7798, 136.0354
457.2620, 135.3195
457.7441, 134.6685
458.2262, 134.3031
458.7083, 134.2135
459.1904, 134.5852
459.6725, 135.4541
460.1547, 136.0103
460.6368, 135.2932
461.1189, 133.8428
461.6010, 132.4993
462.0831, 131.3271
462.5652, 130.5962
463.0474, 130.6711
463.5295, 131.3781
464.0116, 132.2320
464.4937, 133.3939
464.9758, 134.3377
465.4579, 134.6917
465.9401, 134.3371
466.4222, 133.8856
466.9043, 133.2956
467.3864, 132.7691
467.8685, 132.4966
468.3506, 132.9198
468.8328, 133.0915
469.3149, 132.7988
469.7970, 132.1739
470.2791, 131.7026
470.7612, 131.4085
471.2433, 131.2397
471.7255, 131.1741
472.2076, 131.2094
472.6897, 131.4003
473.1718, 131.8207
473.6539, 132.2574
474.1360, 132.4445
474.6182, 132.3712
475.1003, 132.2819
475.5824, 132.2350
476.0645, 132.1983
476.5466, 132.0535
477.0287, 131.8132
477.5109, 131.6593
477.9930, 131.6768
478.4751, 131.8635
478.9572, 132.3255
479.4393, 133.1035
479.9214, 133.7414
480.4036, 133.7364
480.8857, 133.3536
481.3678, 132.9698
481.8499, 132.5104
482.3320, 132.3186
482.8141, 132.8320
483.2963, 133.8265
483.7784, 134.5975
484.2605, 134.8638
484.7426, 134.8480
485.2247, 134.5658
485.7068, 133.9054
486.1890, 133.4950
486.6711, 133.7081
487.1532, 134.0571
487.6353, 134.0648
488.1174, 133.2421
488.5995, 132.8708
489.0817, 133.2791
489.5638, 134.1989
490.0459, 134.7342
490.5280, 134.7579
491.0101, 134.7083
491.4922, 134.8003
491.9744, 135.0370
492.4565, 135.0550
492.9386, 134.8089
493.4207, 134.5212
493.9028, 134.3952
494.3849, 134.4262
494.8671, 134.6249
495.3492, 135.0559
495.8313, 135.5480
496.3134, 135.7745
496.7955, 135.8182
497.2776, 135.9959
497.7598, 136.7090
498.2419, 137.5176
498.7240, 137.9128
499.2061, 137.8776
499.6882, 137.7869
500.1703, 137.8239
500.6525, 137.9333
501.1346, 138.0524
501.6167, 138.0543
502.0988, 138.2379
502.5809, 138.7985
503.0630, 139.5894
503.5452, 140.2991
504.0273, 140.3536
504.5094, 140.8681
504.9915, 142.2761
505.4736, 144.6077
505.9557, 146.6315
506.4379, 148.2466
506.9200, 149.6622
507.4021, 150.9634
507.8842, 152.1018
508.3663, 153.4583
508.8484, 155.1313
509.3306, 156.9268
509.8127, 158.4540
510.2948, 159.7183
510.7769, 161.1626
511.2590, 162.9371
511.7411, 165.0111
512.2233, 167.4948
512.7054, 170.3392
513.1875, 172.8503
513.6696, 173.8825
514.1517, 174.5136
514.6339, 176.4444
515.1160, 180.1694
515.5981, 183.9642
516.0802, 186.0676
516.5623, 187.7183
517.0444, 190.5736
517.5266, 196.4855
518.0087, 202.3644
518.4908, 206.8292
518.9729, 210.2388
519.4550, 214.2971
519.9371, 219.7127
520.4193, 225.4234
520.9014, 231.0393
521.3835, 236.6511
521.8656, 241.8831
522.3477, 246.7063
522.8298, 251.1809
523.3120, 255.7191
523.7941, 260.7245
524.2762, 263.5880
524.7583, 263.8314
525.2404, 261.8529
525.7225, 258.6198
526.2047, 254.1280
526.6868, 247.9229
527.1689, 239.0234
527.6510, 228.3653
528.1331, 218.0645
528.6152, 208.0421
529.0974, 198.6094
529.5795, 189.4422
530.0616, 181.0586
530.5437, 174.4183
531.0258, 169.9050
531.5079, 166.3174
531.9901, 163.2681
532.4722, 160.4741
532.9543, 157.5410
533.4364, 153.6387
533.9185, 150.2541
534.4006, 147.9147
534.8828, 146.5807
535.3649, 145.5623
535.8470, 145.1109
536.3291, 144.6789
536.8112, 143.9897
537.2933, 142.8683
537.7755, 142.2277
538.2576, 142.2908
538.7397, 142.5274
539.2218, 142.3582
539.7039, 141.7623
540.1860, 140.9390
540.6682, 139.7582
541.1503, 138.6102
541.6324, 138.5108
542.1145, 139.3507
542.5966, 140.0281
543.0787, 139.7613
543.5609, 139.0518
544.0430, 138.7562
544.5251, 138.8622
545.0072, 138.9439
545.4893, 138.6389
545.9714, 138.1871
546.4536, 137.7978
546.9357, 137.4384
547.4178, 137.3447
547.8999, 137.7994
548.3820, 138.5231
548.8641, 139.1306
549.3463, 139.4568
549.8284, 139.7592
550.3105, 140.0522
550.7926, 140.3522
551.2747, 140.7317
551.7568, 141.1660
552.2390, 141.7299
552.7211, 142.4915
553.2032, 143.4723
553.6853, 144.3593
554.1674, 145.1134
554.6495, 145.8955
555.1317, 146.9577
555.6138, 148.2304
556.0959, 149.2381
556.5780, 149.7459
557.0601, 150.3477
557.5422, 152.0468
558.0244, 154.5377
558.5065, 156.9362
558.9886, 158.5527
559.4707, 160.0831
559.9528, 162.1499
560.4349, 164.6818
560.9171, 167.1674
561.3992, 168.9655
561.8813, 170.9498
562.3634, 173.8537
562.8455, 178.3451
563.3276, 181.9038
563.8098, 183.5527
564.2919, 184.5244
564.7740, 185.8542
565.2561, 187.3967
565.7382, 189.6154
566.2203, 192.6893
566.7025, 196.4250
567.1846, 200.1781
567.6667, 203.9307
568.1488, 208.0816
568.6309, 212.7214
569.1130, 217.8880
569.5952, 223.6565
570.0773, 230.0962
570.5594, 236.6524
571.0415, 243.0888
571.5236, 249.4869
572.0057, 255.9909
572.4879, 262.7558
572.9700, 269.1470
573.4521, 275.1584
573.9342, 280.4082
574.4163, 284.3498
574.8984, 287.2632
575.3806, 288.3401
575.8627, 287.7177
576.3448, 285.1125
576.8269, 279.7407
577.3090, 269.6720
577.7911, 258.9729
578.2733, 248.3846
578.7554, 238.0324
579.2375, 227.4532
579.7196, 216.2033
580.2017, 205.8369
580.6838, 197.6038
581.1660, 191.5098
581.6481, 186.3370
582.1302, 182.1376
582.6123, 178.4949
583.0944, 175.0374
583.5765, 171.7837
584.0587, 168.7169
584.5408, 165.6757
585.0229, 163.1492
585.5050, 161.8907
585.9871, 161.5375
586.4692, 161.2218
586.9513, 160.3852
587.4334, 159.6400
587.9155, 159.5154
588.3976, 159.9639
588.8798, 159.9223
589.3619, 158.7377
589.8440, 157.3817
590.3261, 156.3878
590.8082, 156.0152
591.2903, 155.1052
591.7725, 153.4437
592.2546, 151.5277
592.7367, 149.8665
593.2188, 148.4783
593.7009, 147.1490
594.1830, 145.8440
594.6652, 144.5767
595.1473, 143.1609
595.6294, 141.6949
596.1115, 140.6935
596.5936, 140.7336
597.0757, 141.1209
597.5579, 141.0311
598.0400, 140.5229
598.5221, 139.8799
599.0042, 138.9751
599.4863, 138.1982
599.9684, 137.8682
600.4506, 138.0907
600.9327, 138.3101
601.4148, 138.4872
601.8969, 138.5591
602.3790, 138.4722
602.8611, 138.0832
603.3433, 137.8138
603.8254, 137.7470
604.3075, 137.7368
604.7896, 137.4984
605.2717, 136.9769
605.7538, 136.6321
606.2360, 136.6322
606.7181, 136.8403
607.2002, 136.9930
607.6823, 137.0848
608.1644, 137.0705
608.6465, 136.8869
609.1287, 136.6007
609.6108, 136.2980
610.0929, 135.9807
610.5750, 135.6250
611.0571, 134.9441
611.5392, 134.3917
612.0214, 134.3756
612.5035, 135.1595
612.9856, 135.8982
613.4677, 136.5609
613.9498, 137.0366
614.4319, 137.2195
614.9141, 136.9775
615.3962, 136.7026
615.8783, 136.4289
616.3604, 136.1453
616.8425, 135.7269
617.3246, 135.1207
617.8068, 134.9505
618.2889, 135.7009
618.7710, 136.8902
619.2531, 137.2172
619.7352, 136.7705
620.2173, 136.2765
620.6995, 136.2993
621.1816, 136.4810
621.6637, 136.3504
622.1458, 135.8699
622.6279, 135.4892
623.1100, 135.6446
623.5922, 135.8709
624.0743, 135.7875
624.5564, 135.1640
625.0385, 134.5556
625.5206, 133.8625
626.0027, 133.3038
626.4849, 133.1680
626.9670, 133.6197
627.4491, 134.0760
627.9312, 134.4671
628.4133, 134.8010
628.8954, 135.1048
629.3776, 135.3778
629.8597, 135.5760
630.3418, 135.7231
630.8239, 135.7626
631.3060, 135.4783
631.7881, 134.9274
632.2703, 134.4781
632.7524, 134.2728
633.2345, 134.3344
633.7166, 134.8559
634.1987, 135.8989
634.6808, 136.5685
635.1630, 136.2684
635.6451, 135.6541
636.1272, 135.1828
636.6093, 134.8506
637.0914, 134.7588
637.5735, 135.0099
638.0557, 135.4108
638.5378, 135.7610
639.0199, 136.0905
639.5020, 136.1591
639.9841, 135.7978
640.4662, 135.3417
640.9484, 135.6207
641.4305, 136.4999
641.9126, 137.1080
642.3947, 136.8553
642.8768, 136.2780
643.3589, 135.7552
643.8411, 135.3925
644.3232, 135.6625
644.8053, 137.7354
645.2874, 139.7593
645.7695, 140.5200
646.2516, 139.7894
646.7338, 139.2178
647.2159, 139.0524
647.6980, 139.1098
648.1801, 139.3281
648.6622, 139.7943
649.1443, 140.1785
649.6265, 140.5198
650.1086, 140.7055
650.5907, 140.4586
651.0728, 139.8237
651.5549, 139.5398
652.0370, 139.8156
652.5192, 140.2840
653.0013, 140.3639
653.4834, 140.2402
653.9655, 140.3445
654.4476, 141.0560
654.9297, 141.8530
655.4119, 142.5041
655.8940, 142.9921
656.3761, 143.2746
656.8582, 142.9456
657.3403, 142.8024
657.8224, 143.2214
658.3046, 144.1626
658.7867, 144.9087
659.2688, 145.4325
659.7509, 145.8107
660.2330, 146.0406
660.7151, 146.1216
661.1973, 146.2450
661.6794, 146.3995
662.1615, 146.6777
662.6436, 147.1974
663.1257, 147.9014
663.6078, 148.7011
664.0900, 149.6185
664.5721, 150.4580
665.0542, 150.9552
665.5363, 151.3416
666.0184, 151.9052
666.5005, 152.9482
666.9827, 153.8814
667.4648, 154.4292
667.9469, 154.8078
668.4290, 155.4053
668.9111, 156.2158
669.3932, 157.2762
669.8754, 158.6600
670.3575, 160.2556
670.8396, 161.6655
671.3217, 162.8737
671.8038, 164.1140
672.2859, 165.4622
672.7681, 166.9248
673.2502, 168.6093
673.7323, 170.4979
674.2144, 172.4673
674.6965, 174.4897
675.1786, 176.5007
675.6608, 178.3265
676.1429, 179.9192
676.6250, 181.9127
677.1071, 184.7104
677.5892, 187.8552
678.0714, 191.0050
678.5535, 194.0398
679.0356, 197.4059
679.5177, 201.0113
679.9998, 205.0548
680.4819, 209.4503
680.9641, 214.2296
681.4462, 220.3068
681.9283, 227.9608
682.4104, 236.5793
682.8925, 245.2585
683.3746, 254.2247
683.8568, 263.5970
684.3389, 273.2567
684.8210, 283.8555
685.3031, 296.4132
685.7852, 310.3235
686.2673, 324.3317
686.7495, 337.6692
687.2316, 351.6742
687.7137, 367.0428
688.1958, 383.4735
688.6779, 399.6482
689.1600, 415.1406
689.6422, 431.6460
690.1243, 449.5010
690.6064, 468.9687
691.0885, 490.7661
691.5706, 515.0021
692.0527, 541.1656
692.5349, 570.2401
693.0170, 601.0548
693.4991, 631.1222
693.9812, 660.2221
694.4633, 691.9814
694.9454, 730.6106
695.4276, 771.2512
695.9097, 810.5450
696.3918, 847.9491
696.8739, 883.8792
697.3560, 920.3652
697.8381, 954.3520
698.3203, 984.1418
698.8024, 1011.074
699.2845, 1029.881
699.7666, 1040.902
700.2487, 1042.087
700.7308, 1029.990
701.2130, 1005.148
701.6951, 970.1705
702.1772, 924.2270
702.6593, 871.5462
703.1414, 814.3958
703.6235, 754.8640
704.1057, 697.4101
704.5878, 642.3532
705.0699, 591.2445
705.5520, 544.5498
706.0341, 502.1007
706.5162, 464.4992
706.9984, 432.1447
707.4805, 403.0876
707.9626, 376.6914
708.4447, 353.0343
708.9268, 332.7663
709.4089, 316.2370
709.8911, 301.6326
710.3732, 288.1202
710.8553, 275.8102
711.3374, 265.5078
711.8195, 257.1069
712.3016, 249.3218
712.7838, 241.0943
713.2659, 233.2939
713.7480, 226.6464
714.2301, 221.2047
714.7122, 216.2699
715.1943, 211.7050
715.6765, 207.4284
716.1586, 203.3906
716.6407, 199.5013
717.1228, 196.1582
717.6049, 193.5276
718.0870, 191.0508
718.5692, 188.0601
719.0513, 184.6596
719.5334, 182.0035
720.0155, 180.2612
720.4976, 178.7966
720.9797, 176.7803
721.4619, 174.6159
721.9440, 172.9831
722.4261, 172.3906
722.9082, 171.6445
723.3903, 169.9170
723.8724, 167.8164
724.3546, 166.1052
724.8367, 165.0076
725.3188, 164.1640
725.8009, 163.6494
726.2830, 163.2966
726.7651, 162.8426
727.2473, 162.2925
727.7294, 161.4811
728.2115, 160.2433
728.6936, 158.9038
729.1757, 158.1195
729.6578, 157.7730
730.1400, 157.4677
730.6221, 157.0003
731.1042, 156.5183
731.5863, 156.1719
732.0684, 155.9064
732.5505, 155.5394
733.0327, 154.9030
733.5148, 154.2887
733.9969, 153.7720
734.4790, 153.3542
734.9611, 153.0232
735.4432, 152.8048
735.9254, 152.5908
736.4075, 152.3567
736.8896, 152.0845
737.3717, 151.6135
737.8538, 150.9716
738.3359, 150.4817
738.8181, 150.6013
739.3002, 150.8373
739.7823, 150.6180
740.2644, 149.9174
740.7465, 149.2784
741.2286, 148.9520
741.7108, 148.7143
742.1929, 148.4070
742.6750, 147.9788
743.1571, 147.7692
743.6392, 147.8925
744.1213, 148.0014
744.6035, 147.7246
745.0856, 147.1066
745.5677, 146.9516
746.0498, 147.3426
746.5319, 147.7192
747.0140, 147.4375
747.4962, 146.8499
747.9783, 146.5325
748.4604, 146.6664
748.9425, 146.6589
749.4246, 145.9506
749.9067, 145.1314
750.3889, 144.7591
750.8710, 145.3511
751.3531, 145.5215
751.8352, 145.0396
752.3173, 144.4243
752.7994, 144.3288
753.2816, 144.7637
753.7637, 145.1868
754.2458, 145.5604
754.7279, 145.7755
755.2100, 145.6540
755.6921, 145.2825
756.1743, 144.7802
756.6564, 143.9298
757.1385, 143.4373
757.6206, 144.0346
758.1027, 145.1093
758.5848, 145.7592
759.0670, 145.6053
759.5491, 145.3609
760.0312, 144.9822
760.5133, 144.6162
760.9954, 144.6111
761.4775, 144.9998
761.9597, 145.2137
762.4418, 145.0276
762.9239, 144.7410
763.4060, 144.9776
763.8881, 145.5169
764.3702, 145.7735
764.8524, 144.9298
765.3345, 144.2879
765.8166, 144.8171
766.2987, 146.0761
766.7808, 146.9412
767.2629, 146.8015
767.7451, 146.8130
768.2272, 147.2310
768.7093, 147.9274
769.1914, 148.5921
769.6735, 149.2489
770.1556, 149.5650
770.6378, 149.1590
771.1199, 148.5691
771.6020, 148.9793
772.0841, 150.1360
772.5662, 151.1167
773.0483, 151.1891
773.5305, 151.1743
774.0126, 151.4760
774.4947, 152.0957
774.9768, 152.9813
775.4589, 154.4588
775.9410, 155.7740
776.4232, 156.6868
776.9053, 157.2598
777.3874, 157.7336
777.8695, 158.0876
778.3516, 158.6344
778.8337, 159.8277
779.3159, 161.1898
779.7980, 161.9226
780.2801, 162.0052
780.7622, 161.3610
781.2443, 159.1481
781.7264, 156.8983
782.2086, 155.7862
782.6907, 155.7717
783.1728, 154.9660
783.6548, 152.6709
784.1370, 150.3856
784.6191, 148.6126
785.1012, 147.3355
785.5833, 146.2837
786.0654, 145.4578
786.5475, 144.8293
787.0297, 144.5509
787.5118, 144.3889
787.9939, 143.8579
788.4760, 143.0082
788.9581, 142.3140
789.4402, 142.1996
789.9224, 142.1868
790.4045, 141.9673
790.8866, 141.5058
791.3687, 141.2292
791.8508, 141.2287
792.3329, 141.2864
792.8151, 141.3166
793.2972, 141.3205
793.7793, 141.2983
794.2614, 141.2510
794.7435, 141.1697
795.2256, 140.9933
795.7078, 140.8091
796.1899, 140.8017
796.6720, 140.9551
797.1541, 140.9682
797.6362, 140.4761
798.1183, 139.9938
798.6005, 139.8491
799.0826, 140.0708
799.5647, 140.2512
800.0468, 140.4495
800.5289, 140.4648
801.0110, 139.9274
801.4932, 139.0181
801.9753, 139.3296
802.4574, 140.8186
802.9395, 142.0139
803.4216, 141.4462
803.9037, 140.2938
804.3859, 139.7847
804.8680, 139.9951
805.3501, 140.2439
805.8322, 140.4040
806.3143, 140.4569
806.7964, 140.3288
807.2786, 140.0027
807.7607, 140.0282
808.2428, 140.4880
808.7249, 140.9979
809.2070, 141.3585
809.6891, 141.5713
810.1713, 141.6096
810.6534, 141.4818
811.1355, 141.2937
811.6176, 141.0128
812.0997, 140.7772
812.5818, 140.6588
813.0640, 140.6632
813.5461, 140.8995
814.0282, 141.8008
814.5103, 142.4416
814.9924, 142.2957
815.4745, 141.3989
815.9567, 141.0539
816.4388, 141.2929
816.9209, 141.6716
817.4030, 142.0250
817.8851, 142.2701
818.3672, 142.1326
818.8494, 141.6726
819.3315, 141.3732
819.8136, 141.5740
820.2957, 141.9414
820.7778, 142.4448
821.2599, 143.0784
821.7421, 143.0495
822.2242, 141.9214
822.7063, 141.0427
823.1884, 141.1843
823.6705, 142.0908
824.1526, 142.3846
824.6348, 142.0907
825.1169, 141.6833
825.5990, 141.3231
826.0811, 141.0926
826.5632, 141.1577
827.0453, 141.4612
827.5275, 141.6525
828.0096, 141.3138
828.4917, 141.1714
828.9738, 141.6653
829.4559, 142.6438
829.9380, 142.9514
830.4202, 142.4956
830.9023, 141.8350
831.3844, 141.0024
831.8665, 140.2691
832.3486, 140.4460
832.8307, 141.3431
833.3129, 142.1020
833.7950, 142.1857
834.2771, 142.0669
834.7592, 142.0194
835.2413, 142.0105
835.7234, 141.8273
836.2056, 141.2243
836.6877, 140.8519
837.1698, 140.9476
837.6519, 141.3543
838.1340, 141.5843
838.6161, 141.6475
839.0983, 141.7093
839.5804, 141.8511
840.0625, 142.0100
840.5446, 142.0821
841.0267, 142.1126
841.5089, 142.2109
841.9910, 142.6555
842.4731, 142.8948
842.9552, 142.5502
843.4373, 141.9597
843.9194, 141.8560
844.4016, 142.3553
844.8837, 142.8480
845.3658, 143.2416
845.8479, 143.4636
846.3300, 143.2342
846.8121, 142.7197
847.2943, 142.3958
847.7764, 142.5440
848.2585, 142.7512
848.7406, 142.7445
849.2227, 142.6525
849.7048, 142.6770
850.1870, 142.8574
850.6691, 143.1378
851.1512, 143.5954
851.6333, 144.0458
852.1154, 144.1828
852.5975, 144.0326
853.0797, 143.8415
853.5618, 143.6292
854.0439, 143.4964
854.5260, 143.5295
855.0081, 143.7101
855.4902, 144.0462
855.9724, 144.7193
856.4545, 145.1602
856.9366, 145.0626
857.4187, 144.8466
857.9008, 144.8404
858.3829, 145.0459
858.8651, 145.5535
859.3472, 146.4744
859.8293, 147.1807
860.3114, 146.7523
860.7935, 145.7368
861.2756, 145.0932
861.7578, 144.9499
862.2399, 145.1477
862.7220, 146.1846
863.2041, 147.1075
863.6862, 147.0673
864.1683, 145.8463
864.6505, 145.0161
865.1326, 144.5877
865.6147, 144.5447
866.0968, 145.0779
866.5789, 146.0084
867.0610, 146.5671
867.5432, 146.7615
868.0253, 146.8821
868.5074, 147.1371
868.9895, 147.3919
869.4716, 147.5186
869.9537, 147.5151
870.4359, 147.5712
870.9180, 147.7589
871.4001, 147.9056
871.8822, 147.8585
872.3643, 147.7201
872.8464, 148.1429
873.3286, 149.0975
873.8107, 149.9661
874.2928, 150.3410
874.7749, 150.5138
875.2570, 150.7249
875.7391, 150.9863
876.2213, 151.3292
876.7034, 152.0030
877.1855, 152.4613
877.6676, 152.4782
878.1497, 152.2449
878.6318, 152.1972
879.1140, 152.3317
879.5961, 152.7676
880.0782, 153.6385
880.5603, 154.6249
881.0424, 155.2737
881.5245, 155.6885
882.0067, 156.0666
882.4888, 156.3311
882.9709, 156.7924
883.4530, 157.7468
883.9351, 158.8672
884.4172, 159.7579
884.8994, 160.4025
885.3815, 160.8899
885.8636, 161.2547
886.3457, 161.3604
886.8278, 160.7315
887.3099, 159.7523
887.7921, 159.4644
888.2742, 160.1544
888.7563, 160.7358
889.2384, 160.3860
889.7205, 159.7572
890.2026, 159.4591
890.6848, 159.7552
891.1669, 159.3653
891.6490, 158.0354
892.1311, 156.6398
892.6132, 156.0052
893.0953, 155.8587
893.5775, 154.7448
894.0596, 152.7073
894.5417, 151.1107
895.0238, 151.1737
895.5059, 151.7046
895.9880, 151.9052
896.4702, 151.7424
896.9523, 151.5507
897.4344, 151.4755
897.9165, 151.1371
898.3986, 150.2683
898.8807, 149.1103
899.3629, 148.6284
899.8450, 148.7390
900.3271, 148.8350
900.8092, 148.6090
901.2913, 148.2821
901.7734, 147.9844
902.2556, 147.7375
902.7377, 147.5822
903.2198, 147.6111
903.7019, 147.6110
904.1840, 147.4498
904.6661, 147.3576
905.1483, 148.0211
905.6304, 149.3530
906.1125, 149.4552
906.5946, 147.6527
907.0767, 145.8957
907.5588, 146.7721
908.0410, 148.6099
908.5231, 149.2116
909.0052, 147.3193
909.4873, 146.3101
909.9694, 147.2020
910.4515, 148.4498
910.9337, 148.8934
911.4158, 148.4841
911.8979, 148.5108
912.3800, 149.0193
912.8621, 149.4245
913.3442, 149.0747
913.8264, 148.4693
914.3085, 148.2203
914.7906, 148.3397
915.2727, 148.3623
915.7548, 148.1893
916.2369, 147.8231
916.7191, 147.0871
917.2012, 146.1513
917.6833, 146.1141
918.1654, 147.0040
918.6475, 147.6481
919.1296, 147.2246
919.6118, 146.6132
920.0939, 147.2949
920.5760, 148.6773
921.0581, 149.3698
921.5402, 148.1781
922.0223, 147.1487
922.5045, 146.6516
922.9866, 146.5395
923.4687, 146.6266
923.9508, 146.9154
924.4329, 147.3820
924.9150, 148.0403
925.3972, 148.7491
925.8793, 149.5228
926.3614, 150.1692
926.8435, 150.3776
927.3256, 150.0281
927.8077, 149.5016
928.2899, 148.5941
928.7720, 147.8268
929.2541, 147.5258
929.7362, 147.7160
930.2183, 147.9593
930.7004, 148.2611
931.1826, 148.5772
931.6647, 148.8566
932.1468, 149.1452
932.6289, 149.5739
933.1110, 150.1004
933.5931, 150.4473
934.0753, 150.5816
934.5574, 150.4224
935.0395, 149.7110
935.5216, 148.7702
936.0037, 148.8000
936.4858, 149.8289
936.9680, 150.7499
937.4501, 151.2004
937.9322, 151.4264
938.4143, 151.6270
938.8964, 151.8354
939.3785, 152.1054
939.8607, 152.4417
940.3428, 152.8591
940.8249, 153.5691
941.3070, 154.1503
941.7891, 154.0950
942.2712, 153.3666
942.7534, 152.9416
943.2355, 152.8859
943.7176, 152.9768
944.1997, 153.0169
944.6818, 153.0927
945.1639, 153.3385
945.6461, 153.7686
946.1282, 154.1459
946.6103, 154.5064
947.0924, 154.6834
947.5745, 154.5014
948.0566, 154.0926
948.5388, 154.2459
949.0209, 154.9289
949.5030, 155.5222
949.9851, 155.6538
950.4672, 155.6561
950.9493, 155.8083
951.4315, 156.0813
951.9136, 156.4159
952.3957, 156.8127
952.8778, 157.2689
953.3599, 157.8602
953.8420, 158.4146
954.3242, 158.6537
954.8063, 158.6162
955.2884, 158.5778
955.7705, 158.5562
956.2526, 158.7105
956.7347, 159.2825
957.2169, 160.0229
957.6990, 160.7408
958.1811, 161.4365
958.6632, 161.9261
959.1453, 162.1288
959.6274, 162.2854
960.1096, 162.4333
960.5917, 162.6468
961.0738, 163.3721
961.5559, 164.5203
962.0380, 165.5246
962.5201, 166.0253
963.0023, 166.3470
963.4844, 166.4847
963.9665, 166.6176
964.4486, 167.2185
964.9307, 168.5422
965.4128, 169.6998
965.8950, 170.5116
966.3771, 171.2116
966.8592, 172.0346
967.3413, 173.0305
967.8234, 174.4228
968.3055, 176.3164
968.7877, 178.1964
969.2698, 179.5989
969.7519, 180.9992
970.2340, 182.7511
970.7161, 184.8895
971.1982, 187.1613
971.6804, 189.5789
972.1625, 192.1648
972.6446, 194.8502
973.1267, 197.7858
973.6088, 201.3747
974.0909, 205.4998
974.5731, 209.7106
975.0552, 213.9752
975.5373, 218.1421
976.0194, 221.9328
976.5015, 225.7478
976.9836, 230.4074
977.4658, 235.8691
977.9479, 241.8475
978.4300, 248.2786
978.9121, 255.0641
979.3942, 262.2165
979.8763, 269.6837
980.3585, 277.4407
980.8406, 285.3741
981.3226, 293.7435
981.8047, 302.8114
982.2869, 312.1442
982.7690, 321.6163
983.2511, 331.1935
983.7332, 340.5634
984.2153, 349.7613
984.6974, 358.6799
985.1796, 368.4160
985.6617, 376.9256
986.1438, 382.3661
986.6259, 385.2198
987.1080, 386.8787
987.5901, 387.3998
988.0723, 387.1083
988.5544, 385.9876
989.0365, 384.1894
989.5186, 381.6797
990.0007, 378.6752
990.4828, 376.0494
990.9650, 374.0833
991.4471, 371.5892
991.9292, 368.4410
992.4113, 364.0256
992.8934, 357.5956
993.3755, 349.1059
993.8577, 340.7220
994.3398, 332.7275
994.8219, 323.6401
995.3040, 311.9957
995.7861, 299.1891
996.2682, 286.9420
996.7504, 275.4050
997.2325, 264.6887
997.7146, 254.6231
998.1967, 245.7482
998.6788, 238.4099
999.1609, 231.9466
999.6431, 225.2184
1000.125, 218.3410
1000.607, 212.6862
1001.089, 208.5904
1001.572, 204.9004
1002.054, 200.1068
1002.536, 195.4913
1003.018, 192.4959
1003.500, 191.5448
1003.982, 190.1585
1004.464, 187.9678
1004.946, 185.7569
1005.428, 183.8242
1005.911, 182.1498
1006.393, 180.7437
1006.875, 179.5816
1007.357, 178.6615
1007.839, 178.2794
1008.321, 177.7170
1008.803, 176.1689
1009.285, 174.4223
1009.768, 173.6751
1010.250, 174.3325
1010.732, 174.3645
1011.214, 173.5515
1011.696, 172.6690
1012.178, 172.6644
1012.660, 173.0079
1013.142, 172.8240
1013.624, 172.0767
1014.107, 171.4801
1014.589, 171.0961
1015.071, 171.1829
1015.553, 172.0071
1016.035, 173.2844
1016.517, 173.9660
1016.999, 174.1173
1017.481, 174.5052
1017.964, 175.5230
1018.446, 176.5319
1018.928, 176.8027
1019.410, 176.8340
1019.892, 177.2293
1020.374, 178.0406
1020.856, 179.3477
1021.338, 181.2868
1021.820, 183.3667
1022.303, 185.1603
1022.785, 186.8011
1023.267, 188.4698
1023.749, 190.2373
1024.231, 192.4600
1024.713, 195.4780
1025.195, 198.8130
1025.677, 202.3875
1026.160, 206.1010
1026.642, 209.8288
1027.124, 213.5632
1027.606, 217.3967
1028.088, 221.3066
1028.570, 225.5649
1029.052, 230.6729
1029.534, 236.2222
1030.016, 241.7117
1030.499, 246.9442
1030.981, 253.0751
1031.463, 260.6747
1031.945, 268.2153
1032.427, 274.8329
1032.909, 280.8468
1033.391, 287.2852
1033.873, 294.2290
1034.355, 302.0782
1034.838, 311.3543
1035.320, 321.3023
1035.802, 331.7010
1036.284, 342.4965
1036.766, 353.5940
1037.248, 365.1781
1037.730, 375.9120
1038.212, 385.6885
1038.695, 394.1351
1039.177, 401.6943
1039.659, 407.1035
1040.141, 408.8185
1040.623, 406.7511
1041.105, 401.2470
1041.587, 391.2872
1042.069, 379.5134
1042.552, 366.1449
1043.034, 351.6319
1043.516, 336.6022
1043.998, 321.0775
1044.480, 305.9218
1044.962, 290.7996
1045.444, 277.0305
1045.926, 266.0469
1046.408, 256.2802
1046.891, 246.3256
1047.373, 235.9585
1047.855, 227.0923
1048.337, 219.7628
1048.819, 213.6179
1049.301, 208.9056
1049.783, 204.9304
1050.265, 200.7597
1050.747, 196.5666
1051.230, 192.7789
1051.712, 189.5752
1052.194, 186.7145
1052.676, 184.0994
1053.158, 181.8987
1053.640, 180.7153
1054.122, 180.1865
1054.604, 178.7241
1055.087, 176.1496
1055.569, 173.7788
1056.051, 172.4353
1056.533, 171.4773
1057.015, 170.5512
1057.497, 169.6822
1057.979, 169.1500
1058.461, 168.9968
1058.943, 168.6143
1059.426, 167.6485
1059.908, 166.7558
1060.390, 166.9838
1060.872, 167.6365
1061.354, 167.7504
1061.836, 166.8857
1062.318, 166.1060
1062.800, 165.4514
1063.282, 164.8873
1063.765, 164.2936
1064.247, 163.7843
1064.729, 164.0017
1065.211, 164.7200
1065.693, 164.9914
1066.175, 163.5528
1066.657, 162.5346
1067.139, 163.1798
1067.622, 164.3709
1068.104, 164.5166
1068.586, 163.5683
1069.068, 163.5442
1069.550, 164.7487
1070.032, 165.4884
1070.514, 163.3863
1070.996, 160.8743
1071.479, 160.1831
1071.961, 161.3712
1072.443, 162.2713
1072.925, 162.7658
1073.407, 163.0846
1073.889, 163.2145
1074.371, 163.3620
1074.853, 163.9066
1075.335, 164.7141
1075.818, 165.6026
1076.300, 166.6547
1076.782, 167.3185
1077.264, 167.0908
1077.746, 166.8400
1078.228, 167.0726
1078.710, 167.7038
1079.192, 168.2343
1079.674, 168.6611
1080.156, 168.9802
1080.639, 169.0597
1081.121, 169.1760
1081.603, 169.8334
1082.085, 170.4514
1082.567, 170.1238
1083.049, 168.6276
1083.531, 167.2840
1084.013, 166.1737
1084.496, 165.0193
1084.978, 163.3749
1085.460, 161.6876
1085.942, 160.5254
1086.424, 159.8203
1086.906, 159.0039
1087.388, 157.8057
1087.870, 156.8650
1088.353, 156.3714
1088.835, 156.0745
1089.317, 155.5061
1089.799, 154.8277
1090.281, 154.4862
1090.763, 154.6160
1091.245, 154.6250
1091.727, 154.1127
1092.209, 153.5746
1092.692, 153.2648
1093.174, 153.1278
1093.656, 152.8974
1094.138, 152.5813
1094.620, 152.2237
1095.102, 151.6773
1095.584, 151.4070
1096.066, 152.1509
1096.548, 153.1248
1097.031, 153.3102
1097.513, 152.3822
1097.995, 152.2815
1098.477, 153.1406
1098.959, 153.8146
1099.441, 153.2288
1099.923, 152.2205
1100.405, 151.7437
1100.888, 151.6828
1101.370, 151.6732
1101.852, 151.5779
1102.334, 151.6575
1102.816, 151.9868
1103.298, 152.3816
1103.780, 152.8149
1104.262, 153.1058
1104.745, 152.3593
1105.227, 153.0437
1105.709, 153.4106
1106.191, 153.4772
1106.673, 152.3440
1107.155, 152.7601
1107.637, 152.5553
1108.119, 152.3251
1108.601, 152.9593
1109.083, 152.0006
1109.566, 152.6209
1110.048, 152.6111
1110.530, 152.8896
1111.012, 152.5435
1111.494, 152.3904
1111.976, 152.8621
1112.458, 152.9878
1112.940, 152.5698
1113.423, 152.8667
1113.905, 151.8861
1114.387, 152.0266
1114.869, 152.6507
1115.351, 152.2641
1115.833, 152.5725
1116.315, 152.6161
1116.797, 151.4569
1117.280, 152.3896
1117.762, 152.4176
1118.244, 151.5167
1118.726, 152.3777
1119.208, 151.8318
1119.690, 152.2773
1120.172, 152.5249
1120.654, 152.3895
1121.136, 152.1956
1121.619, 151.9571
1122.101, 151.7053
1122.583, 151.3530
1123.065, 151.0268
1123.547, 151.2802
1124.029, 152.0802
1124.511, 152.6626
1124.993, 152.6224
1125.475, 152.2781
1125.958, 151.5170
1126.440, 150.7306
1126.922, 150.9846
1127.404, 152.0924
1127.886, 152.3289
1128.368, 151.2973
1128.850, 150.2852
1129.332, 150.2488
1129.815, 150.5493
1130.297, 150.7142
1130.779, 150.7891
1131.261, 151.2675
1131.743, 152.1773
1132.225, 152.7371
1132.707, 152.5634
1133.189, 152.2951
1133.672, 152.6983
1134.154, 153.2781
1134.636, 153.4534
1135.118, 153.1059
1135.600, 152.6838
1136.082, 152.1435
1136.564, 151.7393
1137.046, 151.6829
1137.528, 151.7456
1138.010, 151.3310
1138.493, 150.8510
1138.975, 151.0866
1139.457, 153.3209
1139.939, 154.3640
1140.421, 153.7973
1140.903, 152.9619
1141.385, 153.0857
1141.867, 153.6469
1142.350, 153.3411
1142.832, 152.3857
1143.314, 151.6688
1143.796, 151.6199
1144.278, 151.7735
1144.760, 152.1656
1145.242, 152.5379
1145.724, 152.4243
1146.207, 152.0292
1146.689, 152.2081
1147.171, 152.9646
1147.653, 153.5444
1148.135, 153.2870
1148.617, 153.0876
1149.099, 153.4108
1149.581, 153.8830
1150.063, 153.5710
1150.546, 152.6439
1151.028, 152.3953
1151.510, 153.0873
1151.992, 153.8287
1152.474, 154.1869
1152.956, 154.2422
1153.438, 153.9270
1153.920, 153.3628
1154.402, 153.0164
1154.885, 152.8835
1155.367, 152.7491
1155.849, 152.5400
1156.331, 152.3750
1156.813, 152.3202
1157.295, 152.3839
1157.777, 152.6204
1158.259, 153.0209
1158.742, 153.4019
1159.224, 153.7769
1159.706, 153.9141
1160.188, 153.6197
1160.670, 153.2217
1161.152, 152.8582
1161.634, 152.7008
1162.116, 153.1004
1162.599, 154.3829
1163.081, 154.9174
1163.563, 154.6081
1164.045, 154.0800
1164.527, 153.5238
1165.009, 153.1297
1165.491, 153.3943
1165.973, 153.9491
1166.455, 154.0297
1166.938, 152.8333
1167.420, 152.6083
1167.902, 153.6816
1168.384, 154.6875
1168.866, 154.2321
1169.348, 153.1359
1169.830, 152.7989
1170.312, 153.0233
1170.794, 153.0696
1171.277, 152.4078
1171.759, 152.1079
1172.241, 152.3239
1172.723, 152.7634
1173.205, 153.2391
1173.687, 153.6594
1174.169, 153.8922
1174.651, 153.9185
1175.134, 153.6873
1175.616, 152.7265
1176.098, 152.1689
1176.580, 152.3320
1177.062, 152.7561
1177.544, 152.7437
1178.026, 152.4700
1178.508, 152.3083
1178.990, 152.3061
1179.473, 152.5429
1179.955, 153.6044
1180.437, 154.1497
1180.919, 153.5811
1181.401, 152.5582
1181.883, 152.4200
1182.365, 152.9190
1182.847, 153.4498
1183.329, 153.9673
1183.812, 153.8399
1184.294, 151.6956
1184.776, 150.1390
1185.258, 150.3993
1185.740, 151.8193
1186.222, 152.5876
1186.704, 152.7947
1187.186, 152.7397
1187.669, 152.4302
1188.151, 152.1577
1188.633, 152.0414
1189.115, 152.0378
1189.597, 152.1550
1190.079, 152.3541
1190.561, 152.5424
1191.043, 152.6741
1191.526, 152.4666
1192.008, 151.6020
1192.490, 150.9193
1192.972, 150.8379
1193.454, 151.1051
1193.936, 151.6351
1194.418, 152.3761
1194.900, 152.8928
1195.382, 153.1716
1195.865, 153.1179
1196.347, 152.3385
1196.829, 151.7869
1197.311, 152.4264
1197.793, 153.0815
1198.275, 152.5129
1198.757, 150.7780
1199.239, 150.5735
1199.721, 151.7429
1200.204, 152.7967
1200.686, 152.6749
1201.168, 152.5370
1201.650, 153.2949
1202.132, 154.0675
1202.614, 153.7152
1203.096, 152.2496
1203.578, 151.7128
1204.061, 152.0927
1204.543, 152.6549
1205.025, 153.3583
1205.507, 153.6724
1205.989, 152.7470
1206.471, 151.5949
1206.953, 151.7093
1207.435, 153.0583
1207.917, 153.9016
1208.400, 154.1479
1208.882, 154.0193
1209.364, 153.3883
1209.846, 152.7102
1210.328, 152.2014
1210.810, 151.8376
1211.292, 151.5304
1211.774, 151.2903
1212.256, 151.7604
1212.739, 152.9853
1213.221, 153.9099
1213.703, 153.5497
1214.185, 152.9643
1214.667, 152.7134
1215.149, 152.6666
1215.631, 152.5931
1216.113, 152.4983
1216.596, 152.4328
1217.078, 152.4004
1217.560, 152.5398
1218.042, 153.2545
1218.524, 153.8449
1219.006, 153.8834
1219.488, 153.5369
1219.970, 153.0312
1220.453, 152.4053
1220.935, 152.1695
1221.417, 152.4314
1221.899, 152.6930
1222.381, 152.5861
1222.863, 152.4306
1223.345, 152.3963
1223.827, 152.4548
1224.309, 152.4959
1224.792, 152.5412
1225.274, 152.8441
1225.756, 153.5052
1226.238, 153.9258
1226.720, 153.4167
1227.202, 152.8994
1227.684, 152.8761
1228.166, 153.2031
1228.648, 153.4793
1229.131, 153.7011
1229.613, 153.8435
1230.095, 153.8941
1230.577, 153.8979
1231.059, 154.0116
1231.541, 153.9021
1232.023, 153.2025
1232.505, 152.2791
1232.988, 152.6441
1233.470, 153.9060
1233.952, 154.3078
1234.434, 153.1730
1234.916, 152.2298
1235.398, 152.5369
1235.880, 153.0168
1236.362, 153.2210
1236.844, 153.1956
1237.327, 153.0474
1237.809, 152.7983
1238.291, 152.4643
1238.773, 151.9473
1239.255, 151.7587
1239.737, 152.4250
1240.219, 153.0683
1240.701, 153.3495
1241.183, 153.3014
1241.666, 152.7949
1242.148, 152.0575
1242.630, 151.7847
1243.112, 152.3604
1243.594, 152.7962
1244.076, 152.8339
1244.558, 152.7414
1245.040, 152.5583
1245.523, 152.4090
1246.005, 152.6289
1246.487, 153.1287
1246.969, 153.7744
1247.451, 154.8097
1247.933, 155.1073
1248.415, 154.2848
1248.897, 153.3849
1249.380, 152.8944
1249.862, 152.7476
1250.344, 152.9984
1250.826, 153.4491
1251.308, 153.7119
1251.790, 153.5575
1252.272, 153.5791
1252.754, 153.8491
1253.236, 154.1631
1253.719, 154.6075
1254.201, 154.7996
1254.683, 153.5693
1255.165, 151.8575
1255.647, 151.3569
1256.129, 153.1537
1256.611, 153.8337
1257.093, 153.1569
1257.575, 152.5416
1258.058, 152.9144
1258.540, 153.6056
1259.022, 154.0043
1259.504, 154.0998
1259.986, 153.7699
1260.468, 152.8512
1260.950, 152.4228
1261.432, 152.5143
1261.915, 152.7575
1262.397, 152.9499
1262.879, 153.2056
1263.361, 153.7731
1263.843, 154.3844
1264.325, 154.7009
1264.807, 154.7141
1265.289, 154.3911
1265.771, 153.7449
1266.254, 153.3595
1266.736, 153.8155
1267.218, 154.2794
1267.700, 154.0419
1268.182, 153.6541
1268.664, 153.7904
1269.146, 154.4308
1269.628, 154.3942
1270.110, 153.7788
1270.593, 153.4148
1271.075, 153.9418
1271.557, 154.4650
1272.039, 154.4188
1272.521, 154.3603
1273.003, 154.8561
1273.485, 155.7327
1273.967, 155.7553
1274.450, 155.1101
1274.932, 154.5956
1275.414, 154.6736
1275.896, 154.7395
1276.378, 154.7374
1276.860, 154.5761
1277.342, 154.0489
1277.824, 153.3565
1278.306, 153.0637
1278.789, 153.1213
1279.271, 153.3913
1279.753, 153.9491
1280.235, 154.5518
1280.717, 155.3227
1281.199, 155.7529
1281.681, 155.2557
1282.163, 154.3718
1282.646, 154.0714
1283.128, 154.1245
1283.610, 154.0120
1284.092, 153.3248
1284.574, 153.3469
1285.056, 154.2395
1285.538, 154.9788
1286.020, 154.7654
1286.502, 154.2483
1286.984, 154.1288
1287.467, 154.2064
1287.949, 154.1586
1288.431, 153.9352
1288.913, 153.7875
1289.395, 153.7164
1289.877, 153.6648
1290.359, 153.5746
1290.841, 153.5288
1291.324, 153.6150
1291.806, 153.7589
1292.288, 153.8849
1292.770, 153.9923
1293.252, 154.0854
1293.734, 154.1465
1294.216, 154.0258
1294.698, 153.2829
1295.181, 152.9458
1295.663, 154.0180
1296.145, 155.1250
1296.627, 155.3040
1297.109, 154.7513
1297.591, 154.1991
1298.073, 153.7039
1298.555, 153.4601
1299.037, 153.6300
1299.520, 153.8980
1300.002, 154.2937
1300.484, 154.6160
1300.966, 154.6600
1301.448, 154.5894
1301.930, 154.8124
1302.412, 155.1947
1302.894, 155.4688
1303.376, 155.5669
1303.859, 155.5129
1304.341, 155.2474
1304.823, 154.9932
1305.305, 154.7908
1305.787, 154.6636
##END=



