##NAMES=Jadeite
##RRUFFID=R070117
##IDEAL CHEMISTRY=NaAlSi_2_O_6_
##LOCALITY=Tawmaw (Tawhmaw; Taw Maw), Myitkyina-Mogaung District, Kachin State, Myanmar (Burma)
##OWNER=RRUFF
##SOURCE=Michael Scott
##DESCRIPTION=Green massive
##STATUS=The identification of this mineral is confirmed by single-crystal X-ray diffraction and chemical analysis.
##URL=rruff.info/R070117
##MEASURED CHEMISTRY=Na_1.00_(Al_0.86_Cr_0.09_Fe^3+^_0.05_)_Î£=1_Si_2.00_O_6_
169.4663, 41295.64
169.9485, 41404.40
170.4306, 41534.28
170.9127, 41722.55
171.3948, 41899.43
171.8769, 41984.82
172.3590, 41988.74
172.8412, 41986.40
173.3233, 42029.81
173.8054, 42103.57
174.2875, 42182.89
174.7696, 42266.63
175.2517, 42347.45
175.7339, 42407.61
176.2160, 42447.29
176.6981, 42498.96
177.1802, 42611.57
177.6623, 42761.79
178.1444, 42888.81
178.6266, 42963.13
179.1087, 43000.46
179.5908, 43015.89
180.0729, 43005.54
180.5550, 43005.64
181.0371, 43062.22
181.5193, 43166.44
182.0014, 43278.74
182.4835, 43382.61
182.9656, 43480.48
183.4477, 43583.16
183.9298, 43692.36
184.4120, 43800.64
184.8941, 43885.93
185.3762, 43953.39
185.8583, 44041.67
186.3404, 44182.95
186.8225, 44365.83
187.3047, 44551.82
187.7868, 44739.63
188.2689, 44921.95
188.7510, 45081.96
189.2331, 45219.15
189.7152, 45353.77
190.1974, 45514.41
190.6795, 45692.27
191.1616, 45812.14
191.6437, 45842.20
192.1258, 45828.56
192.6080, 45883.45
193.0901, 46011.50
193.5722, 46166.78
194.0543, 46316.86
194.5364, 46461.44
195.0185, 46613.57
195.5007, 46769.08
195.9828, 46936.09
196.4649, 47143.90
196.9470, 47400.99
197.4291, 47673.29
197.9112, 47924.68
198.3934, 48151.81
198.8755, 48408.70
199.3576, 48712.51
199.8397, 49056.42
200.3218, 49399.41
200.8039, 49739.57
201.2861, 50084.25
201.7682, 50462.09
202.2503, 50889.77
202.7324, 51252.06
203.2145, 51564.37
203.6966, 51814.95
204.1788, 51748.02
204.6609, 51306.05
205.1430, 50660.92
205.6251, 49975.08
206.1072, 49216.20
206.5893, 48549.09
207.0715, 48015.14
207.5536, 47619.21
208.0357, 47355.95
208.5178, 47257.36
208.9999, 47247.89
209.4820, 47222.32
209.9642, 47171.52
210.4463, 47133.02
210.9284, 47124.97
211.4105, 47153.94
211.8926, 47160.69
212.3747, 47130.08
212.8569, 47092.10
213.3390, 47100.34
213.8211, 47171.69
214.3032, 47247.04
214.7853, 47301.42
215.2674, 47325.27
215.7496, 47369.90
216.2317, 47444.81
216.7138, 47534.43
217.1959, 47603.33
217.6780, 47635.09
218.1601, 47681.21
218.6423, 47774.52
219.1244, 47953.70
219.6065, 48061.04
220.0886, 48076.47
220.5707, 48029.03
221.0528, 47988.96
221.5350, 47952.59
222.0171, 47928.87
222.4992, 47928.03
222.9813, 47972.75
223.4634, 47978.80
223.9455, 47929.40
224.4277, 47843.43
224.9098, 47777.85
225.3919, 47730.74
225.8740, 47705.10
226.3561, 47706.32
226.8382, 47751.70
227.3204, 47781.47
227.8025, 47780.64
228.2846, 47763.36
228.7667, 47782.79
229.2488, 47858.65
229.7310, 47942.18
230.2131, 48006.91
230.6952, 48039.55
231.1773, 48082.66
231.6594, 48148.93
232.1415, 48228.59
232.6237, 48276.65
233.1058, 48275.23
233.5879, 48265.90
234.0700, 48273.68
234.5521, 48309.35
235.0342, 48339.34
235.5164, 48360.30
235.9985, 48373.27
236.4806, 48381.98
236.9627, 48375.78
237.4448, 48378.82
237.9269, 48407.91
238.4091, 48476.03
238.8912, 48544.68
239.3733, 48615.33
239.8554, 48685.39
240.3375, 48736.90
240.8196, 48765.64
241.3018, 48780.88
241.7839, 48787.30
242.2660, 48778.70
242.7481, 48773.12
243.2302, 48766.51
243.7123, 48762.11
244.1945, 48788.18
244.6766, 48864.45
245.1587, 48947.22
245.6408, 49005.47
246.1229, 49025.16
246.6050, 49049.87
247.0872, 49086.08
247.5693, 49132.26
248.0514, 49174.24
248.5335, 49206.48
249.0156, 49241.47
249.4977, 49288.84
249.9799, 49353.38
250.4620, 49420.20
250.9441, 49494.46
251.4262, 49572.73
251.9083, 49620.08
252.3904, 49621.70
252.8726, 49611.16
253.3547, 49611.25
253.8368, 49620.44
254.3189, 49646.47
254.8010, 49705.95
255.2831, 49790.54
255.7653, 49812.39
256.2474, 49734.58
256.7295, 49645.22
257.2116, 49612.82
257.6937, 49652.03
258.1758, 49712.84
258.6580, 49803.02
259.1401, 49914.61
259.6222, 49970.20
260.1043, 49938.11
260.5864, 49898.38
261.0685, 49921.81
261.5507, 50040.88
262.0328, 50125.73
262.5149, 50149.14
262.9970, 50121.02
263.4791, 50113.38
263.9612, 50135.45
264.4434, 50161.60
264.9255, 50167.27
265.4076, 50140.04
265.8897, 50137.13
266.3718, 50172.40
266.8539, 50238.86
267.3361, 50299.53
267.8182, 50354.18
268.3003, 50402.43
268.7824, 50444.95
269.2645, 50482.21
269.7466, 50509.95
270.2288, 50524.55
270.7109, 50529.73
271.1930, 50541.14
271.6751, 50556.39
272.1572, 50584.55
272.6393, 50639.87
273.1215, 50729.48
273.6036, 50800.24
274.0857, 50841.43
274.5678, 50859.78
275.0499, 50874.00
275.5320, 50878.50
276.0142, 50898.73
276.4963, 50960.09
276.9784, 51067.26
277.4605, 51169.09
277.9426, 51261.31
278.4247, 51342.99
278.9069, 51413.48
279.3890, 51472.67
279.8711, 51519.07
280.3532, 51549.46
280.8354, 51563.68
281.3175, 51571.67
281.7996, 51572.54
282.2817, 51569.96
282.7638, 51559.33
283.2459, 51535.69
283.7281, 51551.99
284.2102, 51676.89
284.6923, 51899.57
285.1744, 52055.00
285.6565, 52110.90
286.1386, 52108.62
286.6208, 52126.84
287.1029, 52166.26
287.5850, 52204.84
288.0671, 52232.29
288.5492, 52248.29
289.0313, 52248.34
289.5135, 52227.93
289.9956, 52199.61
290.4777, 52177.41
290.9598, 52162.12
291.4419, 52166.84
291.9240, 52218.82
292.4062, 52300.61
292.8883, 52343.08
293.3704, 52331.93
293.8525, 52305.25
294.3346, 52315.77
294.8167, 52359.31
295.2989, 52410.86
295.7810, 52474.16
296.2631, 52533.77
296.7452, 52544.98
297.2273, 52494.48
297.7094, 52437.21
298.1916, 52449.14
298.6737, 52511.75
299.1558, 52559.50
299.6379, 52523.95
300.1200, 52462.17
300.6021, 52479.39
301.0843, 52591.77
301.5664, 52716.56
302.0485, 52764.01
302.5306, 52760.89
303.0127, 52770.54
303.4948, 52845.93
303.9770, 52938.70
304.4591, 52984.14
304.9412, 52975.50
305.4233, 52972.02
305.9054, 53028.67
306.3875, 53122.20
306.8697, 53214.18
307.3518, 53310.15
307.8339, 53383.11
308.3160, 53384.44
308.7981, 53313.86
309.2802, 53270.94
309.7624, 53356.93
310.2445, 53501.01
310.7266, 53612.97
311.2087, 53647.39
311.6908, 53650.81
312.1729, 53649.84
312.6551, 53644.07
313.1372, 53624.58
313.6193, 53564.66
314.1014, 53498.53
314.5835, 53458.78
315.0656, 53480.32
315.5478, 53505.89
316.0299, 53499.96
316.5120, 53470.66
316.9941, 53468.45
317.4762, 53553.89
317.9583, 53649.63
318.4405, 53699.99
318.9226, 53637.22
319.4047, 53593.65
319.8868, 53616.27
320.3689, 53690.06
320.8510, 53759.75
321.3332, 53815.45
321.8153, 53860.57
322.2974, 53897.30
322.7795, 53924.58
323.2616, 53945.44
323.7437, 53960.76
324.2259, 53970.00
324.7080, 53971.72
325.1901, 53948.90
325.6722, 53932.38
326.1543, 53937.45
326.6364, 53989.22
327.1186, 54014.57
327.6007, 54004.43
328.0828, 53968.91
328.5649, 53924.20
329.0470, 53826.39
329.5291, 53767.62
330.0113, 53787.66
330.4934, 53922.26
330.9755, 54005.61
331.4576, 54022.61
331.9397, 53997.16
332.4218, 53956.52
332.9040, 53879.55
333.3861, 53823.62
333.8682, 53805.84
334.3503, 53828.60
334.8324, 53857.22
335.3145, 53898.59
335.7967, 53937.35
336.2788, 53952.54
336.7609, 53932.88
337.2430, 53926.82
337.7251, 53947.49
338.2072, 53991.74
338.6894, 54030.42
339.1715, 54060.88
339.6536, 54093.75
340.1357, 54146.25
340.6178, 54223.44
341.0999, 54268.13
341.5821, 54260.84
342.0642, 54221.73
342.5463, 54210.96
343.0284, 54230.89
343.5105, 54260.07
343.9926, 54283.05
344.4748, 54300.88
344.9569, 54323.71
345.4390, 54352.44
345.9211, 54387.15
346.4032, 54431.80
346.8853, 54485.14
347.3675, 54535.20
347.8496, 54559.45
348.3317, 54574.25
348.8138, 54632.70
349.2959, 54747.77
349.7780, 54872.21
350.2602, 54956.92
350.7423, 55007.19
351.2244, 55042.82
351.7065, 55052.74
352.1887, 55061.91
352.6708, 55103.94
353.1529, 55180.80
353.6350, 55284.55
354.1171, 55428.56
354.5992, 55593.70
355.0814, 55744.89
355.5635, 55856.22
356.0456, 55956.56
356.5277, 56065.66
357.0098, 56184.18
357.4919, 56310.79
357.9741, 56444.34
358.4562, 56586.31
358.9383, 56740.54
359.4204, 56921.05
359.9025, 57098.32
360.3846, 57249.38
360.8668, 57382.43
361.3489, 57532.06
361.8310, 57708.02
362.3131, 57905.48
362.7952, 58126.38
363.2773, 58397.67
363.7595, 58642.43
364.2416, 58815.52
364.7237, 58949.63
365.2058, 59119.41
365.6879, 59380.22
366.1700, 59640.48
366.6522, 59871.25
367.1343, 60077.43
367.6164, 60237.71
368.0985, 60331.39
368.5806, 60386.84
369.0627, 60442.35
369.5449, 60535.89
370.0270, 60582.44
370.5091, 60562.68
370.9912, 60473.87
371.4733, 60346.58
371.9554, 60173.63
372.4376, 59971.48
372.9197, 59751.49
373.4018, 59506.97
373.8839, 59265.57
374.3660, 59029.40
374.8481, 58799.70
375.3303, 58571.63
375.8124, 58344.55
376.2945, 58119.23
376.7766, 57876.25
377.2587, 57608.76
377.7408, 57424.63
378.2230, 57354.95
378.7051, 57345.32
379.1872, 57266.47
379.6693, 57114.82
380.1514, 56983.41
380.6335, 56915.20
381.1157, 56909.07
381.5978, 56980.77
382.0799, 57146.06
382.5620, 57325.98
383.0441, 57439.25
383.5262, 57487.18
384.0084, 57470.92
384.4905, 57341.26
384.9726, 57163.70
385.4547, 57047.49
385.9368, 56990.67
386.4189, 56976.04
386.9011, 57045.40
387.3832, 57137.32
387.8653, 57145.14
388.3474, 56984.33
388.8295, 56784.37
389.3116, 56646.34
389.7938, 56563.70
390.2759, 56500.50
390.7580, 56449.37
391.2401, 56402.29
391.7222, 56350.78
392.2043, 56286.74
392.6865, 56232.13
393.1686, 56197.09
393.6507, 56177.88
394.1328, 56165.59
394.6149, 56157.71
395.0970, 56156.06
395.5792, 56168.05
396.0613, 56203.05
396.5434, 56212.41
397.0255, 56171.45
397.5076, 56108.02
397.9897, 56052.21
398.4719, 55982.88
398.9540, 55947.36
399.4361, 55970.94
399.9182, 56052.31
400.4003, 56095.36
400.8824, 56081.56
401.3646, 56048.01
401.8467, 56011.38
402.3288, 55944.21
402.8109, 55948.26
403.2930, 56068.45
403.7751, 56250.89
404.2573, 56323.79
404.7394, 56250.40
405.2215, 56176.62
405.7036, 56195.63
406.1857, 56316.14
406.6678, 56344.80
407.1500, 56253.71
407.6321, 56131.79
408.1142, 56108.59
408.5963, 56181.77
409.0784, 56275.83
409.5605, 56373.68
410.0427, 56469.89
410.5248, 56551.30
411.0069, 56618.41
411.4890, 56668.92
411.9711, 56690.34
412.4532, 56693.27
412.9354, 56701.74
413.4175, 56719.25
413.8996, 56748.32
414.3817, 56799.74
414.8638, 56867.54
415.3459, 56930.84
415.8281, 56956.90
416.3102, 56982.42
416.7923, 57044.09
417.2744, 57149.91
417.7565, 57277.20
418.2386, 57452.55
418.7208, 57633.44
419.2029, 57751.47
419.6850, 57710.44
420.1671, 57667.70
420.6492, 57695.77
421.1313, 57801.11
421.6135, 57907.00
422.0956, 58006.12
422.5777, 58094.86
423.0598, 58171.97
423.5420, 58231.14
424.0241, 58284.56
424.5062, 58329.53
424.9883, 58369.14
425.4704, 58415.70
425.9525, 58477.82
426.4347, 58537.40
426.9168, 58586.79
427.3989, 58624.89
427.8810, 58658.86
428.3631, 58693.19
428.8452, 58718.68
429.3274, 58724.36
429.8095, 58712.37
430.2916, 58669.68
430.7737, 58586.14
431.2558, 58467.73
431.7379, 58346.53
432.2201, 58222.21
432.7022, 58100.16
433.1843, 57980.47
433.6664, 57866.04
434.1485, 57769.05
434.6306, 57694.89
435.1128, 57634.20
435.5949, 57578.36
436.0770, 57525.54
436.5591, 57463.94
437.0412, 57384.47
437.5233, 57293.90
438.0055, 57197.14
438.4876, 57092.50
438.9697, 56998.60
439.4518, 56936.83
439.9339, 56894.59
440.4160, 56853.73
440.8982, 56787.65
441.3803, 56738.13
441.8624, 56747.31
442.3445, 56805.63
442.8266, 56831.35
443.3087, 56764.72
443.7909, 56674.18
444.2730, 56602.79
444.7551, 56538.08
445.2372, 56521.41
445.7193, 56585.86
446.2014, 56700.75
446.6836, 56797.75
447.1657, 56895.06
447.6478, 56952.70
448.1299, 56951.05
448.6120, 56880.53
449.0941, 56817.18
449.5763, 56759.39
450.0584, 56711.45
450.5405, 56677.22
451.0226, 56655.27
451.5047, 56654.50
451.9868, 56685.93
452.4690, 56734.91
452.9511, 56743.84
453.4332, 56707.38
453.9153, 56677.63
454.3974, 56694.89
454.8795, 56750.44
455.3617, 56794.86
455.8438, 56824.60
456.3259, 56846.11
456.8080, 56874.96
457.2901, 56903.65
457.7722, 56909.79
458.2544, 56867.52
458.7365, 56767.59
459.2186, 56837.91
459.7007, 56877.37
460.1828, 56887.61
460.6649, 56781.14
461.1471, 56825.38
461.6292, 56809.22
462.1113, 56790.59
462.5934, 56856.04
463.0755, 56766.54
463.5576, 56830.66
464.0398, 56833.46
464.5219, 56864.32
465.0040, 56834.41
465.4861, 56823.28
465.9682, 56872.93
466.4503, 56888.92
466.9325, 56852.02
467.4146, 56884.66
467.8967, 56793.05
468.3788, 56810.48
468.8609, 56825.41
469.3430, 56867.71
469.8252, 56917.36
470.3073, 56928.88
470.7894, 56887.96
471.2715, 56848.40
471.7536, 56836.36
472.2357, 56852.65
472.7179, 56880.13
473.2000, 56924.25
473.6821, 56962.18
474.1642, 56946.26
474.6463, 56887.59
475.1284, 56873.34
475.6106, 56959.55
476.0927, 57079.64
476.5748, 57100.88
477.0569, 57036.03
477.5390, 56973.86
478.0211, 56982.64
478.5033, 57025.95
478.9854, 57059.48
479.4675, 57075.47
479.9496, 57084.57
480.4317, 57091.95
480.9138, 57097.17
481.3960, 57099.64
481.8781, 57096.05
482.3602, 57092.55
482.8423, 57092.50
483.3244, 57095.70
483.8065, 57097.03
484.2887, 57090.58
484.7708, 57085.43
485.2529, 57030.10
485.7350, 57112.92
486.2171, 57164.88
486.6992, 57187.62
487.1814, 57093.66
487.6635, 57150.40
488.1456, 57146.74
488.6277, 57140.61
489.1098, 57218.56
489.5919, 57141.57
490.0741, 57218.19
490.5562, 57233.49
491.0383, 57276.86
491.5204, 57259.45
492.0026, 57260.82
492.4847, 57322.97
492.9668, 57351.46
493.4489, 57327.06
493.9310, 57372.21
494.4131, 57293.10
494.8953, 57323.03
495.3774, 57400.00
495.8595, 57378.66
496.3416, 57424.92
496.8237, 57445.43
497.3058, 57348.93
497.7880, 57455.93
498.2701, 57474.92
498.7522, 57403.55
499.2343, 57503.57
499.7164, 57444.66
500.1985, 57548.92
500.6807, 57609.10
501.1628, 57657.46
501.6449, 57690.35
502.1270, 57719.29
502.6091, 57747.48
503.0912, 57775.16
503.5734, 57803.55
504.0555, 57840.75
504.5376, 57870.20
505.0197, 57873.55
505.5018, 57836.92
505.9839, 57822.74
506.4661, 57845.32
506.9482, 57888.17
507.4303, 57897.04
507.9124, 57866.39
508.3945, 57871.50
508.8766, 57978.30
509.3588, 58153.98
509.8409, 58268.86
510.3230, 58319.70
510.8051, 58354.84
511.2872, 58410.36
511.7693, 58483.50
512.2515, 58570.35
512.7336, 58680.83
513.2157, 58786.88
513.6978, 58864.94
514.1799, 58920.45
514.6620, 58966.99
515.1442, 58982.74
515.6263, 59013.90
516.1084, 59103.19
516.5905, 59264.09
517.0726, 59379.98
517.5547, 59365.44
518.0369, 59329.06
518.5190, 59359.18
519.0011, 59533.19
519.4832, 59661.98
519.9653, 59710.69
520.4474, 59715.14
520.9296, 59777.14
521.4117, 59935.28
521.8938, 60049.31
522.3759, 60048.54
522.8580, 59939.89
523.3401, 59888.46
523.8223, 59905.62
524.3044, 59921.46
524.7865, 59859.85
525.2686, 59737.17
525.7507, 59631.65
526.2328, 59569.98
526.7150, 59501.82
527.1971, 59334.38
527.6792, 59100.01
528.1613, 58903.17
528.6434, 58818.24
529.1255, 58770.96
529.6077, 58700.47
530.0898, 58605.17
530.5719, 58517.77
531.0540, 58451.96
531.5361, 58399.68
532.0182, 58356.20
532.5004, 58336.50
532.9825, 58300.40
533.4646, 58222.96
533.9467, 58129.89
534.4288, 58066.73
534.9109, 58036.05
535.3931, 58031.80
535.8752, 58061.58
536.3573, 58121.88
536.8394, 58163.54
537.3215, 58186.13
537.8036, 58192.32
538.2858, 58186.60
538.7679, 58168.36
539.2500, 58112.39
539.7321, 58002.83
540.2142, 57902.45
540.6964, 57927.81
541.1785, 58039.54
541.6606, 58102.64
542.1427, 58007.10
542.6248, 57883.68
543.1069, 57910.75
543.5891, 58055.08
544.0712, 58151.46
544.5533, 58031.16
545.0354, 57880.70
545.5175, 57849.64
545.9996, 57993.94
546.4818, 58112.09
546.9639, 58118.59
547.4460, 58083.51
547.9281, 58083.36
548.4102, 58156.25
548.8923, 58222.36
549.3745, 58283.55
549.8566, 58332.20
550.3387, 58330.02
550.8208, 58245.33
551.3029, 58188.30
551.7850, 58216.72
552.2672, 58327.58
552.7493, 58431.86
553.2314, 58530.73
553.7135, 58617.00
554.1956, 58689.73
554.6777, 58745.02
555.1599, 58763.68
555.6420, 58731.01
556.1241, 58684.12
556.6062, 58654.70
557.0883, 58644.20
557.5704, 58655.45
558.0526, 58721.80
558.5347, 58784.92
559.0168, 58792.50
559.4989, 58746.61
559.9810, 58726.50
560.4631, 58771.59
560.9453, 58841.08
561.4274, 58911.91
561.9095, 58993.26
562.3916, 59052.73
562.8737, 59073.07
563.3558, 59081.39
563.8380, 59117.54
564.3201, 59193.87
564.8022, 59264.30
565.2843, 59320.91
565.7664, 59364.41
566.2485, 59390.92
566.7307, 59398.88
567.2128, 59413.27
567.6949, 59465.18
568.1770, 59535.43
568.6591, 59557.65
569.1412, 59525.66
569.6234, 59490.96
570.1055, 59518.39
570.5876, 59567.84
571.0697, 59576.07
571.5518, 59502.34
572.0339, 59420.80
572.5161, 59383.59
572.9982, 59368.29
573.4803, 59325.82
573.9624, 59210.32
574.4445, 59096.18
574.9266, 59010.86
575.4088, 58955.17
575.8909, 58905.92
576.3730, 58868.02
576.8551, 58831.16
577.3372, 58787.24
577.8193, 58733.01
578.3015, 58684.63
578.7836, 58637.13
579.2657, 58605.48
579.7478, 58628.29
580.2299, 58697.96
580.7120, 58729.62
581.1942, 58679.43
581.6763, 58597.82
582.1584, 58558.07
582.6405, 58557.70
583.1226, 58584.09
583.6047, 58663.54
584.0869, 58744.79
584.5690, 58783.40
585.0511, 58775.06
585.5332, 58741.89
586.0153, 58658.39
586.4974, 58573.72
586.9796, 58528.45
587.4617, 58574.99
587.9438, 58595.32
588.4259, 58577.69
588.9080, 58534.73
589.3901, 58485.64
589.8723, 58427.95
590.3544, 58369.54
590.8365, 58304.61
591.3186, 58241.89
591.8007, 58227.42
592.2828, 58263.49
592.7650, 58319.39
593.2471, 58396.65
593.7292, 58477.64
594.2113, 58501.67
594.6934, 58461.93
595.1755, 58414.02
595.6577, 58411.81
596.1398, 58429.06
596.6219, 58428.35
597.1040, 58384.10
597.5862, 58344.50
598.0683, 58328.47
598.5504, 58333.14
599.0325, 58352.33
599.5146, 58426.82
599.9968, 58470.24
600.4789, 58441.68
600.9610, 58348.52
601.4431, 58306.07
601.9252, 58335.47
602.4073, 58378.70
602.8895, 58412.55
603.3716, 58439.01
603.8537, 58417.30
604.3358, 58335.68
604.8179, 58249.04
605.3000, 58226.74
605.7822, 58253.24
606.2643, 58266.18
606.7464, 58240.29
607.2285, 58216.39
607.7106, 58247.70
608.1927, 58314.83
608.6749, 58373.04
609.1570, 58415.64
609.6391, 58431.09
610.1212, 58399.65
610.6033, 58325.44
611.0854, 58262.81
611.5676, 58221.35
612.0497, 58195.91
612.5318, 58183.31
613.0139, 58181.66
613.4960, 58204.77
613.9781, 58271.26
614.4603, 58334.33
614.9424, 58339.64
615.4245, 58283.98
615.9066, 58223.46
616.3887, 58163.40
616.8708, 58109.04
617.3530, 58059.88
617.8351, 58021.49
618.3172, 58014.94
618.7993, 58101.82
619.2814, 58190.41
619.7635, 58157.78
620.2457, 58027.44
620.7278, 57937.08
621.2099, 57974.32
621.6920, 58056.30
622.1741, 58146.02
622.6563, 58254.44
623.1384, 58308.08
623.6205, 58264.97
624.1026, 58191.18
624.5847, 58137.07
625.0668, 58108.44
625.5490, 58081.90
626.0311, 58051.57
626.5132, 58028.36
626.9953, 58038.89
627.4774, 58082.44
627.9595, 58121.45
628.4417, 58153.59
628.9238, 58164.10
629.4059, 58100.13
629.8880, 57979.03
630.3701, 57887.92
630.8522, 57902.64
631.3344, 57954.43
631.8165, 57985.12
632.2986, 57988.95
632.7807, 58000.01
633.2628, 58043.56
633.7449, 58090.66
634.2271, 58120.84
634.7092, 58137.59
635.1913, 58125.58
635.6734, 58055.79
636.1555, 57981.04
636.6376, 57977.55
637.1198, 58060.53
637.6019, 58143.82
638.0840, 58222.82
638.5661, 58278.84
639.0482, 58250.03
639.5303, 58147.28
640.0125, 58053.53
640.4946, 58020.34
640.9767, 58017.26
641.4588, 58006.54
641.9409, 57989.25
642.4230, 57979.98
642.9052, 58018.95
643.3873, 58046.58
643.8694, 58006.29
644.3515, 57855.07
644.8336, 57762.61
645.3157, 57796.45
645.7979, 57870.92
646.2800, 57917.16
646.7621, 57913.85
647.2442, 57940.93
647.7263, 58016.94
648.2084, 58110.73
648.6906, 58169.23
649.1727, 58192.15
649.6548, 58182.88
650.1369, 58128.61
650.6190, 58056.26
651.1011, 58004.99
651.5833, 57974.20
652.0654, 57959.77
652.5475, 57964.49
653.0296, 57980.87
653.5117, 58012.82
653.9938, 58059.99
654.4760, 58083.73
654.9581, 58049.09
655.4402, 58003.91
655.9223, 57980.65
656.4044, 57998.44
656.8865, 57983.49
657.3687, 57910.06
657.8508, 57836.25
658.3329, 57838.45
658.8150, 57923.27
659.2971, 57982.81
659.7792, 57993.61
660.2614, 57984.35
660.7435, 58015.96
661.2256, 58071.00
661.7077, 58086.83
662.1898, 57995.21
662.6719, 57887.75
663.1541, 57841.55
663.6362, 57847.75
664.1183, 57872.84
664.6004, 57934.97
665.0825, 57984.53
665.5646, 57997.81
666.0468, 57969.80
666.5289, 57923.39
667.0110, 57817.71
667.4931, 57746.70
667.9752, 57776.19
668.4573, 57918.07
668.9395, 58088.45
669.4216, 58310.68
669.9037, 58475.43
670.3858, 58415.91
670.8679, 58191.79
671.3500, 58000.54
671.8322, 57880.11
672.3143, 57824.62
672.7964, 57845.48
673.2785, 57923.84
673.7606, 58027.07
674.2427, 58220.59
674.7249, 58354.11
675.2070, 58320.71
675.6891, 58169.94
676.1712, 58113.23
676.6533, 58216.02
677.1354, 58328.14
677.6176, 58408.31
678.0997, 58457.72
678.5818, 58487.21
679.0639, 58487.05
679.5460, 58520.38
680.0281, 58658.08
680.5103, 58863.15
680.9924, 59013.43
681.4745, 59098.49
681.9566, 59193.12
682.4387, 59350.34
682.9208, 59555.37
683.4030, 59794.73
683.8851, 60081.66
684.3672, 60361.86
684.8493, 60602.24
685.3314, 60831.79
685.8135, 61083.19
686.2957, 61371.34
686.7778, 61662.83
687.2599, 61955.35
687.7420, 62248.87
688.2241, 62536.60
688.7062, 62814.38
689.1884, 63123.14
689.6705, 63487.53
690.1526, 63880.55
690.6347, 64253.35
691.1168, 64605.02
691.5989, 64930.46
692.0811, 65199.05
692.5632, 65460.05
693.0453, 65766.48
693.5274, 66120.19
694.0095, 66442.87
694.4916, 66773.26
694.9738, 67013.01
695.4559, 67093.44
695.9380, 66991.79
696.4201, 66847.66
696.9022, 66676.48
697.3843, 66435.43
697.8665, 66061.27
698.3486, 65553.64
698.8307, 65068.99
699.3128, 64635.93
699.7949, 64199.44
700.2770, 63679.10
700.7592, 63106.43
701.2413, 62545.89
701.7234, 61990.19
702.2055, 61496.38
702.6876, 61142.09
703.1697, 60873.66
703.6519, 60572.68
704.1340, 60144.06
704.6161, 59757.74
705.0982, 59458.42
705.5803, 59228.55
706.0624, 58995.30
706.5446, 58751.01
707.0267, 58531.46
707.5088, 58348.94
707.9909, 58201.28
708.4730, 58092.30
708.9551, 58021.00
709.4373, 57939.55
709.9194, 57781.52
710.4015, 57611.05
710.8836, 57518.55
711.3657, 57510.25
711.8478, 57506.77
712.3300, 57456.95
712.8121, 57405.49
713.2942, 57390.72
713.7763, 57458.51
714.2584, 57463.21
714.7405, 57375.93
715.2227, 57256.81
715.7048, 57164.01
716.1869, 57102.29
716.6690, 57023.69
717.1511, 56913.96
717.6332, 56813.36
718.1154, 56797.75
718.5975, 56840.63
719.0796, 56864.63
719.5617, 56843.02
720.0438, 56799.30
720.5259, 56727.16
721.0081, 56648.51
721.4902, 56606.95
721.9723, 56691.58
722.4544, 56729.41
722.9365, 56637.29
723.4186, 56460.25
723.9008, 56362.64
724.3829, 56368.41
724.8650, 56388.44
725.3471, 56390.01
725.8292, 56379.11
726.3113, 56386.62
726.7935, 56411.41
727.2756, 56430.01
727.7577, 56419.18
728.2398, 56397.60
728.7219, 56395.19
729.2040, 56412.07
729.6862, 56413.47
730.1683, 56361.93
730.6504, 56304.37
731.1325, 56273.68
731.6146, 56284.88
732.0967, 56283.01
732.5789, 56263.68
733.0610, 56237.03
733.5431, 56209.89
734.0252, 56182.57
734.5073, 56158.69
734.9894, 56141.75
735.4716, 56114.25
735.9537, 56035.30
736.4358, 55932.17
736.9179, 55868.77
737.4000, 55870.89
737.8821, 55890.63
738.3643, 55917.01
738.8464, 55935.26
739.3286, 55924.68
739.8107, 55822.48
740.2928, 55767.19
740.7749, 55815.32
741.2570, 55901.65
741.7391, 55876.47
742.2213, 55704.84
742.7034, 55593.55
743.1855, 55618.95
743.6676, 55714.83
744.1497, 55745.98
744.6318, 55718.49
745.1140, 55664.20
745.5961, 55551.43
746.0782, 55457.16
746.5603, 55486.91
747.0424, 55606.92
747.5245, 55656.54
748.0067, 55493.21
748.4888, 55337.79
748.9709, 55291.03
749.4530, 55345.72
749.9351, 55368.41
750.4172, 55345.78
750.8994, 55326.41
751.3815, 55359.66
751.8636, 55427.86
752.3457, 55388.81
752.8278, 55242.14
753.3099, 55109.14
753.7921, 55100.95
754.2742, 55150.42
754.7563, 55188.82
755.2384, 55209.80
755.7205, 55202.94
756.2026, 55136.14
756.6848, 55059.31
757.1669, 55011.36
757.6490, 55010.42
758.1311, 54988.37
758.6132, 54938.63
759.0953, 54878.48
759.5775, 54820.65
760.0596, 54765.52
760.5417, 54725.62
761.0238, 54703.80
761.5059, 54692.94
761.9880, 54701.25
762.4702, 54711.34
762.9523, 54692.61
763.4344, 54615.96
763.9165, 54548.71
764.3986, 54522.87
764.8807, 54521.34
765.3629, 54523.26
765.8450, 54546.32
766.3271, 54535.15
766.8092, 54473.07
767.2913, 54385.96
767.7734, 54315.45
768.2556, 54262.57
768.7377, 54229.75
769.2198, 54218.49
769.7019, 54226.54
770.1840, 54263.52
770.6661, 54317.36
771.1483, 54359.19
771.6304, 54390.28
772.1125, 54392.55
772.5946, 54331.55
773.0767, 54232.48
773.5588, 54185.68
774.0410, 54229.43
774.5231, 54260.35
775.0052, 54245.37
775.4873, 54199.34
775.9694, 54186.10
776.4515, 54204.93
776.9337, 54214.88
777.4158, 54187.14
777.8979, 54141.77
778.3800, 54115.62
778.8621, 54101.45
779.3442, 54066.04
779.8264, 53958.54
780.3085, 53856.40
780.7906, 53811.30
781.2727, 53824.86
781.7548, 53803.85
782.2369, 53721.26
782.7191, 53651.27
783.2012, 53634.91
783.6833, 53665.27
784.1654, 53664.56
784.6475, 53632.43
785.1296, 53606.24
785.6118, 53636.79
786.0939, 53677.99
786.5760, 53659.18
787.0581, 53577.09
787.5402, 53497.30
788.0223, 53448.46
788.5045, 53413.00
788.9866, 53378.16
789.4687, 53340.42
789.9508, 53323.03
790.4329, 53336.43
790.9150, 53350.63
791.3972, 53338.68
791.8793, 53304.16
792.3614, 53290.39
792.8435, 53300.51
793.3256, 53305.72
793.8077, 53275.40
794.2899, 53227.35
794.7720, 53174.09
795.2541, 53107.40
795.7362, 53089.95
796.2183, 53219.38
796.7004, 53354.17
797.1826, 53379.63
797.6647, 53244.75
798.1468, 53148.73
798.6289, 53100.00
799.1110, 53074.55
799.5931, 53055.64
800.0753, 53040.66
800.5574, 53016.07
801.0395, 52979.02
801.5216, 52940.57
802.0037, 52902.34
802.4858, 52871.74
802.9680, 52857.72
803.4501, 52867.61
803.9322, 52881.84
804.4143, 52908.09
804.8964, 52929.14
805.3785, 52926.99
805.8607, 52893.27
806.3428, 52871.14
806.8249, 52867.32
807.3070, 52864.90
807.7891, 52832.61
808.2712, 52783.75
808.7534, 52764.08
809.2355, 52796.26
809.7176, 52816.66
810.1997, 52748.27
810.6818, 52653.65
811.1639, 52606.78
811.6461, 52677.95
812.1282, 52724.47
812.6103, 52738.34
813.0924, 52726.04
813.5745, 52683.13
814.0566, 52605.46
814.5388, 52567.63
815.0209, 52587.77
815.5030, 52630.86
815.9851, 52670.67
816.4672, 52695.68
816.9493, 52675.64
817.4315, 52565.34
817.9136, 52478.60
818.3957, 52490.58
818.8778, 52549.07
819.3599, 52579.41
819.8420, 52569.78
820.3242, 52546.98
820.8063, 52510.10
821.2884, 52464.66
821.7705, 52405.53
822.2526, 52337.95
822.7347, 52323.66
823.2169, 52397.21
823.6990, 52473.30
824.1811, 52455.27
824.6632, 52379.99
825.1453, 52308.00
825.6274, 52237.96
826.1096, 52197.68
826.5917, 52232.26
827.0738, 52281.74
827.5559, 52253.66
828.0380, 52110.20
828.5201, 52050.15
829.0023, 52129.13
829.4844, 52248.12
829.9665, 52247.15
830.4486, 52160.69
830.9307, 52094.74
831.4128, 52097.95
831.8950, 52096.41
832.3771, 52021.70
832.8592, 51916.60
833.3413, 51842.73
833.8234, 51801.77
834.3055, 51811.84
834.7877, 51899.61
835.2698, 52014.18
835.7519, 52072.02
836.2340, 52073.30
836.7161, 52080.35
837.1982, 52111.97
837.6804, 52135.40
838.1625, 52096.50
838.6446, 52024.41
839.1267, 51970.03
839.6088, 51964.76
840.0909, 51954.21
840.5731, 51896.19
841.0552, 51834.93
841.5373, 51834.67
842.0194, 51930.48
842.5015, 51978.23
842.9836, 51953.55
843.4658, 51896.23
843.9479, 51858.95
844.4300, 51837.61
844.9121, 51818.06
845.3942, 51798.77
845.8763, 51775.10
846.3585, 51728.14
846.8406, 51681.20
847.3227, 51662.39
847.8048, 51738.05
848.2869, 51750.70
848.7690, 51650.34
849.2512, 51535.42
849.7333, 51542.23
850.2154, 51670.77
850.6975, 51737.46
851.1796, 51708.56
851.6617, 51653.94
852.1439, 51640.80
852.6260, 51656.27
853.1081, 51685.66
853.5902, 51736.79
854.0723, 51772.54
854.5544, 51782.14
855.0366, 51768.18
855.5187, 51729.71
856.0008, 51653.34
856.4829, 51597.93
856.9650, 51564.13
857.4471, 51555.89
857.9293, 51595.11
858.4114, 51662.19
858.8935, 51702.46
859.3756, 51706.68
859.8577, 51693.79
860.3398, 51650.48
860.8220, 51611.77
861.3041, 51610.34
861.7862, 51669.66
862.2683, 51725.45
862.7504, 51797.07
863.2325, 51835.63
863.7147, 51772.55
864.1968, 51622.66
864.6789, 51567.16
865.1610, 51618.34
865.6431, 51684.88
866.1252, 51721.92
866.6074, 51714.27
867.0895, 51612.20
867.5716, 51387.45
868.0537, 51263.52
868.5358, 51407.18
869.0179, 51562.68
869.5001, 51594.45
869.9822, 51493.88
870.4643, 51445.14
870.9464, 51454.11
871.4285, 51472.91
871.9106, 51466.81
872.3928, 51446.78
872.8749, 51425.02
873.3570, 51403.56
873.8391, 51397.29
874.3212, 51430.80
874.8033, 51465.98
875.2855, 51483.61
875.7676, 51484.10
876.2497, 51473.56
876.7318, 51453.80
877.2139, 51416.41
877.6960, 51348.73
878.1782, 51262.77
878.6603, 51185.58
879.1424, 51119.96
879.6245, 51083.29
880.1067, 51118.13
880.5888, 51155.09
881.0709, 51141.27
881.5530, 51086.39
882.0352, 51062.81
882.5173, 51095.18
882.9994, 51116.80
883.4815, 51105.73
883.9636, 51072.90
884.4457, 51049.28
884.9279, 51034.16
885.4100, 51022.17
885.8921, 51009.00
886.3742, 51000.38
886.8563, 51019.83
887.3384, 51045.84
887.8206, 51031.41
888.3027, 50889.74
888.7848, 50806.98
889.2669, 50833.20
889.7490, 50912.77
890.2311, 50937.39
890.7133, 50907.70
891.1954, 50880.41
891.6775, 50869.30
892.1596, 50864.82
892.6417, 50856.18
893.1238, 50846.20
893.6060, 50840.03
894.0881, 50848.43
894.5702, 50845.54
895.0523, 50837.25
895.5344, 50764.32
896.0165, 50815.79
896.4987, 50836.38
896.9808, 50827.77
897.4629, 50702.44
897.9450, 50727.82
898.4271, 50692.80
898.9092, 50655.31
899.3914, 50701.90
899.8735, 50593.55
900.3556, 50638.81
900.8377, 50622.75
901.3198, 50634.75
901.8019, 50585.99
902.2841, 50555.98
902.7662, 50586.78
903.2483, 50583.91
903.7304, 50528.15
904.2125, 50541.94
904.6946, 50431.47
905.1768, 50430.03
905.6589, 50475.64
906.1410, 50422.94
906.6231, 50437.84
907.1052, 50426.99
907.5873, 50299.13
908.0695, 50374.76
908.5516, 50362.39
909.0337, 50259.66
909.5158, 50328.32
909.9979, 50238.05
910.4800, 50201.90
910.9622, 50181.33
911.4443, 50172.84
911.9264, 50176.22
912.4085, 50216.35
912.8906, 50243.05
913.3727, 50215.89
913.8549, 50153.48
914.3370, 50115.71
914.8191, 50109.83
915.3012, 50120.47
915.7833, 50159.75
916.2654, 50191.94
916.7476, 50115.38
917.2297, 49966.71
917.7118, 49890.02
918.1939, 49959.67
918.6760, 50047.83
919.1581, 50083.71
919.6403, 50082.62
920.1224, 50064.12
920.6045, 50031.72
921.0866, 49975.40
921.5687, 49877.32
922.0508, 49788.09
922.5330, 49787.66
923.0151, 49848.02
923.4972, 49824.42
923.9793, 49690.22
924.4614, 49598.21
924.9435, 49730.07
925.4257, 49904.45
925.9078, 49957.80
926.3899, 49833.30
926.8720, 49762.45
927.3541, 49769.83
927.8362, 49788.39
928.3184, 49782.77
928.8005, 49755.23
929.2826, 49706.58
929.7647, 49640.65
930.2468, 49599.59
930.7289, 49639.88
931.2111, 49688.52
931.6932, 49690.45
932.1753, 49651.45
932.6574, 49619.91
933.1395, 49594.00
933.6216, 49586.69
934.1038, 49609.02
934.5859, 49645.22
935.0680, 49658.67
935.5501, 49650.16
936.0322, 49621.85
936.5143, 49559.11
936.9965, 49500.51
937.4786, 49466.15
937.9607, 49455.46
938.4428, 49471.27
938.9249, 49562.36
939.4070, 49578.93
939.8892, 49483.32
940.3713, 49364.82
940.8534, 49352.13
941.3355, 49417.13
941.8176, 49441.09
942.2997, 49403.46
942.7819, 49351.05
943.2640, 49285.99
943.7461, 49242.91
944.2282, 49265.29
944.7103, 49385.42
945.1924, 49430.31
945.6746, 49362.09
946.1567, 49303.27
946.6388, 49365.36
947.1209, 49499.68
947.6030, 49482.75
948.0851, 49332.57
948.5673, 49185.16
949.0494, 49100.61
949.5315, 49064.27
950.0136, 49096.55
950.4957, 49176.55
950.9778, 49195.22
951.4600, 49115.29
951.9421, 49072.97
952.4242, 49115.02
952.9063, 49196.13
953.3884, 49236.14
953.8705, 49238.64
954.3527, 49214.40
954.8348, 49159.75
955.3169, 49092.22
955.7990, 48983.28
956.2811, 48885.27
956.7632, 48869.85
957.2454, 48980.54
957.7275, 49040.90
958.2096, 49034.70
958.6917, 49009.76
959.1738, 49019.98
959.6559, 49046.54
960.1381, 49041.35
960.6202, 48998.77
961.1023, 48970.04
961.5844, 49000.55
962.0665, 49034.59
962.5486, 49037.02
963.0308, 49009.36
963.5129, 48996.31
963.9950, 49000.93
964.4771, 49000.36
964.9592, 48980.81
965.4413, 48950.88
965.9235, 48919.85
966.4056, 48890.48
966.8877, 48871.71
967.3698, 48863.74
967.8519, 48871.34
968.3340, 48904.46
968.8162, 48948.98
969.2983, 48976.88
969.7804, 48985.66
970.2625, 49018.52
970.7446, 49086.93
971.2267, 49163.79
971.7089, 49224.33
972.1910, 49270.48
972.6731, 49295.52
973.1552, 49277.88
973.6373, 49315.37
974.1194, 49469.24
974.6016, 49631.16
975.0837, 49730.27
975.5658, 49768.98
976.0479, 49861.55
976.5300, 50007.01
977.0121, 50125.60
977.4943, 50129.03
977.9764, 50108.98
978.4585, 50141.59
978.9406, 50223.53
979.4227, 50323.76
979.9048, 50462.62
980.3870, 50572.60
980.8691, 50636.76
981.3512, 50667.61
981.8333, 50700.72
982.3154, 50727.90
982.7975, 50702.89
983.2797, 50585.69
983.7618, 50481.90
984.2439, 50524.73
984.7260, 50588.03
985.2081, 50508.50
985.6902, 50181.67
986.1724, 50003.25
986.6545, 50015.70
987.1366, 50051.27
987.6187, 49953.79
988.1008, 49773.23
988.5829, 49621.08
989.0651, 49502.45
989.5472, 49401.15
990.0293, 49312.44
990.5114, 49235.55
990.9935, 49180.18
991.4756, 49137.63
991.9578, 49061.90
992.4399, 48946.11
992.9220, 48858.97
993.4041, 48836.22
993.8862, 48830.60
994.3683, 48767.75
994.8505, 48675.71
995.3326, 48605.59
995.8147, 48604.25
996.2968, 48576.98
996.7789, 48506.99
997.2610, 48410.91
997.7432, 48283.00
998.2253, 48125.06
998.7074, 48062.73
999.1895, 48103.93
999.6716, 48143.64
1000.154, 48077.88
1000.636, 47986.31
1001.118, 47945.16
1001.600, 47957.34
1002.082, 47940.06
1002.564, 47861.78
1003.046, 47812.09
1003.529, 47831.85
1004.011, 47891.00
1004.493, 47916.85
1004.975, 47915.29
1005.457, 47907.62
1005.939, 47911.76
1006.421, 47896.26
1006.903, 47817.36
1007.385, 47724.50
1007.868, 47684.16
1008.350, 47714.46
1008.832, 47726.19
1009.314, 47713.73
1009.796, 47691.75
1010.278, 47672.91
1010.760, 47653.77
1011.242, 47622.59
1011.725, 47579.70
1012.207, 47556.31
1012.689, 47581.63
1013.171, 47608.57
1013.653, 47622.92
1014.135, 47626.19
1014.617, 47622.98
1015.099, 47613.44
1015.581, 47598.89
1016.064, 47576.23
1016.546, 47555.12
1017.028, 47553.25
1017.510, 47555.06
1017.992, 47536.21
1018.474, 47455.75
1018.956, 47431.40
1019.438, 47485.77
1019.921, 47546.36
1020.403, 47520.56
1020.885, 47449.59
1021.367, 47459.49
1021.849, 47552.60
1022.331, 47644.37
1022.813, 47699.78
1023.295, 47730.92
1023.778, 47735.32
1024.260, 47720.76
1024.742, 47708.49
1025.224, 47696.17
1025.706, 47720.51
1026.188, 47808.96
1026.670, 47905.53
1027.152, 47924.75
1027.634, 47909.53
1028.117, 47929.80
1028.599, 48032.56
1029.081, 48108.71
1029.563, 48132.16
1030.045, 48155.05
1030.527, 48224.36
1031.009, 48332.47
1031.491, 48431.91
1031.974, 48520.89
1032.456, 48613.47
1032.938, 48748.93
1033.420, 48861.18
1033.902, 48899.04
1034.384, 48877.59
1034.866, 48860.46
1035.348, 48840.97
1035.830, 48859.56
1036.313, 48936.12
1036.795, 49027.33
1037.277, 49112.44
1037.759, 49157.43
1038.241, 49092.78
1038.723, 48860.11
1039.205, 48653.93
1039.687, 48525.89
1040.169, 48423.34
1040.652, 48326.31
1041.134, 48231.36
1041.616, 48104.47
1042.098, 47947.44
1042.580, 47780.99
1043.062, 47596.68
1043.544, 47428.28
1044.026, 47301.97
1044.509, 47208.57
1044.991, 47102.68
1045.473, 46964.85
1045.955, 46977.04
1046.437, 46958.34
1046.919, 46910.43
1047.401, 46745.81
1047.883, 46731.89
1048.365, 46657.60
1048.848, 46580.69
1049.330, 46588.00
1049.812, 46440.36
1050.294, 46446.33
1050.776, 46390.98
1051.258, 46363.68
1051.740, 46275.64
1052.222, 46206.35
1052.704, 46197.86
1053.187, 46155.59
1053.669, 46060.55
1054.151, 46035.04
1054.633, 45885.28
1055.115, 45759.70
1055.597, 45775.50
1056.079, 45803.79
1056.561, 45846.75
1057.044, 45883.82
1057.526, 45904.54
1058.008, 45901.25
1058.490, 45841.36
1058.972, 45730.21
1059.454, 45656.38
1059.936, 45684.48
1060.418, 45716.98
1060.901, 45728.12
1061.383, 45722.11
1061.865, 45705.89
1062.347, 45681.52
1062.829, 45662.96
1063.311, 45655.28
1063.793, 45651.26
1064.275, 45655.03
1064.757, 45653.91
1065.240, 45629.58
1065.722, 45572.76
1066.204, 45544.31
1066.686, 45546.44
1067.168, 45563.41
1067.650, 45610.52
1068.132, 45650.30
1068.614, 45593.30
1069.096, 45476.84
1069.579, 45417.48
1070.061, 45534.59
1070.543, 45596.96
1071.025, 45552.96
1071.507, 45468.11
1071.989, 45431.41
1072.471, 45436.25
1072.953, 45467.85
1073.436, 45527.85
1073.918, 45552.79
1074.400, 45443.94
1074.882, 45341.14
1075.364, 45359.03
1075.846, 45474.13
1076.328, 45491.83
1076.810, 45404.66
1077.292, 45328.02
1077.775, 45312.78
1078.257, 45313.07
1078.739, 45284.71
1079.221, 45232.52
1079.703, 45162.55
1080.185, 45046.43
1080.667, 44975.36
1081.149, 44965.56
1081.631, 44962.84
1082.114, 44917.99
1082.596, 44848.54
1083.078, 44797.36
1083.560, 44764.89
1084.042, 44742.98
1084.524, 44744.71
1085.006, 44735.66
1085.488, 44699.81
1085.971, 44651.31
1086.453, 44613.06
1086.935, 44585.05
1087.417, 44573.67
1087.899, 44582.88
1088.381, 44584.02
1088.863, 44547.13
1089.345, 44497.12
1089.828, 44448.14
1090.310, 44401.67
1090.792, 44386.43
1091.274, 44408.20
1091.756, 44432.71
1092.238, 44448.26
1092.720, 44456.26
1093.202, 44464.47
1093.684, 44465.21
1094.167, 44442.92
1094.649, 44370.16
1095.131, 44317.78
1095.613, 44290.79
1096.095, 44282.63
1096.577, 44297.99
1097.059, 44327.52
1097.541, 44341.83
1098.024, 44338.95
1098.506, 44311.60
1098.988, 44216.42
1099.470, 44142.32
1099.952, 44136.01
1100.434, 44164.91
1100.916, 44182.27
1101.398, 44187.92
1101.880, 44152.71
1102.363, 44068.68
1102.845, 43981.26
1103.327, 43910.60
1103.809, 43868.82
1104.291, 43881.18
1104.773, 43946.98
1105.255, 43981.65
1105.737, 43982.26
1106.219, 43960.52
1106.702, 43909.88
1107.184, 43858.42
1107.666, 43862.01
1108.148, 43889.04
1108.630, 43884.95
1109.112, 43813.45
1109.594, 43762.60
1110.076, 43733.91
1110.559, 43732.55
1111.041, 43782.57
1111.523, 43860.46
1112.005, 43887.22
1112.487, 43866.95
1112.969, 43817.86
1113.451, 43683.22
1113.933, 43604.87
1114.416, 43654.93
1114.898, 43755.40
1115.380, 43813.15
1115.862, 43828.81
1116.344, 43798.62
1116.826, 43721.04
1117.308, 43652.89
1117.790, 43662.33
1118.272, 43671.91
1118.755, 43599.10
1119.237, 43474.13
1119.719, 43461.03
1120.201, 43578.02
1120.683, 43652.34
1121.165, 43634.41
1121.647, 43576.31
1122.129, 43517.21
1122.611, 43462.30
1123.094, 43419.29
1123.576, 43392.52
1124.058, 43359.39
1124.540, 43312.07
1125.022, 43282.35
1125.504, 43290.82
1125.986, 43323.49
1126.468, 43370.25
1126.951, 43417.90
1127.433, 43436.07
1127.915, 43394.54
1128.397, 43350.99
1128.879, 43312.57
1129.361, 43272.01
1129.843, 43210.55
1130.325, 43141.56
1130.807, 43128.09
1131.290, 43165.14
1131.772, 43201.88
1132.254, 43239.14
1132.736, 43236.09
1133.218, 43154.95
1133.700, 43042.43
1134.182, 42978.13
1134.664, 42958.43
1135.146, 42933.08
1135.629, 42892.20
1136.111, 42890.32
1136.593, 43047.09
1137.075, 43189.36
1137.557, 43163.40
1138.039, 43004.07
1138.521, 42891.10
1139.003, 42824.48
1139.486, 42814.37
1139.968, 42885.95
1140.450, 42952.31
1140.932, 42887.70
1141.414, 42787.16
1141.896, 42770.91
1142.378, 42877.37
1142.860, 42935.41
1143.343, 42942.55
1143.825, 42906.60
1144.307, 42789.39
1144.789, 42674.66
1145.271, 42727.96
1145.753, 42872.68
1146.235, 42951.32
1146.717, 42858.96
1147.199, 42795.93
1147.682, 42768.41
1148.164, 42763.66
1148.646, 42792.71
1149.128, 42829.20
1149.610, 42792.37
1150.092, 42699.34
1150.574, 42641.42
1151.056, 42717.16
1151.538, 42742.80
1152.021, 42666.22
1152.503, 42550.32
1152.985, 42476.45
1153.467, 42439.05
1153.949, 42418.23
1154.431, 42411.79
1154.913, 42415.55
1155.395, 42437.47
1155.878, 42457.76
1156.360, 42466.53
1156.842, 42468.94
1157.324, 42479.77
1157.806, 42497.80
1158.288, 42518.82
1158.770, 42546.67
1159.252, 42553.27
1159.734, 42483.26
1160.217, 42418.26
1160.699, 42437.11
1161.181, 42523.90
1161.663, 42500.13
1162.145, 42369.84
1162.627, 42251.48
1163.109, 42187.60
1163.591, 42162.27
1164.073, 42189.89
1164.556, 42233.38
1165.038, 42248.06
1165.520, 42227.99
1166.002, 42207.79
1166.484, 42186.38
1166.966, 42178.59
1167.448, 42215.70
1167.930, 42251.02
1168.413, 42234.04
1168.895, 42183.76
1169.377, 42136.97
1169.859, 42094.49
1170.341, 42064.29
1170.823, 42047.94
1171.305, 42037.30
1171.787, 42019.27
1172.270, 42006.95
1172.752, 42032.68
1173.234, 42082.69
1173.716, 42084.53
1174.198, 41999.49
1174.680, 41949.91
1175.162, 41957.63
1175.644, 41989.69
1176.126, 42029.42
1176.609, 42056.16
1177.091, 42025.25
1177.573, 41934.78
1178.055, 41874.05
1178.537, 41930.88
1179.019, 41956.83
1179.501, 41953.57
1179.983, 41833.60
1180.465, 41864.34
1180.948, 41834.66
1181.430, 41802.52
1181.912, 41854.47
1182.394, 41751.48
1182.876, 41802.09
1183.358, 41791.39
1183.840, 41808.75
1184.322, 41765.34
1184.805, 41740.68
1185.287, 41776.83
1185.769, 41779.32
1186.251, 41728.92
1186.733, 41748.06
1187.215, 41642.95
1187.697, 41646.88
1188.179, 41697.85
1188.661, 41650.50
1189.144, 41670.73
1189.626, 41665.24
1190.108, 41542.74
1190.590, 41623.73
1191.072, 41616.72
1191.554, 41519.35
1192.036, 41546.45
1192.518, 41609.33
1193.000, 41669.93
1193.483, 41645.84
1193.965, 41552.12
1194.447, 41479.55
1194.929, 41508.89
1195.411, 41520.86
1195.893, 41459.19
1196.375, 41383.20
1196.857, 41370.89
1197.340, 41410.58
1197.822, 41435.76
1198.304, 41441.87
1198.786, 41430.46
1199.268, 41374.13
1199.750, 41335.00
1200.232, 41350.95
1200.714, 41386.88
1201.197, 41372.92
1201.679, 41319.18
1202.161, 41300.02
1202.643, 41326.61
1203.125, 41326.59
1203.607, 41200.08
1204.089, 41098.97
1204.571, 41118.22
1205.053, 41204.03
1205.536, 41211.21
1206.018, 41150.79
1206.500, 41095.49
1206.982, 41058.30
1207.464, 41048.03
1207.946, 41084.13
1208.428, 41138.01
1208.910, 41200.70
1209.392, 41264.13
1209.875, 41292.04
1210.357, 41285.98
1210.839, 41248.79
1211.321, 41164.77
1211.803, 41103.73
1212.285, 41130.91
1212.767, 41175.07
1213.249, 41188.14
1213.732, 41171.88
1214.214, 41132.33
1214.696, 41073.33
1215.178, 41026.62
1215.660, 41016.94
1216.142, 40997.83
1216.624, 40919.18
1217.106, 40840.67
1217.589, 40819.71
1218.071, 40852.51
1218.553, 40843.54
1219.035, 40797.64
1219.517, 40759.80
1219.999, 40761.77
1220.481, 40765.11
1220.963, 40745.68
1221.445, 40722.55
1221.927, 40719.43
1222.410, 40735.97
1222.892, 40704.61
1223.374, 40632.65
1223.856, 40596.50
1224.338, 40691.99
1224.820, 40774.08
1225.302, 40750.98
1225.784, 40693.20
1226.267, 40685.22
1226.749, 40721.30
1227.231, 40711.87
1227.713, 40655.91
1228.195, 40594.04
1228.677, 40524.77
1229.159, 40486.46
1229.641, 40512.63
1230.124, 40565.64
1230.606, 40600.33
1231.088, 40617.18
1231.570, 40622.14
1232.052, 40615.20
1232.534, 40585.90
1233.016, 40496.96
1233.498, 40421.16
1233.980, 40387.59
1234.463, 40382.98
1234.945, 40385.64
1235.427, 40396.82
1235.909, 40439.05
1236.391, 40514.68
1236.873, 40543.86
1237.355, 40419.46
1237.837, 40315.19
1238.320, 40303.26
1238.802, 40344.10
1239.284, 40359.75
1239.766, 40356.22
1240.248, 40356.10
1240.730, 40363.14
1241.212, 40373.27
1241.694, 40394.69
1242.177, 40406.97
1242.659, 40406.31
1243.141, 40388.97
1243.623, 40334.75
1244.105, 40257.83
1244.587, 40193.26
1245.069, 40147.16
1245.551, 40125.33
1246.033, 40152.66
1246.516, 40173.53
1246.998, 40161.97
1247.480, 40139.25
1247.962, 40168.43
1248.444, 40224.12
1248.926, 40240.74
1249.408, 40192.03
1249.890, 40159.62
1250.372, 40166.05
1250.855, 40181.93
1251.337, 40209.78
1251.819, 40221.46
1252.301, 40116.32
1252.783, 39960.20
1253.265, 39895.79
1253.747, 39993.37
1254.229, 40055.27
1254.712, 40054.94
1255.194, 40040.15
1255.676, 40036.20
1256.158, 40030.48
1256.640, 39990.97
1257.122, 39935.86
1257.604, 39897.79
1258.086, 39888.14
1258.568, 39887.86
1259.051, 39896.31
1259.533, 39915.85
1260.015, 39960.02
1260.497, 40001.88
1260.979, 40000.49
1261.461, 39970.57
1261.943, 39936.41
1262.425, 39903.83
1262.907, 39857.31
1263.390, 39793.52
1263.872, 39741.20
1264.354, 39725.13
1264.836, 39721.11
1265.318, 39704.68
1265.800, 39682.15
1266.282, 39661.14
1266.764, 39634.31
1267.247, 39656.23
1267.729, 39730.68
1268.211, 39779.78
1268.693, 39730.93
1269.175, 39662.30
1269.657, 39624.05
1270.139, 39611.48
1270.621, 39621.62
1271.104, 39659.64
1271.586, 39662.18
1272.068, 39628.75
1272.550, 39571.42
1273.032, 39430.27
1273.514, 39343.86
1273.996, 39463.06
1274.478, 39622.73
1274.960, 39620.87
1275.443, 39469.53
1275.925, 39426.61
1276.407, 39483.49
1276.889, 39508.32
1277.371, 39362.52
1277.853, 39262.00
1278.335, 39314.52
1278.817, 39400.40
1279.299, 39371.53
1279.782, 39268.11
1280.264, 39290.92
1280.746, 39416.92
1281.228, 39488.46
1281.710, 39387.56
1282.192, 39286.84
1282.674, 39203.35
1283.156, 39154.24
1283.639, 39186.17
1284.121, 39255.96
1284.603, 39253.41
1285.085, 39196.00
1285.567, 39181.87
1286.049, 39310.94
1286.531, 39344.71
1287.013, 39239.38
1287.495, 39112.65
1287.978, 39090.45
1288.460, 39117.57
1288.942, 39129.29
1289.424, 39124.07
1289.906, 39107.58
1290.388, 39075.52
1290.870, 39052.01
1291.352, 39039.39
1291.834, 39034.66
1292.317, 39042.44
1292.799, 39050.15
1293.281, 39051.39
1293.763, 39041.45
1294.245, 39008.54
1294.727, 38948.63
1295.209, 38906.01
1295.691, 38884.54
1296.174, 38872.10
1296.656, 38851.57
1297.138, 38845.46
1297.620, 38888.83
1298.102, 38945.29
1298.584, 38958.99
1299.066, 38932.73
1299.548, 38873.19
1300.031, 38785.93
1300.513, 38741.72
1300.995, 38844.29
1301.477, 38912.76
1301.959, 38879.57
1302.441, 38802.66
1302.923, 38756.51
1303.405, 38732.84
1303.887, 38703.68
1304.370, 38669.24
##END=



