##NAMES=Jagoite
##RRUFFID=R090028
##IDEAL CHEMISTRY=Pb^2+^_9_Fe^3+^_2_[Si_2_(Si,Fe^3+^)_3_][Pb^2+^_2_Si_8_(Si,Fe^3+^)_2_]O_41_Cl_3_
##LOCALITY=Langban, Filipstad, Varmland, Sweden
##OWNER=RRUFF
##SOURCE=William W. Pinch
##DESCRIPTION=Yellowish green translucent fine-grained micaceous aggregates of plates on matrix.
##STATUS=The identification of this mineral has been confirmed by single-crystal X-ray diffraction.
##URL=rruff.info/R090028
90.92609, 0.0000000E+00
91.40820, 232.3370
91.89032, 230.8304
92.37244, 231.5021
92.85455, 234.0374
93.33667, 236.5560
93.81879, 237.4719
94.30090, 237.2637
94.78302, 237.4146
95.26514, 238.2935
95.74725, 239.6694
96.22937, 241.2406
96.71149, 243.0369
97.19360, 244.5313
97.67572, 244.4934
98.15784, 242.9719
98.63995, 243.2416
99.12207, 247.0801
99.60419, 253.8661
100.0863, 258.0531
100.5684, 258.9263
101.0505, 258.6370
101.5327, 259.6700
102.0148, 261.9269
102.4969, 265.8701
102.9790, 272.1728
103.4611, 281.3952
103.9432, 289.2924
104.4253, 294.3396
104.9075, 298.8551
105.3896, 307.2254
105.8717, 320.0760
106.3538, 336.0563
106.8359, 354.9438
107.3180, 376.4543
107.8002, 401.0128
108.2823, 427.7983
108.7644, 457.3974
109.2465, 493.2037
109.7286, 536.4016
110.2107, 584.5057
110.6929, 637.2600
111.1750, 692.0801
111.6571, 753.7463
112.1392, 822.9658
112.6213, 899.5457
113.1034, 983.3994
113.5856, 1071.491
114.0677, 1169.679
114.5498, 1281.217
115.0319, 1404.184
115.5140, 1543.907
115.9961, 1701.336
116.4783, 1876.482
116.9604, 2066.956
117.4425, 2281.368
117.9246, 2510.276
118.4067, 2741.200
118.8888, 2973.816
119.3710, 3206.563
119.8531, 3441.856
120.3352, 3680.028
120.8173, 3909.371
121.2994, 4120.086
121.7815, 4315.115
122.2637, 4500.354
122.7458, 4670.659
123.2279, 4834.447
123.7100, 4996.712
124.1921, 5156.170
124.6742, 5321.704
125.1564, 5497.030
125.6385, 5684.021
126.1206, 5889.518
126.6027, 6116.755
127.0848, 6363.680
127.5669, 6626.733
128.0491, 6907.702
128.5312, 7199.847
129.0133, 7496.683
129.4954, 7795.610
129.9775, 8097.443
130.4596, 8409.894
130.9418, 8725.491
131.4239, 9026.564
131.9060, 9308.479
132.3881, 9576.033
132.8702, 9836.254
133.3523, 10090.73
133.8345, 10333.70
134.3166, 10559.97
134.7987, 10771.33
135.2808, 10968.17
135.7629, 11151.47
136.2450, 11323.55
136.7272, 11490.25
137.2093, 11652.18
137.6914, 11809.92
138.1735, 11961.61
138.6556, 12103.73
139.1377, 12253.94
139.6199, 12420.66
140.1020, 12602.35
140.5841, 12778.71
141.0662, 12943.29
141.5483, 13108.42
142.0304, 13289.82
142.5126, 13489.20
142.9947, 13691.74
143.4768, 13847.99
143.9589, 13924.52
144.4410, 14012.21
144.9231, 14118.39
145.4053, 14231.41
145.8874, 14335.25
146.3695, 14423.11
146.8516, 14511.65
147.3337, 14605.88
147.8158, 14715.58
148.2980, 14810.64
148.7801, 14883.29
149.2622, 14943.73
149.7443, 15010.44
150.2264, 15099.70
150.7085, 15182.00
151.1907, 15246.11
151.6728, 15283.14
152.1549, 15319.85
152.6370, 15354.65
153.1191, 15389.17
153.6012, 15426.94
154.0834, 15478.49
154.5655, 15524.72
155.0476, 15557.27
155.5297, 15558.46
156.0118, 15567.25
156.4939, 15592.77
156.9761, 15630.63
157.4582, 15665.90
157.9403, 15691.45
158.4224, 15715.91
158.9045, 15744.40
159.3866, 15776.37
159.8688, 15813.90
160.3509, 15859.09
160.8330, 15910.91
161.3151, 15964.23
161.7972, 16022.45
162.2793, 16079.08
162.7615, 16129.14
163.2436, 16167.30
163.7257, 16202.63
164.2078, 16237.59
164.6899, 16272.46
165.1720, 16309.58
165.6541, 16351.75
166.1363, 16395.81
166.6184, 16438.68
167.1005, 16478.94
167.5826, 16517.65
168.0647, 16556.45
168.5468, 16595.10
169.0290, 16631.00
169.5111, 16662.45
169.9932, 16690.27
170.4753, 16715.62
170.9574, 16734.52
171.4395, 16753.81
171.9217, 16780.30
172.4038, 16814.09
172.8859, 16849.61
173.3680, 16883.45
173.8501, 16916.12
174.3322, 16949.04
174.8144, 16979.13
175.2965, 17011.81
175.7786, 17053.54
176.2607, 17104.82
176.7428, 17160.18
177.2249, 17218.73
177.7071, 17277.56
178.1892, 17331.05
178.6713, 17378.32
179.1534, 17417.96
179.6355, 17445.47
180.1176, 17459.81
180.5998, 17470.81
181.0819, 17489.52
181.5640, 17513.76
182.0461, 17536.93
182.5282, 17557.51
183.0103, 17574.36
183.4925, 17584.40
183.9746, 17587.16
184.4567, 17584.59
184.9388, 17578.63
185.4209, 17569.38
185.9030, 17557.39
186.3852, 17542.42
186.8673, 17525.09
187.3494, 17506.75
187.8315, 17487.79
188.3136, 17467.77
188.7957, 17445.62
189.2779, 17421.67
189.7600, 17395.69
190.2421, 17365.18
190.7242, 17331.87
191.2063, 17304.72
191.6884, 17284.50
192.1706, 17269.53
192.6527, 17258.90
193.1348, 17252.56
193.6169, 17243.06
194.0990, 17224.16
194.5811, 17196.49
195.0633, 17171.93
195.5454, 17150.93
196.0275, 17132.68
196.5096, 17117.28
196.9917, 17104.90
197.4738, 17092.71
197.9560, 17079.43
198.4381, 17065.31
198.9202, 17051.09
199.4023, 17036.93
199.8844, 17023.46
200.3665, 17011.00
200.8487, 16999.19
201.3308, 16992.01
201.8129, 16994.32
202.2950, 17007.45
202.7771, 17012.68
203.2592, 17005.54
203.7414, 16994.34
204.2235, 16999.37
204.7056, 17024.64
205.1877, 17049.58
205.6698, 17062.15
206.1519, 17059.56
206.6341, 17061.11
207.1162, 17067.67
207.5983, 17077.97
208.0804, 17089.99
208.5625, 17104.18
209.0446, 17118.03
209.5268, 17130.18
210.0089, 17140.23
210.4910, 17150.63
210.9731, 17161.39
211.4552, 17172.87
211.9373, 17186.76
212.4195, 17205.64
212.9016, 17220.95
213.3837, 17227.02
213.8658, 17220.00
214.3479, 17218.53
214.8300, 17224.04
215.3121, 17234.62
215.7943, 17245.95
216.2764, 17258.15
216.7585, 17270.06
217.2406, 17281.23
217.7227, 17291.42
218.2048, 17300.46
218.6870, 17308.94
219.1691, 17315.49
219.6512, 17316.22
220.1333, 17307.04
220.6154, 17299.29
221.0975, 17298.50
221.5797, 17308.25
222.0618, 17314.92
222.5439, 17318.23
223.0260, 17319.01
223.5081, 17319.24
223.9902, 17320.40
224.4724, 17319.38
224.9545, 17313.87
225.4366, 17299.74
225.9187, 17294.38
226.4008, 17301.46
226.8829, 17315.90
227.3651, 17326.69
227.8472, 17332.31
228.3293, 17336.91
228.8114, 17341.65
229.2935, 17345.72
229.7757, 17352.09
230.2578, 17362.94
230.7399, 17374.52
231.2220, 17378.84
231.7041, 17370.06
232.1862, 17362.54
232.6684, 17360.65
233.1505, 17363.84
233.6326, 17374.35
234.1147, 17395.69
234.5968, 17422.35
235.0789, 17444.32
235.5611, 17461.67
236.0432, 17474.35
236.5253, 17481.94
237.0074, 17483.13
237.4895, 17483.57
237.9716, 17480.31
238.4538, 17478.29
238.9359, 17486.70
239.4180, 17514.57
239.9001, 17538.47
240.3822, 17549.63
240.8643, 17543.92
241.3465, 17545.00
241.8286, 17556.88
242.3107, 17572.64
242.7928, 17581.89
243.2749, 17579.86
243.7570, 17579.24
244.2392, 17583.54
244.7213, 17593.46
245.2034, 17604.14
245.6855, 17615.50
246.1676, 17627.89
246.6497, 17642.32
247.1319, 17661.70
247.6140, 17678.29
248.0961, 17689.49
248.5782, 17694.67
249.0603, 17702.63
249.5424, 17715.16
250.0246, 17729.24
250.5067, 17741.13
250.9888, 17747.68
251.4709, 17758.52
251.9530, 17777.12
252.4351, 17804.04
252.9173, 17826.26
253.3994, 17840.34
253.8815, 17853.24
254.3636, 17873.18
254.8457, 17906.37
255.3278, 17930.69
255.8100, 17937.74
256.2921, 17928.14
256.7742, 17931.54
257.2563, 17953.93
257.7384, 17981.13
258.2205, 18000.88
258.7026, 18010.75
259.1848, 18020.27
259.6669, 18031.65
260.1490, 18044.58
260.6311, 18053.40
261.1132, 18056.05
261.5953, 18058.72
262.0775, 18066.46
262.5596, 18081.58
263.0417, 18095.41
263.5238, 18106.22
264.0059, 18114.83
264.4880, 18126.58
264.9702, 18142.50
265.4523, 18158.63
265.9344, 18173.19
266.4165, 18187.34
266.8986, 18194.14
267.3807, 18188.42
267.8629, 18176.62
268.3450, 18182.23
268.8271, 18212.88
269.3092, 18242.91
269.7913, 18259.27
270.2734, 18260.64
270.7556, 18254.69
271.2377, 18238.52
271.7198, 18218.68
272.2019, 18209.78
272.6840, 18213.23
273.1661, 18224.11
273.6483, 18241.48
274.1304, 18266.01
274.6125, 18291.54
275.0946, 18318.77
275.5767, 18345.04
276.0588, 18363.04
276.5410, 18369.60
277.0231, 18381.54
277.5052, 18408.45
277.9873, 18450.36
278.4694, 18482.73
278.9515, 18503.44
279.4337, 18517.69
279.9158, 18532.01
280.3979, 18546.17
280.8800, 18561.01
281.3621, 18579.49
281.8442, 18600.31
282.3264, 18606.92
282.8085, 18596.69
283.2906, 18582.68
283.7727, 18579.25
284.2548, 18586.71
284.7369, 18600.17
285.2191, 18621.97
285.7012, 18648.52
286.1833, 18663.43
286.6654, 18665.33
287.1475, 18665.34
287.6296, 18675.80
288.1118, 18695.37
288.5939, 18710.23
289.0760, 18715.12
289.5581, 18714.49
290.0402, 18720.35
290.5223, 18732.79
291.0045, 18745.93
291.4866, 18754.91
291.9687, 18760.55
292.4508, 18767.52
292.9329, 18777.76
293.4150, 18788.19
293.8972, 18794.47
294.3793, 18796.76
294.8614, 18795.16
295.3435, 18784.29
295.8256, 18769.56
296.3077, 18767.33
296.7899, 18781.94
297.2720, 18803.17
297.7541, 18817.40
298.2362, 18826.01
298.7183, 18835.30
299.2004, 18851.38
299.6826, 18869.72
300.1647, 18881.05
300.6468, 18883.48
301.1289, 18884.45
301.6110, 18891.97
302.0931, 18903.90
302.5753, 18915.19
303.0574, 18922.96
303.5395, 18928.75
304.0216, 18934.09
304.5037, 18939.07
304.9858, 18944.55
305.4680, 18952.16
305.9501, 18960.91
306.4322, 18969.02
306.9143, 18975.54
307.3964, 18981.85
307.8785, 18988.96
308.3607, 18997.09
308.8428, 19006.98
309.3249, 19021.03
309.8070, 19036.52
310.2891, 19050.12
310.7712, 19060.17
311.2534, 19068.87
311.7355, 19075.66
312.2176, 19081.49
312.6997, 19090.34
313.1818, 19106.31
313.6639, 19124.53
314.1461, 19141.52
314.6282, 19156.79
315.1103, 19169.62
315.5924, 19179.21
316.0745, 19186.08
316.5566, 19191.42
317.0388, 19193.91
317.5209, 19196.49
318.0030, 19202.05
318.4851, 19212.65
318.9672, 19219.71
319.4493, 19218.58
319.9315, 19212.92
320.4136, 19207.46
320.8957, 19197.82
321.3778, 19193.92
321.8599, 19202.09
322.3420, 19223.85
322.8242, 19241.81
323.3063, 19250.37
323.7884, 19254.44
324.2705, 19258.33
324.7526, 19261.26
325.2347, 19265.57
325.7169, 19269.37
326.1990, 19273.28
326.6811, 19285.43
327.1632, 19318.12
327.6453, 19351.16
328.1274, 19373.33
328.6096, 19374.01
329.0917, 19376.73
329.5738, 19381.46
330.0559, 19388.52
330.5380, 19399.52
331.0201, 19421.16
331.5023, 19439.52
331.9844, 19447.67
332.4665, 19437.49
332.9486, 19437.07
333.4307, 19450.65
333.9128, 19471.71
334.3950, 19488.51
334.8771, 19497.24
335.3592, 19509.21
335.8413, 19530.42
336.3234, 19563.10
336.8055, 19581.42
337.2877, 19579.08
337.7698, 19570.69
338.2519, 19572.24
338.7340, 19585.54
339.2161, 19602.29
339.6982, 19623.31
340.1803, 19646.70
340.6624, 19657.45
341.1446, 19652.41
341.6267, 19645.84
342.1088, 19648.80
342.5909, 19661.54
343.0730, 19677.75
343.5551, 19699.67
344.0373, 19720.67
344.5194, 19721.15
345.0015, 19700.09
345.4836, 19679.26
345.9657, 19671.82
346.4478, 19675.92
346.9300, 19684.19
347.4121, 19698.45
347.8942, 19709.16
348.3763, 19697.98
348.8584, 19669.13
349.3405, 19646.43
349.8227, 19648.96
350.3048, 19663.67
350.7869, 19659.33
351.2690, 19635.71
351.7511, 19612.75
352.2332, 19611.14
352.7154, 19624.06
353.1975, 19636.43
353.6796, 19640.57
354.1617, 19644.83
354.6438, 19659.61
355.1259, 19683.21
355.6081, 19707.64
356.0902, 19732.30
356.5723, 19752.65
357.0544, 19760.87
357.5365, 19747.99
358.0186, 19739.09
358.5008, 19758.76
358.9829, 19795.01
359.4650, 19822.40
359.9471, 19822.25
360.4292, 19814.65
360.9113, 19811.98
361.3935, 19816.17
361.8756, 19821.84
362.3577, 19829.55
362.8398, 19837.17
363.3219, 19842.21
363.8040, 19848.40
364.2862, 19848.40
364.7683, 19833.58
365.2504, 19805.49
365.7325, 19791.02
366.2146, 19803.08
366.6967, 19825.56
367.1789, 19848.47
367.6610, 19876.39
368.1431, 19898.06
368.6252, 19912.53
369.1073, 19920.23
369.5894, 19922.54
370.0716, 19910.50
370.5537, 19902.15
371.0358, 19904.17
371.5179, 19919.68
372.0000, 19935.76
372.4821, 19951.00
372.9643, 19967.37
373.4464, 19988.67
373.9285, 20019.54
374.4106, 20044.15
374.8927, 20056.09
375.3748, 20055.92
375.8570, 20063.71
376.3391, 20080.89
376.8212, 20102.43
377.3033, 20125.14
377.7854, 20149.09
378.2675, 20172.72
378.7497, 20197.14
379.2318, 20220.21
379.7139, 20235.93
380.1960, 20243.75
380.6781, 20251.03
381.1602, 20264.38
381.6424, 20282.16
382.1245, 20291.71
382.6066, 20291.76
383.0887, 20288.05
383.5708, 20287.22
384.0529, 20288.96
384.5351, 20291.29
385.0172, 20293.56
385.4993, 20295.88
385.9814, 20297.48
386.4635, 20298.44
386.9456, 20302.02
387.4278, 20312.65
387.9099, 20327.03
388.3920, 20340.12
388.8741, 20350.56
389.3562, 20358.93
389.8383, 20366.68
390.3205, 20372.89
390.8026, 20375.10
391.2847, 20365.33
391.7668, 20355.19
392.2489, 20355.46
392.7310, 20369.73
393.2132, 20381.75
393.6953, 20382.07
394.1774, 20376.15
394.6595, 20370.50
395.1416, 20364.51
395.6237, 20361.88
396.1059, 20365.14
396.5880, 20374.06
397.0701, 20383.34
397.5522, 20396.78
398.0343, 20407.15
398.5164, 20410.04
398.9986, 20392.85
399.4807, 20384.45
399.9628, 20390.88
400.4449, 20406.39
400.9270, 20417.49
401.4091, 20419.50
401.8913, 20423.15
402.3734, 20431.75
402.8555, 20445.72
403.3376, 20462.73
403.8197, 20484.60
404.3018, 20507.16
404.7840, 20525.90
405.2661, 20540.03
405.7482, 20552.31
406.2303, 20563.22
406.7124, 20572.38
407.1945, 20577.83
407.6767, 20578.10
408.1588, 20580.47
408.6409, 20592.73
409.1230, 20613.64
409.6051, 20625.79
410.0872, 20626.11
410.5694, 20622.38
411.0515, 20628.12
411.5336, 20641.59
412.0157, 20651.29
412.4978, 20649.17
412.9799, 20641.10
413.4621, 20640.99
413.9442, 20648.81
414.4263, 20653.13
414.9084, 20639.19
415.3905, 20617.09
415.8727, 20603.07
416.3548, 20603.61
416.8369, 20610.09
417.3190, 20617.45
417.8011, 20625.20
418.2832, 20632.07
418.7654, 20635.18
419.2475, 20638.33
419.7296, 20643.61
420.2117, 20650.98
420.6938, 20660.90
421.1759, 20675.63
421.6581, 20691.79
422.1402, 20705.99
422.6223, 20720.40
423.1044, 20729.21
423.5865, 20727.51
424.0686, 20716.94
424.5508, 20710.35
425.0329, 20712.96
425.5150, 20716.69
425.9971, 20717.55
426.4792, 20711.32
426.9613, 20711.71
427.4435, 20721.67
427.9256, 20737.01
428.4077, 20751.63
428.8898, 20767.07
429.3719, 20778.89
429.8540, 20785.26
430.3362, 20786.57
430.8183, 20788.78
431.3004, 20792.28
431.7825, 20795.59
432.2646, 20796.22
432.7467, 20794.13
433.2289, 20796.00
433.7110, 20802.71
434.1931, 20813.38
434.6752, 20828.65
435.1573, 20847.78
435.6394, 20864.02
436.1216, 20873.94
436.6036, 20878.34
437.0858, 20875.86
437.5679, 20866.14
438.0500, 20860.39
438.5321, 20875.99
439.0142, 20900.93
439.4963, 20913.80
439.9785, 20900.42
440.4606, 20884.23
440.9427, 20885.79
441.4248, 20900.61
441.9069, 20915.01
442.3890, 20927.38
442.8712, 20934.13
443.3533, 20930.04
443.8354, 20911.41
444.3175, 20898.85
444.7996, 20903.43
445.2817, 20915.75
445.7639, 20925.98
446.2460, 20924.97
446.7281, 20929.40
447.2102, 20944.25
447.6923, 20967.89
448.1744, 20989.42
448.6566, 21009.87
449.1387, 21026.36
449.6208, 21036.69
450.1029, 21037.79
450.5850, 21041.72
451.0671, 21050.09
451.5493, 21059.50
452.0314, 21064.80
452.5135, 21065.12
452.9956, 21065.68
453.4777, 21068.34
453.9598, 21072.43
454.4420, 21075.64
454.9241, 21078.37
455.4062, 21077.44
455.8883, 21066.36
456.3704, 21048.59
456.8525, 21041.51
457.3347, 21049.13
457.8168, 21060.34
458.2989, 21059.77
458.7810, 21051.24
459.2631, 21045.94
459.7452, 21054.67
460.2274, 21065.65
460.7095, 21063.99
461.1916, 21051.25
461.6737, 21039.14
462.1558, 21030.87
462.6379, 21028.46
463.1201, 21035.39
463.6022, 21057.96
464.0843, 21076.27
464.5664, 21077.11
465.0485, 21069.26
465.5306, 21066.85
466.0128, 21080.19
466.4949, 21092.17
466.9770, 21096.99
467.4591, 21094.24
467.9412, 21092.24
468.4233, 21092.18
468.9055, 21092.27
469.3876, 21091.50
469.8697, 21089.45
470.3518, 21087.91
470.8339, 21085.69
471.3160, 21085.47
471.7982, 21094.53
472.2803, 21116.88
472.7624, 21132.37
473.2445, 21130.10
473.7266, 21114.54
474.2087, 21114.21
474.6909, 21130.24
475.1730, 21149.86
475.6551, 21161.11
476.1372, 21166.06
476.6193, 21174.89
477.1014, 21189.83
477.5836, 21205.44
478.0657, 21213.92
478.5478, 21217.31
479.0299, 21221.61
479.5120, 21234.50
479.9941, 21246.43
480.4763, 21245.40
480.9584, 21232.88
481.4405, 21223.54
481.9226, 21225.53
482.4047, 21234.28
482.8868, 21247.50
483.3690, 21269.66
483.8511, 21285.94
484.3332, 21288.55
484.8153, 21283.44
485.2974, 21280.37
485.7795, 21284.39
486.2617, 21286.66
486.7438, 21282.39
487.2259, 21271.91
487.7080, 21272.42
488.1901, 21291.78
488.6722, 21312.08
489.1544, 21321.68
489.6365, 21316.50
490.1186, 21316.73
490.6007, 21324.25
491.0828, 21335.59
491.5649, 21346.41
492.0471, 21356.66
492.5292, 21363.98
493.0113, 21365.03
493.4934, 21363.53
493.9755, 21372.21
494.4576, 21390.28
494.9398, 21406.06
495.4219, 21407.08
495.9040, 21400.44
496.3861, 21399.22
496.8682, 21405.35
497.3503, 21414.17
497.8325, 21425.29
498.3146, 21436.02
498.7967, 21442.36
499.2788, 21437.76
499.7609, 21433.57
500.2430, 21439.00
500.7252, 21451.28
501.2073, 21457.06
501.6894, 21442.24
502.1715, 21428.89
502.6536, 21428.61
503.1357, 21448.15
503.6179, 21465.08
504.1000, 21476.96
504.5821, 21487.14
505.0642, 21498.82
505.5463, 21512.40
506.0284, 21525.58
506.5106, 21536.86
506.9927, 21547.28
507.4748, 21561.03
507.9569, 21578.25
508.4390, 21596.39
508.9211, 21613.70
509.4033, 21630.35
509.8854, 21650.67
510.3675, 21675.40
510.8496, 21696.78
511.3317, 21702.48
511.8138, 21698.69
512.2960, 21702.86
512.7781, 21722.13
513.2602, 21744.35
513.7423, 21756.65
514.2244, 21762.10
514.7065, 21767.97
515.1887, 21783.36
515.6708, 21796.14
516.1529, 21794.98
516.6350, 21780.20
517.1171, 21770.09
517.5992, 21773.51
518.0814, 21782.24
518.5635, 21790.84
519.0456, 21795.57
519.5277, 21805.60
520.0098, 21827.38
520.4919, 21851.99
520.9741, 21865.17
521.4562, 21858.95
521.9383, 21856.80
522.4204, 21864.50
522.9025, 21880.51
523.3846, 21896.27
523.8668, 21911.64
524.3489, 21925.91
524.8310, 21941.54
525.3131, 21957.10
525.7952, 21957.26
526.2773, 21938.90
526.7595, 21919.48
527.2416, 21924.21
527.7237, 21943.93
528.2058, 21954.53
528.6879, 21944.54
529.1700, 21929.14
529.6522, 21920.97
530.1343, 21919.51
530.6164, 21922.63
531.0985, 21934.40
531.5806, 21946.79
532.0627, 21953.82
532.5449, 21954.71
533.0270, 21958.16
533.5091, 21968.10
533.9912, 21980.33
534.4733, 21991.66
534.9554, 22001.73
535.4376, 22010.30
535.9197, 22012.75
536.4018, 22015.45
536.8839, 22032.07
537.3660, 22071.49
537.8481, 22099.81
538.3303, 22103.88
538.8124, 22089.44
539.2945, 22089.68
539.7766, 22106.23
540.2587, 22123.63
540.7408, 22130.62
541.2230, 22129.87
541.7051, 22131.26
542.1872, 22136.08
542.6693, 22140.08
543.1514, 22138.63
543.6335, 22133.68
544.1157, 22128.50
544.5978, 22123.27
545.0799, 22119.59
545.5620, 22118.08
546.0441, 22119.05
546.5262, 22123.17
547.0084, 22133.22
547.4905, 22143.98
547.9726, 22152.40
548.4547, 22157.74
548.9368, 22166.49
549.4189, 22182.48
549.9011, 22198.83
550.3832, 22211.89
550.8653, 22222.28
551.3474, 22225.88
551.8295, 22218.01
552.3116, 22208.22
552.7938, 22212.31
553.2759, 22231.70
553.7580, 22250.68
554.2401, 22266.66
554.7222, 22278.35
555.2043, 22281.26
555.6865, 22275.97
556.1686, 22267.92
556.6507, 22258.09
557.1328, 22248.92
557.6149, 22244.93
558.0970, 22246.62
558.5792, 22248.61
559.0613, 22247.74
559.5434, 22245.35
560.0255, 22242.26
560.5076, 22235.89
560.9897, 22234.40
561.4719, 22248.21
561.9540, 22267.10
562.4361, 22273.83
562.9182, 22247.04
563.4003, 22229.42
563.8824, 22230.53
564.3646, 22247.75
564.8467, 22265.16
565.3288, 22285.74
565.8109, 22299.35
566.2930, 22296.97
566.7751, 22277.46
567.2573, 22270.16
567.7394, 22276.96
568.2215, 22286.16
568.7036, 22282.87
569.1857, 22271.20
569.6678, 22267.69
570.1500, 22278.41
570.6321, 22292.13
571.1142, 22298.66
571.5963, 22298.42
572.0784, 22292.29
572.5605, 22274.64
573.0427, 22256.87
573.5248, 22245.47
574.0069, 22240.35
574.4890, 22238.14
574.9711, 22242.99
575.4532, 22246.78
575.9354, 22245.09
576.4175, 22236.07
576.8996, 22227.87
577.3817, 22221.14
577.8638, 22214.65
578.3459, 22204.81
578.8281, 22187.39
579.3102, 22186.13
579.7923, 22209.00
580.2744, 22240.59
580.7565, 22247.82
581.2386, 22232.11
581.7208, 22221.57
582.2029, 22230.25
582.6850, 22248.18
583.1671, 22258.41
583.6492, 22261.71
584.1313, 22262.56
584.6134, 22264.58
585.0955, 22265.28
585.5776, 22258.51
586.0598, 22242.16
586.5419, 22237.70
587.0240, 22270.93
587.5061, 22310.54
587.9882, 22330.26
588.4703, 22301.34
588.9525, 22286.85
589.4346, 22295.04
589.9167, 22316.14
590.3988, 22335.90
590.8809, 22356.19
591.3630, 22367.87
591.8452, 22364.53
592.3273, 22351.92
592.8094, 22354.45
593.2915, 22372.75
593.7736, 22392.67
594.2557, 22407.65
594.7379, 22417.79
595.2200, 22422.35
595.7021, 22421.40
596.1842, 22420.06
596.6663, 22422.02
597.1484, 22426.36
597.6306, 22432.35
598.1127, 22440.61
598.5948, 22448.71
599.0769, 22456.98
599.5590, 22464.31
600.0411, 22469.21
600.5233, 22470.47
601.0054, 22470.72
601.4875, 22471.86
601.9696, 22472.47
602.4517, 22466.50
602.9338, 22447.40
603.4160, 22436.10
603.8981, 22442.56
604.3802, 22464.58
604.8623, 22477.34
605.3444, 22479.54
605.8265, 22483.47
606.3087, 22500.99
606.7908, 22527.25
607.2729, 22549.71
607.7550, 22567.23
608.2371, 22580.20
608.7192, 22583.47
609.2014, 22584.26
609.6835, 22593.82
610.1656, 22622.77
610.6477, 22647.96
611.1298, 22653.54
611.6119, 22649.56
612.0941, 22654.13
612.5762, 22687.78
613.0583, 22710.60
613.5404, 22707.26
614.0225, 22684.65
614.5046, 22682.19
614.9868, 22709.94
615.4689, 22734.80
615.9510, 22737.60
616.4331, 22720.05
616.9152, 22721.84
617.3973, 22744.81
617.8795, 22770.24
618.3616, 22781.01
618.8437, 22781.38
619.3258, 22780.29
619.8079, 22778.45
620.2900, 22779.08
620.7722, 22787.50
621.2543, 22799.62
621.7364, 22809.46
622.2185, 22813.37
622.7006, 22817.26
623.1827, 22821.38
623.6649, 22826.99
624.1470, 22837.28
624.6291, 22857.93
625.1112, 22876.51
625.5933, 22890.09
626.0754, 22898.98
626.5576, 22905.07
627.0397, 22907.23
627.5218, 22909.41
628.0039, 22913.20
628.4860, 22918.57
628.9681, 22926.72
629.4503, 22937.89
629.9324, 22949.03
630.4145, 22963.07
630.8966, 22974.13
631.3787, 22967.36
631.8608, 22934.67
632.3430, 22909.26
632.8251, 22922.48
633.3072, 22953.08
633.7893, 22974.95
634.2714, 22968.38
634.7535, 22967.43
635.2357, 22986.79
635.7178, 23015.56
636.1999, 23028.35
636.6820, 23015.04
637.1641, 23003.27
637.6462, 22999.10
638.1284, 23001.70
638.6105, 23010.28
639.0926, 23025.61
639.5747, 23037.27
640.0568, 23036.03
640.5389, 23026.32
641.0211, 23020.24
641.5032, 23018.02
641.9853, 23020.38
642.4674, 23035.08
642.9495, 23051.38
643.4316, 23055.20
643.9138, 23040.59
644.3959, 23029.70
644.8780, 23037.10
645.3601, 23050.85
645.8422, 23059.05
646.3243, 23055.76
646.8065, 23053.01
647.2886, 23050.84
647.7707, 23049.80
648.2528, 23052.32
648.7349, 23060.73
649.2170, 23061.36
649.6992, 23046.11
650.1813, 23024.80
650.6634, 23024.49
651.1455, 23043.63
651.6276, 23066.54
652.1097, 23085.91
652.5919, 23103.58
653.0740, 23123.32
653.5561, 23144.47
654.0382, 23162.56
654.5203, 23174.71
655.0024, 23182.68
655.4846, 23185.88
655.9667, 23182.03
656.4488, 23183.69
656.9309, 23198.61
657.4130, 23214.53
657.8951, 23222.29
658.3773, 23216.17
658.8594, 23219.37
659.3415, 23235.72
659.8236, 23255.68
660.3057, 23266.58
660.7878, 23268.95
661.2700, 23268.94
661.7521, 23267.54
662.2342, 23265.67
662.7163, 23262.93
663.1984, 23260.85
663.6805, 23263.03
664.1627, 23276.22
664.6448, 23289.76
665.1269, 23297.44
665.6090, 23300.50
666.0911, 23303.28
666.5732, 23300.95
667.0554, 23305.05
667.5375, 23321.48
668.0196, 23350.07
668.5017, 23373.57
668.9838, 23390.78
669.4659, 23405.45
669.9481, 23420.40
670.4302, 23435.01
670.9123, 23442.66
671.3944, 23442.59
671.8765, 23440.46
672.3586, 23435.92
672.8408, 23434.32
673.3229, 23450.37
673.8050, 23492.19
674.2871, 23523.77
674.7692, 23511.21
675.2513, 23480.00
675.7335, 23458.09
676.2156, 23458.65
676.6977, 23462.39
677.1798, 23470.82
677.6619, 23480.27
678.1440, 23484.36
678.6262, 23479.93
679.1083, 23479.06
679.5904, 23484.10
680.0725, 23494.06
680.5546, 23507.95
681.0367, 23525.43
681.5189, 23542.29
682.0010, 23557.72
682.4831, 23570.22
682.9652, 23577.44
683.4473, 23579.46
683.9294, 23578.31
684.4116, 23568.61
684.8937, 23561.13
685.3758, 23567.25
685.8579, 23588.42
686.3400, 23597.03
686.8221, 23570.53
687.3043, 23546.44
687.7864, 23544.12
688.2685, 23568.98
688.7506, 23586.59
689.2327, 23595.84
689.7148, 23601.48
690.1970, 23609.02
690.6791, 23617.40
691.1612, 23618.35
691.6433, 23609.93
692.1254, 23599.56
692.6075, 23597.31
693.0897, 23597.39
693.5718, 23589.54
694.0539, 23563.82
694.5360, 23543.32
695.0181, 23541.47
695.5002, 23550.61
695.9824, 23558.54
696.4645, 23557.63
696.9466, 23564.50
697.4287, 23586.28
697.9108, 23614.95
698.3929, 23628.92
698.8751, 23625.82
699.3572, 23622.94
699.8393, 23625.81
700.3214, 23632.70
700.8035, 23639.56
701.2856, 23646.52
701.7678, 23654.81
702.2499, 23667.88
702.7320, 23680.40
703.2141, 23684.46
703.6962, 23681.52
704.1783, 23684.17
704.6605, 23705.34
705.1426, 23725.58
705.6247, 23733.85
706.1068, 23728.38
706.5889, 23724.12
707.0710, 23720.08
707.5532, 23718.58
708.0353, 23722.31
708.5174, 23731.33
708.9995, 23738.37
709.4816, 23743.56
709.9637, 23746.59
710.4459, 23745.84
710.9280, 23743.60
711.4101, 23745.60
711.8922, 23754.93
712.3743, 23759.72
712.8564, 23744.88
713.3386, 23725.65
713.8207, 23717.98
714.3028, 23734.83
714.7849, 23749.66
715.2670, 23758.60
715.7491, 23765.32
716.2313, 23774.39
716.7134, 23785.47
717.1955, 23798.20
717.6776, 23813.01
718.1597, 23827.43
718.6418, 23836.53
719.1240, 23840.87
719.6061, 23844.55
720.0882, 23849.10
720.5703, 23853.12
721.0524, 23855.80
721.5345, 23856.84
722.0167, 23855.54
722.4988, 23850.37
722.9809, 23844.74
723.4630, 23842.32
723.9451, 23841.77
724.4272, 23834.22
724.9094, 23814.54
725.3915, 23799.46
725.8736, 23796.08
726.3557, 23802.85
726.8378, 23809.57
727.3199, 23816.43
727.8021, 23825.49
728.2842, 23837.60
728.7663, 23852.78
729.2484, 23874.62
729.7305, 23901.47
730.2126, 23920.12
730.6948, 23912.45
731.1769, 23901.21
731.6590, 23903.43
732.1411, 23923.66
732.6232, 23934.20
733.1053, 23924.52
733.5875, 23914.30
734.0696, 23915.77
734.5517, 23930.59
735.0338, 23946.23
735.5159, 23964.48
735.9980, 23977.59
736.4802, 23973.92
736.9623, 23959.95
737.4444, 23953.77
737.9265, 23958.73
738.4086, 23965.25
738.8907, 23963.20
739.3729, 23960.45
739.8550, 23966.62
740.3371, 23992.77
740.8192, 24009.30
741.3013, 23999.84
741.7834, 23984.90
742.2656, 23985.44
742.7477, 24007.93
743.2298, 24021.21
743.7119, 24019.31
744.1940, 24012.12
744.6761, 24013.74
745.1583, 24023.05
745.6404, 24036.28
746.1225, 24055.49
746.6046, 24071.28
747.0867, 24070.44
747.5688, 24060.89
748.0510, 24056.02
748.5331, 24066.00
749.0152, 24075.21
749.4973, 24080.84
749.9794, 24083.02
750.4615, 24080.03
750.9437, 24065.10
751.4258, 24064.22
751.9079, 24090.08
752.3900, 24126.87
752.8721, 24129.76
753.3542, 24102.64
753.8364, 24082.98
754.3185, 24090.53
754.8006, 24109.43
755.2827, 24124.92
755.7648, 24136.58
756.2469, 24143.01
756.7291, 24133.83
757.2112, 24129.03
757.6933, 24140.52
758.1754, 24164.72
758.6575, 24180.19
759.1396, 24181.90
759.6218, 24184.57
760.1039, 24194.80
760.5860, 24209.72
761.0681, 24215.91
761.5502, 24213.66
762.0323, 24211.14
762.5145, 24211.56
762.9966, 24215.74
763.4787, 24228.92
763.9608, 24248.90
764.4429, 24261.65
764.9250, 24249.00
765.4072, 24237.81
765.8893, 24243.38
766.3714, 24267.20
766.8535, 24290.34
767.3356, 24315.17
767.8177, 24334.46
768.2999, 24341.88
768.7820, 24338.75
769.2641, 24342.49
769.7462, 24352.94
770.2283, 24361.79
770.7104, 24356.66
771.1926, 24348.87
771.6747, 24357.89
772.1568, 24384.00
772.6389, 24405.73
773.1210, 24411.96
773.6031, 24411.40
774.0853, 24410.37
774.5674, 24411.06
775.0495, 24400.24
775.5316, 24370.34
776.0137, 24343.14
776.4958, 24334.64
776.9780, 24344.12
777.4601, 24350.44
777.9422, 24353.46
778.4243, 24355.25
778.9064, 24354.42
779.3885, 24354.96
779.8707, 24365.31
780.3528, 24387.53
780.8349, 24402.47
781.3170, 24391.68
781.7991, 24377.09
782.2812, 24375.69
782.7633, 24393.32
783.2454, 24402.78
783.7275, 24399.47
784.2097, 24396.13
784.6918, 24405.75
785.1739, 24426.46
785.6560, 24441.40
786.1381, 24449.66
786.6202, 24452.28
787.1024, 24445.66
787.5845, 24436.34
788.0666, 24432.17
788.5487, 24434.41
789.0308, 24442.07
789.5129, 24458.19
789.9951, 24477.33
790.4772, 24494.92
790.9593, 24510.09
791.4414, 24525.86
791.9235, 24542.07
792.4056, 24558.91
792.8878, 24578.65
793.3699, 24599.59
793.8520, 24613.21
794.3341, 24618.10
794.8162, 24620.56
795.2983, 24627.07
795.7805, 24633.89
796.2626, 24636.60
796.7447, 24633.29
797.2268, 24629.98
797.7089, 24631.07
798.1910, 24631.03
798.6732, 24624.25
799.1553, 24606.01
799.6374, 24600.44
800.1195, 24609.83
800.6016, 24627.12
801.0837, 24650.32
801.5659, 24675.60
802.0480, 24689.87
802.5301, 24690.28
803.0122, 24687.05
803.4943, 24681.03
803.9764, 24678.65
804.4586, 24687.47
804.9407, 24714.98
805.4228, 24737.62
805.9049, 24752.18
806.3870, 24762.15
806.8691, 24770.08
807.3513, 24775.57
807.8334, 24779.54
808.3155, 24781.16
808.7976, 24784.55
809.2797, 24798.58
809.7618, 24816.31
810.2440, 24821.69
810.7261, 24809.97
811.2082, 24801.65
811.6903, 24810.50
812.1724, 24826.46
812.6545, 24841.24
813.1367, 24854.63
813.6188, 24866.29
814.1009, 24879.53
814.5830, 24885.88
815.0651, 24872.11
815.5472, 24840.63
816.0294, 24827.38
816.5115, 24836.48
816.9936, 24849.05
817.4757, 24844.60
817.9578, 24835.10
818.4399, 24836.87
818.9221, 24855.06
819.4042, 24870.53
819.8863, 24871.75
820.3684, 24872.19
820.8505, 24881.62
821.3326, 24903.17
821.8148, 24920.68
822.2969, 24933.46
822.7790, 24942.93
823.2611, 24946.84
823.7432, 24947.69
824.2253, 24954.92
824.7075, 24968.85
825.1896, 24984.46
825.6717, 24997.13
826.1538, 25009.97
826.6359, 25028.41
827.1180, 25056.18
827.6002, 25069.21
828.0823, 25056.25
828.5644, 25040.33
829.0465, 25035.69
829.5286, 25043.11
830.0107, 25046.29
830.4929, 25045.55
830.9750, 25042.68
831.4571, 25039.63
831.9392, 25035.70
832.4213, 25028.88
832.9034, 25019.48
833.3856, 25011.02
833.8677, 24993.42
834.3498, 24987.33
834.8319, 25013.82
835.3140, 25074.61
835.7961, 25106.20
836.2783, 25098.76
836.7604, 25088.21
837.2425, 25095.65
837.7246, 25115.90
838.2067, 25126.12
838.6888, 25127.44
839.1710, 25132.53
839.6531, 25153.09
840.1352, 25177.80
840.6173, 25197.79
841.0994, 25212.84
841.5815, 25226.44
842.0637, 25240.87
842.5458, 25251.40
843.0279, 25255.27
843.5100, 25253.72
843.9921, 25255.53
844.4742, 25261.02
844.9564, 25264.78
845.4385, 25263.47
845.9206, 25259.96
846.4027, 25258.83
846.8848, 25259.75
847.3669, 25260.48
847.8491, 25258.89
848.3312, 25259.15
848.8133, 25264.58
849.2954, 25273.76
849.7775, 25280.14
850.2596, 25280.61
850.7418, 25288.45
851.2239, 25308.06
851.7060, 25335.71
852.1881, 25365.79
852.6702, 25396.72
853.1523, 25422.54
853.6345, 25436.12
854.1166, 25448.42
854.5987, 25468.47
855.0808, 25491.38
855.5629, 25508.74
856.0450, 25516.58
856.5272, 25521.79
857.0093, 25527.05
857.4914, 25528.35
857.9735, 25514.77
858.4556, 25488.05
858.9377, 25471.41
859.4199, 25472.72
859.9020, 25480.67
860.3841, 25485.78
860.8662, 25489.31
861.3483, 25492.44
861.8304, 25492.81
862.3126, 25498.70
862.7947, 25517.04
863.2768, 25538.38
863.7589, 25553.99
864.2410, 25562.42
864.7231, 25568.68
865.2053, 25571.00
865.6874, 25576.51
866.1695, 25599.17
866.6516, 25628.66
867.1337, 25643.00
867.6158, 25636.93
868.0980, 25630.07
868.5801, 25628.70
869.0622, 25633.66
869.5443, 25649.86
870.0264, 25684.19
870.5085, 25697.26
870.9907, 25684.68
871.4728, 25664.34
871.9549, 25643.61
872.4370, 25626.03
872.9191, 25629.11
873.4012, 25652.19
873.8834, 25676.10
874.3655, 25689.63
874.8476, 25697.15
875.3297, 25698.11
875.8118, 25692.82
876.2939, 25697.93
876.7761, 25719.63
877.2582, 25742.47
877.7403, 25762.12
878.2224, 25777.78
878.7045, 25783.83
879.1866, 25781.00
879.6688, 25779.73
880.1509, 25785.52
880.6330, 25795.65
881.1151, 25810.93
881.5972, 25828.66
882.0793, 25840.87
882.5615, 25839.87
883.0436, 25839.88
883.5257, 25844.19
884.0078, 25851.42
884.4899, 25859.88
884.9720, 25870.09
885.4542, 25873.79
885.9363, 25866.19
886.4184, 25857.99
886.9005, 25865.12
887.3826, 25881.20
887.8647, 25894.64
888.3469, 25897.20
888.8290, 25904.74
889.3111, 25931.86
889.7932, 25959.84
890.2753, 25967.66
890.7574, 25948.33
891.2396, 25940.19
891.7217, 25946.71
892.2038, 25958.00
892.6859, 25962.27
893.1680, 25963.56
893.6501, 25971.76
894.1323, 25989.11
894.6144, 26003.53
895.0965, 26007.13
895.5786, 26007.45
896.0607, 26010.65
896.5428, 26018.07
897.0250, 26019.43
897.5071, 26012.28
897.9892, 26008.49
898.4713, 26017.18
898.9534, 26034.90
899.4355, 26052.91
899.9177, 26070.87
900.3998, 26088.26
900.8819, 26104.73
901.3640, 26119.49
901.8461, 26131.88
902.3282, 26141.22
902.8104, 26147.09
903.2925, 26148.56
903.7746, 26146.76
904.2567, 26139.82
904.7388, 26131.97
905.2209, 26136.82
905.7031, 26150.69
906.1852, 26157.95
906.6673, 26147.38
907.1494, 26137.40
907.6315, 26143.59
908.1136, 26157.97
908.5958, 26167.62
909.0779, 26167.42
909.5600, 26171.49
910.0421, 26183.42
910.5242, 26196.09
911.0063, 26196.04
911.4885, 26187.62
911.9706, 26195.27
912.4527, 26223.81
912.9348, 26254.10
913.4169, 26269.40
913.8990, 26280.09
914.3812, 26295.25
914.8633, 26316.55
915.3454, 26338.61
915.8275, 26358.90
916.3096, 26382.66
916.7917, 26415.50
917.2739, 26454.80
917.7560, 26486.36
918.2381, 26509.87
918.7202, 26524.87
919.2023, 26523.66
919.6844, 26519.82
920.1666, 26527.15
920.6487, 26542.61
921.1308, 26548.18
921.6129, 26535.06
922.0950, 26523.21
922.5771, 26517.02
923.0593, 26515.91
923.5414, 26520.01
924.0235, 26528.78
924.5056, 26536.62
924.9877, 26542.28
925.4698, 26546.19
925.9520, 26549.49
926.4341, 26551.22
926.9162, 26549.79
927.3983, 26536.18
927.8804, 26533.24
928.3625, 26543.84
928.8447, 26560.98
929.3268, 26579.75
929.8089, 26599.10
930.2910, 26610.84
930.7731, 26613.64
931.2552, 26619.60
931.7374, 26646.10
932.2195, 26674.35
932.7016, 26684.13
933.1837, 26671.08
933.6658, 26673.38
934.1479, 26705.79
934.6301, 26732.72
935.1122, 26735.92
935.5943, 26722.30
936.0764, 26721.11
936.5585, 26731.27
937.0406, 26744.01
937.5228, 26752.29
938.0049, 26764.07
938.4870, 26790.96
938.9691, 26825.65
939.4512, 26850.12
939.9333, 26857.21
940.4155, 26862.01
940.8976, 26862.66
941.3797, 26866.53
941.8618, 26890.86
942.3439, 26929.95
942.8260, 26954.11
943.3082, 26955.24
943.7903, 26955.81
944.2724, 26974.05
944.7545, 26999.03
945.2366, 27022.51
945.7188, 27045.78
946.2009, 27055.93
946.6830, 27048.51
947.1651, 27038.37
947.6472, 27037.49
948.1293, 27042.41
948.6115, 27033.49
949.0936, 27013.54
949.5757, 27002.29
950.0578, 27026.39
950.5399, 27049.62
951.0220, 27043.74
951.5042, 27017.49
951.9863, 27010.66
952.4684, 27031.37
952.9505, 27052.78
953.4326, 27071.48
953.9147, 27083.97
954.3969, 27078.13
954.8790, 27061.29
955.3611, 27053.59
955.8432, 27062.16
956.3253, 27076.56
956.8074, 27094.84
957.2896, 27113.72
957.7717, 27130.53
958.2538, 27145.65
958.7359, 27152.00
959.2180, 27145.23
959.7001, 27144.82
960.1823, 27176.97
960.6644, 27222.81
961.1465, 27238.06
961.6286, 27225.13
962.1107, 27218.48
962.5928, 27247.37
963.0750, 27272.26
963.5571, 27272.70
964.0392, 27256.28
964.5213, 27251.55
965.0034, 27260.79
965.4855, 27268.24
965.9677, 27272.23
966.4498, 27268.15
966.9319, 27237.66
967.4140, 27197.88
967.8961, 27181.05
968.3782, 27218.61
968.8604, 27237.88
969.3425, 27209.26
969.8246, 27172.12
970.3067, 27161.70
970.7888, 27179.25
971.2709, 27173.91
971.7531, 27142.31
972.2352, 27117.59
972.7173, 27134.31
973.1994, 27164.96
973.6815, 27181.90
974.1636, 27184.20
974.6458, 27186.74
975.1279, 27196.52
975.6100, 27198.43
976.0921, 27182.37
976.5742, 27159.78
977.0563, 27168.68
977.5385, 27203.44
978.0206, 27228.74
978.5027, 27229.82
978.9848, 27223.71
979.4669, 27222.36
979.9490, 27222.45
980.4311, 27219.76
980.9132, 27215.61
981.3953, 27204.34
981.8774, 27181.90
982.3596, 27163.18
982.8417, 27168.00
983.3238, 27186.60
983.8059, 27186.12
984.2880, 27166.85
984.7701, 27152.93
985.2523, 27158.15
985.7344, 27171.94
986.2165, 27196.26
986.6986, 27225.18
987.1807, 27232.86
987.6628, 27215.74
988.1450, 27197.01
988.6271, 27182.88
989.1092, 27171.78
989.5913, 27161.18
990.0734, 27152.22
990.5555, 27147.79
991.0377, 27154.43
991.5198, 27154.22
992.0019, 27138.83
992.4840, 27119.61
992.9661, 27103.15
993.4482, 27089.38
993.9304, 27086.55
994.4125, 27095.05
994.8946, 27102.51
995.3767, 27093.98
995.8588, 27084.72
996.3409, 27092.02
996.8231, 27112.99
997.3052, 27127.05
997.7873, 27127.10
998.2694, 27126.66
998.7515, 27127.22
999.2336, 27130.06
999.7158, 27138.69
1000.198, 27151.98
1000.680, 27167.94
1001.162, 27189.13
1001.644, 27201.35
1002.126, 27187.05
1002.608, 27164.96
1003.091, 27152.51
1003.573, 27152.00
1004.055, 27149.39
1004.537, 27143.72
1005.019, 27141.32
1005.501, 27151.87
1005.983, 27166.05
1006.465, 27167.41
1006.948, 27158.10
1007.430, 27146.22
1007.912, 27133.25
1008.394, 27120.35
1008.876, 27103.11
1009.358, 27089.61
1009.840, 27098.88
1010.322, 27130.03
1010.804, 27150.97
1011.287, 27155.67
1011.769, 27154.22
1012.251, 27151.69
1012.733, 27150.58
1013.215, 27154.15
1013.697, 27163.71
1014.179, 27171.51
1014.661, 27176.66
1015.143, 27181.15
1015.626, 27185.56
1016.108, 27190.19
1016.590, 27195.44
1017.072, 27201.59
1017.554, 27209.64
1018.036, 27225.15
1018.518, 27236.78
1019.000, 27235.11
1019.483, 27228.85
1019.965, 27229.83
1020.447, 27239.09
1020.929, 27249.65
1021.411, 27261.32
1021.893, 27271.08
1022.375, 27275.30
1022.857, 27276.17
1023.339, 27277.90
1023.822, 27280.45
1024.304, 27275.70
1024.786, 27248.70
1025.268, 27233.81
1025.750, 27246.46
1026.232, 27274.56
1026.714, 27279.59
1027.196, 27267.78
1027.679, 27271.61
1028.161, 27308.94
1028.643, 27347.60
1029.125, 27368.55
1029.607, 27378.68
1030.089, 27383.84
1030.571, 27381.15
1031.053, 27386.47
1031.536, 27400.75
1032.018, 27416.79
1032.500, 27426.85
1032.982, 27436.12
1033.464, 27453.89
1033.946, 27478.71
1034.428, 27505.01
1034.910, 27539.19
1035.392, 27563.82
1035.875, 27576.01
1036.357, 27577.47
1036.839, 27566.58
1037.321, 27545.51
1037.803, 27535.34
1038.285, 27541.28
1038.767, 27545.03
1039.249, 27524.58
1039.731, 27501.06
1040.214, 27491.72
1040.696, 27498.34
1041.178, 27512.93
1041.660, 27539.47
1042.142, 27557.07
1042.624, 27549.71
1043.106, 27535.75
1043.588, 27558.26
1044.071, 27599.33
1044.553, 27617.95
1045.035, 27572.90
1045.517, 27546.56
1045.999, 27570.12
1046.481, 27601.58
1046.963, 27597.88
1047.445, 27562.14
1047.927, 27542.95
1048.410, 27541.64
1048.892, 27550.40
1049.374, 27572.97
1049.856, 27594.94
1050.338, 27608.89
1050.820, 27612.93
1051.302, 27599.30
1051.784, 27555.75
1052.266, 27540.43
1052.749, 27571.85
1053.231, 27616.07
1053.713, 27630.38
1054.195, 27623.38
1054.677, 27604.01
1055.159, 27568.92
1055.641, 27552.87
1056.123, 27580.95
1056.606, 27612.72
1057.088, 27632.79
1057.570, 27641.37
1058.052, 27634.80
1058.534, 27615.79
1059.016, 27601.87
1059.498, 27603.20
1059.980, 27609.37
1060.463, 27616.46
1060.945, 27623.34
1061.427, 27627.89
1061.909, 27627.71
1062.391, 27634.04
1062.873, 27647.56
1063.355, 27664.63
1063.837, 27687.89
1064.319, 27709.21
1064.802, 27715.13
1065.284, 27707.20
1065.766, 27698.56
1066.248, 27687.73
1066.730, 27684.32
1067.212, 27693.97
1067.694, 27706.94
1068.176, 27699.61
1068.658, 27679.66
1069.141, 27679.03
1069.623, 27706.90
1070.105, 27731.50
1070.587, 27732.66
1071.069, 27725.99
1071.551, 27721.89
1072.033, 27720.32
1072.515, 27713.29
1072.998, 27700.38
1073.480, 27697.79
1073.962, 27717.09
1074.444, 27742.96
1074.926, 27763.02
1075.408, 27776.88
1075.890, 27783.11
1076.372, 27774.23
1076.854, 27772.31
1077.337, 27779.41
1077.819, 27787.84
1078.301, 27791.75
1078.783, 27792.17
1079.265, 27789.19
1079.747, 27784.21
1080.229, 27783.72
1080.711, 27794.30
1081.193, 27805.04
1081.676, 27812.33
1082.158, 27818.48
1082.640, 27828.20
1083.122, 27840.65
1083.604, 27848.54
1084.086, 27850.37
1084.568, 27852.04
1085.050, 27859.95
1085.532, 27867.78
1086.015, 27873.31
1086.497, 27875.58
1086.979, 27861.16
1087.461, 27825.38
1087.943, 27808.89
1088.425, 27832.90
1088.907, 27865.79
1089.389, 27867.20
1089.872, 27850.72
1090.354, 27833.93
1090.836, 27815.50
1091.318, 27813.95
1091.800, 27835.03
1092.282, 27861.20
1092.764, 27885.00
1093.246, 27904.06
1093.729, 27908.55
1094.211, 27901.43
1094.693, 27894.64
1095.175, 27890.87
1095.657, 27890.46
1096.139, 27891.95
1096.621, 27897.66
1097.103, 27915.63
1097.585, 27944.66
1098.068, 27947.49
1098.550, 27922.92
1099.032, 27906.17
1099.514, 27929.90
1099.996, 27963.75
1100.478, 27994.02
1100.960, 28017.68
1101.442, 28025.17
1101.924, 28013.20
1102.407, 28004.28
1102.889, 28001.54
1103.371, 28006.93
1103.853, 28030.18
1104.335, 28058.01
1104.817, 28071.20
1105.299, 28064.64
1105.781, 28076.06
1106.264, 28120.04
1106.746, 28150.72
1107.228, 28146.79
1107.710, 28124.25
1108.192, 28112.19
1108.674, 28108.16
1109.156, 28106.12
1109.638, 28102.26
1110.120, 28106.20
1110.603, 28126.39
1111.085, 28148.46
1111.567, 28168.44
1112.049, 28183.76
1112.531, 28166.31
1113.013, 28122.61
1113.495, 28092.09
1113.977, 28112.78
1114.459, 28131.93
1114.942, 28116.60
1115.424, 28090.12
1115.906, 28084.77
1116.388, 28103.54
1116.870, 28110.01
1117.352, 28101.83
1117.834, 28096.76
1118.316, 28114.03
1118.799, 28135.88
1119.281, 28147.64
1119.763, 28150.80
1120.245, 28154.45
1120.727, 28159.04
1121.209, 28161.30
1121.691, 28158.43
1122.173, 28160.50
1122.656, 28193.72
1123.138, 28231.19
1123.620, 28227.65
1124.102, 28176.25
1124.584, 28153.31
1125.066, 28183.28
1125.548, 28206.71
1126.030, 28199.82
1126.512, 28183.93
1126.995, 28210.84
1127.477, 28261.27
1127.959, 28287.63
1128.441, 28272.00
1128.923, 28258.32
1129.405, 28261.59
1129.887, 28268.91
1130.369, 28274.30
1130.851, 28278.43
1131.334, 28283.59
1131.816, 28290.18
1132.298, 28301.83
1132.780, 28328.68
1133.262, 28346.29
1133.744, 28325.61
1134.226, 28303.04
1134.708, 28319.14
1135.191, 28377.97
1135.673, 28394.70
1136.155, 28370.66
1136.637, 28347.18
1137.119, 28355.21
1137.601, 28369.07
1138.083, 28374.09
1138.565, 28371.71
1139.047, 28365.72
1139.530, 28355.92
1140.012, 28345.48
1140.494, 28334.23
1140.976, 28328.83
1141.458, 28339.74
1141.940, 28356.13
1142.422, 28367.38
1142.904, 28373.61
1143.386, 28379.32
1143.869, 28383.78
1144.351, 28390.03
1144.833, 28398.53
1145.315, 28408.18
1145.797, 28418.37
1146.279, 28428.31
1146.761, 28438.88
1147.243, 28450.35
1147.726, 28450.44
1148.208, 28425.24
1148.690, 28416.47
1149.172, 28443.20
1149.654, 28482.94
1150.136, 28489.72
1150.618, 28477.20
1151.100, 28472.46
1151.583, 28481.67
1152.065, 28498.09
1152.547, 28531.36
1153.029, 28554.16
1153.511, 28548.93
1153.993, 28526.00
1154.475, 28519.24
1154.957, 28524.84
1155.439, 28530.24
1155.922, 28531.38
1156.404, 28531.86
1156.886, 28533.26
1157.368, 28535.10
1157.850, 28538.07
1158.332, 28541.87
1158.814, 28539.98
1159.296, 28533.54
1159.778, 28529.34
1160.261, 28528.63
1160.743, 28533.43
1161.225, 28545.57
1161.707, 28562.71
1162.189, 28584.63
1162.671, 28611.32
1163.153, 28625.90
1163.635, 28628.07
1164.118, 28629.64
1164.600, 28636.76
1165.082, 28647.66
1165.564, 28671.02
1166.046, 28693.70
1166.528, 28687.38
1167.010, 28647.34
1167.492, 28628.94
1167.974, 28638.19
1168.457, 28650.63
1168.939, 28646.44
1169.421, 28636.96
1169.903, 28624.81
1170.385, 28615.24
1170.867, 28628.72
1171.349, 28672.00
1171.831, 28696.36
1172.313, 28691.54
1172.796, 28676.96
1173.278, 28662.42
1173.760, 28655.23
1174.242, 28668.75
1174.724, 28702.06
1175.206, 28717.44
1175.688, 28709.05
1176.170, 28708.49
1176.653, 28726.61
1177.135, 28747.26
1177.617, 28746.55
1178.099, 28738.25
1178.581, 28741.42
1179.063, 28760.44
1179.545, 28763.65
1180.027, 28740.63
1180.510, 28736.24
1180.992, 28774.52
1181.474, 28824.29
1181.956, 28839.58
1182.438, 28834.77
1182.920, 28833.22
1183.402, 28842.88
1183.884, 28838.10
1184.366, 28809.59
1184.849, 28793.13
1185.331, 28814.81
1185.813, 28850.01
1186.295, 28849.20
1186.777, 28828.94
1187.259, 28820.36
1187.741, 28839.14
1188.223, 28853.95
1188.705, 28865.22
1189.188, 28867.18
1189.670, 28846.14
1190.152, 28819.24
1190.634, 28824.32
1191.116, 28852.89
1191.598, 28884.76
1192.080, 28922.72
1192.562, 28946.85
1193.045, 28951.37
1193.527, 28952.42
1194.009, 28968.39
1194.491, 28988.46
1194.973, 28977.97
1195.455, 28947.96
1195.937, 28936.29
1196.419, 28979.12
1196.901, 29007.68
1197.384, 29011.88
1197.866, 29005.35
1198.348, 28998.04
1198.830, 28991.29
1199.312, 28990.05
1199.794, 28993.11
1200.276, 28993.62
1200.758, 28987.16
1201.240, 28980.78
1201.723, 28975.23
1202.205, 28971.60
1202.687, 28971.29
1203.169, 28974.22
1203.651, 28980.74
1204.133, 28990.61
1204.615, 29000.68
1205.097, 29008.69
1205.580, 29018.71
1206.062, 29032.56
1206.544, 29046.50
1207.026, 29054.60
1207.508, 29058.23
1207.990, 29060.06
1208.472, 29060.26
1208.954, 29061.06
1209.437, 29059.72
1209.919, 29063.93
1210.401, 29077.28
1210.883, 29094.00
1211.365, 29103.07
1211.847, 29108.49
1212.329, 29120.89
1212.811, 29141.99
1213.293, 29163.59
1213.776, 29189.19
1214.258, 29206.10
1214.740, 29207.66
1215.222, 29203.57
1215.704, 29214.53
1216.186, 29234.14
1216.668, 29248.13
1217.150, 29253.91
1217.632, 29254.49
1218.115, 29242.88
1218.597, 29238.53
1219.079, 29251.06
1219.561, 29269.70
1220.043, 29271.19
1220.525, 29262.32
1221.007, 29258.38
1221.489, 29263.28
1221.972, 29268.20
1222.454, 29270.86
1222.936, 29273.82
1223.418, 29277.91
1223.900, 29283.12
1224.382, 29289.97
1224.864, 29297.90
1225.346, 29306.67
1225.828, 29318.14
1226.311, 29322.49
1226.793, 29318.74
1227.275, 29308.07
1227.757, 29287.43
1228.239, 29264.68
1228.721, 29256.62
1229.203, 29258.91
1229.685, 29262.02
1230.167, 29260.96
1230.650, 29272.69
1231.132, 29304.84
1231.614, 29333.46
1232.096, 29346.55
1232.578, 29348.26
1233.060, 29339.91
1233.542, 29327.81
1234.024, 29325.28
1234.507, 29342.46
1234.989, 29347.76
1235.471, 29334.03
1235.953, 29326.10
1236.435, 29338.91
1236.917, 29365.04
1237.399, 29404.37
1237.881, 29444.34
1238.364, 29459.59
1238.846, 29427.62
1239.328, 29414.55
1239.810, 29424.16
1240.292, 29439.27
1240.774, 29450.28
1241.256, 29460.45
1241.738, 29475.41
1242.220, 29492.62
1242.703, 29507.41
1243.185, 29517.44
1243.667, 29528.93
1244.149, 29541.62
1244.631, 29554.28
1245.113, 29566.69
1245.595, 29576.89
1246.077, 29577.35
1246.559, 29575.20
1247.042, 29585.88
1247.524, 29618.52
1248.006, 29629.00
1248.488, 29616.20
1248.970, 29596.78
1249.452, 29577.11
1249.934, 29561.26
1250.416, 29552.16
1250.899, 29551.28
1251.381, 29563.64
1251.863, 29596.64
1252.345, 29597.05
1252.827, 29564.97
1253.309, 29538.10
1253.791, 29547.54
1254.273, 29564.05
1254.755, 29568.84
1255.238, 29567.44
1255.720, 29566.93
1256.202, 29566.53
1256.684, 29570.50
1257.166, 29578.47
1257.648, 29590.19
1258.130, 29607.78
1258.612, 29626.15
1259.094, 29647.23
1259.577, 29664.52
1260.059, 29667.67
1260.541, 29658.80
1261.023, 29660.48
1261.505, 29673.46
1261.987, 29696.06
1262.469, 29750.08
1262.951, 29783.49
1263.434, 29769.07
1263.916, 29739.66
1264.398, 29724.05
1264.880, 29720.52
1265.362, 29725.61
1265.844, 29737.12
1266.326, 29746.07
1266.808, 29735.28
1267.291, 29741.46
1267.773, 29776.67
1268.255, 29817.67
1268.737, 29844.30
1269.219, 29858.24
1269.701, 29859.63
1270.183, 29852.25
1270.665, 29849.08
1271.147, 29866.59
1271.630, 29868.09
1272.112, 29845.96
1272.594, 29823.32
1273.076, 29823.51
1273.558, 29835.98
1274.040, 29845.58
1274.522, 29852.88
1275.004, 29862.10
1275.486, 29876.87
1275.969, 29884.04
1276.451, 29881.19
1276.933, 29879.30
1277.415, 29890.21
1277.897, 29904.76
1278.379, 29909.91
1278.861, 29911.79
1279.343, 29927.57
1279.825, 29963.90
1280.308, 29980.09
1280.790, 29973.00
1281.272, 29967.61
1281.754, 29989.94
1282.236, 30012.71
1282.718, 30009.28
1283.200, 30027.61
1283.682, 30037.47
1284.165, 30038.82
1284.647, 30052.91
1285.129, 30047.78
1285.611, 30040.60
1286.093, 30040.08
1286.575, 30042.34
1287.057, 30048.11
1287.539, 30053.85
1288.021, 30055.35
1288.504, 30053.48
1288.986, 30052.49
1289.468, 30052.55
1289.950, 30052.69
1290.432, 30046.72
1290.914, 30051.60
1291.396, 30079.56
1291.878, 30102.95
1292.360, 30083.07
1292.843, 30043.12
1293.325, 30047.03
1293.807, 30083.24
1294.289, 30106.88
1294.771, 30084.66
1295.253, 30080.64
1295.735, 30100.93
1296.217, 30126.94
1296.700, 30144.65
1297.182, 30156.90
1297.664, 30162.04
1298.146, 30163.32
1298.628, 30176.60
1299.110, 30217.94
1299.592, 30232.16
1300.074, 30214.92
1300.557, 30192.92
1301.039, 30186.49
1301.521, 30181.02
1302.003, 30168.13
1302.485, 30147.99
1302.967, 30130.46
1303.449, 30132.99
##END=



