##NAMES=Jagoite
##RRUFFID=R090028
##IDEAL CHEMISTRY=Pb^2+^_9_Fe^3+^_2_[Si_2_(Si,Fe^3+^)_3_][Pb^2+^_2_Si_8_(Si,Fe^3+^)_2_]O_41_Cl_3_
##LOCALITY=Langban, Filipstad, Varmland, Sweden
##OWNER=RRUFF
##SOURCE=William W. Pinch
##DESCRIPTION=Yellowish green translucent fine-grained micaceous aggregates of plates on matrix.
##STATUS=The identification of this mineral has been confirmed by single-crystal X-ray diffraction.
##URL=rruff.info/R090028
92.37695, 6522.548
92.85907, 6420.954
93.34119, 6440.375
93.82330, 6526.695
94.30542, 6606.141
94.78754, 6664.850
95.26965, 6714.992
95.75177, 6759.020
96.23389, 6799.489
96.71600, 6839.164
97.19812, 6885.458
97.68024, 6941.666
98.16235, 7003.144
98.64447, 7066.173
99.12659, 7136.967
99.60870, 7177.579
100.0908, 7213.059
100.5729, 7235.030
101.0551, 7232.497
101.5372, 7200.087
102.0193, 7137.306
102.5014, 7043.647
102.9835, 6893.824
103.4656, 6732.221
103.9478, 6555.046
104.4299, 6369.611
104.9120, 6187.755
105.3941, 6018.170
105.8762, 5859.099
106.3583, 5718.632
106.8405, 5595.791
107.3226, 5485.340
107.8047, 5384.583
108.2868, 5293.183
108.7689, 5211.543
109.2510, 5142.451
109.7332, 5086.357
110.2153, 5035.144
110.6974, 4989.938
111.1795, 4948.497
111.6616, 4906.421
112.1437, 4861.728
112.6259, 4819.590
113.1080, 4785.711
113.5901, 4759.600
114.0722, 4736.145
114.5543, 4712.453
115.0364, 4688.527
115.5185, 4667.002
116.0007, 4649.283
116.4828, 4633.678
116.9649, 4619.661
117.4470, 4607.132
117.9291, 4594.749
118.4112, 4579.977
118.8934, 4560.378
119.3755, 4544.611
119.8576, 4535.505
120.3397, 4528.782
120.8218, 4521.183
121.3039, 4511.368
121.7861, 4500.168
122.2682, 4489.943
122.7503, 4482.536
123.2324, 4474.096
123.7145, 4464.150
124.1966, 4452.985
124.6788, 4441.033
125.1609, 4428.356
125.6430, 4415.045
126.1251, 4401.992
126.6072, 4388.322
127.0893, 4375.585
127.5715, 4364.778
128.0536, 4355.630
128.5357, 4347.043
129.0178, 4338.822
129.4999, 4330.417
129.9821, 4319.649
130.4642, 4304.110
130.9463, 4287.326
131.4284, 4272.944
131.9105, 4261.404
132.3926, 4250.885
132.8748, 4240.216
133.3569, 4229.516
133.8390, 4219.265
134.3211, 4209.637
134.8032, 4200.641
135.2853, 4192.239
135.7674, 4185.100
136.2496, 4177.694
136.7317, 4168.759
137.2138, 4158.916
137.6959, 4149.818
138.1780, 4143.573
138.6601, 4140.766
139.1423, 4134.717
139.6244, 4121.717
140.1065, 4108.454
140.5886, 4096.723
141.0707, 4087.010
141.5528, 4079.201
142.0350, 4073.392
142.5171, 4070.576
142.9992, 4067.278
143.4813, 4064.187
143.9634, 4060.273
144.4455, 4054.447
144.9277, 4046.574
145.4098, 4037.708
145.8919, 4029.512
146.3740, 4021.998
146.8561, 4015.239
147.3382, 4008.668
147.8204, 4002.997
148.3025, 3999.519
148.7846, 3998.961
149.2667, 3999.748
149.7488, 3998.374
150.2309, 3994.194
150.7131, 3990.616
151.1952, 3989.251
151.6773, 3989.573
152.1594, 3989.930
152.6415, 3989.724
153.1236, 3989.269
153.6058, 3988.704
154.0879, 3987.574
154.5700, 3987.745
155.0521, 3991.724
155.5342, 3999.718
156.0163, 4006.503
156.4985, 4008.919
156.9806, 4009.732
157.4627, 4010.440
157.9448, 4011.039
158.4269, 4013.056
158.9090, 4019.391
159.3912, 4031.951
159.8733, 4044.046
160.3554, 4054.726
160.8375, 4063.931
161.3196, 4070.810
161.8017, 4074.713
162.2839, 4077.516
162.7660, 4085.016
163.2481, 4102.347
163.7302, 4117.779
164.2123, 4129.432
164.6944, 4138.419
165.1766, 4145.646
165.6587, 4151.516
166.1408, 4156.536
166.6229, 4164.276
167.1050, 4179.178
167.5871, 4192.031
168.0693, 4199.783
168.5514, 4204.126
169.0335, 4208.632
169.5156, 4215.736
169.9977, 4225.230
170.4798, 4232.806
170.9620, 4236.779
171.4441, 4240.876
171.9262, 4247.146
172.4083, 4255.214
172.8904, 4263.172
173.3725, 4269.582
173.8547, 4274.489
174.3368, 4279.608
174.8189, 4284.901
175.3010, 4290.457
175.7831, 4296.487
176.2652, 4303.029
176.7474, 4309.521
177.2295, 4316.169
177.7116, 4322.416
178.1937, 4326.594
178.6758, 4326.667
179.1579, 4325.066
179.6401, 4326.163
180.1222, 4331.470
180.6043, 4334.896
181.0864, 4330.755
181.5685, 4322.423
182.0506, 4315.354
182.5328, 4313.768
183.0149, 4315.077
183.4970, 4310.775
183.9791, 4297.971
184.4612, 4283.584
184.9433, 4271.344
185.4255, 4259.935
185.9076, 4246.947
186.3897, 4230.797
186.8718, 4211.639
187.3539, 4191.525
187.8360, 4168.658
188.3182, 4146.663
188.8003, 4127.408
189.2824, 4109.866
189.7645, 4091.805
190.2466, 4071.364
190.7287, 4048.301
191.2109, 4026.842
191.6930, 4007.957
192.1751, 3989.561
192.6572, 3970.817
193.1393, 3952.034
193.6214, 3934.114
194.1036, 3918.162
194.5857, 3904.541
195.0678, 3889.316
195.5499, 3870.790
196.0320, 3852.546
196.5141, 3836.219
196.9963, 3821.822
197.4784, 3808.371
197.9605, 3794.996
198.4426, 3781.620
198.9247, 3769.703
199.4068, 3760.248
199.8890, 3751.324
200.3711, 3741.111
200.8532, 3729.632
201.3353, 3719.164
201.8174, 3712.121
202.2995, 3708.775
202.7817, 3704.549
203.2638, 3698.140
203.7459, 3691.442
204.2280, 3686.781
204.7101, 3684.506
205.1922, 3681.801
205.6744, 3674.952
206.1565, 3665.032
206.6386, 3657.378
207.1207, 3655.112
207.6028, 3654.917
208.0849, 3652.196
208.5671, 3646.252
209.0492, 3639.226
209.5313, 3632.253
210.0134, 3625.450
210.4955, 3619.188
210.9776, 3613.816
211.4598, 3609.040
211.9419, 3604.139
212.4240, 3599.007
212.9061, 3594.017
213.3882, 3589.012
213.8703, 3584.268
214.3525, 3580.421
214.8346, 3578.253
215.3167, 3577.219
215.7988, 3575.371
216.2809, 3572.360
216.7630, 3568.954
217.2451, 3565.819
217.7273, 3562.560
218.2094, 3558.409
218.6915, 3552.639
219.1736, 3545.582
219.6557, 3539.366
220.1378, 3534.877
220.6200, 3530.203
221.1021, 3524.409
221.5842, 3518.097
222.0663, 3512.344
222.5484, 3508.095
223.0305, 3505.068
223.5127, 3500.455
223.9948, 3492.281
224.4769, 3484.564
224.9590, 3478.774
225.4411, 3473.958
225.9232, 3468.261
226.4054, 3460.208
226.8875, 3450.208
227.3696, 3442.546
227.8517, 3441.644
228.3338, 3438.569
228.8159, 3429.667
229.2981, 3417.346
229.7802, 3406.195
230.2623, 3399.294
230.7444, 3396.108
231.2265, 3390.695
231.7086, 3379.777
232.1908, 3370.372
232.6729, 3364.949
233.1550, 3362.286
233.6371, 3359.908
234.1192, 3356.349
234.6013, 3351.759
235.0835, 3347.270
235.5656, 3343.317
236.0477, 3338.935
236.5298, 3332.583
237.0119, 3325.542
237.4940, 3320.809
237.9762, 3320.441
238.4583, 3323.288
238.9404, 3323.893
239.4225, 3321.536
239.9046, 3318.257
240.3867, 3313.984
240.8689, 3309.237
241.3510, 3305.407
241.8331, 3303.349
242.3152, 3302.502
242.7973, 3301.117
243.2794, 3298.969
243.7616, 3296.767
244.2437, 3294.831
244.7258, 3293.101
245.2079, 3291.451
245.6900, 3289.960
246.1721, 3288.371
246.6543, 3286.043
247.1364, 3282.584
247.6185, 3279.557
248.1006, 3278.035
248.5827, 3277.671
249.0648, 3277.296
249.5470, 3276.840
250.0291, 3275.739
250.5112, 3273.005
250.9933, 3268.315
251.4754, 3263.984
251.9576, 3261.923
252.4397, 3261.491
252.9218, 3259.574
253.4039, 3254.294
253.8860, 3248.630
254.3681, 3246.309
254.8503, 3247.302
255.3324, 3247.771
255.8145, 3244.319
256.2966, 3237.935
256.7787, 3233.814
257.2608, 3233.784
257.7430, 3235.154
258.2251, 3235.927
258.7072, 3236.104
259.1893, 3235.614
259.6714, 3233.989
260.1535, 3231.515
260.6357, 3229.663
261.1178, 3228.515
261.5999, 3228.237
262.0820, 3229.464
262.5641, 3231.649
263.0462, 3233.109
263.5284, 3232.453
264.0105, 3230.024
264.4926, 3227.864
264.9747, 3226.327
265.4568, 3224.542
265.9389, 3221.286
266.4211, 3217.486
266.9032, 3215.104
267.3853, 3215.791
267.8674, 3218.774
268.3495, 3220.717
268.8316, 3221.181
269.3138, 3221.138
269.7959, 3220.567
270.2780, 3219.879
270.7601, 3219.862
271.2422, 3221.272
271.7243, 3223.296
272.2065, 3223.007
272.6886, 3218.885
273.1707, 3214.941
273.6528, 3211.669
274.1349, 3209.354
274.6170, 3208.653
275.0992, 3210.014
275.5813, 3212.431
276.0634, 3213.275
276.5455, 3211.444
277.0276, 3210.089
277.5097, 3209.622
277.9919, 3209.884
278.4740, 3211.079
278.9561, 3213.264
279.4382, 3215.531
279.9203, 3215.940
280.4024, 3213.040
280.8846, 3211.384
281.3667, 3212.089
281.8488, 3213.568
282.3309, 3214.916
282.8130, 3215.816
283.2951, 3216.162
283.7773, 3215.527
284.2594, 3212.931
284.7415, 3211.871
285.2236, 3214.391
285.7057, 3216.764
286.1878, 3216.338
286.6700, 3213.077
287.1521, 3209.127
287.6342, 3206.926
288.1163, 3206.891
288.5984, 3207.065
289.0805, 3206.478
289.5627, 3206.892
290.0448, 3210.443
290.5269, 3216.131
291.0090, 3220.609
291.4911, 3220.585
291.9732, 3215.639
292.4554, 3211.502
292.9375, 3208.448
293.4196, 3205.888
293.9017, 3203.961
294.3838, 3202.391
294.8659, 3200.645
295.3481, 3198.302
295.8302, 3195.434
296.3123, 3193.099
296.7944, 3191.169
297.2765, 3189.979
297.7586, 3190.260
298.2408, 3191.217
298.7229, 3191.784
299.2050, 3191.387
299.6871, 3190.107
300.1692, 3188.215
300.6513, 3185.692
301.1335, 3182.500
301.6156, 3177.615
302.0977, 3172.521
302.5798, 3168.845
303.0619, 3167.240
303.5440, 3167.038
304.0262, 3166.847
304.5083, 3166.695
304.9904, 3166.520
305.4725, 3166.929
305.9546, 3166.952
306.4367, 3165.728
306.9189, 3163.087
307.4010, 3159.517
307.8831, 3155.582
308.3652, 3150.764
308.8473, 3146.979
309.3294, 3144.458
309.8116, 3142.534
310.2937, 3140.703
310.7758, 3138.998
311.2579, 3138.008
311.7400, 3138.614
312.2221, 3141.419
312.7043, 3141.347
313.1864, 3135.565
313.6685, 3130.121
314.1506, 3128.161
314.6327, 3128.607
315.1148, 3128.218
315.5970, 3124.417
316.0791, 3117.618
316.5612, 3113.469
317.0433, 3115.633
317.5254, 3116.375
318.0075, 3112.654
318.4897, 3106.794
318.9718, 3102.635
319.4539, 3102.220
319.9360, 3104.133
320.4181, 3103.802
320.9002, 3098.812
321.3824, 3094.433
321.8645, 3091.172
322.3466, 3088.514
322.8287, 3085.984
323.3108, 3083.424
323.7929, 3080.846
324.2751, 3078.384
324.7572, 3076.720
325.2393, 3073.707
325.7214, 3067.573
326.2035, 3061.549
326.6856, 3058.188
327.1678, 3057.556
327.6499, 3057.626
328.1320, 3056.237
328.6141, 3053.191
329.0962, 3049.542
329.5783, 3044.677
330.0605, 3039.872
330.5426, 3036.039
331.0247, 3032.762
331.5068, 3028.804
331.9889, 3023.039
332.4710, 3015.675
332.9532, 3010.145
333.4353, 3009.027
333.9174, 3006.976
334.3995, 3002.042
334.8816, 2995.790
335.3637, 2990.542
335.8459, 2987.521
336.3280, 2986.013
336.8101, 2983.989
337.2922, 2981.089
337.7743, 2978.177
338.2564, 2975.635
338.7386, 2972.942
339.2206, 2969.707
339.7028, 2965.792
340.1849, 2961.277
340.6670, 2956.105
341.1491, 2949.665
341.6312, 2944.156
342.1133, 2940.173
342.5955, 2936.517
343.0776, 2932.820
343.5597, 2928.883
344.0418, 2924.317
344.5239, 2918.323
345.0060, 2910.661
345.4882, 2905.801
345.9703, 2907.866
346.4524, 2908.840
346.9345, 2905.406
347.4166, 2899.438
347.8987, 2894.521
348.3809, 2892.959
348.8630, 2893.918
349.3451, 2894.116
349.8272, 2893.682
350.3093, 2892.103
350.7914, 2888.392
351.2736, 2884.056
351.7557, 2880.385
352.2378, 2877.819
352.7199, 2876.474
353.2020, 2877.011
353.6841, 2880.542
354.1663, 2882.488
354.6484, 2881.808
355.1305, 2879.864
355.6126, 2876.443
356.0947, 2872.048
356.5768, 2868.648
357.0590, 2868.721
357.5411, 2872.450
358.0232, 2875.142
358.5053, 2876.856
358.9874, 2877.321
359.4695, 2875.711
359.9517, 2872.880
360.4338, 2870.538
360.9159, 2869.845
361.3980, 2870.239
361.8801, 2869.943
362.3622, 2868.698
362.8444, 2867.322
363.3265, 2865.812
363.8086, 2864.447
364.2907, 2863.523
364.7728, 2863.120
365.2549, 2863.149
365.7371, 2863.806
366.2192, 2865.253
366.7013, 2865.754
367.1834, 2863.813
367.6655, 2861.664
368.1476, 2860.735
368.6298, 2861.125
369.1119, 2862.616
369.5940, 2866.345
370.0761, 2871.434
370.5582, 2873.420
371.0403, 2871.202
371.5225, 2867.108
372.0046, 2861.812
372.4867, 2855.969
372.9688, 2851.094
373.4509, 2848.345
373.9330, 2846.548
374.4152, 2843.657
374.8973, 2839.444
375.3794, 2836.163
375.8615, 2835.444
376.3436, 2836.162
376.8257, 2836.649
377.3079, 2836.802
377.7900, 2836.567
378.2721, 2834.962
378.7542, 2832.638
379.2363, 2832.933
379.7184, 2837.951
380.2006, 2843.952
380.6827, 2846.004
381.1648, 2844.277
381.6469, 2841.919
382.1290, 2838.793
382.6111, 2836.069
383.0933, 2836.248
383.5754, 2839.793
384.0575, 2842.615
384.5396, 2840.875
385.0217, 2835.180
385.5038, 2831.236
385.9860, 2830.205
386.4681, 2830.092
386.9502, 2830.234
387.4323, 2830.398
387.9144, 2829.815
388.3965, 2828.040
388.8787, 2825.426
389.3608, 2822.823
389.8429, 2820.126
390.3250, 2817.605
390.8071, 2815.059
391.2892, 2812.819
391.7714, 2811.478
392.2535, 2811.131
392.7356, 2811.004
393.2177, 2810.132
393.6998, 2808.230
394.1819, 2807.011
394.6641, 2806.969
395.1462, 2807.089
395.6283, 2807.489
396.1104, 2807.657
396.5925, 2805.987
397.0746, 2801.075
397.5568, 2793.964
398.0389, 2790.394
398.5210, 2794.118
399.0031, 2796.993
399.4852, 2797.680
399.9673, 2797.295
400.4495, 2797.322
400.9316, 2798.158
401.4137, 2798.709
401.8958, 2796.898
402.3779, 2790.658
402.8600, 2787.805
403.3422, 2790.387
403.8243, 2793.999
404.3064, 2797.048
404.7885, 2799.196
405.2706, 2800.376
405.7527, 2800.405
406.2349, 2799.432
406.7170, 2798.662
407.1991, 2797.844
407.6812, 2797.645
408.1633, 2798.766
408.6454, 2800.289
409.1276, 2801.137
409.6097, 2800.917
410.0918, 2800.242
410.5739, 2800.245
411.0560, 2801.268
411.5381, 2801.173
412.0203, 2798.558
412.5024, 2795.617
412.9845, 2793.799
413.4666, 2792.928
413.9487, 2791.734
414.4308, 2788.895
414.9130, 2784.980
415.3951, 2782.265
415.8772, 2781.207
416.3593, 2780.226
416.8414, 2778.764
417.3235, 2776.755
417.8057, 2773.826
418.2878, 2769.348
418.7699, 2765.015
419.2520, 2762.715
419.7341, 2762.243
420.2162, 2761.626
420.6984, 2760.175
421.1805, 2758.473
421.6626, 2757.217
422.1447, 2756.377
422.6268, 2755.821
423.1089, 2756.231
423.5911, 2756.575
424.0732, 2755.315
424.5553, 2752.284
425.0374, 2748.427
425.5195, 2744.036
426.0016, 2739.392
426.4838, 2736.095
426.9659, 2735.126
427.4480, 2734.423
427.9301, 2732.847
428.4122, 2730.893
428.8943, 2729.760
429.3765, 2729.966
429.8586, 2730.757
430.3407, 2730.856
430.8228, 2730.194
431.3049, 2728.889
431.7870, 2725.972
432.2692, 2723.177
432.7513, 2722.114
433.2334, 2722.580
433.7155, 2722.987
434.1976, 2722.011
434.6797, 2719.774
435.1619, 2718.062
435.6440, 2717.331
436.1261, 2716.587
436.6082, 2715.464
437.0903, 2714.309
437.5724, 2713.466
438.0546, 2713.066
438.5367, 2713.099
439.0188, 2713.847
439.5009, 2716.021
439.9830, 2716.542
440.4651, 2713.973
440.9473, 2710.926
441.4294, 2707.636
441.9115, 2704.789
442.3936, 2704.028
442.8757, 2707.366
443.3578, 2713.033
443.8400, 2714.388
444.3221, 2709.328
444.8042, 2705.262
445.2863, 2705.787
445.7684, 2708.038
446.2505, 2709.611
446.7327, 2710.023
447.2148, 2709.971
447.6969, 2710.200
448.1790, 2710.556
448.6611, 2709.979
449.1432, 2707.862
449.6254, 2705.677
450.1075, 2704.911
450.5896, 2705.144
451.0717, 2705.138
451.5538, 2704.052
452.0359, 2702.951
452.5181, 2703.324
453.0002, 2704.879
453.4823, 2705.404
453.9644, 2703.492
454.4465, 2700.430
454.9286, 2699.243
455.4108, 2700.344
455.8929, 2701.552
456.3750, 2703.713
456.8571, 2705.018
457.3392, 2702.452
457.8214, 2696.032
458.3035, 2689.893
458.7856, 2687.911
459.2677, 2690.152
459.7498, 2690.587
460.2319, 2687.923
460.7141, 2685.266
461.1962, 2684.323
461.6783, 2683.655
462.1604, 2680.944
462.6425, 2675.360
463.1246, 2668.397
463.6068, 2662.721
464.0889, 2659.394
464.5710, 2654.612
465.0531, 2646.844
465.5352, 2639.156
466.0173, 2632.549
466.4995, 2627.224
466.9816, 2623.446
467.4637, 2621.854
467.9458, 2621.393
468.4279, 2618.453
468.9100, 2612.001
469.3922, 2605.721
469.8743, 2600.665
470.3564, 2596.200
470.8385, 2591.847
471.3206, 2587.532
471.8027, 2583.564
472.2849, 2580.625
472.7670, 2578.280
473.2491, 2574.777
473.7312, 2569.617
474.2133, 2564.246
474.6954, 2559.468
475.1776, 2555.247
475.6597, 2551.725
476.1418, 2549.696
476.6239, 2547.431
477.1060, 2543.569
477.5881, 2538.505
478.0703, 2533.227
478.5524, 2528.040
479.0345, 2523.019
479.5166, 2518.392
479.9987, 2514.297
480.4808, 2509.921
480.9630, 2504.665
481.4451, 2499.614
481.9272, 2495.393
482.4093, 2492.052
482.8914, 2489.753
483.3735, 2488.749
483.8557, 2488.365
484.3378, 2486.141
484.8199, 2480.333
485.3020, 2475.074
485.7841, 2470.406
486.2662, 2466.359
486.7484, 2463.253
487.2305, 2460.898
487.7126, 2458.419
488.1947, 2454.688
488.6768, 2449.883
489.1589, 2447.227
489.6411, 2449.000
490.1232, 2449.244
490.6053, 2444.594
491.0874, 2438.321
491.5695, 2434.390
492.0516, 2434.025
492.5338, 2434.549
493.0159, 2433.377
493.4980, 2430.643
493.9801, 2427.245
494.4622, 2422.618
494.9443, 2418.708
495.4265, 2418.023
495.9086, 2419.438
496.3907, 2419.823
496.8728, 2417.816
497.3549, 2415.047
497.8370, 2412.362
498.3192, 2409.953
498.8013, 2408.843
499.2834, 2409.763
499.7655, 2411.153
500.2476, 2410.070
500.7297, 2405.078
501.2119, 2402.821
501.6940, 2406.403
502.1761, 2410.613
502.6582, 2410.973
503.1403, 2408.496
503.6224, 2407.601
504.1045, 2411.246
504.5866, 2417.856
505.0688, 2421.727
505.5509, 2421.056
506.0330, 2420.355
506.5151, 2419.577
506.9972, 2419.116
507.4793, 2419.558
507.9615, 2420.733
508.4436, 2421.673
508.9257, 2421.325
509.4078, 2420.038
509.8899, 2420.199
510.3720, 2422.879
510.8542, 2424.660
511.3363, 2423.832
511.8184, 2421.711
512.3005, 2419.354
512.7827, 2416.906
513.2648, 2414.622
513.7469, 2411.989
514.2290, 2409.659
514.7111, 2410.033
515.1932, 2413.936
515.6754, 2418.104
516.1575, 2420.499
516.6396, 2421.031
517.1217, 2419.906
517.6038, 2415.344
518.0859, 2411.196
518.5681, 2409.222
519.0502, 2408.819
519.5323, 2409.382
520.0144, 2410.710
520.4965, 2411.710
520.9786, 2410.846
521.4608, 2407.558
521.9429, 2405.884
522.4250, 2407.142
522.9071, 2408.285
523.3892, 2408.498
523.8713, 2407.809
524.3535, 2406.337
524.8356, 2404.144
525.3177, 2401.327
525.7998, 2397.580
526.2819, 2392.239
526.7640, 2389.350
527.2462, 2391.601
527.7283, 2393.834
528.2104, 2393.766
528.6925, 2391.766
529.1746, 2388.778
529.6567, 2384.817
530.1389, 2380.679
530.6210, 2377.684
531.1031, 2375.746
531.5852, 2373.133
532.0673, 2368.809
532.5494, 2364.481
533.0316, 2362.661
533.5137, 2363.166
533.9958, 2363.157
534.4779, 2362.480
534.9600, 2360.744
535.4421, 2357.170
535.9243, 2352.195
536.4064, 2346.886
536.8885, 2341.634
537.3706, 2337.059
537.8527, 2334.587
538.3348, 2335.353
538.8170, 2336.051
539.2991, 2336.873
539.7812, 2337.462
540.2633, 2337.865
540.7454, 2337.864
541.2275, 2336.950
541.7097, 2334.747
542.1918, 2331.665
542.6739, 2328.758
543.1560, 2326.084
543.6381, 2323.355
544.1202, 2319.988
544.6024, 2317.020
545.0845, 2315.313
545.5666, 2314.703
546.0487, 2314.232
546.5308, 2313.543
547.0129, 2312.603
547.4951, 2311.104
547.9772, 2309.072
548.4593, 2307.679
548.9414, 2307.655
549.4235, 2308.253
549.9056, 2308.135
550.3878, 2307.251
550.8699, 2306.245
551.3520, 2304.842
551.8341, 2303.668
552.3162, 2303.503
552.7983, 2304.098
553.2805, 2304.493
553.7626, 2304.124
554.2447, 2303.176
554.7268, 2302.160
555.2089, 2300.914
555.6910, 2299.886
556.1732, 2299.757
556.6553, 2299.233
557.1374, 2297.010
557.6195, 2293.606
558.1016, 2290.752
558.5837, 2289.569
559.0659, 2289.551
559.5480, 2289.877
560.0301, 2290.815
560.5122, 2290.456
560.9943, 2287.999
561.4764, 2284.206
561.9586, 2279.544
562.4407, 2274.120
562.9228, 2269.231
563.4049, 2265.273
563.8870, 2262.147
564.3691, 2259.890
564.8513, 2258.438
565.3334, 2257.711
565.8155, 2257.898
566.2976, 2258.142
566.7797, 2256.772
567.2618, 2253.083
567.7440, 2249.267
568.2261, 2244.097
568.7082, 2239.958
569.1903, 2238.974
569.6724, 2240.112
570.1545, 2240.921
570.6367, 2240.105
571.1188, 2238.093
571.6009, 2235.736
572.0830, 2232.972
572.5651, 2229.948
573.0472, 2226.021
573.5294, 2222.492
574.0115, 2220.596
574.4936, 2219.665
574.9757, 2217.751
575.4578, 2213.239
575.9399, 2208.518
576.4221, 2206.586
576.9042, 2207.030
577.3863, 2207.760
577.8684, 2208.544
578.3505, 2208.360
578.8326, 2205.602
579.3148, 2200.027
579.7969, 2195.582
580.2790, 2192.529
580.7611, 2190.493
581.2432, 2190.052
581.7253, 2190.298
582.2075, 2189.585
582.6896, 2187.405
583.1717, 2184.906
583.6538, 2183.845
584.1359, 2184.580
584.6180, 2184.149
585.1002, 2180.680
585.5823, 2178.275
586.0643, 2179.486
586.5464, 2181.949
587.0286, 2182.256
587.5107, 2179.301
587.9928, 2175.823
588.4749, 2174.348
588.9570, 2174.511
589.4391, 2175.151
589.9213, 2176.338
590.4034, 2177.006
590.8855, 2176.019
591.3676, 2173.986
591.8497, 2173.251
592.3318, 2174.802
592.8140, 2175.953
593.2961, 2175.537
593.7782, 2174.486
594.2603, 2173.688
594.7424, 2173.341
595.2245, 2173.564
595.7067, 2174.647
596.1888, 2176.211
596.6709, 2175.813
597.1530, 2171.059
597.6351, 2168.570
598.1172, 2171.109
598.5994, 2174.457
599.0815, 2174.989
599.5636, 2173.087
600.0457, 2172.252
600.5278, 2175.669
601.0099, 2180.937
601.4921, 2183.077
601.9742, 2182.033
602.4563, 2181.581
602.9384, 2183.233
603.4205, 2185.752
603.9026, 2187.651
604.3848, 2189.007
604.8669, 2189.337
605.3490, 2186.880
605.8311, 2184.966
606.3132, 2186.639
606.7953, 2190.402
607.2775, 2192.839
607.7596, 2192.617
608.2417, 2191.051
608.7238, 2190.199
609.2059, 2190.363
609.6880, 2189.740
610.1702, 2187.012
610.6523, 2185.027
611.1344, 2185.654
611.6165, 2187.203
612.0986, 2187.111
612.5807, 2184.547
613.0629, 2181.618
613.5450, 2180.372
614.0271, 2180.335
614.5092, 2179.909
614.9913, 2178.868
615.4734, 2177.900
615.9556, 2177.322
616.4377, 2177.198
616.9198, 2177.874
617.4019, 2180.718
617.8840, 2181.740
618.3661, 2178.983
618.8483, 2174.913
619.3304, 2171.354
619.8125, 2168.612
620.2946, 2166.582
620.7767, 2165.241
621.2589, 2164.411
621.7410, 2163.545
622.2231, 2162.489
622.7052, 2161.876
623.1873, 2162.421
623.6694, 2162.855
624.1516, 2162.480
624.6337, 2161.400
625.1158, 2159.910
625.5979, 2157.589
626.0800, 2155.677
626.5621, 2156.112
627.0443, 2158.096
627.5264, 2158.733
628.0085, 2157.221
628.4906, 2155.032
628.9727, 2153.571
629.4548, 2152.843
629.9370, 2151.753
630.4191, 2150.616
630.9012, 2148.788
631.3833, 2144.911
631.8654, 2140.978
632.3475, 2139.260
632.8297, 2139.905
633.3118, 2141.270
633.7939, 2142.209
634.2760, 2142.619
634.7581, 2142.156
635.2402, 2141.021
635.7224, 2138.130
636.2045, 2131.535
636.6866, 2124.484
637.1687, 2120.470
637.6508, 2119.404
638.1329, 2118.782
638.6151, 2118.528
639.0972, 2117.820
639.5793, 2115.762
640.0614, 2112.706
640.5435, 2109.292
641.0256, 2105.756
641.5078, 2102.860
641.9899, 2101.887
642.4720, 2103.244
642.9541, 2103.142
643.4362, 2101.592
643.9183, 2098.415
644.4005, 2090.898
644.8826, 2083.149
645.3647, 2080.776
645.8468, 2084.486
646.3289, 2087.824
646.8110, 2084.102
647.2932, 2076.370
647.7753, 2072.502
648.2574, 2072.825
648.7395, 2073.716
649.2216, 2073.869
649.7037, 2073.337
650.1859, 2072.125
650.6680, 2070.116
651.1501, 2067.973
651.6322, 2065.697
652.1143, 2063.331
652.5964, 2060.794
653.0786, 2058.213
653.5607, 2055.808
654.0428, 2053.663
654.5249, 2051.666
655.0070, 2049.613
655.4891, 2047.484
655.9713, 2045.935
656.4534, 2045.600
656.9355, 2044.610
657.4176, 2041.406
657.8997, 2037.361
658.3818, 2033.781
658.8640, 2030.690
659.3461, 2028.861
659.8282, 2029.682
660.3103, 2031.258
660.7924, 2031.642
661.2745, 2030.784
661.7567, 2029.018
662.2388, 2026.421
662.7209, 2023.584
663.2030, 2021.643
663.6851, 2020.825
664.1672, 2020.135
664.6494, 2020.062
665.1315, 2019.575
665.6136, 2017.816
666.0957, 2015.626
666.5778, 2014.116
667.0599, 2013.585
667.5421, 2013.808
668.0242, 2014.977
668.5063, 2016.685
668.9884, 2018.371
669.4705, 2020.011
669.9526, 2019.670
670.4348, 2015.583
670.9169, 2009.886
671.3990, 2007.315
671.8811, 2009.192
672.3632, 2011.077
672.8453, 2013.552
673.3275, 2015.372
673.8096, 2015.783
674.2917, 2015.072
674.7738, 2013.593
675.2559, 2011.502
675.7380, 2009.425
676.2202, 2008.286
676.7023, 2007.970
677.1844, 2007.239
677.6665, 2005.866
678.1486, 2004.666
678.6307, 2003.820
679.1129, 2003.560
679.5950, 2004.793
680.0771, 2008.471
680.5592, 2009.493
681.0413, 2004.403
681.5234, 1998.131
682.0056, 1993.878
682.4877, 1991.625
682.9698, 1990.674
683.4519, 1990.722
683.9340, 1991.598
684.4161, 1993.803
684.8983, 1997.769
685.3804, 1997.475
685.8625, 1990.264
686.3446, 1983.450
686.8267, 1980.119
687.3088, 1978.919
687.7910, 1978.955
688.2731, 1980.313
688.7552, 1980.738
689.2373, 1978.820
689.7194, 1975.794
690.2015, 1972.230
690.6837, 1968.666
691.1658, 1966.863
691.6479, 1967.606
692.1300, 1969.163
692.6121, 1968.818
693.0942, 1966.142
693.5764, 1964.715
694.0585, 1966.245
694.5406, 1966.724
695.0227, 1964.294
695.5048, 1960.760
695.9869, 1957.897
696.4691, 1955.992
696.9512, 1954.548
697.4333, 1953.715
697.9154, 1952.893
698.3975, 1950.825
698.8796, 1947.875
699.3618, 1946.104
699.8439, 1946.372
700.3260, 1947.237
700.8081, 1946.766
701.2902, 1944.779
701.7723, 1943.151
702.2545, 1943.062
702.7366, 1941.881
703.2187, 1937.353
703.7008, 1932.633
704.1829, 1931.548
704.6650, 1933.982
705.1472, 1935.612
705.6293, 1932.483
706.1114, 1927.667
706.5935, 1926.352
707.0756, 1928.042
707.5577, 1929.542
708.0399, 1929.940
708.5220, 1929.772
709.0041, 1929.443
709.4862, 1928.946
709.9683, 1929.328
710.4504, 1932.712
710.9326, 1934.136
711.4147, 1930.805
711.8968, 1926.631
712.3789, 1925.778
712.8610, 1927.652
713.3431, 1927.967
713.8253, 1923.351
714.3074, 1917.105
714.7895, 1914.585
715.2716, 1915.326
715.7537, 1916.071
716.2358, 1916.309
716.7180, 1915.656
717.2001, 1913.349
717.6822, 1909.836
718.1643, 1908.105
718.6464, 1910.383
719.1285, 1911.183
719.6107, 1909.513
720.0928, 1906.587
720.5749, 1902.558
721.0570, 1898.061
721.5391, 1894.264
722.0212, 1891.735
722.5034, 1890.139
722.9855, 1889.565
723.4676, 1889.691
723.9497, 1888.200
724.4318, 1884.460
724.9139, 1881.623
725.3961, 1882.155
725.8782, 1884.607
726.3603, 1884.932
726.8424, 1882.439
727.3245, 1879.494
727.8066, 1874.951
728.2888, 1871.240
728.7709, 1870.304
729.2530, 1871.027
729.7351, 1871.286
730.2172, 1870.366
730.6993, 1869.498
731.1815, 1870.776
731.6636, 1873.229
732.1457, 1872.727
732.6278, 1868.934
733.1099, 1865.436
733.5920, 1863.811
734.0742, 1863.111
734.5563, 1861.816
735.0384, 1859.641
735.5205, 1858.387
736.0026, 1858.182
736.4847, 1858.729
736.9669, 1861.211
737.4490, 1863.666
737.9311, 1862.931
738.4132, 1859.127
738.8953, 1856.660
739.3774, 1860.061
739.8596, 1866.021
740.3417, 1867.560
740.8238, 1864.884
741.3059, 1860.811
741.7880, 1855.559
742.2701, 1850.974
742.7523, 1849.018
743.2344, 1849.501
743.7165, 1849.674
744.1986, 1849.474
744.6807, 1849.062
745.1628, 1848.719
745.6450, 1847.953
746.1271, 1845.857
746.6092, 1843.010
747.0913, 1841.243
747.5734, 1841.807
748.0555, 1842.392
748.5377, 1839.186
749.0198, 1833.521
749.5019, 1830.743
749.9840, 1831.572
750.4661, 1833.284
750.9482, 1834.692
751.4304, 1835.259
751.9125, 1833.416
752.3946, 1826.989
752.8767, 1823.374
753.3588, 1824.775
753.8409, 1826.314
754.3231, 1826.174
754.8052, 1824.832
755.2873, 1822.852
755.7694, 1820.416
756.2515, 1818.239
756.7336, 1817.186
757.2158, 1816.557
757.6979, 1815.098
758.1800, 1812.919
758.6621, 1810.806
759.1442, 1809.013
759.6263, 1807.469
760.1085, 1806.052
760.5906, 1804.770
761.0727, 1803.988
761.5548, 1804.118
762.0369, 1804.165
762.5190, 1803.871
763.0012, 1803.548
763.4833, 1803.452
763.9654, 1803.548
764.4475, 1803.640
764.9296, 1803.743
765.4117, 1803.656
765.8939, 1803.216
766.3760, 1802.461
766.8581, 1801.130
767.3402, 1799.364
767.8223, 1798.583
768.3044, 1799.899
768.7866, 1801.921
769.2687, 1800.730
769.7508, 1794.784
770.2329, 1791.333
770.7150, 1791.813
771.1971, 1793.063
771.6793, 1794.168
772.1614, 1794.924
772.6435, 1794.850
773.1256, 1793.779
773.6077, 1793.031
774.0898, 1793.704
774.5720, 1794.369
775.0541, 1793.792
775.5362, 1792.323
776.0183, 1790.703
776.5004, 1789.172
776.9825, 1787.569
777.4647, 1785.615
777.9468, 1783.500
778.4289, 1782.366
778.9110, 1782.487
779.3931, 1782.054
779.8752, 1780.321
780.3574, 1778.419
780.8395, 1777.410
781.3216, 1777.137
781.8037, 1776.800
782.2858, 1776.533
782.7679, 1775.963
783.2501, 1774.514
783.7322, 1773.126
784.2143, 1772.764
784.6964, 1773.132
785.1785, 1773.343
785.6606, 1772.999
786.1428, 1772.241
786.6249, 1770.962
787.1070, 1769.387
787.5891, 1768.427
788.0712, 1768.131
788.5533, 1768.511
789.0355, 1769.797
789.5176, 1771.248
789.9997, 1771.645
790.4818, 1770.741
790.9639, 1770.326
791.4460, 1771.525
791.9282, 1771.771
792.4103, 1769.511
792.8924, 1766.766
793.3745, 1765.217
793.8566, 1765.012
794.3387, 1765.648
794.8209, 1767.645
795.3030, 1769.218
795.7851, 1768.179
796.2672, 1765.515
796.7493, 1763.250
797.2314, 1761.705
797.7136, 1760.444
798.1957, 1759.131
798.6778, 1758.063
799.1599, 1758.260
799.6420, 1760.388
800.1241, 1760.821
800.6063, 1757.970
801.0884, 1755.753
801.5705, 1756.712
802.0526, 1758.944
802.5347, 1760.326
803.0168, 1760.727
803.4990, 1760.392
803.9811, 1758.966
804.4632, 1757.281
804.9453, 1755.127
805.4274, 1753.407
805.9095, 1754.010
806.3917, 1756.832
806.8738, 1759.209
807.3559, 1758.879
807.8380, 1757.054
808.3201, 1756.739
808.8022, 1757.828
809.2844, 1757.392
809.7665, 1754.544
810.2486, 1751.997
810.7307, 1751.801
811.2128, 1753.199
811.6949, 1753.922
812.1771, 1754.102
812.6592, 1753.245
813.1413, 1750.059
813.6234, 1747.278
814.1055, 1746.106
814.5876, 1746.059
815.0698, 1746.460
815.5519, 1747.162
816.0340, 1748.309
816.5161, 1750.603
816.9982, 1752.904
817.4803, 1753.782
817.9625, 1753.564
818.4446, 1753.288
818.9267, 1753.139
819.4088, 1752.055
819.8909, 1748.850
820.3730, 1744.564
820.8552, 1743.208
821.3373, 1745.553
821.8194, 1747.395
822.3015, 1748.170
822.7836, 1748.605
823.2657, 1749.203
823.7479, 1749.736
824.2300, 1749.663
824.7121, 1748.741
825.1942, 1748.167
825.6763, 1749.041
826.1584, 1749.448
826.6406, 1746.895
827.1227, 1743.830
827.6048, 1744.637
828.0869, 1749.602
828.5690, 1753.989
829.0511, 1753.715
829.5333, 1751.169
830.0154, 1750.128
830.4975, 1750.470
830.9796, 1751.976
831.4617, 1754.643
831.9438, 1756.645
832.4260, 1756.353
832.9081, 1754.887
833.3902, 1755.872
833.8723, 1760.891
834.3544, 1764.133
834.8365, 1763.985
835.3187, 1764.011
835.8008, 1766.524
836.2829, 1769.453
836.7650, 1769.840
837.2471, 1767.359
837.7292, 1765.567
838.2114, 1765.915
838.6935, 1766.988
839.1756, 1768.088
839.6577, 1769.270
840.1398, 1771.015
840.6219, 1773.103
841.1041, 1774.150
841.5862, 1772.957
842.0683, 1771.210
842.5504, 1772.445
843.0325, 1776.067
843.5146, 1777.484
843.9968, 1775.961
844.4789, 1775.621
844.9610, 1779.291
845.4431, 1784.044
845.9252, 1784.190
846.4073, 1778.316
846.8895, 1775.016
847.3716, 1777.022
847.8537, 1777.955
848.3358, 1775.031
848.8179, 1771.529
849.3000, 1770.803
849.7822, 1772.377
850.2643, 1772.764
850.7464, 1769.567
851.2285, 1767.038
851.7106, 1768.851
852.1927, 1771.823
852.6749, 1771.833
853.1570, 1769.472
853.6391, 1768.009
854.1212, 1768.948
854.6033, 1770.584
855.0854, 1770.597
855.5676, 1769.383
856.0497, 1769.039
856.5318, 1769.627
857.0139, 1769.449
857.4960, 1767.858
857.9781, 1765.571
858.4603, 1762.943
858.9424, 1760.199
859.4245, 1760.111
859.9066, 1765.525
860.3887, 1768.675
860.8708, 1767.234
861.3530, 1765.250
861.8351, 1764.294
862.3172, 1764.428
862.7993, 1765.989
863.2814, 1769.436
863.7635, 1771.800
864.2457, 1771.065
864.7278, 1769.514
865.2099, 1768.669
865.6920, 1768.418
866.1741, 1768.659
866.6563, 1769.203
867.1384, 1769.254
867.6205, 1767.955
868.1026, 1766.280
868.5847, 1766.339
869.0668, 1767.828
869.5490, 1768.727
870.0311, 1768.724
870.5132, 1768.728
870.9953, 1769.199
871.4774, 1770.191
871.9595, 1771.889
872.4417, 1774.503
872.9238, 1776.689
873.4059, 1777.992
873.8880, 1779.612
874.3701, 1782.899
874.8522, 1785.877
875.3344, 1786.517
875.8165, 1785.178
876.2986, 1784.166
876.7807, 1783.926
877.2628, 1784.073
877.7449, 1785.144
878.2271, 1785.980
878.7092, 1785.432
879.1913, 1783.825
879.6734, 1781.578
880.1555, 1778.911
880.6376, 1777.680
881.1198, 1781.371
881.6019, 1786.809
882.0840, 1787.531
882.5661, 1784.520
883.0482, 1782.306
883.5303, 1782.046
884.0125, 1782.209
884.4946, 1781.472
884.9767, 1780.219
885.4588, 1779.975
885.9409, 1781.196
886.4230, 1780.636
886.9052, 1777.122
887.3873, 1773.997
887.8694, 1773.492
888.3515, 1773.864
888.8336, 1772.050
889.3157, 1767.682
889.7979, 1763.947
890.2800, 1761.187
890.7621, 1758.702
891.2442, 1756.548
891.7263, 1754.392
892.2084, 1751.592
892.6906, 1748.556
893.1727, 1746.728
893.6548, 1747.000
894.1369, 1747.113
894.6190, 1745.375
895.1011, 1742.788
895.5833, 1740.558
896.0654, 1738.521
896.5475, 1735.777
897.0296, 1732.189
897.5117, 1729.013
897.9938, 1727.399
898.4760, 1727.097
898.9581, 1727.860
899.4402, 1729.543
899.9223, 1730.572
900.4044, 1730.716
900.8865, 1729.629
901.3687, 1726.758
901.8508, 1723.224
902.3329, 1721.554
902.8150, 1722.234
903.2971, 1722.282
903.7792, 1721.019
904.2614, 1720.313
904.7435, 1721.189
905.2256, 1722.477
905.7077, 1722.881
906.1898, 1722.674
906.6719, 1723.395
907.1541, 1726.034
907.6362, 1728.342
908.1183, 1729.636
908.6004, 1730.532
909.0825, 1731.743
909.5646, 1732.757
910.0468, 1732.123
910.5289, 1729.630
911.0110, 1728.171
911.4931, 1730.825
911.9752, 1734.501
912.4573, 1735.662
912.9395, 1735.348
913.4216, 1735.550
913.9037, 1736.651
914.3858, 1738.500
914.8679, 1741.045
915.3500, 1743.870
915.8321, 1746.271
916.3142, 1748.286
916.7963, 1750.143
917.2784, 1751.819
917.7606, 1754.338
918.2427, 1758.421
918.7248, 1762.040
919.2069, 1763.004
919.6890, 1761.582
920.1711, 1759.570
920.6533, 1755.639
921.1354, 1754.449
921.6175, 1758.409
922.0996, 1762.485
922.5817, 1763.846
923.0638, 1763.820
923.5460, 1764.275
924.0281, 1765.309
924.5102, 1766.403
924.9923, 1767.929
925.4744, 1768.942
925.9565, 1768.331
926.4387, 1767.657
926.9208, 1769.139
927.4029, 1771.807
927.8850, 1772.230
928.3671, 1768.688
928.8492, 1765.330
929.3314, 1765.650
929.8135, 1767.121
930.2956, 1766.778
930.7777, 1765.320
931.2598, 1764.837
931.7419, 1765.660
932.2241, 1766.098
932.7062, 1764.614
933.1883, 1762.494
933.6704, 1762.287
934.1525, 1763.552
934.6346, 1764.402
935.1168, 1764.638
935.5989, 1764.400
936.0810, 1763.742
936.5631, 1762.707
937.0452, 1761.172
937.5273, 1759.238
938.0095, 1758.625
938.4916, 1759.644
938.9737, 1760.755
939.4558, 1761.850
939.9379, 1762.616
940.4200, 1762.682
940.9022, 1762.351
941.3843, 1762.480
941.8664, 1763.503
942.3485, 1763.621
942.8306, 1761.554
943.3127, 1760.255
943.7949, 1761.566
944.2770, 1763.121
944.7591, 1762.437
945.2412, 1760.025
945.7233, 1758.466
946.2054, 1758.669
946.6876, 1759.006
947.1697, 1759.164
947.6518, 1758.972
948.1339, 1757.755
948.6160, 1756.353
949.0981, 1756.237
949.5803, 1757.560
950.0624, 1758.929
950.5445, 1759.531
951.0266, 1759.796
951.5087, 1760.471
951.9908, 1760.961
952.4730, 1759.678
952.9551, 1757.159
953.4372, 1756.129
953.9193, 1757.651
954.4014, 1759.151
954.8835, 1757.255
955.3657, 1753.314
955.8478, 1751.324
956.3299, 1751.027
956.8120, 1750.968
957.2941, 1750.863
957.7762, 1748.664
958.2584, 1742.597
958.7405, 1735.406
959.2226, 1732.819
959.7047, 1735.124
960.1868, 1737.750
960.6689, 1741.518
961.1511, 1742.071
961.6332, 1737.083
962.1153, 1730.801
962.5974, 1727.018
963.0795, 1725.137
963.5616, 1722.480
964.0438, 1718.174
964.5259, 1714.966
965.0080, 1712.520
965.4901, 1711.652
965.9722, 1714.553
966.4543, 1717.774
966.9365, 1717.321
967.4186, 1713.519
967.9007, 1710.379
968.3828, 1707.841
968.8649, 1706.862
969.3470, 1709.959
969.8292, 1712.341
970.3113, 1709.979
970.7934, 1705.256
971.2755, 1702.083
971.7576, 1701.111
972.2397, 1700.190
972.7219, 1697.824
973.2040, 1695.757
973.6861, 1695.107
974.1682, 1695.358
974.6503, 1696.531
975.1324, 1697.974
975.6146, 1698.243
976.0967, 1696.838
976.5788, 1694.823
977.0609, 1693.023
977.5430, 1691.230
978.0251, 1688.663
978.5073, 1685.987
978.9894, 1684.864
979.4715, 1685.369
979.9536, 1686.408
980.4357, 1687.402
980.9178, 1688.267
981.4000, 1688.683
981.8821, 1688.883
982.3642, 1689.885
982.8463, 1691.598
983.3284, 1693.106
983.8105, 1694.176
984.2927, 1695.518
984.7748, 1697.698
985.2569, 1700.368
985.7390, 1703.238
986.2211, 1706.456
986.7032, 1706.499
987.1854, 1702.920
987.6675, 1698.363
988.1496, 1693.448
988.6317, 1688.362
989.1138, 1683.503
989.5959, 1678.515
990.0781, 1671.500
990.5602, 1660.379
991.0423, 1653.478
991.5244, 1653.201
992.0065, 1652.934
992.4886, 1649.852
992.9708, 1646.002
993.4529, 1643.766
993.9350, 1642.971
994.4171, 1641.616
994.8992, 1639.528
995.3813, 1637.143
995.8635, 1634.302
996.3456, 1631.371
996.8277, 1628.461
997.3098, 1625.615
997.7919, 1622.771
998.2740, 1619.978
998.7562, 1617.693
999.2383, 1616.739
999.7204, 1615.321
1000.203, 1612.346
1000.685, 1609.409
1001.167, 1608.006
1001.649, 1607.226
1002.131, 1605.346
1002.613, 1602.150
1003.095, 1599.421
1003.577, 1598.152
1004.059, 1597.267
1004.542, 1596.155
1005.024, 1595.127
1005.506, 1594.690
1005.988, 1594.530
1006.470, 1594.107
1006.952, 1593.211
1007.434, 1591.421
1007.916, 1587.143
1008.398, 1583.166
1008.881, 1583.093
1009.363, 1584.515
1009.845, 1583.975
1010.327, 1581.491
1010.809, 1578.357
1011.291, 1575.157
1011.773, 1572.594
1012.255, 1571.673
1012.738, 1571.543
1013.220, 1570.995
1013.702, 1570.127
1014.184, 1569.143
1014.666, 1568.082
1015.148, 1566.843
1015.630, 1565.383
1016.112, 1564.081
1016.594, 1563.530
1017.077, 1563.421
1017.559, 1563.031
1018.041, 1562.337
1018.523, 1561.129
1019.005, 1559.416
1019.487, 1557.619
1019.969, 1555.954
1020.451, 1554.480
1020.934, 1553.456
1021.416, 1552.693
1021.898, 1550.565
1022.380, 1547.157
1022.862, 1545.815
1023.344, 1547.299
1023.826, 1549.048
1024.308, 1549.478
1024.791, 1549.223
1025.273, 1549.669
1025.755, 1550.744
1026.237, 1549.025
1026.719, 1543.891
1027.201, 1541.043
1027.683, 1542.033
1028.165, 1543.967
1028.647, 1545.016
1029.130, 1545.541
1029.612, 1546.379
1030.094, 1547.632
1030.576, 1547.666
1031.058, 1546.103
1031.540, 1544.452
1032.022, 1542.559
1032.504, 1541.821
1032.986, 1543.820
1033.469, 1547.013
1033.951, 1547.695
1034.433, 1545.157
1034.915, 1544.558
1035.397, 1547.062
1035.879, 1548.973
1036.361, 1549.222
1036.843, 1549.143
1037.326, 1549.677
1037.808, 1550.560
1038.290, 1551.216
1038.772, 1551.709
1039.254, 1551.712
1039.736, 1550.531
1040.218, 1549.991
1040.700, 1551.040
1041.182, 1552.205
1041.665, 1552.531
1042.147, 1552.215
1042.629, 1551.644
1043.111, 1550.706
1043.593, 1549.986
1044.075, 1549.340
1044.557, 1549.129
1045.039, 1550.563
1045.521, 1551.344
1046.004, 1548.885
1046.486, 1544.910
1046.968, 1543.308
1047.450, 1544.801
1047.932, 1545.984
1048.414, 1546.585
1048.896, 1546.732
1049.378, 1546.483
1049.861, 1545.772
1050.343, 1544.333
1050.825, 1542.472
1051.307, 1540.736
1051.789, 1539.182
1052.271, 1537.850
1052.753, 1536.355
1053.235, 1535.608
1053.718, 1536.578
1054.200, 1537.744
1054.682, 1538.353
1055.164, 1538.180
1055.646, 1536.775
1056.128, 1534.011
1056.610, 1531.333
1057.092, 1528.993
1057.574, 1526.967
1058.057, 1524.907
1058.539, 1523.469
1059.021, 1523.698
1059.503, 1524.694
1059.985, 1524.863
1060.467, 1523.948
1060.949, 1522.668
1061.431, 1521.391
1061.913, 1519.632
1062.396, 1516.582
1062.878, 1513.590
1063.360, 1511.819
1063.842, 1510.824
1064.324, 1509.873
1064.806, 1508.820
1065.288, 1507.557
1065.770, 1506.120
1066.253, 1504.373
1066.735, 1501.721
1067.217, 1499.276
1067.699, 1497.901
1068.181, 1497.305
1068.663, 1497.309
1069.145, 1497.678
1069.627, 1497.061
1070.109, 1493.763
1070.592, 1491.389
1071.074, 1492.456
1071.556, 1494.131
1072.038, 1494.793
1072.520, 1494.383
1073.002, 1492.722
1073.484, 1490.047
1073.966, 1487.548
1074.448, 1485.316
1074.931, 1484.062
1075.413, 1485.086
1075.895, 1486.195
1076.377, 1485.831
1076.859, 1484.540
1077.341, 1482.922
1077.823, 1481.208
1078.305, 1479.884
1078.788, 1479.413
1079.270, 1478.365
1079.752, 1474.443
1080.234, 1471.510
1080.716, 1473.764
1081.198, 1477.378
1081.680, 1477.140
1082.162, 1473.817
1082.644, 1472.280
1083.127, 1474.561
1083.609, 1475.976
1084.091, 1473.493
1084.573, 1470.613
1085.055, 1469.354
1085.537, 1468.908
1086.019, 1468.882
1086.501, 1468.736
1086.984, 1466.982
1087.466, 1462.950
1087.948, 1460.589
1088.430, 1462.967
1088.912, 1465.672
1089.394, 1466.983
1089.876, 1467.069
1090.358, 1465.528
1090.840, 1463.131
1091.323, 1461.167
1091.805, 1459.901
1092.287, 1459.381
1092.769, 1460.719
1093.251, 1461.330
1093.733, 1459.386
1094.215, 1457.020
1094.697, 1456.098
1095.179, 1455.834
1095.662, 1454.498
1096.144, 1452.004
1096.626, 1450.425
1097.108, 1451.022
1097.590, 1451.663
1098.072, 1451.878
1098.554, 1451.688
1099.036, 1450.372
1099.519, 1449.128
1100.001, 1450.113
1100.483, 1452.897
1100.965, 1453.940
1101.447, 1451.413
1101.929, 1449.372
1102.411, 1449.275
1102.893, 1449.400
1103.375, 1449.136
1103.858, 1448.521
1104.340, 1447.272
1104.822, 1445.747
1105.304, 1445.221
1105.786, 1446.333
1106.268, 1446.809
1106.750, 1445.269
1107.232, 1444.324
1107.714, 1445.539
1108.197, 1447.009
1108.679, 1447.031
1109.161, 1446.212
1109.643, 1446.104
1110.125, 1446.962
1110.607, 1447.477
1111.089, 1448.255
1111.571, 1447.608
1112.054, 1443.587
1112.536, 1439.816
1113.018, 1438.958
1113.500, 1439.300
1113.982, 1438.012
1114.464, 1435.039
1114.946, 1432.745
1115.428, 1431.272
1115.911, 1430.282
1116.393, 1430.505
1116.875, 1430.194
1117.357, 1428.436
1117.839, 1426.014
1118.321, 1423.528
1118.803, 1421.097
1119.285, 1419.412
1119.767, 1418.721
1120.250, 1418.213
1120.732, 1418.094
1121.214, 1417.720
1121.696, 1416.721
1122.178, 1415.654
1122.660, 1414.604
1123.142, 1414.154
1123.624, 1416.261
1124.106, 1421.698
1124.589, 1423.456
1125.071, 1420.414
1125.553, 1417.414
1126.035, 1415.146
1126.517, 1413.789
1126.999, 1413.542
1127.481, 1414.077
1127.963, 1415.079
1128.446, 1416.399
1128.928, 1416.152
1129.410, 1414.118
1129.892, 1412.459
1130.374, 1411.434
1130.856, 1410.689
1131.338, 1410.100
1131.820, 1409.678
1132.302, 1409.499
1132.785, 1409.406
1133.267, 1408.542
1133.749, 1407.061
1134.231, 1408.036
1134.713, 1411.468
1135.195, 1412.575
1135.677, 1410.044
1136.159, 1406.742
1136.641, 1404.612
1137.124, 1403.537
1137.606, 1403.534
1138.088, 1404.350
1138.570, 1405.022
1139.052, 1405.635
1139.534, 1406.896
1140.016, 1408.708
1140.498, 1409.734
1140.981, 1409.345
1141.463, 1407.893
1141.945, 1405.164
1142.427, 1402.338
1142.909, 1401.834
1143.391, 1402.651
1143.873, 1402.795
1144.355, 1402.209
1144.838, 1401.364
1145.320, 1400.451
1145.802, 1399.577
1146.284, 1398.742
1146.766, 1398.232
1147.248, 1398.945
1147.730, 1399.638
1148.212, 1398.254
1148.694, 1396.006
1149.177, 1394.971
1149.659, 1395.326
1150.141, 1396.560
1150.623, 1398.684
1151.105, 1399.522
1151.587, 1396.675
1152.069, 1393.331
1152.551, 1390.921
1153.033, 1389.762
1153.516, 1390.823
1153.998, 1393.117
1154.480, 1395.041
1154.962, 1396.224
1155.444, 1396.142
1155.926, 1393.283
1156.408, 1391.115
1156.890, 1391.395
1157.373, 1391.844
1157.855, 1390.673
1158.337, 1389.316
1158.819, 1389.945
1159.301, 1392.053
1159.783, 1392.733
1160.265, 1391.033
1160.747, 1389.803
1161.229, 1389.726
1161.712, 1389.403
1162.194, 1387.904
1162.676, 1386.826
1163.158, 1387.813
1163.640, 1389.457
1164.122, 1388.854
1164.604, 1389.470
1165.086, 1390.201
1165.568, 1388.968
1166.051, 1390.891
1166.533, 1390.276
1167.015, 1389.414
1167.497, 1389.368
1167.979, 1389.023
1168.461, 1386.997
1168.943, 1386.830
1169.425, 1385.662
1169.908, 1384.431
1170.390, 1383.805
1170.872, 1381.196
1171.354, 1380.133
1171.836, 1381.458
1172.318, 1382.774
1172.800, 1382.597
1173.282, 1383.674
1173.765, 1382.763
1174.247, 1384.169
1174.729, 1384.360
1175.211, 1383.535
1175.693, 1382.088
1176.175, 1380.308
1176.657, 1379.073
1177.139, 1378.674
1177.621, 1378.917
1178.104, 1379.891
1178.586, 1380.641
1179.068, 1379.256
1179.550, 1377.568
1180.032, 1378.814
1180.514, 1381.326
1180.996, 1381.796
1181.478, 1380.278
1181.960, 1378.971
1182.443, 1378.700
1182.925, 1378.148
1183.407, 1375.536
1183.889, 1373.684
1184.371, 1375.323
1184.853, 1377.496
1185.335, 1377.931
1185.817, 1376.930
1186.300, 1374.786
1186.782, 1371.828
1187.264, 1369.893
1187.746, 1369.591
1188.228, 1369.813
1188.710, 1371.219
1189.192, 1372.009
1189.674, 1370.798
1190.156, 1369.410
1190.639, 1368.939
1191.121, 1369.468
1191.603, 1371.412
1192.085, 1374.930
1192.567, 1377.711
1193.049, 1380.195
1193.531, 1380.401
1194.013, 1377.288
1194.495, 1374.579
1194.978, 1374.161
1195.460, 1373.618
1195.942, 1370.100
1196.424, 1369.961
1196.906, 1368.854
1197.388, 1367.302
1197.870, 1367.921
1198.352, 1366.320
1198.835, 1366.089
1199.317, 1367.795
1199.799, 1368.176
1200.281, 1365.483
1200.763, 1362.630
1201.245, 1363.369
1201.727, 1362.111
1202.209, 1364.933
1202.692, 1362.965
1203.174, 1362.948
1203.656, 1364.240
1204.138, 1364.188
1204.620, 1362.527
1205.102, 1361.546
1205.584, 1362.609
1206.066, 1363.508
1206.548, 1362.335
1207.031, 1360.743
1207.513, 1360.005
1207.995, 1359.533
1208.477, 1358.534
1208.959, 1357.310
1209.441, 1356.338
1209.923, 1355.757
1210.405, 1356.607
1210.887, 1362.401
1211.370, 1364.520
1211.852, 1357.739
1212.334, 1351.911
1212.816, 1352.028
1213.298, 1353.788
1213.780, 1353.726
1214.262, 1352.615
1214.744, 1352.540
1215.227, 1353.702
1215.709, 1353.538
1216.191, 1351.662
1216.673, 1349.953
1217.155, 1348.575
1217.637, 1347.889
1218.119, 1348.170
1218.601, 1348.534
1219.083, 1348.101
1219.566, 1347.072
1220.048, 1345.668
1220.530, 1344.106
1221.012, 1343.444
1221.494, 1343.564
1221.976, 1344.012
1222.458, 1344.518
1222.940, 1343.822
1223.422, 1341.454
1223.905, 1340.256
1224.387, 1343.953
1224.869, 1348.072
1225.351, 1347.322
1225.833, 1344.628
1226.315, 1342.777
1226.797, 1341.975
1227.279, 1342.702
1227.762, 1344.353
1228.244, 1344.555
1228.726, 1342.223
1229.208, 1340.500
1229.690, 1340.413
1230.172, 1341.121
1230.654, 1342.957
1231.136, 1344.810
1231.619, 1346.693
1232.101, 1347.642
1232.583, 1345.796
1233.065, 1341.794
1233.547, 1339.920
1234.029, 1341.200
1234.511, 1341.028
1234.993, 1338.817
1235.475, 1337.455
1235.958, 1337.701
1236.440, 1338.640
1236.922, 1339.951
1237.404, 1340.549
1237.886, 1338.668
1238.368, 1335.368
1238.850, 1334.008
1239.332, 1334.116
1239.814, 1333.801
1240.297, 1333.028
1240.779, 1332.319
1241.261, 1331.756
1241.743, 1330.871
1242.225, 1329.370
1242.707, 1328.453
1243.189, 1329.605
1243.671, 1331.336
1244.154, 1332.213
1244.636, 1333.030
1245.118, 1335.207
1245.600, 1337.671
1246.082, 1338.520
1246.564, 1337.675
1247.046, 1336.248
1247.528, 1334.258
1248.010, 1332.350
1248.493, 1330.273
1248.975, 1328.795
1249.457, 1328.688
1249.939, 1328.406
1250.421, 1326.728
1250.903, 1324.859
1251.385, 1324.422
1251.867, 1325.224
1252.349, 1326.413
1252.832, 1328.168
1253.314, 1327.575
1253.796, 1324.458
1254.278, 1323.750
1254.760, 1326.485
1255.242, 1328.540
1255.724, 1327.672
1256.206, 1325.471
1256.689, 1323.705
1257.171, 1321.743
1257.653, 1316.868
1258.135, 1312.160
1258.617, 1314.280
1259.099, 1320.298
1259.581, 1323.860
1260.063, 1324.314
1260.546, 1324.399
1261.028, 1325.108
1261.510, 1324.896
1261.992, 1321.388
1262.474, 1319.175
1262.956, 1321.325
1263.438, 1323.911
1263.920, 1324.042
1264.402, 1323.595
1264.885, 1325.610
1265.367, 1324.927
1265.849, 1324.516
1266.331, 1325.045
1266.813, 1322.909
1267.295, 1323.014
1267.777, 1322.688
1268.259, 1321.444
1268.741, 1320.470
1269.224, 1320.284
1269.706, 1320.559
1270.188, 1321.165
1270.670, 1321.375
1271.152, 1319.003
1271.634, 1315.653
1272.116, 1315.472
1272.598, 1317.245
1273.081, 1318.157
1273.563, 1317.978
1274.045, 1317.458
1274.527, 1316.816
1275.009, 1315.672
1275.491, 1312.988
1275.973, 1311.670
1276.455, 1314.266
1276.938, 1317.163
1277.420, 1318.721
1277.902, 1319.344
1278.384, 1319.467
1278.866, 1318.924
1279.348, 1317.012
1279.830, 1313.842
1280.312, 1312.461
1280.794, 1313.346
1281.276, 1314.163
1281.759, 1314.657
1282.241, 1316.024
1282.723, 1318.753
1283.205, 1320.463
1283.687, 1319.681
1284.169, 1317.638
1284.651, 1315.588
1285.133, 1313.923
1285.616, 1313.133
1286.098, 1313.109
##END=



