##NAMES=Jahnsite-(CaMnMg)
##RRUFFID=R060213
##IDEAL CHEMISTRY=CaMn^2+^Mg_2_Fe^3+^_2_(PO_4_)_4_(OH)_2_&#183;8H_2_O
##LOCALITY=Tip Top mine, Custer County, South Dakota, USA
##OWNER=RRUFF
##SOURCE=Marcus Origlieri
##DESCRIPTION=Brown tabular crystals associated with black prismatic rockbridgeite, R060858
##STATUS=The identification of this mineral has been confirmed only by single crystal X-ray diffraction.
##URL=rruff.info/R060213
92.07813, 33.01904
92.56024, 34.61898
93.04236, 33.63789
93.52448, 30.65916
94.00659, 27.84072
94.48871, 26.31971
94.97083, 25.87819
95.45294, 25.99492
95.93506, 26.74132
96.41718, 27.77570
96.89929, 28.64169
97.38141, 29.33465
97.86353, 29.67366
98.34564, 29.02915
98.82776, 27.50038
99.30988, 27.35964
99.79199, 29.72277
100.2741, 33.48247
100.7562, 33.91528
101.2383, 30.00813
101.7205, 25.58166
102.2026, 24.33227
102.6847, 27.16457
103.1668, 29.76354
103.6489, 31.38588
104.1310, 32.01837
104.6132, 31.47990
105.0953, 28.72857
105.5774, 25.79622
106.0595, 25.51297
106.5416, 30.36785
107.0237, 34.04091
107.5059, 34.60868
107.9880, 30.71326
108.4701, 27.88314
108.9522, 26.00596
109.4343, 25.20210
109.9164, 25.66998
110.3986, 30.28434
110.8807, 33.74252
111.3628, 34.20382
111.8449, 28.43302
112.3270, 24.86725
112.8091, 25.28911
113.2913, 28.45618
113.7734, 30.85083
114.2555, 31.02285
114.7376, 30.89160
115.2197, 31.49602
115.7018, 34.11525
116.1840, 36.24725
116.6661, 36.83435
117.1482, 36.18455
117.6303, 35.89954
118.1124, 36.62293
118.5945, 37.94724
119.0767, 39.50880
119.5588, 40.73597
120.0409, 42.55788
120.5230, 45.47970
121.0051, 49.46837
121.4872, 54.17794
121.9694, 59.62970
122.4515, 65.60056
122.9336, 71.80840
123.4157, 77.51765
123.8978, 83.69125
124.3799, 91.38526
124.8621, 100.7160
125.3442, 110.5807
125.8263, 119.8851
126.3084, 128.9695
126.7905, 138.7097
127.2726, 150.3004
127.7548, 162.5630
128.2369, 173.4026
128.7190, 182.5071
129.2011, 190.8012
129.6832, 199.3595
130.1653, 208.0596
130.6474, 216.6452
131.1296, 225.1821
131.6117, 233.4678
132.0938, 240.6971
132.5759, 246.1619
133.0580, 251.6276
133.5401, 260.5917
134.0223, 273.1453
134.5044, 286.9087
134.9865, 300.2096
135.4686, 313.2049
135.9507, 326.8259
136.4328, 340.9752
136.9150, 356.2455
137.3971, 375.0703
137.8792, 398.4538
138.3613, 421.9087
138.8434, 441.7368
139.3255, 457.3911
139.8077, 471.7677
140.2898, 484.9701
140.7719, 497.1452
141.2540, 511.1035
141.7361, 527.4901
142.2182, 544.3368
142.7004, 559.7235
143.1825, 573.0880
143.6646, 586.0925
144.1467, 598.7925
144.6288, 611.3586
145.1109, 623.6075
145.5931, 635.8043
146.0752, 647.5587
146.5573, 658.4853
147.0394, 667.2903
147.5215, 677.0775
148.0036, 688.8725
148.4858, 703.9015
148.9679, 716.7052
149.4500, 725.6202
149.9321, 732.8816
150.4142, 741.6236
150.8963, 753.4737
151.3785, 765.4514
151.8606, 776.6807
152.3427, 787.3614
152.8248, 797.3187
153.3069, 806.0679
153.7890, 814.1804
154.2712, 820.2917
154.7533, 821.8731
155.2354, 822.8558
155.7175, 823.1417
156.1996, 822.5950
156.6817, 821.5484
157.1639, 819.6146
157.6460, 817.1996
158.1281, 815.2305
158.6102, 813.8353
159.0923, 812.9473
159.5744, 812.6122
160.0566, 813.4393
160.5387, 813.8627
161.0208, 812.8823
161.5029, 811.0811
161.9850, 810.1541
162.4671, 811.7828
162.9493, 813.8427
163.4314, 814.8368
163.9135, 813.3063
164.3956, 812.1045
164.8777, 812.2906
165.3598, 813.7518
165.8420, 816.0823
166.3241, 820.2662
166.8062, 824.6666
167.2883, 827.7714
167.7704, 827.9648
168.2525, 827.9376
168.7346, 829.1266
169.2168, 831.4542
169.6989, 834.5449
170.1810, 839.9808
170.6631, 845.5078
171.1452, 848.3965
171.6273, 845.8632
172.1095, 841.8224
172.5916, 839.1693
173.0737, 837.8488
173.5558, 837.2744
174.0379, 838.4086
174.5201, 839.8223
175.0022, 839.2180
175.4843, 834.6182
175.9664, 828.1744
176.4485, 822.2703
176.9306, 816.8398
177.4128, 811.7853
177.8949, 806.9184
178.3770, 802.3715
178.8591, 798.3356
179.3412, 795.2161
179.8233, 792.5369
180.3055, 789.8981
180.7876, 787.3400
181.2697, 783.8635
181.7518, 777.2404
182.2339, 768.5992
182.7160, 761.3517
183.1982, 757.8439
183.6803, 756.6762
184.1624, 754.7515
184.6445, 751.9625
185.1266, 749.1689
185.6087, 747.5733
186.0909, 746.9429
186.5730, 746.1159
187.0551, 744.3724
187.5372, 742.0112
188.0193, 739.7438
188.5014, 737.4355
188.9836, 735.8327
189.4657, 736.2081
189.9478, 738.3967
190.4299, 740.6855
190.9120, 742.5836
191.3941, 743.9953
191.8763, 743.9620
192.3584, 741.9576
192.8405, 740.0034
193.3226, 741.5665
193.8047, 746.6611
194.2868, 751.4703
194.7690, 753.9379
195.2511, 754.2645
195.7332, 755.4483
196.2153, 757.7908
196.6974, 760.4885
197.1795, 761.7518
197.6617, 761.4289
198.1438, 761.8184
198.6259, 763.9932
199.1080, 767.9329
199.5901, 773.0668
200.0722, 779.8406
200.5544, 787.0482
201.0365, 792.1142
201.5186, 794.7332
202.0007, 797.3134
202.4828, 801.4655
202.9649, 807.4358
203.4471, 811.1738
203.9292, 811.9407
204.4113, 811.2945
204.8934, 812.5929
205.3755, 816.3771
205.8576, 819.8229
206.3398, 821.2973
206.8219, 820.3792
207.3040, 820.4247
207.7861, 821.8304
208.2682, 823.8812
208.7503, 825.0059
209.2325, 824.9371
209.7146, 824.7902
210.1967, 825.3930
210.6788, 827.2523
211.1609, 827.3253
211.6430, 825.0640
212.1252, 821.3958
212.6073, 818.4882
213.0894, 816.7012
213.5715, 814.7808
214.0536, 811.9346
214.5357, 807.5876
215.0179, 804.5219
215.5000, 803.1319
215.9821, 802.7485
216.4642, 801.8867
216.9463, 800.4079
217.4284, 798.7499
217.9105, 797.0351
218.3927, 795.2043
218.8748, 793.5922
219.3569, 792.3737
219.8390, 791.2731
220.3211, 789.6114
220.8032, 787.1249
221.2854, 784.5478
221.7675, 781.9006
222.2496, 778.6464
222.7317, 777.1212
223.2138, 777.8114
223.6959, 779.9822
224.1781, 782.2634
224.6602, 785.1871
225.1423, 787.2430
225.6244, 787.4892
226.1065, 784.8719
226.5886, 783.7263
227.0708, 784.9517
227.5529, 787.1920
228.0350, 787.3812
228.5171, 783.8062
228.9992, 781.0670
229.4813, 781.3917
229.9635, 786.6086
230.4456, 789.1122
230.9277, 787.8771
231.4098, 784.4536
231.8919, 781.5886
232.3740, 778.9566
232.8562, 777.4666
233.3383, 777.6455
233.8204, 780.1177
234.3025, 782.2556
234.7846, 784.0439
235.2667, 785.5207
235.7489, 786.7097
236.2310, 787.5834
236.7131, 788.2133
237.1952, 788.4412
237.6773, 787.8508
238.1594, 788.5057
238.6416, 791.2089
239.1237, 794.6776
239.6058, 796.6818
240.0879, 795.9743
240.5700, 795.8702
241.0521, 797.6105
241.5343, 801.7326
242.0164, 805.1107
242.4985, 806.8750
242.9806, 808.4750
243.4627, 812.3120
243.9448, 820.3058
244.4270, 827.1974
244.9091, 831.0645
245.3912, 831.0392
245.8733, 832.7239
246.3554, 836.9462
246.8375, 842.2009
247.3197, 846.4096
247.8018, 848.6414
248.2839, 851.4948
248.7660, 855.7441
249.2481, 861.5954
249.7302, 867.4879
250.2124, 873.8163
250.6945, 879.8961
251.1766, 884.8949
251.6587, 888.0890
252.1408, 891.6907
252.6229, 896.5321
253.1051, 902.8291
253.5872, 907.5904
254.0693, 910.1511
254.5514, 912.0273
255.0335, 914.8301
255.5156, 919.0091
255.9978, 923.0738
256.4799, 926.8507
256.9620, 930.3420
257.4441, 933.0245
257.9262, 934.4865
258.4083, 935.6469
258.8904, 937.5610
259.3726, 941.2111
259.8547, 943.0849
260.3368, 941.8400
260.8189, 937.8797
261.3010, 936.1412
261.7831, 937.6882
262.2653, 939.7790
262.7474, 940.1774
263.2295, 938.2951
263.7116, 936.4734
264.1937, 935.1234
264.6758, 934.1107
265.1580, 932.3428
265.6401, 929.1849
266.1222, 926.5088
266.6043, 926.1568
267.0864, 929.4134
267.5685, 930.1891
268.0507, 926.9402
268.5328, 921.0129
269.0149, 917.7529
269.4970, 918.2014
269.9791, 918.7745
270.4612, 916.9460
270.9434, 911.9060
271.4255, 908.5662
271.9076, 907.8707
272.3897, 908.5912
272.8718, 907.2698
273.3539, 903.2574
273.8361, 899.2755
274.3182, 897.0917
274.8003, 897.0989
275.2824, 895.6898
275.7645, 892.4056
276.2466, 888.0370
276.7288, 884.0301
277.2109, 880.4027
277.6930, 877.0628
278.1751, 873.8259
278.6572, 870.6212
279.1393, 868.7946
279.6215, 868.6185
280.1036, 869.3238
280.5857, 870.1829
281.0678, 871.3588
281.5499, 871.2410
282.0320, 868.5638
282.5142, 863.5986
282.9963, 860.1688
283.4784, 858.4928
283.9605, 857.6909
284.4426, 856.7328
284.9247, 855.6115
285.4069, 854.6600
285.8890, 854.0905
286.3711, 853.7886
286.8532, 852.9509
287.3353, 851.4164
287.8174, 850.2054
288.2996, 850.7921
288.7817, 852.9943
289.2638, 854.6830
289.7459, 855.1474
290.2280, 854.7891
290.7101, 854.5911
291.1923, 854.5458
291.6744, 854.8381
292.1565, 856.2296
292.6386, 858.3235
293.1207, 858.9794
293.6028, 857.2972
294.0850, 854.4501
294.5671, 852.4080
295.0492, 851.1462
295.5313, 850.4020
296.0134, 850.1539
296.4955, 850.2806
296.9777, 850.6275
297.4598, 851.4270
297.9419, 851.8348
298.4240, 850.1739
298.9061, 846.8124
299.3882, 843.6138
299.8704, 842.1135
300.3525, 841.5128
300.8346, 840.1663
301.3167, 837.8239
301.7988, 835.1819
302.2809, 833.0836
302.7631, 831.3300
303.2452, 829.2363
303.7273, 825.8295
304.2094, 822.1486
304.6915, 820.0990
305.1736, 819.9248
305.6558, 819.3466
306.1379, 816.4493
306.6200, 811.7058
307.1021, 806.0336
307.5842, 798.4184
308.0663, 790.8476
308.5485, 785.1257
309.0306, 781.2605
309.5127, 778.2887
309.9948, 776.5012
310.4769, 774.9248
310.9590, 772.2711
311.4412, 766.6172
311.9233, 761.1660
312.4054, 758.9661
312.8875, 759.3107
313.3696, 758.6153
313.8517, 754.1747
314.3339, 748.2214
314.8160, 742.4963
315.2981, 736.8994
315.7802, 732.5439
316.2623, 730.7308
316.7444, 730.7111
317.2266, 730.4271
317.7087, 728.9058
318.1908, 726.9536
318.6729, 724.9965
319.1550, 723.0195
319.6371, 721.2618
320.1193, 719.9293
320.6014, 718.8452
321.0835, 717.7039
321.5656, 716.0449
322.0477, 714.6204
322.5298, 713.9542
323.0120, 714.3405
323.4941, 714.0369
323.9762, 711.1283
324.4583, 707.9231
324.9404, 706.9197
325.4225, 711.7584
325.9047, 715.5988
326.3868, 716.4796
326.8689, 714.3246
327.3510, 711.9445
327.8331, 709.0917
328.3152, 706.3593
328.7974, 704.1584
329.2795, 702.5164
329.7616, 701.4021
330.2437, 701.3990
330.7258, 702.1478
331.2079, 701.6228
331.6901, 699.2263
332.1722, 696.1366
332.6543, 692.8154
333.1364, 688.7455
333.6185, 685.4388
334.1006, 683.1911
334.5828, 681.6239
335.0649, 680.0064
335.5470, 678.5915
336.0291, 676.6434
336.5112, 673.9326
336.9933, 670.4413
337.4755, 666.1055
337.9576, 660.5494
338.4397, 654.6560
338.9218, 649.5720
339.4039, 645.5149
339.8860, 641.7243
340.3681, 638.4425
340.8503, 635.4835
341.3324, 630.4766
341.8145, 622.9446
342.2966, 614.5585
342.7787, 606.2164
343.2608, 597.9274
343.7430, 591.0586
344.2251, 586.2773
344.7072, 582.8679
345.1893, 579.0967
345.6714, 574.9403
346.1535, 570.2908
346.6357, 564.6760
347.1178, 558.3283
347.5999, 552.8292
348.0820, 548.5326
348.5641, 544.5844
349.0462, 539.4223
349.5284, 533.2064
350.0105, 527.0052
350.4926, 521.2603
350.9747, 515.9464
351.4568, 511.2615
351.9389, 507.3242
352.4211, 503.1269
352.9032, 497.0638
353.3853, 489.9491
353.8674, 483.7634
354.3495, 479.9412
354.8316, 477.0397
355.3138, 473.3957
355.7959, 469.0740
356.2780, 464.7462
356.7601, 461.1512
357.2422, 457.7004
357.7243, 453.5127
358.2065, 447.8602
358.6886, 442.2508
359.1707, 437.9767
359.6528, 434.6489
360.1349, 431.0963
360.6170, 426.6186
361.0992, 421.7832
361.5813, 416.8095
362.0634, 411.5471
362.5455, 406.9366
363.0276, 403.4903
363.5097, 400.9066
363.9919, 398.7370
364.4740, 398.1175
364.9561, 396.7393
365.4382, 393.2849
365.9203, 387.4732
366.4024, 382.2821
366.8846, 379.1090
367.3667, 376.3219
367.8488, 372.6009
368.3309, 366.7368
368.8130, 361.1260
369.2951, 355.6734
369.7773, 350.5278
370.2594, 346.7612
370.7415, 345.9730
371.2236, 345.0666
371.7057, 342.5114
372.1878, 336.7728
372.6700, 332.3445
373.1521, 329.7267
373.6342, 328.2310
374.1163, 326.6125
374.5984, 324.9300
375.0805, 323.0374
375.5627, 320.9287
376.0448, 318.6154
376.5269, 315.7011
377.0090, 311.9377
377.4911, 307.9571
377.9732, 304.3137
378.4554, 301.0190
378.9375, 298.0851
379.4196, 295.3921
379.9017, 293.0919
380.3838, 292.0181
380.8659, 292.3785
381.3481, 292.4217
381.8302, 290.4298
382.3123, 286.7484
382.7944, 283.9556
383.2765, 282.4199
383.7586, 281.5648
384.2408, 280.5643
384.7229, 279.4585
385.2050, 278.4249
385.6871, 277.2520
386.1692, 276.3032
386.6513, 276.6831
387.1335, 278.4890
387.6156, 279.8984
388.0977, 278.5298
388.5798, 275.6621
389.0619, 273.6629
389.5440, 273.9040
390.0262, 274.7867
390.5083, 274.7759
390.9904, 274.0770
391.4725, 273.6616
391.9546, 274.2330
392.4367, 275.2534
392.9189, 276.3463
393.4010, 277.5779
393.8831, 278.4966
394.3652, 278.2284
394.8473, 277.5906
395.3294, 277.9398
395.8116, 280.2675
396.2937, 283.2027
396.7758, 286.6064
397.2579, 290.6146
397.7400, 293.4261
398.2221, 293.5617
398.7043, 292.9235
399.1864, 293.0524
399.6685, 294.9693
400.1506, 296.6304
400.6327, 297.3065
401.1148, 297.4016
401.5970, 298.9483
402.0791, 303.2647
402.5612, 307.4762
403.0433, 310.0815
403.5254, 309.8638
404.0075, 311.6277
404.4897, 316.4420
404.9718, 322.3202
405.4539, 325.8993
405.9360, 326.1722
406.4181, 327.4320
406.9002, 331.4023
407.3824, 337.6446
407.8645, 342.2308
408.3466, 344.9887
408.8287, 346.7500
409.3108, 347.7569
409.7929, 348.0758
410.2751, 349.3590
410.7572, 351.9639
411.2393, 355.4783
411.7214, 359.5200
412.2035, 363.9896
412.6856, 367.8195
413.1678, 370.0113
413.6499, 371.1880
414.1320, 372.8473
414.6141, 375.1408
415.0962, 377.1895
415.5783, 377.5387
416.0605, 377.1410
416.5426, 377.8372
417.0247, 381.3069
417.5068, 385.2247
417.9889, 387.4705
418.4710, 388.3295
418.9532, 389.1632
419.4353, 390.7701
419.9174, 392.6042
420.3995, 394.2267
420.8816, 395.5681
421.3637, 396.6978
421.8459, 397.4101
422.3280, 397.9634
422.8101, 398.7657
423.2922, 400.0811
423.7743, 401.4855
424.2564, 402.8942
424.7386, 404.3058
425.2207, 405.5565
425.7028, 406.8226
426.1849, 407.7911
426.6670, 408.2144
427.1491, 407.2938
427.6313, 407.1292
428.1134, 408.0888
428.5955, 409.8304
429.0776, 411.4890
429.5597, 413.2668
430.0418, 414.6010
430.5240, 415.1109
431.0061, 414.6943
431.4882, 414.9087
431.9703, 415.9336
432.4524, 417.1893
432.9345, 417.9609
433.4167, 418.2252
433.8988, 418.6440
434.3809, 419.3399
434.8630, 420.2937
435.3451, 421.7129
435.8272, 423.5669
436.3094, 424.9858
436.7915, 424.8891
437.2736, 423.9624
437.7557, 423.9730
438.2378, 425.1764
438.7199, 426.6904
439.2020, 427.6769
439.6841, 428.3144
440.1663, 428.9677
440.6484, 429.4277
441.1305, 430.2357
441.6126, 431.8708
442.0947, 434.2758
442.5768, 437.0841
443.0590, 441.0631
443.5411, 444.7928
444.0232, 446.8223
444.5053, 445.4782
444.9874, 445.5396
445.4695, 449.5835
445.9517, 455.8009
446.4338, 461.3168
446.9159, 465.3930
447.3980, 468.9268
447.8801, 471.3901
448.3622, 472.6132
448.8444, 476.3409
449.3265, 484.2951
449.8086, 493.2781
450.2907, 501.1978
450.7728, 507.5137
451.2549, 514.1304
451.7371, 521.1406
452.2192, 528.4540
452.7013, 535.7018
453.1834, 542.6026
453.6655, 550.2926
454.1476, 559.4457
454.6298, 569.8576
455.1119, 579.6494
455.5940, 588.6256
456.0761, 597.5780
456.5582, 607.0306
457.0403, 616.9980
457.5225, 627.5147
458.0046, 638.5014
458.4867, 649.7747
458.9688, 660.4054
459.4509, 670.7737
459.9330, 682.0078
460.4152, 695.5789
460.8973, 710.1379
461.3794, 723.8758
461.8615, 736.8624
462.3436, 749.7314
462.8257, 763.4911
463.3079, 777.2977
463.7900, 790.1910
464.2721, 801.3689
464.7542, 812.4365
465.2363, 823.8275
465.7184, 835.5941
466.2006, 847.8803
466.6827, 861.8175
467.1648, 875.3373
467.6469, 887.0958
468.1290, 896.1365
468.6111, 906.9570
469.0933, 921.8087
469.5754, 937.1027
470.0575, 949.6461
470.5396, 957.2565
471.0217, 966.6160
471.5038, 979.4760
471.9860, 994.4474
472.4681, 1006.887
472.9502, 1016.347
473.4323, 1024.813
473.9144, 1032.942
474.3965, 1040.773
474.8787, 1048.769
475.3608, 1057.025
475.8429, 1064.836
476.3250, 1071.499
476.8071, 1076.987
477.2892, 1081.241
477.7714, 1084.321
478.2535, 1085.968
478.7356, 1085.219
479.2177, 1082.466
479.6998, 1079.447
480.1819, 1078.036
480.6641, 1076.366
481.1462, 1072.305
481.6283, 1065.582
482.1104, 1058.166
482.5925, 1051.706
483.0746, 1044.943
483.5568, 1036.536
484.0389, 1025.142
484.5210, 1013.252
485.0031, 1001.693
485.4852, 990.2472
485.9673, 977.8378
486.4495, 963.7272
486.9316, 949.3104
487.4137, 935.0436
487.8958, 920.9279
488.3779, 906.7029
488.8600, 892.3880
489.3422, 877.7860
489.8243, 862.3301
490.3064, 845.7620
490.7885, 829.7814
491.2706, 814.8113
491.7527, 800.4035
492.2349, 784.7561
492.7170, 767.8680
493.1991, 751.3110
493.6812, 736.0336
494.1633, 721.9197
494.6454, 708.4962
495.1276, 695.9453
495.6097, 682.8656
496.0918, 667.4199
496.5739, 650.5844
497.0560, 635.0582
497.5381, 621.3184
498.0203, 608.6962
498.5024, 597.0623
498.9845, 586.0066
499.4666, 574.3079
499.9487, 560.5756
500.4308, 546.8515
500.9130, 534.1537
501.3951, 522.5884
501.8772, 511.9366
502.3593, 503.1408
502.8414, 494.7260
503.3235, 485.6083
503.8057, 474.8984
504.2878, 464.6846
504.7699, 454.6984
505.2520, 445.3499
505.7341, 437.4943
506.2162, 432.1053
506.6984, 426.2670
507.1805, 419.0872
507.6626, 410.7460
508.1447, 402.9330
508.6268, 395.6523
509.1089, 388.8724
509.5911, 383.1176
510.0732, 378.1836
510.5553, 371.3433
511.0374, 361.9644
511.5195, 352.3274
512.0016, 345.5009
512.4838, 340.8638
512.9659, 336.5037
513.4480, 331.6817
513.9301, 326.7416
514.4122, 321.9919
514.8943, 317.4315
515.3765, 313.0497
515.8586, 308.9454
516.3407, 304.9304
516.8228, 300.7475
517.3049, 296.1854
517.7870, 292.3240
518.2692, 290.5547
518.7513, 289.2157
519.2334, 286.7182
519.7155, 281.2928
520.1976, 276.5189
520.6797, 272.5072
521.1619, 269.4035
521.6440, 267.9624
522.1261, 269.7282
522.6082, 270.3828
523.0903, 267.7556
523.5724, 261.7425
524.0546, 258.5569
524.5367, 258.8467
525.0188, 260.0262
525.5009, 259.8671
525.9830, 258.4681
526.4651, 256.9904
526.9473, 255.5581
527.4294, 254.1768
527.9115, 252.8216
528.3936, 251.5301
528.8757, 250.4052
529.3578, 249.2009
529.8400, 248.3853
530.3221, 248.6933
530.8042, 249.9698
531.2863, 251.2484
531.7684, 251.6831
532.2505, 252.0971
532.7327, 253.1421
533.2148, 255.0592
533.6969, 257.0950
534.1790, 259.1700
534.6611, 261.2069
535.1432, 263.0800
535.6254, 264.5464
536.1075, 266.1797
536.5896, 267.9026
537.0717, 269.8416
537.5538, 272.4338
538.0359, 276.0280
538.5181, 279.5178
539.0002, 282.3765
539.4823, 284.6141
539.9644, 287.2865
540.4465, 290.4373
540.9286, 293.8077
541.4108, 296.9677
541.8929, 300.1050
542.3750, 304.0148
542.8571, 308.9913
543.3392, 314.2848
543.8214, 318.9565
544.3035, 323.2549
544.7856, 327.9481
545.2677, 334.4956
545.7498, 340.6628
546.2319, 344.2515
546.7141, 345.6790
547.1962, 347.5065
547.6783, 351.2025
548.1604, 355.2533
548.6425, 358.8843
549.1246, 361.8664
549.6068, 364.7920
550.0889, 367.9657
550.5710, 370.9539
551.0531, 373.3592
551.5352, 375.0948
552.0173, 376.4240
552.4995, 377.3122
552.9816, 377.8437
553.4637, 378.2787
553.9458, 378.6739
554.4279, 378.5938
554.9100, 377.8710
555.3922, 376.5316
555.8743, 374.6396
556.3564, 372.2131
556.8385, 369.3070
557.3206, 365.0449
557.8027, 360.5941
558.2849, 358.2993
558.7670, 358.9824
559.2491, 359.5291
559.7312, 357.3245
560.2133, 353.5871
560.6954, 349.9680
561.1776, 346.9128
561.6597, 344.2347
562.1418, 342.0060
562.6239, 340.1245
563.1060, 338.2747
563.5881, 336.5467
564.0703, 334.6883
564.5524, 332.6059
565.0345, 330.3130
565.5166, 327.8432
565.9987, 325.0956
566.4808, 322.3380
566.9630, 319.5329
567.4451, 316.6177
567.9272, 314.9931
568.4093, 315.1410
568.8914, 315.5573
569.3735, 313.9016
569.8557, 310.5424
570.3378, 307.1752
570.8199, 304.6073
571.3020, 302.1294
571.7841, 298.4712
572.2662, 294.0363
572.7484, 290.3309
573.2305, 288.4343
573.7126, 287.3204
574.1947, 286.9014
574.6768, 287.2776
575.1589, 285.7127
575.6411, 278.9533
576.1232, 271.4933
576.6053, 266.6285
577.0874, 266.8866
577.5695, 265.9905
578.0516, 263.6024
578.5338, 260.2934
579.0159, 256.6880
579.4980, 252.6411
579.9801, 249.1070
580.4622, 246.6836
580.9443, 244.6760
581.4265, 240.7502
581.9086, 234.9121
582.3907, 228.9680
582.8728, 223.3501
583.3549, 218.4673
583.8370, 215.4949
584.3192, 214.4036
584.8013, 213.1987
585.2834, 209.9998
585.7655, 206.0437
586.2476, 202.7018
586.7297, 200.3458
587.2118, 198.3192
587.6939, 196.5067
588.1760, 194.7843
588.6581, 192.9943
589.1403, 191.3304
589.6224, 189.2991
590.1045, 186.2272
590.5866, 182.7360
591.0687, 181.1540
591.5508, 182.5954
592.0330, 183.4219
592.5151, 181.9018
592.9972, 178.3204
593.4793, 176.2553
593.9614, 175.9027
594.4435, 175.5916
594.9257, 173.5708
595.4078, 170.5209
595.8899, 168.5880
596.3720, 168.1512
596.8541, 167.9700
597.3362, 166.8249
597.8184, 165.2009
598.3005, 163.8407
598.7826, 163.3396
599.2647, 162.7182
599.7468, 161.1817
600.2289, 159.2109
600.7111, 157.8653
601.1932, 157.9508
601.6753, 158.1126
602.1574, 157.8904
602.6395, 157.3330
603.1216, 157.3010
603.6038, 158.3615
604.0859, 158.9019
604.5680, 157.6281
605.0501, 154.3209
605.5322, 152.8968
606.0143, 153.6535
606.4965, 154.9008
606.9786, 154.7589
607.4607, 153.6439
607.9428, 152.9408
608.4249, 152.9907
608.9070, 153.3014
609.3892, 153.4323
609.8713, 153.4529
610.3534, 153.4953
610.8355, 153.3133
611.3176, 153.4612
611.7997, 154.8987
612.2819, 157.0324
612.7640, 157.6977
613.2461, 154.4128
613.7282, 151.6061
614.2103, 150.8970
614.6924, 152.4086
615.1746, 153.6377
615.6567, 154.6214
616.1388, 155.2307
616.6209, 155.2333
617.1030, 154.6030
617.5851, 154.2830
618.0673, 154.3513
618.5494, 154.5876
619.0315, 154.8130
619.5136, 155.0003
619.9957, 155.0304
620.4778, 154.7738
620.9600, 154.5640
621.4421, 154.7624
621.9242, 155.2374
622.4063, 155.7158
622.8884, 156.2601
623.3705, 156.6182
623.8527, 156.3823
624.3348, 155.7191
624.8169, 155.8130
625.2990, 158.3668
625.7811, 159.9518
626.2632, 158.8520
626.7454, 154.7583
627.2275, 152.6953
627.7096, 153.0362
628.1917, 154.4343
628.6738, 156.2776
629.1559, 158.4565
629.6381, 159.5328
630.1202, 159.2497
630.6023, 158.5553
631.0844, 158.3873
631.5665, 158.6204
632.0486, 159.0644
632.5308, 159.9790
633.0129, 160.5269
633.4950, 159.6773
633.9771, 158.0949
634.4592, 157.0397
634.9413, 156.9668
635.4235, 157.4096
635.9056, 158.6137
636.3877, 160.3713
636.8698, 161.3355
637.3519, 161.1072
637.8340, 160.7281
638.3162, 160.8051
638.7983, 161.3064
639.2804, 160.2794
639.7625, 157.4192
640.2446, 154.7305
640.7267, 154.2564
641.2089, 155.3236
641.6910, 155.6896
642.1731, 155.0872
642.6552, 154.2399
643.1373, 153.8133
643.6194, 153.5543
644.1016, 153.0827
644.5837, 152.0142
645.0658, 151.2215
645.5479, 151.3425
646.0300, 151.9267
646.5121, 152.2435
646.9943, 152.2966
647.4764, 151.9168
647.9585, 150.8060
648.4406, 149.2625
648.9227, 148.4275
649.4048, 148.5422
649.8870, 148.5072
650.3691, 147.7212
650.8512, 146.4398
651.3333, 145.8611
651.8154, 145.9732
652.2975, 146.0197
652.7797, 145.4029
653.2618, 144.4023
653.7439, 143.3162
654.2260, 142.1666
654.7081, 141.2216
655.1902, 140.6415
655.6724, 140.3528
656.1545, 140.3423
656.6366, 140.9261
657.1187, 141.1516
657.6008, 140.4331
658.0829, 139.5629
658.5651, 139.4770
659.0472, 140.7309
659.5293, 141.2411
660.0114, 140.5740
660.4935, 139.2314
660.9756, 137.9143
661.4578, 136.6735
661.9399, 136.4036
662.4220, 138.0091
662.9041, 140.1847
663.3862, 140.9558
663.8683, 140.5146
664.3505, 139.6480
664.8326, 138.5435
665.3147, 137.3752
665.7968, 136.0583
666.2789, 134.6306
666.7610, 133.8588
667.2432, 134.3581
667.7253, 135.1927
668.2074, 135.9926
668.6895, 136.8458
669.1716, 137.2608
669.6537, 137.3131
670.1359, 136.7936
670.6180, 134.9398
671.1001, 131.8644
671.5822, 130.7052
672.0643, 131.9521
672.5464, 134.1743
673.0286, 136.3232
673.5107, 138.0827
673.9928, 138.7427
674.4749, 137.7879
674.9570, 136.3165
675.4391, 134.5884
675.9213, 132.9552
676.4034, 132.0061
676.8855, 132.8317
677.3676, 133.3350
677.8497, 132.9144
678.3318, 131.8441
678.8140, 130.7955
679.2961, 129.5954
679.7782, 128.8366
680.2603, 128.7934
680.7424, 129.3299
681.2245, 129.8248
681.7067, 130.2797
682.1888, 130.8827
682.6709, 132.0717
683.1530, 133.3683
683.6351, 133.9605
684.1172, 133.8300
684.5994, 133.3992
685.0815, 132.4646
685.5636, 131.6526
686.0457, 131.5548
686.5278, 132.5016
687.0099, 133.1367
687.4921, 133.0544
687.9742, 132.6960
688.4563, 132.4207
688.9384, 132.4801
689.4205, 131.6837
689.9026, 129.5850
690.3848, 127.3778
690.8669, 126.9152
691.3490, 127.9631
691.8311, 128.4954
692.3132, 127.8154
692.7953, 127.0794
693.2775, 127.8493
693.7596, 129.5710
694.2417, 131.1208
694.7238, 132.5274
695.2059, 133.1611
695.6880, 132.4161
696.1702, 130.6689
696.6523, 128.9459
697.1344, 126.5783
697.6165, 125.3034
698.0986, 125.9646
698.5807, 128.0975
699.0629, 129.0247
699.5450, 128.5288
700.0271, 127.8731
700.5092, 127.6277
700.9913, 127.7091
701.4734, 128.0275
701.9556, 128.5396
702.4377, 128.6454
702.9198, 127.6041
703.4019, 126.1249
703.8840, 124.7646
704.3661, 123.5532
704.8483, 122.9682
705.3304, 123.7937
705.8125, 124.8770
706.2946, 125.3835
706.7767, 124.9256
707.2589, 125.0083
707.7410, 126.0236
708.2231, 127.0186
708.7052, 126.8969
709.1873, 125.6180
709.6694, 125.1793
710.1516, 125.9831
710.6337, 126.8475
711.1158, 126.0318
711.5979, 124.2063
712.0800, 122.8167
712.5621, 122.1723
713.0443, 122.1928
713.5264, 123.4079
714.0085, 125.0937
714.4906, 126.1904
714.9727, 125.8428
715.4548, 125.6109
715.9370, 126.2545
716.4191, 127.0085
716.9012, 125.7506
717.3833, 121.4877
717.8654, 119.0432
718.3475, 120.3469
718.8297, 123.8338
719.3118, 125.7035
719.7939, 126.0370
720.2760, 125.4004
720.7581, 123.2040
721.2402, 120.7839
721.7224, 119.5884
722.2045, 119.4750
722.6866, 119.7526
723.1687, 119.8373
723.6508, 120.5108
724.1329, 122.9341
724.6151, 127.1129
725.0972, 128.4719
725.5793, 125.5862
726.0614, 122.2474
726.5435, 120.1463
727.0256, 119.2865
727.5078, 119.8331
727.9899, 121.9374
728.4720, 123.5533
728.9541, 122.5432
729.4362, 120.0864
729.9183, 118.0470
730.4005, 116.5979
730.8826, 116.0702
731.3647, 117.4927
731.8468, 119.4030
732.3289, 120.6484
732.8110, 121.0175
733.2932, 120.7531
733.7753, 119.1957
734.2574, 117.6909
734.7395, 117.5630
735.2216, 119.1497
735.7037, 120.0051
736.1859, 119.8306
736.6680, 119.3522
737.1501, 119.5365
737.6322, 120.1800
738.1143, 120.6227
738.5964, 120.6874
739.0786, 120.6353
739.5607, 120.9909
740.0428, 121.2643
740.5249, 120.7790
741.0070, 117.4895
741.4891, 115.7082
741.9713, 117.4598
742.4534, 120.6354
742.9355, 122.1829
743.4176, 121.6593
743.8997, 120.8086
744.3818, 119.7889
744.8640, 118.8316
745.3461, 118.5854
745.8282, 118.9255
746.3103, 119.0481
746.7924, 118.4852
747.2745, 117.7658
747.7567, 117.3160
748.2388, 117.1412
748.7209, 117.2572
749.2030, 118.2271
749.6851, 118.9013
750.1672, 118.7004
750.6494, 117.8491
751.1315, 117.2087
751.6136, 116.9037
752.0957, 116.5106
752.5778, 115.7140
753.0599, 114.7886
753.5421, 115.0300
754.0242, 116.3605
754.5063, 117.4920
754.9884, 117.4613
755.4705, 116.9541
755.9526, 116.8795
756.4348, 117.1410
756.9169, 117.1901
757.3990, 116.3427
757.8811, 115.6099
758.3632, 115.7562
758.8453, 116.8019
759.3275, 116.8374
759.8096, 115.1715
760.2917, 113.7392
760.7738, 113.6110
761.2559, 114.6233
761.7380, 115.1203
762.2202, 115.0905
762.7023, 114.8131
763.1844, 114.2507
763.6665, 113.6763
764.1486, 113.5222
764.6307, 113.8039
765.1129, 114.1891
765.5950, 114.8538
766.0771, 115.2980
766.5592, 115.0157
767.0413, 113.6701
767.5234, 113.2589
768.0056, 114.4395
768.4877, 115.5309
768.9698, 115.1728
769.4519, 113.4024
769.9340, 112.5221
770.4161, 112.6468
770.8983, 112.8574
771.3804, 112.3300
771.8625, 111.3597
772.3446, 110.2060
772.8267, 108.8462
773.3088, 108.0844
773.7910, 108.9042
774.2731, 110.0964
774.7552, 110.6580
775.2373, 110.0498
775.7194, 110.1677
776.2015, 111.4946
776.6837, 112.8268
777.1658, 113.0597
777.6479, 112.2207
778.1300, 111.3723
778.6121, 110.5745
779.0942, 109.8536
779.5764, 109.0963
780.0585, 108.4753
780.5406, 108.2889
781.0227, 108.6770
781.5048, 109.1472
781.9869, 109.5372
782.4691, 109.8670
782.9512, 110.1685
783.4332, 110.6258
783.9153, 110.6815
784.3975, 110.2966
784.8796, 109.5729
785.3617, 108.1261
785.8438, 106.1386
786.3259, 106.1950
786.8080, 109.0061
787.2902, 111.7664
787.7723, 110.9987
788.2544, 108.4999
788.7365, 106.8449
789.2186, 106.8073
789.7007, 107.1303
790.1829, 107.5948
790.6650, 108.0768
791.1471, 108.4747
791.6292, 108.9569
792.1113, 108.9144
792.5934, 108.1598
793.0756, 107.1937
793.5577, 106.7052
794.0398, 106.5941
794.5219, 106.0651
795.0040, 104.7903
795.4861, 103.9013
795.9683, 104.8531
796.4504, 106.6787
796.9325, 108.1626
797.4146, 109.0574
797.8967, 109.4451
798.3788, 109.3009
798.8610, 108.6636
799.3431, 107.3561
799.8252, 104.7436
800.3073, 103.9167
800.7894, 105.6924
801.2715, 107.8616
801.7537, 106.6772
802.2358, 103.3484
802.7179, 102.4763
803.2000, 105.6940
803.6821, 109.0098
804.1642, 108.8978
804.6464, 107.2974
805.1285, 106.5496
805.6106, 107.9235
806.0927, 108.9399
806.5748, 109.4976
807.0569, 109.5282
807.5391, 108.7450
808.0212, 106.9648
808.5033, 105.9048
808.9854, 105.8490
809.4675, 106.1634
809.9496, 105.9567
810.4318, 105.5435
810.9139, 105.6423
811.3960, 106.5062
811.8781, 107.5663
812.3602, 109.3437
812.8423, 110.7299
813.3245, 110.4433
813.8066, 106.2896
814.2887, 104.1020
814.7708, 104.7368
815.2529, 106.1718
815.7350, 105.8490
816.2172, 103.9156
816.6993, 103.5898
817.1814, 105.5066
817.6635, 107.6320
818.1456, 107.8586
818.6277, 106.9492
819.1099, 105.8431
819.5920, 104.6005
820.0741, 103.6621
820.5562, 103.0126
821.0383, 102.8684
821.5204, 103.4529
822.0026, 105.2082
822.4847, 106.4206
822.9668, 106.9876
823.4489, 107.2320
823.9310, 107.6612
824.4131, 108.0554
824.8953, 107.3811
825.3774, 105.3905
825.8595, 103.6172
826.3416, 103.2381
826.8237, 103.6503
827.3058, 104.4680
827.7880, 106.0144
828.2701, 106.6449
828.7522, 105.5368
829.2343, 104.2516
829.7164, 104.0092
830.1985, 104.9174
830.6807, 105.4059
831.1628, 105.4232
831.6449, 105.2069
832.1270, 104.5761
832.6091, 104.0066
833.0912, 104.5532
833.5734, 106.3739
834.0555, 107.7986
834.5376, 108.1384
835.0197, 107.6904
835.5018, 106.3169
835.9839, 103.7652
836.4661, 102.3365
836.9482, 102.2419
837.4303, 102.7507
837.9124, 103.7839
838.3945, 105.0774
838.8766, 104.9817
839.3588, 103.5477
839.8409, 102.4210
840.3230, 103.3580
840.8051, 104.7232
841.2872, 104.9680
841.7693, 104.0060
842.2515, 103.3274
842.7336, 103.1194
843.2157, 103.3789
843.6978, 104.3758
844.1799, 105.9875
844.6620, 106.4270
845.1442, 105.6214
845.6263, 104.7033
846.1084, 104.1511
846.5905, 104.0015
847.0726, 104.6323
847.5547, 105.8259
848.0369, 106.5740
848.5190, 106.1675
849.0011, 105.4338
849.4832, 104.5266
849.9653, 103.5561
850.4474, 103.1514
850.9296, 103.6086
851.4117, 103.6615
851.8938, 102.5103
852.3759, 100.9815
852.8580, 101.7344
853.3401, 104.2424
853.8223, 106.0961
854.3044, 105.6247
854.7865, 104.6015
855.2686, 103.8725
855.7507, 103.5357
856.2328, 103.8356
856.7150, 105.8010
857.1971, 106.9999
857.6792, 106.9369
858.1613, 106.0265
858.6434, 104.7865
859.1255, 103.2677
859.6077, 102.7716
860.0898, 103.9373
860.5719, 105.6149
861.0540, 106.9035
861.5361, 107.6621
862.0182, 107.6416
862.5004, 105.9750
862.9825, 104.6709
863.4646, 104.0397
863.9467, 104.1211
864.4288, 105.3277
864.9109, 108.1716
865.3931, 109.2989
865.8752, 108.0254
866.3573, 106.3320
866.8394, 107.1924
867.3215, 109.3034
867.8036, 109.5883
868.2858, 107.0626
868.7679, 104.9958
869.2500, 105.8506
869.7321, 107.4487
870.2142, 107.7931
870.6964, 106.3323
871.1785, 105.1912
871.6606, 104.1562
872.1427, 103.9735
872.6248, 106.1017
873.1069, 109.7136
873.5891, 110.9398
874.0712, 109.6777
874.5533, 108.2033
875.0354, 107.8293
875.5175, 108.1861
875.9996, 109.4592
876.4818, 111.7051
876.9639, 112.3769
877.4460, 110.1502
877.9281, 108.1588
878.4102, 107.9511
878.8923, 109.1358
879.3745, 108.9379
879.8566, 107.4539
880.3387, 106.3809
880.8208, 106.8348
881.3029, 108.0774
881.7850, 109.8140
882.2672, 111.7661
882.7493, 112.9931
883.2314, 113.0975
883.7135, 112.5028
884.1956, 110.6949
884.6777, 108.5304
885.1599, 108.7203
885.6420, 111.4581
886.1241, 113.3215
886.6062, 113.0218
887.0883, 111.9876
887.5704, 112.0549
888.0526, 112.8709
888.5347, 113.7936
889.0168, 114.7044
889.4989, 115.5515
889.9810, 116.4731
890.4631, 117.2158
890.9453, 117.3264
891.4274, 116.4384
891.9095, 116.8375
892.3916, 119.0929
892.8737, 121.2139
893.3558, 120.0245
893.8380, 117.1904
894.3201, 116.3402
894.8022, 118.2504
895.2843, 120.2710
895.7664, 120.9024
896.2485, 121.2402
896.7307, 122.2210
897.2128, 124.0629
897.6949, 125.1897
898.1770, 125.3958
898.6591, 125.5484
899.1412, 126.6024
899.6234, 128.0082
900.1055, 127.6472
900.5876, 125.7941
901.0697, 124.7782
901.5518, 126.8601
902.0339, 129.4453
902.5161, 131.0367
902.9982, 131.6694
903.4803, 132.4887
903.9624, 133.8291
904.4445, 134.5004
904.9266, 133.8219
905.4088, 132.5406
905.8909, 132.5209
906.3730, 133.5630
906.8551, 134.8686
907.3372, 136.5198
907.8193, 137.7924
908.3015, 137.5475
908.7836, 136.7782
909.2657, 137.2469
909.7478, 140.2542
910.2299, 142.3951
910.7120, 143.2658
911.1942, 143.4966
911.6763, 143.8711
912.1584, 144.3335
912.6405, 144.6154
913.1226, 144.6818
913.6047, 144.5163
914.0869, 143.4848
914.5690, 142.6098
915.0511, 142.9396
915.5332, 144.9573
916.0153, 146.9681
916.4974, 149.4890
916.9796, 150.9939
917.4617, 149.7250
917.9438, 146.3601
918.4259, 146.2205
918.9080, 149.0906
919.3901, 152.2213
919.8723, 154.2443
920.3544, 155.4387
920.8365, 155.5649
921.3186, 154.9185
921.8007, 155.0601
922.2828, 156.5561
922.7650, 158.2585
923.2471, 159.9363
923.7292, 161.6045
924.2113, 163.3054
924.6934, 165.0165
925.1755, 166.7258
925.6577, 168.5567
926.1398, 170.0725
926.6219, 171.0101
927.1040, 171.3473
927.5861, 171.0352
928.0682, 168.0383
928.5504, 167.6950
929.0325, 171.2326
929.5146, 175.6890
929.9967, 177.6487
930.4788, 177.5296
930.9609, 179.1266
931.4431, 182.8511
931.9252, 186.1020
932.4073, 186.0426
932.8894, 185.2249
933.3715, 185.8962
933.8536, 188.3626
934.3358, 191.0197
934.8179, 193.9388
935.3000, 196.6580
935.7821, 198.7824
936.2642, 200.6106
936.7463, 203.6361
937.2285, 207.6924
937.7106, 211.4061
938.1927, 213.5859
938.6748, 215.6677
939.1569, 218.6710
939.6390, 222.3817
940.1212, 226.2978
940.6033, 229.9451
941.0854, 234.6474
941.5675, 240.8338
942.0496, 247.6751
942.5317, 253.6126
943.0139, 258.9767
943.4960, 265.3368
943.9781, 273.2241
944.4602, 281.0878
944.9423, 286.7905
945.4244, 292.5370
945.9066, 300.6433
946.3887, 312.2951
946.8708, 322.7652
947.3529, 331.5856
947.8350, 340.4266
948.3171, 349.6792
948.7993, 359.7697
949.2814, 373.2599
949.7635, 389.7091
950.2456, 406.4413
950.7277, 421.1457
951.2098, 436.1478
951.6920, 452.3652
952.1741, 469.9923
952.6562, 489.4378
953.1383, 511.3202
953.6204, 533.2413
954.1025, 554.7643
954.5847, 576.0939
955.0668, 597.5518
955.5489, 619.4287
956.0310, 642.4714
956.5131, 666.4427
956.9952, 692.2214
957.4774, 721.4622
957.9595, 751.8533
958.4416, 781.7380
958.9237, 811.0703
959.4058, 839.8859
959.8879, 867.8437
960.3701, 895.7224
960.8522, 924.1951
961.3343, 953.1125
961.8164, 980.8664
962.2985, 1007.933
962.7806, 1036.030
963.2628, 1067.108
963.7449, 1098.110
964.2270, 1127.768
964.7091, 1156.777
965.1912, 1186.875
965.6733, 1218.158
966.1555, 1249.567
966.6376, 1281.368
967.1197, 1312.465
967.6018, 1341.091
968.0839, 1367.869
968.5660, 1393.516
969.0482, 1420.190
969.5303, 1441.908
970.0124, 1457.650
970.4945, 1468.571
970.9766, 1475.880
971.4587, 1479.603
971.9409, 1476.547
972.4230, 1466.598
972.9051, 1451.836
973.3872, 1432.836
973.8693, 1410.475
974.3514, 1385.694
974.8336, 1358.616
975.3157, 1328.725
975.7978, 1294.015
976.2799, 1259.506
976.7620, 1225.496
977.2441, 1193.190
977.7263, 1166.167
978.2084, 1143.562
978.6905, 1121.814
979.1726, 1099.463
979.6547, 1078.815
980.1368, 1062.178
980.6190, 1047.890
981.1010, 1033.987
981.5831, 1019.178
982.0652, 1007.971
982.5474, 1001.059
983.0295, 995.8824
983.5116, 991.4521
983.9937, 987.0625
984.4758, 980.6635
984.9579, 972.3429
985.4401, 963.3159
985.9222, 954.6498
986.4043, 944.9893
986.8864, 933.4219
987.3685, 920.3416
987.8506, 906.7742
988.3328, 892.9330
988.8149, 878.1097
989.2970, 862.3964
989.7791, 844.9762
990.2612, 824.4395
990.7433, 801.5358
991.2255, 777.1459
991.7076, 751.0872
992.1897, 725.3876
992.6718, 700.8207
993.1539, 676.7815
993.6360, 653.0433
994.1182, 629.6008
994.6003, 606.1169
995.0824, 582.4148
995.5645, 559.2914
996.0466, 537.0106
996.5287, 515.1012
997.0109, 492.3213
997.4930, 469.5599
997.9751, 449.4471
998.4572, 433.5742
998.9393, 417.6785
999.4214, 400.8940
999.9036, 384.1631
1000.386, 369.2257
1000.868, 355.8751
1001.350, 343.8723
1001.832, 333.5046
1002.314, 323.0278
1002.796, 311.1396
1003.278, 299.1655
1003.760, 288.1389
1004.243, 277.9408
1004.725, 269.2215
1005.207, 262.0051
1005.689, 255.7391
1006.171, 250.4204
1006.653, 245.5568
1007.135, 239.9938
1007.617, 234.0779
1008.100, 228.5822
1008.582, 224.0124
1009.064, 219.7114
1009.546, 215.5752
1010.028, 211.6276
1010.510, 207.9796
1010.992, 204.6117
1011.474, 201.1118
1011.956, 197.4057
1012.439, 193.6005
1012.921, 189.2011
1013.403, 185.1659
1013.885, 182.6014
1014.367, 181.6529
1014.849, 180.2212
1015.331, 178.1445
1015.813, 175.7987
1016.296, 173.1966
1016.778, 170.5741
1017.260, 168.4310
1017.742, 166.7417
1018.224, 165.3685
1018.706, 164.2012
1019.188, 163.4468
1019.670, 163.9091
1020.152, 164.3516
1020.635, 163.3134
1021.117, 160.3273
1021.599, 159.0872
1022.081, 159.8268
1022.563, 160.2984
1023.045, 157.9765
1023.527, 154.8842
1024.009, 153.3999
1024.492, 153.3987
1024.974, 153.4375
1025.456, 153.3227
1025.938, 153.0576
1026.420, 152.7812
1026.902, 152.1939
1027.384, 149.9813
1027.866, 146.8185
1028.349, 145.7779
1028.831, 148.0011
1029.313, 150.4730
1029.795, 151.5754
1030.277, 151.9201
1030.759, 151.9039
1031.241, 151.5295
1031.723, 151.1274
1032.205, 150.6159
1032.688, 150.5981
1033.170, 152.0175
1033.652, 153.6369
1034.134, 153.0579
1034.616, 151.1891
1035.098, 150.2843
1035.580, 152.5877
1036.062, 153.7350
1036.544, 152.3277
1037.027, 150.6219
1037.509, 151.8610
1037.991, 155.5195
1038.473, 157.7466
1038.955, 158.2179
1039.437, 158.0906
1039.919, 157.3728
1040.401, 157.0746
1040.884, 158.2077
1041.366, 160.5698
1041.848, 162.3412
1042.330, 163.3896
1042.812, 164.3259
1043.294, 165.1754
1043.776, 166.3565
1044.258, 169.1582
1044.740, 172.5625
1045.223, 174.7177
1045.705, 174.6736
1046.187, 174.8162
1046.669, 175.2796
1047.151, 176.4497
1047.633, 178.6626
1048.115, 181.8318
1048.597, 185.2790
1049.079, 189.0203
1049.562, 192.9605
1050.044, 198.1734
1050.526, 202.4259
1051.008, 202.9336
1051.490, 201.8316
1051.972, 203.7184
1052.454, 209.5633
1052.936, 214.8780
1053.419, 219.2848
1053.901, 222.7319
1054.383, 224.0672
1054.865, 224.9728
1055.347, 228.3386
1055.829, 234.3695
1056.311, 239.4104
1056.793, 241.3270
1057.276, 243.7320
1057.758, 247.8683
1058.240, 253.0851
1058.722, 257.6352
1059.204, 261.6003
1059.686, 265.3913
1060.168, 269.0856
1060.650, 272.7458
1061.132, 276.6228
1061.615, 280.3163
1062.097, 283.3036
1062.579, 285.3644
1063.061, 288.4902
1063.543, 292.6977
1064.025, 297.5083
1064.507, 303.5465
1064.989, 309.3454
1065.471, 312.6983
1065.954, 314.3224
1066.436, 316.0493
1066.918, 317.7733
1067.400, 320.6902
1067.882, 325.5247
1068.364, 330.4358
1068.846, 332.4709
1069.328, 332.8473
1069.811, 335.2778
1070.293, 340.0040
1070.775, 345.4188
1071.257, 350.9044
1071.739, 356.6662
1072.221, 363.1710
1072.703, 369.9501
1073.185, 375.6792
1073.667, 380.2816
1074.150, 384.4648
1074.632, 388.0923
1075.114, 392.3231
1075.596, 398.5211
1076.078, 405.7063
1076.560, 412.7387
1077.042, 419.3508
1077.524, 426.8685
1078.006, 435.6530
1078.489, 443.9969
1078.971, 450.7323
1079.453, 456.5733
1079.935, 462.4657
1080.417, 468.4939
1080.899, 474.8663
1081.381, 482.5772
1081.863, 489.3412
1082.345, 495.1279
1082.828, 499.6816
1083.310, 502.2230
1083.792, 503.0933
1084.274, 505.0760
1084.756, 508.1107
1085.238, 509.9053
1085.720, 508.3075
1086.202, 505.7905
1086.685, 503.6118
1087.167, 501.5403
1087.649, 498.8865
1088.131, 495.5781
1088.613, 492.5671
1089.095, 490.2034
1089.577, 487.1049
1090.059, 481.2627
1090.542, 474.2924
1091.024, 467.6153
1091.506, 461.3775
1091.988, 456.4920
1092.470, 453.5423
1092.952, 450.2924
1093.434, 445.7846
1093.916, 440.7429
1094.398, 436.4014
1094.880, 432.6163
1095.363, 429.3202
1095.845, 426.9162
1096.327, 423.6551
1096.809, 417.9174
1097.291, 412.6618
1097.773, 410.1284
1098.255, 409.7999
1098.737, 407.7882
1099.220, 404.3214
1099.702, 400.7553
1100.184, 397.4045
1100.666, 394.6202
1101.148, 392.9758
1101.630, 391.7893
1102.112, 390.1881
1102.594, 388.1851
1103.077, 385.3879
1103.559, 381.6805
1104.041, 378.3232
1104.523, 377.3661
1105.005, 376.3770
1105.487, 372.4889
1105.969, 366.2741
1106.451, 361.4048
1106.933, 358.4774
1107.416, 355.8681
1107.898, 353.4254
1108.380, 350.7212
1108.862, 346.6528
1109.344, 342.1238
1109.826, 338.6351
1110.308, 336.5138
1110.790, 334.3618
1111.272, 332.5504
1111.755, 329.5967
1112.237, 324.6616
1112.719, 318.5429
1113.201, 312.9800
1113.683, 307.9362
1114.165, 302.9304
1114.647, 297.4199
1115.129, 293.0308
1115.612, 291.9716
1116.094, 290.9468
1116.576, 287.5559
1117.058, 281.9965
1117.540, 277.6652
1118.022, 274.4952
1118.504, 271.6891
1118.986, 269.0401
1119.469, 266.3579
1119.951, 263.2357
1120.433, 260.1333
1120.915, 257.9065
1121.397, 257.0902
1121.879, 254.6330
1122.361, 250.3047
1122.843, 246.0327
1123.325, 243.2847
1123.807, 241.3784
1124.290, 239.3567
1124.772, 237.5323
1125.254, 237.3205
1125.736, 240.1187
1126.218, 241.0809
1126.700, 239.3125
1127.182, 236.7019
1127.664, 235.2329
1128.147, 234.4808
1128.629, 233.7249
1129.111, 232.9217
1129.593, 232.5090
1130.075, 233.0574
1130.557, 233.3464
1131.039, 232.9951
1131.521, 232.3609
1132.004, 231.8661
1132.486, 231.6697
1132.968, 232.4317
1133.450, 234.4594
1133.932, 236.0727
1134.414, 236.1404
1134.896, 236.0379
1135.378, 236.4492
1135.860, 237.2088
1136.343, 237.5417
1136.825, 237.5354
1137.307, 237.6245
1137.789, 237.7205
1138.271, 238.5422
1138.753, 241.3822
1139.235, 244.4855
1139.717, 246.0937
1140.199, 246.1836
1140.682, 247.4379
1141.164, 249.8275
1141.646, 252.0810
1142.128, 253.2237
1142.610, 254.2916
1143.092, 256.0865
1143.574, 258.3565
1144.056, 260.7570
1144.539, 263.4120
1145.021, 265.5326
1145.503, 266.9719
1145.985, 269.0098
1146.467, 273.3479
1146.949, 278.1840
1147.431, 281.5219
1147.913, 283.7109
1148.396, 285.7708
1148.878, 287.1303
1149.360, 290.2045
1149.842, 295.5591
1150.324, 301.5025
1150.806, 306.3805
1151.288, 310.5870
1151.770, 314.3887
1152.252, 317.9501
1152.734, 322.3490
1153.217, 328.4833
1153.699, 334.2760
1154.181, 339.2508
1154.663, 343.9008
1155.145, 348.9093
1155.627, 354.2253
1156.109, 360.0112
1156.591, 366.2956
1157.074, 371.6924
1157.556, 374.7256
1158.038, 378.1130
1158.520, 382.5946
1159.002, 387.9352
1159.484, 393.7420
1159.966, 399.9669
1160.448, 406.5612
1160.931, 413.6160
1161.413, 420.5032
1161.895, 427.5119
1162.377, 433.3543
1162.859, 437.0484
1163.341, 439.2480
1163.823, 442.8412
1164.305, 447.3896
1164.787, 450.7839
1165.270, 452.1372
1165.752, 452.6430
1166.234, 452.2091
1166.716, 451.7870
1167.198, 452.4761
1167.680, 454.0314
1168.162, 452.8072
1168.644, 449.0135
1169.126, 444.6703
1169.609, 440.6569
1170.091, 436.3725
1170.573, 431.7852
1171.055, 426.3880
1171.537, 419.6977
1172.019, 411.5638
1172.501, 403.7820
1172.983, 396.4399
1173.466, 388.1695
1173.948, 376.8505
1174.430, 365.7964
1174.912, 358.0722
1175.394, 351.8374
1175.876, 343.6760
1176.358, 333.2959
1176.840, 323.6543
1177.323, 314.9668
1177.805, 306.3031
1178.287, 296.8859
1178.769, 287.4028
1179.251, 278.3439
1179.733, 269.8166
1180.215, 261.9187
1180.697, 254.6946
1181.179, 248.0678
1181.661, 242.1364
1182.144, 236.2531
1182.626, 229.6334
1183.108, 222.8291
1183.590, 215.9732
1184.072, 209.4396
1184.554, 204.8142
1185.036, 203.0215
1185.518, 199.2277
1186.001, 192.2608
1186.483, 185.2282
1186.965, 182.1369
1187.447, 180.3524
1187.929, 177.0842
1188.411, 172.2400
1188.893, 167.4342
1189.375, 162.6711
1189.858, 158.2508
1190.340, 154.1549
1190.822, 150.6837
1191.304, 148.3352
1191.786, 146.6779
1192.268, 145.3831
1192.750, 144.4138
1193.232, 142.8867
1193.714, 140.6253
1194.197, 138.3235
1194.679, 136.2754
1195.161, 134.1006
1195.643, 131.1523
1196.125, 127.8123
1196.607, 124.4084
1197.089, 120.8906
1197.571, 118.5571
1198.053, 117.7242
1198.536, 117.2127
1199.018, 116.6948
1199.500, 116.0521
1199.982, 115.1893
1200.464, 114.0428
1200.946, 112.3989
1201.428, 109.9940
1201.910, 108.1695
1202.393, 107.0824
1202.875, 106.1943
1203.357, 105.2623
1203.839, 104.3979
1204.321, 103.7891
1204.803, 103.3854
1205.285, 103.1699
1205.767, 103.4345
1206.250, 102.8175
1206.732, 100.9093
1207.214, 99.29811
1207.696, 99.24335
1208.178, 99.66286
1208.660, 98.19365
1209.142, 95.90968
1209.624, 94.96108
1210.106, 97.42184
1210.589, 97.68385
1211.071, 95.05899
1211.553, 92.17535
1212.035, 90.76867
1212.517, 90.12521
1212.999, 88.69643
1213.481, 87.09746
1213.963, 86.64613
1214.445, 89.09823
1214.928, 90.28405
1215.410, 90.16547
1215.892, 88.93135
1216.374, 85.75101
1216.856, 82.17248
1217.338, 80.71416
1217.820, 80.87793
1218.302, 81.45817
1218.785, 82.74152
1219.267, 83.25481
1219.749, 82.73364
1220.231, 82.23526
1220.713, 83.01501
1221.195, 84.07481
1221.677, 83.96564
1222.159, 82.90498
1222.641, 81.52857
1223.124, 79.39127
1223.606, 78.18690
1224.088, 77.95485
1224.570, 78.79874
1225.052, 82.24869
1225.534, 85.80350
1226.016, 85.48866
1226.498, 82.40577
1226.980, 80.68567
1227.463, 81.39497
1227.945, 81.69508
1228.427, 81.33678
1228.909, 80.67095
1229.391, 79.78004
1229.873, 78.93980
1230.355, 78.73354
1230.837, 78.87937
1231.320, 78.16774
1231.802, 75.96658
1232.284, 75.25568
1232.766, 76.58446
1233.248, 77.86327
1233.730, 76.60845
1234.212, 74.71132
1234.694, 74.02195
1235.177, 74.41405
1235.659, 74.92702
1236.141, 75.52013
1236.623, 76.39677
1237.105, 77.69172
1237.587, 78.41075
1238.069, 77.09774
1238.551, 75.27258
1239.033, 74.12576
1239.516, 73.66624
1239.998, 73.52548
1240.480, 73.69039
1240.962, 74.44157
1241.444, 75.90902
1241.926, 77.09439
1242.408, 76.90215
1242.890, 76.34147
1243.372, 76.29521
1243.855, 76.49529
1244.337, 76.01534
1244.819, 74.83652
1245.301, 73.58044
1245.783, 72.31813
1246.265, 71.59457
1246.747, 72.58531
1247.229, 73.54947
1247.712, 72.80916
1248.194, 73.78090
1248.676, 71.87302
1249.158, 74.16975
1249.640, 75.38235
1250.122, 75.05704
1250.604, 74.25528
1251.086, 73.48653
1251.568, 72.62693
1252.051, 71.34910
1252.533, 70.09280
1253.015, 69.93098
1253.497, 70.71122
1253.979, 71.92799
1254.461, 73.53893
1254.943, 74.26021
1255.425, 72.03000
1255.907, 70.45439
1256.390, 71.25457
1256.872, 73.13081
1257.354, 73.44078
1257.836, 72.61890
1258.318, 72.21215
1258.800, 72.46482
1259.282, 72.34554
1259.764, 70.32614
1260.247, 69.50001
1260.729, 71.23801
1261.211, 73.74159
1261.693, 73.63829
1262.175, 71.96019
1262.657, 70.96397
1263.139, 70.96029
1263.621, 70.78221
1264.104, 69.81156
1264.586, 69.31808
1265.068, 69.69559
1265.550, 70.46415
1266.032, 71.32612
1266.514, 71.89812
1266.996, 71.22060
1267.478, 69.25253
1267.960, 68.41603
1268.443, 69.47655
1268.925, 69.67453
1269.407, 68.11788
1269.889, 66.32725
1270.371, 66.43348
1270.853, 65.25766
1271.335, 66.65036
1271.817, 65.00826
1272.299, 64.75269
1272.782, 66.14251
1273.264, 67.53484
1273.746, 68.69226
1274.228, 69.15340
1274.710, 67.28355
1275.192, 65.53963
1275.674, 66.95966
1276.156, 70.47798
1276.639, 71.01221
1277.121, 68.53790
1277.603, 66.79173
1278.085, 66.57001
1278.567, 66.75695
1279.049, 66.77093
1279.531, 66.67136
1280.013, 66.33004
1280.495, 65.98635
1280.978, 66.56574
1281.460, 67.81811
1281.942, 68.05730
1282.424, 66.97524
1282.906, 65.67637
1283.388, 64.24535
1283.870, 63.35563
1284.352, 63.26959
1284.834, 63.77198
1285.317, 64.73142
1285.799, 65.88087
1286.281, 66.40858
1286.763, 66.21904
1287.245, 66.01300
1287.727, 66.20785
1288.209, 66.10841
1288.691, 65.54245
1289.173, 64.65908
1289.656, 63.29632
1290.138, 61.92647
1290.620, 61.38696
1291.102, 61.71432
1291.584, 62.12610
1292.066, 62.48529
1292.548, 63.14900
1293.030, 64.34129
1293.513, 65.16642
1293.995, 63.98312
1294.477, 62.41423
1294.959, 62.42418
1295.441, 63.75320
1295.923, 63.99817
1296.405, 63.02200
1296.887, 62.09034
1297.370, 61.34663
1297.852, 61.17639
1298.334, 62.76246
1298.816, 64.20917
1299.298, 63.65482
1299.780, 64.30336
1300.262, 64.25747
1300.744, 63.42141
1301.226, 63.51960
1301.708, 62.24382
1302.191, 61.07542
1302.673, 61.15673
1303.155, 61.15273
1303.637, 60.67542
1304.119, 59.70107
##END=



