##NAMES=Jahnsite-(CaMnMn)
##RRUFFID=R080072
##IDEAL CHEMISTRY=CaMn^2+^Mn^2+^_2_Fe^3+^_2_(PO_4_)_4_(OH)_2_&#183;8H_2_O
##LOCALITY=Tip Top mine, Custer Country, South Dakota, USA
##OWNER=RRUFF
##SOURCE=Tom Loomis
##DESCRIPTION=Pale yellow blocky to thick tabular crystals associated with scholzite, R080068
##STATUS=The identification of this mineral has been confirmed only by single crystal X-ray diffraction.
##URL=rruff.info/R080072
92.52344, 262.3387
93.00555, 259.8547
93.48767, 260.3122
93.96979, 269.8520
94.45190, 279.3287
94.93402, 287.6739
95.41614, 291.2844
95.89825, 291.5818
96.38037, 290.9912
96.86249, 289.6619
97.34460, 288.2006
97.82672, 287.2536
98.30884, 286.0408
98.79095, 284.3477
99.27307, 281.9687
99.75519, 279.1125
100.2373, 276.8270
100.7194, 275.1849
101.2015, 273.4160
101.6837, 270.9742
102.1658, 268.6789
102.6479, 267.1689
103.1300, 266.4584
103.6121, 266.0898
104.0942, 265.8567
104.5764, 265.6847
105.0585, 265.4942
105.5406, 265.1035
106.0227, 264.6388
106.5048, 264.5660
106.9869, 265.2113
107.4691, 265.6208
107.9512, 265.1815
108.4333, 264.1374
108.9154, 263.1132
109.3975, 262.6784
109.8796, 262.9410
110.3618, 263.0204
110.8439, 262.5592
111.3260, 262.1904
111.8081, 262.2648
112.2902, 262.7828
112.7723, 263.4552
113.2544, 263.8515
113.7366, 263.5723
114.2187, 263.7977
114.7008, 264.9081
115.1829, 266.2826
115.6650, 267.3652
116.1471, 267.9596
116.6293, 268.2357
117.1114, 268.5793
117.5935, 269.0994
118.0756, 269.4759
118.5577, 269.4184
119.0398, 269.1380
119.5220, 269.1596
120.0041, 269.7758
120.4862, 270.8170
120.9683, 271.8235
121.4504, 272.8043
121.9325, 273.7309
122.4147, 274.6445
122.8968, 275.5640
123.3789, 276.2195
123.8610, 276.1746
124.3431, 275.8810
124.8252, 275.7745
125.3074, 276.0515
125.7895, 276.5090
126.2716, 276.7063
126.7537, 276.4773
127.2358, 276.2682
127.7179, 276.1860
128.2001, 276.2116
128.6822, 276.3364
129.1643, 276.5786
129.6464, 276.9206
130.1285, 277.1210
130.6107, 277.2861
131.0928, 277.1906
131.5749, 276.4727
132.0570, 275.4077
132.5391, 274.6064
133.0212, 274.6729
133.5034, 275.8226
133.9855, 276.3554
134.4676, 275.8393
134.9497, 275.1945
135.4318, 274.9540
135.9139, 275.1585
136.3960, 275.4753
136.8782, 275.4948
137.3603, 275.1168
137.8424, 275.0323
138.3245, 275.4752
138.8066, 276.1558
139.2887, 276.7800
139.7709, 277.3049
140.2530, 277.6796
140.7351, 277.7038
141.2172, 277.4093
141.6993, 277.2902
142.1814, 277.6428
142.6636, 278.3607
143.1457, 279.0677
143.6278, 279.7154
144.1099, 280.2836
144.5920, 280.7599
145.0741, 281.1447
145.5563, 281.5035
146.0384, 281.9090
146.5205, 282.3746
147.0026, 282.7728
147.4847, 283.0646
147.9668, 283.2919
148.4490, 283.4110
148.9311, 283.4294
149.4132, 283.4849
149.8953, 283.8086
150.3774, 284.5672
150.8595, 285.2690
151.3417, 285.8424
151.8238, 286.3676
152.3059, 286.8794
152.7880, 287.3920
153.2701, 287.9431
153.7522, 288.6233
154.2344, 289.6334
154.7165, 290.5438
155.1986, 291.4312
155.6807, 292.1894
156.1628, 292.6641
156.6449, 292.7647
157.1271, 292.5677
157.6092, 292.3676
158.0913, 292.0212
158.5734, 291.8239
159.0555, 291.8522
159.5376, 292.0941
160.0198, 292.5216
160.5019, 293.1290
160.9840, 293.9277
161.4661, 294.8862
161.9482, 296.4261
162.4303, 297.6967
162.9125, 297.9172
163.3946, 297.1323
163.8767, 296.3765
164.3588, 296.2620
164.8409, 296.5831
165.3230, 297.0088
165.8052, 297.6170
166.2873, 298.1884
166.7694, 298.3340
167.2515, 297.8915
167.7336, 297.5864
168.2157, 297.8910
168.6979, 298.4972
169.1800, 299.1124
169.6621, 299.7224
170.1442, 300.1831
170.6263, 299.9614
171.1084, 298.2705
171.5906, 297.1858
172.0727, 297.6231
172.5548, 298.9297
173.0369, 300.1939
173.5190, 300.8448
174.0011, 300.9699
174.4833, 301.3173
174.9654, 302.4353
175.4475, 303.2227
175.9296, 303.0876
176.4117, 302.4530
176.8938, 302.1303
177.3760, 302.7836
177.8581, 304.4518
178.3402, 305.5718
178.8223, 305.7645
179.3044, 305.8518
179.7865, 306.0876
180.2687, 306.4649
180.7508, 306.8943
181.2329, 307.3407
181.7150, 307.8245
182.1971, 307.8373
182.6792, 306.8330
183.1614, 305.8806
183.6435, 305.7766
184.1256, 306.4774
184.6077, 307.1414
185.0898, 306.9345
185.5719, 305.7889
186.0541, 305.0908
186.5362, 305.4303
187.0183, 305.9017
187.5004, 305.4736
187.9825, 303.9857
188.4646, 302.5312
188.9468, 302.3261
189.4289, 303.0680
189.9110, 303.5513
190.3931, 303.2807
190.8752, 302.6633
191.3573, 302.3314
191.8395, 302.3828
192.3216, 302.5759
192.8037, 302.3017
193.2858, 302.9056
193.7679, 303.3901
194.2500, 303.7616
194.7322, 303.6816
195.2143, 304.1846
195.6964, 304.4539
196.1785, 304.7137
196.6606, 305.2988
197.1427, 305.2845
197.6249, 305.8644
198.1070, 306.2072
198.5891, 306.6584
199.0712, 306.8374
199.5533, 307.4484
200.0354, 308.2213
200.5176, 309.2529
200.9997, 310.4247
201.4818, 311.4955
201.9639, 312.2658
202.4460, 312.7306
202.9281, 313.1209
203.4103, 313.3643
203.8924, 313.5913
204.3745, 313.8046
204.8566, 314.0299
205.3387, 314.3089
205.8208, 314.6812
206.3030, 315.1575
206.7851, 315.6566
207.2672, 316.3274
207.7493, 316.8867
208.2314, 317.3871
208.7135, 317.7106
209.1957, 317.5254
209.6778, 316.4348
210.1599, 314.2355
210.6420, 312.7722
211.1241, 312.4086
211.6062, 312.3034
212.0884, 312.0024
212.5705, 311.5210
213.0526, 311.1888
213.5347, 311.3651
214.0168, 312.1373
214.4989, 312.4355
214.9811, 312.0034
215.4632, 311.3451
215.9453, 310.7224
216.4274, 310.1695
216.9095, 309.6774
217.3916, 309.2005
217.8737, 308.7649
218.3559, 308.6175
218.8380, 308.9738
219.3201, 309.4857
219.8022, 309.9680
220.2843, 310.4069
220.7664, 310.5451
221.2486, 309.8269
221.7307, 308.5651
222.2128, 308.1165
222.6949, 309.3882
223.1770, 311.1945
223.6591, 312.1975
224.1413, 312.2918
224.6234, 312.0687
225.1055, 311.7715
225.5876, 311.4599
226.0697, 311.2588
226.5518, 311.2401
227.0340, 311.3279
227.5161, 311.3891
227.9982, 311.3840
228.4803, 311.4899
228.9624, 312.0258
229.4445, 312.6857
229.9267, 313.0329
230.4088, 312.7725
230.8909, 312.2219
231.3730, 312.0499
231.8551, 312.4755
232.3372, 312.7213
232.8194, 312.1701
233.3015, 311.3658
233.7836, 310.9980
234.2657, 311.4637
234.7478, 312.3486
235.2299, 312.6780
235.7121, 312.1562
236.1942, 311.6608
236.6763, 311.5368
237.1584, 311.5380
237.6405, 311.3690
238.1227, 310.8764
238.6048, 310.2406
239.0869, 309.9310
239.5690, 310.1064
240.0511, 310.3545
240.5332, 310.6515
241.0154, 310.9435
241.4975, 311.1812
241.9796, 311.3438
242.4617, 311.4350
242.9438, 311.4178
243.4259, 310.9162
243.9081, 310.9480
244.3902, 312.1228
244.8723, 313.5829
245.3544, 314.4171
245.8365, 314.2888
246.3186, 313.6891
246.8008, 313.7633
247.2829, 315.1849
247.7650, 316.3410
248.2471, 316.8576
248.7292, 317.2447
249.2113, 318.0704
249.6935, 319.5046
250.1756, 321.1517
250.6577, 322.2226
251.1398, 322.0167
251.6219, 322.2201
252.1040, 322.8485
252.5862, 323.8489
253.0683, 325.3480
253.5504, 327.3314
254.0325, 329.4024
254.5146, 330.8793
254.9967, 331.1514
255.4789, 331.9523
255.9610, 333.7410
256.4431, 335.7843
256.9252, 337.4706
257.4073, 338.6569
257.8894, 339.5516
258.3716, 340.3955
258.8537, 341.0659
259.3358, 342.0923
259.8179, 343.5918
260.3000, 345.3808
260.7821, 347.4262
261.2643, 349.6988
261.7464, 351.9032
262.2285, 353.6703
262.7106, 354.8592
263.1927, 356.3652
263.6748, 358.6261
264.1570, 360.9316
264.6391, 362.5415
265.1212, 363.4116
265.6033, 364.2422
266.0854, 365.7121
266.5675, 367.8595
267.0497, 369.7828
267.5318, 371.4124
268.0139, 372.8370
268.4960, 374.0399
268.9781, 375.0366
269.4602, 376.0697
269.9424, 377.3820
270.4245, 378.9073
270.9066, 380.1826
271.3887, 381.3394
271.8708, 382.1405
272.3529, 382.3434
272.8351, 381.9743
273.3172, 381.3241
273.7993, 380.5211
274.2814, 379.5493
274.7635, 378.4440
275.2456, 377.2832
275.7278, 375.9121
276.2099, 374.1862
276.6920, 372.1284
277.1741, 369.9070
277.6562, 367.5588
278.1383, 365.1173
278.6205, 362.7147
279.1026, 360.3647
279.5847, 357.9716
280.0668, 355.5022
280.5489, 352.9369
281.0310, 350.1639
281.5132, 346.9022
281.9953, 343.6766
282.4774, 341.3192
282.9595, 339.9937
283.4416, 338.5534
283.9237, 336.1259
284.4059, 332.9593
284.8880, 330.0646
285.3701, 327.7133
285.8522, 325.7077
286.3343, 323.8637
286.8164, 322.1729
287.2986, 320.4693
287.7807, 318.5890
288.2628, 316.6135
288.7449, 314.8690
289.2270, 313.5230
289.7091, 312.1789
290.1913, 310.2627
290.6734, 307.9927
291.1555, 306.1609
291.6376, 305.4991
292.1197, 305.5135
292.6018, 304.9313
293.0840, 303.4314
293.5661, 301.9797
294.0482, 301.4292
294.5303, 301.3625
295.0124, 301.0072
295.4945, 299.9619
295.9767, 298.5142
296.4588, 297.0725
296.9409, 295.5345
297.4230, 294.3593
297.9051, 294.0760
298.3872, 294.1989
298.8694, 294.2072
299.3515, 293.9830
299.8336, 293.5376
300.3157, 292.8120
300.7978, 291.7455
301.2799, 290.7397
301.7621, 290.0287
302.2442, 289.4035
302.7263, 288.6427
303.2084, 287.6761
303.6905, 286.7483
304.1726, 286.1788
304.6548, 285.9895
305.1369, 285.6479
305.6190, 284.8585
306.1011, 284.0031
306.5832, 283.3551
307.0653, 282.9344
307.5475, 282.6538
308.0296, 282.6020
308.5117, 282.7332
308.9938, 282.4352
309.4759, 281.3248
309.9580, 280.1165
310.4402, 279.3506
310.9223, 278.9284
311.4044, 278.4473
311.8865, 277.5409
312.3686, 276.3423
312.8507, 275.4422
313.3329, 274.9791
313.8150, 274.5981
314.2971, 274.1773
314.7792, 273.6840
315.2613, 273.0302
315.7434, 272.0628
316.2256, 270.9798
316.7077, 270.2425
317.1898, 269.9592
317.6719, 269.7033
318.1540, 269.1902
318.6361, 268.6371
319.1183, 268.3322
319.6004, 268.4319
320.0825, 268.6025
320.5646, 268.2934
321.0467, 267.3910
321.5288, 266.7408
322.0110, 266.9870
322.4931, 267.3637
322.9752, 267.1435
323.4573, 266.1994
323.9394, 265.3173
324.4215, 265.3524
324.9037, 266.2829
325.3858, 267.0423
325.8679, 267.4121
326.3500, 267.5758
326.8321, 267.6154
327.3142, 267.5592
327.7964, 267.5345
328.2785, 267.6806
328.7606, 267.9469
329.2427, 268.0389
329.7248, 267.7526
330.2069, 267.6297
330.6891, 268.0977
331.1712, 268.9477
331.6533, 269.7648
332.1354, 270.5046
332.6175, 271.0237
333.0996, 270.8668
333.5818, 269.7509
334.0639, 268.8729
334.5460, 269.0700
335.0281, 269.7630
335.5102, 270.3597
335.9923, 270.7159
336.4745, 270.9246
336.9566, 271.1404
337.4387, 271.3771
337.9208, 271.3684
338.4029, 270.9607
338.8850, 270.2903
339.3671, 269.4270
339.8492, 268.3537
340.3314, 267.3576
340.8135, 266.7896
341.2956, 266.5462
341.7777, 265.9615
342.2598, 264.6986
342.7419, 263.3827
343.2241, 262.6623
343.7062, 262.4094
344.1883, 261.9902
344.6704, 260.9538
345.1525, 259.5649
345.6346, 258.4702
346.1168, 257.8356
346.5989, 257.0692
347.0810, 255.5348
347.5631, 253.5912
348.0452, 251.8430
348.5273, 250.5691
349.0095, 249.4427
349.4916, 248.0374
349.9737, 246.3499
350.4558, 244.8119
350.9379, 243.7610
351.4200, 242.9095
351.9022, 241.7535
352.3843, 240.1500
352.8664, 238.5929
353.3485, 237.4930
353.8306, 236.7379
354.3127, 235.8825
354.7949, 234.7827
355.2770, 233.5681
355.7591, 232.3135
356.2412, 231.0120
356.7233, 229.9426
357.2054, 229.3532
357.6876, 229.0103
358.1697, 228.5867
358.6518, 228.0524
359.1339, 227.3425
359.6160, 226.2393
360.0981, 224.8578
360.5803, 223.8601
361.0624, 223.7183
361.5445, 223.6977
362.0266, 223.2077
362.5087, 222.2752
362.9908, 221.1869
363.4730, 220.0444
363.9551, 218.8899
364.4372, 217.8037
364.9193, 216.6429
365.4014, 215.7725
365.8835, 215.6388
366.3657, 215.8770
366.8478, 215.7049
367.3299, 214.8260
367.8120, 213.6171
368.2941, 212.6293
368.7762, 211.8726
369.2584, 211.2628
369.7405, 210.8914
370.2226, 210.6058
370.7047, 210.3225
371.1868, 210.0106
371.6689, 209.5420
372.1511, 208.7665
372.6332, 207.6649
373.1153, 206.6687
373.5974, 205.7293
374.0795, 204.9217
374.5616, 204.3742
375.0438, 203.9917
375.5259, 203.5013
376.0080, 202.7312
376.4901, 201.8105
376.9722, 201.2071
377.4543, 201.2222
377.9365, 201.1598
378.4186, 200.9874
378.9007, 200.6846
379.3828, 200.1804
379.8649, 199.4688
380.3470, 198.6890
380.8292, 198.0264
381.3113, 197.4721
381.7934, 197.0829
382.2755, 196.9643
382.7576, 196.8954
383.2397, 196.7539
383.7219, 196.5463
384.2040, 196.3559
384.6861, 196.2624
385.1682, 196.2518
385.6503, 196.0852
386.1324, 195.5002
386.6146, 195.0508
387.0967, 194.9251
387.5788, 194.9622
388.0609, 194.9427
388.5430, 194.7741
389.0251, 194.5500
389.5073, 194.4835
389.9894, 194.7455
390.4715, 194.7958
390.9536, 194.4505
391.4357, 194.0347
391.9178, 193.6386
392.4000, 193.3398
392.8821, 193.3196
393.3642, 193.9045
393.8463, 195.1294
394.3284, 195.7305
394.8105, 195.0204
395.2927, 194.4636
395.7748, 194.6302
396.2569, 195.2663
396.7390, 195.9682
397.2211, 196.5851
397.7032, 197.0451
398.1854, 197.1024
398.6675, 196.5639
399.1496, 196.2142
399.6317, 196.4846
400.1138, 196.8997
400.5959, 197.0788
401.0781, 196.9609
401.5602, 196.8230
402.0423, 196.9331
402.5244, 197.2694
403.0065, 197.5831
403.4886, 197.7937
403.9708, 198.0577
404.4529, 198.5670
404.9350, 199.2206
405.4171, 199.7317
405.8992, 199.8871
406.3813, 199.8726
406.8635, 199.9373
407.3456, 200.0721
407.8277, 200.3928
408.3098, 201.1744
408.7919, 202.0746
409.2740, 202.4667
409.7562, 202.1045
410.2383, 201.7969
410.7204, 202.1768
411.2025, 203.0094
411.6846, 203.5678
412.1667, 203.6056
412.6489, 203.5191
413.1310, 203.8695
413.6131, 204.6457
414.0952, 205.1989
414.5773, 205.1787
415.0594, 205.0505
415.5416, 205.3254
416.0237, 205.9741
416.5058, 206.4933
416.9879, 206.4946
417.4700, 206.1118
417.9521, 206.0845
418.4343, 206.6992
418.9164, 207.2596
419.3985, 207.5154
419.8806, 207.6199
420.3627, 207.8525
420.8448, 208.3000
421.3270, 208.7017
421.8091, 208.6059
422.2912, 207.6014
422.7733, 207.3326
423.2554, 208.4188
423.7375, 209.6391
424.2197, 210.2380
424.7018, 210.3006
425.1839, 210.3434
425.6660, 210.7491
426.1481, 211.4442
426.6302, 211.9328
427.1124, 211.9203
427.5945, 212.0562
428.0766, 212.3957
428.5587, 212.9283
429.0408, 213.7183
429.5229, 214.7589
430.0051, 215.8454
430.4872, 216.6467
430.9693, 217.0475
431.4514, 217.6344
431.9335, 218.8148
432.4156, 219.8367
432.8978, 220.2517
433.3799, 220.2507
433.8620, 220.3429
434.3441, 220.8284
434.8262, 221.6333
435.3083, 222.6183
435.7905, 223.9247
436.2726, 225.0066
436.7547, 225.2518
437.2368, 225.4097
437.7189, 226.3482
438.2010, 228.2937
438.6832, 230.0540
439.1653, 230.4316
439.6474, 229.6708
440.1295, 229.0823
440.6116, 228.8743
441.0938, 228.8520
441.5759, 228.9864
442.0580, 229.1947
442.5401, 229.1870
443.0222, 228.5191
443.5043, 227.8500
443.9865, 227.9844
444.4686, 228.8323
444.9507, 229.5790
445.4328, 229.8549
445.9149, 229.7820
446.3970, 229.5777
446.8792, 229.0997
447.3613, 228.9010
447.8434, 229.2661
448.3255, 229.9309
448.8076, 230.5239
449.2897, 230.9985
449.7719, 231.6948
450.2540, 233.0849
450.7361, 235.2457
451.2182, 236.2266
451.7003, 234.8813
452.1824, 233.7983
452.6646, 234.2034
453.1467, 235.4454
453.6288, 236.4180
454.1109, 236.6378
454.5930, 236.3309
455.0751, 235.9075
455.5573, 235.1417
456.0394, 234.7169
456.5215, 234.8118
457.0036, 235.0339
457.4857, 235.2116
457.9678, 235.3081
458.4500, 235.3469
458.9321, 235.3868
459.4142, 235.3676
459.8963, 234.8721
460.3784, 233.4521
460.8605, 232.3643
461.3427, 232.2385
461.8248, 232.3935
462.3069, 232.1362
462.7890, 231.2947
463.2711, 230.2868
463.7532, 229.5691
464.2354, 229.1114
464.7175, 228.5166
465.1996, 227.6220
465.6817, 226.7774
466.1638, 226.3575
466.6459, 226.1811
467.1281, 225.7708
467.6102, 224.7472
468.0923, 223.6236
468.5744, 223.0750
469.0565, 223.0281
469.5386, 222.7532
470.0208, 221.8529
470.5029, 220.7176
470.9850, 220.1143
471.4671, 220.1486
471.9492, 219.9846
472.4313, 219.1558
472.9135, 218.1726
473.3956, 217.6424
473.8777, 217.5847
474.3598, 217.5346
474.8419, 217.1020
475.3240, 216.3579
475.8062, 216.0153
476.2883, 216.4173
476.7704, 216.7425
477.2525, 216.9441
477.7346, 216.9306
478.2167, 216.4788
478.6989, 215.5753
479.1810, 214.6129
479.6631, 214.0852
480.1452, 214.0592
480.6273, 214.1481
481.1094, 214.5147
481.5916, 214.8272
482.0737, 214.9799
482.5558, 215.0004
483.0379, 214.9634
483.5200, 214.9121
484.0021, 214.7805
484.4843, 214.3383
484.9664, 213.4292
485.4485, 212.9327
485.9306, 213.4471
486.4127, 214.0681
486.8948, 214.2157
487.3770, 213.9146
487.8591, 213.4742
488.3412, 213.0673
488.8233, 212.6421
489.3054, 212.0013
489.7875, 211.1015
490.2697, 210.4649
490.7518, 210.5207
491.2339, 210.9309
491.7160, 211.0260
492.1981, 210.7966
492.6802, 210.2823
493.1624, 209.3338
493.6445, 208.1721
494.1266, 207.0945
494.6087, 206.1508
495.0908, 205.3310
495.5729, 204.6088
496.0551, 203.9907
496.5372, 203.5981
497.0193, 203.8331
497.5014, 203.7951
497.9835, 202.8297
498.4656, 201.5552
498.9478, 201.0020
499.4299, 201.4611
499.9120, 202.1123
500.3941, 201.7181
500.8762, 199.9545
501.3583, 198.4162
501.8405, 197.0542
502.3226, 195.9724
502.8047, 195.3683
503.2868, 195.0532
503.7689, 194.7409
504.2510, 194.3067
504.7331, 193.7299
505.2152, 192.9312
505.6974, 191.8682
506.1795, 190.8266
506.6616, 189.7367
507.1437, 188.8260
507.6258, 188.4343
508.1079, 188.4345
508.5901, 188.1621
509.0722, 186.9611
509.5543, 185.4680
510.0364, 184.7637
510.5185, 184.8394
511.0006, 184.6337
511.4828, 183.5106
511.9649, 181.9341
512.4470, 180.9160
512.9291, 180.5837
513.4113, 180.2439
513.8934, 179.6266
514.3755, 178.9774
514.8576, 178.6716
515.3397, 178.6687
515.8218, 178.4660
516.3040, 177.6335
516.7861, 176.2978
517.2682, 175.3902
517.7503, 175.2222
518.2324, 175.1108
518.7145, 175.0750
519.1967, 175.0193
519.6788, 174.8787
520.1609, 174.6309
520.6430, 174.2508
521.1251, 173.6483
521.6072, 172.8348
522.0894, 172.3498
522.5715, 172.4370
523.0536, 172.4667
523.5357, 172.2330
524.0178, 171.8288
524.4999, 171.3117
524.9821, 170.6788
525.4642, 170.1107
525.9463, 169.7729
526.4284, 169.6410
526.9105, 169.6214
527.3926, 169.7391
527.8748, 169.8593
528.3569, 169.8482
528.8390, 169.7524
529.3211, 169.7346
529.8032, 169.9035
530.2853, 170.0488
530.7675, 170.0578
531.2496, 169.9620
531.7317, 169.7591
532.2138, 169.4443
532.6959, 169.2333
533.1780, 169.4234
533.6602, 170.1068
534.1423, 170.6192
534.6244, 171.0514
535.1065, 171.2488
535.5886, 170.8940
536.0707, 170.3420
536.5529, 170.1529
537.0350, 170.5438
537.5171, 171.2168
537.9992, 171.6976
538.4813, 171.9388
538.9634, 172.2257
539.4456, 172.5049
539.9277, 172.9113
540.4098, 173.6126
540.8919, 174.4649
541.3740, 175.1753
541.8561, 175.5929
542.3383, 175.9015
542.8204, 176.2793
543.3025, 176.7300
543.7846, 177.3194
544.2667, 178.1265
544.7488, 178.9513
545.2310, 179.5545
545.7131, 179.9604
546.1952, 180.3717
546.6773, 180.7892
547.1594, 181.2437
547.6415, 181.7924
548.1237, 182.3934
548.6058, 182.9713
549.0879, 183.4964
549.5700, 183.9355
550.0521, 184.2145
550.5342, 184.2385
551.0164, 184.3935
551.4985, 184.5210
551.9806, 184.9143
552.4627, 186.0548
552.9448, 187.4961
553.4269, 188.3814
553.9091, 188.2798
554.3912, 187.7006
554.8733, 187.4933
555.3554, 187.6880
555.8375, 188.0609
556.3196, 188.8111
556.8018, 189.4669
557.2839, 189.7421
557.7660, 189.6996
558.2481, 189.5124
558.7302, 189.2154
559.2123, 188.8307
559.6945, 188.2818
560.1766, 187.6372
560.6587, 187.2759
561.1408, 187.3925
561.6229, 187.5532
562.1050, 187.1261
562.5872, 185.9669
563.0693, 185.3291
563.5514, 185.7125
564.0335, 186.1335
564.5156, 186.1593
564.9977, 185.8523
565.4799, 185.3550
565.9620, 184.7273
566.4441, 183.9906
566.9262, 183.1553
567.4083, 182.1719
567.8904, 181.2864
568.3726, 180.3389
568.8547, 179.6738
569.3368, 179.6755
569.8189, 179.9720
570.3010, 179.9910
570.7831, 179.5281
571.2653, 178.6982
571.7474, 177.4144
572.2295, 175.7777
572.7116, 174.6139
573.1937, 174.1744
573.6758, 173.9409
574.1580, 173.5186
574.6401, 172.9512
575.1222, 172.4081
575.6043, 171.9333
576.0864, 171.4549
576.5685, 170.9403
577.0507, 170.4027
577.5328, 169.8636
578.0149, 169.3287
578.4970, 168.7830
578.9791, 168.1922
579.4612, 167.5477
579.9434, 167.0847
580.4255, 167.2164
580.9076, 167.0401
581.3897, 166.0959
581.8718, 164.9101
582.3539, 164.0545
582.8361, 163.6527
583.3182, 163.4454
583.8003, 163.1992
584.2824, 162.9226
584.7645, 162.7051
585.2466, 162.5916
585.7288, 162.4006
586.2108, 161.9463
586.6929, 161.4037
587.1750, 161.0604
587.6572, 160.9956
588.1393, 160.8651
588.6214, 160.6055
589.1035, 160.1422
589.5856, 159.1384
590.0677, 157.6781
590.5499, 156.6555
591.0320, 156.7252
591.5141, 157.5518
591.9962, 157.8946
592.4783, 157.4124
592.9604, 156.8951
593.4426, 156.2357
593.9247, 155.6411
594.4068, 155.1744
594.8889, 154.8984
595.3710, 154.9924
595.8531, 155.6905
596.3353, 156.5885
596.8174, 156.6073
597.2995, 155.5501
597.7816, 154.7498
598.2637, 154.6344
598.7458, 154.7329
599.2280, 154.6556
599.7101, 154.4264
600.1922, 154.1753
600.6743, 153.8141
601.1564, 153.5572
601.6385, 153.7732
602.1207, 154.2516
602.6028, 154.3007
603.0849, 153.6665
603.5670, 152.8146
604.0491, 152.3231
604.5313, 152.2191
605.0134, 152.3215
605.4955, 152.9788
605.9776, 153.4147
606.4597, 153.2985
606.9418, 152.8576
607.4240, 152.2889
607.9061, 151.6872
608.3882, 151.2716
608.8703, 151.4550
609.3524, 152.1674
609.8345, 152.4168
610.3167, 152.0403
610.7988, 151.5764
611.2809, 151.1142
611.7630, 150.8059
612.2451, 150.9809
612.7272, 151.8290
613.2094, 152.3907
613.6915, 151.9629
614.1736, 151.1567
614.6557, 150.7308
615.1378, 150.7134
615.6199, 150.7886
616.1021, 150.7691
616.5842, 150.7002
617.0663, 150.7150
617.5484, 150.9116
618.0305, 151.0230
618.5126, 151.1943
618.9948, 151.1549
619.4769, 150.5746
619.9590, 149.6690
620.4411, 148.9182
620.9232, 148.5496
621.4053, 148.4816
621.8875, 148.6519
622.3696, 149.0557
622.8517, 149.4605
623.3338, 149.9198
623.8159, 150.1908
624.2980, 149.9228
624.7802, 149.2861
625.2623, 148.8358
625.7444, 148.7051
626.2265, 148.6801
626.7086, 148.7959
627.1907, 148.9015
627.6729, 148.6906
628.1550, 148.1535
628.6371, 147.6953
629.1192, 147.7122
629.6013, 148.1133
630.0834, 148.1280
630.5656, 147.3930
631.0477, 146.8741
631.5298, 146.6868
632.0119, 146.7550
632.4940, 147.2153
632.9761, 147.9373
633.4583, 148.3823
633.9404, 148.0880
634.4225, 147.4535
634.9046, 147.0833
635.3867, 146.9645
635.8688, 146.9590
636.3510, 147.0424
636.8331, 147.1832
637.3152, 147.3812
637.7973, 147.6525
638.2794, 147.7456
638.7615, 147.4433
639.2437, 147.2017
639.7258, 147.2108
640.2079, 147.3952
640.6900, 147.6855
641.1721, 148.0424
641.6542, 148.3697
642.1364, 148.5753
642.6185, 148.6598
643.1006, 148.5685
643.5827, 148.0931
644.0648, 147.9065
644.5469, 148.6994
645.0291, 149.6037
645.5112, 149.7058
645.9933, 148.9530
646.4754, 148.3755
646.9575, 148.5225
647.4396, 149.0096
647.9218, 149.5550
648.4039, 150.0936
648.8860, 150.4225
649.3681, 150.4522
649.8502, 150.3072
650.3323, 150.1426
650.8145, 149.8892
651.2966, 149.9438
651.7787, 150.5112
652.2608, 151.1348
652.7429, 151.9025
653.2250, 152.5441
653.7072, 152.5721
654.1893, 151.9093
654.6714, 151.3225
655.1535, 151.6669
655.6356, 152.6630
656.1177, 153.3714
656.5999, 153.7422
657.0820, 154.0167
657.5641, 154.2980
658.0462, 154.5538
658.5283, 154.6754
659.0104, 154.5937
659.4926, 154.7358
659.9747, 155.5193
660.4568, 156.2047
660.9389, 156.1283
661.4210, 155.6280
661.9031, 155.4496
662.3853, 155.8804
662.8674, 156.5628
663.3495, 156.9951
663.8316, 157.1560
664.3137, 157.4133
664.7958, 157.8680
665.2780, 158.2320
665.7601, 158.4092
666.2422, 158.4116
666.7243, 158.1451
667.2064, 157.5483
667.6885, 157.1739
668.1707, 157.5096
668.6528, 158.0505
669.1349, 158.2386
669.6170, 158.0898
670.0991, 157.8438
670.5812, 157.6160
671.0634, 157.3185
671.5455, 156.7459
672.0276, 155.7271
672.5097, 155.1026
672.9918, 155.4141
673.4739, 155.5309
673.9561, 154.8809
674.4382, 153.9464
674.9203, 153.4146
675.4024, 153.4567
675.8845, 153.5125
676.3666, 153.0561
676.8488, 152.3122
677.3309, 151.7458
677.8130, 151.3799
678.2951, 151.1688
678.7772, 151.1672
679.2593, 151.1601
679.7415, 150.7156
680.2236, 149.6015
680.7057, 148.7640
681.1878, 148.4310
681.6699, 148.1183
682.1520, 147.5483
682.6342, 146.8744
683.1163, 146.3223
683.5984, 145.9620
684.0805, 145.7738
684.5626, 145.9367
685.0447, 146.3008
685.5269, 145.9544
686.0090, 144.7572
686.4911, 143.5488
686.9732, 142.6149
687.4553, 141.9395
687.9374, 141.4996
688.4196, 141.2796
688.9017, 141.3079
689.3838, 141.9417
689.8659, 142.4758
690.3480, 142.4904
690.8301, 142.1096
691.3123, 141.4748
691.7944, 140.6703
692.2765, 139.9649
692.7586, 139.6631
693.2407, 139.7496
693.7228, 140.0989
694.2050, 140.9687
694.6871, 141.3994
695.1692, 140.7538
695.6513, 139.7250
696.1334, 139.0071
696.6155, 138.6107
697.0977, 138.3790
697.5798, 138.3587
698.0619, 138.3965
698.5440, 138.3912
699.0261, 138.3568
699.5082, 138.3500
699.9904, 138.3806
700.4725, 138.3670
700.9546, 138.2278
701.4367, 137.9640
701.9188, 137.5353
702.4009, 136.7031
702.8831, 136.1864
703.3652, 136.4336
703.8473, 136.8618
704.3294, 137.1216
704.8115, 137.1844
705.2936, 137.0495
705.7758, 136.4472
706.2579, 135.9090
706.7400, 136.0368
707.2221, 136.5328
707.7042, 136.6915
708.1863, 136.3614
708.6685, 135.9497
709.1506, 135.8242
709.6327, 135.9499
710.1148, 136.0860
710.5969, 136.3515
711.0790, 136.4022
711.5612, 135.9733
712.0433, 135.5205
712.5254, 135.4008
713.0075, 135.5103
713.4896, 135.4606
713.9717, 134.9827
714.4539, 134.5231
714.9360, 134.5669
715.4181, 134.9123
715.9002, 135.1504
716.3823, 135.2064
716.8644, 135.0128
717.3466, 134.4556
717.8287, 133.7037
718.3108, 133.3936
718.7929, 133.8249
719.2750, 134.1356
719.7571, 134.2492
720.2393, 134.2947
720.7214, 134.3603
721.2035, 134.3973
721.6856, 134.2910
722.1677, 133.9853
722.6498, 133.6335
723.1320, 133.3229
723.6141, 133.0698
724.0962, 132.9087
724.5783, 132.8407
725.0604, 132.8555
725.5425, 132.9489
726.0247, 133.1233
726.5068, 133.4239
726.9889, 134.0406
727.4710, 134.1976
727.9531, 133.4177
728.4352, 132.7333
728.9174, 132.5177
729.3995, 132.5787
729.8816, 132.7296
730.3637, 132.9168
730.8458, 132.9674
731.3279, 132.5801
731.8101, 132.0711
732.2922, 132.0457
732.7743, 132.4285
733.2564, 132.6337
733.7385, 132.4238
734.2206, 132.1377
734.7028, 132.2417
735.1849, 132.7809
735.6670, 133.0262
736.1491, 132.5955
736.6312, 132.3592
737.1133, 132.8256
737.5955, 133.2722
738.0776, 132.8714
738.5597, 131.7532
739.0418, 130.9306
739.5239, 131.0543
740.0060, 131.5508
740.4882, 131.8699
740.9703, 132.0126
741.4524, 131.8739
741.9345, 131.4357
742.4166, 131.1802
742.8987, 131.5920
743.3809, 132.4532
743.8630, 132.6422
744.3451, 131.5902
744.8272, 130.8997
745.3093, 130.8335
745.7914, 130.9552
746.2736, 131.1132
746.7557, 131.2698
747.2378, 131.3938
747.7199, 131.4796
748.2020, 131.5092
748.6841, 131.4247
749.1663, 131.2943
749.6484, 131.2377
750.1305, 131.2576
750.6126, 131.3178
751.0947, 131.4118
751.5768, 131.4646
752.0590, 131.3306
752.5411, 130.9694
753.0232, 130.5992
753.5053, 129.9559
753.9874, 129.6729
754.4695, 130.3361
754.9517, 131.1943
755.4338, 131.3727
755.9159, 130.7977
756.3980, 130.2309
756.8801, 129.9464
757.3622, 129.8985
757.8444, 130.2264
758.3265, 130.7291
758.8086, 130.8648
759.2907, 130.5185
759.7728, 130.1654
760.2549, 130.3129
760.7371, 130.8264
761.2192, 130.8045
761.7013, 129.9490
762.1834, 129.3640
762.6655, 129.3560
763.1476, 129.5574
763.6298, 129.8911
764.1119, 130.2275
764.5940, 130.1740
765.0761, 129.3919
765.5582, 128.7431
766.0403, 128.7357
766.5225, 129.0190
767.0046, 129.2963
767.4867, 129.4939
767.9688, 129.5065
768.4509, 129.2745
768.9330, 128.9841
769.4152, 129.0116
769.8973, 129.3789
770.3794, 129.4093
770.8615, 128.9290
771.3436, 128.5577
771.8257, 128.6851
772.3079, 128.9820
772.7900, 128.9143
773.2721, 128.4425
773.7542, 128.1442
774.2363, 128.2086
774.7184, 128.3575
775.2006, 128.6087
775.6827, 128.7821
776.1648, 128.5124
776.6469, 127.8437
777.1290, 127.3436
777.6111, 127.5157
778.0933, 128.0623
778.5754, 128.3402
779.0575, 128.3552
779.5396, 128.2280
780.0217, 127.9486
780.5038, 127.6437
780.9860, 127.4008
781.4681, 127.2130
781.9502, 127.0483
782.4323, 126.9091
782.9144, 126.7877
783.3965, 126.6152
783.8787, 126.5289
784.3608, 126.6214
784.8429, 126.8516
785.3250, 127.2051
785.8071, 127.6797
786.2892, 128.0005
786.7714, 127.7948
787.2535, 127.3381
787.7356, 127.1875
788.2177, 127.3075
788.6998, 127.2911
789.1819, 126.9764
789.6641, 126.1457
790.1462, 126.9664
790.6283, 127.4288
791.1104, 127.5521
791.5925, 126.3208
792.0746, 126.8387
792.5568, 126.6556
793.0389, 126.4438
793.5210, 127.2079
794.0031, 126.1736
794.4852, 126.9222
794.9673, 126.9591
795.4495, 127.3218
795.9316, 126.9791
796.4137, 126.8543
796.8958, 127.4350
797.3779, 127.6251
797.8600, 127.2012
798.3422, 126.5227
798.8243, 126.1327
799.3064, 125.9067
799.7885, 125.8448
800.2706, 125.9327
800.7527, 126.2321
801.2349, 126.4844
801.7170, 126.5410
802.1991, 126.5412
802.6812, 126.7180
803.1633, 127.0742
803.6454, 127.2823
804.1276, 127.3476
804.6097, 127.2192
805.0918, 126.6048
805.5739, 125.9729
806.0560, 125.8754
806.5381, 126.2648
807.0203, 126.6910
807.5024, 126.9251
807.9845, 126.9775
808.4666, 126.6735
808.9487, 126.1833
809.4308, 126.3146
809.9130, 127.1725
810.3951, 127.8816
810.8772, 127.9435
811.3593, 127.5365
811.8414, 126.9547
812.3235, 125.9915
812.8057, 125.6287
813.2878, 126.5130
813.7699, 127.1933
814.2520, 127.1306
814.7341, 126.7828
815.2162, 126.6252
815.6984, 126.6796
816.1805, 126.6490
816.6626, 126.2858
817.1447, 125.9259
817.6268, 125.7989
818.1089, 125.8479
818.5911, 126.0567
819.0732, 126.3702
819.5553, 126.5921
820.0374, 126.5936
820.5195, 126.4343
821.0016, 126.2112
821.4838, 125.9217
821.9659, 125.6599
822.4480, 125.4159
822.9301, 125.2649
823.4122, 125.3205
823.8943, 125.4258
824.3765, 125.2886
824.8586, 124.8579
825.3407, 124.4506
825.8228, 123.9677
826.3049, 123.6438
826.7870, 123.6876
827.2692, 123.8438
827.7513, 123.7824
828.2334, 123.5391
828.7155, 123.4897
829.1976, 123.9512
829.6797, 124.4759
830.1619, 124.5288
830.6440, 124.2632
831.1261, 123.9539
831.6082, 123.6717
832.0903, 123.6774
832.5724, 124.1591
833.0546, 124.7995
833.5367, 124.9274
834.0188, 124.4321
834.5009, 124.2314
834.9830, 124.5459
835.4651, 124.7075
835.9473, 124.4067
836.4294, 123.8880
836.9115, 123.3280
837.3936, 122.7459
837.8757, 122.4534
838.3578, 122.8130
838.8400, 123.0765
839.3221, 122.7875
839.8042, 122.3995
840.2863, 122.4326
840.7684, 122.8022
841.2505, 123.0561
841.7327, 122.9615
842.2148, 122.7839
842.6969, 122.9181
843.1790, 123.2089
843.6611, 123.1220
844.1432, 122.6656
844.6254, 122.4282
845.1075, 122.6833
845.5896, 123.0917
846.0717, 123.1945
846.5538, 122.9892
847.0359, 122.8758
847.5181, 122.9272
848.0002, 122.9245
848.4823, 122.6255
848.9644, 122.4492
849.4465, 122.8583
849.9286, 123.6196
850.4108, 124.0207
850.8929, 123.8317
851.3750, 123.5407
851.8571, 123.2562
852.3392, 122.9932
852.8214, 122.7459
853.3035, 122.5343
853.7856, 122.4136
854.2677, 122.3934
854.7498, 122.3789
855.2319, 122.2027
855.7141, 122.0076
856.1962, 122.2215
856.6783, 122.7675
857.1604, 123.0757
857.6425, 122.9938
858.1246, 122.8265
858.6068, 122.8167
859.0889, 122.9326
859.5710, 123.0719
860.0531, 123.3035
860.5352, 123.3627
861.0173, 122.9928
861.4995, 122.7778
861.9816, 123.1739
862.4637, 123.7688
862.9458, 124.0260
863.4279, 123.8946
863.9100, 123.6462
864.3922, 123.1071
864.8743, 122.7405
865.3564, 122.9167
865.8385, 123.3241
866.3206, 123.6241
866.8027, 123.7690
867.2849, 123.8731
867.7670, 124.0328
868.2491, 124.0521
868.7312, 123.4738
869.2133, 122.5801
869.6954, 122.2073
870.1776, 122.3966
870.6597, 122.7922
871.1418, 123.2597
871.6239, 123.6534
872.1060, 123.7403
872.5881, 123.5236
873.0703, 123.4726
873.5524, 123.6333
874.0345, 123.8498
874.5166, 123.5365
874.9987, 124.1389
875.4808, 124.5365
875.9630, 124.7405
876.4451, 124.1703
876.9272, 124.5997
877.4093, 124.6285
877.8914, 124.6409
878.3735, 125.2109
878.8557, 124.7534
879.3378, 125.3146
879.8199, 125.4691
880.3020, 125.8097
880.7841, 125.7473
881.2662, 125.8094
881.7484, 126.2747
882.2305, 126.6345
882.7126, 126.8833
883.1947, 127.0271
883.6768, 127.1135
884.1589, 127.3237
884.6411, 127.7893
885.1232, 128.3426
885.6053, 128.6001
886.0874, 128.5494
886.5695, 128.7385
887.0516, 129.2587
887.5338, 129.6642
888.0159, 129.7136
888.4980, 129.6895
888.9801, 129.9423
889.4622, 130.4719
889.9443, 130.9376
890.4265, 131.3419
890.9086, 131.6794
891.3907, 131.8483
891.8728, 132.0494
892.3549, 132.4903
892.8370, 133.0309
893.3192, 133.3659
893.8013, 133.4039
894.2834, 133.4675
894.7655, 133.7187
895.2476, 134.0562
895.7297, 134.4384
896.2119, 134.8290
896.6940, 135.1572
897.1761, 135.4257
897.6582, 135.7342
898.1403, 136.1765
898.6224, 136.6260
899.1046, 136.8756
899.5867, 136.9526
900.0688, 136.9171
900.5509, 136.7846
901.0330, 136.8929
901.5151, 137.4492
901.9973, 138.0449
902.4794, 137.9920
902.9615, 137.2893
903.4436, 137.3413
903.9257, 138.6562
904.4078, 139.3676
904.8900, 138.7166
905.3721, 137.8430
905.8542, 137.7229
906.3363, 138.0615
906.8184, 137.9493
907.3005, 137.2315
907.7827, 136.4141
908.2648, 135.2065
908.7469, 134.3078
909.2290, 134.3748
909.7111, 134.7593
910.1932, 134.6452
910.6754, 133.9597
911.1575, 133.1630
911.6396, 132.3254
912.1217, 131.6851
912.6038, 131.9705
913.0859, 131.6262
913.5681, 131.2375
914.0502, 130.8103
914.5323, 130.0543
915.0144, 129.8562
915.4965, 129.5162
915.9786, 129.2261
916.4607, 129.1933
916.9428, 129.2147
917.4249, 129.1406
917.9070, 128.9761
918.3892, 128.4502
918.8713, 128.3909
919.3534, 128.1447
919.8355, 127.8907
920.3176, 127.8970
920.7997, 127.4238
921.2819, 127.4260
921.7640, 127.2384
922.2461, 127.1376
922.7282, 126.3454
923.2103, 126.5621
923.6924, 126.6832
924.1746, 126.7139
924.6567, 126.3834
925.1388, 126.5193
925.6209, 126.4683
926.1030, 126.4096
926.5851, 126.6112
927.0673, 126.3332
927.5494, 126.5306
928.0315, 126.5383
928.5136, 126.6328
928.9957, 126.5392
929.4778, 126.5037
929.9600, 126.6564
930.4421, 126.6696
930.9242, 126.8063
931.4063, 127.2486
931.8884, 127.8988
932.3705, 128.2638
932.8527, 128.0306
933.3348, 127.6849
933.8169, 127.9460
934.2990, 128.5724
934.7811, 128.8204
935.2632, 128.7372
935.7454, 128.9728
936.2275, 129.7431
936.7096, 130.4523
937.1917, 130.4852
937.6738, 130.0323
938.1559, 129.7539
938.6381, 129.6162
939.1202, 130.0277
939.6023, 131.2188
940.0844, 132.3278
940.5665, 132.9164
941.0486, 133.1744
941.5308, 133.3514
942.0129, 133.4239
942.4950, 133.6757
942.9771, 134.0442
943.4592, 134.6934
943.9413, 135.9698
944.4235, 137.2060
944.9056, 137.8740
945.3877, 138.2261
945.8698, 138.8592
946.3519, 139.9390
946.8340, 140.8673
947.3162, 141.1877
947.7983, 141.6694
948.2804, 142.8923
948.7625, 144.3733
949.2446, 145.5580
949.7267, 146.4370
950.2089, 147.2985
950.6910, 148.2382
951.1731, 149.3007
951.6552, 150.5713
952.1373, 151.9473
952.6194, 153.4055
953.1016, 154.8350
953.5837, 155.8805
954.0658, 156.5236
954.5479, 157.4101
955.0300, 159.1376
955.5121, 161.3044
955.9943, 163.2312
956.4764, 164.9549
956.9585, 166.6367
957.4406, 168.2942
957.9227, 169.8310
958.4048, 171.2203
958.8870, 172.3117
959.3691, 172.8047
959.8512, 172.8224
960.3333, 173.3974
960.8154, 174.5918
961.2975, 175.9263
961.7797, 177.4212
962.2618, 178.6457
962.7439, 179.1729
963.2260, 179.4045
963.7081, 180.2270
964.1902, 181.7886
964.6724, 183.1660
965.1545, 184.3222
965.6366, 185.3442
966.1187, 185.9904
966.6008, 186.7587
967.0829, 188.1801
967.5651, 190.0251
968.0472, 191.5465
968.5293, 192.4762
969.0114, 193.6936
969.4935, 195.8198
969.9756, 197.6744
970.4578, 198.4768
970.9399, 198.9271
971.4220, 199.8587
971.9041, 201.2260
972.3862, 202.3606
972.8683, 202.8697
973.3505, 203.4763
973.8326, 204.6676
974.3147, 206.0159
974.7968, 207.3634
975.2789, 208.4911
975.7610, 208.9592
976.2432, 208.7685
976.7253, 208.5700
977.2074, 208.8415
977.6895, 209.1868
978.1716, 209.3671
978.6537, 209.2268
979.1359, 208.4207
979.6180, 207.0260
980.1001, 205.3792
980.5822, 203.6147
981.0643, 201.7618
981.5464, 199.8531
982.0286, 197.8855
982.5107, 195.8524
982.9928, 193.7856
983.4749, 191.8706
983.9570, 190.1226
984.4391, 188.2242
984.9213, 186.0056
985.4034, 183.6685
985.8855, 181.5478
986.3676, 179.5801
986.8497, 177.1302
987.3318, 174.1006
987.8140, 171.8087
988.2961, 170.6201
988.7782, 169.7028
989.2603, 168.5747
989.7424, 167.2397
990.2245, 165.6509
990.7067, 163.7468
991.1888, 162.0748
991.6709, 160.6458
992.1530, 159.3921
992.6351, 158.2789
993.1172, 157.3622
993.5994, 156.7644
994.0815, 156.3700
994.5636, 155.8402
995.0457, 155.1846
995.5278, 154.3640
996.0099, 153.0854
996.4921, 152.0170
996.9742, 151.3790
997.4563, 150.9716
997.9384, 150.6857
998.4205, 150.4872
998.9026, 150.2946
999.3848, 150.1192
999.8669, 149.8973
1000.349, 149.5459
1000.831, 149.2290
1001.313, 149.1639
1001.795, 149.0791
1002.277, 148.5161
1002.760, 147.6171
1003.242, 147.1364
1003.724, 147.5181
1004.206, 147.8296
1004.688, 147.5924
1005.170, 147.1716
1005.652, 146.7765
1006.134, 146.4232
1006.617, 146.0628
1007.099, 145.7203
1007.581, 145.5497
1008.063, 145.6770
1008.545, 145.8715
1009.027, 146.0900
1009.509, 146.1643
1009.991, 145.6677
1010.473, 144.9288
1010.956, 144.7841
1011.438, 145.3299
1011.920, 145.7670
1012.402, 145.5326
1012.884, 144.9899
1013.366, 144.6594
1013.848, 144.3040
1014.330, 143.4264
1014.813, 142.0919
1015.295, 140.5640
1015.777, 138.9665
1016.259, 137.6119
1016.741, 136.8211
1017.223, 136.3131
1017.705, 135.7152
1018.187, 134.9458
1018.669, 133.5403
1019.152, 131.5846
1019.634, 129.9983
1020.116, 129.1157
1020.598, 128.4361
1021.080, 127.4519
1021.562, 126.3075
1022.044, 125.4685
1022.526, 124.8955
1023.008, 124.1672
1023.491, 123.2405
1023.973, 122.3561
1024.455, 121.6191
1024.937, 120.9052
1025.419, 120.0246
1025.901, 119.0926
1026.383, 118.7349
1026.865, 119.0079
1027.348, 118.9624
1027.830, 118.4678
1028.312, 117.8505
1028.794, 117.2097
1029.276, 116.6727
1029.758, 116.4340
1030.240, 116.4406
1030.722, 116.2598
1031.204, 115.8170
1031.687, 115.5467
1032.169, 115.5599
1032.651, 115.5418
1033.133, 115.3439
1033.615, 115.0433
1034.097, 114.7095
1034.579, 114.3549
1035.061, 114.1905
1035.544, 114.2780
1036.026, 114.3978
1036.508, 114.5383
1036.990, 114.6967
1037.472, 114.8612
1037.954, 115.0566
1038.436, 115.3678
1038.918, 115.7818
1039.401, 115.9132
1039.883, 115.5117
1040.365, 115.2991
1040.847, 115.5376
1041.329, 115.6733
1041.811, 115.1594
1042.293, 114.6179
1042.775, 115.0442
1043.257, 116.3989
1043.740, 117.1254
1044.222, 116.6368
1044.704, 116.4292
1045.186, 116.7765
1045.668, 117.1888
1046.150, 117.5015
1046.632, 117.7325
1047.114, 117.8987
1047.596, 118.0025
1048.079, 118.0620
1048.561, 117.7682
1049.043, 117.9037
1049.525, 118.9185
1050.007, 119.9684
1050.489, 120.6110
1050.971, 121.0948
1051.453, 121.8179
1051.936, 122.7347
1052.418, 123.2850
1052.900, 123.0599
1053.382, 123.0168
1053.864, 123.4917
1054.346, 124.0194
1054.828, 124.2904
1055.310, 124.5257
1055.792, 125.0144
1056.275, 125.7432
1056.757, 126.4964
1057.239, 127.4146
1057.721, 127.9613
1058.203, 127.6065
1058.685, 127.2799
1059.167, 127.6077
1059.649, 128.1666
1060.131, 128.4124
1060.614, 128.3790
1061.096, 128.5038
1061.578, 129.0237
1062.060, 129.3741
1062.542, 129.2718
1063.024, 129.0499
1063.506, 128.9383
1063.988, 128.7804
1064.471, 128.2374
1064.953, 127.4625
1065.435, 127.1125
1065.917, 127.5096
1066.399, 127.8027
1066.881, 127.6217
1067.363, 127.2808
1067.845, 126.8528
1068.328, 126.4442
1068.810, 126.2369
1069.292, 126.1430
1069.774, 125.8410
1070.256, 125.2004
1070.738, 124.6027
1071.220, 124.3144
1071.702, 124.0012
1072.184, 123.3015
1072.667, 122.6118
1073.149, 122.5356
1073.631, 122.8082
1074.113, 122.5605
1074.595, 121.4980
1075.077, 120.7587
1075.559, 121.1182
1076.041, 121.6243
1076.523, 121.9051
1077.006, 121.9414
1077.488, 121.5098
1077.970, 120.8930
1078.452, 120.7180
1078.934, 121.1313
1079.416, 121.5479
1079.898, 121.7747
1080.380, 121.8580
1080.862, 121.6639
1081.345, 121.4816
1081.827, 121.5508
1082.309, 121.8371
1082.791, 122.2176
1083.273, 122.6776
1083.755, 123.3457
1084.237, 124.7473
1084.719, 125.7101
1085.202, 124.9738
1085.684, 124.2593
1086.166, 125.3243
1086.648, 127.1688
1087.130, 128.1662
1087.612, 128.1183
1088.094, 127.7873
1088.576, 127.1449
1089.058, 126.8807
1089.541, 127.5876
1090.023, 128.4653
1090.505, 128.9124
1090.987, 129.2097
1091.469, 129.8183
1091.951, 130.7044
1092.433, 131.4497
1092.915, 131.8828
1093.397, 132.2852
1093.880, 132.8582
1094.362, 133.3226
1094.844, 133.3452
1095.326, 133.2932
1095.808, 133.6820
1096.290, 134.3540
1096.772, 134.6741
1097.254, 134.3917
1097.737, 134.2499
1098.219, 134.6690
1098.701, 135.0658
1099.183, 135.1983
1099.665, 135.1745
1100.147, 135.0736
1100.629, 134.9085
1101.111, 134.6653
1101.594, 134.3334
1102.076, 134.0358
1102.558, 134.0133
1103.040, 133.7433
1103.522, 132.6735
1104.004, 131.6830
1104.486, 131.5086
1104.968, 131.7743
1105.450, 131.8808
1105.932, 131.7632
1106.415, 131.5237
1106.897, 131.0736
1107.379, 130.6619
1107.861, 130.5005
1108.343, 130.1996
1108.825, 129.4320
1109.307, 128.4947
1109.789, 127.6674
1110.272, 126.9942
1110.754, 126.6154
1111.236, 126.8696
1111.718, 126.7777
1112.200, 125.9517
1112.682, 125.1541
1113.164, 124.7174
1113.646, 124.3570
1114.129, 123.8085
1114.611, 123.1206
1115.093, 122.4598
1115.575, 121.7868
1116.057, 121.2700
1116.539, 121.0987
1117.021, 120.7961
1117.503, 120.2215
1117.985, 119.5415
1118.468, 118.7363
1118.950, 117.9760
1119.432, 117.6623
1119.914, 117.8633
1120.396, 117.6594
1120.878, 116.8468
1121.360, 116.0601
1121.842, 115.3592
1122.324, 114.7174
1122.807, 114.0980
1123.289, 113.5679
1123.771, 113.2346
1124.253, 113.0702
1124.735, 112.8284
1125.217, 112.4831
1125.699, 112.1645
1126.181, 111.9391
1126.664, 111.4954
1127.146, 110.5674
1127.628, 109.8345
1128.110, 110.0012
1128.592, 110.7333
1129.074, 111.0666
1129.556, 110.9786
1130.038, 110.7151
1130.521, 110.2692
1131.003, 109.6134
1131.485, 108.6675
1131.967, 108.0048
1132.449, 108.0207
1132.931, 108.4232
1133.413, 108.7955
1133.895, 109.1071
1134.377, 109.1347
1134.859, 108.8833
1135.342, 108.4387
1135.824, 107.8194
1136.306, 107.4659
1136.788, 107.5765
1137.270, 107.8098
1137.752, 107.8095
1138.234, 107.6639
1138.716, 107.5811
1139.199, 107.5455
1139.681, 107.4621
1140.163, 107.3496
1140.645, 107.3436
1141.127, 107.4796
1141.609, 107.7371
1142.091, 108.1276
1142.573, 108.4530
1143.056, 108.3675
1143.538, 108.0556
1144.020, 107.7862
1144.502, 107.6322
1144.984, 107.8578
1145.466, 108.3823
1145.948, 108.7417
1146.430, 108.7395
1146.912, 108.5916
1147.395, 108.3666
1147.877, 108.2320
1148.359, 108.4694
1148.841, 108.8526
1149.323, 109.1252
1149.805, 109.2512
1150.287, 109.1590
1150.769, 108.8861
1151.251, 108.7327
1151.734, 108.8473
1152.216, 109.1416
1152.698, 109.8133
1153.180, 110.3747
1153.662, 110.2801
1154.144, 109.9177
1154.626, 109.7688
1155.108, 109.8540
1155.591, 110.0111
1156.073, 110.2053
1156.555, 110.4202
1157.037, 110.6315
1157.519, 110.8870
1158.001, 111.7840
1158.483, 112.1549
1158.965, 112.4304
1159.448, 112.6171
1159.930, 112.3760
1160.412, 112.7419
1160.894, 112.8981
1161.376, 113.0687
1161.858, 113.5886
1162.340, 113.5330
1162.822, 114.0957
1163.304, 114.4450
1163.786, 114.9270
1164.269, 115.1986
1164.751, 115.5660
1165.233, 115.1921
1165.715, 115.2007
1166.197, 115.5035
1166.679, 116.2256
1167.161, 116.8935
1167.643, 117.4141
1168.126, 117.8632
1168.608, 118.2640
1169.090, 118.6737
1169.572, 119.1969
1170.054, 119.8075
1170.536, 120.2711
1171.018, 120.5813
1171.500, 120.9278
1171.983, 121.3302
1172.465, 121.6483
1172.947, 121.8286
1173.429, 122.0333
1173.911, 122.3962
1174.393, 122.8776
1174.875, 123.5388
1175.357, 124.2403
1175.839, 124.2557
1176.322, 123.8167
1176.804, 124.0603
1177.286, 125.0331
1177.768, 125.7538
1178.250, 125.7818
1178.732, 125.6027
1179.214, 125.6425
1179.696, 125.7813
1180.178, 125.8630
1180.661, 125.9335
1181.143, 126.1505
1181.625, 126.3876
1182.107, 126.2469
1182.589, 125.7625
1183.071, 125.5802
1183.553, 126.1441
1184.035, 126.4936
1184.518, 125.7617
1185.000, 124.9028
1185.482, 124.6284
1185.964, 124.5476
1186.446, 124.3466
1186.928, 123.9394
1187.410, 123.1746
1187.892, 122.0198
1188.375, 120.9992
1188.857, 120.2891
1189.339, 119.6481
1189.821, 119.0452
1190.303, 118.4743
1190.785, 118.0323
1191.267, 117.5346
1191.749, 116.7595
1192.231, 115.7648
1192.714, 114.7515
1193.196, 113.6817
1193.678, 112.7304
1194.160, 111.8846
1194.642, 111.2253
1195.124, 110.8704
1195.606, 110.3921
1196.088, 109.4980
1196.570, 108.4860
1197.053, 107.7736
1197.535, 107.3069
1198.017, 106.7890
1198.499, 106.2255
1198.981, 105.8997
1199.463, 105.8138
1199.945, 105.6217
1200.427, 105.2224
1200.910, 104.6908
1201.392, 104.0525
1201.874, 103.5172
1202.356, 103.5196
1202.838, 103.7592
1203.320, 103.5900
1203.802, 103.1439
1204.284, 102.7392
1204.766, 102.3601
1205.249, 101.7055
1205.731, 100.7543
1206.213, 100.1707
1206.695, 100.5392
1207.177, 100.9795
1207.659, 100.7645
1208.141, 100.3823
1208.623, 100.2636
1209.105, 100.2360
1209.588, 100.0667
1210.070, 99.76183
1210.552, 99.40683
1211.034, 99.00745
1211.516, 98.68355
1211.998, 98.40626
1212.480, 98.28711
1212.962, 98.59715
1213.445, 98.78687
1213.927, 98.44221
1214.409, 97.93031
1214.891, 97.64411
1215.373, 97.53133
1215.855, 97.32420
1216.337, 96.89372
1216.819, 97.02400
1217.302, 97.97911
1217.784, 98.43069
1218.266, 98.03970
1218.748, 97.38633
1219.230, 96.72485
1219.712, 96.27039
1220.194, 96.34019
1220.676, 96.76994
1221.158, 97.11086
1221.641, 97.33347
1222.123, 97.15508
1222.605, 96.67754
1223.087, 96.57012
1223.569, 96.90964
1224.051, 97.00667
1224.533, 96.46391
1225.015, 95.81363
1225.497, 95.57325
1225.980, 95.53242
1226.462, 95.50444
1226.944, 95.47798
1227.426, 95.40464
1227.908, 95.33647
1228.390, 95.41956
1228.872, 95.63887
1229.354, 95.75119
1229.837, 95.64760
1230.319, 95.50602
1230.801, 95.31674
1231.283, 95.19324
1231.765, 95.24545
1232.247, 95.32170
1232.729, 95.24740
1233.211, 95.14669
1233.693, 95.30265
1234.176, 95.69826
1234.658, 95.79134
1235.140, 95.43681
1235.622, 95.23070
1236.104, 95.23988
1236.586, 95.24783
1237.068, 95.19408
1237.550, 95.10286
1238.032, 94.98084
1238.515, 94.88209
1238.997, 94.92874
1239.479, 95.05727
1239.961, 94.93714
1240.443, 94.66203
1240.925, 94.71864
1241.407, 95.06513
1241.889, 95.34511
1242.372, 95.42829
1242.854, 95.18687
1243.336, 94.46873
1243.818, 93.86535
1244.300, 94.10120
1244.782, 94.53669
1245.264, 94.52098
1245.746, 94.36132
1246.229, 94.47919
1246.711, 94.75032
1247.193, 94.84890
1247.675, 94.73428
1248.157, 94.60973
1248.639, 94.48404
1249.121, 94.43410
1249.603, 94.59417
1250.085, 94.66246
1250.568, 94.44428
1251.050, 94.23341
1251.532, 94.25060
1252.014, 94.36105
1252.496, 94.31116
1252.978, 94.13416
1253.460, 94.23882
1253.942, 94.65981
1254.424, 95.01345
1254.907, 95.28034
1255.389, 95.25063
1255.871, 94.87365
1256.353, 94.61951
1256.835, 94.80166
1257.317, 95.08605
1257.799, 95.03728
1258.281, 94.81322
1258.764, 94.65170
1259.246, 94.55101
1259.728, 94.55882
1260.210, 94.60582
1260.692, 94.49041
1261.174, 94.23401
1261.656, 94.14310
1262.138, 94.38564
1262.620, 94.54701
1263.103, 94.16843
1263.585, 94.02700
1264.067, 94.90691
1264.549, 95.67654
1265.031, 95.27364
1265.513, 94.45438
1265.995, 94.35729
1266.477, 94.83323
1266.959, 95.05867
1267.442, 94.96130
1267.924, 94.91502
1268.406, 94.93920
1268.888, 94.90109
1269.370, 94.75559
1269.852, 94.74685
1270.334, 95.02071
1270.816, 95.19971
1271.299, 94.81027
1271.781, 94.25558
1272.263, 94.54942
1272.745, 95.22958
1273.227, 95.00308
1273.709, 94.25651
1274.191, 94.08363
1274.673, 94.47343
1275.156, 94.71728
1275.638, 94.59080
1276.120, 94.51440
1276.602, 94.90334
1277.084, 95.06579
1277.566, 94.27599
1278.048, 93.61316
1278.530, 93.91721
1279.012, 94.49377
1279.495, 94.58531
1279.977, 94.41759
1280.459, 94.65273
1280.941, 95.29827
1281.423, 95.53846
1281.905, 95.21252
1282.387, 95.18047
1282.869, 95.58824
1283.351, 95.72779
1283.834, 95.36366
1284.316, 95.02016
1284.798, 95.06902
1285.280, 95.17319
1285.762, 94.93113
1286.244, 94.38764
##END=



