##NAMES=Jahnsite-(CaMnMn)
##RRUFFID=R080072
##IDEAL CHEMISTRY=CaMn^2+^Mn^2+^_2_Fe^3+^_2_(PO_4_)_4_(OH)_2_&#183;8H_2_O
##LOCALITY=Tip Top mine, Custer Country, South Dakota, USA
##OWNER=RRUFF
##SOURCE=Tom Loomis
##DESCRIPTION=Pale yellow blocky to thick tabular crystals associated with scholzite, R080068
##STATUS=The identification of this mineral has been confirmed only by single crystal X-ray diffraction.
##URL=rruff.info/R080072
91.87140, 0.0000000E+00
92.35352, 19.21389
92.83563, 18.12984
93.31775, 17.66844
93.79987, 18.04849
94.28198, 19.08042
94.76410, 20.20837
95.24622, 21.25836
95.72833, 22.40894
96.21045, 24.05015
96.69257, 26.20443
97.17468, 28.59706
97.65680, 30.97160
98.13892, 33.33989
98.62103, 35.79069
99.10315, 38.14598
99.58527, 40.53221
100.0674, 43.76283
100.5495, 47.90756
101.0316, 52.68496
101.5137, 57.66017
101.9958, 62.79147
102.4780, 68.37998
102.9601, 74.47289
103.4422, 81.06506
103.9243, 88.17175
104.4064, 95.89330
104.8885, 104.1015
105.3707, 112.8371
105.8528, 122.4622
106.3349, 132.0014
106.8170, 141.0211
107.2991, 149.3486
107.7813, 157.4898
108.2634, 165.5595
108.7455, 173.4985
109.2276, 180.8186
109.7097, 186.8129
110.1918, 192.7674
110.6740, 199.2244
111.1561, 206.2779
111.6382, 213.7443
112.1203, 221.3831
112.6024, 229.3586
113.0845, 238.2502
113.5667, 248.4671
114.0488, 259.4136
114.5309, 270.8110
115.0130, 282.7393
115.4951, 294.8698
115.9772, 307.2281
116.4594, 319.9105
116.9415, 332.5654
117.4236, 345.2900
117.9057, 357.8633
118.3878, 369.9965
118.8699, 381.5631
119.3521, 392.8131
119.8342, 404.1295
120.3163, 415.5771
120.7984, 426.5923
121.2805, 436.5822
121.7626, 445.9224
122.2448, 455.2548
122.7269, 465.8380
123.2090, 476.0960
123.6911, 484.1516
124.1732, 489.4261
124.6553, 494.0938
125.1375, 499.7773
125.6196, 506.4170
126.1017, 513.8228
126.5838, 522.5526
127.0659, 531.8801
127.5480, 540.3710
128.0302, 547.5499
128.5123, 554.5290
128.9944, 562.8987
129.4765, 572.5655
129.9586, 582.6517
130.4407, 592.5215
130.9229, 602.2796
131.4050, 612.4775
131.8871, 623.1351
132.3692, 634.0996
132.8513, 644.8516
133.3334, 654.3589
133.8156, 660.7330
134.2977, 664.7933
134.7798, 668.8436
135.2619, 672.5344
135.7440, 675.7050
136.2261, 678.4679
136.7083, 681.5712
137.1904, 685.0641
137.6725, 688.8235
138.1546, 693.0085
138.6367, 697.8603
139.1188, 701.9910
139.6010, 704.9938
140.0831, 706.8666
140.5652, 708.6364
141.0473, 710.2386
141.5294, 711.8440
142.0115, 713.6006
142.4937, 715.4125
142.9758, 717.5769
143.4579, 720.2328
143.9400, 723.4313
144.4221, 726.6761
144.9042, 729.8494
145.3864, 733.0999
145.8685, 736.6318
146.3506, 740.6234
146.8327, 744.6590
147.3148, 748.6862
147.7969, 752.8303
148.2791, 756.6352
148.7612, 760.1691
149.2433, 763.3638
149.7254, 766.0878
150.2075, 767.4316
150.6896, 769.1006
151.1718, 771.7359
151.6539, 776.2765
152.1360, 780.4262
152.6181, 784.1022
153.1002, 787.3626
153.5823, 790.3546
154.0645, 792.9678
154.5466, 795.4337
155.0287, 797.8629
155.5108, 800.7791
155.9929, 803.0724
156.4750, 804.1489
156.9572, 804.3174
157.4393, 804.8326
157.9214, 805.8221
158.4035, 807.3127
158.8856, 809.3212
159.3677, 812.6894
159.8499, 815.7480
160.3320, 817.7399
160.8141, 818.8615
161.2962, 820.2890
161.7783, 822.6370
162.2604, 825.3708
162.7426, 828.0490
163.2247, 830.6276
163.7068, 833.0560
164.1889, 835.2009
164.6710, 837.0734
165.1531, 839.0985
165.6353, 841.8045
166.1174, 844.6549
166.5995, 847.0706
167.0816, 848.2770
167.5637, 849.3898
168.0458, 851.1371
168.5280, 853.5084
169.0101, 856.0944
169.4922, 858.8665
169.9743, 861.6182
170.4564, 864.0442
170.9385, 865.5078
171.4207, 866.8963
171.9028, 869.1256
172.3849, 872.2537
172.8670, 875.4664
173.3491, 878.1495
173.8312, 880.4940
174.3134, 882.8726
174.7955, 885.9372
175.2776, 888.9003
175.7597, 890.5597
176.2418, 890.7363
176.7239, 890.7550
177.2061, 891.9058
177.6882, 893.9148
178.1703, 896.0022
178.6524, 898.1002
179.1345, 899.9861
179.6166, 901.1194
180.0988, 901.3806
180.5809, 901.4329
181.0630, 902.2720
181.5451, 903.6486
182.0272, 904.5301
182.5093, 903.9163
182.9915, 902.4362
183.4736, 901.7160
183.9557, 901.9808
184.4378, 902.5408
184.9199, 902.6750
185.4020, 902.3626
185.8842, 901.4852
186.3663, 899.7459
186.8484, 897.3394
187.3305, 895.0721
187.8126, 893.0383
188.2947, 891.0148
188.7769, 888.4859
189.2590, 885.4866
189.7411, 882.6980
190.2232, 880.5605
190.7053, 879.0012
191.1874, 877.4332
191.6696, 875.7274
192.1517, 874.1279
192.6338, 872.9728
193.1159, 872.2560
193.5980, 872.1456
194.0801, 873.1066
194.5623, 875.0251
195.0444, 876.2459
195.5265, 876.4046
196.0086, 876.0785
196.4907, 876.6172
196.9728, 878.1270
197.4550, 879.5625
197.9371, 879.8244
198.4192, 878.8677
198.9013, 879.6035
199.3834, 882.7411
199.8655, 887.2175
200.3477, 890.4678
200.8298, 892.2850
201.3119, 893.7709
201.7940, 895.7324
202.2761, 898.2700
202.7582, 900.1332
203.2404, 901.0257
203.7225, 901.3300
204.2046, 902.1591
204.6867, 903.6725
205.1688, 905.1943
205.6509, 906.3828
206.1331, 907.2834
206.6152, 907.6442
207.0973, 907.4403
207.5794, 906.6898
208.0615, 905.2357
208.5436, 902.7158
209.0258, 900.4358
209.5079, 899.2309
209.9900, 899.2286
210.4721, 899.8619
210.9542, 901.7142
211.4363, 903.9491
211.9185, 903.4111
212.4006, 899.0683
212.8827, 894.1340
213.3648, 890.6012
213.8469, 888.6615
214.3290, 887.2821
214.8112, 886.6564
215.2933, 886.4719
215.7754, 885.4631
216.2575, 883.1392
216.7396, 880.8977
217.2217, 879.6018
217.7039, 879.4821
218.1860, 879.6312
218.6681, 880.1363
219.1502, 880.8471
219.6323, 881.1649
220.1144, 880.8990
220.5966, 880.5790
221.0787, 880.5461
221.5608, 880.9879
222.0429, 881.1896
222.5250, 880.8528
223.0071, 880.2860
223.4893, 880.6895
223.9714, 882.5197
224.4535, 884.6270
224.9356, 886.3987
225.4177, 887.6097
225.8998, 889.0381
226.3820, 890.8384
226.8641, 892.8738
227.3462, 894.5302
227.8283, 895.3711
228.3104, 896.4799
228.7925, 898.5106
229.2747, 902.1854
229.7568, 905.1492
230.2389, 907.0410
230.7210, 908.2275
231.2031, 909.9373
231.6852, 912.8466
232.1674, 915.2651
232.6495, 916.1713
233.1316, 914.4702
233.6137, 913.7229
234.0958, 914.2686
234.5779, 915.7712
235.0601, 917.3398
235.5422, 919.1780
236.0243, 920.8219
236.5064, 921.9762
236.9885, 922.1120
237.4706, 922.9762
237.9528, 924.9135
238.4349, 927.4782
238.9170, 929.5119
239.3991, 930.6813
239.8812, 931.8163
240.3633, 933.3622
240.8455, 935.8202
241.3276, 937.3381
241.8097, 937.1447
242.2918, 936.2778
242.7739, 937.1761
243.2560, 941.0929
243.7382, 944.8405
244.2203, 947.1133
244.7024, 947.2395
245.1845, 947.7535
245.6666, 948.5019
246.1487, 949.7140
246.6309, 951.9012
247.1130, 955.4139
247.5951, 959.3476
248.0772, 963.4023
248.5593, 967.6497
249.0414, 971.8513
249.5236, 976.1526
250.0057, 980.2995
250.4878, 983.8707
250.9699, 986.4424
251.4520, 989.1859
251.9341, 992.4004
252.4163, 996.1002
252.8984, 1000.297
253.3805, 1005.225
253.8626, 1010.508
254.3447, 1015.397
254.8268, 1019.638
255.3090, 1024.170
255.7911, 1029.397
256.2732, 1035.527
256.7553, 1040.774
257.2374, 1044.751
257.7195, 1048.250
258.2017, 1052.200
258.6838, 1056.633
259.1659, 1061.541
259.6480, 1067.111
260.1301, 1073.330
260.6122, 1079.341
261.0944, 1085.206
261.5765, 1090.823
262.0586, 1095.993
262.5407, 1100.381
263.0228, 1105.228
263.5049, 1110.789
263.9871, 1117.099
264.4692, 1123.729
264.9513, 1131.078
265.4334, 1138.214
265.9155, 1144.204
266.3976, 1148.434
266.8798, 1153.251
267.3619, 1159.188
267.8440, 1166.119
268.3261, 1172.562
268.8082, 1178.338
269.2903, 1183.973
269.7725, 1190.150
270.2546, 1197.233
270.7367, 1202.750
271.2188, 1205.961
271.7009, 1207.354
272.1830, 1209.146
272.6652, 1211.608
273.1473, 1213.674
273.6294, 1214.694
274.1115, 1214.633
274.5936, 1213.612
275.0757, 1211.607
275.5579, 1208.664
276.0400, 1205.000
276.5221, 1200.643
277.0042, 1195.415
277.4863, 1188.870
277.9684, 1180.867
278.4506, 1173.566
278.9327, 1167.472
279.4148, 1161.705
279.8969, 1154.187
280.3790, 1144.704
280.8611, 1135.049
281.3433, 1126.070
281.8254, 1117.736
282.3075, 1109.908
282.7896, 1102.723
283.2717, 1095.640
283.7538, 1087.388
284.2360, 1077.890
284.7181, 1069.286
285.2002, 1063.258
285.6823, 1059.381
286.1644, 1053.406
286.6465, 1044.944
287.1287, 1035.982
287.6108, 1029.207
288.0929, 1024.512
288.5750, 1020.089
289.0571, 1015.247
289.5392, 1010.115
290.0214, 1005.401
290.5035, 1001.170
290.9856, 996.9869
291.4677, 992.3087
291.9498, 987.2174
292.4319, 982.3482
292.9141, 977.7352
293.3962, 973.5149
293.8783, 970.0833
294.3604, 967.4697
294.8425, 965.2654
295.3246, 963.4537
295.8068, 961.8130
296.2889, 959.4799
296.7710, 955.7148
297.2531, 951.7733
297.7352, 950.1472
298.2173, 950.6088
298.6995, 951.1614
299.1816, 950.3581
299.6637, 948.5944
300.1458, 946.6422
300.6279, 944.4934
301.1100, 942.4487
301.5922, 940.9413
302.0743, 939.8840
302.5564, 938.9651
303.0385, 937.9466
303.5206, 936.9416
304.0027, 936.2675
304.4849, 936.1317
304.9670, 935.6185
305.4491, 933.6193
305.9312, 930.5538
306.4133, 927.4286
306.8954, 924.5125
307.3776, 921.9244
307.8597, 920.1734
308.3418, 919.3983
308.8239, 918.1182
309.3060, 914.8375
309.7881, 910.3850
310.2703, 906.1713
310.7524, 902.7505
311.2345, 899.7458
311.7166, 897.1071
312.1987, 894.8065
312.6808, 892.3434
313.1630, 889.6211
313.6451, 886.4822
314.1272, 882.7197
314.6093, 877.2814
315.0914, 872.1581
315.5735, 868.6239
316.0557, 866.4113
316.5378, 864.1306
317.0199, 861.0197
317.5020, 857.7233
317.9841, 854.6498
318.4662, 851.9090
318.9484, 849.4819
319.4305, 847.9828
319.9126, 846.8656
320.3947, 844.6907
320.8768, 839.1876
321.3589, 833.9313
321.8411, 830.8546
322.3232, 831.1186
322.8053, 831.3859
323.2874, 831.3887
323.7695, 830.9457
324.2516, 829.7701
324.7338, 826.1456
325.2159, 823.3147
325.6980, 822.5491
326.1801, 824.4304
326.6622, 825.9825
327.1443, 826.7345
327.6265, 827.1906
328.1086, 827.8611
328.5907, 828.9794
329.0728, 830.0624
329.5549, 831.0109
330.0370, 831.8293
330.5192, 832.7477
331.0013, 833.8443
331.4834, 834.9872
331.9655, 836.1100
332.4476, 837.3028
332.9297, 838.3230
333.4119, 839.1276
333.8940, 839.7327
334.3761, 840.1642
334.8582, 840.2314
335.3403, 840.3926
335.8224, 840.9719
336.3046, 842.2929
336.7867, 843.0120
337.2688, 842.9747
337.7509, 842.4160
338.2330, 841.8309
338.7151, 841.2978
339.1973, 840.5081
339.6794, 839.3095
340.1615, 837.7068
340.6436, 835.9958
341.1257, 834.2498
341.6078, 832.3183
342.0900, 829.9717
342.5721, 827.2469
343.0542, 824.3428
343.5363, 821.3516
344.0184, 818.2744
344.5005, 814.9664
344.9827, 811.4393
345.4648, 807.8245
345.9469, 804.2355
346.4290, 800.6369
346.9111, 797.2148
347.3932, 794.0620
347.8754, 790.9445
348.3575, 787.3445
348.8396, 783.3167
349.3217, 779.4288
349.8038, 776.2125
350.2859, 773.4298
350.7681, 770.5111
351.2502, 767.3585
351.7323, 764.1497
352.2144, 761.3234
352.6965, 758.6461
353.1786, 755.4957
353.6608, 750.9033
354.1429, 745.9815
354.6250, 742.2758
355.1071, 739.8927
355.5892, 737.6991
356.0714, 734.8252
356.5535, 731.5924
357.0356, 728.4711
357.5177, 725.8359
357.9998, 723.1984
358.4819, 720.0367
358.9641, 716.4892
359.4462, 713.4133
359.9283, 711.5309
360.4104, 710.1576
360.8925, 708.7192
361.3746, 706.9975
361.8568, 705.3295
362.3389, 703.9063
362.8210, 702.6347
363.3031, 701.2776
363.7852, 699.7057
364.2673, 698.0687
364.7495, 696.4344
365.2316, 694.8180
365.7137, 693.1641
366.1958, 691.4525
366.6779, 689.7203
367.1600, 687.9941
367.6422, 686.3668
368.1243, 684.6581
368.6064, 682.8964
369.0885, 681.0840
369.5706, 678.9446
370.0527, 675.9675
370.5349, 673.0549
371.0170, 670.7877
371.4991, 669.6614
371.9812, 668.3956
372.4633, 666.8903
372.9454, 665.1876
373.4276, 663.5078
373.9097, 662.0412
374.3918, 660.2354
374.8739, 657.6515
375.3560, 653.8375
375.8381, 651.2184
376.3203, 650.1000
376.8024, 649.8071
377.2845, 649.4022
377.7666, 648.8831
378.2487, 648.2531
378.7308, 647.5325
379.2130, 646.7011
379.6951, 645.6254
380.1772, 644.2283
380.6593, 642.9160
381.1414, 641.8234
381.6235, 640.2628
382.1057, 640.6872
382.5878, 640.8270
383.0699, 640.6974
383.5520, 639.4917
384.0341, 639.6757
384.5162, 639.3027
384.9984, 638.9068
385.4805, 639.2863
385.9626, 638.2371
386.4447, 638.6043
386.9268, 638.4062
387.4089, 639.2240
387.8911, 640.6227
388.3732, 641.8134
388.8553, 642.2116
389.3374, 642.3230
389.8195, 642.6713
390.3016, 643.2346
390.7838, 643.6381
391.2659, 643.4094
391.7480, 642.9986
392.2301, 642.8796
392.7122, 643.2878
393.1943, 643.8771
393.6765, 644.4004
394.1586, 644.9765
394.6407, 645.9171
395.1228, 647.9903
395.6049, 649.9503
396.0870, 651.0515
396.5692, 650.8185
397.0513, 650.9975
397.5334, 652.3517
398.0155, 654.1622
398.4976, 655.5098
398.9797, 655.9089
399.4619, 656.2559
399.9440, 656.4128
400.4261, 656.3776
400.9082, 657.4597
401.3903, 660.4841
401.8724, 663.8225
402.3546, 666.4476
402.8367, 668.0388
403.3188, 669.5336
403.8009, 670.9449
404.2830, 672.3057
404.7651, 673.6561
405.2473, 674.8890
405.7294, 676.3953
406.2115, 678.5274
406.6936, 681.3058
407.1757, 683.3167
407.6578, 684.3406
408.1400, 685.2183
408.6221, 687.1172
409.1042, 690.0109
409.5863, 692.5612
410.0684, 694.3166
410.5505, 695.5785
411.0327, 697.0012
411.5148, 698.6006
411.9969, 700.5967
412.4790, 703.5886
412.9611, 707.0969
413.4432, 709.9170
413.9254, 711.8784
414.4075, 713.3134
414.8896, 714.1394
415.3717, 714.7026
415.8538, 715.8159
416.3359, 718.3588
416.8181, 721.3005
417.3002, 723.7852
417.7823, 725.8140
418.2644, 727.4031
418.7465, 728.2504
419.2286, 728.8454
419.7108, 729.6185
420.1929, 730.3964
420.6750, 731.7534
421.1571, 734.4562
421.6392, 737.9507
422.1213, 740.7371
422.6035, 741.3293
423.0856, 742.0574
423.5677, 744.0701
424.0498, 747.9489
424.5319, 751.2994
425.0140, 753.3778
425.4962, 755.1592
425.9783, 757.6260
426.4604, 761.0345
426.9425, 764.7920
427.4246, 768.8900
427.9067, 773.3261
428.3889, 777.7938
428.8710, 782.2833
429.3531, 786.8087
429.8352, 791.4418
430.3173, 796.1220
430.7994, 800.8488
431.2816, 805.5655
431.7637, 810.3804
432.2458, 815.4620
432.7279, 820.8240
433.2100, 826.0410
433.6921, 830.8856
434.1743, 835.4852
434.6564, 840.3979
435.1385, 845.7104
435.6206, 850.5528
436.1027, 853.7830
436.5848, 855.9648
437.0670, 858.7763
437.5491, 862.8429
438.0312, 866.8897
438.5133, 869.5389
438.9954, 871.0458
439.4775, 872.0992
439.9597, 872.7081
440.4418, 873.2643
440.9239, 874.1956
441.4060, 875.5345
441.8881, 876.8194
442.3702, 877.5942
442.8524, 878.2656
443.3345, 879.2321
443.8166, 880.8077
444.2987, 882.4357
444.7808, 883.6043
445.2629, 884.6368
445.7451, 886.5126
446.2272, 890.0697
446.7093, 893.8824
447.1914, 897.6490
447.6735, 901.7875
448.1556, 904.3018
448.6378, 903.5646
449.1199, 902.2689
449.6020, 903.2493
450.0841, 907.6148
450.5662, 911.9150
451.0483, 915.7236
451.5305, 919.0908
452.0126, 922.2277
452.4947, 925.3041
452.9768, 927.7092
453.4589, 928.9459
453.9410, 928.9861
454.4232, 929.0458
454.9053, 929.1563
455.3874, 929.2552
455.8695, 929.4884
456.3516, 929.7514
456.8337, 929.2598
457.3159, 927.3331
457.7980, 924.8547
458.2801, 923.5222
458.7622, 923.2047
459.2443, 922.9169
459.7264, 922.4044
460.2086, 921.3824
460.6907, 919.3778
461.1728, 916.2276
461.6549, 912.6474
462.1370, 908.8890
462.6191, 905.1390
463.1013, 901.7542
463.5834, 899.0871
464.0655, 896.5951
464.5476, 894.1635
465.0297, 891.7653
465.5118, 889.1600
465.9940, 886.3443
466.4761, 883.2911
466.9582, 879.9300
467.4403, 875.5885
467.9224, 872.0679
468.4045, 869.7161
468.8867, 868.0656
469.3688, 866.4152
469.8509, 864.6260
470.3330, 863.1823
470.8151, 862.3996
471.2972, 862.1678
471.7794, 861.2353
472.2615, 859.4738
472.7436, 857.3596
473.2257, 855.0561
473.7078, 852.5468
474.1899, 850.4733
474.6721, 848.8704
475.1542, 847.6989
475.6363, 847.0688
476.1184, 846.8965
476.6005, 846.6528
477.0826, 845.9619
477.5648, 845.1655
478.0469, 844.8818
478.5290, 845.0676
479.0111, 845.3299
479.4932, 845.5344
479.9753, 845.6002
480.4575, 845.3088
480.9396, 844.4191
481.4217, 843.8566
481.9038, 844.7750
482.3859, 846.2571
482.8680, 846.9398
483.3502, 845.2808
483.8323, 843.7983
484.3144, 843.5853
484.7965, 844.5629
485.2786, 845.2707
485.7607, 845.4105
486.2429, 845.2673
486.7250, 844.9750
487.2071, 844.5076
487.6892, 843.9529
488.1713, 843.3474
488.6534, 842.6432
489.1356, 841.7444
489.6177, 840.6034
490.0998, 839.5016
490.5819, 838.7518
491.0640, 838.0859
491.5461, 835.8373
492.0283, 831.7969
492.5104, 827.7445
492.9925, 825.1331
493.4746, 823.6387
493.9567, 821.7323
494.4388, 819.2120
494.9210, 816.5773
495.4031, 814.4476
495.8852, 812.6215
496.3673, 810.5582
496.8494, 808.1690
497.3315, 805.3348
497.8137, 801.5558
498.2958, 797.0724
498.7779, 793.0695
499.2600, 790.8033
499.7421, 788.7401
500.2242, 785.6248
500.7064, 780.9397
501.1885, 776.7548
501.6706, 774.6816
502.1527, 773.0172
502.6348, 770.0739
503.1169, 763.9435
503.5991, 758.5833
504.0812, 754.7548
504.5633, 752.0829
505.0454, 749.1688
505.5275, 746.3732
506.0096, 742.7764
506.4918, 737.6367
506.9739, 730.6578
507.4560, 725.3513
507.9381, 722.0753
508.4202, 719.4919
508.9023, 716.2269
509.3845, 712.3261
509.8666, 708.6204
510.3487, 705.2935
510.8308, 702.1790
511.3129, 699.0196
511.7950, 695.8343
512.2772, 692.6998
512.7593, 689.6467
513.2414, 686.6807
513.7235, 683.7753
514.2056, 680.9271
514.6877, 678.1002
515.1699, 675.3234
515.6520, 672.5233
516.1341, 669.5643
516.6162, 666.0734
517.0983, 663.0714
517.5804, 661.2582
518.0626, 660.0427
518.5447, 658.4590
519.0268, 655.6876
519.5089, 653.2350
519.9910, 651.5585
520.4731, 650.5952
520.9553, 649.5017
521.4374, 648.2813
521.9195, 646.9529
522.4016, 645.5043
522.8837, 643.9247
523.3658, 642.3693
523.8480, 640.8126
524.3301, 639.3566
524.8122, 638.2179
525.2943, 637.3855
525.7764, 636.4669
526.2585, 635.1871
526.7407, 633.9703
527.2228, 633.6458
527.7049, 634.1193
528.1870, 634.8263
528.6691, 635.6621
529.1512, 636.4245
529.6334, 636.8171
530.1155, 636.8074
530.5976, 636.7493
531.0797, 636.4828
531.5618, 636.4343
532.0439, 637.0693
532.5261, 639.2274
533.0082, 641.0248
533.4903, 641.6748
533.9724, 641.6724
534.4545, 642.1008
534.9366, 643.2857
535.4188, 644.6429
535.9009, 646.0116
536.3830, 647.4031
536.8651, 649.1361
537.3472, 651.2820
537.8293, 653.6458
538.3115, 656.0870
538.7936, 658.5973
539.2757, 661.2853
539.7578, 664.1593
540.2399, 667.1682
540.7220, 670.3491
541.2042, 673.6365
541.6863, 676.8358
542.1684, 679.6988
542.6505, 682.7064
543.1326, 686.8085
543.6147, 691.7231
544.0969, 696.5051
544.5790, 700.2832
545.0611, 703.7861
545.5432, 707.6492
546.0253, 711.9277
546.5074, 716.0899
546.9896, 719.3367
547.4717, 722.6582
547.9538, 726.8751
548.4359, 733.1488
548.9180, 738.9386
549.4001, 744.0193
549.8823, 748.5609
550.3644, 752.8122
550.8465, 756.7885
551.3286, 760.5417
551.8107, 764.0925
552.2928, 767.4539
552.7750, 770.6475
553.2571, 773.7511
553.7392, 776.4097
554.2213, 778.0043
554.7034, 778.8033
555.1855, 780.6934
555.6677, 783.9001
556.1498, 787.1534
556.6319, 788.9061
557.1140, 789.7081
557.5961, 790.7135
558.0782, 792.4820
558.5604, 794.1589
559.0425, 794.7721
559.5246, 794.7566
560.0067, 795.0806
560.4888, 797.0751
560.9709, 798.6427
561.4531, 798.4648
561.9352, 796.5161
562.4173, 795.1384
562.8994, 795.7606
563.3815, 796.1223
563.8636, 794.9874
564.3458, 791.6340
564.8279, 788.8083
565.3100, 786.7537
565.7921, 784.8917
566.2742, 782.4481
566.7563, 779.3451
567.2385, 776.4277
567.7206, 774.1149
568.2027, 771.8138
568.6848, 767.9924
569.1669, 762.8315
569.6490, 758.0716
570.1312, 755.1544
570.6133, 752.9036
571.0954, 749.6329
571.5775, 745.3088
572.0596, 740.7325
572.5417, 735.8948
573.0239, 731.2698
573.5060, 727.4789
573.9881, 725.0123
574.4702, 722.2178
574.9523, 717.9962
575.4344, 713.3611
575.9166, 709.6557
576.3987, 708.0755
576.8808, 705.8586
577.3629, 702.3885
577.8450, 698.0915
578.3271, 694.3342
578.8093, 691.2477
579.2914, 688.3171
579.7735, 685.3427
580.2556, 682.3729
580.7377, 679.4894
581.2198, 676.6893
581.7020, 674.0547
582.1841, 671.8185
582.6662, 669.7858
583.1483, 667.3083
583.6304, 664.2175
584.1125, 661.3539
584.5947, 659.9836
585.0768, 659.2010
585.5589, 657.6648
586.0410, 654.0788
586.5231, 650.6254
587.0052, 648.3858
587.4874, 647.0100
587.9695, 645.5787
588.4516, 643.8161
588.9337, 642.0877
589.4158, 640.5189
589.8979, 639.1129
590.3801, 637.6412
590.8622, 635.9763
591.3443, 634.4493
591.8264, 633.3280
592.3085, 632.6244
592.7906, 631.8172
593.2728, 630.8262
593.7549, 629.8929
594.2370, 629.3958
594.7191, 629.2006
595.2012, 628.7864
595.6833, 627.8906
596.1655, 626.9769
596.6476, 626.7953
597.1297, 627.0000
597.6118, 626.7865
598.0939, 625.1648
598.5760, 623.6024
599.0582, 623.0230
599.5403, 623.3630
600.0224, 623.6468
600.5045, 623.6905
600.9866, 623.6243
601.4688, 623.4850
601.9509, 623.2355
602.4330, 623.1357
602.9151, 623.3145
603.3972, 623.4653
603.8793, 623.1982
604.3615, 622.4296
604.8436, 622.0915
605.3257, 622.3496
605.8078, 622.9156
606.2899, 623.4274
606.7720, 623.8678
607.2542, 624.1519
607.7363, 624.1071
608.2184, 624.0264
608.7005, 624.3893
609.1826, 625.0456
609.6647, 625.4631
610.1469, 625.2731
610.6290, 624.8547
611.1111, 624.4192
611.5932, 623.9825
612.0753, 623.5294
612.5574, 622.7922
613.0396, 622.2592
613.5217, 622.2772
614.0038, 623.3069
614.4859, 623.6788
614.9680, 623.2168
615.4501, 622.3283
615.9323, 621.3737
616.4144, 620.3298
616.8965, 619.6503
617.3786, 619.5300
617.8607, 619.6033
618.3428, 619.3068
618.8250, 618.6660
619.3071, 617.7908
619.7892, 616.4802
620.2713, 615.1459
620.7534, 614.3049
621.2355, 613.8505
621.7177, 613.3018
622.1998, 611.9426
622.6819, 610.8327
623.1640, 610.7531
623.6461, 611.9750
624.1282, 612.7791
624.6104, 612.7717
625.0925, 612.4939
625.5746, 612.2903
626.0567, 612.2777
626.5388, 611.9538
627.0209, 611.2437
627.5031, 610.3116
627.9852, 609.2359
628.4673, 608.0422
628.9494, 607.2781
629.4315, 607.2109
629.9136, 607.3633
630.3958, 606.8358
630.8779, 605.8900
631.3600, 605.3218
631.8421, 606.0303
632.3242, 606.8582
632.8063, 606.7139
633.2885, 605.8173
633.7706, 605.3961
634.2527, 606.7106
634.7348, 607.8967
635.2169, 607.8212
635.6990, 606.0911
636.1812, 605.3342
636.6633, 605.9664
637.1454, 607.0443
637.6275, 607.8529
638.1096, 608.2982
638.5917, 609.2371
639.0739, 610.8590
639.5560, 612.5410
640.0381, 613.4813
640.5202, 613.8015
641.0023, 613.9870
641.4844, 614.0678
641.9666, 614.2625
642.4487, 614.9307
642.9308, 615.8965
643.4129, 616.7609
643.8950, 617.0761
644.3771, 617.5439
644.8593, 618.6194
645.3414, 620.1879
645.8235, 621.6428
646.3056, 622.5226
646.7877, 623.6479
647.2698, 625.3763
647.7520, 627.7548
648.2341, 629.7098
648.7162, 631.0984
649.1983, 632.4315
649.6804, 634.0765
650.1625, 635.9965
650.6447, 637.8394
651.1268, 639.5549
651.6089, 641.3619
652.0910, 643.4308
652.5731, 645.7296
653.0552, 648.2699
653.5374, 651.1373
654.0195, 654.0139
654.5016, 656.7893
654.9837, 659.4858
655.4658, 662.1507
655.9479, 664.7592
656.4301, 667.3860
656.9122, 669.8915
657.3943, 672.4652
657.8764, 675.6771
658.3585, 679.8697
658.8406, 683.9127
659.3228, 687.3387
659.8049, 690.3264
660.2870, 693.7338
660.7691, 697.5625
661.2512, 701.3814
661.7333, 705.0284
662.2155, 708.3846
662.6976, 711.1422
663.1797, 713.2913
663.6618, 715.1399
664.1439, 716.5646
664.6260, 717.9880
665.1082, 719.9349
665.5903, 722.7933
666.0724, 725.0964
666.5545, 726.5721
667.0366, 727.3009
667.5187, 727.3384
668.0009, 726.1481
668.4830, 725.4684
668.9651, 725.5706
669.4472, 726.0516
669.9293, 726.4619
670.4114, 726.8125
670.8936, 726.4503
671.3757, 725.1265
671.8578, 723.1050
672.3399, 720.5104
672.8220, 717.4945
673.3041, 714.6403
673.7863, 712.4559
674.2684, 710.3345
674.7505, 707.9127
675.2326, 705.1730
675.7147, 702.1786
676.1968, 698.8221
676.6790, 695.2644
677.1611, 691.5776
677.6432, 687.7255
678.1253, 683.9967
678.6074, 680.4669
679.0895, 676.9820
679.5717, 673.4828
680.0538, 669.9434
680.5359, 666.4871
681.0180, 663.1269
681.5001, 659.8755
681.9822, 656.8382
682.4644, 653.9332
682.9465, 651.0410
683.4286, 648.0755
683.9107, 645.2737
684.3928, 642.9352
684.8749, 640.7743
685.3571, 638.4099
685.8392, 635.1813
686.3213, 632.4149
686.8034, 630.9227
687.2855, 629.8028
687.7676, 627.4821
688.2498, 623.1722
688.7319, 619.5991
689.2140, 617.3609
689.6961, 616.1373
690.1782, 615.3375
690.6603, 614.9369
691.1425, 614.4056
691.6246, 613.4819
692.1067, 612.2821
692.5888, 610.8552
693.0709, 609.2756
693.5530, 607.8659
694.0352, 606.9000
694.5173, 606.0885
694.9994, 605.3874
695.4815, 604.7936
695.9636, 603.7438
696.4457, 601.3622
696.9279, 599.2693
697.4100, 598.3115
697.8921, 598.6998
698.3742, 598.8051
698.8563, 598.6132
699.3384, 598.1785
699.8206, 597.4111
700.3027, 596.4153
700.7848, 595.7004
701.2669, 595.3594
701.7490, 595.0103
702.2311, 593.8549
702.7133, 592.6202
703.1954, 592.5099
703.6775, 594.7725
704.1596, 596.1852
704.6417, 594.7216
705.1238, 591.9698
705.6060, 590.1611
706.0881, 589.9252
706.5702, 589.7867
707.0523, 589.6820
707.5344, 589.5479
708.0165, 589.2031
708.4987, 588.6271
708.9808, 588.1823
709.4629, 588.0491
709.9450, 588.0176
710.4271, 587.6855
710.9092, 587.1083
711.3914, 586.4777
711.8735, 585.7569
712.3556, 585.1444
712.8377, 584.6655
713.3198, 584.3784
713.8019, 584.5479
714.2841, 586.0656
714.7662, 587.2244
715.2483, 587.2264
715.7304, 586.1247
716.2125, 585.5182
716.6946, 585.5703
717.1768, 585.6599
717.6589, 585.4798
718.1410, 585.0353
718.6231, 584.1902
719.1052, 582.9182
719.5873, 581.9924
720.0695, 582.3727
720.5516, 583.2797
721.0337, 583.6554
721.5158, 583.3060
721.9979, 583.0143
722.4800, 583.2961
722.9622, 583.6857
723.4443, 583.7880
723.9264, 583.3363
724.4085, 583.1084
724.8906, 583.2447
725.3727, 583.4321
725.8549, 583.2447
726.3370, 582.6251
726.8191, 582.5211
727.3012, 583.1320
727.7833, 583.9397
728.2654, 584.3254
728.7476, 584.3759
729.2297, 584.2966
729.7118, 584.1500
730.1939, 583.8839
730.6760, 583.2354
731.1581, 582.5098
731.6403, 582.1652
732.1224, 582.8497
732.6045, 583.2500
733.0866, 582.9772
733.5687, 582.3922
734.0508, 582.3293
734.5330, 582.9846
735.0151, 583.3177
735.4972, 582.8871
735.9793, 582.1707
736.4614, 582.3642
736.9435, 583.3065
737.4257, 584.1636
737.9078, 584.7516
738.3899, 584.8867
738.8720, 583.9197
739.3541, 582.2533
739.8362, 581.3251
740.3184, 582.1644
740.8005, 583.3125
741.2826, 584.3666
741.7647, 585.2939
742.2468, 585.8056
742.7289, 585.7148
743.2111, 585.6620
743.6932, 585.9596
744.1753, 586.5458
744.6574, 587.1541
745.1395, 587.7744
745.6216, 588.1985
746.1038, 588.2285
746.5859, 588.0071
747.0680, 587.5885
747.5501, 587.0005
748.0322, 586.6483
748.5143, 586.6957
748.9965, 587.0568
749.4786, 587.8739
749.9607, 589.4061
750.4428, 589.9982
750.9249, 589.3964
751.4070, 588.3011
751.8892, 586.9150
752.3713, 585.2475
752.8534, 584.7561
753.3355, 585.5668
753.8176, 586.6828
754.2997, 587.3484
754.7819, 587.6425
755.2640, 587.5988
755.7461, 587.1577
756.2282, 586.8285
756.7103, 587.0829
757.1924, 587.4562
757.6746, 587.5351
758.1567, 587.0710
758.6388, 586.6750
759.1209, 586.1829
759.6030, 585.9471
760.0851, 586.5496
760.5673, 588.0371
761.0494, 588.8196
761.5315, 588.6397
762.0136, 588.0468
762.4957, 587.5188
762.9778, 587.0848
763.4600, 586.8038
763.9421, 586.7131
764.4242, 586.7263
764.9063, 587.0782
765.3884, 587.3951
765.8705, 587.2070
766.3527, 585.6766
766.8348, 584.8113
767.3169, 584.9814
767.7990, 585.5938
768.2811, 585.6512
768.7632, 585.1088
769.2454, 585.0690
769.7275, 585.9227
770.2096, 586.9304
770.6917, 587.0026
771.1738, 586.4260
771.6559, 585.8038
772.1381, 585.1082
772.6202, 584.7665
773.1023, 585.4022
773.5844, 586.4635
774.0665, 586.9633
774.5486, 586.4802
775.0308, 585.8481
775.5129, 585.0596
775.9950, 584.2585
776.4771, 583.8390
776.9592, 583.8193
777.4413, 583.6750
777.9235, 583.1826
778.4056, 582.6076
778.8877, 582.2241
779.3698, 582.0851
779.8519, 582.3258
780.3340, 583.4177
780.8162, 584.4731
781.2983, 585.2717
781.7804, 585.7219
782.2625, 585.5103
782.7446, 583.8868
783.2267, 582.8544
783.7089, 582.9305
784.1910, 583.7852
784.6731, 584.5344
785.1552, 585.1799
785.6373, 585.8073
786.1194, 586.5834
786.6016, 587.1989
787.0837, 587.1588
787.5658, 586.5720
788.0479, 585.7307
788.5300, 584.0551
789.0121, 582.8984
789.4943, 583.1848
789.9764, 584.5508
790.4585, 585.5049
790.9406, 585.8249
791.4227, 586.0909
791.9048, 586.4818
792.3870, 586.9100
792.8691, 587.0803
793.3512, 587.0051
793.8333, 586.8412
794.3154, 586.6223
794.7975, 586.3961
795.2797, 586.3273
795.7618, 586.3228
796.2439, 586.0800
796.7260, 584.7235
797.2081, 583.8993
797.6902, 584.7914
798.1724, 586.8323
798.6545, 587.7428
799.1366, 587.0984
799.6187, 586.4113
800.1008, 586.0579
800.5829, 586.0799
801.0651, 586.7675
801.5472, 588.0230
802.0293, 589.2570
802.5114, 590.3408
802.9935, 591.0943
803.4756, 590.9706
803.9578, 590.3066
804.4399, 590.2347
804.9220, 592.0931
805.4041, 593.4456
805.8862, 593.2656
806.3683, 592.0263
806.8505, 591.7504
807.3326, 592.6021
807.8147, 593.6542
808.2968, 594.7104
808.7789, 595.6231
809.2610, 595.8804
809.7432, 595.6481
810.2253, 595.5977
810.7074, 596.4333
811.1895, 597.2452
811.6716, 597.2601
812.1537, 596.7429
812.6359, 596.6971
813.1180, 597.8259
813.6001, 598.6746
814.0822, 598.8023
814.5643, 598.4531
815.0464, 598.6021
815.5286, 599.2637
816.0107, 599.6467
816.4928, 599.2428
816.9749, 598.5710
817.4570, 598.4286
817.9391, 598.6747
818.4213, 598.9008
818.9034, 598.9635
819.3855, 598.9140
819.8676, 598.6786
820.3497, 598.3308
820.8318, 598.1038
821.3140, 597.9303
821.7961, 598.0643
822.2782, 598.7316
822.7603, 599.5811
823.2424, 599.7407
823.7245, 599.2859
824.2067, 598.7169
824.6888, 598.2263
825.1709, 597.7179
825.6530, 597.0582
826.1351, 596.3121
826.6172, 595.6418
827.0994, 594.9164
827.5815, 594.5172
828.0636, 594.7550
828.5457, 595.2556
829.0278, 595.1532
829.5099, 594.3386
829.9921, 593.7064
830.4742, 593.5207
830.9563, 593.5367
831.4384, 593.1794
831.9205, 592.7056
832.4026, 592.8067
832.8848, 594.3192
833.3669, 595.6143
833.8490, 595.4340
834.3311, 594.5911
834.8132, 594.5297
835.2953, 595.9030
835.7775, 596.9124
836.2596, 597.3285
836.7417, 597.3439
837.2238, 597.1443
837.7059, 596.7664
838.1880, 596.6296
838.6702, 596.9072
839.1523, 597.1995
839.6344, 596.6554
840.1165, 596.0198
840.5986, 596.4382
841.0807, 599.2706
841.5629, 601.4258
842.0450, 601.8502
842.5271, 601.6203
843.0092, 601.7220
843.4913, 602.1796
843.9734, 602.9515
844.4556, 604.1600
844.9377, 605.2148
845.4198, 605.1650
845.9019, 604.4872
846.3840, 604.1418
846.8661, 604.3019
847.3483, 604.8557
847.8304, 606.2554
848.3125, 607.7131
848.7946, 608.4484
849.2767, 608.0019
849.7589, 607.8966
850.2410, 608.1346
850.7231, 608.7038
851.2052, 609.6921
851.6873, 611.0263
852.1694, 612.3777
852.6516, 613.7328
853.1337, 614.8516
853.6158, 615.2035
854.0979, 615.4392
854.5800, 616.3340
855.0621, 618.0903
855.5443, 619.4509
856.0264, 619.9272
856.5085, 620.1921
856.9906, 620.6258
857.4727, 621.2350
857.9548, 621.1304
858.4370, 620.2360
858.9191, 619.5438
859.4012, 619.8387
859.8833, 620.7435
860.3654, 621.9343
860.8475, 623.2992
861.3297, 624.1066
861.8118, 623.2990
862.2939, 622.5458
862.7760, 622.7970
863.2581, 623.9026
863.7402, 624.7642
864.2224, 625.2850
864.7045, 625.8712
865.1866, 626.7965
865.6687, 627.8245
866.1508, 628.0733
866.6329, 627.7796
867.1151, 627.9702
867.5972, 629.8895
868.0793, 631.7610
868.5614, 632.1111
869.0435, 631.5352
869.5256, 631.9961
870.0078, 634.5830
870.4899, 636.4188
870.9720, 636.7552
871.4541, 636.2897
871.9362, 636.4854
872.4183, 637.2995
872.9005, 638.4042
873.3826, 639.7935
873.8647, 641.2457
874.3468, 642.6351
874.8289, 643.9266
875.3110, 645.0460
875.7932, 645.3469
876.2753, 646.3463
876.7574, 648.3798
877.2395, 650.9128
877.7216, 653.5087
878.2037, 656.1930
878.6859, 658.0652
879.1680, 658.8506
879.6501, 659.7008
880.1322, 661.9444
880.6143, 665.0499
881.0964, 668.4058
881.5786, 672.0749
882.0607, 675.1700
882.5428, 676.6683
883.0249, 678.0597
883.5070, 680.3616
883.9891, 683.7365
884.4713, 687.2490
884.9534, 690.9894
885.4355, 694.2349
885.9176, 695.6653
886.3997, 696.4147
886.8818, 699.0352
887.3640, 703.4896
887.8461, 707.9345
888.3282, 711.0856
888.8103, 714.1381
889.2924, 717.9164
889.7745, 722.3556
890.2567, 726.0421
890.7388, 728.5759
891.2209, 731.5305
891.7030, 735.8072
892.1851, 740.8201
892.6672, 745.2264
893.1494, 749.1132
893.6315, 752.7421
894.1136, 755.8610
894.5957, 759.2222
895.0778, 763.3041
895.5599, 767.9730
896.0421, 772.8529
896.5242, 778.5427
897.0063, 783.1118
897.4884, 785.8434
897.9705, 787.8405
898.4526, 791.2128
898.9348, 795.6387
899.4169, 799.5916
899.8990, 802.6611
900.3811, 805.3677
900.8632, 807.9422
901.3453, 810.5081
901.8275, 813.3228
902.3096, 817.2429
902.7917, 819.6994
903.2738, 820.3654
903.7559, 820.0399
904.2380, 819.4488
904.7202, 818.5371
905.2023, 816.6718
905.6844, 813.8183
906.1665, 810.8715
906.6486, 809.1348
907.1307, 807.3000
907.6129, 804.0019
908.0950, 799.0580
908.5771, 794.0087
909.0592, 788.7595
909.5413, 783.9379
910.0234, 780.1122
910.5056, 776.9742
910.9877, 772.3114
911.4698, 766.2116
911.9519, 760.2696
912.4340, 755.3275
912.9161, 750.9847
913.3983, 747.0729
913.8804, 743.5189
914.3625, 740.1761
914.8446, 737.7260
915.3267, 734.4409
915.8088, 729.3771
916.2910, 723.8035
916.7731, 720.3871
917.2552, 719.0759
917.7373, 718.1879
918.2194, 717.4944
918.7015, 716.5621
919.1837, 714.6973
919.6658, 712.3900
920.1479, 710.3182
920.6300, 708.7570
921.1121, 707.1669
921.5942, 705.2238
922.0764, 703.4593
922.5585, 702.4121
923.0406, 702.1175
923.5227, 701.3050
924.0048, 699.8846
924.4869, 698.9819
924.9691, 700.1246
925.4512, 701.8889
925.9333, 702.4690
926.4154, 701.8226
926.8975, 701.6141
927.3796, 703.2560
927.8618, 704.2894
928.3439, 703.6105
928.8260, 701.6579
929.3081, 700.6086
929.7902, 700.4505
930.2723, 701.0811
930.7545, 703.0388
931.2366, 705.0735
931.7187, 705.5001
932.2008, 704.9301
932.6829, 704.6153
933.1650, 704.5596
933.6472, 705.3665
934.1293, 707.4577
934.6114, 710.0709
935.0935, 712.1609
935.5756, 713.7492
936.0577, 715.0159
936.5399, 715.9303
937.0220, 716.8126
937.5041, 717.7353
937.9862, 718.9147
938.4683, 720.6425
938.9504, 723.0393
939.4326, 725.5714
939.9147, 728.3168
940.3968, 730.8818
940.8789, 732.9574
941.3610, 734.6028
941.8431, 736.7489
942.3253, 739.3983
942.8074, 742.1774
943.2895, 744.5946
943.7716, 747.1969
944.2537, 750.6298
944.7358, 754.7147
945.2180, 758.7990
945.7001, 762.4521
946.1822, 766.5593
946.6643, 771.6099
947.1464, 776.9658
947.6285, 781.0097
948.1107, 783.9694
948.5928, 787.4886
949.0749, 792.1164
949.5570, 796.9586
950.0391, 800.9879
950.5212, 804.9231
951.0034, 809.5536
951.4855, 815.3185
951.9676, 821.1699
952.4497, 827.0144
952.9318, 833.0521
953.4139, 839.2668
953.8961, 845.7607
954.3782, 853.4227
954.8603, 862.1352
955.3424, 870.8549
955.8245, 879.3351
956.3066, 887.1530
956.7888, 893.7430
957.2709, 899.2703
957.7530, 904.9809
958.2351, 911.0007
958.7172, 917.2117
959.1993, 923.8768
959.6815, 930.4427
960.1636, 935.3856
960.6457, 939.1343
961.1278, 942.9678
961.6099, 947.3622
962.0920, 951.8638
962.5742, 956.1963
963.0563, 960.5289
963.5384, 964.9629
964.0205, 969.4293
964.5026, 974.1774
964.9847, 979.0465
965.4669, 984.6064
965.9490, 991.8380
966.4311, 999.9501
966.9132, 1007.664
967.3953, 1014.848
967.8774, 1021.848
968.3596, 1028.197
968.8417, 1034.968
969.3238, 1043.180
969.8059, 1052.258
970.2880, 1059.350
970.7701, 1064.287
971.2523, 1069.064
971.7344, 1074.303
972.2165, 1079.891
972.6986, 1086.322
973.1807, 1092.951
973.6628, 1098.438
974.1450, 1101.568
974.6271, 1105.043
975.1092, 1110.548
975.5913, 1115.576
976.0734, 1117.524
976.5555, 1116.332
977.0377, 1115.539
977.5198, 1115.359
978.0019, 1114.994
978.4840, 1114.003
978.9661, 1112.368
979.4482, 1110.397
979.9304, 1108.024
980.4125, 1103.745
980.8946, 1096.824
981.3767, 1088.723
981.8588, 1079.402
982.3409, 1069.429
982.8231, 1060.748
983.3052, 1052.995
983.7873, 1044.206
984.2694, 1033.165
984.7515, 1021.865
985.2336, 1011.342
985.7158, 1001.528
986.1979, 992.4017
986.6800, 984.0724
987.1621, 976.0901
987.6442, 968.6104
988.1263, 960.9922
988.6085, 952.3378
989.0906, 943.2205
989.5727, 935.3086
990.0548, 928.5947
990.5369, 922.3675
991.0190, 916.0004
991.5012, 910.3270
991.9833, 906.0517
992.4654, 902.7950
992.9475, 899.1686
993.4296, 895.1722
993.9117, 891.0182
994.3939, 886.4869
994.8760, 882.4744
995.3581, 880.8892
995.8402, 880.4342
996.3223, 878.8146
996.8044, 874.3088
997.2866, 871.1771
997.7687, 870.3513
998.2508, 870.5695
998.7329, 871.3643
999.2150, 872.6442
999.6971, 872.0344
1000.179, 869.6013
1000.661, 867.4308
1001.143, 866.8584
1001.626, 867.2201
1002.108, 868.6215
1002.590, 870.6434
1003.072, 871.2728
1003.554, 869.3757
1004.036, 868.6884
1004.518, 870.2704
1005.000, 872.8411
1005.483, 874.2439
1005.965, 874.8543
1006.447, 875.6003
1006.929, 876.6824
1007.411, 877.9642
1007.893, 879.4813
1008.375, 881.1046
1008.857, 882.7332
1009.339, 884.3753
1009.822, 886.0618
1010.304, 887.7917
1010.786, 889.5109
1011.268, 891.5339
1011.750, 893.2363
1012.232, 894.0707
1012.714, 893.9241
1013.196, 892.5138
1013.679, 889.2738
1014.161, 885.2832
1014.643, 880.6760
1015.125, 875.5349
1015.607, 870.0721
1016.089, 864.2562
1016.571, 857.6417
1017.053, 850.1718
1017.535, 842.2249
1018.018, 833.7362
1018.500, 825.1793
1018.982, 816.7219
1019.464, 808.3817
1019.946, 800.8677
1020.428, 794.4935
1020.910, 787.7713
1021.392, 779.7455
1021.875, 771.3030
1022.357, 763.9724
1022.839, 757.6866
1023.321, 752.4004
1023.803, 748.9199
1024.285, 745.2288
1024.767, 740.4722
1025.249, 735.5705
1025.731, 731.4388
1026.214, 728.0619
1026.696, 724.9467
1027.178, 722.0680
1027.660, 719.2565
1028.142, 716.2641
1028.624, 713.3412
1029.106, 710.5690
1029.588, 708.0385
1030.071, 706.1960
1030.553, 705.3516
1031.035, 704.4379
1031.517, 703.1788
1031.999, 701.7537
1032.481, 700.2933
1032.963, 698.9224
1033.445, 697.8983
1033.927, 697.1973
1034.410, 697.1158
1034.892, 698.6153
1035.374, 700.0562
1035.856, 700.1429
1036.338, 698.8298
1036.820, 698.3769
1037.302, 698.7999
1037.784, 699.6657
1038.266, 701.1920
1038.749, 702.6385
1039.231, 703.1783
1039.713, 703.0508
1040.195, 702.7850
1040.677, 701.9631
1041.159, 701.9780
1041.641, 703.1075
1042.123, 704.7926
1042.605, 706.5326
1043.088, 708.2632
1043.570, 709.5983
1044.052, 710.5002
1044.534, 711.7813
1045.016, 714.5375
1045.498, 717.1064
1045.980, 718.3822
1046.462, 718.7440
1046.945, 719.9453
1047.427, 722.0221
1047.909, 724.3369
1048.391, 726.7432
1048.873, 729.1121
1049.355, 731.2259
1049.837, 733.2698
1050.319, 735.4715
1050.802, 737.7305
1051.284, 740.6282
1051.766, 744.3552
1052.248, 748.2064
1052.730, 751.5797
1053.212, 754.6500
1053.694, 758.0151
1054.176, 761.6011
1054.658, 765.0789
1055.141, 768.2334
1055.623, 771.2943
1056.105, 774.2361
1056.587, 777.2201
1057.069, 780.6674
1057.551, 784.6085
1058.033, 787.7755
1058.515, 789.9799
1058.998, 791.7714
1059.480, 793.3759
1059.962, 795.0402
1060.444, 797.2093
1060.926, 799.8870
1061.408, 801.7843
1061.890, 802.7420
1062.372, 803.2960
1062.854, 803.6262
1063.337, 803.6521
1063.819, 802.8368
1064.301, 801.6542
1064.783, 801.3160
1065.265, 802.9490
1065.747, 803.5246
1066.229, 801.4965
1066.711, 798.6823
1067.193, 795.9343
1067.676, 793.3020
1068.158, 791.6541
1068.640, 790.9084
1069.122, 789.9886
1069.604, 788.0314
1070.086, 785.8624
1070.568, 784.0923
1071.050, 782.4568
1071.532, 780.3002
1072.015, 777.2161
1072.497, 775.1279
1072.979, 774.4290
1073.461, 773.7781
1073.943, 771.6014
1074.425, 768.6633
1074.907, 765.6375
1075.389, 762.6823
1075.872, 760.9361
1076.354, 761.4317
1076.836, 762.1605
1077.318, 762.6445
1077.800, 762.9743
1078.282, 763.1850
1078.764, 763.4118
1079.246, 764.1733
1079.729, 765.6484
1080.211, 767.5176
1080.693, 769.9797
1081.175, 772.4609
1081.657, 774.4102
1082.139, 775.8342
1082.621, 777.5973
1083.103, 779.7113
1083.585, 782.4147
1084.068, 786.2451
1084.550, 790.3117
1085.032, 793.7340
1085.514, 796.7685
1085.996, 799.7225
1086.478, 802.1251
1086.960, 805.7819
1087.442, 811.1171
1087.925, 816.5526
1088.407, 820.2811
1088.889, 823.2210
1089.371, 827.4358
1089.853, 832.7360
1090.335, 837.3068
1090.817, 839.8026
1091.299, 842.3062
1091.781, 845.1103
1092.264, 848.4120
1092.746, 852.8669
1093.228, 858.1798
1093.710, 862.8761
1094.192, 866.6931
1094.674, 869.9495
1095.156, 872.4113
1095.638, 874.7675
1096.120, 877.6445
1096.603, 880.8660
1097.085, 883.0220
1097.567, 884.0544
1098.049, 885.3282
1098.531, 887.5099
1099.013, 889.7662
1099.495, 891.3913
1099.977, 892.5092
1100.459, 893.2824
1100.942, 893.6824
1101.424, 893.9155
1101.906, 894.0458
1102.388, 893.8181
1102.870, 892.9042
1103.352, 891.6133
1103.834, 890.6910
1104.316, 889.8951
1104.799, 888.5646
1105.281, 886.5710
1105.763, 883.7625
1106.245, 879.8904
1106.727, 875.6481
1107.209, 871.7895
1107.691, 868.2740
1108.173, 865.1366
1108.656, 862.3582
1109.138, 859.9988
1109.620, 858.9846
1110.102, 857.3691
1110.584, 853.6834
1111.066, 849.0103
1111.548, 845.3033
1112.030, 842.5363
1112.512, 841.6703
1112.995, 843.3538
1113.477, 843.5375
1113.959, 836.8903
1114.441, 828.5768
1114.923, 823.2871
1115.405, 821.1282
1115.887, 817.5353
1116.369, 812.1230
1116.852, 807.2841
1117.334, 803.9739
1117.816, 801.3846
1118.298, 798.9417
1118.780, 796.3170
1119.262, 792.9176
1119.744, 788.1365
1120.226, 784.1647
1120.708, 781.3619
1121.191, 778.6932
1121.673, 775.5245
1122.155, 772.0460
1122.637, 768.2879
1123.119, 764.5173
1123.601, 761.4694
1124.083, 760.5215
1124.565, 758.7518
1125.047, 755.3713
1125.530, 751.5245
1126.012, 748.0426
1126.494, 744.9595
1126.976, 742.5922
1127.458, 740.8860
1127.940, 739.3217
1128.422, 737.3591
1128.904, 735.7504
1129.386, 735.1833
1129.869, 734.9570
1130.351, 733.9304
1130.833, 732.1168
1131.315, 730.5707
1131.797, 729.4266
1132.279, 728.1389
1132.761, 725.5847
1133.243, 723.3287
1133.726, 722.9056
1134.208, 723.9089
1134.690, 724.1890
1135.172, 723.7013
1135.654, 722.7374
1136.136, 721.2498
1136.618, 719.7296
1137.100, 718.3938
1137.583, 717.5250
1138.065, 717.7693
1138.547, 719.4642
1139.029, 719.6281
1139.511, 717.6759
1139.993, 716.1197
1140.475, 716.1050
1140.957, 716.7698
1141.439, 716.6305
1141.922, 716.2255
1142.404, 716.5617
1142.886, 718.3421
1143.368, 719.6149
1143.850, 720.1970
1144.332, 720.3104
1144.814, 719.8684
1145.296, 719.1609
1145.779, 718.7602
1146.261, 718.7351
1146.743, 719.2784
1147.225, 721.7538
1147.707, 722.8804
1148.189, 721.4499
1148.671, 719.6598
1149.153, 719.6846
1149.635, 721.0663
1150.118, 721.5599
1150.600, 721.2127
1151.082, 720.7501
1151.564, 720.2961
1152.046, 720.1218
1152.528, 720.4268
1153.010, 720.9899
1153.492, 721.5945
1153.974, 722.2242
1154.457, 722.5544
1154.939, 722.5621
1155.421, 722.9286
1155.903, 724.5274
1156.385, 726.2050
1156.867, 727.3396
1157.349, 728.0208
1157.831, 728.2302
1158.313, 727.9481
1158.796, 728.3920
1159.278, 729.8617
1159.760, 731.2227
1160.242, 730.9717
1160.724, 730.6564
1161.206, 731.6368
1161.688, 733.8084
1162.170, 735.9839
1162.653, 738.1608
1163.135, 740.6192
1163.617, 743.6761
1164.099, 746.2515
1164.581, 746.5087
1165.063, 746.1726
1165.545, 747.2792
1166.027, 750.1989
1166.510, 752.2176
1166.992, 753.1234
1167.474, 754.3539
1167.956, 756.5924
1168.438, 759.2477
1168.920, 761.8785
1169.402, 764.3107
1169.884, 766.2707
1170.366, 767.4160
1170.849, 769.0358
1171.331, 771.2520
1171.813, 773.5665
1172.295, 775.7646
1172.777, 777.8761
1173.259, 780.2425
1173.741, 782.5198
1174.223, 783.9396
1174.706, 783.0942
1175.188, 783.6735
1175.670, 786.1683
1176.152, 788.9102
1176.634, 790.5934
1177.116, 791.6829
1177.598, 793.2682
1178.080, 795.1194
1178.563, 796.5461
1179.045, 796.5950
1179.527, 797.4927
1180.009, 800.0616
1180.491, 802.1660
1180.973, 801.0179
1181.455, 798.1507
1181.937, 797.3799
1182.419, 798.3823
1182.901, 798.8188
1183.384, 797.1844
1183.866, 795.8445
1184.348, 795.4229
1184.830, 795.0381
1185.312, 793.3361
1185.794, 790.8451
1186.276, 789.0566
1186.758, 787.9890
1187.240, 786.7090
1187.723, 784.6595
1188.205, 782.5558
1188.687, 780.6578
1189.169, 778.6469
1189.651, 776.1672
1190.133, 773.1116
1190.615, 768.8536
1191.097, 763.2873
1191.580, 758.5208
1192.062, 756.4305
1192.544, 754.0606
1193.026, 750.2782
1193.508, 745.8203
1193.990, 742.3775
1194.472, 739.6450
1194.954, 736.5478
1195.437, 732.8191
1195.919, 729.2471
1196.401, 726.2255
1196.883, 723.4128
1197.365, 720.7892
1197.847, 718.1965
1198.329, 714.7618
1198.811, 710.9008
1199.293, 708.3871
1199.776, 708.0022
1200.258, 707.2629
1200.740, 704.4727
1201.222, 701.5704
1201.704, 699.4704
1202.186, 698.0435
1202.668, 697.1619
1203.150, 696.6184
1203.633, 695.5251
1204.115, 693.4219
1204.597, 691.2628
1205.079, 689.0593
1205.561, 687.4344
1206.043, 687.0057
1206.525, 687.4576
1207.007, 687.2420
1207.490, 686.4453
1207.972, 685.4031
1208.454, 684.0506
1208.936, 682.8784
1209.418, 682.2706
1209.900, 681.7609
1210.382, 681.0682
1210.864, 680.2020
1211.346, 679.1674
1211.828, 678.0361
1212.311, 677.2076
1212.793, 676.7545
1213.275, 676.7925
1213.757, 678.0857
1214.239, 679.1789
1214.721, 678.7205
1215.203, 676.9919
1215.685, 676.1855
1216.167, 676.1621
1216.650, 676.1494
1217.132, 675.4103
1217.614, 675.1201
1218.096, 676.3002
1218.578, 677.3827
1219.060, 676.6785
1219.542, 674.5410
1220.024, 673.4218
1220.507, 673.2136
1220.989, 673.0201
1221.471, 672.2390
1221.953, 671.6307
1222.435, 671.4808
1222.917, 671.5037
1223.399, 671.4880
1223.881, 671.4015
1224.364, 670.9713
1224.846, 670.2649
1225.328, 669.7471
1225.810, 669.6235
1226.292, 669.2226
1226.774, 669.9233
1227.256, 670.3394
1227.738, 670.4861
1228.220, 669.5568
1228.703, 670.0170
1229.185, 669.9203
1229.667, 669.8008
1230.149, 670.4566
1230.631, 669.6837
1231.113, 670.3272
1231.595, 670.4053
1232.077, 670.7422
1232.560, 670.5188
1233.042, 670.4684
1233.524, 670.9785
1234.006, 671.1782
1234.488, 670.8903
1234.970, 671.2436
1235.452, 670.4511
1235.934, 670.6641
1236.417, 671.3110
1236.899, 671.0511
1237.381, 671.4147
1237.863, 671.5408
1238.345, 670.5881
1238.827, 671.5117
1239.309, 671.6238
1239.791, 670.9026
1240.273, 671.7620
1240.755, 671.1558
1241.238, 671.0727
1241.720, 671.3832
1242.202, 671.2834
1242.684, 671.8306
1243.166, 671.7545
1243.648, 671.6226
1244.130, 671.7338
1244.612, 671.1563
1245.094, 671.8565
1245.577, 671.6840
1246.059, 671.9453
1246.541, 672.9626
1247.023, 673.1921
1247.505, 671.8450
1247.987, 671.3410
1248.469, 672.3529
1248.951, 673.7385
1249.434, 674.0789
1249.916, 673.9531
1250.398, 674.0436
1250.880, 674.3930
1251.362, 674.5953
1251.844, 674.6461
1252.326, 674.5080
1252.808, 674.1200
1253.291, 673.7902
1253.773, 673.7914
1254.255, 674.0616
1254.737, 674.7480
1255.219, 675.7387
1255.701, 676.1039
1256.183, 675.8064
1256.665, 675.1010
1257.147, 673.9375
1257.630, 673.0105
1258.112, 673.0811
1258.594, 673.5749
1259.076, 674.2952
1259.558, 675.0273
1260.040, 674.6218
1260.522, 673.1053
1261.004, 672.6146
1261.487, 673.7631
1261.969, 674.9763
1262.451, 674.8722
1262.933, 674.6107
1263.415, 675.1223
1263.897, 676.0439
1264.379, 675.9591
1264.861, 675.0374
1265.344, 674.5561
1265.826, 674.8188
1266.308, 675.3080
1266.790, 676.1529
1267.272, 676.6331
1267.754, 676.2645
1268.236, 675.4568
1268.718, 675.0682
1269.200, 675.1644
1269.682, 676.2575
1270.165, 678.6173
1270.647, 680.2288
1271.129, 679.6429
1271.611, 678.8627
1272.093, 678.4716
1272.575, 678.3207
1273.057, 678.0798
1273.539, 677.8445
1274.021, 677.8867
1274.504, 678.2816
1274.986, 678.5402
1275.468, 678.6200
1275.950, 678.3954
1276.432, 677.6182
1276.914, 676.9774
1277.396, 678.0051
1277.878, 679.6520
1278.361, 680.2323
1278.843, 679.4615
1279.325, 678.9678
1279.807, 678.8878
1280.289, 678.9149
1280.771, 678.9473
1281.253, 679.1220
1281.735, 679.7123
1282.218, 680.4648
1282.700, 681.0485
1283.182, 681.4775
1283.664, 682.3787
1284.146, 683.8481
1284.628, 684.4742
1285.110, 683.7439
1285.592, 682.8707
1286.074, 682.9970
1286.557, 683.3423
1287.039, 683.2025
1287.521, 682.7543
1288.003, 682.7850
1288.485, 683.2439
1288.967, 683.6190
1289.449, 683.8303
1289.931, 683.6927
1290.414, 682.2832
1290.896, 681.4932
1291.378, 682.5219
1291.860, 684.4977
1292.342, 685.3458
1292.824, 685.2404
1293.306, 684.5975
1293.788, 683.4402
1294.271, 682.7255
1294.753, 683.5105
1295.235, 683.7968
1295.717, 682.7209
1296.199, 681.4633
1296.681, 682.4763
1297.163, 684.5997
1297.645, 685.7198
1298.127, 685.5674
1298.609, 685.3497
1299.092, 685.2412
1299.574, 684.9095
1300.056, 684.1838
1300.538, 683.6000
1301.020, 684.1025
1301.502, 684.9343
1301.984, 685.2596
1302.466, 685.0120
1302.948, 684.5990
1303.431, 683.9725
1303.913, 683.6657
1304.395, 683.8601
##END=



