##NAMES=Jahnsite-(CaMnFe)
##RRUFFID=R070733
##IDEAL CHEMISTRY=CaMn^2+^Fe^2+^_2_Fe^3+^_2_(PO_4_)_4_(OH)_2_&#183;8H_2_O
##LOCALITY=Voron'i Tundry, Kola Peninsula, Murmanskaja Oblast', Northern Region, Russia
##OWNER=RRUFF
##SOURCE=Michael Scott
##DESCRIPTION=Orange-brown elongated tabular crystals associated with quartz, spodumene, and schorl.
##STATUS=The identification of this mineral has been confirmed only by single crystal X-ray diffraction.
##URL=rruff.info/R070733
89.15009, 18833.22
89.63220, 19102.38
90.11432, 19298.41
90.59644, 19537.64
91.07855, 19871.42
91.56067, 20203.32
92.04279, 20476.91
92.52490, 20677.36
93.00702, 20829.59
93.48914, 20980.43
93.97125, 21129.01
94.45337, 21231.09
94.93549, 21116.69
95.41760, 20866.70
95.89972, 20586.79
96.38184, 20241.68
96.86395, 19873.23
97.34607, 19601.12
97.82819, 19454.86
98.31030, 19344.70
98.79242, 19221.90
99.27454, 19085.46
99.75665, 18952.61
100.2388, 18834.99
100.7209, 18726.72
101.2030, 18620.62
101.6851, 18514.96
102.1672, 18408.53
102.6494, 18294.25
103.1315, 18148.01
103.6136, 18032.54
104.0957, 17988.02
104.5778, 17994.15
105.0599, 18002.75
105.5421, 17971.48
106.0242, 17893.93
106.5063, 17833.19
106.9884, 17809.31
107.4705, 17786.23
107.9526, 17749.70
108.4348, 17697.05
108.9169, 17633.47
109.3990, 17567.48
109.8811, 17505.16
110.3632, 17426.86
110.8453, 17301.08
111.3275, 17174.73
111.8096, 17094.26
112.2917, 17080.48
112.7738, 17114.76
113.2559, 17132.12
113.7380, 17138.80
114.2202, 17123.84
114.7023, 17067.99
115.1844, 16986.51
115.6665, 16913.18
116.1486, 16871.34
116.6307, 16858.67
117.1129, 16842.10
117.5950, 16807.98
118.0771, 16779.24
118.5592, 16777.05
119.0413, 16803.49
119.5234, 16836.66
120.0056, 16864.35
120.4877, 16885.29
120.9698, 16891.46
121.4519, 16873.64
121.9340, 16839.43
122.4161, 16804.72
122.8982, 16765.88
123.3804, 16735.50
123.8625, 16726.74
124.3446, 16735.39
124.8267, 16740.49
125.3088, 16719.84
125.7909, 16670.51
126.2731, 16636.89
126.7552, 16638.28
127.2373, 16648.21
127.7194, 16655.46
128.2015, 16657.83
128.6837, 16659.25
129.1658, 16664.03
129.6479, 16666.26
130.1300, 16685.57
130.6121, 16752.93
131.0942, 16820.68
131.5764, 16841.63
132.0585, 16794.83
132.5406, 16703.16
133.0227, 16647.73
133.5048, 16675.89
133.9869, 16691.03
134.4691, 16663.38
134.9512, 16616.24
135.4333, 16591.88
135.9154, 16620.62
136.3975, 16698.51
136.8796, 16748.21
137.3618, 16745.85
137.8439, 16743.32
138.3260, 16773.76
138.8081, 16833.58
139.2902, 16886.76
139.7723, 16899.57
140.2545, 16871.53
140.7366, 16854.50
141.2187, 16858.38
141.7008, 16871.32
142.1829, 16879.67
142.6650, 16880.52
143.1472, 16881.97
143.6293, 16892.26
144.1114, 16909.82
144.5935, 16931.55
145.0756, 16963.73
145.5577, 17000.38
146.0399, 17019.39
146.5220, 17003.89
147.0041, 16985.12
147.4862, 16993.18
147.9683, 17026.50
148.4504, 17056.00
148.9326, 17052.30
149.4147, 17011.59
149.8968, 16977.98
150.3789, 16963.08
150.8610, 16955.83
151.3431, 16951.46
151.8252, 16948.84
152.3074, 16949.01
152.7895, 16953.95
153.2716, 16965.56
153.7537, 16978.35
154.2358, 17005.22
154.7179, 17026.58
155.2001, 17020.40
155.6822, 16977.01
156.1643, 16911.66
156.6464, 16871.45
157.1285, 16882.70
157.6106, 16891.39
158.0928, 16885.38
158.5749, 16874.75
159.0570, 16876.38
159.5391, 16901.91
160.0212, 16947.55
160.5033, 16968.82
160.9855, 16937.86
161.4676, 16914.58
161.9497, 16924.26
162.4318, 16958.84
162.9139, 16992.46
163.3960, 17004.50
163.8782, 16993.98
164.3603, 16994.23
164.8424, 17012.24
165.3245, 17034.32
165.8066, 17050.54
166.2887, 17060.51
166.7709, 17071.60
167.2530, 17091.12
167.7351, 17119.17
168.2172, 17147.90
168.6993, 17189.72
169.1814, 17226.65
169.6636, 17228.23
170.1457, 17182.02
170.6278, 17132.79
171.1099, 17135.08
171.5920, 17179.03
172.0741, 17219.78
172.5563, 17237.76
173.0384, 17239.19
173.5205, 17242.03
174.0026, 17251.21
174.4847, 17259.22
174.9668, 17256.63
175.4490, 17244.53
175.9311, 17237.05
176.4132, 17248.06
176.8953, 17276.98
177.3774, 17299.32
177.8595, 17309.72
178.3417, 17312.45
178.8238, 17309.22
179.3059, 17300.36
179.7880, 17287.71
180.2701, 17266.87
180.7522, 17229.38
181.2344, 17219.83
181.7165, 17271.47
182.1986, 17335.24
182.6807, 17385.17
183.1628, 17413.49
183.6449, 17424.10
184.1271, 17419.93
184.6092, 17385.69
185.0913, 17367.78
185.5734, 17381.43
186.0555, 17405.09
186.5376, 17420.90
187.0198, 17421.61
187.5019, 17411.81
187.9840, 17403.42
188.4661, 17398.44
188.9482, 17392.42
189.4303, 17381.48
189.9125, 17370.36
190.3946, 17365.44
190.8767, 17370.19
191.3588, 17382.11
191.8409, 17389.64
192.3230, 17390.75
192.8052, 17389.67
193.2873, 17388.09
193.7694, 17384.69
194.2515, 17374.16
194.7336, 17350.79
195.2157, 17318.40
195.6979, 17317.22
196.1800, 17385.80
196.6621, 17438.85
197.1442, 17437.54
197.6263, 17392.78
198.1084, 17339.05
198.5906, 17295.70
199.0727, 17264.53
199.5548, 17250.11
200.0369, 17269.12
200.5190, 17289.07
201.0011, 17287.53
201.4833, 17266.09
201.9654, 17246.23
202.4475, 17244.82
202.9296, 17260.74
203.4117, 17272.97
203.8938, 17270.04
204.3760, 17270.10
204.8581, 17303.49
205.3402, 17374.70
205.8223, 17423.97
206.3044, 17385.26
206.7865, 17281.24
207.2687, 17192.71
207.7508, 17140.31
208.2329, 17109.71
208.7150, 17083.39
209.1971, 17060.75
209.6792, 17041.19
210.1614, 17020.61
210.6435, 17001.85
211.1256, 16994.61
211.6077, 17014.74
212.0898, 17047.35
212.5719, 17060.20
213.0541, 17049.36
213.5362, 17022.19
214.0183, 16976.01
214.5004, 16918.06
214.9825, 16866.33
215.4646, 16837.26
215.9468, 16824.07
216.4289, 16798.48
216.9110, 16754.38
217.3931, 16704.32
217.8752, 16647.46
218.3573, 16589.38
218.8395, 16546.07
219.3216, 16541.86
219.8037, 16571.86
220.2858, 16570.05
220.7679, 16502.44
221.2500, 16437.71
221.7322, 16417.06
222.2143, 16429.06
222.6964, 16434.61
223.1785, 16388.85
223.6606, 16287.54
224.1427, 16231.02
224.6249, 16252.62
225.1070, 16294.34
225.5891, 16354.69
226.0712, 16421.12
226.5533, 16463.95
227.0354, 16447.72
227.5176, 16362.03
227.9997, 16289.54
228.4818, 16229.00
228.9639, 16183.21
229.4460, 16154.39
229.9281, 16142.58
230.4103, 16147.83
230.8924, 16178.12
231.3745, 16248.30
231.8566, 16274.84
232.3387, 16225.54
232.8208, 16163.48
233.3030, 16109.23
233.7851, 16068.23
234.2672, 16041.72
234.7493, 16033.02
235.2314, 16048.60
235.7135, 16059.21
236.1957, 16060.67
236.6778, 16061.70
237.1599, 16068.86
237.6420, 16081.52
238.1241, 16092.93
238.6062, 16095.03
239.0884, 16084.87
239.5705, 16074.50
240.0526, 16052.43
240.5347, 16038.75
241.0168, 16052.38
241.4989, 16091.41
241.9811, 16134.05
242.4632, 16155.22
242.9453, 16148.18
243.4274, 16137.28
243.9095, 16103.22
244.3916, 16079.70
244.8738, 16095.87
245.3559, 16151.62
245.8380, 16217.89
246.3201, 16261.63
246.8022, 16276.43
247.2843, 16284.54
247.7665, 16283.63
248.2486, 16278.50
248.7307, 16266.14
249.2128, 16248.81
249.6949, 16240.24
250.1770, 16255.79
250.6592, 16300.45
251.1413, 16360.48
251.6234, 16463.13
252.1055, 16561.90
252.5876, 16618.60
253.0697, 16629.61
253.5519, 16622.38
254.0340, 16625.35
254.5161, 16641.46
254.9982, 16658.57
255.4803, 16682.09
255.9624, 16702.97
256.4445, 16707.50
256.9267, 16695.76
257.4088, 16690.51
257.8909, 16719.75
258.3730, 16795.30
258.8551, 16842.07
259.3372, 16836.96
259.8194, 16817.86
260.3015, 16813.23
260.7836, 16826.73
261.2657, 16850.08
261.7478, 16879.53
262.2299, 16917.08
262.7121, 16933.60
263.1942, 16905.21
263.6763, 16871.01
264.1584, 16871.64
264.6405, 16908.94
265.1227, 16939.87
265.6048, 16920.77
266.0869, 16846.74
266.5690, 16791.00
267.0511, 16763.47
267.5332, 16748.79
268.0154, 16735.13
268.4975, 16721.56
268.9796, 16714.71
269.4617, 16729.29
269.9438, 16762.11
270.4259, 16751.15
270.9081, 16647.86
271.3902, 16533.07
271.8723, 16483.84
272.3544, 16499.65
272.8365, 16503.37
273.3186, 16425.98
273.8008, 16275.88
274.2829, 16171.29
274.7650, 16144.54
275.2471, 16141.02
275.7292, 16127.39
276.2113, 16102.07
276.6935, 16064.75
277.1756, 16013.37
277.6577, 15948.12
278.1398, 15882.15
278.6219, 15812.03
279.1040, 15743.68
279.5862, 15688.13
280.0683, 15642.40
280.5504, 15581.71
281.0325, 15483.13
281.5146, 15358.55
281.9967, 15259.56
282.4789, 15194.76
282.9610, 15146.25
283.4431, 15112.03
283.9252, 15088.63
284.4073, 15057.31
284.8894, 15008.61
285.3716, 14943.56
285.8537, 14868.68
286.3358, 14768.04
286.8179, 14677.92
287.3000, 14626.57
287.7821, 14605.52
288.2643, 14582.43
288.7464, 14543.51
289.2285, 14491.58
289.7106, 14433.28
290.1927, 14356.75
290.6748, 14295.08
291.1570, 14280.44
291.6391, 14296.12
292.1212, 14289.20
292.6033, 14234.79
293.0854, 14152.44
293.5675, 14080.54
294.0497, 14016.65
294.5318, 13964.31
295.0139, 13933.12
295.4960, 13914.42
295.9781, 13887.82
296.4602, 13845.55
296.9424, 13795.29
297.4245, 13746.76
297.9066, 13694.49
298.3887, 13661.58
298.8708, 13677.78
299.3529, 13713.87
299.8351, 13715.07
300.3172, 13662.65
300.7993, 13588.06
301.2814, 13532.43
301.7635, 13495.60
302.2456, 13466.26
302.7278, 13448.77
303.2099, 13435.09
303.6920, 13414.43
304.1741, 13384.44
304.6562, 13349.64
305.1383, 13313.87
305.6205, 13277.21
306.1026, 13240.18
306.5847, 13197.75
307.0668, 13157.77
307.5489, 13133.28
308.0310, 13125.70
308.5132, 13115.13
308.9953, 13081.78
309.4774, 13024.25
309.9595, 12969.00
310.4416, 12900.88
310.9237, 12846.79
311.4059, 12840.18
311.8880, 12877.82
312.3701, 12912.81
312.8522, 12909.78
313.3343, 12868.94
313.8164, 12828.75
314.2986, 12781.34
314.7807, 12741.55
315.2628, 12722.03
315.7449, 12719.25
316.2270, 12719.14
316.7091, 12716.14
317.1913, 12707.55
317.6734, 12679.79
318.1555, 12602.81
318.6376, 12541.41
319.1197, 12530.27
319.6018, 12553.44
320.0840, 12575.56
320.5661, 12581.10
321.0482, 12571.04
321.5303, 12545.96
322.0124, 12481.11
322.4945, 12436.72
322.9767, 12450.01
323.4588, 12485.71
323.9409, 12486.74
324.4230, 12429.89
324.9051, 12343.86
325.3872, 12285.52
325.8694, 12271.25
326.3515, 12256.68
326.8336, 12241.32
327.3157, 12223.26
327.7978, 12196.78
328.2799, 12161.22
328.7621, 12127.74
329.2442, 12112.72
329.7263, 12128.89
330.2084, 12132.25
330.6905, 12120.27
331.1726, 12098.12
331.6548, 12063.58
332.1369, 12019.44
332.6190, 11978.97
333.1011, 11958.05
333.5832, 11963.83
334.0653, 11947.45
334.5475, 11878.17
335.0296, 11818.98
335.5117, 11810.64
335.9938, 11841.88
336.4759, 11871.58
336.9580, 11867.04
337.4402, 11828.94
337.9223, 11801.79
338.4044, 11812.44
338.8865, 11804.89
339.3686, 11750.95
339.8507, 11670.26
340.3329, 11595.39
340.8150, 11544.03
341.2971, 11514.23
341.7792, 11497.80
342.2613, 11517.66
342.7434, 11521.98
343.2256, 11499.86
343.7077, 11462.12
344.1898, 11417.65
344.6719, 11370.17
345.1540, 11323.78
345.6361, 11285.91
346.1183, 11255.58
346.6004, 11237.40
347.0825, 11246.03
347.5646, 11255.12
348.0467, 11244.17
348.5288, 11209.86
349.0110, 11165.25
349.4931, 11127.34
349.9752, 11099.16
350.4573, 11065.00
350.9394, 11017.06
351.4215, 10968.74
351.9037, 10922.14
352.3858, 10879.68
352.8679, 10846.73
353.3500, 10827.69
353.8321, 10822.47
354.3142, 10832.08
354.7964, 10890.52
355.2785, 10920.44
355.7606, 10870.80
356.2427, 10773.72
356.7248, 10692.72
357.2069, 10667.32
357.6891, 10680.51
358.1712, 10687.24
358.6533, 10690.91
359.1354, 10679.58
359.6175, 10631.01
360.0996, 10572.29
360.5818, 10535.82
361.0639, 10535.23
361.5460, 10551.71
362.0281, 10569.58
362.5102, 10592.36
362.9923, 10583.15
363.4745, 10494.21
363.9566, 10391.07
364.4387, 10342.70
364.9208, 10361.37
365.4029, 10392.72
365.8850, 10396.64
366.3672, 10377.94
366.8493, 10364.23
367.3314, 10366.37
367.8135, 10367.53
368.2956, 10342.95
368.7777, 10295.16
369.2599, 10263.35
369.7420, 10277.26
370.2241, 10313.67
370.7062, 10334.06
371.1883, 10333.47
371.6704, 10321.26
372.1526, 10301.35
372.6347, 10274.99
373.1168, 10249.83
373.5989, 10221.25
374.0810, 10198.18
374.5631, 10189.22
375.0453, 10193.54
375.5274, 10202.77
376.0095, 10211.70
376.4916, 10222.07
376.9737, 10240.68
377.4558, 10288.95
377.9380, 10320.45
378.4201, 10304.54
378.9022, 10261.47
379.3843, 10230.36
379.8664, 10227.02
380.3485, 10240.94
380.8307, 10250.50
381.3128, 10248.94
381.7949, 10255.88
382.2770, 10281.13
382.7591, 10310.78
383.2412, 10331.22
383.7234, 10340.13
384.2055, 10343.57
384.6876, 10347.76
385.1697, 10351.49
385.6518, 10362.06
386.1339, 10393.05
386.6161, 10417.30
387.0982, 10412.00
387.5803, 10387.06
388.0624, 10371.89
388.5445, 10389.25
389.0266, 10435.65
389.5088, 10472.63
389.9909, 10500.91
390.4730, 10517.35
390.9551, 10507.49
391.4372, 10490.10
391.9193, 10491.52
392.4015, 10523.73
392.8836, 10569.11
393.3657, 10589.10
393.8478, 10567.78
394.3299, 10559.78
394.8120, 10592.12
395.2942, 10625.71
395.7763, 10628.62
396.2584, 10598.33
396.7405, 10564.89
397.2226, 10563.44
397.7047, 10594.35
398.1869, 10606.91
398.6690, 10578.29
399.1511, 10554.57
399.6332, 10567.46
400.1153, 10606.72
400.5974, 10641.98
401.0796, 10655.35
401.5617, 10654.60
402.0438, 10657.25
402.5259, 10664.73
403.0080, 10670.24
403.4901, 10667.37
403.9723, 10660.96
404.4544, 10658.97
404.9365, 10666.46
405.4186, 10672.43
405.9007, 10661.63
406.3828, 10638.55
406.8650, 10629.34
407.3471, 10646.75
407.8292, 10677.78
408.3113, 10703.73
408.7934, 10726.40
409.2755, 10738.07
409.7577, 10723.32
410.2398, 10700.96
410.7219, 10700.41
411.2040, 10726.86
411.6861, 10757.30
412.1682, 10768.05
412.6504, 10755.69
413.1325, 10750.34
413.6146, 10759.92
414.0967, 10769.01
414.5788, 10764.61
415.0609, 10751.74
415.5431, 10748.13
416.0252, 10766.61
416.5073, 10799.82
416.9894, 10812.90
417.4715, 10789.64
417.9536, 10765.27
418.4358, 10729.85
418.9179, 10701.22
419.4000, 10702.98
419.8821, 10740.69
420.3642, 10793.02
420.8463, 10827.28
421.3285, 10835.63
421.8106, 10846.91
422.2927, 10872.13
422.7748, 10890.45
423.2569, 10886.63
423.7390, 10865.18
424.2212, 10843.02
424.7033, 10830.43
425.1854, 10827.89
425.6675, 10841.01
426.1496, 10881.04
426.6317, 10917.43
427.1139, 10937.56
427.5960, 10948.14
428.0781, 10956.45
428.5602, 10963.41
429.0423, 10972.87
429.5244, 10994.84
430.0066, 11029.90
430.4887, 11050.59
430.9708, 11042.99
431.4529, 11022.86
431.9350, 11005.08
432.4171, 10989.11
432.8993, 10985.25
433.3814, 11002.76
433.8635, 11034.58
434.3456, 11073.60
434.8277, 11121.08
435.3098, 11156.75
435.7920, 11158.35
436.2741, 11128.18
436.7562, 11108.26
437.2383, 11102.54
437.7204, 11105.03
438.2025, 11116.17
438.6847, 11133.05
439.1668, 11148.02
439.6489, 11157.22
440.1310, 11162.49
440.6131, 11168.85
441.0952, 11179.97
441.5774, 11187.02
442.0595, 11182.60
442.5416, 11178.10
443.0237, 11184.23
443.5058, 11202.57
443.9879, 11227.89
444.4701, 11256.21
444.9522, 11289.43
445.4343, 11311.08
445.9164, 11316.15
446.3985, 11314.34
446.8806, 11301.57
447.3628, 11284.76
447.8449, 11274.60
448.3270, 11276.35
448.8091, 11289.39
449.2912, 11314.76
449.7733, 11358.25
450.2555, 11397.73
450.7376, 11424.90
451.2197, 11447.46
451.7018, 11473.30
452.1839, 11503.39
452.6660, 11526.57
453.1482, 11530.53
453.6303, 11519.03
454.1124, 11508.12
454.5945, 11496.96
455.0766, 11492.40
455.5587, 11502.40
456.0409, 11523.87
456.5230, 11549.71
457.0051, 11584.34
457.4872, 11618.47
457.9693, 11643.53
458.4514, 11660.54
458.9336, 11675.77
459.4156, 11693.42
459.8978, 11709.65
460.3799, 11710.04
460.8620, 11666.79
461.3441, 11661.64
461.8262, 11745.39
462.3083, 11854.74
462.7905, 11924.97
463.2726, 11943.84
463.7547, 11932.59
464.2368, 11908.74
464.7189, 11867.73
465.2010, 11854.74
465.6832, 11889.67
466.1653, 11929.49
466.6474, 11972.34
467.1295, 12008.32
467.6116, 12020.46
468.0938, 11998.21
468.5759, 11959.63
469.0580, 11947.88
469.5401, 11975.83
470.0222, 11993.98
470.5043, 11985.71
470.9865, 11970.86
471.4686, 11964.87
471.9507, 11967.36
472.4328, 11961.24
472.9149, 11920.99
473.3970, 11860.46
473.8792, 11834.97
474.3613, 11857.88
474.8434, 11882.90
475.3255, 11877.75
475.8076, 11853.50
476.2897, 11832.84
476.7719, 11826.44
477.2540, 11815.06
477.7361, 11778.58
478.2182, 11725.65
478.7003, 11683.15
479.1824, 11661.40
479.6646, 11650.21
480.1467, 11634.81
480.6288, 11614.66
481.1109, 11591.52
481.5930, 11568.06
482.0751, 11539.76
482.5573, 11499.11
483.0394, 11449.18
483.5215, 11403.35
484.0036, 11372.53
484.4857, 11352.79
484.9678, 11317.85
485.4500, 11251.23
485.9321, 11190.61
486.4142, 11147.14
486.8963, 11108.32
487.3784, 11060.16
487.8605, 10999.96
488.3427, 10938.75
488.8248, 10893.86
489.3069, 10866.71
489.7890, 10819.32
490.2711, 10731.35
490.7532, 10647.70
491.2354, 10593.11
491.7175, 10560.74
492.1996, 10534.27
492.6817, 10513.36
493.1638, 10490.07
493.6459, 10457.07
494.1281, 10414.04
494.6102, 10353.63
495.0923, 10261.93
495.5744, 10164.77
496.0565, 10113.52
496.5386, 10117.73
497.0208, 10112.09
497.5029, 10083.18
497.9850, 10036.16
498.4671, 9962.348
498.9492, 9868.320
499.4313, 9793.437
499.9135, 9774.054
500.3956, 9804.341
500.8777, 9804.895
501.3598, 9755.908
501.8419, 9700.815
502.3240, 9637.576
502.8062, 9576.012
503.2883, 9524.647
503.7704, 9486.582
504.2525, 9461.399
504.7346, 9455.672
505.2167, 9475.710
505.6989, 9469.396
506.1810, 9422.483
506.6631, 9362.561
507.1452, 9288.174
507.6273, 9212.271
508.1094, 9163.916
508.5916, 9167.930
509.0737, 9189.633
509.5558, 9181.767
510.0379, 9145.226
510.5200, 9103.828
511.0021, 9060.472
511.4843, 9022.332
511.9664, 9004.229
512.4485, 9009.474
512.9306, 9006.422
513.4127, 8979.817
513.8948, 8945.934
514.3770, 8919.104
514.8591, 8900.647
515.3412, 8889.506
515.8233, 8887.610
516.3054, 8890.769
516.7875, 8872.007
517.2697, 8788.889
517.7518, 8736.370
518.2339, 8745.950
518.7160, 8777.328
519.1981, 8791.552
519.6802, 8780.885
520.1624, 8763.625
520.6445, 8762.042
521.1266, 8776.831
521.6087, 8777.584
522.0908, 8752.222
522.5729, 8730.685
523.0551, 8733.943
523.5372, 8747.144
524.0193, 8744.693
524.5014, 8712.415
524.9835, 8677.689
525.4656, 8674.424
525.9478, 8695.184
526.4299, 8699.841
526.9120, 8675.945
527.3941, 8638.687
527.8762, 8597.277
528.3583, 8550.205
528.8405, 8534.996
529.3226, 8583.368
529.8047, 8639.594
530.2868, 8668.098
530.7689, 8673.951
531.2510, 8677.362
531.7332, 8688.774
532.2153, 8702.646
532.6974, 8703.325
533.1795, 8668.302
533.6616, 8662.261
534.1437, 8718.448
534.6259, 8773.326
535.1080, 8779.178
535.5901, 8744.719
536.0722, 8714.649
536.5543, 8723.753
537.0364, 8759.046
537.5186, 8777.105
538.0007, 8770.851
538.4828, 8775.357
538.9649, 8821.368
539.4470, 8873.873
539.9291, 8884.729
540.4113, 8842.975
540.8934, 8816.019
541.3755, 8851.479
541.8576, 8917.025
542.3397, 8959.937
542.8218, 8974.752
543.3040, 8992.345
543.7861, 9039.728
544.2682, 9110.578
544.7503, 9149.943
545.2324, 9128.833
545.7145, 9116.954
546.1967, 9133.365
546.6788, 9162.705
547.1609, 9193.031
547.6430, 9219.314
548.1251, 9234.923
548.6072, 9227.294
549.0894, 9195.017
549.5715, 9185.406
550.0536, 9213.114
550.5357, 9243.395
551.0178, 9271.668
551.4999, 9291.668
551.9821, 9291.825
552.4642, 9264.682
552.9463, 9233.849
553.4284, 9221.159
553.9105, 9223.109
554.3926, 9227.022
554.8748, 9231.285
555.3569, 9233.784
555.8390, 9230.008
556.3211, 9220.469
556.8032, 9221.313
557.2853, 9245.477
557.7675, 9266.714
558.2496, 9276.434
558.7317, 9273.971
559.2138, 9252.501
559.6959, 9210.581
560.1780, 9168.597
560.6602, 9162.330
561.1423, 9207.859
561.6244, 9224.993
562.1065, 9185.864
562.5886, 9144.711
563.0707, 9114.962
563.5529, 9097.391
564.0350, 9092.195
564.5171, 9101.990
564.9992, 9116.995
565.4813, 9124.051
565.9634, 9123.650
566.4456, 9123.421
566.9277, 9124.417
567.4098, 9127.172
567.8919, 9136.784
568.3740, 9151.824
568.8561, 9153.195
569.3383, 9129.782
569.8204, 9099.436
570.3025, 9076.954
570.7846, 9056.517
571.2667, 9017.047
571.7488, 8949.089
572.2310, 8878.269
572.7131, 8853.164
573.1952, 8891.827
573.6773, 8928.055
574.1594, 8977.539
574.6415, 9009.398
575.1237, 9002.690
575.6058, 8968.558
576.0879, 8929.722
576.5700, 8895.139
577.0521, 8866.516
577.5342, 8847.948
578.0164, 8839.540
578.4985, 8833.138
578.9806, 8830.486
579.4627, 8823.992
579.9448, 8797.375
580.4269, 8754.044
580.9091, 8730.721
581.3912, 8759.839
581.8733, 8788.040
582.3554, 8772.681
582.8375, 8726.800
583.3196, 8687.269
583.8018, 8669.911
584.2839, 8659.263
584.7660, 8625.884
585.2481, 8553.326
585.7302, 8505.652
586.2123, 8501.893
586.6945, 8502.253
587.1766, 8491.232
587.6587, 8471.776
588.1408, 8452.153
588.6229, 8436.156
589.1050, 8421.501
589.5872, 8407.941
590.0693, 8394.952
590.5514, 8367.646
591.0335, 8313.492
591.5156, 8261.319
591.9977, 8247.440
592.4799, 8265.821
592.9620, 8271.700
593.4441, 8250.526
593.9262, 8223.794
594.4083, 8203.147
594.8904, 8186.189
595.3726, 8164.789
595.8547, 8136.360
596.3368, 8113.170
596.8189, 8118.719
597.3010, 8167.211
597.7831, 8176.148
598.2653, 8105.605
598.7474, 8035.640
599.2295, 7985.788
599.7116, 7954.438
600.1937, 7939.098
600.6758, 7941.057
601.1580, 7948.616
601.6401, 7950.330
602.1222, 7947.083
602.6043, 7944.511
603.0864, 7945.243
603.5685, 7939.458
604.0507, 7912.444
604.5328, 7868.590
605.0149, 7848.513
605.4970, 7880.171
605.9791, 7902.614
606.4612, 7890.156
606.9434, 7858.620
607.4255, 7818.200
607.9076, 7776.159
608.3897, 7754.923
608.8718, 7783.510
609.3539, 7860.615
609.8361, 7928.826
610.3182, 8009.779
610.8003, 8044.236
611.2824, 7977.835
611.7645, 7877.367
612.2466, 7812.585
612.7288, 7796.794
613.2109, 7798.498
613.6930, 7800.748
614.1751, 7805.583
614.6572, 7825.807
615.1393, 7861.275
615.6215, 7872.159
616.1036, 7827.097
616.5857, 7743.917
617.0678, 7686.475
617.5499, 7654.899
618.0320, 7649.683
618.5142, 7699.514
618.9963, 7753.845
619.4784, 7777.387
619.9605, 7768.771
620.4426, 7740.422
620.9247, 7696.510
621.4069, 7645.192
621.8890, 7606.016
622.3711, 7578.207
622.8532, 7568.531
623.3353, 7590.998
623.8174, 7620.104
624.2996, 7628.420
624.7817, 7617.370
625.2638, 7607.893
625.7459, 7608.542
626.2280, 7610.229
626.7101, 7608.541
627.1923, 7602.082
627.6744, 7584.289
628.1565, 7552.342
628.6386, 7520.276
629.1207, 7512.063
629.6028, 7534.128
630.0850, 7553.874
630.5671, 7590.335
631.0492, 7603.527
631.5313, 7559.659
632.0134, 7490.349
632.4955, 7445.321
632.9777, 7442.884
633.4598, 7453.176
633.9419, 7445.402
634.4240, 7426.761
634.9061, 7425.067
635.3882, 7446.389
635.8704, 7465.782
636.3525, 7464.429
636.8346, 7445.175
637.3167, 7426.138
637.7988, 7402.979
638.2809, 7385.830
638.7631, 7387.950
639.2452, 7389.168
639.7273, 7362.772
640.2094, 7312.808
640.6915, 7272.259
641.1736, 7269.579
641.6558, 7293.266
642.1379, 7304.277
642.6200, 7301.470
643.1021, 7290.680
643.5842, 7270.097
644.0663, 7245.046
644.5485, 7215.875
645.0306, 7183.132
645.5127, 7169.046
645.9948, 7197.366
646.4769, 7231.464
646.9590, 7240.803
647.4412, 7232.218
647.9233, 7228.619
648.4054, 7239.005
648.8875, 7245.625
649.3696, 7216.242
649.8517, 7137.515
650.3339, 7092.335
650.8160, 7107.461
651.2981, 7125.856
651.7802, 7131.082
652.2623, 7127.138
652.7444, 7120.020
653.2266, 7111.112
653.7087, 7100.117
654.1908, 7083.961
654.6729, 7066.158
655.1550, 7055.437
655.6371, 7052.639
656.1193, 7050.713
656.6014, 7045.977
657.0835, 7037.851
657.5656, 7024.326
658.0477, 6991.744
658.5298, 6972.814
659.0120, 6978.357
659.4941, 6988.632
659.9762, 6992.350
660.4583, 6988.698
660.9404, 6980.867
661.4225, 6971.140
661.9047, 6957.008
662.3868, 6929.235
662.8689, 6888.524
663.3510, 6860.633
663.8331, 6852.411
664.3152, 6855.777
664.7974, 6869.053
665.2795, 6890.749
665.7616, 6895.776
666.2437, 6872.058
666.7258, 6845.038
667.2079, 6821.995
667.6901, 6801.890
668.1722, 6781.157
668.6543, 6760.285
669.1364, 6746.000
669.6185, 6746.206
670.1006, 6758.382
670.5828, 6769.441
671.0649, 6783.279
671.5470, 6782.478
672.0291, 6749.063
672.5112, 6707.520
672.9933, 6686.644
673.4755, 6687.374
673.9576, 6687.737
674.4397, 6678.794
674.9218, 6669.449
675.4039, 6670.547
675.8860, 6676.574
676.3682, 6672.288
676.8503, 6651.952
677.3324, 6626.425
677.8145, 6611.025
678.2966, 6606.253
678.7787, 6608.361
679.2609, 6622.412
679.7430, 6635.985
680.2251, 6653.913
680.7072, 6664.549
681.1893, 6647.081
681.6714, 6593.525
682.1536, 6546.167
682.6357, 6533.064
683.1178, 6537.653
683.5999, 6541.854
684.0820, 6543.150
684.5641, 6536.288
685.0463, 6516.383
685.5284, 6494.911
686.0105, 6503.566
686.4926, 6573.592
686.9747, 6599.186
687.4568, 6537.508
687.9390, 6473.813
688.4211, 6440.341
688.9032, 6430.197
689.3853, 6428.559
689.8674, 6432.060
690.3495, 6437.853
690.8317, 6446.988
691.3138, 6455.937
691.7959, 6455.415
692.2780, 6444.527
692.7601, 6431.452
693.2422, 6421.486
693.7244, 6414.344
694.2065, 6409.223
694.6886, 6410.302
695.1707, 6406.573
695.6528, 6393.207
696.1349, 6379.417
696.6171, 6365.973
697.0992, 6356.820
697.5813, 6363.600
698.0634, 6400.229
698.5455, 6434.899
699.0276, 6421.312
699.5098, 6373.857
699.9919, 6346.265
700.4740, 6349.648
700.9561, 6361.651
701.4382, 6366.224
701.9203, 6363.196
702.4025, 6351.002
702.8846, 6311.347
703.3667, 6287.055
703.8488, 6288.803
704.3309, 6300.820
704.8130, 6314.680
705.2952, 6328.006
705.7773, 6339.095
706.2594, 6347.091
706.7415, 6352.023
707.2236, 6354.177
707.7057, 6353.386
708.1879, 6346.838
708.6700, 6332.390
709.1521, 6321.149
709.6342, 6326.548
710.1163, 6347.214
710.5984, 6350.699
711.0806, 6316.481
711.5627, 6293.063
712.0448, 6298.138
712.5269, 6309.165
713.0090, 6306.482
713.4911, 6289.946
713.9733, 6271.921
714.4554, 6261.550
714.9375, 6252.671
715.4196, 6230.395
715.9017, 6197.744
716.3839, 6181.194
716.8660, 6189.957
717.3481, 6205.289
717.8302, 6207.621
718.3123, 6197.036
718.7944, 6197.999
719.2766, 6227.061
719.7587, 6245.294
720.2408, 6238.000
720.7229, 6222.586
721.2050, 6214.019
721.6871, 6213.566
722.1693, 6214.952
722.6514, 6216.628
723.1335, 6215.225
723.6156, 6202.617
724.0977, 6180.548
724.5798, 6161.188
725.0620, 6147.605
725.5441, 6138.363
726.0262, 6133.285
726.5083, 6132.343
726.9904, 6125.680
727.4725, 6094.189
727.9547, 6081.906
728.4368, 6115.979
728.9189, 6157.872
729.4010, 6172.648
729.8831, 6160.043
730.3652, 6143.199
730.8474, 6136.409
731.3295, 6132.622
731.8116, 6119.570
732.2937, 6099.652
732.7758, 6085.729
733.2579, 6081.521
733.7401, 6079.429
734.2222, 6070.338
734.7043, 6055.055
735.1864, 6053.488
735.6685, 6082.050
736.1506, 6102.959
736.6328, 6118.131
737.1149, 6119.391
737.5970, 6091.066
738.0791, 6040.077
738.5612, 5997.325
739.0433, 5974.790
739.5255, 5972.254
740.0076, 6000.707
740.4897, 6049.275
740.9718, 6082.864
741.4539, 6093.413
741.9360, 6093.314
742.4182, 6091.844
742.9003, 6090.006
743.3824, 6098.230
743.8645, 6134.913
744.3466, 6149.574
744.8287, 6123.950
745.3109, 6086.348
745.7930, 6048.387
746.2751, 6014.008
746.7572, 5991.733
747.2393, 5988.016
747.7214, 5992.448
748.2036, 5989.252
748.6857, 5990.216
749.1678, 6033.297
749.6499, 6118.091
750.1320, 6180.047
750.6141, 6166.896
751.0963, 6096.696
751.5784, 6037.520
752.0605, 5983.325
752.5426, 5958.082
753.0247, 5987.789
753.5068, 6023.034
753.9890, 6038.324
754.4711, 6035.222
754.9532, 6016.584
755.4353, 5967.075
755.9174, 5931.503
756.3995, 5947.261
756.8817, 5980.913
757.3638, 5989.896
757.8459, 5974.352
758.3280, 5960.602
758.8101, 5965.365
759.2922, 5979.120
759.7744, 5982.269
760.2565, 5974.355
760.7386, 5958.732
761.2207, 5928.849
761.7028, 5904.818
762.1849, 5900.880
762.6671, 5911.875
763.1492, 5924.786
763.6313, 5943.168
764.1134, 5954.600
764.5955, 5947.558
765.0776, 5940.057
765.5598, 5954.181
766.0419, 5978.006
766.5240, 5978.525
767.0061, 5940.827
767.4882, 5896.317
767.9703, 5891.439
768.4525, 5917.130
768.9346, 5919.584
769.4167, 5892.448
769.8988, 5870.224
770.3809, 5867.987
770.8630, 5884.076
771.3452, 5920.136
771.8273, 5998.401
772.3094, 6030.166
772.7915, 5978.277
773.2736, 5923.427
773.7557, 5892.371
774.2379, 5880.523
774.7200, 5881.480
775.2021, 5893.176
775.6842, 5909.439
776.1663, 5932.714
776.6484, 5953.915
777.1306, 5954.295
777.6127, 5937.625
778.0948, 5923.682
778.5769, 5919.322
779.0590, 5923.263
779.5411, 5936.725
780.0233, 5960.321
780.5054, 5963.838
780.9875, 5928.512
781.4696, 5904.114
781.9517, 5919.202
782.4338, 5937.136
782.9160, 5921.537
783.3981, 5876.128
783.8802, 5844.580
784.3623, 5845.966
784.8444, 5861.204
785.3265, 5890.688
785.8087, 5920.703
786.2908, 5927.453
786.7729, 5909.164
787.2550, 5883.519
787.7371, 5862.232
788.2192, 5847.970
788.7014, 5851.432
789.1835, 5874.521
789.6656, 5897.645
790.1477, 5921.477
790.6298, 5935.850
791.1119, 5928.028
791.5941, 5903.556
792.0762, 5888.827
792.5583, 5890.127
793.0404, 5890.899
793.5225, 5886.884
794.0046, 5883.248
794.4868, 5882.085
794.9689, 5884.544
795.4510, 5894.497
795.9331, 5915.010
796.4152, 5932.032
796.8973, 5926.572
797.3795, 5907.129
797.8616, 5896.017
798.3437, 5894.369
798.8258, 5891.591
799.3079, 5882.203
799.7900, 5869.572
800.2722, 5859.568
800.7543, 5852.000
801.2364, 5848.177
801.7185, 5859.448
802.2006, 5858.646
802.6827, 5817.788
803.1649, 5772.813
803.6470, 5771.241
804.1291, 5817.387
804.6112, 5849.328
805.0933, 5831.642
805.5754, 5803.440
806.0576, 5786.849
806.5397, 5782.732
807.0218, 5796.995
807.5039, 5827.481
807.9860, 5852.446
808.4681, 5850.819
808.9503, 5830.595
809.4324, 5816.136
809.9145, 5807.608
810.3966, 5802.359
810.8787, 5800.537
811.3608, 5799.826
811.8430, 5796.560
812.3251, 5792.168
812.8072, 5797.747
813.2893, 5836.965
813.7714, 5851.805
814.2535, 5809.190
814.7357, 5766.979
815.2178, 5769.942
815.6999, 5802.849
816.1820, 5825.588
816.6641, 5823.547
817.1462, 5809.584
817.6284, 5783.084
818.1105, 5756.647
818.5926, 5757.554
819.0747, 5781.256
819.5568, 5793.651
820.0389, 5778.094
820.5211, 5756.342
821.0032, 5769.822
821.4853, 5822.997
821.9674, 5829.834
822.4495, 5768.265
822.9316, 5716.475
823.4138, 5705.630
823.8959, 5717.008
824.3780, 5731.506
824.8601, 5749.566
825.3422, 5757.045
825.8243, 5743.884
826.3065, 5730.011
826.7886, 5718.350
827.2707, 5712.977
827.7528, 5725.699
828.2349, 5751.262
828.7170, 5761.758
829.1992, 5732.553
829.6813, 5693.480
830.1633, 5686.550
830.6454, 5703.195
831.1276, 5716.223
831.6097, 5721.372
832.0918, 5726.423
832.5739, 5737.811
833.0560, 5749.986
833.5381, 5742.298
834.0203, 5697.566
834.5024, 5695.658
834.9845, 5780.820
835.4666, 5848.674
835.9487, 5827.999
836.4308, 5766.126
836.9130, 5730.980
837.3951, 5731.290
837.8772, 5731.306
838.3593, 5720.451
838.8414, 5708.994
839.3235, 5703.598
839.8057, 5701.473
840.2878, 5697.130
840.7699, 5689.875
841.2520, 5685.024
841.7341, 5688.202
842.2162, 5695.417
842.6984, 5701.354
843.1805, 5705.206
843.6626, 5699.733
844.1447, 5682.869
844.6268, 5669.792
845.1089, 5674.699
845.5911, 5692.693
846.0732, 5700.430
846.5553, 5691.541
847.0374, 5689.993
847.5195, 5706.206
848.0016, 5720.053
848.4838, 5718.783
848.9659, 5707.522
849.4480, 5693.677
849.9301, 5672.404
850.4122, 5665.809
850.8943, 5702.243
851.3765, 5733.666
851.8586, 5716.535
852.3407, 5674.672
852.8228, 5652.497
853.3049, 5661.492
853.7870, 5675.596
854.2692, 5669.729
854.7513, 5654.939
855.2334, 5653.138
855.7155, 5661.606
856.1976, 5664.032
856.6797, 5655.828
857.1619, 5656.609
857.6440, 5688.224
858.1261, 5741.463
858.6082, 5767.054
859.0903, 5759.841
859.5724, 5740.320
860.0546, 5698.937
860.5367, 5662.243
861.0188, 5646.256
861.5009, 5648.300
861.9830, 5665.750
862.4651, 5714.844
862.9473, 5738.506
863.4294, 5701.530
863.9115, 5661.268
864.3936, 5654.997
864.8757, 5667.566
865.3578, 5670.259
865.8400, 5656.357
866.3221, 5645.253
866.8042, 5654.835
867.2863, 5672.945
867.7684, 5684.667
868.2505, 5690.664
868.7327, 5693.502
869.2148, 5693.856
869.6969, 5690.748
870.1790, 5682.163
870.6611, 5671.284
871.1432, 5670.503
871.6254, 5681.350
872.1075, 5690.240
872.5896, 5696.087
873.0717, 5697.393
873.5538, 5688.557
874.0359, 5676.613
874.5181, 5681.995
875.0002, 5718.906
875.4823, 5741.698
875.9644, 5742.736
876.4465, 5738.000
876.9286, 5731.554
877.4108, 5724.340
877.8929, 5714.449
878.3750, 5702.317
878.8571, 5699.269
879.3392, 5724.711
879.8214, 5747.474
880.3035, 5734.501
880.7856, 5705.317
881.2677, 5693.112
881.7498, 5701.034
882.2319, 5709.538
882.7141, 5704.535
883.1962, 5695.137
883.6783, 5698.540
884.1604, 5712.871
884.6425, 5725.105
885.1246, 5733.475
885.6068, 5744.869
886.0889, 5760.604
886.5710, 5789.127
887.0531, 5856.347
887.5352, 5984.040
888.0173, 6020.408
888.4995, 5899.413
888.9816, 5800.190
889.4637, 5793.749
889.9458, 5821.638
890.4279, 5829.364
890.9100, 5817.974
891.3922, 5809.908
891.8743, 5810.887
892.3564, 5812.257
892.8385, 5796.248
893.3206, 5791.656
893.8027, 5844.433
894.2849, 5929.470
894.7670, 5972.828
895.2491, 5939.784
895.7312, 5887.074
896.2133, 5841.666
896.6954, 5818.868
897.1776, 5868.387
897.6597, 5964.714
898.1418, 6009.603
898.6239, 5969.782
899.1060, 5907.021
899.5881, 5890.567
900.0703, 5908.626
900.5524, 5903.468
901.0345, 5873.531
901.5166, 5856.225
901.9987, 5861.852
902.4808, 5874.894
902.9630, 5884.330
903.4451, 5890.184
903.9272, 5892.023
904.4093, 5885.293
904.8914, 5884.118
905.3735, 5886.973
905.8557, 5897.892
906.3378, 5930.568
906.8199, 5966.594
907.3020, 5975.490
907.7841, 5951.569
908.2662, 5936.734
908.7484, 5938.901
909.2305, 5954.647
909.7126, 6003.123
910.1947, 6051.179
910.6768, 6050.048
911.1589, 6006.552
911.6411, 5977.737
912.1232, 6000.238
912.6053, 6034.676
913.0874, 6042.884
913.5695, 6035.398
914.0516, 6027.045
914.5338, 6020.917
915.0159, 6019.368
915.4980, 6023.425
915.9801, 6036.661
916.4622, 6070.521
916.9443, 6119.593
917.4265, 6146.794
917.9086, 6151.467
918.3907, 6147.639
918.8728, 6137.447
919.3549, 6127.709
919.8370, 6124.319
920.3192, 6127.363
920.8013, 6137.635
921.2834, 6157.105
921.7655, 6179.819
922.2476, 6214.003
922.7297, 6240.132
923.2119, 6239.704
923.6940, 6226.800
924.1761, 6225.149
924.6582, 6236.891
925.1403, 6253.661
925.6224, 6287.080
926.1046, 6310.274
926.5867, 6298.153
927.0688, 6278.625
927.5509, 6284.114
928.0330, 6314.848
928.5151, 6347.763
928.9973, 6374.658
929.4794, 6396.991
929.9615, 6413.620
930.4436, 6427.860
930.9257, 6444.622
931.4078, 6463.173
931.8900, 6478.952
932.3721, 6490.021
932.8542, 6501.042
933.3363, 6517.327
933.8184, 6537.625
934.3005, 6563.439
934.7827, 6591.833
935.2648, 6598.236
935.7469, 6575.838
936.2290, 6562.303
936.7111, 6593.963
937.1932, 6656.540
937.6754, 6698.632
938.1575, 6717.148
938.6396, 6739.555
939.1217, 6768.839
939.6038, 6801.018
940.0859, 6834.507
940.5681, 6868.678
941.0502, 6901.561
941.5323, 6931.642
942.0144, 6969.132
942.4965, 7024.016
942.9786, 7071.966
943.4608, 7103.909
943.9429, 7130.865
944.4250, 7158.164
944.9071, 7187.787
945.3892, 7227.243
945.8713, 7286.924
946.3535, 7340.502
946.8356, 7374.339
947.3177, 7406.769
947.7998, 7444.716
948.2819, 7492.203
948.7640, 7556.081
949.2462, 7637.646
949.7283, 7723.425
950.2104, 7804.259
950.6925, 7887.527
951.1746, 7981.483
951.6567, 8081.695
952.1389, 8186.726
952.6210, 8292.350
953.1031, 8378.246
953.5852, 8428.655
954.0673, 8476.961
954.5494, 8553.084
955.0316, 8665.118
955.5137, 8876.532
955.9958, 9162.968
956.4779, 9341.279
956.9600, 9343.479
957.4421, 9301.697
957.9243, 9359.965
958.4064, 9500.767
958.8885, 9656.990
959.3706, 9831.136
959.8527, 9954.250
960.3348, 10002.90
960.8170, 10055.66
961.2991, 10163.13
961.7812, 10309.92
962.2633, 10462.57
962.7454, 10628.08
963.2275, 10767.32
963.7097, 10860.77
964.1918, 10965.71
964.6739, 11113.70
965.1560, 11267.26
965.6381, 11385.44
966.1202, 11470.75
966.6024, 11557.94
967.0845, 11658.64
967.5666, 11744.19
968.0487, 11773.94
968.5308, 11826.56
969.0129, 11996.40
969.4951, 12197.12
969.9772, 12276.81
970.4593, 12203.24
970.9414, 12137.02
971.4235, 12147.94
971.9056, 12158.81
972.3878, 12126.43
972.8699, 12074.92
973.3520, 12033.81
973.8341, 12000.97
974.3162, 11955.00
974.7983, 11886.27
975.2805, 11803.94
975.7626, 11717.58
976.2447, 11619.43
976.7268, 11491.03
977.2089, 11344.98
977.6910, 11216.47
978.1732, 11111.70
978.6553, 10996.23
979.1374, 10829.95
979.6195, 10653.08
980.1016, 10533.24
980.5837, 10455.74
981.0659, 10387.64
981.5480, 10320.59
982.0301, 10235.52
982.5122, 10121.57
982.9943, 10001.90
983.4764, 9911.471
983.9586, 9845.910
984.4407, 9780.404
984.9228, 9714.571
985.4049, 9652.678
985.8870, 9596.304
986.3691, 9539.364
986.8513, 9476.842
987.3334, 9409.363
987.8155, 9335.865
988.2976, 9254.215
988.7797, 9180.250
989.2618, 9112.639
989.7440, 9061.052
990.2261, 9040.066
990.7082, 9017.005
991.1903, 8944.103
991.6724, 8823.287
992.1545, 8741.342
992.6367, 8722.679
993.1188, 8693.491
993.6009, 8641.423
994.0830, 8581.560
994.5651, 8513.028
995.0472, 8446.267
995.5294, 8402.937
996.0115, 8385.914
996.4936, 8379.441
996.9757, 8433.543
997.4578, 8432.557
997.9399, 8296.277
998.4221, 8133.584
998.9042, 8034.295
999.3863, 7989.537
999.8684, 7945.261
1000.351, 7890.747
1000.833, 7838.368
1001.315, 7785.502
1001.797, 7741.627
1002.279, 7720.606
1002.761, 7707.119
1003.243, 7680.258
1003.725, 7637.941
1004.207, 7593.626
1004.690, 7554.580
1005.172, 7512.799
1005.654, 7449.027
1006.136, 7391.838
1006.618, 7382.146
1007.100, 7401.037
1007.582, 7400.649
1008.064, 7366.631
1008.547, 7327.559
1009.029, 7302.570
1009.511, 7284.483
1009.993, 7272.002
1010.475, 7258.509
1010.957, 7225.708
1011.439, 7179.096
1011.921, 7149.692
1012.403, 7154.218
1012.886, 7168.066
1013.368, 7166.326
1013.850, 7154.360
1014.332, 7138.003
1014.814, 7120.300
1015.296, 7109.395
1015.778, 7106.938
1016.260, 7109.501
1016.742, 7115.766
1017.225, 7121.359
1017.707, 7114.578
1018.189, 7100.747
1018.671, 7104.504
1019.153, 7123.917
1019.635, 7125.892
1020.117, 7098.208
1020.599, 7072.529
1021.082, 7083.506
1021.564, 7120.005
1022.046, 7150.172
1022.528, 7173.159
1023.010, 7172.561
1023.492, 7145.364
1023.974, 7120.767
1024.456, 7113.146
1024.938, 7117.677
1025.421, 7127.395
1025.903, 7142.523
1026.385, 7170.402
1026.867, 7214.508
1027.349, 7234.707
1027.831, 7217.395
1028.313, 7203.340
1028.795, 7222.517
1029.278, 7258.368
1029.760, 7271.812
1030.242, 7258.402
1030.724, 7262.691
1031.206, 7291.870
1031.688, 7314.069
1032.170, 7320.765
1032.652, 7316.271
1033.135, 7298.807
1033.617, 7275.894
1034.099, 7278.516
1034.581, 7321.134
1035.063, 7347.427
1035.545, 7355.514
1036.027, 7349.180
1036.509, 7319.404
1036.991, 7288.736
1037.474, 7285.320
1037.956, 7305.444
1038.438, 7309.479
1038.920, 7284.872
1039.402, 7268.545
1039.884, 7267.474
1040.366, 7267.709
1040.848, 7265.571
1041.330, 7259.597
1041.813, 7245.150
1042.295, 7221.403
1042.777, 7207.112
1043.259, 7216.894
1043.741, 7214.645
1044.223, 7184.760
1044.705, 7154.937
1045.187, 7136.337
1045.670, 7129.428
1046.152, 7136.187
1046.634, 7158.156
1047.116, 7182.271
1047.598, 7222.912
1048.080, 7244.461
1048.562, 7221.418
1049.044, 7193.167
1049.526, 7187.538
1050.009, 7197.998
1050.491, 7208.294
1050.973, 7218.409
1051.455, 7220.635
1051.937, 7198.242
1052.419, 7187.539
1052.901, 7207.498
1053.383, 7239.370
1053.865, 7278.770
1054.348, 7315.053
1054.830, 7317.041
1055.312, 7264.688
1055.794, 7224.450
1056.276, 7213.275
1056.758, 7216.957
1057.240, 7237.594
1057.722, 7263.442
1058.205, 7282.292
1058.687, 7295.098
1059.169, 7311.128
1059.651, 7336.590
1060.133, 7355.804
1060.615, 7361.709
1061.097, 7362.325
1061.579, 7359.717
1062.062, 7356.187
1062.544, 7354.418
1063.026, 7354.290
1063.508, 7353.183
1063.990, 7349.891
1064.472, 7346.192
1064.954, 7336.913
1065.436, 7333.427
1065.918, 7349.853
1066.401, 7373.755
1066.883, 7389.205
1067.365, 7393.323
1067.847, 7386.940
1068.329, 7359.909
1068.811, 7338.552
1069.293, 7341.332
1069.775, 7347.488
1070.257, 7338.476
1070.740, 7322.641
1071.222, 7315.766
1071.704, 7320.140
1072.186, 7325.125
1072.668, 7324.204
1073.150, 7325.632
1073.632, 7342.173
1074.114, 7354.531
1074.597, 7337.433
1075.079, 7307.097
1075.561, 7301.141
1076.043, 7325.519
1076.525, 7329.085
1077.007, 7261.766
1077.489, 7203.499
1077.971, 7204.190
1078.453, 7223.010
1078.936, 7228.132
1079.418, 7220.146
1079.900, 7205.424
1080.382, 7185.546
1080.864, 7169.932
1081.346, 7165.580
1081.828, 7163.229
1082.310, 7162.973
1082.792, 7158.304
1083.275, 7136.301
1083.757, 7106.866
1084.239, 7095.143
1084.721, 7108.003
1085.203, 7112.656
1085.685, 7081.780
1086.167, 7055.073
1086.649, 7059.603
1087.131, 7073.348
1087.614, 7076.303
1088.096, 7070.372
1088.578, 7066.096
1089.060, 7066.543
1089.542, 7061.105
1090.024, 7031.803
1090.506, 7012.286
1090.988, 7033.782
1091.471, 7061.520
1091.953, 7061.077
1092.435, 7039.062
1092.917, 7017.498
1093.399, 7001.373
1093.881, 6987.331
1094.363, 6979.886
1094.845, 6967.050
1095.328, 6933.119
1095.810, 6899.518
1096.292, 6886.517
1096.774, 6890.364
1097.256, 6901.119
1097.738, 6919.238
1098.220, 6925.164
1098.702, 6902.557
1099.184, 6879.284
1099.667, 6870.289
1100.149, 6863.365
1100.631, 6842.371
1101.113, 6815.386
1101.595, 6806.590
1102.077, 6825.070
1102.559, 6832.732
1103.041, 6814.112
1103.523, 6790.873
1104.006, 6746.803
1104.488, 6722.883
1104.970, 6782.563
1105.452, 6883.083
1105.934, 6915.309
1106.416, 6851.567
1106.898, 6792.387
1107.380, 6754.089
1107.863, 6723.989
1108.345, 6696.178
1108.827, 6677.072
1109.309, 6679.563
1109.791, 6692.932
1110.273, 6691.125
1110.755, 6668.510
1111.237, 6648.597
1111.719, 6637.341
1112.202, 6623.575
1112.684, 6599.648
1113.166, 6577.294
1113.648, 6561.536
1114.130, 6553.987
1114.612, 6564.064
1115.094, 6603.659
1115.576, 6605.326
1116.058, 6534.798
1116.541, 6478.694
1117.023, 6457.522
1117.505, 6447.270
1117.987, 6439.292
1118.469, 6428.592
1118.951, 6401.329
1119.433, 6351.635
1119.915, 6329.493
1120.398, 6348.109
1120.880, 6367.147
1121.362, 6383.121
1121.844, 6393.597
1122.326, 6400.207
1122.808, 6396.511
1123.290, 6365.207
1123.772, 6303.346
1124.255, 6281.874
1124.737, 6317.979
1125.219, 6339.600
1125.701, 6332.675
1126.183, 6319.557
1126.665, 6311.772
1127.147, 6306.234
1127.629, 6298.844
1128.111, 6289.398
1128.594, 6272.622
1129.076, 6246.779
1129.558, 6223.227
1130.040, 6201.536
1130.522, 6193.197
1131.004, 6205.506
1131.486, 6227.602
1131.968, 6246.468
1132.450, 6261.606
1132.933, 6270.151
1133.415, 6272.079
1133.897, 6262.975
1134.379, 6242.193
1134.861, 6221.498
1135.343, 6205.732
1135.825, 6195.100
1136.307, 6189.715
1136.790, 6189.803
1137.272, 6201.260
1137.754, 6219.818
1138.236, 6216.994
1138.718, 6193.624
1139.200, 6177.223
1139.682, 6177.223
1140.164, 6180.692
1140.646, 6175.817
1141.129, 6176.530
1141.611, 6167.635
1142.093, 6171.456
1142.575, 6169.666
1143.057, 6162.953
1143.539, 6154.493
1144.021, 6146.223
1144.503, 6145.582
1144.985, 6161.233
1145.468, 6175.154
1145.950, 6160.153
1146.432, 6133.674
1146.914, 6119.579
1147.396, 6116.389
1147.878, 6120.833
1148.360, 6129.492
1148.842, 6131.222
1149.325, 6117.446
1149.807, 6107.927
1150.289, 6102.432
1150.771, 6123.835
1151.253, 6244.882
1151.735, 6375.442
1152.217, 6363.920
1152.699, 6235.688
1153.182, 6145.115
1153.664, 6149.128
1154.146, 6163.791
1154.628, 6147.216
1155.110, 6132.655
1155.592, 6137.715
1156.074, 6154.877
1156.556, 6189.507
1157.038, 6226.679
1157.521, 6227.621
1158.003, 6178.485
1158.485, 6143.973
1158.967, 6148.695
1159.449, 6154.537
1159.931, 6146.343
1160.413, 6140.079
1160.895, 6153.076
1161.377, 6172.924
1161.860, 6173.961
1162.342, 6153.536
1162.824, 6141.043
1163.306, 6141.210
1163.788, 6140.591
1164.270, 6133.338
1164.752, 6133.701
1165.234, 6156.241
1165.717, 6180.076
1166.199, 6176.814
1166.681, 6149.574
1167.163, 6124.067
1167.645, 6095.588
1168.127, 6092.765
1168.609, 6123.802
1169.091, 6152.675
1169.573, 6166.748
1170.056, 6171.279
1170.538, 6171.413
1171.020, 6165.798
1171.502, 6142.800
1171.984, 6105.225
1172.466, 6113.210
1172.948, 6165.632
1173.430, 6184.603
1173.912, 6150.931
1174.395, 6120.027
1174.877, 6131.813
1175.359, 6161.266
1175.841, 6167.840
1176.323, 6161.435
1176.805, 6167.843
1177.287, 6184.155
1177.769, 6203.294
1178.252, 6221.506
1178.734, 6228.509
1179.216, 6219.300
1179.698, 6207.030
1180.180, 6200.757
1180.662, 6201.116
1181.144, 6217.071
1181.626, 6234.631
1182.109, 6232.066
1182.591, 6213.763
1183.073, 6194.008
1183.555, 6177.200
1184.037, 6165.369
1184.519, 6161.289
1185.001, 6160.135
1185.483, 6161.840
1185.965, 6163.011
1186.448, 6161.298
1186.930, 6157.122
1187.412, 6154.503
1187.894, 6151.891
1188.376, 6134.603
1188.858, 6091.100
1189.340, 6049.021
1189.822, 6004.842
1190.304, 5971.662
1190.787, 5961.695
1191.269, 5958.311
1191.751, 5950.113
1192.233, 5936.385
1192.715, 5913.090
1193.197, 5874.470
1193.679, 5854.974
1194.161, 5866.882
1194.644, 5858.895
1195.126, 5813.842
1195.608, 5766.588
1196.090, 5737.787
1196.572, 5722.321
1197.054, 5712.918
1197.536, 5708.587
1198.018, 5704.817
1198.500, 5700.856
1198.983, 5668.403
1199.465, 5606.883
1199.947, 5580.280
1200.429, 5614.684
1200.911, 5660.711
1201.393, 5670.672
1201.875, 5659.230
1202.357, 5647.854
1202.839, 5637.652
1203.322, 5635.079
1203.804, 5635.291
1204.286, 5620.834
1204.768, 5591.380
1205.250, 5569.835
1205.732, 5571.185
1206.214, 5573.570
1206.696, 5550.534
1207.179, 5530.274
1207.661, 5550.462
1208.143, 5579.479
1208.625, 5572.871
1209.107, 5538.316
1209.589, 5507.413
1210.071, 5485.369
1210.553, 5485.376
1211.036, 5543.312
1211.518, 5578.727
1212.000, 5542.353
1212.482, 5502.380
1212.964, 5509.358
1213.446, 5536.497
1213.928, 5541.643
1214.410, 5525.736
1214.892, 5509.372
1215.375, 5490.019
1215.857, 5477.610
1216.339, 5474.967
1216.821, 5471.471
1217.303, 5460.840
1217.785, 5457.766
1218.267, 5478.198
1218.749, 5509.617
1219.231, 5521.913
1219.714, 5515.548
1220.196, 5489.425
1220.678, 5447.221
1221.160, 5436.033
1221.642, 5461.169
1222.124, 5475.767
1222.606, 5454.709
1223.088, 5425.734
1223.571, 5422.272
1224.053, 5428.011
1224.535, 5407.030
1225.017, 5382.573
1225.499, 5406.353
1225.981, 5459.871
1226.463, 5485.600
1226.945, 5471.908
1227.427, 5453.290
1227.910, 5443.496
1228.392, 5440.645
1228.874, 5452.049
1229.356, 5460.861
1229.838, 5450.819
1230.320, 5435.905
1230.802, 5432.002
1231.284, 5438.062
1231.766, 5445.905
1232.249, 5455.120
1232.731, 5465.132
1233.213, 5486.146
1233.695, 5488.626
1234.177, 5453.791
1234.659, 5424.898
1235.141, 5427.291
1235.623, 5446.992
1236.106, 5467.923
1236.588, 5486.773
1237.070, 5474.613
1237.552, 5430.082
1238.034, 5417.224
1238.516, 5439.923
1238.998, 5452.000
1239.480, 5439.459
1239.963, 5426.462
1240.445, 5431.294
1240.927, 5445.096
1241.409, 5457.857
1241.891, 5468.452
1242.373, 5481.685
1242.855, 5487.952
1243.337, 5452.092
1243.819, 5390.860
1244.302, 5374.529
1244.784, 5426.563
1245.266, 5468.223
1245.748, 5439.292
1246.230, 5408.216
1246.712, 5415.612
1247.194, 5428.538
1247.676, 5418.721
1248.158, 5401.073
1248.641, 5398.874
1249.123, 5411.379
1249.605, 5420.498
1250.087, 5422.384
1250.569, 5428.030
1251.051, 5440.275
1251.533, 5450.456
1252.015, 5458.264
1252.498, 5458.514
1252.980, 5446.242
1253.462, 5427.917
1253.944, 5412.932
1254.426, 5402.066
1254.908, 5404.476
1255.390, 5417.436
1255.872, 5408.317
1256.354, 5379.195
1256.837, 5375.958
1257.319, 5411.083
1257.801, 5444.304
1258.283, 5445.510
1258.765, 5432.152
1259.247, 5416.082
1259.729, 5404.115
1260.211, 5408.432
1260.693, 5419.975
1261.176, 5421.189
1261.658, 5416.834
1262.140, 5430.462
1262.622, 5470.285
1263.104, 5495.943
1263.586, 5490.754
1264.068, 5475.516
1264.550, 5438.432
1265.033, 5413.354
1265.515, 5425.588
1265.997, 5451.936
1266.479, 5468.786
1266.961, 5477.547
1267.443, 5485.290
1267.925, 5493.979
1268.407, 5486.694
1268.890, 5460.909
1269.372, 5443.166
1269.854, 5439.107
1270.336, 5449.725
1270.818, 5476.729
1271.300, 5500.917
1271.782, 5494.040
1272.264, 5473.958
1272.746, 5478.367
1273.229, 5494.235
1273.711, 5494.606
1274.193, 5484.341
1274.675, 5483.060
1275.157, 5492.234
1275.639, 5493.690
1276.121, 5477.504
1276.603, 5460.074
1277.085, 5444.147
1277.568, 5435.453
1278.050, 5446.159
1278.532, 5456.346
1279.014, 5436.864
1279.496, 5411.163
1279.978, 5432.476
1280.460, 5499.825
1280.942, 5526.450
1281.425, 5501.175
1281.907, 5473.788
1282.389, 5444.255
1282.871, 5431.095
1283.353, 5441.763
1283.835, 5456.267
1284.317, 5459.284
1284.799, 5456.595
1285.281, 5456.858
1285.764, 5459.483
1286.246, 5463.192
1286.728, 5467.834
1287.210, 5473.393
1287.692, 5479.779
1288.174, 5486.725
1288.656, 5492.742
##END=



