##NAMES=Jamesonite
##RRUFFID=R050481
##IDEAL CHEMISTRY=Pb^2+^_4_Fe^2+^Sb^3+^_6_S^2-^_14_
##LOCALITY=Itos mine, Oruro City, Bolivia
##OWNER=RRUFF
##SOURCE=California Institute of Technology
##DESCRIPTION=A group of gray-black thickly acicular crystals
##STATUS=The identification of this mineral has been confirmed by X-ray diffraction and chemical analysis
##URL=rruff.info/R050481
##MEASURED CHEMISTRY=Pb_4.00_Fe_1.00_(Sb_5.97_As_0.03_)_Î£=6_S_14.00_
116.706, 666.515
117.189, 679.615
117.671, 692.186
118.153, 717.730
118.635, 753.959
119.117, 816.679
119.599, 927.478
120.081, 1071.895
120.563, 1232.958
121.046, 1404.909
121.528, 1589.920
122.010, 1795.170
122.492, 2024.335
122.974, 2264.995
123.456, 2517.952
123.938, 2775.114
124.420, 3025.293
124.902, 3261.642
125.385, 3485.864
125.867, 3704.958
126.349, 3934.771
126.831, 4134.008
127.313, 4306.128
127.795, 4440.660
128.277, 4515.910
128.760, 4495.096
129.242, 4383.492
129.724, 4294.893
130.206, 4253.410
130.688, 4211.812
131.170, 4144.039
131.652, 4057.494
132.134, 3976.847
132.616, 3921.981
133.098, 3893.587
133.581, 3883.344
134.063, 3905.897
134.545, 3935.509
135.027, 3959.241
135.509, 3979.338
135.991, 4008.414
136.473, 4060.178
136.955, 4138.330
137.438, 4226.878
137.920, 4312.009
138.402, 4416.485
138.884, 4558.403
139.366, 4735.534
139.848, 4929.757
140.330, 5119.797
140.812, 5312.065
141.294, 5482.383
141.777, 5623.668
142.259, 5752.317
142.741, 5877.489
143.223, 6001.064
143.705, 6118.737
144.187, 6223.038
144.669, 6295.729
145.151, 6393.642
145.633, 6562.746
146.116, 6726.444
146.598, 6822.366
147.080, 6835.606
147.562, 6800.793
148.044, 6772.154
148.526, 6763.734
149.008, 6736.186
149.490, 6671.831
149.973, 6597.763
150.455, 6541.813
150.937, 6512.164
151.419, 6493.011
151.901, 6455.921
152.383, 6389.331
152.865, 6324.343
153.347, 6253.479
153.829, 6188.834
154.312, 6145.524
154.794, 6129.189
155.276, 6130.979
155.758, 6135.052
156.240, 6139.372
156.722, 6149.769
157.204, 6163.062
157.686, 6183.937
158.169, 6221.822
158.651, 6281.670
159.133, 6352.854
159.615, 6411.810
160.097, 6448.697
160.579, 6499.396
161.061, 6581.838
161.543, 6682.826
162.025, 6777.608
162.508, 6854.803
162.990, 6926.981
163.472, 7023.797
163.954, 7157.701
164.436, 7274.615
164.918, 7335.334
165.400, 7365.631
165.882, 7427.625
166.365, 7552.474
166.847, 7701.351
167.329, 7798.572
167.811, 7830.821
168.293, 7866.719
168.775, 7940.784
169.257, 8041.330
169.739, 8136.148
170.221, 8216.801
170.704, 8283.350
171.186, 8338.179
171.668, 8381.962
172.150, 8415.590
172.632, 8431.994
173.114, 8437.160
173.596, 8455.390
174.078, 8506.552
174.561, 8558.878
175.043, 8562.099
175.525, 8505.155
176.007, 8455.009
176.489, 8465.547
176.971, 8520.030
177.453, 8541.548
177.935, 8496.186
178.417, 8418.730
178.900, 8354.390
179.382, 8303.210
179.864, 8262.160
180.346, 8239.333
180.828, 8229.058
181.310, 8198.204
181.792, 8122.145
182.274, 8038.556
182.757, 7991.834
183.239, 7985.114
183.721, 7988.560
184.203, 7979.904
184.685, 7962.730
185.167, 7961.890
185.649, 7994.134
186.131, 8033.893
186.613, 8052.182
187.096, 8047.419
187.578, 8042.671
188.060, 8055.725
188.542, 8083.839
189.024, 8107.795
189.506, 8120.540
189.988, 8130.932
190.470, 8150.967
190.952, 8180.716
191.435, 8203.164
191.917, 8189.339
192.399, 8149.005
192.881, 8156.601
193.363, 8265.224
193.845, 8380.499
194.327, 8412.198
194.809, 8364.452
195.292, 8324.124
195.774, 8363.426
196.256, 8468.325
196.738, 8546.646
197.220, 8578.893
197.702, 8586.682
198.184, 8589.044
198.666, 8585.829
199.148, 8574.626
199.631, 8539.997
200.113, 8490.476
200.595, 8478.998
201.077, 8539.516
201.559, 8602.046
202.041, 8608.371
202.523, 8568.754
203.005, 8533.754
203.488, 8542.376
203.970, 8583.852
204.452, 8607.226
204.934, 8600.409
205.416, 8586.091
205.898, 8576.613
206.380, 8572.104
206.862, 8573.576
207.344, 8586.605
207.827, 8606.899
208.309, 8617.186
208.791, 8610.395
209.273, 8604.372
209.755, 8607.851
210.237, 8620.071
210.719, 8639.850
211.201, 8672.771
211.684, 8712.956
212.166, 8740.785
212.648, 8748.207
213.130, 8759.453
213.612, 8786.701
214.094, 8827.070
214.576, 8877.534
215.058, 8942.192
215.540, 9014.231
216.023, 9079.980
216.505, 9142.600
216.987, 9190.371
217.469, 9208.920
217.951, 9211.221
218.433, 9214.728
218.915, 9222.129
219.397, 9237.291
219.880, 9269.163
220.362, 9321.938
220.844, 9377.944
221.326, 9432.037
221.808, 9483.043
222.290, 9528.098
222.772, 9564.563
223.254, 9597.520
223.736, 9635.809
224.219, 9681.247
224.701, 9721.650
225.183, 9752.076
225.665, 9773.924
226.147, 9785.007
226.629, 9778.776
227.111, 9774.450
227.593, 9796.527
228.076, 9846.428
228.558, 9894.368
229.040, 9931.084
229.522, 9958.788
230.004, 9978.847
230.486, 9989.607
230.968, 9998.946
231.450, 10022.090
231.932, 10056.920
232.415, 10064.110
232.897, 10013.830
233.379, 9945.652
233.861, 9903.849
234.343, 9892.333
234.825, 9890.449
235.307, 9890.916
235.789, 9891.603
236.271, 9882.245
236.754, 9861.956
237.236, 9827.436
237.718, 9773.056
238.200, 9699.199
238.682, 9625.142
239.164, 9562.988
239.646, 9508.267
240.128, 9446.309
240.611, 9371.385
241.093, 9296.317
241.575, 9240.991
242.057, 9201.381
242.539, 9146.976
243.021, 9061.149
243.503, 8955.314
243.985, 8842.395
244.467, 8719.539
244.950, 8608.991
245.432, 8544.867
245.914, 8514.854
246.396, 8469.922
246.878, 8391.389
247.360, 8297.201
247.842, 8203.264
248.324, 8110.497
248.807, 8026.062
249.289, 7959.384
249.771, 7906.631
250.253, 7847.481
250.735, 7774.913
251.217, 7700.059
251.699, 7630.159
252.181, 7565.276
252.663, 7502.759
253.146, 7440.565
253.628, 7380.304
254.110, 7327.250
254.592, 7286.246
255.074, 7246.455
255.556, 7201.526
256.038, 7153.405
256.520, 7107.536
257.003, 7065.765
257.485, 7028.622
257.967, 6998.626
258.449, 6980.875
258.931, 6959.641
259.413, 6927.834
259.895, 6890.215
260.377, 6850.868
260.859, 6809.678
261.341, 6775.964
261.824, 6768.748
262.306, 6799.164
262.788, 6826.936
263.270, 6851.906
263.752, 6870.509
264.234, 6873.578
264.716, 6860.202
265.198, 6847.585
265.681, 6855.763
266.163, 6889.093
266.645, 6935.056
267.127, 7007.227
267.609, 7081.165
268.091, 7138.479
268.573, 7179.548
269.055, 7217.162
269.538, 7261.151
270.020, 7310.973
270.502, 7375.496
270.984, 7470.053
271.466, 7560.599
271.948, 7632.066
272.430, 7687.682
272.912, 7738.071
273.394, 7789.577
273.877, 7841.958
274.359, 7892.551
274.841, 7952.690
275.323, 7997.896
275.805, 8031.498
276.287, 8045.546
276.769, 8025.304
277.251, 7963.251
277.733, 7873.831
278.216, 7796.574
278.698, 7758.684
279.180, 7687.779
279.662, 7571.087
280.144, 7427.165
280.626, 7270.412
281.108, 7105.711
281.590, 6928.869
282.073, 6730.218
282.555, 6495.694
283.037, 6277.452
283.519, 6091.075
284.001, 5909.753
284.483, 5716.416
284.965, 5512.292
285.447, 5316.140
285.930, 5149.499
286.412, 5013.841
286.894, 4872.472
287.376, 4715.317
287.858, 4564.611
288.340, 4428.309
288.822, 4306.057
289.304, 4196.421
289.786, 4101.300
290.268, 4017.254
290.751, 3931.168
291.233, 3835.692
291.715, 3754.913
292.197, 3701.357
292.679, 3665.839
293.161, 3641.170
293.643, 3630.735
294.125, 3618.269
294.608, 3573.970
295.090, 3492.390
295.572, 3425.354
296.054, 3398.552
296.536, 3390.540
297.018, 3377.864
297.500, 3356.921
297.982, 3339.167
298.465, 3337.840
298.947, 3348.685
299.429, 3349.144
299.911, 3328.464
300.393, 3304.818
300.875, 3295.941
301.357, 3300.833
301.839, 3319.349
302.321, 3367.823
302.804, 3424.197
303.286, 3451.890
303.768, 3444.201
304.250, 3426.712
304.732, 3413.865
305.214, 3408.285
305.696, 3428.407
306.178, 3501.656
306.660, 3580.536
307.143, 3628.383
307.625, 3648.849
308.107, 3665.042
308.589, 3688.390
309.071, 3719.386
309.553, 3759.670
310.035, 3817.338
310.517, 3873.122
311.000, 3917.040
311.482, 3956.885
311.964, 4003.539
312.446, 4061.058
312.928, 4128.093
313.410, 4200.972
313.892, 4270.340
314.374, 4364.160
314.857, 4500.681
315.339, 4648.875
315.821, 4783.511
316.303, 4901.705
316.785, 5016.341
317.267, 5139.968
317.749, 5269.212
318.231, 5424.686
318.713, 5632.926
319.195, 5839.767
319.678, 6023.508
320.160, 6189.979
320.642, 6352.592
321.124, 6519.054
321.606, 6691.306
322.088, 6885.619
322.570, 7129.681
323.052, 7352.979
323.535, 7539.084
324.017, 7698.567
324.499, 7842.251
324.981, 7975.216
325.463, 8092.888
325.945, 8197.850
326.427, 8298.390
326.909, 8341.104
327.392, 8292.162
327.874, 8194.992
328.356, 8077.663
328.838, 7941.369
329.320, 7768.987
329.802, 7538.523
330.284, 7260.218
330.766, 6973.849
331.248, 6682.196
331.731, 6388.542
332.213, 6092.279
332.695, 5796.991
333.177, 5505.677
333.659, 5211.683
334.141, 4928.973
334.623, 4678.135
335.105, 4459.242
335.587, 4253.991
336.070, 4052.937
336.552, 3860.188
337.034, 3682.744
337.516, 3527.050
337.998, 3375.818
338.480, 3212.565
338.962, 3049.620
339.444, 2912.182
339.927, 2808.919
340.409, 2728.551
340.891, 2654.857
341.373, 2588.615
341.855, 2526.818
342.337, 2468.827
342.819, 2415.723
343.301, 2370.313
343.784, 2331.488
344.266, 2292.579
344.748, 2248.430
345.230, 2199.116
345.712, 2142.424
346.194, 2061.420
346.676, 1991.358
347.158, 1940.889
347.640, 1907.491
348.122, 1891.228
348.605, 1893.142
349.087, 1899.808
349.569, 1874.432
350.051, 1788.600
350.533, 1729.833
351.015, 1729.544
351.497, 1740.714
351.979, 1727.778
352.462, 1687.182
352.944, 1643.726
353.426, 1625.009
353.908, 1630.678
354.390, 1626.253
354.872, 1605.258
355.354, 1580.723
355.836, 1555.035
356.319, 1531.581
356.801, 1519.106
357.283, 1530.216
357.765, 1547.857
358.247, 1539.949
358.729, 1503.399
359.211, 1476.832
359.693, 1487.124
360.175, 1512.621
360.658, 1513.484
361.140, 1478.103
361.622, 1445.399
362.104, 1438.928
362.586, 1449.597
363.068, 1459.272
363.550, 1464.333
364.032, 1462.716
364.514, 1450.302
364.997, 1424.832
365.479, 1401.438
365.961, 1379.092
366.443, 1360.367
366.925, 1348.876
367.407, 1343.256
367.889, 1338.258
368.371, 1330.284
368.853, 1319.911
369.336, 1310.883
369.818, 1303.815
370.300, 1297.427
370.782, 1288.793
371.264, 1281.993
371.746, 1285.008
372.228, 1299.287
372.711, 1313.327
373.193, 1304.336
373.675, 1256.277
374.157, 1238.551
374.639, 1296.666
375.121, 1346.619
375.603, 1340.678
376.085, 1291.883
376.567, 1248.734
377.049, 1248.340
377.532, 1275.903
378.014, 1279.739
378.496, 1249.370
378.978, 1223.922
379.460, 1233.307
379.942, 1252.447
380.424, 1251.387
380.906, 1219.042
381.389, 1183.497
381.871, 1164.987
382.353, 1161.950
382.835, 1171.453
383.317, 1198.102
383.799, 1224.987
384.281, 1226.461
384.763, 1203.022
385.246, 1188.003
385.728, 1197.585
386.210, 1210.645
386.692, 1206.767
387.174, 1187.218
387.656, 1167.139
388.138, 1156.062
388.620, 1152.651
389.102, 1149.285
389.585, 1148.878
390.067, 1144.934
390.549, 1131.044
391.031, 1115.550
391.513, 1106.692
391.995, 1107.163
392.477, 1116.278
392.959, 1135.992
393.441, 1172.537
393.924, 1194.253
394.406, 1189.382
394.888, 1180.143
395.370, 1174.784
395.852, 1171.752
396.334, 1165.120
396.816, 1149.142
397.298, 1129.931
397.780, 1124.171
398.263, 1135.570
398.745, 1146.980
399.227, 1156.318
399.709, 1160.425
400.191, 1153.525
400.673, 1133.505
401.155, 1115.240
401.638, 1112.400
402.120, 1118.436
402.602, 1112.983
403.084, 1089.635
403.566, 1071.190
404.048, 1084.538
404.530, 1126.700
405.012, 1147.478
405.494, 1124.904
405.977, 1098.702
406.459, 1094.929
406.941, 1105.619
407.423, 1107.861
407.905, 1090.402
408.387, 1062.960
408.869, 1046.847
409.351, 1042.616
409.833, 1050.652
410.316, 1085.740
410.798, 1121.167
411.280, 1137.566
411.762, 1134.950
412.244, 1125.508
412.726, 1118.768
413.208, 1114.379
413.690, 1108.676
414.172, 1101.544
414.655, 1093.076
415.137, 1082.373
415.619, 1070.880
416.101, 1058.565
416.583, 1044.599
417.065, 1035.856
417.547, 1048.413
418.029, 1078.106
418.512, 1079.999
418.994, 1030.057
419.476, 978.086
419.958, 983.001
420.440, 1033.316
420.922, 1067.923
421.404, 1054.950
421.886, 1033.895
422.368, 1046.406
422.851, 1084.889
423.333, 1107.912
423.815, 1091.232
424.297, 1050.645
424.779, 1029.518
425.261, 1048.382
425.743, 1055.495
426.225, 1035.795
426.708, 1011.344
427.190, 1001.543
427.672, 1007.614
428.154, 1017.780
428.636, 1020.550
429.118, 1016.405
429.600, 1023.382
430.082, 1063.289
430.565, 1083.645
431.047, 1053.265
431.529, 1005.006
432.011, 980.344
432.493, 993.579
432.975, 1018.586
433.457, 1024.409
433.939, 1012.547
434.421, 1006.329
434.904, 1012.726
435.386, 1020.201
435.868, 1009.452
436.350, 987.570
436.832, 989.552
437.314, 1061.230
437.796, 1131.402
438.278, 1126.835
438.760, 1062.093
439.243, 1003.081
439.725, 978.893
440.207, 980.860
440.689, 990.966
441.171, 1017.285
441.653, 1037.448
442.135, 1055.028
442.617, 1063.250
443.099, 1049.353
443.582, 1018.796
444.064, 994.739
444.546, 997.825
445.028, 1022.271
445.510, 1026.784
445.992, 993.207
446.474, 970.872
446.957, 981.751
447.439, 1001.881
447.921, 1004.898
448.403, 985.428
448.885, 969.381
449.367, 986.998
449.849, 1029.142
450.331, 1055.428
450.813, 1060.300
451.296, 1053.634
451.778, 1036.692
452.260, 1013.346
452.742, 996.871
453.224, 991.001
453.706, 989.705
454.188, 993.183
454.670, 998.504
455.152, 999.001
455.635, 992.419
456.117, 982.987
456.599, 976.340
457.081, 972.497
457.563, 971.696
458.045, 977.906
458.527, 982.705
459.009, 980.816
459.491, 974.852
459.974, 970.822
460.456, 972.264
460.938, 975.323
461.420, 970.459
461.902, 954.676
462.384, 944.035
462.866, 940.053
463.348, 944.029
463.831, 963.555
464.313, 994.960
464.795, 1015.248
465.277, 1004.720
465.759, 981.344
466.241, 971.087
466.723, 973.717
467.205, 973.214
467.687, 960.104
468.170, 940.531
468.652, 930.448
469.134, 933.291
469.616, 936.665
470.098, 939.522
470.580, 941.738
471.062, 944.446
471.544, 946.835
472.026, 944.906
472.509, 934.339
472.991, 917.259
473.473, 910.185
473.955, 921.625
474.437, 929.307
474.919, 926.290
475.401, 919.852
475.883, 914.325
476.366, 911.037
476.848, 913.840
477.330, 933.569
477.812, 962.564
478.294, 970.030
478.776, 949.332
479.258, 929.263
479.740, 931.608
480.223, 947.406
480.705, 947.658
481.187, 914.031
481.669, 892.746
482.151, 914.940
482.633, 955.319
483.115, 979.834
483.597, 981.094
484.079, 968.782
484.561, 950.856
485.044, 926.900
485.526, 910.363
486.008, 908.913
486.490, 906.730
486.972, 894.977
487.454, 883.378
487.936, 887.085
488.418, 910.284
488.901, 934.160
489.383, 935.068
489.865, 915.129
490.347, 897.841
490.829, 881.550
491.311, 875.530
491.793, 898.478
492.275, 936.126
492.758, 954.628
493.240, 934.247
493.722, 913.797
494.204, 923.292
494.686, 946.733
495.168, 949.628
495.650, 923.276
496.132, 893.337
496.614, 891.723
497.097, 924.183
497.579, 937.180
498.061, 903.052
498.543, 881.928
499.025, 903.532
499.507, 943.872
499.989, 970.113
500.471, 970.766
500.953, 958.869
501.436, 950.123
501.918, 944.408
502.400, 933.338
502.882, 911.892
503.364, 892.771
503.846, 888.196
504.328, 892.282
504.810, 891.662
505.293, 878.754
505.775, 867.512
506.257, 867.097
506.739, 874.365
507.221, 884.589
507.703, 896.450
508.185, 905.695
508.667, 905.876
509.150, 894.638
509.632, 895.937
510.114, 934.317
510.596, 956.541
511.078, 930.816
511.560, 887.293
512.042, 869.035
512.524, 889.479
513.006, 917.725
513.489, 911.995
513.971, 875.316
514.453, 857.327
514.935, 867.198
515.417, 884.106
515.899, 897.954
516.381, 908.390
516.863, 914.032
517.346, 912.788
517.828, 909.527
518.310, 906.640
518.792, 903.408
519.274, 899.931
519.756, 895.886
520.238, 886.566
520.720, 864.882
521.202, 830.669
521.685, 815.016
522.167, 836.197
522.649, 855.302
523.131, 869.941
523.613, 877.122
524.095, 871.081
524.577, 851.520
525.059, 831.110
525.541, 818.416
526.024, 814.257
526.506, 827.620
526.988, 865.311
527.470, 891.077
527.952, 873.976
528.434, 834.146
528.916, 825.421
529.398, 867.592
529.880, 898.227
530.363, 888.235
530.845, 863.191
531.327, 848.924
531.809, 848.329
532.291, 852.766
532.773, 856.049
533.255, 858.401
533.737, 862.041
534.219, 874.359
534.702, 873.621
535.184, 840.656
535.666, 806.066
536.148, 793.242
536.630, 802.317
537.112, 816.686
537.594, 835.710
538.076, 849.407
538.559, 827.883
539.041, 774.023
539.523, 754.839
540.005, 812.164
540.487, 895.619
540.969, 910.056
541.451, 819.704
541.933, 768.024
542.416, 785.595
542.898, 820.248
543.380, 856.168
543.862, 881.879
544.344, 873.451
544.826, 816.452
545.308, 746.192
545.790, 737.441
546.273, 802.768
546.755, 838.864
547.237, 813.060
547.719, 783.584
548.201, 797.141
548.683, 837.364
549.165, 859.149
549.647, 837.704
550.129, 811.962
550.612, 809.870
551.094, 823.153
551.576, 838.365
552.058, 851.778
552.540, 854.490
553.022, 834.462
553.504, 790.707
553.986, 759.749
554.468, 741.228
554.951, 737.444
555.433, 764.384
555.915, 797.736
556.397, 812.650
556.879, 804.371
557.361, 785.734
557.843, 761.574
558.325, 735.839
558.807, 722.783
559.290, 724.153
559.772, 724.479
560.254, 712.927
560.736, 697.737
561.218, 701.151
561.700, 733.757
562.182, 752.598
562.664, 738.800
563.146, 718.932
563.629, 714.818
564.111, 722.837
564.593, 726.637
565.075, 716.604
565.557, 699.295
566.039, 688.717
566.521, 685.729
567.003, 685.396
567.486, 687.629
567.968, 691.935
568.450, 701.581
568.932, 713.183
569.414, 716.012
569.896, 700.230
570.378, 683.604
570.860, 677.234
571.343, 679.337
571.825, 690.858
572.307, 711.167
572.789, 724.770
573.271, 713.072
573.753, 676.540
574.235, 660.529
574.717, 695.038
575.200, 709.617
575.682, 666.269
576.164, 614.902
576.646, 609.774
577.128, 654.461
577.610, 697.016
578.092, 695.085
578.574, 668.220
579.056, 654.674
579.539, 654.680
580.021, 654.455
580.503, 647.513
580.985, 638.233
581.467, 634.403
581.949, 637.621
582.431, 642.481
582.913, 655.378
583.395, 663.561
583.878, 658.430
584.360, 644.274
584.842, 625.901
585.324, 605.055
585.806, 592.205
586.288, 611.160
586.770, 658.881
587.252, 676.095
587.734, 648.291
588.217, 616.433
588.699, 604.150
589.181, 607.366
589.663, 613.319
590.145, 624.919
590.627, 633.257
591.109, 634.357
591.591, 631.781
592.073, 627.681
592.556, 623.220
593.038, 621.302
593.520, 624.642
594.002, 629.641
594.484, 625.440
594.966, 610.411
595.448, 591.539
595.930, 560.546
596.413, 536.164
596.895, 537.664
597.377, 557.402
597.859, 566.765
598.341, 546.504
598.823, 526.804
599.305, 530.355
599.787, 548.229
600.269, 568.673
600.752, 587.576
601.234, 593.640
601.716, 572.512
602.198, 527.175
602.680, 503.706
603.162, 518.382
603.644, 527.789
604.127, 517.551
604.609, 503.415
605.091, 495.928
605.573, 496.531
606.055, 505.355
606.537, 535.001
607.019, 564.342
607.501, 559.458
607.983, 529.718
608.466, 517.450
608.948, 538.770
609.430, 569.010
609.912, 573.778
610.394, 547.774
610.876, 534.050
611.358, 537.271
611.840, 547.672
612.322, 579.017
612.805, 607.971
613.287, 601.009
613.769, 553.521
614.251, 509.815
614.733, 510.550
615.215, 535.510
615.697, 545.853
616.179, 540.874
616.661, 529.851
617.144, 514.258
617.626, 501.530
618.108, 506.562
618.590, 539.739
619.072, 558.413
619.554, 549.274
620.036, 541.294
620.518, 550.251
621.000, 566.582
621.483, 576.933
621.965, 576.984
622.447, 567.062
622.929, 540.774
623.411, 504.985
623.893, 479.694
624.375, 465.833
624.857, 468.684
625.340, 499.355
625.822, 538.875
626.304, 541.808
626.786, 478.023
627.268, 443.099
627.750, 457.833
628.232, 482.734
628.714, 502.745
629.196, 515.740
629.679, 521.751
630.161, 520.733
630.643, 513.125
631.125, 497.176
631.607, 474.595
632.089, 449.407
632.571, 419.419
633.054, 406.273
633.536, 428.780
634.018, 473.215
634.500, 501.256
634.982, 508.509
635.464, 509.140
635.946, 496.786
636.428, 484.759
636.910, 483.324
637.393, 488.502
637.875, 488.792
638.357, 478.292
638.839, 468.996
639.321, 484.221
639.803, 517.446
640.285, 525.012
640.767, 499.319
641.250, 465.305
641.732, 433.475
642.214, 406.712
642.696, 395.146
643.178, 403.553
643.660, 416.742
644.142, 445.824
644.624, 468.310
645.106, 461.009
645.589, 436.046
646.071, 421.280
646.553, 429.278
647.035, 451.841
647.517, 490.362
647.999, 537.702
648.481, 547.152
648.963, 508.353
649.445, 466.169
649.928, 447.253
650.410, 446.320
650.892, 447.305
651.374, 452.051
651.856, 455.301
652.338, 459.089
652.820, 459.161
653.302, 451.197
653.784, 437.692
654.267, 422.921
654.749, 408.145
655.231, 396.897
655.713, 395.764
656.195, 402.017
656.677, 403.560
657.159, 398.654
657.641, 396.026
658.123, 402.816
658.606, 413.734
659.088, 414.008
659.570, 392.279
660.052, 380.589
660.534, 383.003
661.016, 391.178
661.498, 409.110
661.981, 427.556
662.463, 426.402
662.945, 396.102
663.427, 367.874
663.909, 384.156
664.391, 424.005
664.873, 426.632
665.355, 387.986
665.837, 355.510
666.320, 355.705
666.802, 376.004
667.284, 389.322
667.766, 392.963
668.248, 396.073
668.730, 397.163
669.212, 399.377
669.694, 408.171
670.177, 417.315
670.659, 415.710
671.141, 399.760
671.623, 384.206
672.105, 382.878
672.587, 387.236
673.069, 381.667
673.551, 367.055
674.033, 354.417
674.516, 348.615
674.998, 348.390
675.480, 352.305
675.962, 361.492
676.444, 369.258
676.926, 378.181
677.408, 382.035
677.890, 374.844
678.372, 364.018
678.855, 358.214
679.337, 358.737
679.819, 360.200
680.301, 352.885
680.783, 350.927
681.265, 381.254
681.747, 428.393
682.229, 449.262
682.711, 429.249
683.194, 387.493
683.676, 341.685
684.158, 292.629
684.640, 280.404
685.122, 323.301
685.604, 359.085
686.086, 363.790
686.568, 356.063
687.050, 358.804
687.533, 371.427
688.015, 368.757
688.497, 326.551
688.979, 287.500
689.461, 273.720
689.943, 278.717
690.425, 296.686
690.907, 323.905
691.390, 351.919
691.872, 376.829
692.354, 394.135
692.836, 382.382
693.318, 338.108
693.800, 311.688
694.282, 321.315
694.764, 338.637
695.247, 334.232
695.729, 310.670
696.211, 304.780
696.693, 339.668
697.175, 360.662
697.657, 341.199
698.139, 315.880
698.621, 317.463
699.104, 341.225
699.586, 359.857
700.068, 356.872
700.550, 347.695
701.032, 355.711
701.514, 374.820
701.996, 380.391
702.478, 368.560
702.960, 355.088
703.443, 350.706
703.925, 352.361
704.407, 349.682
704.889, 334.521
705.371, 331.262
705.853, 349.817
706.335, 370.002
706.817, 391.655
707.299, 406.438
707.782, 396.822
708.264, 354.038
708.746, 313.515
709.228, 297.564
709.710, 294.473
710.192, 288.265
710.674, 281.593
711.156, 291.452
711.638, 325.241
712.121, 361.483
712.603, 365.523
713.085, 336.072
713.567, 323.559
714.049, 333.471
714.531, 346.253
715.013, 356.966
715.495, 365.175
715.977, 371.754
716.460, 377.053
716.942, 373.969
717.424, 352.612
717.906, 332.660
718.388, 323.918
718.870, 321.430
719.352, 319.443
719.834, 316.609
720.317, 313.875
720.799, 312.327
721.281, 310.879
721.763, 305.758
722.245, 297.910
722.727, 298.425
723.209, 312.054
723.691, 317.304
724.174, 290.842
724.656, 241.134
725.138, 220.697
725.620, 248.142
726.102, 274.968
726.584, 304.891
727.066, 327.262
727.548, 334.229
728.031, 329.314
728.513, 320.334
728.995, 308.845
729.477, 295.960
729.959, 276.821
730.441, 260.078
730.923, 258.643
731.405, 270.551
731.887, 285.377
732.370, 298.247
732.852, 310.996
733.334, 328.488
733.816, 350.957
734.298, 362.418
734.780, 360.638
735.262, 355.299
735.744, 351.372
736.226, 344.743
736.709, 324.631
737.191, 287.384
737.673, 271.011
738.155, 296.804
738.637, 320.907
739.119, 326.879
739.601, 323.453
740.083, 322.288
740.565, 323.288
741.048, 314.375
741.530, 277.807
742.012, 241.113
742.494, 247.587
742.976, 284.483
743.458, 312.223
743.940, 323.411
744.422, 329.697
744.904, 340.347
745.387, 351.786
745.869, 351.652
746.351, 337.989
746.833, 317.957
747.315, 280.268
747.797, 251.833
748.279, 253.748
748.761, 272.670
749.244, 287.158
749.726, 296.042
750.208, 298.299
750.690, 289.541
751.172, 277.896
751.654, 267.828
752.136, 259.437
752.618, 250.173
753.101, 240.047
753.583, 237.191
754.065, 258.909
754.547, 290.277
755.029, 286.870
755.511, 252.813
755.993, 232.939
756.475, 240.920
756.958, 263.848
757.440, 293.394
757.922, 326.829
758.404, 330.669
758.886, 282.383
759.368, 246.609
759.850, 235.113
760.332, 235.359
760.814, 250.924
761.297, 272.145
761.779, 271.249
762.261, 225.228
762.743, 196.735
763.225, 236.239
763.707, 287.178
764.189, 292.567
764.671, 263.261
765.153, 234.657
765.636, 221.417
766.118, 223.025
766.600, 250.789
767.082, 292.660
767.564, 295.657
768.046, 259.322
768.528, 243.550
769.010, 274.098
769.492, 316.822
769.975, 330.674
770.457, 315.339
770.939, 300.020
771.421, 276.629
771.903, 266.599
772.385, 291.848
772.867, 315.300
773.349, 304.997
773.831, 270.267
774.314, 246.296
774.796, 239.909
775.278, 247.581
775.760, 285.770
776.242, 323.622
776.724, 323.296
777.206, 295.300
777.688, 276.096
778.171, 281.896
778.653, 297.522
779.135, 309.688
779.617, 316.508
780.099, 307.948
780.581, 284.326
781.063, 263.040
781.545, 250.699
782.028, 242.432
782.510, 231.933
782.992, 219.204
783.474, 209.342
783.956, 192.971
784.438, 197.667
784.920, 258.494
785.402, 315.714
785.885, 320.556
786.367, 285.056
786.849, 255.787
787.331, 243.987
787.813, 233.631
788.295, 210.340
788.777, 193.790
789.259, 210.076
789.741, 245.756
790.224, 264.716
790.706, 252.878
791.188, 239.373
791.670, 265.595
792.152, 305.971
792.634, 295.933
793.116, 243.640
793.598, 210.469
794.080, 217.438
794.563, 239.914
795.045, 252.736
795.527, 255.847
796.009, 248.031
796.491, 227.711
796.973, 199.856
797.455, 151.200
797.937, 115.973
798.419, 128.588
798.902, 176.818
799.384, 211.722
799.866, 232.133
800.348, 240.760
800.830, 229.792
801.312, 215.295
801.794, 202.579
802.276, 194.195
802.758, 194.189
803.241, 203.432
803.723, 214.253
804.205, 220.972
804.687, 227.325
805.169, 241.898
805.651, 258.579
806.133, 259.733
806.615, 243.527
807.098, 229.667
807.580, 236.035
808.062, 253.154
808.544, 256.602
809.026, 246.527
809.508, 229.273
809.990, 201.882
810.472, 188.411
810.955, 208.121
811.437, 245.800
811.919, 266.222
812.401, 265.429
812.883, 259.646
813.365, 242.040
813.847, 228.231
814.329, 221.860
814.812, 221.956
815.294, 231.621
815.776, 249.666
816.258, 257.922
816.740, 242.556
817.222, 227.331
817.704, 224.333
818.186, 226.289
818.668, 222.941
819.151, 216.762
819.633, 222.373
820.115, 250.245
820.597, 273.335
821.079, 251.212
821.561, 206.959
822.043, 192.196
822.525, 205.119
823.007, 215.151
823.490, 210.084
823.972, 202.678
824.454, 209.772
824.936, 229.225
825.418, 243.516
825.900, 252.189
826.382, 258.005
826.864, 261.515
827.346, 262.376
827.829, 260.040
828.311, 254.837
828.793, 248.219
829.275, 237.039
829.757, 229.688
830.239, 229.130
830.721, 228.998
831.203, 229.343
831.685, 227.044
832.168, 215.107
832.650, 191.903
833.132, 175.731
833.614, 174.978
834.096, 180.999
834.578, 189.790
835.060, 201.279
835.542, 220.250
836.024, 243.301
836.507, 254.364
836.989, 241.012
837.471, 220.835
837.953, 215.691
838.435, 219.879
838.917, 224.074
839.399, 225.501
839.881, 210.475
840.364, 171.900
840.846, 135.146
841.328, 140.147
841.810, 182.092
842.292, 205.362
842.774, 208.003
843.256, 203.685
843.738, 192.412
844.221, 185.127
844.703, 195.011
845.185, 217.141
845.667, 223.399
846.149, 205.245
846.631, 186.731
847.113, 148.676
847.595, 132.655
848.078, 181.948
848.560, 252.934
849.042, 276.802
849.524, 242.580
850.006, 212.554
850.488, 207.195
850.970, 203.204
851.452, 181.792
851.934, 161.139
852.417, 168.531
852.899, 198.402
853.381, 216.900
853.863, 203.160
854.345, 186.282
854.827, 198.815
855.309, 220.281
855.791, 216.388
856.273, 192.617
856.756, 176.414
857.238, 178.153
857.720, 186.626
858.202, 191.519
858.684, 192.303
859.166, 181.991
859.648, 162.741
860.130, 163.766
860.612, 193.173
861.095, 218.595
861.577, 213.877
862.059, 189.470
862.541, 175.743
863.023, 175.115
863.505, 172.836
863.987, 165.452
864.469, 164.347
864.951, 180.443
865.434, 198.851
865.916, 193.849
866.398, 161.700
866.880, 155.985
867.362, 207.793
867.844, 241.597
868.326, 238.106
868.808, 220.538
869.291, 195.686
869.773, 170.880
870.255, 163.715
870.737, 185.078
871.219, 196.705
871.701, 168.466
872.183, 143.040
872.665, 160.852
873.148, 194.190
873.630, 194.736
874.112, 159.555
874.594, 133.867
875.076, 150.500
875.558, 178.527
876.040, 188.676
876.522, 187.976
877.005, 185.837
877.487, 184.382
877.969, 186.349
878.451, 193.029
878.933, 198.880
879.415, 198.399
879.897, 191.293
880.379, 172.102
880.861, 143.059
881.344, 122.562
881.826, 115.374
882.308, 122.715
882.790, 149.204
883.272, 183.849
883.754, 187.178
884.236, 152.926
884.718, 149.546
885.200, 192.915
885.683, 224.466
886.165, 212.253
886.647, 183.384
887.129, 176.501
887.611, 192.993
888.093, 204.936
888.575, 219.314
889.057, 216.457
889.539, 174.214
890.022, 133.433
890.504, 120.406
890.986, 128.976
891.468, 146.488
891.950, 178.318
892.432, 200.550
892.914, 210.055
893.396, 209.054
893.878, 190.280
894.361, 167.063
894.843, 150.429
895.325, 142.930
895.807, 148.531
896.289, 183.163
896.771, 206.813
897.253, 188.287
897.735, 158.276
898.218, 142.319
898.700, 140.111
899.182, 147.137
899.664, 161.376
900.146, 173.717
900.628, 177.426
901.110, 175.410
901.592, 170.546
902.075, 162.703
902.557, 145.671
903.039, 123.394
903.521, 120.992
904.003, 155.454
904.485, 190.964
904.967, 162.980
905.449, 98.019
905.932, 77.998
906.414, 101.136
906.896, 143.993
907.378, 198.684
907.860, 228.355
908.342, 191.077
908.824, 118.378
909.306, 115.183
909.788, 182.549
910.271, 217.509
910.753, 207.298
911.235, 184.309
911.717, 161.759
912.199, 139.891
912.681, 116.898
913.163, 93.042
913.645, 91.209
914.127, 118.835
914.610, 146.981
915.092, 177.148
915.574, 194.256
916.056, 186.543
916.538, 158.837
917.020, 120.644
917.502, 57.509
917.984, 29.272
918.466, 50.639
918.949, 86.609
919.431, 151.385
919.913, 207.950
920.395, 220.178
920.877, 194.198
921.359, 163.581
921.841, 115.819
922.323, 89.854
922.805, 105.490
923.288, 128.367
923.770, 147.172
924.252, 158.997
924.734, 156.666
925.216, 141.115
925.698, 136.827
926.180, 169.120
926.662, 191.666
927.145, 175.002
927.627, 148.441
928.109, 137.960
928.591, 138.604
929.073, 132.539
929.555, 114.327
930.037, 102.049
930.519, 110.424
931.002, 124.785
931.484, 140.669
931.966, 150.548
932.448, 134.486
932.930, 101.259
933.412, 88.983
933.894, 118.436
934.376, 156.314
934.859, 180.074
935.341, 187.782
935.823, 163.670
936.305, 124.310
936.787, 112.740
937.269, 134.713
937.751, 156.003
938.233, 152.037
938.715, 137.703
939.198, 133.814
939.680, 137.284
940.162, 144.705
940.644, 152.750
941.126, 143.908
941.608, 113.184
942.090, 88.129
942.572, 99.723
943.054, 131.491
943.537, 141.040
944.019, 131.733
944.501, 122.290
944.983, 115.376
945.465, 115.852
945.947, 126.637
946.429, 140.797
946.911, 149.740
947.393, 153.435
947.876, 148.836
948.358, 135.564
948.840, 134.846
949.322, 152.251
949.804, 168.010
950.286, 170.145
950.768, 160.976
951.250, 142.282
951.732, 113.201
952.215, 96.896
952.697, 93.669
953.179, 104.436
953.661, 135.304
954.143, 160.607
954.625, 156.376
955.107, 134.468
955.589, 135.015
956.072, 171.671
956.554, 168.384
957.036, 99.569
957.518, 61.847
958.000, 104.909
958.482, 159.088
958.964, 146.781
959.446, 85.198
959.929, 77.323
960.411, 165.095
960.893, 204.815
961.375, 165.671
961.857, 123.469
962.339, 101.658
962.821, 97.942
963.303, 115.537
963.786, 152.939
964.268, 174.869
964.750, 174.226
965.232, 170.025
965.714, 160.773
966.196, 151.161
966.678, 144.915
967.160, 138.746
967.642, 121.298
968.125, 90.244
968.607, 92.145
969.089, 188.390
969.571, 230.583
970.053, 144.898
970.535, 55.646
971.017, 34.208
971.499, 57.315
971.981, 89.663
972.464, 132.746
972.946, 151.342
973.428, 112.150
973.910, 87.830
974.392, 111.692
974.874, 141.749
975.356, 146.088
975.838, 134.125
976.320, 130.140
976.803, 139.567
977.285, 142.476
977.767, 124.266
978.249, 112.521
978.731, 123.172
979.213, 139.125
979.695, 148.086
980.177, 149.511
980.659, 143.759
981.142, 128.079
981.624, 117.873
982.106, 121.586
982.588, 126.638
983.070, 129.430
983.552, 129.067
984.034, 126.186
984.516, 119.572
984.999, 102.324
985.481, 63.652
985.963, 46.445
986.445, 91.939
986.927, 132.237
987.409, 119.356
987.891, 88.619
988.373, 80.919
988.856, 94.999
989.338, 105.745
989.820, 103.147
990.302, 104.442
990.784, 122.891
991.266, 140.312
991.748, 145.604
992.230, 142.879
992.713, 136.123
993.195, 126.912
993.677, 118.326
994.159, 111.682
994.641, 105.020
995.123, 90.041
995.605, 82.502
996.087, 103.100
996.569, 132.275
997.052, 143.757
997.534, 136.127
998.016, 123.842
998.498, 107.195
998.980, 97.853
999.462, 104.075
999.944, 116.686
1000.426, 132.718
1000.908, 148.770
1001.391, 161.445
1001.873, 170.118
1002.355, 175.245
1002.837, 177.846
1003.319, 175.239
1003.801, 168.423
1004.283, 153.651
1004.765, 117.919
1005.247, 77.894
1005.730, 55.243
1006.212, 53.369
1006.694, 67.456
1007.176, 106.950
1007.658, 140.553
1008.140, 154.245
1008.622, 155.580
1009.104, 144.470
1009.587, 127.964
1010.069, 113.266
1010.551, 102.311
1011.033, 97.565
1011.515, 104.941
1011.997, 109.659
1012.479, 89.397
1012.961, 80.112
1013.443, 133.150
1013.926, 201.125
1014.408, 209.548
1014.890, 154.768
1015.372, 93.340
1015.854, 22.068
1016.336, -11.696
1016.818, 47.081
1017.300, 112.708
1017.783, 120.198
1018.265, 99.959
1018.747, 101.059
1019.229, 126.331
1019.711, 142.464
1020.193, 132.852
1020.675, 124.068
1021.157, 126.247
1021.639, 131.092
1022.122, 134.597
1022.604, 136.768
1023.086, 140.767
1023.568, 145.118
1024.050, 137.543
1024.532, 96.595
1025.014, 76.061
1025.496, 119.147
1025.979, 155.242
1026.461, 126.486
1026.943, 79.149
1027.425, 77.851
1027.907, 120.044
1028.389, 148.299
1028.871, 152.352
1029.353, 140.288
1029.835, 97.133
1030.318, 57.589
1030.800, 29.203
1031.282, 19.812
1031.764, 55.651
1032.246, 124.289
1032.728, 145.724
1033.210, 70.401
1033.692, 24.047
1034.175, 37.854
1034.657, 62.729
1035.139, 90.125
1035.621, 110.735
1036.103, 106.312
1036.585, 84.655
1037.067, 90.772
1037.549, 165.135
1038.031, 189.024
1038.514, 109.677
1038.996, 43.648
1039.478, 28.837
1039.960, 38.613
1040.442, 56.041
1040.924, 78.581
1041.406, 96.656
1041.888, 114.306
1042.370, 115.481
1042.853, 80.905
1043.335, 64.502
1043.817, 97.503
1044.299, 130.330
1044.781, 114.633
1045.263, 71.969
1045.745, 67.697
1046.227, 115.408
1046.710, 141.992
1047.192, 138.982
1047.674, 136.299
1048.156, 141.877
1048.638, 147.877
1049.120, 150.077
1049.602, 146.831
1050.084, 132.557
1050.567, 105.344
1051.049, 91.354
1051.531, 94.510
1052.013, 91.371
1052.495, 74.452
1052.977, 62.201
1053.459, 66.563
1053.941, 81.407
1054.423, 96.786
1054.906, 112.590
1055.388, 134.026
1055.870, 163.040
1056.352, 149.806
1056.834, 81.693
1057.316, 38.728
1057.798, 65.903
1058.280, 114.557
1058.762, 116.656
1059.245, 84.771
1059.727, 74.108
1060.209, 81.413
1060.691, 73.348
1061.173, 47.677
1061.655, 30.940
1062.137, 34.348
1062.619, 52.145
1063.102, 83.166
1063.584, 116.240
1064.066, 121.918
1064.548, 109.343
1065.030, 111.078
1065.512, 125.201
1065.994, 127.169
1066.476, 110.195
1066.958, 90.320
1067.441, 80.054
1067.923, 74.782
1068.405, 66.818
1068.887, 60.043
1069.369, 68.210
1069.851, 82.175
1070.333, 66.808
1070.815, 24.540
1071.297, 16.801
1071.780, 92.361
1072.262, 162.216
1072.744, 123.339
1073.226, 58.192
1073.708, 63.427
1074.190, 101.588
1074.672, 103.340
1075.154, 69.095
1075.637, 46.211
1076.119, 54.884
1076.601, 63.925
1077.083, 47.599
1077.565, 35.194
1078.047, 47.282
1078.529, 72.152
1079.011, 109.578
1079.493, 145.840
1079.976, 146.424
1080.458, 99.522
1080.940, 64.603
1081.422, 71.846
1081.904, 76.370
1082.386, 51.458
1082.868, 30.254
1083.350, 39.402
1083.833, 66.691
1084.315, 94.564
1084.797, 122.578
1085.279, 129.885
1085.761, 91.664
1086.243, 69.810
1086.725, 81.144
1087.207, 92.967
1087.689, 94.870
1088.172, 86.166
1088.654, 57.660
1089.136, 16.522
1089.618, 17.993
1090.100, 83.655
1090.582, 119.547
1091.064, 114.765
1091.546, 106.736
1092.028, 110.088
1092.511, 103.336
1092.993, 61.452
1093.475, 7.188
1093.957, 9.194
1094.439, 69.179
1094.921, 91.139
1095.403, 74.120
1095.885, 57.208
1096.368, 48.675
1096.850, 54.230
1097.332, 78.872
1097.814, 105.256
1098.296, 105.227
1098.778, 87.370
1099.260, 77.577
1099.742, 74.834
1100.224, 79.874
1100.707, 89.199
1101.189, 81.606
1101.671, 50.318
1102.153, 28.448
1102.635, 57.390
1103.117, 93.326
1103.599, 73.439
1104.081, 26.865
1104.563, -13.051
1105.046, -37.666
1105.528, -29.664
1106.010, 7.781
1106.492, 37.254
1106.974, 39.448
1107.456, 29.051
1107.938, -5.609
1108.420, -26.658
1108.903, 9.496
1109.385, 66.052
1109.867, 103.352
1110.349, 116.628
1110.831, 107.643
1111.313, 69.640
1111.795, 41.314
1112.277, 30.774
1112.760, 32.800
1113.242, 64.694
1113.724, 89.679
1114.206, 67.074
1114.688, 25.322
1115.170, 21.912
1115.652, 59.584
1116.134, 79.459
1116.616, 73.185
1117.099, 67.760
1117.581, 64.342
1118.063, 65.561
1118.545, 75.214
1119.027, 83.703
1119.509, 78.691
1119.991, 65.628
1120.473, 68.936
1120.955, 89.856
1121.438, 90.778
1121.920, 69.961
1122.402, 45.102
1122.884, 20.674
1123.366, 17.582
1123.848, 52.871
1124.330, 98.516
1124.812, 108.626
1125.295, 95.173
1125.777, 87.904
1126.259, 85.558
1126.741, 81.534
1127.223, 77.594
1127.705, 90.734
1128.187, 125.467
1128.669, 142.082
1129.151, 94.043
1129.634, 36.028
1130.116, 22.016
1130.598, 25.192
1131.080, 13.950
1131.562, -2.293
1132.044, -2.888
1132.526, 14.120
1133.008, 39.152
1133.490, 77.205
1133.973, 100.731
1134.455, 89.694
1134.937, 75.225
1135.419, 68.119
1135.901, 67.146
1136.383, 73.825
1136.865, 84.713
1137.347, 93.498
1137.830, 102.906
1138.312, 90.164
1138.794, 34.936
1139.276, 4.136
1139.758, 15.770
1140.240, 31.831
1140.722, 35.987
1141.204, 31.492
1141.687, 20.075
1142.169, 5.453
1142.651, 5.421
1143.133, 19.705
1143.615, 27.362
1144.097, 27.888
1144.579, 40.772
1145.061, 70.017
1145.543, 82.506
1146.026, 54.264
1146.508, 15.122
1146.990, 8.806
1147.472, 19.367
1147.954, 10.677
1148.436, -2.425
1148.918, 21.817
1149.400, 71.661
1149.882, 94.144
1150.365, 74.133
1150.847, 53.206
1151.329, 54.325
1151.811, 65.451
1152.293, 93.175
1152.775, 113.354
1153.257, 99.229
1153.739, 70.993
1154.222, 57.878
1154.704, 57.818
1155.186, 45.355
1155.668, 5.016
1156.150, -13.332
1156.632, 14.350
1157.114, 34.540
1157.596, 34.610
1158.078, 28.136
1158.561, 21.620
1159.043, 15.431
1159.525, 9.485
1160.007, 4.353
1160.489, 2.981
1160.971, 4.093
1161.453, 40.634
1161.935, 116.965
1162.417, 136.579
1162.900, 67.352
1163.382, -0.664
1163.864, 6.144
1164.346, 42.946
1164.828, 42.370
1165.310, 17.593
1165.792, -10.760
1166.274, -37.414
1166.757, -54.080
1167.239, -59.046
1167.721, -47.649
1168.203, -19.282
1168.685, 2.069
1169.167, -5.221
1169.649, -14.434
1170.131, -8.446
1170.614, -0.003
1171.096, -3.495
1171.578, -7.381
1172.060, 4.535
1172.542, 31.354
1173.024, 62.524
1173.506, 103.065
1173.988, 131.117
1174.470, 149.482
1174.953, 147.795
1175.435, 110.937
1175.917, 83.047
1176.399, 95.277
1176.881, 117.251
1177.363, 104.377
1177.845, 63.439
1178.327, 20.163
1178.809, -22.677
1179.292, -13.678
1179.774, 43.490
1180.256, 85.043
1180.738, 92.703
1181.220, 72.880
1181.702, 26.066
1182.184, -16.145
1182.666, -6.907
1183.149, 18.129
1183.631, 9.313
1184.113, -10.545
1184.595, -6.075
1185.077, 16.140
1185.559, 32.603
1186.041, 38.401
1186.523, 43.989
1187.005, 55.400
1187.488, 62.860
1187.970, 60.277
1188.452, 57.767
1188.934, 65.971
1189.416, 69.904
1189.898, 54.357
1190.380, 27.037
1190.862, 4.641
1191.344, -13.185
1191.827, -13.882
1192.309, 6.493
1192.791, 9.678
1193.273, -11.473
1193.755, -8.577
1194.237, 38.484
1194.719, 87.446
1195.201, 101.231
1195.684, 92.131
1196.166, 72.792
1196.648, 51.045
1197.130, 40.798
1197.612, 41.337
1198.094, 58.118
1198.576, 82.279
1199.058, 84.193
1199.541, 54.602
1200.023, 26.156
1200.505, 18.346
1200.987, 11.255
1201.469, -15.634
1201.951, -30.391
1202.433, 4.715
1202.915, 48.954
1203.397, 51.047
1203.880, 22.324
1204.362, -2.164
1204.844, -24.169
1205.326, -27.528
1205.808, -5.240
1206.290, 1.969
1206.772, -14.286
1207.254, -31.039
1207.736, -38.517
1208.219, -34.715
1208.701, -15.933
1209.183, 10.565
1209.665, 38.097
1210.147, 58.338
1210.629, 41.819
1211.111, 6.281
1211.593, -4.424
1212.076, 10.425
1212.558, 25.562
1213.040, 32.174
1213.522, 38.851
1214.004, 47.027
1214.486, 60.509
1214.968, 94.276
1215.450, 118.531
1215.932, 119.441
1216.415, 96.856
1216.897, 31.942
1217.379, -51.259
1217.861, -73.888
1218.343, -27.440
1218.825, 22.444
1219.307, 82.534
1219.789, 95.696
1220.271, 49.718
1220.754, 8.127
1221.236, -1.791
1221.718, 0.162
1222.200, -5.182
1222.682, -7.015
1223.164, 24.137
1223.646, 62.973
1224.128, 59.728
1224.611, 32.977
1225.093, 18.315
1225.575, 16.823
1226.057, 10.073
1226.539, -6.641
1227.021, -3.465
1227.503, 62.681
1227.985, 102.039
1228.468, 65.932
1228.950, 29.989
1229.432, 36.766
1229.914, 45.499
1230.396, 13.616
1230.878, -30.573
1231.360, -17.149
1231.842, 50.315
1232.324, 64.214
1232.807, 25.498
1233.289, -13.080
1233.771, -44.117
1234.253, -55.664
1234.735, -44.378
1235.217, -17.132
1235.699, 24.999
1236.181, 60.208
1236.663, 57.344
1237.146, 43.823
1237.628, 49.259
1238.110, 58.768
1238.592, 58.287
1239.074, 45.808
1239.556, 11.706
1240.038, -41.160
1240.520, -60.958
1241.003, -16.576
1241.485, 13.696
1241.967, 24.998
1242.449, 32.759
1242.931, 41.022
1243.413, 45.386
1243.895, 44.150
1244.377, 32.324
1244.859, -2.351
1245.342, -43.666
1245.824, -45.946
1246.306, -18.775
1246.788, 19.614
1247.270, 59.191
1247.752, 80.630
1248.234, 80.431
1248.716, 57.386
1249.198, 9.301
1249.681, -22.543
1250.163, -10.818
1250.645, 12.277
1251.127, 48.499
1251.609, 75.219
1252.091, 80.301
1252.573, 67.451
1253.055, 29.567
1253.538, -15.929
1254.020, -20.021
1254.502, 17.546
1254.984, 38.024
1255.466, 41.464
1255.948, 42.192
1256.430, 41.781
1256.912, 37.129
1257.395, 27.499
1257.877, 16.853
1258.359, 8.436
1258.841, -2.995
1259.323, -27.037
1259.805, -51.404
1260.287, -75.678
1260.769, -84.588
1261.251, -50.971
1261.734, 3.190
1262.216, 40.148
1262.698, 57.361
1263.180, 69.837
1263.662, 81.195
1264.144, 77.618
1264.626, 53.689
1265.108, 37.882
1265.590, 38.433
1266.073, 18.578
1266.555, -42.005
1267.037, -88.764
1267.519, -60.729
1268.001, -1.802
1268.483, 29.605
1268.965, 33.796
1269.447, -12.660
1269.930, -70.406
1270.412, -65.803
1270.894, -17.541
1271.376, 2.344
1271.858, -20.272
1272.340, -32.781
1272.822, -27.392
##END=



