##NAMES=Jamesonite
##RRUFFID=R050430
##IDEAL CHEMISTRY=Pb^2+^_4_Fe^2+^Sb^3+^_6_S^2-^_14_
##LOCALITY=Zacatecas, Mexico
##OWNER=RRUFF
##SOURCE=University of Arizona Mineral Museum
##DESCRIPTION=Grayish black coarsely acicular crystals
##STATUS=The identification of this mineral has been confirmed by X-ray diffraction and chemical analysis
##URL=rruff.info/R050430
##MEASURED CHEMISTRY=Pb_4.02_Fe_1.00_Sb_5.98_S_14.00_
147.080, 4360.383
147.562, 4485.468
148.044, 4607.546
148.526, 4726.120
149.008, 4841.679
149.490, 4969.842
149.973, 5088.056
150.455, 5169.953
150.937, 5208.154
151.419, 5225.642
151.901, 5264.374
152.383, 5352.805
152.865, 5411.866
153.347, 5420.157
153.829, 5402.762
154.312, 5388.589
154.794, 5387.517
155.276, 5389.560
155.758, 5374.086
156.240, 5332.018
156.722, 5292.361
157.204, 5258.332
157.686, 5229.389
158.169, 5202.459
158.651, 5174.935
159.133, 5154.869
159.615, 5163.028
160.097, 5207.758
160.579, 5252.722
161.061, 5283.349
161.543, 5309.059
162.025, 5345.964
162.508, 5398.985
162.990, 5466.427
163.472, 5547.357
163.954, 5643.965
164.436, 5741.882
164.918, 5831.497
165.400, 5918.601
165.882, 6018.018
166.365, 6138.099
166.847, 6266.375
167.329, 6378.752
167.811, 6472.342
168.293, 6563.372
168.775, 6657.673
169.257, 6754.499
169.739, 6850.794
170.221, 6946.222
170.704, 7039.698
171.186, 7132.122
171.668, 7225.977
172.150, 7311.098
172.632, 7380.958
173.114, 7438.092
173.596, 7492.474
174.078, 7552.499
174.561, 7604.099
175.043, 7630.050
175.525, 7629.028
176.007, 7613.872
176.489, 7581.634
176.971, 7537.916
177.453, 7510.277
177.935, 7520.575
178.417, 7534.573
178.900, 7506.221
179.382, 7429.392
179.864, 7347.660
180.346, 7282.960
180.828, 7234.351
181.310, 7188.909
181.792, 7101.383
182.274, 7065.086
182.757, 7082.359
183.239, 7086.628
183.721, 7078.592
184.203, 7021.397
184.685, 7027.681
185.167, 7008.526
185.649, 6988.328
186.131, 7003.546
186.613, 6953.503
187.096, 6968.157
187.578, 6952.257
188.060, 6977.206
188.542, 7047.707
189.024, 7098.363
189.506, 7109.213
189.988, 7100.491
190.470, 7092.766
190.952, 7086.322
191.435, 7077.043
191.917, 7047.082
192.399, 7004.178
192.881, 7006.534
193.363, 7091.715
193.845, 7196.375
194.327, 7270.790
194.809, 7314.961
195.292, 7341.958
195.774, 7346.121
196.256, 7334.055
196.738, 7352.977
197.220, 7434.311
197.702, 7518.648
198.184, 7555.180
198.666, 7548.981
199.148, 7542.405
199.631, 7568.455
200.113, 7620.069
200.595, 7659.247
201.077, 7686.064
201.559, 7691.229
202.041, 7653.817
202.523, 7584.789
203.005, 7539.241
203.488, 7565.179
203.970, 7646.978
204.452, 7712.655
204.934, 7753.104
205.416, 7780.550
205.898, 7802.976
206.380, 7820.762
206.862, 7834.919
207.344, 7839.653
207.827, 7839.962
208.309, 7858.455
208.791, 7910.114
209.273, 7955.317
209.755, 7956.020
210.237, 7930.244
210.719, 7923.722
211.201, 7970.519
211.684, 8054.187
212.166, 8126.069
212.648, 8181.255
213.130, 8234.179
213.612, 8298.846
214.094, 8367.336
214.576, 8424.948
215.058, 8458.772
215.540, 8478.958
216.023, 8506.676
216.505, 8541.892
216.987, 8585.305
217.469, 8640.560
217.951, 8703.564
218.433, 8769.124
218.915, 8838.310
219.397, 8906.980
219.880, 8965.506
220.362, 9010.212
220.844, 9058.816
221.326, 9127.136
221.808, 9202.662
222.290, 9270.176
222.772, 9324.039
223.254, 9370.304
223.736, 9417.479
224.219, 9466.100
224.701, 9512.712
225.183, 9554.651
225.665, 9594.156
226.147, 9633.081
226.629, 9670.875
227.111, 9709.580
227.593, 9757.735
228.076, 9816.580
228.558, 9856.341
229.040, 9846.609
229.522, 9822.927
230.004, 9826.904
230.486, 9869.081
230.968, 9916.866
231.450, 9939.670
231.932, 9939.088
232.415, 9945.486
232.897, 9982.698
233.379, 10016.330
233.861, 10008.810
234.343, 9955.318
234.825, 9887.142
235.307, 9817.005
235.789, 9747.357
236.271, 9690.727
236.754, 9655.819
237.236, 9627.365
237.718, 9588.936
238.200, 9540.874
238.682, 9489.210
239.164, 9439.628
239.646, 9388.998
240.128, 9325.661
240.611, 9242.979
241.093, 9157.562
241.575, 9092.481
242.057, 9043.628
242.539, 8980.646
243.021, 8883.460
243.503, 8767.894
243.985, 8658.733
244.467, 8558.440
244.950, 8466.095
245.432, 8387.923
245.914, 8319.677
246.396, 8243.593
246.878, 8149.868
247.360, 8049.661
247.842, 7956.240
248.324, 7870.995
248.807, 7785.174
249.289, 7693.455
249.771, 7596.052
250.253, 7493.347
250.735, 7373.862
251.217, 7258.586
251.699, 7164.168
252.181, 7089.604
252.663, 7023.157
253.146, 6962.378
253.628, 6903.444
254.110, 6834.448
254.592, 6745.454
255.074, 6658.037
255.556, 6582.338
256.038, 6516.952
256.520, 6459.527
257.003, 6411.743
257.485, 6367.724
257.967, 6309.682
258.449, 6225.723
258.931, 6152.277
259.413, 6100.972
259.895, 6066.979
260.377, 6048.158
260.859, 6046.657
261.341, 6044.033
261.824, 6002.160
262.306, 5893.484
262.788, 5817.708
263.270, 5806.545
263.752, 5822.493
264.234, 5825.237
264.716, 5806.350
265.198, 5784.261
265.681, 5783.126
266.163, 5814.769
266.645, 5825.117
267.127, 5787.526
267.609, 5749.791
268.091, 5748.660
268.573, 5782.802
269.055, 5823.306
269.538, 5842.225
270.020, 5835.574
270.502, 5856.190
270.984, 5911.573
271.466, 5980.153
271.948, 6072.311
272.430, 6171.325
272.912, 6241.845
273.394, 6257.895
273.877, 6226.588
274.359, 6203.053
274.841, 6197.332
275.323, 6188.143
275.805, 6176.633
276.287, 6158.257
276.769, 6126.893
277.251, 6079.615
277.733, 6019.357
278.216, 5952.734
278.698, 5867.916
279.180, 5795.331
279.662, 5769.348
280.144, 5736.781
280.626, 5643.807
281.108, 5479.345
281.590, 5284.137
282.073, 5117.991
282.555, 4992.874
283.037, 4860.261
283.519, 4708.620
284.001, 4557.855
284.483, 4420.040
284.965, 4294.413
285.447, 4174.010
285.930, 4054.425
286.412, 3936.131
286.894, 3811.906
287.376, 3675.862
287.858, 3540.853
288.340, 3401.816
288.822, 3268.425
289.304, 3162.027
289.786, 3104.756
290.268, 3080.730
290.751, 3034.234
291.233, 2951.899
291.715, 2875.094
292.197, 2824.331
292.679, 2787.269
293.161, 2749.041
293.643, 2703.866
294.125, 2657.287
294.608, 2615.500
295.090, 2578.136
295.572, 2549.070
296.054, 2541.844
296.536, 2535.529
297.018, 2502.690
297.500, 2434.766
297.982, 2372.391
298.465, 2349.871
298.947, 2360.426
299.429, 2370.979
299.911, 2372.086
300.393, 2374.246
300.875, 2392.819
301.357, 2426.991
301.839, 2454.856
302.321, 2462.996
302.804, 2461.901
303.286, 2467.428
303.768, 2481.862
304.250, 2499.554
304.732, 2515.605
305.214, 2530.467
305.696, 2548.419
306.178, 2573.846
306.660, 2599.366
307.143, 2620.329
307.625, 2636.701
308.107, 2647.275
308.589, 2647.668
309.071, 2643.374
309.553, 2662.804
310.035, 2723.331
310.517, 2782.368
311.000, 2828.433
311.482, 2865.686
311.964, 2900.573
312.446, 2935.687
312.928, 2967.735
313.410, 2989.117
313.892, 2980.910
314.374, 2994.697
314.857, 3036.752
315.339, 3096.138
315.821, 3168.163
316.303, 3250.112
316.785, 3336.586
317.267, 3422.949
317.749, 3509.055
318.231, 3592.755
318.713, 3659.693
319.195, 3738.546
319.678, 3843.567
320.160, 3969.600
320.642, 4104.901
321.124, 4245.137
321.606, 4385.998
322.088, 4508.635
322.570, 4607.409
323.052, 4694.465
323.535, 4764.177
324.017, 4828.412
324.499, 4904.997
324.981, 5002.195
325.463, 5094.978
325.945, 5143.816
326.427, 5142.449
326.909, 5131.530
327.392, 5178.445
327.874, 5167.973
328.356, 4964.913
328.838, 4580.730
329.320, 4248.594
329.802, 4060.942
330.284, 4054.786
330.766, 4004.578
331.248, 3912.672
331.731, 3654.190
332.213, 3610.802
332.695, 3501.101
333.177, 3235.123
333.659, 3152.363
334.141, 3143.714
334.623, 3090.656
335.105, 2993.616
335.587, 2885.859
336.070, 2782.970
336.552, 2681.894
337.034, 2572.400
337.516, 2441.322
337.998, 2323.912
338.480, 2238.517
338.962, 2177.263
339.444, 2129.099
339.927, 2092.663
340.409, 2054.157
340.891, 1988.189
341.373, 1872.296
341.855, 1792.822
342.337, 1783.198
342.819, 1789.888
343.301, 1773.727
343.784, 1731.420
344.266, 1677.467
344.748, 1622.476
345.230, 1566.403
345.712, 1519.691
346.194, 1483.910
346.676, 1454.615
347.158, 1432.356
347.640, 1415.372
348.122, 1400.710
348.605, 1386.874
349.087, 1375.794
349.569, 1350.571
350.051, 1366.655
350.533, 1372.711
351.015, 1369.280
351.497, 1327.943
351.979, 1335.552
352.462, 1323.547
352.944, 1310.737
353.426, 1325.236
353.908, 1289.413
354.390, 1303.479
354.872, 1297.629
355.354, 1300.895
355.836, 1284.424
356.319, 1273.529
356.801, 1273.655
357.283, 1253.089
357.765, 1223.119
358.247, 1199.124
358.729, 1180.964
359.211, 1171.909
359.693, 1180.162
360.175, 1194.942
360.658, 1196.722
361.140, 1179.988
361.622, 1163.186
362.104, 1156.417
362.586, 1156.529
363.068, 1158.653
363.550, 1162.759
364.032, 1162.128
364.514, 1146.953
364.997, 1114.156
365.479, 1084.426
365.961, 1045.371
366.443, 1020.207
366.925, 1042.502
367.407, 1099.098
367.889, 1135.184
368.371, 1109.558
368.853, 1034.321
369.336, 991.265
369.818, 1018.596
370.300, 1033.030
370.782, 1004.981
371.264, 967.096
371.746, 961.435
372.228, 999.394
372.711, 948.829
373.193, 1005.464
373.675, 1036.078
374.157, 1042.068
374.639, 949.683
375.121, 984.328
375.603, 968.065
376.085, 949.715
376.567, 1002.240
377.049, 924.163
377.532, 968.612
378.014, 942.953
378.496, 951.399
378.978, 966.856
379.460, 983.386
379.942, 997.973
380.424, 1005.398
380.906, 1002.366
381.389, 999.754
381.871, 1015.478
382.353, 1041.585
382.835, 1037.997
383.317, 983.918
383.799, 922.712
384.281, 913.622
384.763, 955.080
385.246, 991.676
385.728, 1017.585
386.210, 1032.064
386.692, 1030.704
387.174, 1015.459
387.656, 995.678
388.138, 975.656
388.620, 956.970
389.102, 950.090
389.585, 976.976
390.067, 987.660
390.549, 960.416
391.031, 919.424
391.513, 890.104
391.995, 880.246
392.477, 883.522
392.959, 893.312
393.441, 912.638
393.924, 926.144
394.406, 931.055
394.888, 932.434
395.370, 930.715
395.852, 926.932
396.334, 922.598
396.816, 918.078
397.298, 914.220
397.780, 914.159
398.263, 919.692
398.745, 922.280
399.227, 911.264
399.709, 900.382
400.191, 905.572
400.673, 930.516
401.155, 954.661
401.638, 965.523
402.120, 965.457
402.602, 957.809
403.084, 941.028
403.566, 927.089
404.048, 931.489
404.530, 952.057
405.012, 955.347
405.494, 924.899
405.977, 890.766
406.459, 861.832
406.941, 842.583
407.423, 848.517
407.905, 889.557
408.387, 943.386
408.869, 959.145
409.351, 900.798
409.833, 861.235
410.316, 820.325
410.798, 869.753
411.280, 897.252
411.762, 904.001
412.244, 827.850
412.726, 858.747
413.208, 846.743
413.690, 832.981
414.172, 878.945
414.655, 814.851
415.137, 859.868
415.619, 861.329
416.101, 882.724
416.583, 852.039
417.065, 877.567
417.547, 886.830
418.029, 882.020
418.512, 886.472
418.994, 912.055
419.476, 934.509
419.958, 920.036
420.440, 876.857
420.922, 852.085
421.404, 873.990
421.886, 905.635
422.368, 913.928
422.851, 902.105
423.333, 889.147
423.815, 883.812
424.297, 885.510
424.779, 892.462
425.261, 808.471
425.743, 913.589
426.225, 972.803
426.708, 988.580
427.190, 830.817
427.672, 897.143
428.154, 873.665
428.636, 846.505
429.118, 944.371
429.600, 811.849
430.082, 907.733
430.565, 912.441
431.047, 958.878
431.529, 914.955
432.011, 898.942
432.493, 896.837
432.975, 875.924
433.457, 900.225
433.939, 913.550
434.421, 916.490
434.904, 877.939
435.386, 892.965
435.868, 886.520
436.350, 879.194
436.832, 901.761
437.314, 869.244
437.796, 891.337
438.278, 891.631
438.760, 901.901
439.243, 890.568
439.725, 885.907
440.207, 902.858
440.689, 883.806
441.171, 877.623
441.653, 865.552
442.135, 833.900
442.617, 806.557
443.099, 805.707
443.582, 828.319
444.064, 855.122
444.546, 873.068
445.028, 880.971
445.510, 867.135
445.992, 803.692
446.474, 767.088
446.957, 793.864
447.439, 841.627
447.921, 872.162
448.403, 877.239
448.885, 870.305
449.367, 861.123
449.849, 849.556
450.331, 832.569
450.813, 806.423
451.296, 785.518
451.778, 781.319
452.260, 791.334
452.742, 806.669
453.224, 836.769
453.706, 861.190
454.188, 865.112
454.670, 855.928
455.152, 847.666
455.635, 844.795
456.117, 846.664
456.599, 854.404
457.081, 875.288
457.563, 874.518
458.045, 827.172
458.527, 786.372
459.009, 782.772
459.491, 802.753
459.974, 816.014
460.456, 805.574
460.938, 785.512
461.420, 788.999
461.902, 824.382
462.384, 846.062
462.866, 837.598
463.348, 819.198
463.831, 800.471
464.313, 783.329
464.795, 775.453
465.277, 787.782
465.759, 807.732
466.241, 818.891
466.723, 821.047
467.205, 817.043
467.687, 805.143
468.170, 791.167
468.652, 791.789
469.134, 818.105
469.616, 833.373
470.098, 823.386
470.580, 806.381
471.062, 796.946
471.544, 796.670
472.026, 800.998
472.509, 806.779
472.991, 813.774
473.473, 821.005
473.955, 837.854
474.437, 838.729
474.919, 799.700
475.401, 756.735
475.883, 746.233
476.366, 773.158
476.848, 803.959
477.330, 809.226
477.812, 795.904
478.294, 788.940
478.776, 791.349
479.258, 792.675
479.740, 783.612
480.223, 769.093
480.705, 764.588
481.187, 779.160
481.669, 789.981
482.151, 781.502
482.633, 766.461
483.115, 766.322
483.597, 784.166
484.079, 800.402
484.561, 792.586
485.044, 759.192
485.526, 744.994
486.008, 770.315
486.490, 792.931
486.972, 807.641
487.454, 813.882
487.936, 809.564
488.418, 794.260
488.901, 775.976
489.383, 763.684
489.865, 756.876
490.347, 748.521
490.829, 734.730
491.311, 726.246
491.793, 732.234
492.275, 749.137
492.758, 771.214
493.240, 813.620
493.722, 839.908
494.204, 812.181
494.686, 757.335
495.168, 728.751
495.650, 740.297
496.132, 765.333
496.614, 773.394
497.097, 761.981
497.579, 754.354
498.061, 756.610
498.543, 755.534
499.025, 738.992
499.507, 719.937
499.989, 719.453
500.471, 744.752
500.953, 774.789
501.436, 782.227
501.918, 767.355
502.400, 750.427
502.882, 727.847
503.364, 712.963
503.846, 724.513
504.328, 750.281
504.810, 761.860
505.293, 744.744
505.775, 724.929
506.257, 717.482
506.739, 718.922
507.221, 722.340
507.703, 725.897
508.185, 730.896
508.667, 738.353
509.150, 747.910
509.632, 763.715
510.114, 804.745
510.596, 830.145
511.078, 820.881
511.560, 792.553
512.042, 763.112
512.524, 738.672
513.006, 719.790
513.489, 705.856
513.971, 697.214
514.453, 701.454
514.935, 725.446
515.417, 748.932
515.899, 760.330
516.381, 761.067
516.863, 752.363
517.346, 727.381
517.828, 703.690
518.310, 687.433
518.792, 679.410
519.274, 683.961
519.756, 701.161
520.238, 721.375
520.720, 736.026
521.202, 745.128
521.685, 744.784
522.167, 719.647
522.649, 703.167
523.131, 707.479
523.613, 719.652
524.095, 726.045
524.577, 723.640
525.059, 719.246
525.541, 721.011
526.024, 726.441
526.506, 721.669
526.988, 702.156
527.470, 690.654
527.952, 705.953
528.434, 736.354
528.916, 751.345
529.398, 745.383
529.880, 736.178
530.363, 726.981
530.845, 741.939
531.327, 751.034
531.809, 754.581
532.291, 735.961
532.773, 745.965
533.255, 744.498
533.737, 742.560
534.219, 756.592
534.702, 741.197
535.184, 753.409
535.666, 753.269
536.148, 747.984
536.630, 738.256
537.112, 726.137
537.594, 711.582
538.076, 696.035
538.559, 680.250
539.041, 664.486
539.523, 654.856
540.005, 655.461
540.487, 660.729
540.969, 659.339
541.451, 644.653
541.933, 643.835
542.416, 670.573
542.898, 699.964
543.380, 721.903
543.862, 733.774
544.344, 730.508
544.826, 708.589
545.308, 680.791
545.790, 673.671
546.273, 691.337
546.755, 700.095
547.237, 689.646
547.719, 678.186
548.201, 679.641
548.683, 689.517
549.165, 696.016
549.647, 698.993
550.129, 694.091
550.612, 664.436
551.094, 626.957
551.576, 623.406
552.058, 663.478
552.540, 711.537
553.022, 731.004
553.504, 721.185
553.986, 704.107
554.468, 668.431
554.951, 638.786
555.433, 616.041
555.915, 603.070
556.397, 607.202
556.879, 628.150
557.361, 648.124
557.843, 650.399
558.325, 640.104
558.807, 631.940
559.290, 626.393
559.772, 623.007
560.254, 624.604
560.736, 626.010
561.218, 611.535
561.700, 569.007
562.182, 546.530
562.664, 568.583
563.146, 599.369
563.629, 613.112
564.111, 611.217
564.593, 604.644
565.075, 598.969
565.557, 596.058
566.039, 601.994
566.521, 619.737
567.003, 631.585
567.486, 636.926
567.968, 633.538
568.450, 617.658
568.932, 592.485
569.414, 567.124
569.896, 536.904
570.378, 515.985
570.860, 520.542
571.343, 540.482
571.825, 556.942
572.307, 565.198
572.789, 568.075
573.271, 568.141
573.753, 565.404
574.235, 559.999
574.717, 545.087
575.200, 536.996
575.682, 544.476
576.164, 555.892
576.646, 563.253
577.128, 564.304
577.610, 555.047
578.092, 521.631
578.574, 479.809
579.056, 462.256
579.539, 468.884
580.021, 481.662
580.503, 495.086
580.985, 506.406
581.467, 509.506
581.949, 498.405
582.431, 496.117
582.913, 506.964
583.395, 522.324
583.878, 543.148
584.360, 563.980
584.842, 574.976
585.324, 571.885
585.806, 564.314
586.288, 569.054
586.770, 584.605
587.252, 581.841
587.734, 553.038
588.217, 520.471
588.699, 495.306
589.181, 477.174
589.663, 464.126
590.145, 459.427
590.627, 453.586
591.109, 436.377
591.591, 421.426
592.073, 424.664
592.556, 444.796
593.038, 470.950
593.520, 497.674
594.002, 519.871
594.484, 520.755
594.966, 495.947
595.448, 465.061
595.930, 414.353
596.413, 376.651
596.895, 380.121
597.377, 415.842
597.859, 450.879
598.341, 485.993
598.823, 506.810
599.305, 487.001
599.787, 450.263
600.269, 448.314
600.752, 490.289
601.234, 530.470
601.716, 521.182
602.198, 467.305
602.680, 445.168
603.162, 481.464
603.644, 504.633
604.127, 495.339
604.609, 430.120
605.091, 502.733
605.573, 541.889
606.055, 549.385
606.537, 430.397
607.019, 474.736
607.501, 453.622
607.983, 429.823
608.466, 497.150
608.948, 396.559
609.430, 462.442
609.912, 461.870
610.394, 491.714
610.876, 455.698
611.358, 440.024
611.840, 490.231
612.322, 503.958
612.805, 460.360
613.287, 423.078
613.769, 385.939
614.251, 426.097
614.733, 447.492
615.215, 451.132
615.697, 383.838
616.179, 408.141
616.661, 395.736
617.144, 381.826
617.626, 419.020
618.108, 362.044
618.590, 398.426
619.072, 397.543
619.554, 413.715
620.036, 392.954
620.518, 383.600
621.000, 411.192
621.483, 418.326
621.965, 393.313
622.447, 371.841
622.929, 378.923
623.411, 414.119
623.893, 425.918
624.375, 409.822
624.857, 394.806
625.340, 396.012
625.822, 408.167
626.304, 420.300
626.786, 437.943
627.268, 442.997
627.750, 430.473
628.232, 409.936
628.714, 374.955
629.196, 338.436
629.679, 324.116
630.161, 342.241
630.643, 373.140
631.125, 400.415
631.607, 421.893
632.089, 422.663
632.571, 397.787
633.054, 378.091
633.536, 383.883
634.018, 406.114
634.500, 419.789
634.982, 424.730
635.464, 421.901
635.946, 408.878
636.428, 390.394
636.910, 361.454
637.393, 330.483
637.875, 314.621
638.357, 322.214
638.839, 340.870
639.321, 358.047
639.803, 373.139
640.285, 381.565
640.767, 382.765
641.250, 377.229
641.732, 361.578
642.214, 341.051
642.696, 333.041
643.178, 344.063
643.660, 354.180
644.142, 362.577
644.624, 368.955
645.106, 376.452
645.589, 381.329
646.071, 373.465
646.553, 346.877
647.035, 317.055
647.517, 300.971
647.999, 298.618
648.481, 316.159
648.963, 359.049
649.445, 390.302
649.928, 381.558
650.410, 346.940
650.892, 331.944
651.374, 356.788
651.856, 363.661
652.338, 327.812
652.820, 293.238
653.302, 288.220
653.784, 305.975
654.267, 331.490
654.749, 360.476
655.231, 379.052
655.713, 358.894
656.195, 312.788
656.677, 298.375
657.159, 324.225
657.641, 347.148
658.123, 338.513
658.606, 311.227
659.088, 300.345
659.570, 315.259
660.052, 330.311
660.534, 354.399
661.016, 369.891
661.498, 362.487
661.981, 340.861
662.463, 319.637
662.945, 303.341
663.427, 295.009
663.909, 298.865
664.391, 312.687
664.873, 337.789
665.355, 373.484
665.837, 388.957
666.320, 363.332
666.802, 316.013
667.284, 288.670
667.766, 284.947
668.248, 293.081
668.730, 337.305
669.212, 366.211
669.694, 344.758
670.177, 300.682
670.659, 277.225
671.141, 286.479
671.623, 302.768
672.105, 310.551
672.587, 312.003
673.069, 308.958
673.551, 302.398
674.033, 297.174
674.516, 295.667
674.998, 295.595
675.480, 293.844
675.962, 291.626
676.444, 280.768
676.926, 243.925
677.408, 221.835
677.890, 234.171
678.372, 263.573
678.855, 294.952
679.337, 326.393
679.819, 344.214
680.301, 334.662
680.783, 313.840
681.265, 289.917
681.747, 268.792
682.229, 268.558
682.711, 294.692
683.194, 324.023
683.676, 327.184
684.158, 304.869
684.640, 281.203
685.122, 249.430
685.604, 232.422
686.086, 245.748
686.568, 270.815
687.050, 289.780
687.533, 302.575
688.015, 310.787
688.497, 312.416
688.979, 312.103
689.461, 318.271
689.943, 321.582
690.425, 298.594
690.907, 251.017
691.390, 219.274
691.872, 244.600
692.354, 304.718
692.836, 328.634
693.318, 313.804
693.800, 292.531
694.282, 268.285
694.764, 248.202
695.247, 238.953
695.729, 240.519
696.211, 248.701
696.693, 281.878
697.175, 296.893
697.657, 265.091
698.139, 227.326
698.621, 222.697
699.104, 245.176
699.586, 261.226
700.068, 250.725
700.550, 232.228
701.032, 228.698
701.514, 237.511
701.996, 251.128
702.478, 268.657
702.960, 282.980
703.443, 289.738
703.925, 289.184
704.407, 281.721
704.889, 263.136
705.371, 245.907
705.853, 222.585
706.335, 208.573
706.817, 215.214
707.299, 234.451
707.782, 254.658
708.264, 274.761
708.746, 285.801
709.228, 278.744
709.710, 262.167
710.192, 238.792
710.674, 214.780
711.156, 210.643
711.638, 235.263
712.121, 269.489
712.603, 285.338
713.085, 282.199
713.567, 282.702
714.049, 289.874
714.531, 292.538
715.013, 284.098
715.495, 270.945
715.977, 261.959
716.460, 257.452
716.942, 249.928
717.424, 231.130
717.906, 217.118
718.388, 217.495
718.870, 225.750
719.352, 235.301
719.834, 244.023
720.317, 250.656
720.799, 255.463
721.281, 256.184
721.763, 242.605
722.245, 217.882
722.727, 212.525
723.209, 236.535
723.691, 258.103
724.174, 246.895
724.656, 210.301
725.138, 193.989
725.620, 213.973
726.102, 228.241
726.584, 226.356
727.066, 226.384
727.548, 243.589
728.031, 269.735
728.513, 284.216
728.995, 277.233
729.477, 271.263
729.959, 290.418
730.441, 312.544
730.923, 302.665
731.405, 267.362
731.887, 239.262
732.370, 233.626
732.852, 241.706
733.334, 253.426
733.816, 268.985
734.298, 276.120
734.780, 275.440
735.262, 262.068
735.744, 219.275
736.226, 176.708
736.709, 185.343
737.191, 252.826
737.673, 294.228
738.155, 296.658
738.637, 282.005
739.119, 235.781
739.601, 190.391
740.083, 189.423
740.565, 230.013
741.048, 262.051
741.530, 229.851
742.012, 267.791
742.494, 288.704
742.976, 293.507
743.458, 233.945
743.940, 257.497
744.422, 247.741
744.904, 236.618
745.387, 271.868
745.869, 221.668
746.351, 256.182
746.833, 256.880
747.315, 273.055
747.797, 255.716
748.279, 247.846
748.761, 206.119
749.244, 181.871
749.726, 179.432
750.208, 186.186
750.690, 202.900
751.172, 223.483
751.654, 254.529
752.136, 282.979
752.618, 279.250
753.101, 237.619
753.583, 196.879
754.065, 203.542
754.547, 235.000
755.029, 226.928
755.511, 184.400
755.993, 166.246
756.475, 192.702
756.958, 226.287
757.440, 227.718
757.922, 200.681
758.404, 189.555
758.886, 204.761
759.368, 216.347
759.850, 216.139
760.332, 215.264
760.814, 224.263
761.297, 237.476
761.779, 203.826
762.261, 246.981
762.743, 271.493
763.225, 278.362
763.707, 214.750
764.189, 242.150
764.671, 233.076
765.153, 222.507
765.636, 262.717
766.118, 209.356
766.600, 248.761
767.082, 251.135
767.564, 244.926
768.046, 216.368
768.528, 185.732
769.010, 166.516
769.492, 161.012
769.975, 174.171
770.457, 206.281
770.939, 232.555
771.421, 253.767
771.903, 267.893
772.385, 276.680
772.867, 276.751
773.349, 262.249
773.831, 236.631
774.314, 211.297
774.796, 184.623
775.278, 166.211
775.760, 159.463
776.242, 163.691
776.724, 185.055
777.206, 216.453
777.688, 240.511
778.171, 249.448
778.653, 250.235
779.135, 250.681
779.617, 249.805
780.099, 243.690
780.581, 232.325
781.063, 217.607
781.545, 198.655
782.028, 184.736
782.510, 189.539
782.992, 213.096
783.474, 227.061
783.956, 228.795
784.438, 225.691
784.920, 213.283
785.402, 201.724
785.885, 195.592
786.367, 196.080
786.849, 208.350
787.331, 249.210
787.813, 274.493
788.295, 257.605
788.777, 228.726
789.259, 209.768
789.741, 201.042
790.224, 197.928
790.706, 198.699
791.188, 199.628
791.670, 193.193
792.152, 185.720
792.634, 196.673
793.116, 221.837
793.598, 229.596
794.080, 208.741
794.563, 184.544
795.045, 185.522
795.527, 208.851
796.009, 233.975
796.491, 268.801
796.973, 275.497
797.455, 225.488
797.937, 176.899
798.419, 182.217
798.902, 225.884
799.384, 245.801
799.866, 231.312
800.348, 212.542
800.830, 183.327
801.312, 161.010
801.794, 155.299
802.276, 163.543
802.758, 189.056
803.241, 231.826
803.723, 252.679
804.205, 201.167
804.687, 134.711
805.169, 119.346
805.651, 140.010
806.133, 162.042
806.615, 176.245
807.098, 186.190
807.580, 193.880
808.062, 201.136
808.544, 216.904
809.026, 240.763
809.508, 242.658
809.990, 212.671
810.472, 192.379
810.955, 214.611
811.437, 253.753
811.919, 245.198
812.401, 159.045
812.883, 121.864
813.365, 178.486
813.847, 227.541
814.329, 237.529
814.812, 226.760
815.294, 209.900
815.776, 189.034
816.258, 174.934
816.740, 173.318
817.222, 175.516
817.704, 176.783
818.186, 180.313
818.668, 193.056
819.151, 211.648
819.633, 223.837
820.115, 223.143
820.597, 217.580
821.079, 216.479
821.561, 216.576
822.043, 213.036
822.525, 204.495
823.007, 181.298
823.490, 139.205
823.972, 103.233
824.454, 108.800
824.936, 149.566
825.418, 170.725
825.900, 167.930
826.382, 172.581
826.864, 199.375
827.346, 217.176
827.829, 190.805
828.311, 134.362
828.793, 116.220
829.275, 172.397
829.757, 208.835
830.239, 220.260
830.721, 218.517
831.203, 197.738
831.685, 172.097
832.168, 162.192
832.650, 171.330
833.132, 184.091
833.614, 206.385
834.096, 218.380
834.578, 200.347
835.060, 168.787
835.542, 140.745
836.024, 121.407
836.507, 116.529
836.989, 133.582
837.471, 154.129
837.953, 152.552
838.435, 138.311
838.917, 133.327
839.399, 138.516
839.881, 144.752
840.364, 147.843
840.846, 149.672
841.328, 153.300
841.810, 158.296
842.292, 158.878
842.774, 153.949
843.256, 153.527
843.738, 163.008
844.221, 169.661
844.703, 157.626
845.185, 133.198
845.667, 133.228
846.149, 181.301
846.631, 210.517
847.113, 210.902
847.595, 200.205
848.078, 177.178
848.560, 151.572
849.042, 138.605
849.524, 140.726
850.006, 143.881
850.488, 136.096
850.970, 138.619
851.452, 178.231
851.934, 222.461
852.417, 232.651
852.899, 210.624
853.381, 182.990
853.863, 158.522
854.345, 143.137
854.827, 150.278
855.309, 164.906
855.791, 161.566
856.273, 144.555
856.756, 135.554
857.238, 142.626
857.720, 154.444
858.202, 160.722
858.684, 160.755
859.166, 144.949
859.648, 116.298
860.130, 115.180
860.612, 152.776
861.095, 184.333
861.577, 173.169
862.059, 135.252
862.541, 118.782
863.023, 130.891
863.505, 126.772
863.987, 90.943
864.469, 74.254
864.951, 113.160
865.434, 166.873
865.916, 173.626
866.398, 127.951
866.880, 108.131
867.362, 135.606
867.844, 157.936
868.326, 169.125
868.808, 171.200
869.291, 157.868
869.773, 137.773
870.255, 131.858
870.737, 147.583
871.219, 164.978
871.701, 179.520
872.183, 190.766
872.665, 203.236
873.148, 209.982
873.630, 193.575
874.112, 156.491
874.594, 132.609
875.076, 150.822
875.558, 176.970
876.040, 176.196
876.522, 160.057
877.005, 143.859
877.487, 131.150
877.969, 126.557
878.451, 132.249
878.933, 139.863
879.415, 136.737
879.897, 127.407
880.379, 128.130
880.861, 137.716
881.344, 144.074
881.826, 143.943
882.308, 146.439
882.790, 161.143
883.272, 180.120
883.754, 173.691
884.236, 136.474
884.718, 128.478
885.200, 165.288
885.683, 186.735
886.165, 156.627
886.647, 112.212
887.129, 110.527
887.611, 155.433
888.093, 167.137
888.575, 116.841
889.057, 84.050
889.539, 89.234
890.022, 107.246
890.504, 122.034
890.986, 136.904
891.468, 163.542
891.950, 216.292
892.432, 238.854
892.914, 201.471
893.396, 158.083
893.878, 120.943
894.361, 97.337
894.843, 103.654
895.325, 133.500
895.807, 144.794
896.289, 106.349
896.771, 73.247
897.253, 79.525
897.735, 99.216
898.218, 108.744
898.700, 110.783
899.182, 118.254
899.664, 134.519
900.146, 145.327
900.628, 128.827
901.110, 110.441
901.592, 128.238
902.075, 163.706
902.557, 179.003
903.039, 171.322
903.521, 161.470
904.003, 161.459
904.485, 163.547
904.967, 156.393
905.449, 142.754
905.932, 128.576
906.414, 115.312
906.896, 111.587
907.378, 120.020
907.860, 131.223
908.342, 137.442
908.824, 138.184
909.306, 131.043
909.788, 115.961
910.271, 97.217
910.753, 73.927
911.235, 56.141
911.717, 47.594
912.199, 50.124
912.681, 68.894
913.163, 103.593
913.645, 127.812
914.127, 142.350
914.610, 142.288
915.092, 117.335
915.574, 95.840
916.056, 103.374
916.538, 68.455
917.020, 112.130
917.502, 136.727
917.984, 143.271
918.466, 77.693
918.949, 105.246
919.431, 95.476
919.913, 84.176
920.395, 124.836
920.877, 69.748
921.359, 109.585
921.841, 111.529
922.323, 130.816
922.805, 112.549
923.288, 105.882
923.770, 136.780
924.252, 146.877
924.734, 124.288
925.216, 144.677
925.698, 88.277
926.180, 99.261
926.662, 139.317
927.145, 118.616
927.627, 139.692
928.109, 144.856
928.591, 77.712
929.073, 136.320
929.555, 140.545
930.037, 88.929
930.519, 143.229
931.002, 99.311
931.484, 106.616
931.966, 88.944
932.448, 93.935
932.930, 117.726
933.412, 126.712
933.894, 101.606
934.376, 79.784
934.859, 111.178
935.341, 156.030
935.823, 150.627
936.305, 114.340
936.787, 103.142
937.269, 125.937
937.751, 145.527
938.233, 135.296
938.715, 110.921
939.198, 87.326
939.680, 70.209
940.162, 84.651
940.644, 122.445
941.126, 132.811
941.608, 99.290
942.090, 66.941
942.572, 83.694
943.054, 129.224
943.537, 156.045
944.019, 164.906
944.501, 154.507
944.983, 126.229
945.465, 106.458
945.947, 74.025
946.429, 114.387
946.911, 137.079
947.393, 143.050
947.876, 82.219
948.358, 107.648
948.840, 98.509
949.322, 87.951
949.804, 125.522
950.286, 74.407
950.768, 111.215
951.250, 112.925
951.732, 130.699
952.215, 113.689
952.697, 107.423
953.179, 135.951
953.661, 145.213
954.143, 124.199
954.625, 142.994
955.107, 90.664
955.589, 100.746
956.072, 137.758
956.554, 118.493
957.036, 137.923
957.518, 142.617
958.000, 80.335
958.482, 134.529
958.964, 138.352
959.446, 106.553
959.929, 75.525
960.411, 69.329
960.893, 73.151
961.375, 96.917
961.857, 112.945
962.339, 104.980
962.821, 88.803
963.303, 83.209
963.786, 87.707
964.268, 91.634
964.750, 102.895
965.232, 99.911
965.714, 59.308
966.196, 30.303
966.678, 41.643
967.160, 74.907
967.642, 108.539
968.125, 143.103
968.607, 163.857
969.089, 174.665
969.571, 165.284
970.053, 103.406
970.535, 53.017
971.017, 64.381
971.499, 106.477
971.981, 122.321
972.464, 103.560
972.946, 100.435
973.428, 145.174
973.910, 170.117
974.392, 147.370
974.874, 109.946
975.356, 66.610
975.838, 30.628
976.320, 34.409
976.803, 93.070
977.285, 125.472
977.767, 90.590
978.249, 58.508
978.731, 53.109
979.213, 61.804
979.695, 79.014
980.177, 99.869
980.659, 114.743
981.142, 121.204
981.624, 124.667
982.106, 122.594
982.588, 122.677
983.070, 136.663
983.552, 148.115
984.034, 135.377
984.516, 105.440
984.999, 84.500
985.481, 78.472
985.963, 82.579
986.445, 117.272
986.927, 136.311
987.409, 87.869
987.891, 28.771
988.373, 30.245
988.856, 83.301
989.338, 126.717
989.820, 147.789
990.302, 142.468
990.784, 74.541
991.266, 17.566
991.748, 31.336
992.230, 74.748
992.713, 99.695
993.195, 101.410
993.677, 90.648
994.159, 59.722
994.641, 44.986
995.123, 87.484
995.605, 125.123
996.087, 100.975
996.569, 52.958
997.052, 33.798
997.534, 46.567
998.016, 61.573
998.498, 68.331
998.980, 74.993
999.462, 86.897
999.944, 98.488
1000.426, 107.872
1000.908, 113.154
1001.391, 108.839
1001.873, 96.884
1002.355, 91.865
1002.837, 104.309
1003.319, 114.312
1003.801, 115.009
1004.283, 107.000
1004.765, 79.415
1005.247, 49.538
1005.730, 46.245
1006.212, 69.078
1006.694, 85.301
1007.176, 77.475
1007.658, 70.134
1008.140, 75.221
1008.622, 84.630
1009.104, 91.566
1009.587, 99.110
1010.069, 114.945
1010.551, 138.173
1011.033, 156.314
1011.515, 171.831
1011.997, 168.554
1012.479, 117.280
1012.961, 66.964
1013.443, 60.411
1013.926, 74.776
1014.408, 70.186
1014.890, 45.303
1015.372, 36.276
1015.854, 67.073
1016.336, 95.965
1016.818, 109.799
1017.300, 112.216
1017.783, 95.779
1018.265, 75.054
1018.747, 72.438
1019.229, 87.820
1019.711, 97.982
1020.193, 92.881
1020.675, 86.801
1021.157, 78.536
1021.639, 77.418
1022.122, 99.661
1022.604, 55.391
1023.086, 107.947
1023.568, 136.999
1024.050, 143.811
1024.532, 61.770
1025.014, 94.464
1025.496, 81.177
1025.979, 66.002
1026.461, 114.845
1026.943, 45.727
1027.425, 87.276
1027.907, 108.355
1028.389, 115.364
1028.871, 89.085
1029.353, 65.011
1029.835, 45.866
1030.318, 35.668
1030.800, 47.334
1031.282, 61.329
1031.764, 47.413
1032.246, 11.941
1032.728, 2.998
1033.210, 42.651
1033.692, 77.856
1034.175, 102.840
1034.657, 121.943
1035.139, 111.074
1035.621, 77.161
1036.103, 112.667
1036.585, 131.323
1037.067, 134.032
1037.549, 73.038
1038.031, 94.305
1038.514, 82.598
1038.996, 69.547
1039.478, 102.391
1039.960, 50.663
1040.442, 82.779
1040.924, 75.297
1041.406, 70.657
1041.888, 96.170
1042.370, 105.216
1042.853, 84.979
1043.335, 70.940
1043.817, 79.618
1044.299, 88.001
1044.781, 53.460
1045.263, 103.481
1045.745, 132.976
1046.227, 143.047
1046.710, 75.524
1047.192, 108.199
1047.674, 100.717
1048.156, 91.588
1048.638, 138.366
1049.120, 82.124
1049.602, 122.533
1050.084, 89.413
1050.567, 135.312
1051.049, 162.026
1051.531, 170.591
1052.013, 106.649
1052.495, 136.335
1052.977, 128.499
1053.459, 119.125
1053.941, 161.989
1054.423, 108.592
1054.906, 150.632
1055.388, 154.573
1055.870, 175.949
1056.352, 159.571
1056.834, 154.854
1057.316, 187.903
1057.798, 200.041
1058.280, 179.317
1058.762, 201.801
1059.245, 164.305
1059.727, 103.039
1060.209, 52.482
1060.691, 27.844
1061.173, 30.377
1061.655, 56.866
1062.137, 105.854
1062.619, 150.370
1063.102, 161.340
1063.584, 148.364
1064.066, 128.813
1064.548, 104.297
1065.030, 77.711
1065.512, 50.979
1065.994, 30.232
1066.476, 17.619
1066.958, 13.087
1067.441, 18.005
1067.923, 27.605
1068.405, 34.291
1068.887, 41.645
1069.369, 63.520
1069.851, 89.980
1070.333, 90.794
1070.815, 64.164
1071.297, 39.931
1071.780, 34.980
1072.262, 39.764
1072.744, 52.295
1073.226, 64.033
1073.708, 65.025
1074.190, 59.077
1074.672, 51.348
1075.154, 43.587
1075.637, 38.063
1076.119, 36.472
1076.601, 32.211
1077.083, 8.643
1077.565, -3.880
1078.047, 27.541
1078.529, 69.973
1079.011, 87.462
1079.493, 85.385
1079.976, 87.952
1080.458, 101.645
1080.940, 105.322
1081.422, 84.480
1081.904, 63.963
1082.386, 44.980
1082.868, 36.591
1083.350, 60.518
1083.833, 92.322
1084.315, 70.876
1084.797, 99.778
1085.279, 116.458
1085.761, 121.574
1086.243, 80.488
1086.725, 99.062
1087.207, 93.727
1087.689, 87.411
1088.172, 114.385
1088.654, 80.018
1089.136, 106.461
1089.618, 108.631
1090.100, 121.909
1090.582, 111.131
1091.064, 107.784
1091.546, 108.139
1092.028, 75.699
1092.511, 40.188
1092.993, 50.382
1093.475, 87.338
1093.957, 101.008
1094.439, 91.038
1094.921, 75.661
1095.403, 54.555
1095.885, 38.987
1096.368, 31.285
1096.850, 35.025
1097.332, 53.612
1097.814, 73.276
1098.296, 70.020
1098.778, 53.080
1099.260, 51.537
1099.742, 62.944
1100.224, 86.152
1100.707, 114.900
1101.189, 116.882
1101.671, 81.133
1102.153, 46.192
1102.635, 52.468
1103.117, 68.956
1103.599, 50.865
1104.081, 19.239
1104.563, 6.562
1105.046, 8.147
1105.528, 5.472
1106.010, -3.708
1106.492, -3.709
1106.974, 18.176
1107.456, 38.282
1107.938, 33.553
1108.420, 29.724
1108.903, 59.054
1109.385, 92.156
1109.867, 83.521
1110.349, 43.775
1110.831, 25.562
1111.313, 47.232
1111.795, 58.514
1112.277, 28.333
1112.760, 11.894
1113.242, 42.058
1113.724, 77.076
1114.206, 89.356
1114.688, 84.158
1115.170, 68.652
1115.652, 41.506
1116.134, 33.546
1116.616, 59.349
1117.099, 69.842
1117.581, 55.002
1118.063, 35.994
1118.545, 15.103
1119.027, 10.021
1119.509, 47.475
1119.991, 109.378
1120.473, 118.248
1120.955, 70.946
1121.438, 65.852
1121.920, 107.647
1122.402, 128.048
1122.884, 109.217
1123.366, 78.729
1123.848, 54.217
1124.330, 39.334
1124.812, 51.628
1125.295, 73.538
1125.777, 41.089
1126.259, -19.581
1126.741, -22.524
1127.223, 28.579
1127.705, 69.033
1128.187, 73.369
1128.669, 62.761
1129.151, 43.955
1129.634, 32.176
1130.116, 50.109
1130.598, 76.110
1131.080, 89.223
1131.562, 90.326
1132.044, 59.515
1132.526, 90.391
1133.008, 106.292
1133.490, 108.025
1133.973, 53.141
1134.455, 71.364
1134.937, 60.290
1135.419, 48.017
1135.901, 76.527
1136.383, 29.884
1136.865, 57.748
1137.347, 55.869
1137.830, 67.597
1138.312, 49.855
1138.794, 41.218
1139.276, 37.117
1139.758, 15.120
1140.240, 6.358
1140.722, 38.107
1141.204, 67.152
1141.687, 33.848
1142.169, -39.509
1142.651, -54.132
1143.133, -10.851
1143.615, 39.016
1144.097, 91.177
1144.579, 96.831
1145.061, 45.344
1145.543, 3.505
1146.026, 16.822
1146.508, 52.533
1146.990, 71.411
1147.472, 76.495
1147.954, 63.610
1148.436, 45.853
1148.918, 58.752
1149.400, 92.441
1149.882, 103.615
1150.365, 79.457
1150.847, 47.499
1151.329, 13.208
1151.811, -6.314
1152.293, 8.814
1152.775, 32.850
1153.257, 54.711
1153.739, 66.885
1154.222, 49.680
1154.704, 13.501
1155.186, 13.150
1155.668, 80.485
1156.150, 113.172
1156.632, 69.122
1157.114, 40.840
1157.596, 60.052
1158.078, 77.297
1158.561, 58.282
1159.043, 24.977
1159.525, 11.052
1160.007, 15.587
1160.489, 31.783
1160.971, 60.970
1161.453, 83.288
1161.935, 97.077
1162.417, 100.715
1162.900, 93.616
1163.382, 85.528
1163.864, 84.843
1164.346, 84.106
1164.828, 65.371
1165.310, 41.312
1165.792, 43.932
1166.274, 61.488
1166.757, 68.568
1167.239, 62.354
1167.721, 44.401
1168.203, 16.308
1168.685, 1.421
1169.167, 31.085
1169.649, 54.750
1170.131, 30.145
1170.614, 1.456
1171.096, 10.994
1171.578, 31.380
1172.060, 15.853
1172.542, -27.600
1173.024, -37.635
1173.506, 16.506
1173.988, 33.311
1174.470, -16.699
1174.953, -47.959
1175.435, -37.186
1175.917, -18.672
1176.399, -12.231
1176.881, -7.192
1177.363, 16.168
1177.845, 48.451
1178.327, 29.667
1178.809, -33.966
1179.292, -45.960
1179.774, -5.385
1180.256, 34.844
1180.738, 58.195
1181.220, 59.336
1181.702, 32.168
1182.184, 2.529
1182.666, 5.114
1183.149, 17.621
1183.631, 7.942
1184.113, -7.820
1184.595, -6.395
1185.077, 9.635
1185.559, 32.373
1186.041, 58.352
1186.523, 70.615
1187.005, 41.216
1187.488, 35.513
1187.970, 36.109
1188.452, 53.002
1188.934, 103.097
1189.416, 116.272
1189.898, 18.051
1190.380, 38.089
1190.862, 17.900
1191.344, 5.418
1191.827, 35.501
1192.309, 24.087
1192.791, 19.288
1193.273, 24.772
1193.755, 36.519
1194.237, 53.346
1194.719, 27.540
1195.201, 60.974
1195.684, 80.029
1196.166, 85.476
1196.648, 36.562
1197.130, 57.844
1197.612, 50.995
1198.094, 42.992
1198.576, 74.154
1199.058, 33.146
1199.541, 63.688
1200.023, 65.668
1200.505, 80.720
1200.987, 67.466
1201.469, 62.955
1201.951, 86.758
1202.433, 94.883
1202.915, 78.371
1203.397, 94.254
1203.880, 52.259
1204.362, 61.052
1204.844, 91.758
1205.326, 76.669
1205.808, 67.528
1206.290, 50.977
1206.772, 50.644
1207.254, 48.072
1207.736, 34.716
1208.219, 16.643
1208.701, -3.254
1209.183, -14.281
1209.665, 17.176
1210.147, 67.421
1210.629, 83.751
1211.111, 73.698
1211.593, 56.128
1212.076, 36.858
1212.558, 17.802
1213.040, -0.461
1213.522, -4.595
1214.004, 27.583
1214.486, 54.057
1214.968, 49.225
1215.450, 41.814
1215.932, 63.148
1216.415, 80.501
1216.897, 41.221
1217.379, -29.890
1217.861, -49.914
1218.343, -9.405
1218.825, 11.430
1219.307, 9.757
1219.789, 7.019
1220.271, 7.164
1220.754, -11.793
1221.236, -60.583
1221.718, -87.289
1222.200, -35.164
1222.682, 38.828
1223.164, 28.349
1223.646, -16.876
1224.128, -0.041
1224.611, 43.894
1225.093, 36.674
1225.575, -11.434
1226.057, -39.574
1226.539, -31.056
1227.021, -9.864
1227.503, 29.679
1227.985, 58.105
1228.468, 66.568
1228.950, 63.408
1229.432, 54.515
1229.914, 31.348
1230.396, -27.867
1230.878, -91.779
1231.360, -83.645
1231.842, -7.180
1232.324, 26.906
1232.807, 19.415
1233.289, 17.114
1233.771, 25.247
1234.253, 46.616
1234.735, 79.352
1235.217, 90.685
1235.699, 53.046
1236.181, 13.840
1236.663, 39.115
1237.146, 71.892
1237.628, 47.315
1238.110, 2.306
1238.592, -32.381
1239.074, -46.585
1239.556, -18.312
1240.038, 49.593
1240.520, 84.029
1241.003, 43.996
1241.485, 34.009
1241.967, 76.245
1242.449, 96.915
1242.931, 72.563
1243.413, 45.342
1243.895, 41.562
1244.377, 41.907
1244.859, 18.662
1245.342, -16.801
1245.824, -34.824
1246.306, -39.069
1246.788, -42.217
1247.270, -40.914
1247.752, -17.260
1248.234, 23.779
1248.716, 54.532
1249.198, 65.350
1249.681, 50.964
1250.163, -35.503
1250.645, -84.237
1251.127, -10.872
1251.609, 65.390
1252.091, 75.647
1252.573, 54.012
1253.055, 22.918
1253.538, -6.464
1254.020, 0.017
1254.502, 42.649
1254.984, 50.130
1255.466, 22.629
1255.948, 4.933
1256.430, 2.894
1256.912, 27.248
1257.395, 76.747
1257.877, 96.519
1258.359, 41.557
1258.841, -10.762
1259.323, 35.031
1259.805, 98.239
1260.287, 111.586
1260.769, 98.071
1261.251, 71.818
1261.734, 43.763
1262.216, 29.734
1262.698, 29.527
1263.180, 25.431
1263.662, 13.176
1264.144, 8.383
1264.626, 11.489
1265.108, 23.654
1265.590, 48.087
1266.073, 57.477
1266.555, 37.823
1267.037, 6.522
1267.519, -22.684
1268.001, -41.120
1268.483, -23.984
1268.965, 5.136
1269.447, 10.265
1269.930, -1.799
1270.412, -30.038
1270.894, -59.472
1271.376, -46.454
1271.858, 15.731
1272.340, 39.089
1272.822, 10.696
##END=



