##NAMES=Jamesonite
##RRUFFID=R050481
##IDEAL CHEMISTRY=Pb^2+^_4_Fe^2+^Sb^3+^_6_S^2-^_14_
##LOCALITY=Itos mine, Oruro City, Bolivia
##OWNER=RRUFF
##SOURCE=California Institute of Technology
##DESCRIPTION=A group of gray-black thickly acicular crystals
##STATUS=The identification of this mineral has been confirmed by X-ray diffraction and chemical analysis
##URL=rruff.info/R050481
##MEASURED CHEMISTRY=Pb_4.00_Fe_1.00_(Sb_5.97_As_0.03_)_Î£=6_S_14.00_
102.238, 424.144
102.720, 456.892
103.203, 508.733
103.685, 588.192
104.167, 665.705
104.649, 735.471
105.131, 798.201
105.613, 851.564
106.095, 889.734
106.577, 921.449
107.060, 961.115
107.542, 1012.456
108.024, 1067.429
108.506, 1123.149
108.988, 1165.813
109.470, 1228.722
109.952, 1328.702
110.434, 1453.676
110.916, 1555.899
111.399, 1618.021
111.881, 1665.939
112.363, 1714.593
112.845, 1760.075
113.327, 1811.503
113.809, 1877.923
114.291, 1959.963
114.773, 2028.450
115.256, 2072.352
115.738, 2099.766
116.220, 2118.392
116.702, 2121.195
117.184, 2122.923
117.666, 2130.314
118.148, 2144.574
118.630, 2163.167
119.113, 2190.364
119.595, 2221.297
120.077, 2244.972
120.559, 2246.666
121.041, 2242.706
121.523, 2247.861
122.005, 2267.125
122.487, 2294.433
122.969, 2327.355
123.451, 2365.199
123.934, 2402.387
124.416, 2431.898
124.898, 2458.260
125.380, 2489.388
125.862, 2532.582
126.344, 2580.811
126.826, 2623.453
127.308, 2659.264
127.791, 2694.517
128.273, 2739.217
128.755, 2790.232
129.237, 2834.277
129.719, 2862.857
130.201, 2878.985
130.683, 2891.293
131.165, 2899.818
131.648, 2906.083
132.130, 2910.893
132.612, 2914.140
133.094, 2921.533
133.576, 2940.656
134.058, 2970.339
134.540, 2994.018
135.022, 3007.079
135.504, 3012.508
135.986, 3018.319
136.469, 2985.406
136.951, 3025.602
137.433, 3048.051
137.915, 3053.708
138.397, 2992.274
138.879, 3017.473
139.361, 3007.954
139.844, 2997.011
140.326, 3015.287
140.808, 3061.625
141.290, 3066.953
141.772, 3007.578
142.254, 2960.076
142.736, 2958.749
143.218, 3028.960
143.700, 3078.404
144.182, 3105.525
144.665, 3112.505
145.147, 3104.649
145.629, 3066.945
146.111, 3031.410
146.593, 3017.315
147.075, 3050.160
147.557, 3065.164
148.039, 3049.094
148.522, 3003.610
149.004, 2972.177
149.486, 2956.659
149.968, 2953.834
150.450, 2961.188
150.932, 3000.086
151.414, 3027.535
151.896, 3033.615
152.378, 3013.443
152.861, 2998.308
153.343, 2995.952
153.825, 2997.903
154.307, 2993.514
154.789, 2970.918
155.271, 2951.166
155.753, 2942.056
156.235, 2949.116
156.717, 2956.034
157.200, 2957.752
157.682, 2957.292
158.164, 2961.110
158.646, 2977.231
159.128, 2993.686
159.610, 3002.982
160.092, 2989.849
160.574, 2986.808
161.057, 3014.898
161.539, 3066.228
162.021, 3103.620
162.503, 3099.134
162.985, 3080.078
163.467, 3069.296
163.949, 3077.183
164.431, 3092.261
164.913, 3113.977
165.396, 3141.893
165.878, 3162.435
166.360, 3169.752
166.842, 3165.334
167.324, 3151.089
167.806, 3104.866
168.288, 3064.098
168.770, 3062.326
169.253, 3106.830
169.735, 3154.033
170.217, 3173.333
170.699, 3173.607
171.181, 3172.752
171.663, 3185.459
172.145, 3199.254
172.627, 3198.475
173.109, 3176.409
173.592, 3152.409
174.074, 3145.751
174.556, 3152.861
175.038, 3160.380
175.520, 3157.621
176.002, 3150.289
176.484, 3148.806
176.966, 3159.914
177.449, 3171.346
177.931, 3164.841
178.413, 3142.118
178.895, 3119.044
179.377, 3105.283
179.859, 3100.471
180.341, 3104.035
180.823, 3120.854
181.305, 3142.986
181.788, 3155.958
182.270, 3159.418
182.752, 3160.605
183.234, 3169.489
183.716, 3183.173
184.198, 3189.455
184.680, 3174.985
185.162, 3149.842
185.645, 3144.299
186.127, 3161.265
186.609, 3183.565
187.091, 3183.625
187.573, 3164.540
188.055, 3156.313
188.537, 3189.305
189.019, 3250.280
189.501, 3269.515
189.984, 3233.961
190.466, 3180.288
190.948, 3172.341
191.430, 3210.557
191.912, 3251.694
192.394, 3260.911
192.876, 3243.187
193.358, 3238.681
193.840, 3227.444
194.323, 3247.779
194.805, 3260.450
195.287, 3265.869
195.769, 3242.316
196.251, 3256.175
196.733, 3255.041
197.215, 3253.292
197.697, 3272.416
198.180, 3253.077
198.662, 3271.870
199.144, 3272.654
199.626, 3320.829
200.108, 3346.022
200.590, 3344.214
201.072, 3359.988
201.554, 3413.802
202.036, 3496.396
202.519, 3535.248
203.001, 3520.855
203.483, 3485.062
203.965, 3457.941
204.447, 3438.747
204.929, 3432.013
205.411, 3442.997
205.893, 3471.570
206.376, 3493.534
206.858, 3510.338
207.340, 3518.086
207.822, 3507.120
208.304, 3470.268
208.786, 3439.105
209.268, 3422.576
209.750, 3420.216
210.232, 3440.326
210.715, 3495.215
211.197, 3487.254
211.679, 3501.414
212.161, 3510.204
212.643, 3513.913
213.125, 3497.323
213.607, 3506.945
214.089, 3506.062
214.572, 3504.749
215.054, 3518.060
215.536, 3504.422
216.018, 3517.502
216.500, 3519.917
216.982, 3527.212
217.464, 3523.938
217.946, 3523.928
218.428, 3534.492
218.911, 3527.442
219.393, 3516.125
219.875, 3509.144
220.357, 3506.576
220.839, 3510.423
221.321, 3526.516
221.803, 3532.960
222.285, 3522.125
222.768, 3498.997
223.250, 3494.364
223.732, 3517.575
224.214, 3546.473
224.696, 3566.063
225.178, 3572.741
225.660, 3578.044
226.142, 3583.810
226.624, 3589.779
227.107, 3591.726
227.589, 3588.508
228.071, 3582.464
228.553, 3575.664
229.035, 3568.991
229.517, 3558.831
229.999, 3540.159
230.481, 3512.986
230.964, 3504.486
231.446, 3525.970
231.928, 3554.838
232.410, 3569.327
232.892, 3564.215
233.374, 3554.388
233.856, 3541.804
234.338, 3526.347
234.820, 3510.838
235.303, 3494.227
235.785, 3478.672
236.267, 3466.589
236.749, 3458.562
237.231, 3453.230
237.713, 3451.882
238.195, 3455.952
238.677, 3454.373
239.159, 3447.521
239.642, 3434.810
240.124, 3413.453
240.606, 3371.448
241.088, 3340.361
241.570, 3332.629
242.052, 3355.667
242.534, 3367.486
243.016, 3365.383
243.499, 3353.651
243.981, 3337.453
244.463, 3310.296
244.945, 3289.115
245.427, 3281.513
245.909, 3293.624
246.391, 3295.991
246.873, 3286.291
247.355, 3267.859
247.837, 3245.815
248.320, 3217.348
248.802, 3190.195
249.284, 3166.874
249.766, 3147.808
250.248, 3132.651
250.730, 3124.517
251.212, 3118.939
251.695, 3106.135
252.177, 3081.083
252.659, 3057.663
253.141, 3042.739
253.623, 3042.389
254.105, 3033.465
254.587, 3012.737
255.069, 2985.047
255.551, 2961.390
256.034, 2944.229
256.516, 2927.240
256.998, 2906.081
257.480, 2875.172
257.962, 2857.017
258.444, 2858.924
258.926, 2870.422
259.408, 2863.578
259.890, 2828.802
260.373, 2792.885
260.855, 2767.071
261.337, 2751.955
261.819, 2747.342
262.301, 2759.909
262.783, 2780.022
263.265, 2780.903
263.747, 2757.875
264.229, 2725.268
264.712, 2685.250
265.194, 2630.211
265.676, 2598.535
266.158, 2601.381
266.640, 2624.599
267.122, 2627.285
267.604, 2602.443
268.086, 2573.841
268.569, 2554.326
269.051, 2545.551
269.533, 2538.936
270.015, 2536.563
270.497, 2534.662
270.979, 2511.999
271.461, 2475.556
271.943, 2481.398
272.426, 2476.978
272.908, 2462.845
273.390, 2409.905
273.872, 2407.076
274.354, 2384.165
274.836, 2360.427
275.318, 2364.650
275.800, 2335.993
276.282, 2318.125
276.764, 2326.163
277.247, 2329.422
277.729, 2327.518
278.211, 2317.506
278.693, 2287.110
279.175, 2232.081
279.657, 2178.178
280.139, 2142.879
280.621, 2126.702
281.104, 2108.463
281.586, 2083.198
282.068, 2058.125
282.550, 2054.199
283.032, 2074.166
283.514, 2090.609
283.996, 2082.427
284.478, 2051.139
284.961, 2025.603
285.443, 2008.814
285.925, 1999.153
286.407, 1997.304
286.889, 2003.712
287.371, 2004.937
287.853, 1986.525
288.335, 1952.271
288.817, 1930.442
289.299, 1925.895
289.782, 1931.666
290.264, 1939.518
290.746, 1949.101
291.228, 1950.988
291.710, 1931.784
292.192, 1897.929
292.674, 1877.921
293.156, 1876.939
293.639, 1885.355
294.121, 1890.016
294.603, 1891.038
295.085, 1889.967
295.567, 1887.602
296.049, 1883.905
296.531, 1877.883
297.013, 1868.499
297.496, 1859.558
297.978, 1854.267
298.460, 1853.083
298.942, 1858.272
299.424, 1880.802
299.906, 1908.779
300.388, 1918.633
300.870, 1904.585
301.352, 1882.723
301.835, 1863.739
302.317, 1850.142
302.799, 1849.875
303.281, 1879.105
303.763, 1920.217
304.245, 1948.102
304.727, 1958.724
305.209, 1963.596
305.691, 1971.620
306.174, 1981.950
306.656, 1992.774
307.138, 1999.151
307.620, 2007.731
308.102, 2027.342
308.584, 2060.578
309.066, 2094.405
309.548, 2120.890
310.030, 2141.355
310.513, 2158.954
310.995, 2164.163
311.477, 2174.439
311.959, 2208.044
312.441, 2269.187
312.923, 2326.832
313.405, 2355.564
313.888, 2370.756
314.370, 2394.476
314.852, 2442.056
315.334, 2495.589
315.816, 2547.071
316.298, 2596.133
316.780, 2640.715
317.262, 2677.495
317.744, 2710.675
318.227, 2744.938
318.709, 2775.110
319.191, 2812.996
319.673, 2871.245
320.155, 2951.703
320.637, 3014.731
321.119, 3041.802
321.601, 3049.813
322.083, 3054.258
322.566, 3053.041
323.048, 3053.822
323.530, 3062.742
324.012, 3079.795
324.494, 3084.848
324.976, 3059.932
325.458, 3030.333
325.940, 3014.451
326.422, 3046.158
326.905, 3056.423
327.387, 3032.668
327.869, 2975.879
328.351, 2912.029
328.833, 2832.192
329.315, 2751.697
329.797, 2679.666
330.279, 2628.268
330.762, 2568.436
331.244, 2491.783
331.726, 2403.402
332.208, 2334.224
332.690, 2303.292
333.172, 2269.486
333.654, 2207.173
334.136, 2093.130
334.618, 2001.326
335.101, 1942.604
335.583, 1906.459
336.065, 1860.337
336.547, 1797.295
337.029, 1739.286
337.511, 1699.254
337.993, 1682.763
338.475, 1661.594
338.957, 1634.378
339.440, 1602.667
339.922, 1567.784
340.404, 1527.044
340.886, 1493.971
341.368, 1480.054
341.850, 1486.366
342.332, 1439.576
342.815, 1458.303
343.297, 1461.130
343.779, 1448.907
344.261, 1376.557
344.743, 1381.849
345.225, 1356.025
345.707, 1328.921
346.189, 1345.140
346.671, 1281.537
347.154, 1297.068
347.636, 1281.010
348.118, 1279.409
348.600, 1246.498
349.082, 1223.262
349.564, 1204.844
350.046, 1198.544
350.528, 1162.008
351.010, 1125.074
351.493, 1120.054
351.975, 1134.849
352.457, 1141.431
352.939, 1123.490
353.421, 1100.099
353.903, 1096.703
354.385, 1110.960
354.867, 1124.682
355.349, 1126.589
355.832, 1120.198
356.314, 1108.834
356.796, 1088.129
357.278, 1070.676
357.760, 1071.595
358.242, 1085.343
358.724, 1092.565
359.206, 1071.656
359.689, 1046.966
360.171, 1039.199
360.653, 1060.255
361.135, 1080.609
361.617, 1087.548
362.099, 1084.466
362.581, 1078.598
363.063, 1074.818
363.546, 1066.817
364.028, 1048.068
364.510, 1010.796
364.992, 986.412
365.474, 994.319
365.956, 1016.070
366.438, 1025.127
366.920, 1003.634
367.402, 983.059
367.884, 972.443
368.367, 974.238
368.849, 974.150
369.331, 968.588
369.813, 962.893
370.295, 962.449
370.777, 975.328
371.259, 981.413
371.741, 971.189
372.224, 946.009
372.706, 946.114
373.188, 990.826
373.670, 1036.270
374.152, 1045.254
374.634, 998.776
375.116, 972.169
375.598, 981.241
376.081, 1013.815
376.563, 1024.487
377.045, 1007.581
377.527, 986.518
378.009, 976.599
378.491, 978.765
378.973, 973.924
379.455, 958.432
379.937, 939.530
380.419, 930.043
380.902, 930.119
381.384, 933.866
381.866, 939.758
382.348, 947.281
382.830, 953.284
383.312, 957.419
383.794, 961.713
384.276, 972.054
384.759, 985.573
385.241, 991.282
385.723, 981.821
386.205, 963.044
386.687, 938.902
387.169, 909.530
387.651, 889.070
388.133, 897.725
388.616, 920.484
389.098, 934.545
389.580, 927.163
390.062, 914.679
390.544, 908.034
391.026, 906.654
391.508, 907.599
391.990, 910.425
392.472, 914.347
392.955, 919.024
393.437, 925.669
393.919, 930.724
394.401, 934.536
394.883, 935.755
395.365, 931.412
395.847, 909.142
396.329, 890.656
396.811, 887.932
397.294, 909.068
397.776, 922.431
398.258, 916.963
398.740, 903.764
399.222, 896.466
399.704, 898.402
400.186, 898.097
400.668, 895.670
401.151, 884.769
401.633, 884.811
402.115, 880.467
402.597, 875.944
403.079, 877.526
403.561, 867.858
404.043, 869.343
404.525, 866.375
405.008, 865.446
405.490, 859.192
405.972, 869.007
406.454, 878.435
406.936, 866.511
407.418, 831.807
407.900, 809.135
408.382, 801.049
408.864, 805.571
409.346, 825.373
409.829, 860.180
410.311, 888.986
410.793, 901.379
411.275, 900.505
411.757, 894.282
412.239, 882.362
412.721, 869.742
413.203, 861.852
413.686, 857.313
414.168, 852.487
414.650, 845.682
415.132, 838.247
415.614, 829.963
416.096, 821.451
416.578, 816.823
417.060, 827.806
417.543, 840.184
418.025, 836.341
418.507, 798.501
418.989, 768.337
419.471, 778.510
419.953, 813.593
420.435, 836.754
420.917, 816.927
421.399, 796.110
421.882, 799.919
422.364, 842.491
422.846, 868.342
423.328, 852.516
423.810, 820.074
424.292, 801.624
424.774, 817.648
425.256, 828.089
425.738, 823.722
426.221, 804.596
426.703, 789.466
427.185, 776.845
427.667, 769.797
428.149, 771.565
428.631, 785.725
429.113, 799.690
429.595, 814.849
430.078, 827.727
430.560, 825.186
431.042, 802.707
431.524, 783.756
432.006, 784.988
432.488, 805.754
432.970, 814.223
433.452, 807.270
433.934, 795.825
434.417, 798.048
434.899, 811.211
435.381, 814.952
435.863, 789.097
436.345, 754.309
436.827, 761.538
437.309, 809.274
437.791, 848.850
438.273, 828.176
438.756, 777.766
439.238, 745.481
439.720, 748.438
440.202, 763.625
440.684, 778.067
441.166, 768.539
441.648, 772.161
442.130, 772.590
442.612, 770.000
443.095, 755.340
443.577, 756.265
444.059, 750.944
444.541, 745.368
445.023, 748.485
445.505, 735.582
445.987, 738.561
446.470, 735.200
446.952, 730.370
447.434, 747.420
447.916, 752.346
448.398, 727.605
448.880, 706.857
449.362, 713.015
449.844, 765.511
450.326, 759.420
450.809, 761.715
451.291, 761.974
451.773, 760.306
452.255, 750.943
452.737, 751.518
453.219, 748.110
453.701, 744.539
454.183, 746.512
454.665, 738.268
455.148, 739.609
455.630, 742.256
456.112, 739.775
456.594, 737.448
457.076, 736.433
457.558, 736.749
458.040, 740.060
458.522, 745.682
459.004, 748.684
459.487, 740.883
459.969, 730.104
460.451, 728.986
460.933, 743.213
461.415, 754.938
461.897, 746.685
462.379, 727.430
462.862, 712.959
463.344, 709.073
463.826, 711.909
464.308, 723.852
464.790, 745.313
465.272, 758.697
465.754, 752.966
466.236, 740.898
466.718, 731.689
467.201, 725.602
467.683, 723.575
468.165, 729.456
468.647, 739.513
469.129, 741.713
469.611, 731.133
470.093, 719.825
470.575, 711.106
471.057, 704.088
471.539, 707.479
472.022, 726.791
472.504, 746.953
472.986, 745.929
473.468, 721.963
473.950, 703.453
474.432, 698.568
474.914, 703.298
475.397, 710.189
475.879, 719.062
476.361, 721.656
476.843, 701.285
477.325, 671.807
477.807, 666.362
478.289, 694.790
478.771, 726.422
479.253, 728.748
479.736, 712.737
480.218, 700.595
480.700, 709.430
481.182, 719.941
481.664, 715.471
482.146, 696.714
482.628, 684.935
483.110, 693.026
483.592, 708.677
484.075, 723.521
484.557, 748.762
485.039, 755.835
485.521, 725.956
486.003, 675.515
486.485, 644.167
486.967, 644.697
487.449, 648.580
487.931, 646.741
488.414, 637.888
488.896, 636.953
489.378, 648.263
489.860, 660.727
490.342, 663.055
490.824, 654.216
491.306, 643.080
491.788, 627.711
492.271, 614.365
492.753, 624.237
493.235, 656.836
493.717, 683.982
494.199, 683.878
494.681, 667.590
495.163, 661.087
495.645, 666.651
496.128, 674.472
496.610, 675.196
497.092, 672.004
497.574, 670.385
498.056, 678.873
498.538, 683.002
499.020, 663.500
499.502, 628.571
499.984, 612.038
500.466, 647.148
500.949, 689.503
501.431, 713.758
501.913, 711.869
502.395, 705.459
502.877, 693.092
503.359, 679.116
503.841, 668.829
504.323, 664.541
504.806, 660.305
505.288, 654.591
505.770, 647.892
506.252, 644.553
506.734, 645.944
507.216, 647.192
507.698, 643.688
508.180, 635.156
508.663, 633.352
509.145, 640.170
509.627, 650.152
510.109, 654.382
510.591, 654.299
511.073, 658.628
511.555, 679.257
512.037, 700.289
512.519, 688.737
513.002, 649.574
513.484, 619.581
513.966, 636.455
514.448, 668.057
514.930, 680.092
515.412, 659.828
515.894, 639.599
516.376, 635.157
516.859, 640.169
517.341, 645.134
517.823, 647.580
518.305, 649.797
518.787, 653.075
519.269, 657.370
519.751, 658.941
520.233, 656.174
520.715, 652.328
521.198, 650.253
521.680, 653.824
522.162, 646.031
522.644, 620.342
523.126, 590.723
523.608, 580.239
524.090, 590.141
524.572, 606.106
525.054, 628.828
525.537, 651.913
526.019, 651.690
526.501, 628.719
526.983, 603.628
527.465, 589.000
527.947, 583.634
528.429, 588.003
528.911, 605.461
529.393, 619.532
529.876, 608.289
530.358, 586.581
530.840, 578.298
531.322, 613.303
531.804, 603.642
532.286, 608.955
532.768, 610.634
533.250, 608.872
533.732, 593.369
534.215, 595.610
534.697, 590.740
535.179, 585.578
535.661, 590.318
536.143, 576.812
536.625, 581.395
537.107, 578.756
537.589, 574.445
538.072, 538.287
538.554, 531.332
539.036, 546.510
539.518, 559.781
540.000, 571.603
540.482, 575.784
540.964, 557.084
541.446, 527.873
541.929, 528.459
542.411, 566.576
542.893, 603.286
543.375, 591.505
543.857, 553.929
544.339, 531.224
544.821, 549.317
545.303, 574.367
545.786, 593.383
546.268, 604.714
546.750, 602.774
547.232, 561.318
547.714, 526.353
548.196, 525.258
548.678, 576.429
549.160, 602.860
549.642, 582.791
550.125, 552.704
550.607, 548.521
551.089, 585.414
551.571, 608.151
552.053, 604.787
552.535, 586.460
553.017, 584.687
553.499, 601.248
553.981, 615.686
554.464, 617.844
554.946, 609.738
555.428, 598.250
555.910, 583.231
556.392, 566.653
556.874, 541.619
557.356, 518.148
557.838, 515.439
558.320, 548.365
558.803, 580.389
559.285, 584.839
559.767, 570.465
560.249, 553.789
560.731, 529.188
561.213, 514.040
561.695, 521.693
562.177, 552.618
562.659, 567.808
563.142, 550.359
563.624, 530.260
564.106, 524.295
564.588, 540.739
565.070, 548.611
565.552, 545.510
566.034, 537.109
566.516, 531.774
566.999, 529.796
567.481, 525.159
567.963, 513.925
568.445, 500.897
568.927, 497.829
569.409, 503.764
569.891, 509.943
570.373, 509.032
570.856, 505.879
571.338, 508.667
571.820, 518.899
572.302, 525.281
572.784, 516.300
573.266, 501.758
573.748, 491.657
574.230, 487.957
574.713, 489.908
575.195, 503.626
575.677, 523.239
576.159, 531.820
576.641, 519.416
577.123, 509.609
577.605, 513.067
578.087, 529.641
578.569, 523.595
579.052, 485.659
579.534, 449.501
580.016, 447.376
580.498, 476.304
580.980, 491.649
581.462, 486.371
581.944, 476.067
582.426, 484.231
582.908, 504.442
583.391, 517.091
583.873, 509.008
584.355, 495.602
584.837, 488.974
585.319, 488.401
585.801, 490.945
586.283, 500.040
586.765, 508.147
587.247, 511.536
587.730, 509.992
588.212, 502.656
588.694, 476.692
589.176, 453.307
589.658, 450.589
590.140, 482.194
590.622, 503.379
591.104, 508.530
591.586, 503.253
592.069, 497.047
592.551, 489.430
593.033, 486.955
593.515, 494.854
593.997, 508.690
594.479, 517.529
594.961, 521.422
595.443, 520.946
595.925, 511.802
596.408, 500.628
596.890, 497.613
597.372, 506.155
597.854, 512.042
598.336, 503.782
598.818, 489.700
599.300, 479.711
599.782, 476.444
600.265, 476.854
600.747, 486.190
601.229, 498.913
601.711, 498.565
602.193, 473.629
602.675, 455.069
603.157, 455.367
603.639, 473.528
604.122, 485.671
604.604, 492.010
605.086, 491.761
605.568, 480.639
606.050, 461.485
606.532, 447.723
607.014, 441.418
607.496, 437.956
607.979, 431.578
608.461, 424.714
608.943, 421.677
609.425, 424.371
609.907, 431.085
610.389, 446.459
610.871, 465.742
611.353, 475.220
611.835, 455.271
612.318, 439.701
612.800, 445.422
613.282, 474.764
613.764, 492.104
614.246, 494.294
614.728, 488.764
615.210, 476.695
615.692, 455.680
616.174, 454.189
616.657, 445.832
617.139, 456.971
617.621, 463.378
618.103, 465.306
618.585, 449.344
619.067, 456.484
619.549, 454.365
620.031, 451.867
620.513, 462.259
620.996, 448.898
621.478, 459.086
621.960, 459.873
622.442, 464.962
622.924, 460.736
623.406, 459.387
623.888, 467.357
624.370, 470.167
624.852, 460.133
625.335, 493.583
625.817, 509.759
626.299, 505.411
626.781, 487.994
627.263, 461.795
627.745, 455.280
628.227, 457.654
628.709, 457.871
629.192, 456.046
629.674, 446.063
630.156, 446.614
630.638, 442.944
631.120, 439.099
631.602, 441.134
632.084, 432.337
632.566, 434.277
633.049, 431.932
633.531, 431.548
634.013, 426.916
634.495, 423.597
634.977, 424.526
635.459, 423.103
635.941, 417.982
636.423, 413.269
636.906, 394.715
637.388, 385.075
637.870, 386.880
638.352, 403.367
638.834, 427.423
639.316, 446.690
639.798, 461.095
640.280, 468.525
640.762, 465.148
641.245, 456.096
641.727, 448.186
642.209, 441.371
642.691, 435.757
643.173, 429.556
643.655, 425.968
644.137, 431.055
644.619, 448.473
645.101, 453.447
645.584, 446.901
646.066, 452.030
646.548, 454.325
647.030, 453.939
647.512, 442.839
647.994, 445.573
648.476, 442.763
648.958, 439.726
649.440, 444.407
649.923, 434.866
650.405, 439.425
650.887, 438.355
651.369, 439.861
651.851, 434.637
652.333, 437.873
652.815, 451.974
653.297, 464.468
653.779, 461.613
654.262, 444.038
654.744, 427.368
655.226, 416.007
655.708, 408.868
656.190, 406.184
656.672, 411.457
657.154, 411.860
657.636, 405.940
658.119, 396.726
658.601, 386.745
659.083, 375.744
659.565, 364.552
660.047, 352.506
660.529, 341.833
661.011, 336.535
661.493, 336.042
661.976, 337.593
662.458, 340.148
662.940, 344.208
663.422, 354.960
663.904, 368.759
664.386, 372.716
664.868, 345.090
665.350, 319.786
665.833, 316.878
666.315, 339.413
666.797, 356.772
667.279, 366.744
667.761, 371.586
668.243, 370.561
668.725, 360.104
669.207, 362.216
669.689, 381.952
670.171, 400.217
670.654, 387.006
671.136, 349.904
671.618, 331.591
672.100, 345.374
672.582, 368.885
673.064, 380.724
673.546, 383.363
674.028, 381.421
674.510, 368.090
674.993, 359.321
675.475, 367.721
675.957, 387.983
676.439, 399.005
676.921, 392.086
677.403, 381.906
677.885, 370.791
678.367, 359.003
678.849, 353.108
679.332, 354.161
679.814, 357.527
680.296, 360.394
680.778, 362.900
681.260, 365.413
681.742, 367.794
682.224, 371.977
682.706, 386.062
683.189, 400.885
683.671, 401.041
684.153, 375.626
684.635, 353.949
685.117, 352.940
685.599, 362.294
686.081, 368.358
686.563, 360.317
687.045, 360.983
687.528, 379.682
688.010, 406.036
688.492, 411.825
688.974, 394.808
689.456, 368.546
689.938, 329.394
690.420, 288.790
690.903, 285.892
691.385, 317.294
691.867, 348.805
692.349, 355.773
692.831, 352.916
693.313, 358.777
693.795, 374.105
694.277, 377.565
694.759, 344.232
695.242, 306.959
695.724, 287.211
696.206, 292.448
696.688, 304.089
697.170, 326.927
697.652, 350.757
698.134, 367.669
698.616, 378.366
699.098, 371.958
699.581, 341.643
700.063, 308.201
700.545, 308.876
701.027, 332.841
701.509, 345.931
701.991, 326.231
702.473, 304.925
702.955, 313.888
703.438, 340.953
703.920, 357.128
704.402, 339.648
704.884, 323.466
705.366, 322.622
705.848, 334.390
706.330, 340.130
706.812, 335.219
707.294, 333.990
707.777, 346.555
708.259, 370.417
708.741, 376.539
709.223, 364.233
709.705, 349.460
710.187, 345.606
710.669, 347.506
711.151, 343.896
711.633, 332.618
712.116, 328.737
712.598, 347.681
713.080, 374.820
713.562, 398.049
714.044, 425.610
714.526, 429.129
715.008, 389.168
715.490, 337.330
715.972, 309.075
716.455, 309.626
716.937, 312.929
717.419, 315.412
717.901, 318.550
718.383, 326.463
718.865, 338.022
719.347, 346.679
719.830, 348.286
720.312, 348.112
720.794, 349.747
721.276, 353.769
721.758, 361.852
722.240, 383.922
722.722, 401.094
723.204, 403.345
723.686, 391.751
724.169, 382.854
724.651, 378.557
725.133, 373.314
725.615, 363.318
726.097, 349.174
726.579, 342.025
727.061, 342.211
727.543, 345.000
728.026, 350.432
728.508, 354.796
728.990, 348.497
729.472, 329.776
729.954, 315.745
730.436, 328.104
730.918, 343.402
731.400, 338.981
731.882, 291.423
732.365, 267.654
732.847, 284.615
733.329, 315.893
733.811, 335.943
734.293, 343.574
734.775, 345.601
735.257, 342.187
735.739, 335.015
736.221, 326.371
736.704, 316.098
737.186, 302.821
737.668, 282.020
738.150, 264.653
738.632, 260.082
739.114, 266.023
739.596, 278.065
740.078, 304.074
740.560, 325.874
741.043, 337.714
741.525, 341.376
742.007, 341.148
742.489, 334.867
742.971, 330.950
743.453, 334.609
743.935, 342.262
744.417, 336.462
744.899, 318.142
745.382, 304.752
745.864, 314.062
746.346, 330.015
746.828, 330.564
747.310, 316.463
747.792, 308.436
748.274, 332.240
748.756, 351.582
749.239, 337.880
749.721, 277.607
750.203, 254.917
750.685, 288.432
751.167, 327.765
751.649, 332.317
752.131, 302.746
752.613, 293.021
753.096, 306.909
753.578, 326.371
754.060, 336.844
754.542, 339.248
755.024, 331.923
755.506, 310.297
755.988, 295.398
756.470, 306.231
756.952, 325.669
757.435, 335.086
757.917, 327.902
758.399, 333.496
758.881, 335.988
759.363, 335.546
759.845, 323.378
760.327, 326.351
760.809, 323.256
761.291, 319.912
761.774, 325.016
762.256, 314.553
762.738, 319.523
763.220, 317.205
763.702, 295.388
764.184, 275.760
764.666, 282.425
765.148, 306.644
765.630, 327.227
766.113, 347.403
766.595, 354.280
767.077, 339.440
767.559, 310.953
768.041, 298.478
768.523, 303.728
769.005, 308.939
769.487, 307.004
769.969, 300.095
770.452, 286.846
770.934, 270.437
771.416, 265.592
771.898, 293.842
772.380, 325.269
772.862, 329.487
773.344, 321.836
773.826, 328.382
774.309, 331.481
774.791, 331.319
775.273, 318.130
775.755, 321.764
776.237, 318.655
776.719, 315.270
777.201, 321.271
777.683, 309.977
778.166, 315.829
778.648, 314.837
779.130, 316.976
779.612, 312.333
780.094, 309.785
780.576, 314.023
781.058, 314.503
781.540, 309.079
782.023, 311.418
782.505, 299.887
782.987, 300.527
783.469, 306.419
783.951, 301.336
784.433, 303.800
784.915, 303.389
785.397, 289.917
785.879, 299.160
786.362, 298.579
786.844, 291.052
787.326, 311.520
787.808, 330.465
788.290, 325.388
788.772, 310.789
789.254, 299.423
789.736, 294.862
790.218, 291.262
790.701, 289.946
791.183, 287.963
791.665, 281.651
792.147, 270.735
792.629, 257.973
793.111, 240.458
793.593, 233.662
794.075, 273.711
794.557, 334.625
795.040, 363.602
795.522, 334.925
796.004, 301.366
796.486, 290.676
796.968, 289.813
797.450, 281.584
797.932, 246.742
798.414, 236.623
798.896, 265.582
799.379, 307.325
799.861, 316.066
800.343, 293.801
800.825, 290.100
801.307, 323.860
801.789, 359.033
802.271, 338.050
802.753, 288.228
803.236, 260.349
803.718, 296.526
804.200, 327.538
804.682, 326.572
805.164, 306.076
805.646, 290.429
806.128, 284.076
806.610, 270.271
807.093, 239.209
807.575, 208.348
808.057, 220.552
808.539, 268.491
809.021, 304.942
809.503, 310.144
809.985, 302.651
810.467, 298.871
810.950, 296.388
811.432, 290.278
811.914, 267.948
812.396, 254.869
812.878, 264.619
813.360, 285.712
813.842, 290.219
814.324, 271.648
814.806, 264.608
815.289, 283.312
815.771, 311.997
816.253, 318.083
816.735, 306.102
817.217, 292.584
817.699, 281.803
818.181, 275.393
818.663, 280.056
819.145, 290.034
819.628, 290.476
820.110, 257.637
820.592, 242.710
821.074, 262.848
821.556, 303.297
822.038, 318.987
822.520, 308.614
823.002, 297.922
823.484, 297.213
823.967, 299.985
824.449, 294.644
824.931, 284.307
825.413, 277.547
825.895, 283.564
826.377, 288.465
826.859, 284.814
827.341, 275.063
827.823, 268.578
828.306, 265.892
828.788, 265.358
829.270, 265.931
829.752, 268.884
830.234, 284.937
830.716, 310.187
831.198, 317.559
831.680, 276.126
832.163, 229.795
832.645, 226.448
833.127, 251.897
833.609, 269.662
834.091, 255.984
834.573, 247.234
835.055, 252.927
835.537, 269.247
836.019, 286.531
836.502, 305.860
836.984, 318.427
837.466, 319.650
837.948, 314.198
838.430, 309.977
838.912, 306.374
839.394, 301.443
839.877, 288.310
840.359, 279.709
840.841, 287.984
841.323, 306.010
841.805, 312.151
842.287, 299.654
842.769, 286.594
843.251, 276.488
843.733, 268.072
844.216, 254.011
844.698, 236.014
845.180, 232.216
845.662, 257.263
846.144, 288.915
846.626, 307.647
847.108, 314.810
847.590, 313.729
848.072, 294.052
848.555, 280.039
849.037, 279.586
849.519, 286.904
850.001, 292.718
850.483, 298.339
850.965, 292.140
851.447, 265.313
851.929, 236.315
852.411, 241.311
852.894, 268.340
853.376, 287.109
853.858, 281.570
854.340, 271.237
854.822, 260.312
855.304, 251.945
855.786, 253.128
856.268, 274.560
856.750, 282.897
857.233, 271.056
857.715, 249.211
858.197, 227.967
858.679, 210.076
859.161, 214.871
859.643, 257.155
860.125, 297.460
860.607, 291.745
861.089, 263.582
861.572, 245.263
862.054, 261.206
862.536, 264.736
863.018, 241.624
863.500, 213.641
863.982, 208.332
864.464, 227.489
864.946, 235.383
865.429, 231.286
865.911, 237.829
866.393, 241.790
866.875, 243.306
867.357, 235.058
867.839, 239.419
868.321, 238.727
868.803, 237.827
869.286, 241.180
869.768, 235.986
870.250, 239.321
870.732, 239.163
871.214, 233.534
871.696, 229.894
872.178, 240.609
872.660, 259.117
873.143, 265.508
873.625, 256.662
874.107, 246.870
874.589, 245.374
875.071, 247.381
875.553, 248.877
876.035, 248.757
876.517, 251.425
876.999, 260.652
877.482, 265.968
877.964, 252.689
878.446, 225.185
878.928, 230.262
879.410, 268.376
879.892, 302.408
880.374, 300.422
880.856, 283.805
881.338, 270.056
881.821, 260.739
882.303, 255.008
882.785, 257.066
883.267, 257.327
883.749, 248.538
884.231, 232.816
884.713, 241.511
885.195, 275.484
885.677, 300.370
886.160, 281.377
886.642, 249.624
887.124, 250.428
887.606, 277.083
888.088, 297.988
888.570, 297.650
889.052, 292.217
889.534, 284.969
890.016, 277.258
890.499, 275.639
890.981, 281.517
891.463, 284.219
891.945, 280.501
892.427, 270.742
892.909, 249.655
893.391, 222.880
893.873, 205.034
894.356, 206.336
894.838, 213.856
895.320, 228.176
895.802, 244.176
896.284, 249.686
896.766, 236.877
897.248, 241.066
897.730, 275.079
898.213, 313.279
898.695, 307.778
899.177, 273.603
899.659, 252.528
900.141, 259.099
900.623, 272.392
901.105, 262.896
901.587, 269.675
902.070, 272.502
902.552, 271.592
903.034, 255.747
903.516, 259.187
903.998, 254.899
904.480, 250.293
904.962, 256.447
905.444, 242.775
905.926, 248.758
906.409, 246.896
906.891, 248.624
907.373, 242.576
907.855, 238.930
908.337, 243.063
908.819, 234.236
909.301, 256.193
909.783, 272.829
910.265, 263.820
910.748, 234.357
911.230, 221.347
911.712, 224.123
912.194, 233.200
912.676, 247.951
913.158, 261.662
913.640, 269.277
914.122, 270.857
914.604, 268.552
915.087, 260.537
915.569, 251.571
916.051, 240.071
916.533, 229.934
917.015, 243.470
917.497, 276.632
917.979, 287.177
918.461, 238.624
918.943, 184.151
919.426, 171.067
919.908, 189.311
920.390, 219.121
920.872, 286.456
921.354, 319.780
921.836, 296.359
922.318, 252.233
922.800, 245.288
923.283, 273.279
923.765, 295.296
924.247, 304.618
924.729, 302.310
925.211, 281.929
925.693, 254.029
926.175, 230.295
926.657, 209.440
927.140, 203.327
927.622, 218.380
928.104, 241.322
928.586, 267.569
929.068, 296.863
929.550, 304.537
930.032, 289.745
930.514, 264.290
930.997, 220.765
931.479, 182.461
931.961, 175.670
932.443, 201.167
932.925, 233.056
933.407, 284.218
933.889, 318.210
934.371, 321.474
934.853, 298.392
935.336, 261.557
935.818, 212.318
936.300, 181.415
936.782, 192.669
937.264, 219.310
937.746, 241.277
938.228, 257.116
938.710, 264.069
939.192, 245.880
939.674, 240.359
940.157, 260.910
940.639, 287.986
941.121, 285.108
941.603, 254.886
942.085, 235.783
942.567, 237.558
943.049, 241.390
943.531, 222.787
944.013, 198.859
944.496, 190.701
944.978, 209.411
945.460, 223.966
945.942, 233.083
946.424, 236.074
946.906, 228.230
947.388, 211.080
947.870, 210.091
948.353, 225.268
948.835, 241.347
949.317, 250.225
949.799, 252.815
950.281, 246.404
950.763, 232.236
951.245, 224.842
951.727, 230.159
952.209, 234.285
952.692, 231.647
953.174, 225.905
953.656, 230.770
954.138, 244.045
954.620, 251.681
955.102, 246.828
955.584, 236.449
956.067, 217.882
956.549, 199.532
957.031, 196.225
957.513, 221.885
957.995, 240.465
958.477, 249.419
958.959, 251.753
959.441, 248.085
959.923, 240.559
960.406, 237.207
960.888, 239.114
961.370, 244.442
961.852, 257.989
962.334, 269.857
962.816, 270.046
963.298, 255.707
963.780, 251.087
964.263, 259.796
964.745, 267.781
965.227, 266.638
965.709, 259.575
966.191, 255.951
966.673, 249.546
967.155, 255.491
967.637, 258.439
968.119, 258.550
968.602, 247.327
969.084, 250.739
969.566, 248.287
970.048, 245.593
970.530, 251.065
971.012, 241.491
971.494, 246.834
971.976, 246.222
972.458, 248.335
972.941, 244.547
973.423, 242.581
973.905, 246.520
974.387, 247.189
974.869, 242.721
975.351, 245.008
975.833, 235.227
976.315, 236.035
976.797, 241.413
977.280, 237.242
977.762, 239.637
978.244, 239.531
978.726, 228.061
979.208, 236.354
979.690, 230.705
980.172, 220.765
980.654, 214.397
981.136, 215.355
981.619, 221.449
982.101, 229.344
982.583, 238.447
983.065, 239.088
983.547, 223.784
984.029, 210.775
984.511, 232.220
984.994, 260.472
985.476, 258.353
985.958, 184.949
986.440, 145.322
986.922, 149.417
987.404, 171.127
987.886, 194.109
988.368, 216.426
988.850, 225.195
989.333, 220.860
989.815, 219.057
990.297, 239.039
990.779, 256.525
991.261, 250.479
991.743, 224.722
992.225, 216.935
992.707, 233.270
993.190, 244.936
993.672, 239.978
994.154, 230.066
994.636, 238.975
995.118, 259.371
995.600, 273.595
996.082, 275.583
996.564, 271.889
997.046, 259.393
997.529, 245.791
998.011, 237.395
998.493, 234.259
998.975, 237.304
999.457, 247.190
999.939, 257.179
1000.421, 267.444
1000.903, 270.842
1001.385, 248.262
1001.868, 202.800
1002.350, 184.869
1002.832, 238.538
1003.314, 277.168
1003.796, 271.645
1004.278, 238.762
1004.760, 227.319
1005.242, 234.145
1005.724, 239.550
1006.207, 233.441
1006.689, 230.650
1007.171, 249.925
1007.653, 275.501
1008.135, 285.732
1008.617, 269.133
1009.099, 263.079
1009.581, 270.445
1010.064, 279.664
1010.546, 281.942
1011.028, 277.805
1011.510, 263.728
1011.992, 241.265
1012.474, 228.652
1012.956, 245.450
1013.438, 262.844
1013.920, 269.671
1014.403, 267.193
1014.885, 256.688
1015.367, 237.575
1015.849, 226.462
1016.331, 231.324
1016.813, 239.618
1017.295, 232.158
1017.777, 220.352
1018.260, 221.969
1018.742, 252.242
1019.224, 271.330
1019.706, 274.416
1020.188, 270.464
1020.670, 266.421
1021.152, 261.503
1021.634, 249.316
1022.116, 230.605
1022.599, 213.890
1023.081, 197.601
1023.563, 191.564
1024.045, 209.278
1024.527, 242.958
1025.009, 263.196
1025.491, 268.271
1025.973, 265.800
1026.455, 255.504
1026.938, 243.487
1027.420, 240.094
1027.902, 240.616
1028.384, 236.029
1028.866, 221.090
1029.348, 211.895
1029.830, 208.023
1030.312, 216.490
1030.795, 252.509
1031.277, 311.790
1031.759, 316.894
1032.241, 270.928
1032.723, 216.614
1033.205, 156.103
1033.687, 121.473
1034.169, 159.672
1034.651, 241.591
1035.134, 285.777
1035.616, 272.527
1036.098, 262.346
1036.580, 263.716
1037.062, 268.768
1037.544, 265.938
1038.026, 259.460
1038.508, 259.127
1038.990, 267.215
1039.473, 272.797
1039.955, 269.075
1040.437, 263.862
1040.919, 261.882
1041.401, 262.134
1041.883, 252.245
1042.365, 233.135
1042.847, 227.010
1043.330, 259.436
1043.812, 289.971
1044.294, 267.639
1044.776, 221.627
1045.258, 201.689
1045.740, 229.207
1046.222, 255.139
1046.704, 281.911
1047.187, 297.133
1047.669, 282.057
1048.151, 247.784
1048.633, 211.361
1049.115, 176.097
1049.597, 164.675
1050.079, 223.343
1050.561, 268.479
1051.043, 258.760
1051.526, 212.785
1052.008, 191.707
1052.490, 194.982
1052.972, 207.518
1053.454, 229.156
1053.936, 246.758
1054.418, 237.371
1054.900, 221.975
1055.382, 230.088
1055.865, 285.135
1056.347, 295.968
1056.829, 247.893
1057.311, 196.012
1057.793, 175.510
1058.275, 178.809
1058.757, 195.300
1059.239, 220.310
1059.722, 235.666
1060.204, 225.230
1060.686, 213.586
1061.168, 204.312
1061.650, 200.462
1062.132, 211.993
1062.614, 237.964
1063.096, 244.313
1063.578, 224.941
1064.061, 205.541
1064.543, 207.773
1065.025, 219.071
1065.507, 230.467
1065.989, 241.049
1066.471, 249.568
1066.953, 255.776
1067.435, 261.510
1067.917, 269.479
1068.400, 274.502
1068.882, 262.381
1069.364, 241.285
1069.846, 228.297
1070.328, 236.895
1070.810, 237.891
1071.292, 230.185
1071.774, 238.968
1072.256, 243.748
1072.739, 244.740
1073.221, 230.601
1073.703, 236.002
1074.185, 233.572
1074.667, 230.821
1075.149, 238.971
1075.631, 227.034
1076.113, 235.011
1076.596, 235.038
1077.078, 238.704
1077.560, 234.492
1078.042, 232.713
1078.524, 232.146
1079.006, 227.892
1079.488, 232.137
1079.970, 222.737
1080.453, 195.075
1080.935, 181.007
1081.417, 188.508
1081.899, 200.992
1082.381, 213.065
1082.863, 208.634
1083.345, 214.156
1083.827, 217.262
1084.309, 218.082
1084.792, 209.768
1085.274, 213.249
1085.756, 212.003
1086.238, 210.563
1086.720, 215.703
1087.202, 208.718
1087.684, 213.754
1088.166, 213.991
1088.648, 216.425
1089.131, 214.103
1089.613, 213.249
1090.095, 217.153
1090.577, 218.423
1091.059, 215.554
1091.541, 218.127
1092.023, 210.976
1092.505, 212.358
1092.988, 217.422
1093.470, 214.791
1093.952, 217.451
1094.434, 218.096
1094.916, 209.585
1095.398, 216.998
1095.880, 213.176
1096.362, 218.957
1096.844, 209.167
1097.327, 193.321
1097.809, 199.696
1098.291, 222.801
1098.773, 243.580
1099.255, 259.518
1099.737, 263.875
1100.219, 240.723
1100.701, 215.128
1101.183, 210.271
1101.666, 227.586
1102.148, 214.912
1102.630, 172.773
1103.112, 145.416
1103.594, 174.059
1104.076, 214.878
1104.558, 240.991
1105.040, 251.898
1105.523, 245.429
1106.005, 211.035
1106.487, 196.771
1106.969, 210.260
1107.451, 228.016
1107.933, 227.495
1108.415, 215.825
1108.897, 195.621
1109.380, 169.834
1109.862, 165.884
1110.344, 210.350
1110.826, 245.001
1111.308, 256.425
1111.790, 252.570
1112.272, 246.112
1112.754, 236.706
1113.236, 219.164
1113.719, 187.733
1114.201, 175.083
1114.683, 225.767
1115.165, 269.266
1115.647, 262.899
1116.129, 216.448
1116.611, 191.632
1117.093, 187.760
1117.575, 200.324
1118.058, 241.245
1118.540, 275.028
1119.022, 270.002
1119.504, 248.791
1119.986, 239.531
1120.468, 246.153
1120.950, 249.305
1121.432, 249.051
1121.915, 244.303
1122.397, 225.361
1122.879, 208.742
1123.361, 221.909
1123.843, 251.949
1124.325, 256.034
1124.807, 216.070
1125.289, 183.564
1125.771, 162.665
1126.254, 154.822
1126.736, 171.536
1127.218, 198.203
1127.700, 210.181
1128.182, 205.820
1128.664, 197.271
1129.146, 174.806
1129.628, 169.646
1130.110, 195.881
1130.593, 235.778
1131.075, 255.351
1131.557, 258.266
1132.039, 254.949
1132.521, 247.240
1133.003, 235.804
1133.485, 206.979
1133.967, 190.139
1134.450, 209.158
1134.932, 253.062
1135.414, 246.194
1135.896, 196.537
1136.378, 165.559
1136.860, 187.949
1137.342, 216.365
1137.824, 222.500
1138.307, 219.325
1138.789, 221.580
1139.271, 230.584
1139.753, 235.247
1140.235, 235.512
1140.717, 233.317
1141.199, 228.941
1141.681, 235.424
1142.163, 239.272
1142.646, 240.626
1143.128, 232.014
1143.610, 236.270
1144.092, 235.369
1144.574, 234.256
1145.056, 240.324
1145.538, 233.161
1146.020, 239.114
1146.502, 239.832
1146.985, 242.946
1147.467, 240.871
1147.949, 240.399
1148.431, 245.117
1148.913, 246.961
1149.395, 244.289
1149.877, 247.555
1150.359, 240.211
1150.842, 242.179
1151.324, 248.163
1151.806, 245.751
1152.288, 249.112
1152.770, 250.275
1153.252, 241.446
1153.734, 249.993
1154.216, 251.026
1154.698, 244.343
1155.181, 252.295
1155.663, 246.676
1156.145, 245.901
1156.627, 248.597
1157.109, 244.217
1157.591, 250.997
1158.073, 265.415
1158.555, 268.775
1159.037, 263.227
1159.520, 258.922
1160.002, 266.036
1160.484, 265.412
1160.966, 237.017
1161.448, 206.160
1161.930, 196.371
1162.412, 207.834
1162.894, 208.664
1163.376, 199.689
1163.859, 192.656
1164.341, 196.193
1164.823, 201.905
1165.305, 207.329
1165.787, 210.689
1166.269, 207.102
1166.751, 194.868
1167.233, 202.053
1167.716, 231.190
1168.198, 249.883
1168.680, 214.273
1169.162, 175.135
1169.644, 181.031
1170.126, 215.777
1170.608, 217.645
1171.090, 176.396
1171.573, 169.581
1172.055, 213.352
1172.537, 258.707
1173.019, 251.345
1173.501, 226.497
1173.983, 216.593
1174.465, 223.416
1174.947, 231.001
1175.429, 240.423
1175.911, 245.130
1176.394, 243.195
1176.876, 237.183
1177.358, 233.233
1177.840, 225.239
1178.322, 199.599
1178.804, 151.114
1179.286, 132.919
1179.768, 155.358
1180.251, 176.481
1180.733, 179.909
1181.215, 175.637
1181.697, 176.262
1182.179, 180.568
1182.661, 187.936
1183.143, 201.410
1183.625, 203.600
1184.108, 187.242
1184.590, 179.331
1185.072, 203.131
1185.554, 234.840
1186.036, 221.892
1186.518, 184.549
1187.000, 165.337
1187.482, 193.609
1187.964, 205.991
1188.447, 196.284
1188.929, 178.188
1189.411, 154.376
1189.893, 132.061
1190.375, 130.185
1190.857, 144.171
1191.339, 160.369
1191.821, 182.586
1192.303, 192.215
1192.786, 181.960
1193.268, 171.028
1193.750, 183.277
1194.232, 206.612
1194.714, 205.720
1195.196, 185.603
1195.678, 174.414
1196.160, 184.442
1196.643, 204.419
1197.125, 199.785
1197.607, 206.551
1198.089, 210.550
1198.571, 211.930
1199.053, 202.848
1199.535, 207.276
1200.017, 206.290
1200.500, 205.082
1200.982, 211.411
1201.464, 203.852
1201.946, 210.061
1202.428, 209.767
1202.910, 189.149
1203.392, 187.260
1203.874, 205.026
1204.356, 225.023
1204.839, 252.910
1205.321, 259.991
1205.803, 216.386
1206.285, 189.039
1206.767, 218.642
1207.249, 234.420
1207.731, 237.118
1208.213, 187.555
1208.695, 205.476
1209.178, 202.585
1209.660, 208.009
1210.142, 212.385
1210.624, 217.088
1211.106, 230.391
1211.588, 246.377
1212.070, 244.613
1212.552, 215.799
1213.035, 194.574
1213.517, 201.532
1213.999, 209.180
1214.481, 206.836
1214.963, 197.229
1215.445, 182.933
1215.927, 167.971
1216.409, 166.295
1216.891, 189.264
1217.374, 200.392
1217.856, 161.189
1218.338, 108.335
1218.820, 177.331
1219.302, 216.750
1219.784, 228.179
1220.266, 127.791
1220.748, 171.792
1221.230, 157.928
1221.713, 141.695
1222.195, 206.018
1222.677, 121.894
1223.159, 184.940
1223.641, 189.237
1224.123, 220.423
1224.605, 193.386
1225.087, 184.333
1225.570, 233.522
1226.052, 250.461
1226.534, 216.722
1227.016, 249.617
1227.498, 163.458
1227.980, 181.770
1228.462, 245.157
1228.944, 214.345
1229.427, 248.307
1229.909, 257.598
1230.391, 154.782
1230.873, 246.931
1231.355, 254.764
1231.837, 202.973
1232.319, 193.695
1232.801, 172.038
1233.283, 145.208
1233.766, 137.928
1234.248, 178.366
1234.730, 211.801
1235.212, 234.924
1235.694, 246.343
1236.176, 236.735
1236.658, 217.879
1237.140, 214.164
1237.622, 222.997
1238.105, 231.291
1238.587, 234.809
1239.069, 237.084
1239.551, 236.220
1240.033, 240.247
1240.515, 267.199
1240.997, 299.019
1241.479, 308.303
1241.962, 294.980
1242.444, 262.041
1242.926, 185.553
1243.408, 146.772
1243.890, 159.053
1244.372, 192.390
1244.854, 234.299
1245.336, 266.255
1245.818, 250.224
1246.301, 197.349
1246.783, 174.583
1247.265, 198.583
1247.747, 213.919
1248.229, 211.592
1248.711, 208.819
1249.193, 233.897
1249.675, 259.946
1250.157, 252.390
1250.640, 217.154
1251.122, 197.490
1251.604, 197.905
1252.086, 196.527
1252.568, 188.594
1253.050, 188.273
1253.532, 223.743
1254.014, 260.907
1254.496, 264.011
1254.979, 239.045
1255.461, 225.651
1255.943, 225.703
1256.425, 213.740
1256.907, 182.950
1257.389, 164.302
1257.871, 114.787
1258.353, 178.737
1258.836, 215.146
1259.318, 225.491
1259.800, 131.713
1260.282, 172.387
1260.764, 159.180
1261.246, 143.762
1261.728, 203.361
1262.210, 124.727
1262.693, 183.138
1263.175, 186.842
1263.657, 215.583
1264.139, 190.109
1264.621, 181.380
1265.103, 226.884
1265.585, 242.358
1266.067, 210.643
1266.549, 240.975
1267.031, 160.448
1267.514, 177.204
1267.996, 235.930
1268.478, 206.941
1268.960, 238.264
1269.442, 246.617
1269.924, 150.579
1270.406, 236.088
1270.888, 243.083
1271.371, 169.465
1271.853, 248.754
1272.335, 186.247
1272.817, 174.353
1273.299, 200.547
1273.781, 187.036
1274.263, 236.125
1274.745, 224.906
1275.228, 208.302
1275.710, 215.209
1276.192, 155.483
1276.674, 206.037
1277.156, 206.657
1277.638, 220.707
1278.120, 235.960
1278.602, 250.518
1279.084, 262.878
1279.567, 276.308
1280.049, 272.151
1280.531, 239.284
1281.013, 207.078
1281.495, 218.327
1281.977, 243.363
1282.459, 248.592
1282.941, 232.938
1283.423, 224.421
1283.906, 223.765
1284.388, 221.896
1284.870, 216.349
1285.352, 209.888
1285.834, 207.910
1286.316, 203.557
1286.798, 188.707
1287.280, 166.890
1287.763, 148.072
1288.245, 133.290
1288.727, 138.808
1289.209, 171.166
1289.691, 203.522
1290.173, 220.997
1290.655, 231.722
1291.137, 240.527
1291.620, 246.550
1292.102, 247.889
1292.584, 244.336
1293.066, 236.344
1293.548, 224.425
1294.030, 202.661
1294.512, 143.141
1294.994, 109.207
1295.476, 127.179
1295.958, 169.144
1296.441, 190.000
1296.923, 193.794
1297.405, 181.857
1297.887, 153.074
1298.369, 145.393
1298.851, 175.154
1299.333, 191.586
1299.815, 176.983
1300.298, 157.447
1300.780, 158.312
##END=



