##NAMES=Jarlite
##RRUFFID=R050667
##IDEAL CHEMISTRY=Na_2_(Sr,Na)_14_(Mg,[box])_2_Al_12_F_64_(OH)_4__
##LOCALITY=Ivigtut, Greenland
##OWNER=RRUFF
##SOURCE=University of Arizona Mineral Museum
##DESCRIPTION=Colorless elongated prisms
##STATUS=The identification of this mineral is confirmed by single-crystal X-ray diffraction and chemical analysis.
##URL=rruff.info/R050667
##MEASURED CHEMISTRY=lighter phase: (Na_0.65_K_0.35_)_Σ=1_(Sr_5.92_Na_0.72_Ca_0.18_Li_0.10_Ba_0.08_)_Σ=7_(Mg_0.50_[box]_0.50_)_Σ=1_Al_6.00_F_32.00_((OH)_1.18_(H2O)_0.82_)_Σ=2_; Li not measured but estimated by charge balance
120.6094, 1560.017
121.0915, 1617.042
121.5737, 1712.742
122.0558, 1799.750
122.5379, 1847.041
123.0200, 1863.233
123.5021, 1863.872
123.9842, 1843.313
124.4664, 1816.037
124.9485, 1800.365
125.4306, 1800.626
125.9127, 1805.351
126.3948, 1799.844
126.8769, 1786.699
127.3591, 1778.363
127.8412, 1785.435
128.3233, 1803.670
128.8054, 1824.026
129.2875, 1848.170
129.7696, 1868.374
130.2518, 1867.811
130.7339, 1847.806
131.2160, 1823.176
131.6981, 1800.474
132.1802, 1779.964
132.6623, 1762.863
133.1445, 1747.532
133.6266, 1734.901
134.1087, 1734.019
134.5908, 1747.078
135.0729, 1765.951
135.5550, 1775.488
136.0372, 1773.790
136.5193, 1776.591
137.0014, 1790.523
137.4835, 1815.151
137.9656, 1856.539
138.4477, 1929.008
138.9299, 2013.414
139.4120, 2037.373
139.8941, 1983.396
140.3762, 1907.933
140.8583, 1849.596
141.3404, 1808.399
141.8226, 1785.604
142.3047, 1786.009
142.7868, 1810.367
143.2689, 1828.892
143.7510, 1840.785
144.2331, 1847.598
144.7152, 1850.616
145.1974, 1846.479
145.6795, 1843.892
146.1616, 1845.999
146.6437, 1856.066
147.1258, 1862.276
147.6079, 1860.233
148.0901, 1854.443
148.5722, 1857.429
149.0543, 1882.046
149.5364, 1904.085
150.0185, 1912.854
150.5006, 1895.379
150.9828, 1880.007
151.4649, 1864.649
151.9470, 1850.096
152.4291, 1846.028
152.9112, 1858.136
153.3933, 1877.760
153.8755, 1898.950
154.3576, 1930.659
154.8397, 1954.428
155.3218, 1965.617
155.8039, 1963.190
156.2860, 1955.029
156.7682, 1936.505
157.2503, 1914.669
157.7324, 1898.191
158.2145, 1885.165
158.6966, 1881.038
159.1787, 1890.677
159.6609, 1923.186
160.1430, 1950.050
160.6251, 1961.856
161.1072, 1961.671
161.5893, 1956.308
162.0714, 1941.209
162.5536, 1925.851
163.0357, 1917.077
163.5178, 1924.814
163.9999, 1930.224
164.4820, 1920.604
164.9641, 1898.660
165.4463, 1881.755
165.9284, 1876.374
166.4105, 1881.159
166.8926, 1894.652
167.3747, 1943.196
167.8568, 1981.503
168.3390, 1967.090
168.8211, 1895.422
169.3032, 1829.998
169.7853, 1819.257
170.2674, 1842.639
170.7495, 1864.273
171.2317, 1868.979
171.7138, 1863.140
172.1959, 1851.453
172.6780, 1833.006
173.1601, 1814.092
173.6422, 1797.240
174.1244, 1783.611
174.6065, 1777.199
175.0886, 1786.300
175.5707, 1802.558
176.0528, 1813.939
176.5349, 1817.734
177.0171, 1816.033
177.4992, 1806.928
177.9813, 1791.733
178.4634, 1781.293
178.9455, 1790.125
179.4276, 1810.162
179.9098, 1822.719
180.3919, 1816.027
180.8740, 1801.504
181.3561, 1797.921
181.8382, 1805.511
182.3203, 1819.218
182.8025, 1841.501
183.2846, 1868.169
183.7667, 1883.005
184.2488, 1867.921
184.7309, 1835.341
185.2130, 1820.421
185.6951, 1824.353
186.1773, 1842.519
186.6594, 1881.896
187.1415, 1938.956
187.6236, 1976.931
188.1057, 1958.424
188.5878, 1898.245
189.0700, 1870.836
189.5521, 1891.305
190.0342, 1933.834
190.5163, 1950.820
190.9984, 1941.346
191.4805, 1927.563
191.9627, 1923.713
192.4448, 1929.317
192.9269, 1939.970
193.4090, 1957.364
193.8911, 1977.878
194.3732, 1990.032
194.8554, 1993.052
195.3375, 1992.843
195.8196, 1992.271
196.3017, 1991.197
196.7838, 1998.357
197.2659, 2021.763
197.7481, 2056.933
198.2302, 2070.686
198.7123, 2058.638
199.1944, 2038.052
199.6765, 2029.146
200.1586, 2032.946
200.6408, 2040.180
201.1229, 2050.916
201.6050, 2065.284
202.0871, 2066.571
202.5692, 2050.571
203.0513, 2027.885
203.5335, 2015.766
204.0156, 2015.290
204.4977, 2020.595
204.9798, 2032.528
205.4619, 2053.355
205.9440, 2062.395
206.4262, 2056.003
206.9083, 2039.593
207.3904, 2026.149
207.8725, 2015.668
208.3546, 2008.037
208.8367, 2002.452
209.3189, 1997.830
209.8010, 2000.478
210.2831, 2013.368
210.7652, 2033.662
211.2473, 2048.853
211.7294, 2058.089
212.2116, 2064.067
212.6937, 2069.030
213.1758, 2073.912
213.6579, 2074.437
214.1400, 2066.214
214.6221, 2050.798
215.1043, 2052.936
215.5864, 2080.929
216.0685, 2114.657
216.5506, 2131.855
217.0327, 2123.749
217.5148, 2122.282
217.9970, 2137.084
218.4791, 2169.352
218.9612, 2195.790
219.4433, 2218.467
219.9254, 2232.828
220.4075, 2229.053
220.8897, 2193.858
221.3718, 2167.998
221.8539, 2167.620
222.3360, 2200.573
222.8181, 2220.260
223.3002, 2222.164
223.7824, 2213.421
224.2645, 2206.834
224.7466, 2204.192
225.2287, 2200.529
225.7108, 2193.072
226.1929, 2178.479
226.6750, 2170.348
227.1572, 2173.801
227.6393, 2182.336
228.1214, 2178.058
228.6035, 2154.087
229.0856, 2127.655
229.5677, 2106.202
230.0499, 2088.468
230.5320, 2079.452
231.0141, 2082.480
231.4962, 2094.541
231.9783, 2104.536
232.4604, 2116.557
232.9426, 2121.078
233.4247, 2108.661
233.9068, 2060.358
234.3889, 2036.426
234.8710, 2056.918
235.3531, 2113.685
235.8353, 2127.164
236.3174, 2069.703
236.7995, 2000.408
237.2816, 1964.730
237.7637, 1980.426
238.2458, 1995.763
238.7280, 2004.416
239.2101, 2006.448
239.6922, 2005.034
240.1743, 1999.426
240.6564, 1991.108
241.1385, 1981.097
241.6207, 1967.428
242.1028, 1955.159
242.5849, 1944.193
243.0670, 1934.121
243.5491, 1931.588
244.0313, 1944.412
244.5134, 1958.252
244.9955, 1954.273
245.4776, 1917.041
245.9597, 1888.915
246.4418, 1882.652
246.9240, 1903.150
247.4061, 1917.813
247.8882, 1928.209
248.3703, 1931.583
248.8524, 1922.299
249.3345, 1892.188
249.8167, 1863.376
250.2988, 1841.577
250.7809, 1826.856
251.2630, 1819.799
251.7451, 1825.591
252.2272, 1836.007
252.7094, 1836.026
253.1915, 1821.986
253.6736, 1803.546
254.1557, 1782.268
254.6378, 1753.475
255.1199, 1736.597
255.6021, 1735.578
256.0842, 1744.670
256.5663, 1752.562
257.0484, 1761.825
257.5305, 1765.409
258.0126, 1757.420
258.4948, 1728.214
258.9769, 1716.077
259.4590, 1730.034
259.9411, 1758.168
260.4232, 1765.844
260.9053, 1741.592
261.3875, 1717.941
261.8696, 1713.595
262.3517, 1737.400
262.8338, 1752.084
263.3159, 1752.425
263.7980, 1743.174
264.2802, 1740.120
264.7623, 1743.918
265.2444, 1752.485
265.7265, 1767.695
266.2086, 1794.432
266.6907, 1807.999
267.1729, 1802.531
267.6550, 1782.932
268.1371, 1767.269
268.6192, 1756.062
269.1013, 1747.856
269.5834, 1741.024
270.0656, 1734.541
270.5477, 1735.654
271.0298, 1750.051
271.5119, 1772.027
271.9940, 1773.052
272.4761, 1744.481
272.9583, 1717.049
273.4404, 1716.821
273.9225, 1749.575
274.4046, 1778.289
274.8867, 1798.251
275.3688, 1810.025
275.8510, 1816.365
276.3331, 1817.452
276.8152, 1812.452
277.2973, 1796.739
277.7794, 1768.237
278.2615, 1748.841
278.7437, 1743.220
279.2258, 1749.779
279.7079, 1764.091
280.1900, 1788.447
280.6721, 1811.751
281.1542, 1823.117
281.6364, 1822.141
282.1185, 1819.184
282.6006, 1814.815
283.0827, 1810.518
283.5648, 1813.403
284.0469, 1824.465
284.5291, 1837.584
285.0112, 1846.699
285.4933, 1851.948
285.9754, 1857.913
286.4575, 1865.539
286.9396, 1874.680
287.4217, 1885.209
287.9038, 1897.261
288.3860, 1909.417
288.8681, 1919.540
289.3502, 1927.895
289.8323, 1937.965
290.3144, 1950.072
290.7965, 1964.655
291.2787, 1985.086
291.7608, 2012.124
292.2429, 2037.296
292.7250, 2046.767
293.2071, 2045.066
293.6892, 2055.477
294.1714, 2092.791
294.6535, 2143.759
295.1356, 2181.893
295.6177, 2207.293
296.0998, 2221.423
296.5819, 2213.885
297.0641, 2193.871
297.5462, 2192.716
298.0283, 2233.529
298.5104, 2292.608
298.9925, 2331.326
299.4746, 2349.696
299.9568, 2359.060
300.4389, 2367.151
300.9210, 2373.868
301.4031, 2379.268
301.8852, 2384.282
302.3673, 2387.279
302.8495, 2386.995
303.3316, 2383.342
303.8137, 2374.384
304.2958, 2353.922
304.7779, 2327.401
305.2600, 2304.974
305.7422, 2293.795
306.2243, 2286.188
306.7064, 2275.901
307.1885, 2262.820
307.6706, 2246.189
308.1527, 2223.713
308.6349, 2197.712
309.1170, 2171.850
309.5991, 2140.795
310.0812, 2114.949
310.5633, 2102.040
311.0454, 2101.652
311.5276, 2108.575
312.0097, 2130.853
312.4918, 2154.913
312.9739, 2165.801
313.4560, 2143.676
313.9381, 2118.813
314.4203, 2111.573
314.9024, 2120.199
315.3845, 2122.833
315.8666, 2098.975
316.3487, 2068.571
316.8308, 2050.463
317.3130, 2064.265
317.7951, 2078.350
318.2772, 2082.620
318.7593, 2077.061
319.2414, 2062.469
319.7235, 2026.779
320.2057, 1988.462
320.6878, 1962.157
321.1699, 1966.843
321.6520, 1967.943
322.1341, 1951.093
322.6162, 1918.836
323.0984, 1898.296
323.5805, 1909.178
324.0626, 1925.012
324.5447, 1927.948
325.0268, 1897.749
325.5089, 1874.247
325.9911, 1866.241
326.4732, 1872.211
326.9553, 1874.541
327.4374, 1874.341
327.9195, 1868.747
328.4016, 1855.913
328.8838, 1819.539
329.3659, 1796.364
329.8480, 1794.713
330.3301, 1810.589
330.8122, 1818.485
331.2943, 1809.878
331.7765, 1801.751
332.2586, 1804.530
332.7407, 1828.943
333.2228, 1844.833
333.7049, 1848.751
334.1870, 1842.885
334.6692, 1835.197
335.1513, 1821.738
335.6334, 1812.762
336.1155, 1816.466
336.5976, 1840.186
337.0797, 1852.586
337.5619, 1847.827
338.0440, 1832.419
338.5261, 1824.311
339.0082, 1823.481
339.4903, 1829.816
339.9724, 1847.798
340.4546, 1880.530
340.9367, 1897.121
341.4188, 1891.582
341.9009, 1874.681
342.3830, 1864.711
342.8651, 1860.635
343.3473, 1872.608
343.8294, 1920.115
344.3115, 1998.678
344.7936, 2039.794
345.2757, 2033.542
345.7578, 2005.959
346.2400, 1994.696
346.7221, 1999.384
347.2042, 2010.458
347.6863, 2028.690
348.1684, 2050.048
348.6505, 2060.504
349.1327, 2058.329
349.6148, 2050.596
350.0969, 2041.656
350.5790, 2033.140
351.0611, 2031.518
351.5432, 2036.290
352.0254, 2050.844
352.5075, 2092.746
352.9896, 2166.550
353.4717, 2223.661
353.9538, 2199.815
354.4359, 2127.360
354.9181, 2070.378
355.4002, 2073.220
355.8823, 2093.541
356.3644, 2091.893
356.8465, 2067.398
357.3286, 2039.023
357.8108, 2017.516
358.2929, 1999.818
358.7750, 1981.441
359.2571, 1956.830
359.7392, 1934.429
360.2213, 1917.919
360.7035, 1907.384
361.1856, 1903.221
361.6677, 1912.623
362.1498, 1925.075
362.6319, 1931.565
363.1140, 1927.887
363.5962, 1919.753
364.0783, 1903.616
364.5604, 1881.709
365.0425, 1869.582
365.5246, 1879.597
366.0067, 1894.932
366.4889, 1905.195
366.9710, 1906.738
367.4531, 1906.129
367.9352, 1898.926
368.4173, 1888.416
368.8994, 1889.365
369.3815, 1913.452
369.8636, 1939.012
370.3458, 1956.222
370.8279, 1957.675
371.3100, 1963.868
371.7921, 1977.449
372.2742, 1995.206
372.7563, 2008.370
373.2385, 2011.322
373.7206, 2018.672
374.2027, 2034.975
374.6848, 2058.890
375.1669, 2100.385
375.6490, 2172.154
376.1312, 2248.233
376.6133, 2281.978
377.0954, 2263.410
377.5775, 2242.702
378.0596, 2236.498
378.5417, 2244.705
379.0239, 2264.679
379.5060, 2299.700
379.9881, 2336.239
380.4702, 2352.970
380.9523, 2350.919
381.4344, 2355.464
381.9166, 2379.226
382.3987, 2414.929
382.8808, 2442.617
383.3629, 2461.878
383.8450, 2475.434
384.3271, 2483.236
384.8093, 2486.845
385.2914, 2491.189
385.7735, 2499.610
386.2556, 2507.581
386.7377, 2507.722
387.2198, 2500.794
387.7020, 2492.481
388.1841, 2483.857
388.6662, 2477.337
389.1483, 2477.916
389.6304, 2494.772
390.1125, 2506.112
390.5947, 2491.269
391.0768, 2456.634
391.5589, 2422.422
392.0410, 2397.615
392.5231, 2377.983
393.0052, 2361.712
393.4874, 2352.150
393.9695, 2336.889
394.4516, 2302.471
394.9337, 2259.750
395.4158, 2228.625
395.8979, 2226.658
396.3801, 2226.966
396.8622, 2218.356
397.3443, 2197.094
397.8264, 2176.772
398.3085, 2157.914
398.7906, 2141.404
399.2728, 2128.579
399.7549, 2127.166
400.2370, 2120.740
400.7191, 2105.026
401.2012, 2079.368
401.6833, 2053.987
402.1655, 2025.035
402.6476, 2000.519
403.1297, 1989.169
403.6118, 1998.567
404.0939, 2002.294
404.5760, 1993.891
405.0582, 1976.510
405.5403, 1968.413
406.0224, 1972.420
406.5045, 1977.677
406.9866, 1975.307
407.4688, 1964.613
407.9509, 1958.390
408.4330, 1958.354
408.9151, 1962.749
409.3972, 1970.313
409.8793, 1980.994
410.3615, 1987.462
410.8436, 1980.611
411.3257, 1965.657
411.8078, 1961.239
412.2899, 1969.604
412.7720, 1983.618
413.2542, 1996.593
413.7363, 2008.477
414.2184, 2019.315
414.7005, 2028.264
415.1826, 2036.489
415.6647, 2047.779
416.1469, 2062.245
416.6290, 2070.247
417.1111, 2053.164
417.5932, 2028.443
418.0753, 2019.342
418.5574, 2053.096
419.0396, 2086.832
419.5217, 2097.035
420.0038, 2086.460
420.4859, 2074.545
420.9680, 2065.888
421.4501, 2060.324
421.9323, 2058.037
422.4144, 2060.934
422.8965, 2064.485
423.3786, 2068.807
423.8607, 2073.422
424.3428, 2076.897
424.8250, 2080.362
425.3071, 2081.740
425.7892, 2080.628
426.2713, 2077.742
426.7534, 2070.079
427.2355, 2053.812
427.7177, 2035.079
428.1998, 2024.031
428.6819, 2025.342
429.1640, 2023.299
429.6461, 2010.230
430.1282, 1986.727
430.6104, 1980.562
431.0925, 1998.571
431.5746, 2016.194
432.0567, 2001.840
432.5388, 1954.201
433.0209, 1923.550
433.5031, 1926.945
433.9852, 1948.573
434.4673, 1947.708
434.9494, 1924.889
435.4315, 1899.580
435.9136, 1882.336
436.3958, 1873.540
436.8779, 1877.599
437.3600, 1900.128
437.8421, 1921.246
438.3242, 1912.366
438.8063, 1883.128
439.2885, 1860.517
439.7706, 1866.305
440.2527, 1880.427
440.7348, 1882.844
441.2169, 1870.682
441.6990, 1861.132
442.1812, 1869.024
442.6633, 1883.143
443.1454, 1890.234
443.6275, 1878.617
444.1096, 1866.522
444.5917, 1859.231
445.0739, 1856.808
445.5560, 1858.337
446.0381, 1875.460
446.5202, 1888.506
447.0023, 1885.775
447.4844, 1841.776
447.9666, 1814.048
448.4487, 1811.023
448.9308, 1823.889
449.4129, 1828.714
449.8950, 1821.661
450.3771, 1812.810
450.8593, 1805.543
451.3413, 1799.854
451.8235, 1796.097
452.3056, 1794.036
452.7877, 1794.305
453.2698, 1799.661
453.7519, 1810.890
454.2340, 1817.397
454.7162, 1813.386
455.1983, 1802.885
455.6804, 1802.489
456.1625, 1812.875
456.6446, 1821.353
457.1267, 1814.456
457.6089, 1797.094
458.0910, 1782.992
458.5731, 1776.902
459.0552, 1771.865
459.5373, 1756.563
460.0194, 1734.722
460.5016, 1718.426
460.9837, 1719.911
461.4658, 1727.112
461.9479, 1729.719
462.4300, 1726.309
462.9121, 1719.901
463.3943, 1710.934
463.8764, 1700.183
464.3585, 1688.772
464.8406, 1670.681
465.3227, 1658.164
465.8048, 1659.194
466.2870, 1673.737
466.7691, 1680.888
467.2512, 1669.986
467.7333, 1656.795
468.2154, 1650.800
468.6975, 1654.284
469.1797, 1661.625
469.6618, 1675.330
470.1439, 1691.945
470.6260, 1702.742
471.1081, 1707.977
471.5902, 1706.623
472.0724, 1695.371
472.5545, 1673.051
473.0366, 1659.635
473.5187, 1656.608
474.0008, 1658.638
474.4829, 1661.273
474.9651, 1664.207
475.4472, 1663.488
475.9293, 1657.159
476.4114, 1647.017
476.8935, 1631.837
477.3756, 1612.887
477.8578, 1604.217
478.3399, 1628.453
478.8220, 1665.985
479.3041, 1686.147
479.7862, 1677.980
480.2683, 1664.516
480.7505, 1661.737
481.2326, 1666.501
481.7147, 1672.081
482.1968, 1674.376
482.6789, 1677.816
483.1610, 1685.708
483.6432, 1698.959
484.1253, 1710.169
484.6074, 1718.712
485.0895, 1723.630
485.5716, 1724.155
486.0537, 1715.087
486.5359, 1707.537
487.0180, 1701.500
487.5001, 1697.447
487.9822, 1696.141
488.4643, 1690.984
488.9464, 1699.409
489.4286, 1741.289
489.9107, 1831.982
490.3928, 1865.487
490.8749, 1824.443
491.3570, 1756.162
491.8391, 1731.279
492.3213, 1749.786
492.8034, 1769.844
493.2855, 1774.402
493.7676, 1771.178
494.2497, 1783.153
494.7318, 1809.870
495.2140, 1833.643
495.6961, 1834.231
496.1782, 1823.145
496.6603, 1820.808
497.1424, 1834.100
497.6245, 1851.070
498.1067, 1858.744
498.5888, 1862.815
499.0709, 1876.499
499.5530, 1916.831
500.0351, 1959.225
500.5172, 1988.865
500.9994, 2001.831
501.4815, 2019.320
501.9636, 2054.847
502.4457, 2092.716
502.9278, 2118.708
503.4099, 2116.037
503.8921, 2121.814
504.3742, 2141.242
504.8563, 2171.727
505.3384, 2202.698
505.8205, 2234.463
506.3026, 2266.391
506.7848, 2299.816
507.2669, 2336.570
507.7490, 2360.264
508.2311, 2364.414
508.7132, 2370.887
509.1953, 2419.626
509.6775, 2505.604
510.1596, 2572.440
510.6417, 2587.898
511.1238, 2581.292
511.6059, 2611.766
512.0880, 2677.018
512.5701, 2749.404
513.0522, 2815.882
513.5344, 2875.944
514.0165, 2928.269
514.4986, 2971.233
514.9807, 3010.402
515.4628, 3044.794
515.9449, 3078.541
516.4271, 3118.106
516.9092, 3174.464
517.3913, 3229.228
517.8734, 3274.581
518.3555, 3309.943
518.8376, 3345.836
519.3198, 3392.374
519.8019, 3433.421
520.2840, 3458.968
520.7661, 3461.079
521.2482, 3462.336
521.7303, 3461.185
522.2125, 3461.126
522.6946, 3473.817
523.1767, 3504.857
523.6588, 3524.980
524.1409, 3517.316
524.6230, 3486.440
525.1052, 3469.298
525.5873, 3468.136
526.0694, 3462.855
526.5515, 3427.361
527.0336, 3371.595
527.5157, 3324.886
527.9979, 3298.474
528.4800, 3277.960
528.9621, 3248.908
529.4442, 3213.638
529.9263, 3178.053
530.4084, 3152.128
530.8906, 3122.306
531.3727, 3074.833
531.8548, 3004.959
532.3369, 2945.180
532.8190, 2911.952
533.3011, 2890.682
533.7833, 2868.603
534.2654, 2842.417
534.7475, 2817.114
535.2296, 2796.147
535.7117, 2776.350
536.1938, 2744.925
536.6760, 2690.592
537.1581, 2645.201
537.6402, 2626.122
538.1223, 2636.517
538.6044, 2632.702
539.0865, 2611.944
539.5687, 2584.929
540.0508, 2564.027
540.5329, 2548.202
541.0150, 2531.687
541.4971, 2512.830
541.9792, 2492.839
542.4614, 2472.605
542.9435, 2452.709
543.4256, 2435.838
543.9077, 2426.368
544.3898, 2419.100
544.8719, 2409.402
545.3541, 2396.790
545.8362, 2381.724
546.3183, 2361.881
546.8004, 2340.564
547.2825, 2321.206
547.7646, 2303.937
548.2468, 2289.672
548.7289, 2279.306
549.2110, 2272.278
549.6931, 2266.381
550.1752, 2262.254
550.6573, 2258.409
551.1395, 2254.542
551.6216, 2250.988
552.1037, 2244.728
552.5858, 2234.320
553.0679, 2224.296
553.5500, 2222.432
554.0322, 2228.208
554.5143, 2227.656
554.9964, 2216.528
555.4785, 2198.529
555.9606, 2176.480
556.4427, 2151.955
556.9249, 2134.090
557.4070, 2134.764
557.8891, 2141.810
558.3712, 2142.787
558.8533, 2136.560
559.3354, 2123.500
559.8176, 2092.018
560.2997, 2058.798
560.7818, 2040.906
561.2639, 2058.866
561.7460, 2074.543
562.2281, 2081.516
562.7103, 2080.351
563.1924, 2073.822
563.6745, 2058.630
564.1566, 2042.589
564.6387, 2028.309
565.1208, 2015.781
565.6030, 2004.120
566.0851, 1992.607
566.5672, 1983.981
567.0493, 1985.648
567.5314, 1996.662
568.0135, 1992.594
568.4957, 1962.491
568.9778, 1926.829
569.4599, 1925.777
569.9420, 1951.400
570.4241, 1970.014
570.9063, 1953.718
571.3884, 1927.744
571.8705, 1918.795
572.3526, 1928.025
572.8347, 1937.173
573.3168, 1936.637
573.7990, 1931.814
574.2811, 1926.911
574.7632, 1917.661
575.2453, 1915.587
575.7274, 1930.027
576.2095, 1951.617
576.6917, 1961.563
577.1738, 1955.478
577.6559, 1944.541
578.1380, 1928.763
578.6201, 1909.031
579.1022, 1901.843
579.5844, 1909.905
580.0665, 1920.411
580.5486, 1921.167
581.0307, 1914.363
581.5128, 1916.873
581.9949, 1932.405
582.4771, 1951.021
582.9592, 1961.065
583.4413, 1964.609
583.9234, 1966.768
584.4055, 1970.038
584.8876, 1972.520
585.3698, 1970.618
585.8519, 1965.722
586.3340, 1965.332
586.8161, 1977.087
587.2982, 1990.873
587.7803, 2001.105
588.2625, 2006.271
588.7446, 2010.071
589.2267, 2008.425
589.7088, 2008.310
590.1909, 2018.874
590.6730, 2046.358
591.1552, 2066.900
591.6373, 2075.255
592.1194, 2074.931
592.6015, 2074.031
593.0836, 2072.197
593.5657, 2075.844
594.0479, 2093.332
594.5300, 2118.557
595.0121, 2133.888
595.4942, 2138.768
595.9763, 2141.290
596.4584, 2149.141
596.9406, 2158.335
597.4227, 2163.909
597.9048, 2164.765
598.3869, 2161.447
598.8690, 2144.197
599.3511, 2124.056
599.8333, 2122.112
600.3154, 2174.104
600.7975, 2211.974
601.2796, 2210.233
601.7617, 2170.282
602.2438, 2151.514
602.7260, 2162.990
603.2081, 2180.030
603.6902, 2186.463
604.1723, 2181.284
604.6544, 2180.869
605.1365, 2187.631
605.6187, 2194.291
606.1008, 2190.513
606.5829, 2177.982
607.0650, 2163.050
607.5471, 2143.158
608.0292, 2126.836
608.5114, 2126.162
608.9935, 2138.159
609.4756, 2152.506
609.9577, 2169.396
610.4398, 2182.351
610.9219, 2187.214
611.4041, 2183.374
611.8862, 2173.533
612.3683, 2147.337
612.8504, 2122.255
613.3325, 2112.679
613.8146, 2133.552
614.2968, 2139.456
614.7789, 2123.298
615.2610, 2095.361
615.7431, 2074.813
616.2252, 2061.944
616.7073, 2054.023
617.1895, 2050.765
617.6716, 2051.609
618.1537, 2059.202
618.6358, 2072.559
619.1179, 2077.882
619.6000, 2054.656
620.0822, 2022.804
620.5643, 2009.216
621.0464, 2020.281
621.5285, 2030.802
622.0106, 2025.428
622.4927, 2012.969
622.9749, 2002.842
623.4570, 2002.315
623.9391, 1997.878
624.4212, 1982.962
624.9033, 1963.296
625.3854, 1954.476
625.8676, 1961.916
626.3497, 1968.407
626.8318, 1967.651
627.3139, 1960.422
627.7960, 1954.744
628.2781, 1950.956
628.7603, 1945.799
629.2424, 1933.200
629.7245, 1917.355
630.2066, 1909.621
630.6887, 1912.396
631.1708, 1918.892
631.6530, 1925.927
632.1351, 1932.070
632.6172, 1935.160
633.0993, 1940.431
633.5814, 1936.228
634.0635, 1908.702
634.5457, 1866.186
635.0278, 1840.613
635.5099, 1848.716
635.9920, 1859.496
636.4741, 1866.504
636.9562, 1870.248
637.4384, 1854.410
637.9205, 1809.121
638.4026, 1770.668
638.8847, 1779.679
639.3668, 1829.415
639.8489, 1855.901
640.3311, 1849.811
640.8132, 1827.324
641.2953, 1799.248
641.7774, 1769.657
642.2595, 1746.906
642.7416, 1739.043
643.2238, 1734.434
643.7059, 1725.193
644.1880, 1713.106
644.6701, 1703.877
645.1522, 1696.869
645.6343, 1695.522
646.1165, 1704.824
646.5986, 1726.829
647.0807, 1738.056
647.5628, 1736.668
648.0449, 1727.366
648.5270, 1708.635
649.0092, 1678.396
649.4913, 1669.286
649.9734, 1688.399
650.4555, 1714.764
650.9376, 1719.552
651.4197, 1707.277
651.9019, 1693.089
652.3840, 1678.482
652.8661, 1668.555
653.3482, 1669.781
653.8303, 1679.937
654.3124, 1692.245
654.7946, 1711.703
655.2767, 1725.795
655.7588, 1727.533
656.2409, 1715.595
656.7230, 1700.376
657.2051, 1676.644
657.6872, 1656.082
658.1693, 1645.715
658.6514, 1646.827
659.1335, 1651.325
659.6157, 1657.081
660.0978, 1671.054
660.5799, 1711.802
661.0620, 1772.838
661.5441, 1816.474
662.0262, 1832.563
662.5084, 1827.448
662.9905, 1798.034
663.4726, 1752.580
663.9547, 1713.359
664.4368, 1693.436
664.9189, 1680.856
665.4011, 1670.774
665.8832, 1662.822
666.3653, 1655.645
666.8474, 1644.683
667.3295, 1638.369
667.8116, 1642.800
668.2938, 1663.151
668.7759, 1669.248
669.2580, 1655.812
669.7401, 1639.908
670.2222, 1644.127
670.7043, 1665.732
671.1865, 1674.928
671.6686, 1662.853
672.1507, 1645.320
672.6328, 1644.209
673.1149, 1653.169
673.5970, 1657.010
674.0792, 1637.038
674.5613, 1621.233
675.0434, 1632.316
675.5255, 1664.286
676.0076, 1684.593
676.4897, 1679.726
676.9719, 1667.704
677.4540, 1651.878
677.9361, 1630.392
678.4182, 1623.902
678.9003, 1636.685
679.3824, 1654.956
679.8646, 1669.131
680.3467, 1679.172
680.8288, 1685.289
681.3109, 1687.380
681.7930, 1685.985
682.2751, 1676.749
682.7573, 1665.116
683.2394, 1662.483
683.7215, 1680.187
684.2036, 1697.755
684.6857, 1704.183
685.1678, 1701.886
685.6500, 1696.583
686.1321, 1683.418
686.6142, 1674.360
687.0963, 1676.025
687.5784, 1686.423
688.0605, 1684.750
688.5427, 1666.750
689.0248, 1647.678
689.5069, 1633.703
689.9890, 1625.184
690.4711, 1626.892
690.9532, 1639.436
691.4354, 1655.394
691.9175, 1674.491
692.3996, 1690.513
692.8817, 1691.413
693.3638, 1670.155
693.8459, 1647.997
694.3281, 1637.451
694.8102, 1633.063
695.2923, 1627.714
695.7744, 1614.671
696.2565, 1607.362
696.7386, 1610.341
697.2208, 1619.430
697.7029, 1622.793
698.1850, 1617.899
698.6671, 1616.580
699.1492, 1625.273
699.6313, 1640.024
700.1135, 1646.806
700.5956, 1645.864
701.0777, 1641.628
701.5598, 1632.053
702.0419, 1623.433
702.5240, 1625.436
703.0062, 1639.242
703.4883, 1652.352
703.9704, 1666.300
704.4525, 1672.360
704.9346, 1662.560
705.4167, 1618.591
705.8989, 1589.187
706.3810, 1577.620
706.8631, 1578.162
707.3452, 1586.966
707.8273, 1606.541
708.3094, 1617.166
708.7916, 1613.761
709.2737, 1602.706
709.7558, 1591.941
710.2379, 1582.843
710.7200, 1580.153
711.2021, 1595.100
711.6843, 1610.461
712.1664, 1606.062
712.6485, 1587.301
713.1306, 1577.372
713.6127, 1598.349
714.0948, 1618.044
714.5770, 1619.480
715.0591, 1601.276
715.5412, 1587.674
716.0233, 1579.778
716.5054, 1574.724
716.9875, 1568.461
717.4697, 1561.111
717.9518, 1570.215
718.4339, 1599.398
718.9160, 1626.445
719.3981, 1623.075
719.8802, 1601.227
720.3624, 1583.452
720.8445, 1574.823
721.3266, 1571.473
721.8087, 1574.356
722.2908, 1580.086
722.7729, 1583.696
723.2551, 1586.880
723.7372, 1583.871
724.2193, 1567.573
724.7014, 1546.008
725.1835, 1545.488
725.6656, 1573.143
726.1478, 1591.516
726.6299, 1581.661
727.1120, 1555.200
727.5941, 1548.360
728.0762, 1559.436
728.5583, 1572.734
729.0405, 1580.921
729.5226, 1584.438
730.0047, 1583.762
730.4868, 1578.931
730.9689, 1570.321
731.4510, 1547.236
731.9332, 1528.480
732.4153, 1528.387
732.8974, 1555.745
733.3795, 1576.215
733.8616, 1590.617
734.3438, 1596.750
734.8259, 1587.558
735.3080, 1563.572
735.7901, 1551.165
736.2722, 1555.994
736.7543, 1566.174
737.2365, 1568.989
737.7186, 1565.703
738.2007, 1558.449
738.6828, 1542.732
739.1649, 1529.951
739.6470, 1526.100
740.1292, 1529.458
740.6113, 1536.209
741.0934, 1551.071
741.5755, 1562.747
742.0576, 1569.589
742.5397, 1571.570
743.0219, 1565.859
743.5040, 1550.429
743.9861, 1539.837
744.4682, 1543.283
744.9503, 1556.635
745.4324, 1571.931
745.9146, 1588.419
746.3967, 1597.559
746.8788, 1587.751
747.3609, 1571.907
747.8430, 1560.093
748.3251, 1553.496
748.8073, 1549.765
749.2894, 1549.061
749.7715, 1550.406
750.2536, 1553.712
750.7357, 1560.829
751.2178, 1563.393
751.7000, 1559.575
752.1821, 1555.542
752.6642, 1561.932
753.1463, 1575.536
753.6284, 1578.403
754.1105, 1564.468
754.5927, 1548.284
755.0748, 1543.036
755.5569, 1545.444
756.0390, 1550.246
756.5211, 1557.887
757.0032, 1565.051
757.4854, 1571.243
757.9675, 1576.233
758.4496, 1579.816
758.9317, 1583.595
759.4138, 1581.978
759.8959, 1571.026
760.3781, 1555.367
760.8602, 1549.559
761.3423, 1553.214
761.8244, 1560.237
762.3065, 1569.606
762.7886, 1579.177
763.2708, 1588.201
763.7529, 1595.834
764.2350, 1597.162
764.7171, 1583.878
765.1992, 1568.847
765.6813, 1558.653
766.1635, 1554.111
766.6456, 1551.224
767.1277, 1551.060
767.6098, 1550.749
768.0919, 1548.079
768.5740, 1543.079
769.0562, 1538.929
769.5383, 1535.387
770.0204, 1535.404
770.5025, 1545.371
770.9846, 1559.571
771.4667, 1567.651
771.9489, 1566.400
772.4310, 1566.858
772.9131, 1581.467
773.3952, 1597.149
773.8773, 1600.237
774.3594, 1574.349
774.8416, 1560.110
775.3237, 1563.343
775.8058, 1573.045
776.2879, 1573.192
776.7700, 1563.726
777.2521, 1556.896
777.7343, 1555.004
778.2164, 1557.453
778.6985, 1567.583
779.1806, 1581.249
779.6627, 1589.229
780.1448, 1580.598
780.6270, 1572.688
781.1091, 1575.398
781.5912, 1584.890
782.0733, 1589.676
782.5554, 1588.114
783.0375, 1582.741
783.5197, 1570.116
784.0018, 1555.209
784.4839, 1562.115
784.9660, 1591.727
785.4481, 1612.392
785.9302, 1602.252
786.4124, 1576.129
786.8945, 1556.105
787.3766, 1541.785
787.8587, 1532.236
788.3408, 1526.072
788.8229, 1525.478
789.3051, 1534.110
789.7872, 1552.985
790.2693, 1567.403
790.7514, 1577.120
791.2335, 1581.999
791.7156, 1580.101
792.1978, 1571.610
792.6799, 1568.589
793.1620, 1571.495
793.6441, 1573.199
794.1262, 1563.208
794.6083, 1550.002
795.0905, 1546.071
795.5726, 1553.105
796.0547, 1565.905
796.5368, 1593.638
797.0189, 1618.483
797.5010, 1623.911
797.9832, 1597.790
798.4653, 1581.227
798.9474, 1575.537
799.4295, 1577.278
799.9116, 1586.983
800.3937, 1603.504
800.8759, 1609.467
801.3580, 1601.353
801.8401, 1588.983
802.3222, 1578.566
802.8043, 1572.095
803.2864, 1573.725
803.7686, 1592.515
804.2507, 1604.805
804.7328, 1597.375
805.2149, 1581.179
805.6970, 1571.218
806.1791, 1567.711
806.6613, 1570.955
807.1434, 1583.151
807.6255, 1598.816
808.1076, 1609.957
808.5897, 1616.403
809.0718, 1616.851
809.5540, 1608.967
810.0361, 1598.095
810.5182, 1586.467
811.0003, 1575.998
811.4824, 1570.435
811.9645, 1578.046
812.4467, 1582.511
812.9288, 1576.036
813.4109, 1564.406
813.8930, 1563.180
814.3751, 1575.530
814.8572, 1585.419
815.3394, 1588.145
815.8215, 1585.573
816.3036, 1580.310
816.7857, 1572.971
817.2678, 1566.636
817.7499, 1557.711
818.2321, 1554.713
818.7142, 1569.159
819.1963, 1596.364
819.6784, 1614.633
820.1605, 1614.535
820.6426, 1610.367
821.1248, 1603.050
821.6068, 1594.237
822.0889, 1597.071
822.5710, 1612.805
823.0532, 1624.926
823.5353, 1620.591
824.0174, 1608.327
824.4995, 1604.859
824.9816, 1608.632
825.4637, 1609.854
825.9459, 1600.169
826.4280, 1589.247
826.9101, 1581.739
827.3922, 1578.209
827.8743, 1577.893
828.3564, 1583.205
828.8386, 1587.291
829.3207, 1585.536
829.8028, 1579.276
830.2849, 1578.832
830.7670, 1584.158
831.2491, 1592.322
831.7313, 1604.871
832.2134, 1616.862
832.6955, 1621.196
833.1776, 1617.557
833.6597, 1616.090
834.1418, 1625.151
834.6240, 1632.798
835.1061, 1632.531
835.5882, 1623.472
836.0703, 1615.367
836.5524, 1608.465
837.0345, 1601.971
837.5167, 1591.933
837.9988, 1582.083
838.4809, 1586.755
838.9630, 1606.438
839.4451, 1623.526
839.9272, 1623.312
840.4094, 1617.283
840.8915, 1614.422
841.3736, 1616.687
841.8557, 1617.831
842.3378, 1616.592
842.8199, 1615.230
843.3021, 1614.509
843.7842, 1614.327
844.2663, 1619.451
844.7484, 1630.592
845.2305, 1639.555
845.7126, 1636.615
846.1948, 1628.119
846.6769, 1622.342
847.1590, 1620.363
847.6411, 1621.109
848.1232, 1627.520
848.6053, 1633.965
849.0875, 1636.127
849.5696, 1632.385
850.0517, 1631.587
850.5338, 1635.284
851.0159, 1637.770
851.4980, 1633.050
851.9802, 1622.896
852.4623, 1610.089
852.9444, 1594.119
853.4265, 1587.372
853.9086, 1609.494
854.3907, 1638.853
854.8729, 1655.971
855.3550, 1654.305
855.8371, 1649.723
856.3192, 1639.822
856.8013, 1631.699
857.2834, 1631.635
857.7656, 1639.751
858.2477, 1648.896
858.7298, 1659.427
859.2119, 1665.052
859.6940, 1656.456
860.1761, 1640.857
860.6583, 1626.527
861.1404, 1613.973
861.6225, 1608.089
862.1046, 1616.112
862.5867, 1627.835
863.0688, 1635.166
863.5510, 1636.248
864.0331, 1641.950
864.5152, 1654.851
864.9973, 1663.885
865.4794, 1655.317
865.9615, 1635.047
866.4437, 1618.575
866.9258, 1607.556
867.4079, 1600.227
867.8900, 1590.400
868.3721, 1586.939
868.8542, 1600.542
869.3364, 1645.449
869.8185, 1667.568
870.3006, 1656.662
870.7827, 1639.181
871.2648, 1637.151
871.7469, 1648.788
872.2291, 1653.906
872.7112, 1651.207
873.1933, 1647.028
873.6754, 1645.097
874.1575, 1645.592
874.6396, 1650.063
875.1218, 1660.144
875.6039, 1665.699
876.0860, 1659.572
876.5681, 1652.399
877.0502, 1650.322
877.5323, 1654.075
878.0145, 1655.853
878.4966, 1655.470
878.9787, 1654.209
879.4608, 1653.848
879.9429, 1653.055
880.4250, 1648.521
880.9072, 1639.844
881.3893, 1633.162
881.8714, 1630.349
882.3535, 1631.547
882.8356, 1638.276
883.3177, 1651.525
883.7999, 1660.703
884.2820, 1665.837
884.7641, 1666.825
885.2462, 1658.518
885.7283, 1646.479
886.2104, 1650.381
886.6926, 1669.817
887.1747, 1688.406
887.6568, 1699.553
888.1389, 1702.768
888.6210, 1693.476
889.1031, 1669.874
889.5853, 1660.642
890.0674, 1676.197
890.5495, 1687.698
891.0316, 1676.718
891.5137, 1648.619
891.9958, 1638.675
892.4780, 1645.999
892.9601, 1657.495
893.4422, 1667.335
893.9243, 1675.286
894.4064, 1682.613
894.8885, 1688.669
895.3707, 1687.536
895.8528, 1667.365
896.3349, 1652.874
896.8170, 1654.305
897.2991, 1668.101
897.7813, 1674.359
898.2634, 1673.004
898.7455, 1669.333
899.2276, 1661.713
899.7097, 1656.373
900.1918, 1666.232
900.6740, 1686.263
901.1561, 1697.636
901.6382, 1682.915
902.1203, 1670.608
902.6024, 1669.367
903.0845, 1676.947
903.5667, 1687.131
904.0488, 1700.823
904.5309, 1708.724
905.0130, 1704.913
905.4951, 1696.735
905.9772, 1697.808
906.4594, 1703.997
906.9415, 1704.497
907.4236, 1687.018
907.9057, 1671.686
908.3878, 1665.854
908.8699, 1666.732
909.3521, 1669.408
909.8342, 1674.337
910.3163, 1679.225
910.7984, 1683.330
911.2805, 1687.786
911.7626, 1697.645
912.2448, 1709.144
912.7269, 1712.439
913.2090, 1697.915
913.6911, 1685.127
914.1732, 1685.848
914.6553, 1692.830
915.1375, 1695.518
915.6196, 1691.178
916.1017, 1690.167
916.5838, 1695.389
917.0659, 1699.165
917.5480, 1684.913
918.0302, 1660.894
918.5123, 1653.428
918.9944, 1671.027
919.4765, 1691.432
919.9586, 1705.577
920.4407, 1712.719
920.9229, 1710.640
921.4050, 1691.931
921.8871, 1684.997
922.3692, 1694.173
922.8513, 1705.865
923.3334, 1706.330
923.8156, 1698.623
924.2977, 1694.045
924.7798, 1693.492
925.2619, 1694.560
925.7440, 1698.726
926.2261, 1701.485
926.7083, 1696.375
927.1904, 1679.725
927.6725, 1679.221
928.1546, 1704.083
928.6367, 1726.979
929.1188, 1728.387
929.6010, 1713.915
930.0831, 1715.917
930.5652, 1732.455
931.0473, 1742.934
931.5294, 1718.156
932.0115, 1695.713
932.4937, 1712.762
932.9758, 1764.687
933.4579, 1789.315
933.9400, 1770.109
934.4221, 1748.023
934.9042, 1735.091
935.3864, 1728.511
935.8685, 1717.206
936.3506, 1702.905
936.8327, 1695.670
937.3148, 1705.394
937.7969, 1719.043
938.2791, 1728.543
938.7612, 1734.779
939.2433, 1740.157
939.7254, 1749.569
940.2075, 1749.327
940.6896, 1733.336
941.1718, 1712.045
941.6539, 1703.007
942.1360, 1705.487
942.6181, 1718.081
943.1002, 1746.476
943.5823, 1768.165
944.0645, 1756.961
944.5466, 1732.445
945.0287, 1718.594
945.5108, 1721.706
945.9929, 1734.227
946.4750, 1762.398
946.9572, 1789.833
947.4393, 1797.629
947.9214, 1789.074
948.4035, 1781.085
948.8856, 1775.242
949.3677, 1770.281
949.8499, 1766.276
950.3320, 1761.946
950.8141, 1754.565
951.2962, 1741.818
951.7783, 1739.773
952.2604, 1753.869
952.7426, 1768.216
953.2247, 1774.375
953.7068, 1773.118
954.1889, 1763.877
954.6710, 1748.081
955.1531, 1738.497
955.6353, 1750.318
956.1174, 1764.633
956.5995, 1767.787
957.0816, 1761.038
957.5637, 1757.368
958.0458, 1757.762
958.5280, 1760.464
959.0101, 1767.411
959.4922, 1773.865
959.9743, 1765.238
960.4564, 1745.565
960.9385, 1728.956
961.4207, 1717.594
961.9028, 1715.625
962.3849, 1734.280
962.8670, 1761.184
963.3491, 1773.469
963.8312, 1762.275
964.3134, 1758.670
964.7955, 1767.053
965.2776, 1780.166
965.7597, 1792.709
966.2418, 1801.855
966.7239, 1797.354
967.2061, 1773.527
967.6882, 1756.221
968.1703, 1765.284
968.6524, 1782.548
969.1345, 1794.405
969.6166, 1800.933
970.0988, 1798.634
970.5809, 1785.230
971.0630, 1772.516
971.5451, 1767.788
972.0272, 1770.466
972.5093, 1782.379
972.9915, 1802.255
973.4736, 1819.096
973.9557, 1833.344
974.4378, 1837.492
974.9199, 1823.125
975.4020, 1795.717
975.8842, 1778.780
976.3663, 1772.305
976.8484, 1777.656
977.3305, 1801.414
977.8126, 1829.355
978.2947, 1840.397
978.7769, 1839.565
979.2590, 1837.652
979.7411, 1836.922
980.2232, 1837.513
980.7053, 1838.880
981.1874, 1841.859
981.6696, 1847.977
982.1517, 1857.262
982.6338, 1867.684
983.1159, 1879.273
983.5980, 1889.482
984.0801, 1895.735
984.5623, 1899.087
985.0444, 1900.054
985.5265, 1897.357
986.0085, 1897.763
986.4907, 1902.579
986.9728, 1909.610
987.4549, 1918.043
987.9370, 1927.743
988.4191, 1938.916
988.9012, 1951.105
989.3834, 1957.934
989.8655, 1952.137
990.3476, 1941.993
990.8297, 1929.916
991.3118, 1917.885
991.7939, 1917.307
992.2761, 1938.856
992.7582, 1948.508
993.2403, 1933.965
993.7224, 1906.715
994.2045, 1891.079
994.6866, 1884.237
995.1688, 1876.863
995.6509, 1862.609
996.1330, 1853.029
996.6151, 1858.384
997.0972, 1869.865
997.5793, 1876.038
998.0615, 1875.153
998.5436, 1874.105
999.0257, 1872.821
999.5078, 1872.666
999.9899, 1880.093
1000.472, 1887.666
1000.954, 1878.284
1001.436, 1849.836
1001.918, 1828.121
1002.401, 1827.603
1002.883, 1832.940
1003.365, 1839.183
1003.847, 1845.518
1004.329, 1839.679
1004.811, 1821.184
1005.293, 1811.958
1005.775, 1830.933
1006.257, 1857.127
1006.740, 1871.672
1007.222, 1875.449
1007.704, 1870.905
1008.186, 1843.562
1008.668, 1829.864
1009.150, 1839.488
1009.632, 1857.157
1010.114, 1857.916
1010.596, 1845.031
1011.079, 1836.323
1011.561, 1835.389
1012.043, 1836.679
1012.525, 1838.012
1013.007, 1838.288
1013.489, 1834.114
1013.971, 1821.367
1014.453, 1827.592
1014.936, 1859.543
1015.418, 1888.655
1015.900, 1895.180
1016.382, 1885.510
1016.864, 1868.969
1017.346, 1848.096
1017.828, 1835.027
1018.310, 1839.786
1018.792, 1848.886
1019.275, 1858.879
1019.757, 1869.044
1020.239, 1878.846
1020.721, 1888.627
1021.203, 1890.909
1021.685, 1881.533
1022.167, 1870.882
1022.649, 1873.669
1023.132, 1881.490
1023.614, 1882.406
1024.096, 1870.229
1024.578, 1859.105
1025.060, 1848.998
1025.542, 1841.800
1026.024, 1837.266
1026.506, 1836.459
1026.989, 1852.057
1027.471, 1882.430
1027.953, 1902.625
1028.435, 1885.700
1028.917, 1863.254
1029.399, 1856.162
1029.881, 1862.107
1030.363, 1863.155
1030.845, 1857.325
1031.328, 1853.831
1031.810, 1854.857
1032.292, 1860.059
1032.774, 1874.838
1033.256, 1892.236
1033.738, 1897.603
1034.220, 1876.920
1034.702, 1862.128
1035.184, 1862.038
1035.667, 1869.280
1036.149, 1881.144
1036.631, 1897.730
1037.113, 1902.551
1037.595, 1894.905
1038.077, 1885.338
1038.559, 1881.181
1039.041, 1879.381
1039.524, 1878.069
1040.006, 1876.966
1040.488, 1875.169
1040.970, 1875.147
1041.452, 1866.901
1041.934, 1840.855
1042.416, 1813.434
1042.898, 1824.604
1043.380, 1861.377
1043.863, 1888.534
1044.345, 1893.107
1044.827, 1888.877
1045.309, 1874.552
1045.791, 1858.335
1046.273, 1846.272
1046.755, 1837.705
1047.237, 1843.255
1047.719, 1864.448
1048.202, 1884.098
1048.684, 1888.124
1049.166, 1883.362
1049.648, 1871.896
1050.130, 1855.355
1050.612, 1852.525
1051.094, 1874.556
1051.576, 1891.040
1052.059, 1891.475
1052.541, 1883.557
1053.023, 1887.242
1053.505, 1898.138
1053.987, 1901.328
1054.469, 1886.307
1054.951, 1874.194
1055.433, 1876.164
1055.916, 1885.171
1056.398, 1896.434
1056.880, 1912.932
1057.362, 1908.884
1057.844, 1881.738
1058.326, 1858.552
1058.808, 1868.615
1059.290, 1889.122
1059.772, 1891.517
1060.255, 1877.681
1060.737, 1878.095
1061.219, 1912.482
1061.701, 1932.635
1062.183, 1921.593
1062.665, 1896.278
1063.147, 1894.312
1063.629, 1908.914
1064.111, 1917.846
1064.594, 1914.192
1065.076, 1905.734
1065.558, 1886.829
1066.040, 1872.172
1066.522, 1876.625
1067.004, 1904.757
1067.486, 1918.703
1067.968, 1918.027
1068.450, 1911.029
1068.933, 1893.523
1069.415, 1880.582
1069.897, 1895.748
1070.379, 1931.788
1070.861, 1953.755
1071.343, 1950.526
1071.825, 1943.599
1072.307, 1935.324
1072.790, 1927.592
1073.272, 1922.684
1073.754, 1921.088
1074.236, 1926.028
1074.718, 1940.972
1075.200, 1950.593
1075.682, 1944.962
1076.164, 1933.358
1076.646, 1919.316
1077.129, 1902.773
1077.611, 1903.259
1078.093, 1920.783
1078.575, 1936.521
1079.057, 1938.280
1079.539, 1933.680
1080.021, 1926.025
1080.503, 1917.351
1080.985, 1912.906
1081.468, 1913.068
1081.950, 1917.999
1082.432, 1929.477
1082.914, 1941.225
1083.396, 1945.371
1083.878, 1944.035
1084.360, 1940.391
1084.842, 1934.672
1085.325, 1930.477
1085.807, 1926.546
1086.289, 1928.052
1086.771, 1940.616
1087.253, 1959.962
1087.735, 1961.354
1088.217, 1947.224
1088.699, 1937.913
1089.182, 1949.034
1089.664, 1958.083
1090.146, 1941.541
1090.628, 1917.373
1091.110, 1912.210
1091.592, 1933.141
1092.074, 1949.418
1092.556, 1960.065
1093.038, 1965.831
1093.521, 1965.991
1094.003, 1962.476
1094.485, 1953.002
1094.967, 1939.459
1095.449, 1941.054
1095.931, 1977.270
1096.413, 2003.819
1096.895, 2007.946
1097.377, 1998.714
1097.860, 1992.728
1098.342, 1989.861
1098.824, 1990.912
1099.306, 1998.454
1099.788, 2002.232
1100.270, 1993.059
1100.752, 1981.766
1101.234, 1977.723
1101.717, 1981.214
1102.199, 1972.579
1102.681, 1952.042
1103.163, 1937.423
1103.645, 1947.764
1104.127, 1961.865
1104.609, 1960.750
1105.091, 1950.032
1105.573, 1945.230
1106.056, 1948.528
1106.538, 1954.087
1107.020, 1962.047
1107.502, 1969.298
1107.984, 1971.827
1108.466, 1971.199
1108.948, 1968.180
1109.430, 1962.542
1109.912, 1962.855
1110.395, 1979.987
1110.877, 1989.656
1111.359, 1979.210
1111.841, 1957.857
1112.323, 1954.310
1112.805, 1964.796
1113.287, 1976.633
1113.769, 1986.846
1114.252, 1994.303
1114.734, 2000.281
1115.216, 2001.804
1115.698, 1994.344
1116.180, 1976.720
1116.662, 1967.336
1117.144, 1966.433
1117.626, 1970.251
1118.109, 1982.343
1118.591, 1992.601
1119.073, 1989.886
1119.555, 1978.053
1120.037, 1972.510
1120.519, 1974.031
1121.001, 1982.444
1121.483, 2001.074
1121.965, 2015.023
1122.448, 1993.819
1122.930, 1961.050
1123.412, 1955.017
1123.894, 1986.014
1124.376, 2001.886
1124.858, 1988.569
1125.340, 1974.103
1125.822, 1969.011
1126.304, 1972.195
1126.787, 1987.464
1127.269, 2008.667
1127.751, 2016.782
1128.233, 1993.487
1128.715, 1973.216
1129.197, 1964.361
1129.679, 1964.276
1130.161, 1974.882
1130.644, 1995.073
1131.126, 2003.279
1131.608, 1999.465
1132.090, 1996.879
1132.572, 2013.776
1133.054, 2025.196
1133.536, 2006.118
1134.018, 1970.952
1134.500, 1960.028
1134.983, 1976.179
1135.465, 1989.892
1135.947, 1995.864
1136.429, 1999.005
1136.911, 2006.887
1137.393, 2012.999
1137.875, 2007.933
1138.357, 1988.545
1138.839, 1979.832
1139.322, 1984.078
1139.804, 1992.261
1140.286, 2003.312
1140.768, 2012.736
1141.250, 2014.663
1141.732, 2008.937
1142.214, 1993.977
1142.696, 1949.123
1143.179, 1935.041
1143.661, 1968.833
1144.143, 2008.639
1144.625, 2020.380
1145.107, 2011.034
1145.589, 1999.475
1146.071, 1987.392
1146.553, 1981.480
1147.036, 1988.680
1147.518, 1998.046
1148.000, 2007.909
1148.482, 2016.476
1148.964, 2018.749
1149.446, 2016.157
1149.928, 2019.747
1150.410, 2031.802
1150.892, 2039.650
1151.375, 2028.901
1151.857, 2016.845
1152.339, 2014.682
1152.821, 2020.917
1153.303, 2031.537
1153.785, 2046.366
1154.267, 2044.753
1154.749, 2011.070
1155.231, 1979.091
1155.714, 1983.329
1156.196, 2003.543
1156.678, 2016.635
1157.160, 2020.479
1157.642, 2021.081
1158.124, 2017.451
1158.606, 2017.724
1159.088, 2038.130
1159.571, 2056.423
1160.053, 2034.415
1160.535, 1991.538
1161.017, 1977.674
1161.499, 2018.947
1161.981, 2045.231
1162.463, 2051.042
1162.945, 2043.851
1163.427, 2024.682
1163.910, 2001.444
1164.392, 1984.794
1164.874, 1975.754
1165.356, 1975.976
1165.838, 1992.471
1166.320, 2007.755
1166.802, 2019.067
1167.284, 2025.890
1167.766, 2024.634
1168.249, 2018.876
1168.731, 2017.532
1169.213, 2023.425
1169.695, 2026.955
1170.177, 2020.255
1170.659, 2016.593
1171.141, 2024.322
1171.623, 2038.221
1172.106, 2037.487
1172.588, 2025.819
1173.070, 2018.048
1173.552, 2026.874
1174.034, 2028.419
1174.516, 1997.600
1174.998, 1969.110
1175.480, 1974.653
1175.963, 2012.032
1176.445, 2028.736
1176.927, 2026.341
1177.409, 2024.713
1177.891, 2041.455
1178.373, 2055.741
1178.855, 2056.915
1179.337, 2048.946
1179.819, 2035.575
1180.302, 2016.667
1180.784, 2000.668
1181.266, 1987.949
1181.748, 1984.019
1182.230, 2003.587
1182.712, 2023.984
1183.194, 2022.893
1183.676, 2037.308
1184.158, 2047.148
1184.641, 2042.875
1185.123, 2058.456
1185.605, 2048.348
1186.087, 2034.564
1186.569, 2038.081
1187.051, 2048.592
1187.533, 2057.907
1188.015, 2065.537
1188.498, 2059.933
1188.980, 2038.483
1189.462, 2024.165
1189.944, 2029.942
1190.426, 2042.139
1190.908, 2047.652
1191.390, 2047.983
1191.872, 2044.139
1192.354, 2031.618
1192.837, 2030.861
1193.319, 2043.665
1193.801, 2059.458
1194.283, 2075.833
1194.765, 2087.613
1195.247, 2082.397
1195.729, 2067.252
1196.211, 2061.515
1196.693, 2076.683
1197.176, 2080.183
1197.658, 2066.350
1198.140, 2052.906
1198.622, 2064.262
1199.104, 2083.439
1199.586, 2081.424
1200.068, 2060.553
1200.550, 2051.263
1201.033, 2067.839
1201.515, 2075.657
1201.997, 2065.161
1202.479, 2052.052
1202.961, 2065.577
1203.443, 2088.952
1203.925, 2092.170
1204.407, 2069.958
1204.890, 2051.031
1205.372, 2035.834
1205.854, 2033.809
1206.336, 2053.729
1206.818, 2080.427
1207.300, 2077.275
1207.782, 2059.243
1208.264, 2057.763
1208.746, 2086.726
1209.229, 2109.082
1209.711, 2121.501
1210.193, 2123.484
1210.675, 2109.507
1211.157, 2088.668
1211.639, 2086.295
1212.121, 2095.693
1212.603, 2099.059
1213.085, 2083.062
1213.568, 2073.383
1214.050, 2076.063
1214.532, 2079.834
1215.014, 2071.667
1215.496, 2078.139
1215.978, 2064.140
1216.460, 2084.449
1216.942, 2100.985
1217.425, 2106.987
1217.907, 2106.010
1218.389, 2096.134
1218.871, 2084.647
1219.353, 2080.309
1219.835, 2081.128
1220.317, 2081.718
1220.799, 2081.840
1221.281, 2082.932
1221.764, 2086.750
1222.246, 2090.055
1222.728, 2091.752
1223.210, 2093.161
1223.692, 2099.162
1224.174, 2106.203
1224.656, 2102.767
1225.138, 2086.823
1225.620, 2073.219
1226.103, 2062.809
1226.585, 2063.196
1227.067, 2081.378
1227.549, 2106.579
1228.031, 2113.065
1228.513, 2106.972
1228.995, 2103.909
1229.477, 2106.799
1229.960, 2116.057
1230.442, 2141.402
1230.924, 2159.610
1231.406, 2157.837
1231.888, 2143.446
1232.370, 2134.362
1232.852, 2130.208
1233.334, 2130.646
1233.816, 2141.233
1234.299, 2142.258
1234.781, 2122.444
1235.263, 2104.363
1235.745, 2104.104
1236.227, 2116.361
1236.709, 2128.711
1237.191, 2139.238
1237.673, 2141.777
1238.156, 2121.847
1238.638, 2111.951
1239.120, 2118.529
1239.602, 2130.627
1240.084, 2139.268
1240.566, 2145.501
1241.048, 2156.211
1241.530, 2167.968
1242.012, 2165.972
1242.495, 2117.569
1242.977, 2096.910
1243.459, 2123.985
1243.941, 2161.466
1244.423, 2164.864
1244.905, 2147.381
1245.387, 2135.940
1245.869, 2131.999
1246.351, 2131.267
1246.834, 2132.313
1247.316, 2137.645
1247.798, 2149.494
1248.280, 2161.960
1248.762, 2167.052
1249.244, 2166.969
1249.726, 2164.148
1250.208, 2159.021
1250.691, 2158.684
1251.173, 2165.340
1251.655, 2175.365
1252.137, 2190.601
1252.619, 2203.113
1253.101, 2197.842
1253.583, 2182.637
1254.065, 2168.148
1254.547, 2155.185
1255.030, 2152.038
1255.512, 2159.304
1255.994, 2177.010
1256.476, 2213.031
1256.958, 2244.262
1257.440, 2224.212
1257.922, 2180.698
1258.404, 2154.035
1258.886, 2154.613
1259.369, 2162.925
1259.851, 2181.053
1260.333, 2197.243
1260.815, 2206.806
1261.297, 2210.623
1261.779, 2210.310
1262.261, 2205.019
1262.743, 2191.745
1263.226, 2166.159
1263.708, 2150.240
1264.190, 2144.726
1264.672, 2144.081
1265.154, 2146.152
1265.636, 2150.444
1266.118, 2157.344
1266.600, 2165.813
1267.083, 2175.581
1267.565, 2190.734
1268.047, 2184.495
1268.529, 2154.652
1269.011, 2135.783
1269.493, 2167.227
1269.975, 2202.871
1270.457, 2200.807
1270.939, 2180.375
1271.422, 2180.174
1271.904, 2204.597
1272.386, 2207.734
1272.868, 2188.009
1273.350, 2169.132
1273.832, 2163.833
1274.314, 2168.908
1274.796, 2190.363
1275.278, 2217.270
1275.761, 2234.194
1276.243, 2241.101
1276.725, 2233.239
1277.207, 2210.740
1277.689, 2191.928
1278.171, 2188.469
1278.653, 2191.495
1279.135, 2197.348
1279.618, 2206.448
1280.100, 2225.792
1280.582, 2250.734
1281.064, 2251.545
1281.546, 2225.388
1282.028, 2202.780
1282.510, 2198.845
1282.992, 2203.737
1283.474, 2218.890
1283.957, 2234.153
1284.439, 2226.570
1284.921, 2204.939
1285.403, 2192.105
1285.885, 2191.299
1286.367, 2201.391
1286.849, 2239.429
1287.331, 2258.825
1287.813, 2240.035
1288.296, 2208.403
1288.778, 2205.150
1289.260, 2221.855
1289.742, 2249.368
1290.224, 2288.323
1290.706, 2303.017
1291.188, 2282.505
1291.670, 2261.759
1292.153, 2251.552
1292.635, 2247.455
1293.117, 2245.551
1293.599, 2244.313
1294.081, 2241.073
1294.563, 2234.878
1295.045, 2232.638
1295.527, 2234.815
1296.010, 2238.659
1296.492, 2244.343
1296.974, 2248.478
1297.456, 2245.894
1297.938, 2240.569
1298.420, 2236.969
1298.902, 2235.236
1299.384, 2230.626
1299.866, 2223.179
1300.349, 2225.417
1300.831, 2246.529
1301.313, 2268.257
1301.795, 2282.101
##END=



