##NAMES=Jarosite
##RRUFFID=R060236
##IDEAL CHEMISTRY=KFe^3+^_3_(S^6+^O_4_)_2_(OH)_6_
##LOCALITY=Gold Hill, Tooele County, Utah, USA
##OWNER=RRUFF
##SOURCE=Michael Scott
##DESCRIPTION=Spherical groups of brown bladed crystals
##STATUS=The identification of this mineral has been confirmed by single-crystal X-ray diffraction.
##URL=rruff.info/R060236
91.82715, 103.1965
92.30927, 102.1931
92.79138, 102.3767
93.27350, 102.7905
93.75562, 103.1424
94.23773, 103.9482
94.71985, 105.1997
95.20197, 105.6120
95.68408, 104.6084
96.16620, 102.8115
96.64832, 100.8134
97.13043, 98.68374
97.61255, 96.50898
98.09467, 94.31300
98.57678, 91.91634
99.05890, 89.76497
99.54102, 88.30886
100.0231, 87.26647
100.5052, 86.38296
100.9874, 85.52222
101.4695, 84.67231
101.9516, 83.84779
102.4337, 82.71648
102.9158, 81.93360
103.3979, 81.65234
103.8801, 81.78638
104.3622, 82.20728
104.8443, 82.85047
105.3264, 83.76157
105.8085, 84.34435
106.2906, 84.64992
106.7728, 84.65199
107.2549, 84.31419
107.7370, 83.64282
108.2191, 82.68919
108.7012, 81.42009
109.1833, 79.80415
109.6655, 78.30685
110.1476, 76.85461
110.6297, 75.58463
111.1118, 74.69170
111.5939, 74.22544
112.0760, 74.17404
112.5582, 74.53471
113.0403, 75.26855
113.5224, 76.19306
114.0045, 77.17999
114.4866, 78.23879
114.9687, 79.47806
115.4509, 80.76479
115.9330, 82.40296
116.4151, 84.63631
116.8972, 87.48768
117.3793, 90.74204
117.8614, 94.24712
118.3436, 98.26084
118.8257, 101.8329
119.3078, 105.0014
119.7899, 107.7223
120.2720, 109.9276
120.7541, 111.5931
121.2363, 112.7873
121.7184, 113.7152
122.2005, 114.1353
122.6826, 114.5059
123.1647, 114.6954
123.6468, 114.8782
124.1290, 115.2819
124.6111, 116.0413
125.0932, 117.1405
125.5753, 118.4513
126.0574, 119.7739
126.5395, 121.4296
127.0217, 123.8065
127.5038, 126.7613
127.9859, 129.5434
128.4680, 131.5069
128.9501, 132.8129
129.4323, 134.5408
129.9144, 137.1724
130.3965, 140.0261
130.8786, 142.4746
131.3607, 144.4997
131.8428, 146.1049
132.3250, 146.9259
132.8071, 147.3365
133.2892, 147.9887
133.7713, 149.1004
134.2534, 150.6563
134.7355, 152.6584
135.2176, 155.3087
135.6998, 158.1781
136.1819, 161.6561
136.6640, 165.2566
137.1461, 167.8515
137.6282, 168.9170
138.1103, 168.5697
138.5925, 165.3275
139.0746, 157.3638
139.5567, 147.8839
140.0388, 137.0229
140.5209, 125.3932
141.0030, 114.1545
141.4852, 104.6731
141.9673, 97.24895
142.4494, 91.11534
142.9315, 86.45263
143.4136, 82.68580
143.8957, 79.51373
144.3779, 76.84968
144.8600, 74.60041
145.3421, 72.62645
145.8242, 70.92740
146.3063, 69.57856
146.7884, 68.76536
147.2706, 68.24315
147.7527, 67.69370
148.2348, 66.99044
148.7169, 66.27940
149.1990, 65.87138
149.6811, 65.75591
150.1633, 65.79801
150.6454, 65.99934
151.1275, 66.33009
151.6096, 66.71173
152.0917, 67.17940
152.5738, 67.61504
153.0560, 67.85831
153.5381, 67.86952
154.0202, 67.80925
154.5023, 67.81501
154.9844, 67.89217
155.4665, 67.90762
155.9487, 67.59519
156.4308, 67.31689
156.9129, 67.37493
157.3950, 67.85481
157.8771, 68.61839
158.3592, 69.47062
158.8414, 70.38368
159.3235, 71.46889
159.8056, 72.85444
160.2877, 74.34776
160.7698, 75.80191
161.2519, 77.14944
161.7341, 78.41392
162.2162, 79.64697
162.6983, 80.80640
163.1804, 81.99782
163.6625, 83.27746
164.1446, 84.58646
164.6268, 85.83019
165.1089, 86.95689
165.5910, 87.99455
166.0731, 89.15878
166.5552, 90.49494
167.0373, 91.90795
167.5195, 93.47868
168.0016, 95.11749
168.4837, 96.69650
168.9658, 98.15144
169.4479, 99.46994
169.9300, 100.3951
170.4122, 100.5576
170.8943, 100.7655
171.3764, 101.4067
171.8585, 102.4314
172.3406, 103.5395
172.8227, 104.4607
173.3049, 105.2738
173.7870, 106.4950
174.2691, 108.4817
174.7512, 110.6328
175.2333, 112.3965
175.7154, 113.7446
176.1976, 115.1561
176.6797, 117.1700
177.1618, 119.5147
177.6439, 121.4691
178.1260, 122.9095
178.6081, 123.8712
179.0903, 124.4443
179.5724, 124.6719
180.0545, 124.3409
180.5366, 123.3743
181.0187, 121.8110
181.5008, 119.5758
181.9830, 116.3721
182.4651, 112.5097
182.9472, 108.8948
183.4293, 105.5613
183.9114, 102.4881
184.3935, 99.60868
184.8757, 96.94141
185.3578, 94.51228
185.8399, 92.40073
186.3220, 90.57100
186.8041, 88.69090
187.2862, 86.74822
187.7684, 84.75062
188.2505, 82.44073
188.7326, 80.07113
189.2147, 78.12228
189.6968, 77.02580
190.1789, 76.80949
190.6611, 76.56888
191.1432, 76.15356
191.6253, 75.85479
192.1074, 75.78494
192.5895, 75.91898
193.0716, 76.17319
193.5538, 76.47958
194.0359, 76.84193
194.5180, 77.24055
195.0001, 77.58755
195.4822, 78.03574
195.9643, 78.59705
196.4465, 79.30434
196.9286, 80.25656
197.4107, 81.56113
197.8928, 83.27170
198.3749, 85.02977
198.8570, 86.77728
199.3392, 88.60762
199.8213, 90.50514
200.3034, 92.49766
200.7855, 94.75386
201.2676, 97.46943
201.7497, 100.6939
202.2319, 104.0577
202.7140, 107.6118
203.1961, 111.2692
203.6782, 115.0152
204.1603, 118.8737
204.6424, 122.6319
205.1246, 126.1285
205.6067, 129.3886
206.0888, 132.4277
206.5709, 135.1876
207.0530, 137.7519
207.5351, 140.2159
208.0173, 142.5894
208.4994, 144.8892
208.9815, 147.1015
209.4636, 149.2546
209.9457, 151.3958
210.4278, 153.4486
210.9100, 155.5186
211.3921, 157.8442
211.8742, 160.4185
212.3563, 163.2681
212.8384, 166.5757
213.3205, 170.1289
213.8027, 173.5432
214.2848, 176.5054
214.7669, 179.1789
215.2490, 182.1333
215.7311, 185.6117
216.2132, 189.0094
216.6953, 192.0626
217.1775, 194.8725
217.6596, 197.6665
218.1417, 200.7055
218.6238, 203.8425
219.1059, 206.1557
219.5880, 207.3278
220.0702, 207.9291
220.5523, 208.4321
221.0344, 208.5040
221.5165, 207.6486
221.9986, 205.5780
222.4807, 202.2891
222.9629, 197.7182
223.4450, 191.0830
223.9271, 183.8652
224.4092, 176.1767
224.8913, 168.1091
225.3734, 159.6809
225.8556, 150.7661
226.3377, 141.5253
226.8198, 133.1934
227.3019, 126.1820
227.7840, 119.7532
228.2661, 113.7849
228.7483, 108.3096
229.2304, 103.4901
229.7125, 99.42250
230.1946, 96.06510
230.6767, 93.08501
231.1588, 90.38635
231.6410, 88.12521
232.1231, 86.55019
232.6052, 85.43481
233.0873, 84.35509
233.5694, 83.05391
234.0515, 81.57293
234.5337, 80.21921
235.0158, 78.98360
235.4979, 77.84516
235.9800, 76.79832
236.4621, 75.84651
236.9442, 75.00596
237.4264, 74.30786
237.9085, 73.70812
238.3906, 72.99609
238.8727, 71.95767
239.3548, 71.06761
239.8369, 70.65296
240.3191, 70.52565
240.8012, 70.17727
241.2833, 69.27086
241.7654, 68.08115
242.2475, 67.41554
242.7296, 67.45113
243.2118, 67.61456
243.6939, 67.72379
244.1760, 67.77975
244.6581, 67.75877
245.1402, 67.59202
245.6223, 67.41837
246.1045, 67.53295
246.5866, 68.03904
247.0687, 68.51226
247.5508, 68.72936
248.0329, 68.73581
248.5150, 68.68678
248.9972, 68.60306
249.4793, 68.52154
249.9614, 68.56911
250.4435, 68.80915
250.9256, 68.80836
251.4077, 68.18261
251.8899, 67.06785
252.3720, 66.04117
252.8541, 65.25811
253.3362, 64.61288
253.8183, 64.01359
254.3004, 63.45934
254.7826, 62.85265
255.2647, 62.08855
255.7468, 61.20512
256.2289, 60.37868
256.7110, 59.57181
257.1931, 58.93872
257.6753, 58.57174
258.1574, 58.45591
258.6395, 58.49704
259.1216, 58.71560
259.6037, 59.07090
260.0858, 59.32489
260.5680, 59.36959
261.0501, 59.42842
261.5322, 59.59942
262.0143, 59.88597
262.4964, 60.29605
262.9785, 60.94020
263.4607, 61.75146
263.9428, 62.32747
264.4249, 62.49476
264.9070, 62.66240
265.3891, 62.97081
265.8712, 63.42318
266.3534, 64.03798
266.8355, 64.92215
267.3176, 65.96690
267.7997, 66.68226
268.2818, 66.82494
268.7639, 66.99763
269.2461, 67.39874
269.7282, 67.96928
270.2103, 68.63508
270.6924, 69.37785
271.1745, 70.16598
271.6566, 70.89642
272.1388, 71.60210
272.6209, 72.17141
273.1030, 72.31756
273.5851, 72.42650
274.0672, 73.00241
274.5493, 74.31216
275.0315, 76.02235
275.5136, 77.26894
275.9957, 77.72485
276.4778, 78.32964
276.9599, 79.32144
277.4420, 80.47648
277.9242, 81.60325
278.4063, 82.63811
278.8884, 83.61411
279.3705, 84.58244
279.8526, 85.45896
280.3347, 86.51439
280.8169, 87.81558
281.2990, 89.24306
281.7811, 90.75393
282.2632, 92.32012
282.7453, 93.86263
283.2274, 95.22932
283.7096, 96.26564
284.1917, 97.52150
284.6738, 99.32731
285.1559, 101.0844
285.6380, 102.3029
286.1201, 103.0076
286.6023, 103.7074
287.0844, 105.0520
287.5665, 107.2783
288.0486, 109.1700
288.5307, 110.4714
289.0128, 111.6894
289.4950, 113.0176
289.9771, 114.4706
290.4592, 116.0043
290.9413, 117.6496
291.4234, 119.4597
291.9055, 120.6223
292.3877, 120.5958
292.8698, 120.4774
293.3519, 120.6997
293.8340, 121.1100
294.3161, 121.2907
294.7982, 120.9119
295.2804, 120.0342
295.7625, 119.4602
296.2446, 119.9830
296.7267, 119.9540
297.2088, 118.8251
297.6909, 116.9912
298.1731, 115.0563
298.6552, 113.3621
299.1373, 111.7879
299.6194, 109.8810
300.1015, 107.4112
300.5836, 104.8587
301.0658, 102.2672
301.5479, 99.63191
302.0300, 96.89169
302.5121, 94.03690
302.9942, 91.16982
303.4763, 88.44717
303.9585, 85.77264
304.4406, 83.46856
304.9227, 81.55720
305.4048, 79.97189
305.8869, 78.73293
306.3690, 77.81399
306.8512, 77.04353
307.3333, 76.18703
307.8154, 75.20395
308.2975, 74.23988
308.7796, 73.06957
309.2617, 72.08336
309.7439, 71.65289
310.2260, 71.70518
310.7081, 71.80627
311.1902, 71.51568
311.6723, 70.75954
312.1544, 70.13081
312.6366, 69.58458
313.1187, 69.18274
313.6008, 69.06340
314.0829, 69.11732
314.5650, 69.07338
315.0471, 68.70837
315.5293, 68.06696
316.0114, 67.74644
316.4935, 68.26225
316.9756, 68.52192
317.4577, 68.05970
317.9398, 67.24821
318.4220, 66.63972
318.9041, 66.51628
319.3862, 66.77288
319.8683, 67.08575
320.3504, 67.62701
320.8326, 67.99412
321.3147, 67.99340
321.7968, 67.89693
322.2789, 67.97862
322.7610, 68.32426
323.2431, 68.81676
323.7253, 69.25690
324.2074, 69.61874
324.6895, 69.97706
325.1716, 70.24673
325.6537, 70.57632
326.1358, 71.10294
326.6180, 71.82055
327.1001, 72.58821
327.5822, 73.23548
328.0643, 73.69308
328.5464, 74.40735
329.0285, 75.58861
329.5107, 76.78880
329.9928, 77.78032
330.4749, 78.62852
330.9570, 79.54777
331.4391, 80.72262
331.9212, 82.12177
332.4034, 83.27359
332.8855, 83.92097
333.3676, 84.59758
333.8497, 85.37789
334.3318, 86.25275
334.8139, 87.20767
335.2961, 88.23044
335.7782, 89.30865
336.2603, 90.40536
336.7424, 91.87143
337.2245, 92.78966
337.7066, 92.77181
338.1888, 92.41735
338.6708, 92.23392
339.1530, 92.36473
339.6351, 92.63496
340.1172, 92.77396
340.5993, 92.69008
341.0814, 92.70916
341.5635, 92.96920
342.0457, 93.20353
342.5278, 93.21005
343.0099, 93.02586
343.4920, 92.87012
343.9741, 92.98185
344.4562, 93.38756
344.9384, 93.49165
345.4205, 93.85822
345.9026, 94.09557
346.3847, 94.21067
346.8668, 93.83733
347.3489, 94.09471
347.8311, 94.09933
348.3132, 94.09359
348.7953, 94.43974
349.2774, 94.13744
349.7595, 94.59054
350.2416, 94.69130
350.7238, 94.55498
351.2059, 94.20361
351.6880, 93.64684
352.1701, 92.93491
352.6522, 92.13421
353.1343, 91.21233
353.6165, 90.30037
354.0986, 89.61746
354.5807, 88.79036
355.0628, 87.51834
355.5449, 85.82894
356.0270, 84.05031
356.5092, 82.49876
356.9913, 81.19250
357.4734, 79.83425
357.9555, 78.35358
358.4376, 76.90376
358.9197, 75.52743
359.4019, 74.23206
359.8840, 73.02329
360.3661, 71.88074
360.8482, 70.84518
361.3303, 70.05357
361.8124, 69.61597
362.2946, 69.19235
362.7767, 68.63276
363.2588, 68.03908
363.7409, 67.50942
364.2230, 67.06938
364.7051, 66.70538
365.1873, 66.38438
365.6694, 66.09605
366.1515, 65.93748
366.6336, 66.00335
367.1157, 66.15655
367.5978, 66.28617
368.0800, 66.39256
368.5621, 66.55776
369.0442, 66.85030
369.5263, 67.25424
370.0084, 67.71633
370.4905, 68.30456
370.9727, 68.81450
371.4548, 69.05748
371.9369, 69.12501
372.4190, 69.21668
372.9011, 69.37618
373.3832, 69.61979
373.8654, 70.01134
374.3475, 70.57021
374.8296, 71.09766
375.3117, 71.46379
375.7938, 71.75198
376.2759, 72.08195
376.7581, 72.46220
377.2402, 72.89244
377.7223, 73.49486
378.2044, 74.18404
378.6865, 74.53856
379.1686, 74.31876
379.6508, 73.93208
380.1329, 73.99338
380.6150, 74.49253
381.0971, 74.71407
381.5792, 74.23241
382.0613, 73.42017
382.5435, 72.76979
383.0256, 72.33440
383.5077, 72.04043
383.9898, 71.87798
384.4719, 71.82388
384.9540, 71.68846
385.4362, 71.42268
385.9183, 71.11494
386.4004, 70.80870
386.8825, 70.50429
387.3646, 70.19761
387.8467, 69.89216
388.3289, 69.57735
388.8110, 69.21300
389.2931, 68.73537
389.7752, 68.34691
390.2573, 68.09924
390.7394, 67.95796
391.2216, 67.92048
391.7037, 67.97926
392.1858, 68.02634
392.6679, 67.90987
393.1500, 67.55896
393.6321, 67.44978
394.1143, 67.79606
394.5964, 68.16796
395.0785, 68.31453
395.5606, 68.27683
396.0427, 68.20827
396.5248, 68.19368
397.0070, 68.24898
397.4891, 68.46815
397.9712, 68.99576
398.4533, 69.51582
398.9354, 69.90129
399.4175, 70.30629
399.8997, 70.96265
400.3818, 71.92046
400.8639, 72.94953
401.3460, 73.68315
401.8281, 73.96684
402.3102, 74.38083
402.7924, 74.93728
403.2745, 75.59472
403.7566, 76.39399
404.2387, 77.28533
404.7208, 78.13656
405.2029, 78.81357
405.6851, 79.36768
406.1672, 80.19490
406.6493, 81.67669
407.1314, 82.86600
407.6135, 83.21155
408.0956, 83.32731
408.5778, 83.95258
409.0599, 85.35323
409.5420, 87.04372
410.0241, 88.23760
410.5062, 88.76836
410.9883, 89.67988
411.4705, 91.45369
411.9526, 93.38271
412.4347, 95.08404
412.9168, 96.56493
413.3989, 98.01870
413.8810, 99.51765
414.3632, 101.0844
414.8453, 102.8213
415.3274, 104.7756
415.8095, 106.7848
416.2916, 108.7566
416.7737, 110.7320
417.2559, 112.7898
417.7380, 115.0045
418.2201, 117.1920
418.7022, 119.1273
419.1843, 120.8436
419.6664, 122.6877
420.1486, 124.8401
420.6307, 127.0431
421.1128, 128.8921
421.5949, 130.4016
422.0770, 132.0464
422.5591, 134.0513
423.0413, 136.2633
423.5234, 138.5237
424.0055, 140.8072
424.4876, 143.0626
424.9697, 145.2158
425.4518, 147.2929
425.9340, 149.4685
426.4161, 151.9019
426.8982, 154.2604
427.3803, 156.2375
427.8624, 158.0405
428.3445, 160.1501
428.8267, 162.7806
429.3088, 165.5921
429.7909, 168.0076
430.2730, 169.8906
430.7551, 171.6315
431.2372, 173.5527
431.7194, 175.0853
432.2015, 175.7537
432.6836, 175.5943
433.1657, 175.0007
433.6478, 174.3000
434.1299, 173.4605
434.6121, 172.0020
435.0942, 169.2580
435.5763, 166.6413
436.0584, 164.4550
436.5405, 162.4789
437.0226, 160.4789
437.5048, 158.3700
437.9869, 156.1249
438.4690, 153.6431
438.9511, 150.7742
439.4332, 148.1654
439.9153, 145.7200
440.3975, 143.6213
440.8796, 142.0670
441.3617, 140.9526
441.8438, 140.0027
442.3259, 139.0250
442.8080, 138.0928
443.2902, 137.5232
443.7723, 137.4637
444.2544, 137.3937
444.7365, 136.9618
445.2186, 136.5262
445.7007, 136.4409
446.1829, 136.7840
446.6650, 137.3092
447.1471, 137.8821
447.6292, 138.4762
448.1113, 138.9801
448.5934, 139.4420
449.0756, 139.6729
449.5577, 139.4393
450.0398, 138.8446
450.5219, 138.1374
451.0040, 137.7017
451.4861, 136.9491
451.9683, 135.2969
452.4504, 132.7962
452.9325, 129.7898
453.4146, 126.3777
453.8967, 122.6128
454.3788, 118.5556
454.8610, 114.2165
455.3431, 109.7220
455.8252, 104.7418
456.3073, 99.82182
456.7894, 95.43945
457.2715, 91.69704
457.7537, 88.57996
458.2358, 86.08740
458.7179, 84.21664
459.2000, 82.78183
459.6821, 82.53197
460.1642, 81.78407
460.6464, 79.58659
461.1285, 76.76343
461.6106, 74.50639
462.0927, 73.25443
462.5748, 72.53967
463.0569, 71.56271
463.5391, 70.10845
464.0212, 68.99751
464.5033, 68.64811
464.9854, 68.23162
465.4675, 67.20912
465.9496, 65.78190
466.4318, 64.52724
466.9139, 63.84446
467.3960, 63.55875
467.8781, 63.11809
468.3602, 62.46461
468.8423, 61.80239
469.3245, 61.12234
469.8066, 60.49537
470.2887, 60.02929
470.7708, 59.73308
471.2529, 59.40614
471.7350, 58.80795
472.2172, 58.03807
472.6993, 57.51063
473.1814, 57.32178
473.6635, 57.19603
474.1456, 56.92638
474.6277, 56.57607
475.1099, 56.28709
475.5920, 56.08381
476.0741, 55.94529
476.5562, 55.95760
477.0383, 56.03281
477.5204, 55.85347
478.0026, 55.26747
478.4847, 54.59011
478.9668, 54.30544
479.4489, 54.53027
479.9310, 54.56806
480.4131, 54.30630
480.8953, 53.91198
481.3774, 53.41000
481.8595, 52.86465
482.3416, 52.45345
482.8237, 52.29881
483.3058, 52.29155
483.7880, 52.04985
484.2701, 51.31327
484.7522, 50.71040
485.2343, 50.32756
485.7164, 50.03037
486.1985, 49.74329
486.6807, 49.44017
487.1628, 49.10114
487.6449, 48.68984
488.1270, 48.21537
488.6091, 47.81974
489.0912, 47.59431
489.5734, 47.29785
490.0555, 46.81794
490.5376, 46.25618
491.0197, 45.72254
491.5018, 45.24759
491.9839, 44.80183
492.4661, 44.36948
492.9482, 43.94612
493.4303, 43.49588
493.9124, 42.97890
494.3945, 42.50220
494.8766, 42.23668
495.3588, 42.08788
495.8409, 41.79325
496.3230, 41.15333
496.8051, 40.47160
497.2872, 40.03168
497.7693, 39.77306
498.2515, 39.45496
498.7336, 38.96923
499.2157, 38.44532
499.6978, 38.09824
500.1799, 37.98671
500.6620, 37.82896
501.1442, 37.53394
501.6263, 37.24959
502.1084, 36.79117
502.5905, 36.92974
503.0726, 36.93912
503.5547, 36.82624
504.0368, 36.22493
504.5190, 36.25429
505.0011, 36.03093
505.4832, 35.79720
505.9653, 35.91536
506.4474, 35.38509
506.9295, 35.49767
507.4117, 35.35360
507.8938, 35.32701
508.3759, 35.04611
508.8580, 34.84375
509.3401, 34.89580
509.8222, 34.80698
510.3044, 34.49675
510.7865, 34.25662
511.2686, 34.14861
511.7507, 33.93665
512.2328, 33.59282
512.7150, 33.26931
513.1971, 33.08551
513.6792, 33.01028
514.1613, 32.93551
514.6434, 32.83263
515.1255, 32.81748
515.6077, 33.06561
516.0898, 33.47934
516.5719, 33.63854
517.0540, 33.34930
517.5361, 33.02131
518.0182, 32.76941
518.5004, 32.61882
518.9825, 32.62611
519.4646, 32.80544
519.9467, 33.10506
520.4288, 33.49701
520.9109, 34.03406
521.3931, 34.29615
521.8752, 34.11464
522.3573, 33.89201
522.8394, 33.70712
523.3215, 33.58973
523.8036, 33.57736
524.2858, 33.68346
524.7679, 33.86188
525.2500, 34.03358
525.7321, 34.18535
526.2142, 34.39767
526.6964, 34.74553
527.1785, 35.07854
527.6606, 35.26402
528.1427, 35.38546
528.6248, 35.65574
529.1069, 36.25795
529.5891, 36.88631
530.0712, 37.06173
530.5533, 36.81446
531.0354, 36.64922
531.5175, 36.66938
531.9996, 36.87634
532.4818, 37.40887
532.9639, 38.23231
533.4460, 38.80931
533.9281, 38.76292
534.4102, 38.65461
534.8923, 38.99129
535.3745, 39.65794
535.8566, 40.21514
536.3387, 40.44662
536.8208, 40.50535
537.3029, 40.69949
537.7850, 41.09912
538.2672, 41.50346
538.7493, 41.91590
539.2314, 42.32815
539.7135, 42.75621
540.1956, 43.18251
540.6777, 43.55985
541.1599, 43.85077
541.6420, 44.10974
542.1241, 44.47224
542.6062, 44.95094
543.0883, 45.50123
543.5704, 46.26622
544.0526, 46.97211
544.5347, 47.43827
545.0168, 47.68385
545.4989, 47.83208
545.9810, 47.84642
546.4631, 47.86069
546.9453, 48.15958
547.4274, 48.73248
547.9095, 49.13974
548.3916, 49.10204
548.8737, 48.92842
549.3558, 49.24420
549.8380, 50.14048
550.3201, 50.80458
550.8022, 50.84069
551.2843, 50.77301
551.7664, 51.05775
552.2485, 51.64007
552.7307, 52.21508
553.2128, 52.61502
553.6949, 52.87953
554.1770, 53.11354
554.6591, 53.24669
555.1412, 53.47902
555.6234, 53.84486
556.1055, 54.27164
556.5876, 54.75309
557.0697, 55.26160
557.5518, 55.74421
558.0339, 56.18452
558.5161, 56.55712
558.9982, 56.75294
559.4803, 56.72012
559.9624, 56.82436
560.4445, 57.21507
560.9266, 57.73500
561.4088, 58.31104
561.8909, 58.91901
562.3730, 59.31178
562.8551, 59.29297
563.3372, 59.08949
563.8193, 58.83744
564.3015, 58.58518
564.7836, 58.59407
565.2657, 59.04369
565.7478, 59.61451
566.2299, 59.68933
566.7120, 58.94033
567.1942, 58.48575
567.6763, 58.53170
568.1584, 58.68015
568.6405, 58.81426
569.1226, 58.85668
569.6047, 58.68684
570.0869, 58.23691
570.5690, 57.60468
571.0511, 57.01226
571.5332, 56.50553
572.0153, 55.83807
572.4974, 54.87291
572.9796, 53.85028
573.4617, 52.84637
573.9438, 51.88362
574.4259, 51.02908
574.9080, 50.40364
575.3901, 49.75734
575.8723, 48.72919
576.3544, 47.39579
576.8365, 46.18262
577.3186, 45.22694
577.8007, 44.36886
578.2828, 43.42668
578.7650, 42.39295
579.2471, 41.45998
579.7292, 40.70294
580.2113, 39.97710
580.6934, 39.15856
581.1755, 38.33959
581.6577, 37.66900
582.1398, 37.19948
582.6219, 36.85180
583.1040, 36.55257
583.5861, 36.32922
584.0682, 35.93689
584.5504, 35.24792
585.0325, 34.52976
585.5145, 33.77905
585.9966, 33.08173
586.4788, 32.55009
586.9609, 32.21576
587.4430, 31.99882
587.9251, 31.88213
588.4072, 31.82696
588.8893, 31.67903
589.3715, 31.41385
589.8536, 31.08932
590.3357, 30.69674
590.8178, 30.28156
591.2999, 29.99802
591.7820, 29.92761
592.2642, 29.83492
592.7463, 29.59461
593.2284, 29.32405
593.7105, 29.16437
594.1926, 29.12213
594.6747, 29.10669
595.1569, 29.04675
595.6390, 28.95620
596.1211, 28.91271
596.6032, 28.96073
597.0853, 28.97815
597.5674, 28.98300
598.0496, 28.93135
598.5317, 28.71957
599.0138, 28.39964
599.4959, 28.19413
599.9780, 28.28844
600.4601, 28.55277
600.9423, 28.74908
601.4244, 28.87665
601.9065, 28.99949
602.3886, 29.12717
602.8707, 29.27570
603.3528, 29.47971
603.8350, 29.74032
604.3171, 29.97924
604.7992, 30.14369
605.2813, 30.32526
605.7634, 30.53778
606.2455, 30.81928
606.7277, 31.23575
607.2098, 31.81023
607.6919, 32.53755
608.1740, 33.42449
608.6561, 34.51174
609.1382, 35.53929
609.6204, 36.60053
610.1025, 37.48167
610.5846, 37.99964
611.0667, 38.34563
611.5488, 38.77936
612.0309, 39.37738
612.5131, 39.98966
612.9952, 40.42181
613.4773, 40.75433
613.9594, 41.26793
614.4415, 42.00436
614.9236, 42.79722
615.4058, 43.51926
615.8879, 44.24088
616.3700, 45.21031
616.8521, 46.58850
617.3342, 47.86230
617.8163, 48.80758
618.2985, 49.70043
618.7806, 50.74422
619.2627, 51.96463
619.7448, 53.38081
620.2269, 55.03778
620.7090, 56.75551
621.1912, 57.99134
621.6733, 58.63822
622.1554, 59.12893
622.6375, 59.85410
623.1196, 60.08707
623.6017, 59.40172
624.0839, 57.89913
624.5660, 55.86030
625.0481, 53.26476
625.5302, 50.39394
626.0123, 47.34918
626.4944, 44.26090
626.9766, 41.66162
627.4587, 39.68553
627.9408, 38.00663
628.4229, 36.23370
628.9050, 34.38742
629.3871, 33.23878
629.8693, 33.25999
630.3514, 33.26796
630.8335, 32.96633
631.3156, 32.55735
631.7977, 32.23991
632.2798, 32.04837
632.7620, 31.91709
633.2441, 31.79576
633.7262, 31.68829
634.2083, 31.63519
634.6904, 31.67316
635.1725, 31.60926
635.6547, 31.26521
636.1368, 30.90777
636.6189, 30.84918
637.1010, 31.06570
637.5831, 31.19944
638.0652, 31.07363
638.5474, 30.88025
639.0295, 30.72480
639.5116, 30.63171
639.9937, 30.71345
640.4758, 31.00892
640.9579, 31.26088
641.4401, 31.10733
641.9222, 30.48970
642.4043, 30.01567
642.8864, 29.85497
643.3685, 29.64196
643.8506, 29.27197
644.3328, 28.82878
644.8149, 28.40016
645.2970, 28.00442
645.7791, 27.60830
646.2612, 27.11431
646.7433, 26.61788
647.2255, 26.43768
647.7076, 26.59501
648.1897, 26.61399
648.6718, 26.24431
649.1539, 25.69020
649.6360, 25.27771
650.1182, 25.00390
650.6003, 24.86189
651.0824, 25.06782
651.5645, 25.19040
652.0466, 24.86129
652.5287, 24.30360
653.0109, 23.95074
653.4930, 23.95358
653.9751, 24.08217
654.4572, 23.98677
654.9393, 23.65564
655.4214, 23.63656
655.9036, 24.14003
656.3857, 24.54036
656.8678, 24.42991
657.3499, 24.12158
657.8320, 23.96883
658.3141, 24.02534
658.7963, 24.04578
659.2784, 23.85614
659.7605, 23.61777
660.2426, 23.54305
660.7247, 23.59728
661.2068, 23.58146
661.6890, 23.39667
662.1711, 23.12979
662.6532, 22.91805
663.1353, 22.71644
663.6174, 22.72861
664.0995, 23.28028
664.5817, 23.68971
665.0638, 23.60921
665.5459, 23.31137
666.0280, 23.18772
666.5101, 23.34412
666.9922, 23.54034
667.4744, 23.59057
667.9565, 23.52449
668.4386, 23.38652
668.9207, 23.17893
669.4028, 23.00790
669.8849, 22.93774
670.3671, 22.92443
670.8492, 22.87110
671.3313, 22.72585
671.8134, 22.68420
672.2955, 22.84263
672.7776, 23.01214
673.2598, 23.10996
673.7419, 23.14381
674.2240, 23.15082
674.7061, 23.14277
675.1882, 23.07458
675.6703, 22.81691
676.1525, 22.40771
676.6346, 22.25253
677.1167, 22.42235
677.5988, 22.64106
678.0809, 22.80263
678.5630, 22.91528
679.0452, 22.98944
679.5273, 23.01577
680.0094, 23.05634
680.4915, 23.18832
680.9736, 23.28510
681.4557, 23.20298
681.9379, 23.01309
682.4200, 22.90771
682.9021, 22.96263
683.3842, 23.03710
683.8663, 22.86888
684.3484, 22.41926
684.8306, 22.34606
685.3127, 22.91796
685.7948, 23.38830
686.2769, 23.35236
686.7590, 23.10954
687.2411, 22.95162
687.7233, 22.90930
688.2054, 22.93419
688.6875, 23.07581
689.1696, 23.22233
689.6517, 23.22778
690.1339, 23.13117
690.6160, 23.07464
691.0981, 23.11530
691.5802, 23.20877
692.0623, 23.31209
692.5444, 23.44509
693.0266, 23.40580
693.5087, 22.97551
693.9908, 22.67201
694.4729, 22.70200
694.9550, 22.87253
695.4371, 23.00578
695.9193, 23.07312
696.4014, 23.10465
696.8835, 23.07432
697.3656, 23.04578
697.8477, 23.15669
698.3298, 23.36295
698.8120, 23.40963
699.2941, 23.18973
699.7762, 22.95084
700.2583, 23.04343
700.7404, 23.51639
701.2225, 23.70282
701.7047, 23.22879
702.1868, 22.92573
702.6689, 23.08055
703.1510, 23.37777
703.6331, 23.51648
704.1152, 23.47510
704.5974, 23.43003
705.0795, 23.52509
705.5616, 23.65595
706.0437, 23.63474
706.5258, 23.48714
707.0079, 23.37678
707.4901, 23.34929
707.9722, 23.36815
708.4543, 23.39898
708.9364, 23.44174
709.4185, 23.50026
709.9006, 23.56899
710.3828, 23.66011
710.8649, 23.82240
711.3470, 23.97288
711.8291, 24.01715
712.3112, 23.97755
712.7933, 23.97004
713.2755, 24.08795
713.7576, 24.22280
714.2397, 24.16227
714.7218, 23.94499
715.2039, 23.86686
715.6860, 24.01158
716.1682, 24.16462
716.6503, 24.14422
717.1324, 23.98616
717.6145, 23.89084
718.0966, 23.89650
718.5787, 23.90628
719.0609, 23.85003
719.5430, 23.84927
720.0251, 24.04766
720.5072, 24.37060
720.9893, 24.63737
721.4714, 24.76761
721.9536, 24.77625
722.4357, 24.60141
722.9178, 24.29579
723.3999, 24.21177
723.8820, 24.41770
724.3641, 24.62190
724.8463, 24.64971
725.3284, 24.56016
725.8105, 24.49858
726.2926, 24.47112
726.7747, 24.45431
727.2568, 24.40006
727.7390, 24.40310
728.2211, 24.61177
728.7032, 24.88331
729.1853, 24.96155
729.6674, 24.76912
730.1495, 24.49522
730.6317, 24.27772
731.1138, 24.14126
731.5959, 24.23041
732.0780, 24.56693
732.5601, 24.83311
733.0422, 24.88284
733.5244, 24.83490
734.0065, 24.86386
734.4886, 24.99164
734.9707, 25.05986
735.4528, 25.02648
735.9349, 24.98442
736.4171, 24.94571
736.8992, 24.92652
737.3813, 24.94452
737.8634, 25.00069
738.3455, 25.08443
738.8276, 25.21447
739.3098, 25.34072
739.7919, 25.33012
740.2740, 25.19493
740.7561, 25.11386
741.2382, 25.12210
741.7203, 25.23356
742.2025, 25.50983
742.6846, 25.92110
743.1667, 26.13493
743.6488, 26.03913
744.1309, 25.91947
744.6130, 25.72791
745.0952, 25.58942
745.5773, 25.64444
746.0594, 25.83130
746.5415, 25.96735
747.0236, 25.95753
747.5057, 25.91262
747.9879, 25.96724
748.4700, 26.09917
748.9521, 26.23902
749.4342, 26.38198
749.9163, 26.47717
750.3984, 26.48117
750.8806, 26.44009
751.3627, 26.45463
751.8448, 26.51710
752.3269, 26.66046
752.8090, 26.97884
753.2911, 27.26666
753.7733, 27.41699
754.2554, 27.50063
754.7375, 27.63313
755.2196, 27.83445
755.7017, 27.98553
756.1838, 27.94551
756.6660, 27.82690
757.1481, 27.82281
757.6302, 27.91750
758.1123, 28.00655
758.5944, 28.05500
759.0765, 28.09847
759.5587, 28.16743
760.0408, 28.26318
760.5229, 28.46245
761.0050, 28.91411
761.4871, 29.24374
761.9692, 29.29913
762.4514, 29.31054
762.9335, 29.44818
763.4156, 29.68814
763.8977, 29.90292
764.3798, 30.01377
764.8619, 30.14551
765.3441, 30.43422
765.8262, 30.80310
766.3083, 31.11082
766.7904, 31.34497
767.2725, 31.55614
767.7546, 31.76803
768.2368, 32.01367
768.7189, 32.38153
769.2010, 32.92363
769.6831, 33.40155
770.1652, 33.84047
770.6473, 34.17605
771.1295, 34.25949
771.6116, 34.28898
772.0937, 34.51760
772.5758, 34.97923
773.0579, 35.51581
773.5400, 36.18459
774.0222, 36.79575
774.5043, 37.08489
774.9864, 37.22959
775.4685, 37.58170
775.9506, 38.23297
776.4327, 39.04812
776.9149, 39.92603
777.3970, 40.83938
777.8791, 41.60874
778.3612, 42.17796
778.8433, 42.95120
779.3254, 44.09711
779.8076, 45.33839
780.2897, 46.42509
780.7718, 47.40695
781.2539, 48.44857
781.7360, 49.48248
782.2181, 50.70425
782.7003, 52.19996
783.1824, 53.86613
783.6645, 55.71941
784.1466, 57.65905
784.6287, 59.45934
785.1108, 61.02641
785.5930, 62.58146
786.0751, 64.37575
786.5572, 66.38708
787.0393, 68.54433
787.5214, 70.83469
788.0035, 73.20521
788.4857, 75.60674
788.9678, 78.11829
789.4499, 80.83749
789.9320, 83.77814
790.4141, 86.86389
790.8962, 90.31198
791.3784, 93.62380
791.8605, 96.49038
792.3426, 99.33778
792.8247, 102.5971
793.3068, 106.2369
793.7889, 109.9835
794.2711, 113.8259
794.7532, 117.5059
795.2353, 120.8380
795.7174, 123.8249
796.1995, 126.4092
796.6816, 128.6111
797.1638, 130.6068
797.6459, 132.5167
798.1280, 134.2714
798.6101, 135.7333
799.0922, 136.9670
799.5743, 137.6299
800.0565, 137.5993
800.5386, 137.1988
801.0207, 136.4001
801.5028, 135.3947
801.9849, 134.3379
802.4670, 133.2307
802.9492, 132.2816
803.4313, 131.7713
803.9134, 131.2046
804.3955, 130.1220
804.8776, 128.8715
805.3597, 128.0522
805.8419, 127.6841
806.3240, 127.1895
806.8061, 126.1009
807.2882, 124.6936
807.7703, 123.6546
808.2524, 122.9468
808.7346, 121.8666
809.2167, 120.2915
809.6988, 118.4147
810.1809, 116.3581
810.6630, 114.1049
811.1451, 111.6248
811.6273, 108.8091
812.1094, 106.0298
812.5915, 103.3590
813.0736, 100.6557
813.5557, 97.89951
814.0378, 95.07912
814.5200, 92.13577
815.0021, 89.09122
815.4842, 86.19428
815.9663, 83.69543
816.4484, 81.36130
816.9305, 78.86520
817.4127, 76.34016
817.8948, 74.15336
818.3769, 72.36353
818.8590, 70.75845
819.3411, 69.17766
819.8232, 67.64272
820.3054, 66.25437
820.7875, 65.04629
821.2696, 63.77917
821.7517, 62.29981
822.2338, 60.97490
822.7159, 60.06992
823.1981, 59.43736
823.6802, 58.83994
824.1623, 58.27330
824.6444, 57.73912
825.1265, 57.20611
825.6086, 56.74381
826.0908, 56.40239
826.5729, 56.15095
827.0550, 55.96045
827.5371, 55.81522
828.0192, 55.68545
828.5013, 55.56785
828.9835, 55.42921
829.4656, 55.32178
829.9477, 55.16673
830.4298, 54.52467
830.9119, 53.30966
831.3940, 51.90688
831.8762, 50.53955
832.3583, 49.24646
832.8404, 48.14973
833.3225, 47.41270
833.8046, 46.39074
834.2867, 44.77555
834.7689, 43.28504
835.2510, 42.23369
835.7331, 41.40508
836.2152, 40.55643
836.6973, 39.66845
837.1794, 38.80939
837.6616, 37.90840
838.1437, 37.13923
838.6258, 36.69458
839.1079, 36.39877
839.5900, 35.99234
840.0721, 35.47118
840.5543, 35.02280
841.0364, 34.76489
841.5185, 34.64097
842.0006, 34.63319
842.4827, 34.70006
842.9648, 34.49029
843.4470, 33.94044
843.9291, 33.57020
844.4112, 33.70262
844.8933, 34.01683
845.3754, 33.95438
845.8575, 33.42802
846.3397, 33.07414
846.8218, 32.96550
847.3039, 32.93623
847.7860, 32.94468
848.2681, 33.02463
848.7502, 33.31010
849.2324, 33.71119
849.7145, 33.84693
850.1966, 33.39500
850.6787, 33.03975
851.1608, 33.24944
851.6429, 33.70675
852.1251, 34.11046
852.6072, 34.42789
853.0893, 34.66307
853.5714, 34.82024
854.0535, 35.00462
854.5356, 35.42627
855.0178, 35.99178
855.4999, 36.21772
855.9820, 36.09494
856.4641, 35.99646
856.9462, 36.00523
857.4283, 36.19248
857.9105, 36.69863
858.3926, 37.45289
858.8747, 37.88279
859.3568, 37.74367
859.8389, 37.70677
860.3210, 37.74743
860.8032, 37.95801
861.2853, 38.52583
861.7674, 39.24320
862.2495, 39.73085
862.7316, 39.89510
863.2137, 40.14858
863.6959, 40.82938
864.1780, 41.50535
864.6601, 41.71110
865.1422, 41.73320
865.6243, 42.11910
866.1064, 42.91270
866.5886, 43.65462
867.0707, 43.99889
867.5528, 44.12679
868.0349, 44.34504
868.5170, 44.64168
868.9991, 44.97935
869.4813, 45.35995
869.9634, 45.60262
870.4455, 45.58418
870.9276, 45.43867
871.4097, 45.39217
871.8918, 45.42987
872.3740, 45.67982
872.8561, 46.30531
873.3382, 46.88214
873.8203, 47.16828
874.3024, 47.46838
874.7845, 48.10405
875.2667, 48.98501
875.7488, 49.67273
876.2309, 49.95564
876.7130, 50.25581
877.1951, 50.84099
877.6772, 51.39721
878.1594, 51.50663
878.6415, 51.40496
879.1236, 51.61986
879.6057, 52.31522
880.0878, 53.20851
880.5699, 54.14066
881.0521, 55.04185
881.5342, 55.78262
882.0163, 56.37786
882.4984, 56.81897
882.9805, 57.11666
883.4626, 57.59192
883.9448, 58.53979
884.4269, 59.74226
884.9090, 60.54325
885.3911, 60.87364
885.8732, 61.20708
886.3553, 61.60405
886.8375, 61.93003
887.3196, 62.20116
887.8017, 62.30617
888.2838, 61.98781
888.7659, 61.19275
889.2480, 60.65895
889.7302, 60.65137
890.2123, 60.57766
890.6944, 60.39947
891.1765, 60.01028
891.6586, 59.23505
892.1407, 58.18486
892.6229, 57.17761
893.1050, 56.33427
893.5871, 55.45544
894.0692, 54.39602
894.5513, 53.23840
895.0334, 52.05709
895.5156, 50.87196
895.9977, 49.72462
896.4798, 48.62552
896.9619, 47.50727
897.4440, 46.27738
897.9261, 45.03990
898.4083, 44.09525
898.8904, 43.41933
899.3725, 42.70379
899.8546, 41.89330
900.3367, 41.17562
900.8188, 40.70816
901.3010, 40.28234
901.7831, 39.45692
902.2652, 38.12169
902.7473, 37.07452
903.2294, 36.47303
903.7115, 35.87981
904.1937, 35.01103
904.6758, 34.25701
905.1579, 34.14296
905.6400, 34.46038
906.1221, 34.31741
906.6042, 33.30727
907.0864, 32.39548
907.5685, 31.92795
908.0506, 31.53134
908.5327, 30.98454
909.0148, 30.32652
909.4969, 29.58853
909.9791, 28.80412
910.4612, 28.15766
910.9433, 27.87239
911.4254, 27.68493
911.9075, 27.33944
912.3896, 26.87118
912.8718, 26.29919
913.3539, 25.66321
913.8360, 25.07411
914.3181, 24.58985
914.8002, 24.26568
915.2823, 24.31951
915.7644, 24.66225
916.2465, 24.55372
916.7286, 23.96055
917.2108, 23.44798
917.6929, 23.19967
918.1750, 23.06500
918.6571, 22.90483
919.1392, 22.72397
919.6213, 22.55488
920.1035, 22.44708
920.5856, 22.21994
921.0677, 21.72172
921.5498, 21.29626
922.0319, 21.18104
922.5140, 21.19409
922.9962, 21.06835
923.4783, 20.78235
923.9604, 20.63612
924.4425, 20.84187
924.9246, 20.97068
925.4067, 20.84037
925.8889, 20.60717
926.3710, 20.34394
926.8531, 20.10643
927.3352, 20.01572
927.8173, 20.13301
928.2994, 20.23169
928.7816, 20.16343
929.2637, 19.99452
929.7458, 19.72703
930.2279, 19.43559
930.7100, 19.28773
931.1921, 19.29665
931.6743, 19.29764
932.1564, 19.15581
932.6385, 18.98524
933.1206, 19.02816
933.6027, 19.21985
934.0848, 19.24390
934.5670, 19.08447
935.0491, 19.01670
935.5312, 19.17022
936.0133, 19.35636
936.4954, 19.33767
936.9775, 19.13185
937.4597, 18.89200
937.9418, 18.57024
938.4239, 18.43525
938.9060, 18.62463
939.3881, 18.80161
939.8702, 18.73702
940.3524, 18.52757
940.8345, 18.37931
941.3166, 18.29951
941.7987, 18.25263
942.2808, 18.34117
942.7629, 18.32634
943.2451, 18.03450
943.7272, 17.71630
944.2093, 17.60315
944.6914, 17.64358
945.1735, 17.63001
945.6556, 17.50532
946.1378, 17.36126
946.6199, 17.13909
947.1020, 17.00126
947.5841, 17.13772
948.0662, 17.39686
948.5483, 17.58965
949.0305, 17.66256
949.5126, 17.58834
949.9947, 17.26169
950.4768, 16.95360
950.9589, 16.97412
951.4410, 17.16460
951.9232, 17.30081
952.4053, 17.35673
952.8874, 17.34599
953.3695, 17.27485
953.8516, 17.14307
954.3337, 16.90777
954.8159, 16.64721
955.2980, 16.60595
955.7801, 16.74882
956.2622, 16.82617
956.7443, 16.79523
957.2264, 16.75450
957.7086, 16.76141
958.1907, 16.79715
958.6728, 16.82488
959.1549, 16.84356
959.6370, 16.91542
960.1191, 17.07206
960.6013, 17.13227
961.0834, 16.98207
961.5655, 16.88134
962.0476, 17.09631
962.5297, 17.50629
963.0118, 17.68872
963.4940, 17.56043
963.9761, 17.41370
964.4582, 17.15667
964.9403, 17.00450
965.4224, 17.08860
965.9045, 17.25221
966.3867, 17.37143
966.8688, 17.44189
967.3509, 17.46571
967.8330, 17.42919
968.3151, 17.37101
968.7972, 17.29037
969.2794, 17.20024
969.7615, 17.03095
970.2436, 16.89799
970.7257, 17.02549
971.2078, 17.40659
971.6899, 17.67602
972.1721, 17.62590
972.6542, 17.47312
973.1363, 17.28753
973.6184, 17.12119
974.1005, 16.99655
974.5826, 16.94790
975.0648, 17.07838
975.5469, 17.40677
976.0290, 17.71302
976.5111, 17.79118
976.9932, 17.76751
977.4753, 17.79876
977.9575, 17.86639
978.4396, 17.92905
978.9217, 17.98364
979.4038, 18.03639
979.8859, 18.08988
980.3680, 18.19650
980.8502, 18.45750
981.3323, 18.82193
981.8144, 19.10627
982.2965, 19.31620
982.7786, 19.49961
983.2607, 19.66573
983.7429, 19.83430
984.2250, 20.01947
984.7071, 20.21188
985.1892, 20.38826
985.6713, 20.54681
986.1534, 20.71570
986.6356, 20.86831
987.1177, 21.21516
987.5998, 21.87117
988.0819, 22.55393
988.5640, 22.95443
989.0461, 23.24453
989.5283, 24.05184
990.0104, 25.61584
990.4925, 26.89953
990.9746, 27.57213
991.4567, 28.58468
991.9388, 30.24465
992.4210, 32.38558
992.9031, 34.81914
993.3852, 37.56643
993.8673, 40.83522
994.3494, 45.21135
994.8315, 49.09867
995.3137, 52.19297
995.7958, 55.11517
996.2779, 58.03540
996.7600, 60.94146
997.2421, 63.72327
997.7242, 66.42827
998.2064, 69.48375
998.6885, 73.09976
999.1706, 76.84315
999.6527, 80.55089
1000.135, 84.41495
1000.617, 88.64392
1001.099, 93.05097
1001.581, 97.38270
1002.063, 101.6096
1002.545, 105.6184
1003.028, 109.2271
1003.510, 112.8134
1003.992, 117.1133
1004.474, 121.0258
1004.956, 124.2071
1005.438, 125.9246
1005.920, 124.9362
1006.402, 121.0359
1006.884, 115.3815
1007.367, 108.1028
1007.849, 100.1906
1008.331, 92.26861
1008.813, 84.54411
1009.295, 77.07413
1009.777, 70.09580
1010.259, 64.09808
1010.741, 59.24479
1011.224, 54.94125
1011.706, 50.62095
1012.188, 46.61139
1012.670, 43.46920
1013.152, 40.97404
1013.634, 38.56999
1014.116, 36.25532
1014.598, 34.41125
1015.080, 33.20304
1015.563, 32.23176
1016.045, 31.04546
1016.527, 29.77672
1017.009, 28.75990
1017.491, 27.95729
1017.973, 27.16411
1018.455, 26.36320
1018.937, 25.70752
1019.419, 25.27774
1019.902, 24.93538
1020.384, 24.49235
1020.866, 23.96992
1021.348, 23.43534
1021.830, 22.89182
1022.312, 22.46633
1022.794, 22.18240
1023.276, 21.93616
1023.759, 21.66755
1024.241, 21.40404
1024.723, 21.18889
1025.205, 21.01952
1025.687, 20.89864
1026.169, 20.85035
1026.651, 20.60512
1027.133, 20.04907
1027.615, 19.60431
1028.098, 19.55673
1028.580, 19.70463
1029.062, 19.68553
1029.544, 19.49356
1030.026, 19.34616
1030.508, 19.24528
1030.990, 19.19562
1031.472, 19.25300
1031.955, 19.23376
1032.437, 19.02511
1032.919, 18.65669
1033.401, 18.11920
1033.883, 17.34980
1034.365, 17.09236
1034.847, 17.64743
1035.329, 18.04415
1035.812, 18.06143
1036.294, 17.96864
1036.776, 17.91228
1037.258, 17.87143
1037.740, 17.79788
1038.222, 17.67763
1038.704, 17.61626
1039.186, 17.65221
1039.668, 17.68463
1040.151, 17.70006
1040.633, 17.70555
1041.115, 17.72297
1041.597, 17.72660
1042.079, 17.65355
1042.561, 17.48455
1043.043, 17.36725
1043.525, 17.29173
1044.007, 17.28741
1044.490, 17.51709
1044.972, 17.65790
1045.454, 17.36853
1045.936, 16.91140
1046.418, 16.79113
1046.900, 17.07762
1047.382, 17.29676
1047.864, 17.48635
1048.347, 17.48170
1048.829, 16.99961
1049.311, 16.56122
1049.793, 16.56766
1050.275, 16.81970
1050.757, 16.96943
1051.239, 16.97735
1051.721, 16.95192
1052.203, 16.87298
1052.686, 16.81975
1053.168, 16.80119
1053.650, 16.82911
1054.132, 16.96011
1054.614, 17.12052
1055.096, 17.17728
1055.578, 17.11521
1056.060, 17.08692
1056.542, 17.15825
1057.025, 17.23298
1057.507, 17.28078
1057.989, 17.32174
1058.471, 17.37140
1058.953, 17.42364
1059.435, 17.45830
1059.917, 17.47647
1060.399, 17.52837
1060.882, 17.59777
1061.364, 17.74864
1061.846, 18.18140
1062.328, 18.52522
1062.810, 18.35128
1063.292, 17.99308
1063.774, 18.01948
1064.256, 18.45703
1064.739, 18.77826
1065.221, 18.68505
1065.703, 18.64017
1066.185, 18.90461
1066.667, 19.21031
1067.149, 19.35000
1067.631, 19.41673
1068.113, 19.56315
1068.595, 19.79695
1069.078, 20.01998
1069.560, 20.20144
1070.042, 20.36224
1070.524, 20.48420
1071.006, 20.61904
1071.488, 20.85985
1071.970, 21.10241
1072.452, 21.13618
1072.934, 21.01820
1073.417, 21.11481
1073.899, 21.64093
1074.381, 22.11637
1074.863, 22.15937
1075.345, 22.24552
1075.827, 22.79538
1076.309, 23.50814
1076.791, 24.02444
1077.274, 24.33128
1077.756, 24.53685
1078.238, 24.61610
1078.720, 24.87995
1079.202, 25.55425
1079.684, 26.36540
1080.166, 27.19848
1080.648, 28.03495
1081.130, 28.86950
1081.613, 29.70362
1082.095, 30.49713
1082.577, 31.19657
1083.059, 32.22921
1083.541, 34.10537
1084.023, 35.99371
1084.505, 37.19179
1084.987, 38.37063
1085.469, 40.28662
1085.952, 42.71283
1086.434, 44.95345
1086.916, 46.84127
1087.398, 48.97147
1087.880, 51.70031
1088.362, 54.58744
1088.844, 57.56969
1089.326, 60.48906
1089.808, 63.06342
1090.291, 65.52680
1090.773, 68.25204
1091.255, 71.31539
1091.737, 74.65419
1092.219, 78.47632
1092.701, 82.26523
1093.183, 85.86708
1093.665, 89.34350
1094.148, 92.94865
1094.630, 96.32394
1095.112, 98.76148
1095.594, 100.3541
1096.076, 102.2336
1096.558, 105.0017
1097.040, 107.5446
1097.522, 109.5732
1098.005, 111.1951
1098.487, 112.4325
1098.969, 113.3272
1099.451, 114.0115
1099.933, 114.4024
1100.415, 114.1713
1100.897, 113.2328
1101.379, 111.7096
1101.861, 109.4870
1102.344, 106.8780
1102.826, 104.0202
1103.308, 100.8037
1103.790, 97.00164
1104.272, 92.76498
1104.754, 88.45915
1105.236, 84.03967
1105.718, 79.86203
1106.200, 76.08109
1106.683, 72.41808
1107.165, 68.50172
1107.647, 64.94753
1108.129, 62.57607
1108.611, 60.72892
1109.093, 58.11886
1109.575, 54.59496
1110.057, 51.40975
1110.540, 48.87074
1111.022, 46.41601
1111.504, 43.78497
1111.986, 41.44667
1112.468, 39.75383
1112.950, 38.39096
1113.432, 36.91007
1113.914, 35.33184
1114.396, 34.00660
1114.879, 33.06417
1115.361, 32.15180
1115.843, 31.32452
1116.325, 30.43655
1116.807, 29.25976
1117.289, 28.18613
1117.771, 27.65746
1118.253, 27.52225
1118.735, 27.19598
1119.218, 26.64309
1119.700, 25.99686
1120.182, 25.11051
1120.664, 24.44670
1121.146, 24.16787
1121.628, 24.05575
1122.110, 24.02587
1122.592, 23.98334
1123.075, 23.69675
1123.557, 23.13774
1124.039, 22.82577
1124.521, 22.83771
1125.003, 22.80666
1125.485, 22.62861
1125.967, 22.58129
1126.449, 22.86351
1126.932, 23.21207
1127.414, 23.26647
1127.896, 23.06730
1128.378, 22.87149
1128.860, 22.67492
1129.342, 22.50080
1129.824, 22.33501
1130.306, 22.35999
1130.788, 22.66773
1131.271, 23.00255
1131.753, 23.11813
1132.235, 23.10537
1132.717, 23.17918
1133.199, 23.33868
1133.681, 23.59410
1134.163, 23.94224
1134.645, 24.27323
1135.127, 24.56289
1135.610, 24.91805
1136.092, 25.41609
1136.574, 25.93827
1137.056, 26.30523
1137.538, 26.55886
1138.020, 26.73266
1138.502, 26.91477
1138.984, 27.56179
1139.467, 28.65893
1139.949, 29.75288
1140.431, 30.65386
1140.913, 31.37045
1141.395, 31.86329
1141.877, 32.26856
1142.359, 32.78341
1142.841, 33.38929
1143.323, 34.02619
1143.806, 34.71310
1144.288, 35.53507
1144.770, 36.49145
1145.252, 37.49694
1145.734, 38.52791
1146.216, 39.43435
1146.698, 40.04290
1147.180, 40.47257
1147.662, 40.80266
1148.145, 41.08649
1148.627, 41.46436
1149.109, 41.86714
1149.591, 42.00861
1150.073, 41.78888
1150.555, 41.59644
1151.037, 41.84513
1151.519, 41.97252
1152.002, 41.44708
1152.484, 40.78823
1152.966, 40.60711
1153.448, 40.60176
1153.930, 40.19899
1154.412, 39.33223
1154.894, 38.29015
1155.376, 37.01349
1155.859, 35.86649
1156.341, 34.98557
1156.823, 34.23008
1157.305, 33.43187
1157.787, 32.79752
1158.269, 32.86762
1158.751, 33.26063
1159.233, 32.61242
1159.715, 30.36880
1160.198, 28.80673
1160.680, 28.68458
1161.162, 28.33704
1161.644, 27.25105
1162.126, 26.15060
1162.608, 25.46949
1163.090, 24.98318
1163.572, 24.34540
1164.054, 23.56664
1164.537, 22.97066
1165.019, 22.58179
1165.501, 22.32488
1165.983, 22.27634
1166.465, 22.09243
1166.947, 21.60243
1167.429, 21.09899
1167.911, 20.85960
1168.394, 20.76001
1168.876, 20.44734
1169.358, 19.92209
1169.840, 19.64575
1170.322, 19.62551
1170.804, 19.35322
1171.286, 18.73001
1171.768, 18.20289
1172.250, 18.00847
1172.733, 17.93143
1173.215, 17.69676
1173.697, 17.40491
1174.179, 17.34096
1174.661, 17.43803
1175.143, 17.48654
1175.625, 17.47280
1176.107, 17.41956
1176.589, 17.33953
1177.072, 17.27712
1177.554, 17.27411
1178.036, 17.22287
1178.518, 16.91545
1179.000, 16.56443
1179.482, 16.49770
1179.964, 16.56097
1180.446, 16.50068
1180.929, 16.30846
1181.411, 16.05220
1181.893, 15.76013
1182.375, 15.55724
1182.857, 15.62425
1183.339, 15.65396
1183.821, 15.39744
1184.303, 15.11161
1184.786, 14.98749
1185.268, 14.97310
1185.750, 14.99192
1186.232, 15.03257
1186.714, 15.10994
1187.196, 15.28312
1187.678, 15.32598
1188.160, 15.06666
1188.642, 14.85316
1189.125, 14.84413
1189.607, 14.85779
1190.089, 14.75969
1190.571, 14.61269
1191.053, 14.54045
1191.535, 14.54163
1192.017, 14.40387
1192.499, 13.98794
1192.981, 13.88974
1193.464, 14.28075
1193.946, 14.55244
1194.428, 14.45184
1194.910, 14.30121
1195.392, 14.39913
1195.874, 14.60687
1196.356, 14.57197
1196.838, 14.31874
1197.321, 14.18952
1197.803, 14.17870
1198.285, 14.20022
1198.767, 14.23845
1199.249, 14.32629
1199.731, 14.47475
1200.213, 14.48452
1200.695, 14.07903
1201.177, 13.58575
1201.660, 13.62693
1202.142, 13.93210
1202.624, 13.95627
1203.106, 13.78727
1203.588, 13.71593
1204.070, 13.78386
1204.552, 13.89957
1205.034, 14.03499
1205.516, 14.05971
1205.999, 13.74274
1206.481, 13.45065
1206.963, 13.47527
1207.445, 13.62598
1207.927, 13.78729
1208.409, 13.89960
1208.891, 13.86644
1209.373, 13.69573
1209.856, 13.55227
1210.338, 13.44131
1210.820, 13.42157
1211.302, 13.57267
1211.784, 13.72310
1212.266, 13.84639
1212.748, 13.91390
1213.230, 13.88369
1213.713, 13.79635
1214.195, 13.71259
1214.677, 13.63125
1215.159, 13.71933
1215.641, 14.06352
1216.123, 14.18168
1216.605, 13.99562
1217.087, 13.75975
1217.569, 13.55122
1218.052, 13.44123
1218.534, 13.50835
1219.016, 13.65422
1219.498, 13.67727
1219.980, 13.60498
1220.462, 13.53650
1220.944, 13.48291
1221.426, 13.50670
1221.908, 13.59559
1222.391, 13.65683
1222.873, 13.65398
1223.355, 13.60214
1223.837, 13.49331
1224.319, 13.38772
1224.801, 13.35908
1225.283, 13.35553
1225.765, 13.31282
1226.248, 13.25864
1226.730, 13.24106
1227.212, 13.25549
1227.694, 13.27425
1228.176, 13.29253
1228.658, 13.28005
1229.140, 13.15721
1229.622, 13.10350
1230.104, 13.26834
1230.587, 13.40622
1231.069, 13.40294
1231.551, 13.27976
1232.033, 12.97953
1232.515, 12.59748
1232.997, 12.50981
1233.479, 12.78416
1233.961, 13.01287
1234.443, 13.21403
1234.926, 13.27588
1235.408, 13.14128
1235.890, 13.08360
1236.372, 13.25930
1236.854, 13.41671
1237.336, 13.24469
1237.818, 12.91184
1238.300, 12.90314
1238.783, 13.09717
1239.265, 12.98127
1239.747, 12.62849
1240.229, 12.37930
1240.711, 12.29697
1241.193, 12.32232
1241.675, 12.42751
1242.157, 12.54976
1242.640, 12.63657
1243.122, 12.72157
1243.604, 12.87555
1244.086, 13.00334
1244.568, 12.98180
1245.050, 12.88975
1245.532, 12.83960
1246.014, 12.83798
1246.496, 12.83397
1246.979, 12.79270
1247.461, 12.86927
1247.943, 13.32479
1248.425, 13.53980
1248.907, 13.17970
1249.389, 12.87197
1249.871, 12.95665
1250.353, 13.15817
1250.835, 13.19249
1251.318, 13.08302
1251.800, 12.87489
1252.282, 12.54723
1252.764, 12.49598
1253.246, 12.72799
1253.728, 12.83352
1254.210, 12.74197
1254.692, 12.51486
1255.175, 12.18429
1255.657, 12.00540
1256.139, 12.27322
1256.621, 12.69207
1257.103, 12.81212
1257.585, 12.78887
1258.067, 12.88465
1258.549, 13.02378
1259.031, 13.04742
1259.514, 12.95406
1259.996, 12.79382
1260.478, 12.58317
1260.960, 12.46742
1261.442, 12.64816
1261.924, 12.72960
1262.406, 12.38398
1262.888, 12.13711
1263.370, 12.47094
1263.853, 12.86207
1264.335, 12.71112
1264.817, 12.24694
1265.299, 12.03198
1265.781, 12.08101
1266.263, 12.11224
1266.745, 12.10512
1267.227, 12.19800
1267.710, 12.41728
1268.192, 12.65523
1268.674, 12.87994
1269.156, 12.98640
1269.638, 12.87374
1270.120, 12.70627
1270.602, 12.81064
1271.084, 13.01734
1271.567, 12.85891
1272.049, 12.54964
1272.531, 12.63000
1273.013, 12.96406
1273.495, 13.02526
1273.977, 12.73827
1274.459, 12.51128
1274.941, 12.52728
1275.423, 12.61619
1275.906, 12.77073
1276.388, 12.88293
1276.870, 12.87752
1277.352, 12.83447
1277.834, 12.81442
1278.316, 12.79742
1278.798, 12.74373
1279.280, 12.66157
1279.762, 12.60449
1280.245, 12.57047
1280.727, 12.57297
1281.209, 12.62312
1281.691, 12.64360
1282.173, 12.61411
1282.655, 12.62804
1283.137, 12.73773
1283.619, 12.80810
1284.102, 12.68664
1284.584, 12.45416
1285.066, 12.23184
1285.548, 12.02181
##END=



