##NAMES=Jarosite
##RRUFFID=R060236
##IDEAL CHEMISTRY=KFe^3+^_3_(S^6+^O_4_)_2_(OH)_6_
##LOCALITY=Gold Hill, Tooele County, Utah, USA
##OWNER=RRUFF
##SOURCE=Michael Scott
##DESCRIPTION=Spherical groups of brown bladed crystals
##STATUS=The identification of this mineral has been confirmed by single-crystal X-ray diffraction.
##URL=rruff.info/R060236
92.07813, 5.799661
92.56024, 5.859596
93.04236, 5.828562
93.52448, 5.724842
94.00659, 5.616088
94.48871, 5.513680
94.97083, 5.433905
95.45294, 5.428094
95.93506, 5.518450
96.41718, 5.652300
96.89929, 5.743458
97.38141, 5.790809
97.86353, 5.819506
98.34564, 5.844172
98.82776, 5.864393
99.30988, 5.883765
99.79199, 5.912516
100.2741, 5.937572
100.7562, 5.901406
101.2383, 5.789536
101.7205, 5.655983
102.2026, 5.534261
102.6847, 5.412806
103.1668, 5.353498
103.6489, 5.381114
104.1310, 5.497320
104.6132, 5.620490
105.0953, 5.784600
105.5774, 5.922324
106.0595, 5.936219
106.5416, 5.726276
107.0237, 5.545372
107.5059, 5.456141
107.9880, 5.477508
108.4701, 5.538300
108.9522, 5.720410
109.4343, 5.926689
109.9164, 5.983096
110.3986, 5.630538
110.8807, 5.345030
111.3628, 5.277527
111.8449, 5.593419
112.3270, 5.864392
112.8091, 6.073688
113.2913, 6.221309
113.7734, 6.310874
114.2555, 6.266860
114.7376, 6.215896
115.2197, 6.225138
115.7018, 6.326157
116.1840, 6.465414
116.6661, 6.582787
117.1482, 6.705243
117.6303, 6.971585
118.1124, 7.577148
118.5945, 8.290166
119.0767, 8.906184
119.5588, 9.007808
120.0409, 9.292777
120.5230, 10.18193
121.0051, 11.65080
121.4872, 13.29027
121.9694, 14.86825
122.4515, 16.45281
122.9336, 18.14566
123.4157, 19.83453
123.8978, 21.71793
124.3799, 23.97809
124.8621, 26.62859
125.3442, 29.57042
125.8263, 32.80716
126.3084, 36.28075
126.7905, 39.86470
127.2726, 43.47186
127.7548, 47.12567
128.2369, 50.86844
128.7190, 54.72741
129.2011, 58.58006
129.6832, 62.21832
130.1653, 65.65672
130.6474, 69.18510
131.1296, 73.15325
131.6117, 77.36018
132.0938, 81.14751
132.5759, 84.29360
133.0580, 87.25777
133.5401, 90.55811
134.0223, 94.18605
134.5044, 98.81638
134.9865, 104.8542
135.4686, 112.3687
135.9507, 121.2513
136.4328, 131.8473
136.9150, 143.7714
137.3971, 155.8037
137.8792, 168.2146
138.3613, 179.9602
138.8434, 191.1553
139.3255, 202.4599
139.8077, 208.8065
140.2898, 209.0147
140.7719, 203.3933
141.2540, 193.9773
141.7361, 179.2650
142.2182, 163.4136
142.7004, 150.2899
143.1825, 140.3777
143.6646, 132.2881
144.1467, 126.0594
144.6288, 121.6617
145.1109, 118.2780
145.5931, 116.1079
146.0752, 114.7648
146.5573, 113.7782
147.0394, 113.1867
147.5215, 112.9112
148.0036, 112.9555
148.4858, 113.3501
148.9679, 113.9516
149.4500, 114.8645
149.9321, 115.9525
150.4142, 116.9913
150.8963, 117.8452
151.3785, 118.7950
151.8606, 119.8773
152.3427, 121.0371
152.8248, 122.4902
153.3069, 124.3580
153.7890, 126.5153
154.2712, 128.3671
154.7533, 129.4928
155.2354, 130.4939
155.7175, 131.3799
156.1996, 132.1962
156.6817, 132.7791
157.1639, 132.8542
157.6460, 132.6831
158.1281, 132.8299
158.6102, 133.7898
159.0923, 134.8149
159.5744, 135.5016
160.0566, 135.4113
160.5387, 135.5687
161.0208, 136.3277
161.5029, 137.5563
161.9850, 138.8761
162.4671, 140.1325
162.9493, 141.4504
163.4314, 142.9163
163.9135, 144.6048
164.3956, 146.3766
164.8777, 148.2556
165.3598, 150.2052
165.8420, 152.0706
166.3241, 153.4163
166.8062, 154.8052
167.2883, 156.7664
167.7704, 160.0414
168.2525, 163.3131
168.7346, 165.7930
169.2168, 167.5597
169.6989, 169.1063
170.1810, 170.7122
170.6631, 172.2699
171.1452, 173.6473
171.6273, 174.4885
172.1095, 175.3611
172.5916, 176.8304
173.0737, 178.8526
173.5558, 180.9269
174.0379, 182.5245
174.5201, 183.9526
175.0022, 185.7326
175.4843, 188.0869
175.9664, 190.8879
176.4485, 193.9973
176.9306, 197.4336
177.4128, 200.9848
177.8949, 204.6964
178.3770, 208.3801
178.8591, 211.7041
179.3412, 214.5536
179.8233, 216.9555
180.3055, 219.2025
180.7876, 221.3671
181.2697, 222.6036
181.7518, 221.8791
182.2339, 219.5163
182.7160, 216.5079
183.1982, 212.9573
183.6803, 209.1185
184.1624, 205.5220
184.6445, 202.1820
185.1266, 199.1354
185.6087, 196.5856
186.0909, 194.4250
186.5730, 192.2189
187.0551, 189.6561
187.5372, 186.8818
188.0193, 184.2361
188.5014, 181.6943
188.9836, 179.4297
189.4657, 177.5439
189.9478, 176.0539
190.4299, 175.0083
190.9120, 174.6209
191.3941, 174.7700
191.8763, 174.7691
192.3584, 174.5599
192.8405, 174.3385
193.3226, 174.3197
193.8047, 174.5036
194.2868, 174.9734
194.7690, 175.8721
195.2511, 177.1647
195.7332, 178.3607
196.2153, 179.3768
196.6974, 180.4626
197.1795, 181.9910
197.6617, 183.9801
198.1438, 186.2495
198.6259, 188.7017
199.1080, 191.3250
199.5901, 194.2376
200.0722, 197.3598
200.5544, 200.8889
201.0365, 205.1760
201.5186, 210.2909
202.0007, 215.8121
202.4828, 221.4227
202.9649, 227.0632
203.4471, 233.5376
203.9292, 240.9272
204.4113, 249.1653
204.8934, 258.2702
205.3755, 268.2114
205.8576, 278.7573
206.3398, 289.8856
206.8219, 301.6714
207.3040, 313.6002
207.7861, 325.6457
208.2682, 337.6957
208.7503, 349.5113
209.2325, 361.0434
209.7146, 372.1461
210.1967, 382.6318
210.6788, 392.3565
211.1609, 402.1095
211.6430, 411.6959
212.1252, 421.5177
212.6073, 432.1625
213.0894, 443.3134
213.5715, 455.9510
214.0536, 470.5641
214.5357, 487.4408
215.0179, 505.3742
215.5000, 524.2448
215.9821, 544.3502
216.4642, 566.3911
216.9463, 590.1664
217.4284, 615.9082
217.9105, 644.4625
218.3927, 676.7231
218.8748, 707.9710
219.3569, 738.4825
219.8390, 767.7697
220.3211, 795.8847
220.8032, 824.4621
221.2854, 848.9703
221.7675, 868.4788
222.2496, 883.6188
222.7317, 891.4308
223.2138, 892.2153
223.6959, 885.5344
224.1781, 870.0393
224.6602, 844.7455
225.1423, 812.4422
225.6244, 774.0765
226.1065, 726.7709
226.5886, 680.2067
227.0708, 633.2350
227.5529, 587.1819
228.0350, 544.3812
228.5171, 504.1606
228.9992, 467.5399
229.4813, 434.9839
229.9635, 407.1145
230.4456, 381.5680
230.9277, 358.3068
231.4098, 337.6352
231.8919, 320.0043
232.3740, 306.4751
232.8562, 294.4781
233.3383, 283.0252
233.8204, 271.6864
234.3025, 262.4142
234.7846, 256.1599
235.2667, 251.4343
235.7489, 245.5894
236.2310, 237.7390
236.7131, 230.2337
237.1952, 223.7334
237.6773, 218.4283
238.1594, 213.8106
238.6416, 210.0022
239.1237, 206.8051
239.6058, 203.9639
240.0879, 201.6832
240.5700, 199.3697
241.0521, 196.7333
241.5343, 193.6011
242.0164, 191.0285
242.4985, 189.1864
242.9806, 187.7818
243.4627, 186.3981
243.9448, 184.9985
244.4270, 183.6713
244.9091, 182.4187
245.3912, 181.2117
245.8733, 180.2229
246.3554, 179.5780
246.8375, 179.0385
247.3197, 178.2232
247.8018, 176.7284
248.2839, 175.7029
248.7660, 175.6530
249.2481, 176.7998
249.7302, 177.1392
250.2124, 176.3416
250.6945, 175.0532
251.1766, 173.9795
251.6587, 173.1638
252.1408, 172.5010
252.6229, 172.0964
253.1051, 171.9972
253.5872, 171.3403
254.0693, 169.9411
254.5514, 168.1880
255.0335, 166.3913
255.5156, 164.3455
255.9978, 162.7535
256.4799, 161.8541
256.9620, 161.6375
257.4441, 161.3123
257.9262, 160.7708
258.4083, 160.2559
258.8904, 160.0340
259.3726, 160.2791
259.8547, 160.3596
260.3368, 160.0552
260.8189, 159.4288
261.3010, 159.2558
261.7831, 159.6960
262.2653, 160.3355
262.7474, 160.8425
263.2295, 161.1588
263.7116, 161.5258
264.1937, 161.9799
264.6758, 162.5121
265.1580, 163.0671
265.6401, 163.5659
266.1222, 164.2333
266.6043, 165.3253
267.0864, 167.0820
267.5685, 168.3984
268.0507, 168.9934
268.5328, 169.1210
269.0149, 169.7784
269.4970, 171.1303
269.9791, 172.6422
270.4612, 174.0259
270.9434, 175.2310
271.4255, 176.5363
271.9076, 178.0552
272.3897, 179.6317
272.8718, 180.7670
273.3539, 181.2651
273.8361, 181.9534
274.3182, 183.4084
274.8003, 185.7689
275.2824, 187.7030
275.7645, 189.0380
276.2466, 190.0525
276.7288, 191.2348
277.2109, 192.5609
277.6930, 194.1444
278.1751, 196.0506
278.6572, 198.2992
279.1393, 200.6165
279.6215, 202.9966
280.1036, 205.4619
280.5857, 208.0347
281.0678, 210.7017
281.5499, 213.5408
282.0320, 216.5631
282.5142, 219.7712
282.9963, 222.9174
283.4784, 225.8956
283.9605, 229.1389
284.4426, 233.3094
284.9247, 238.4223
285.4069, 243.6626
285.8890, 248.8462
286.3711, 253.9218
286.8532, 258.8606
287.3353, 263.6524
287.8174, 268.3788
288.2996, 272.8979
288.7817, 277.2770
289.2638, 282.1159
289.7459, 287.7422
290.2280, 293.8446
290.7101, 299.4916
291.1923, 304.6527
291.6744, 310.2928
292.1565, 317.7350
292.6386, 326.6011
293.1207, 334.9526
293.6028, 342.3327
294.0850, 349.0471
294.5671, 355.8858
295.0492, 362.8423
295.5313, 369.9004
296.0134, 377.5057
296.4955, 385.1997
296.9777, 391.5509
297.4598, 396.1943
297.9419, 399.5925
298.4240, 402.6752
298.9061, 405.2041
299.3882, 405.9549
299.8704, 404.2688
300.3525, 400.2878
300.8346, 394.0406
301.3167, 385.4116
301.7988, 375.2188
302.2809, 363.6867
302.7631, 351.1895
303.2452, 338.4416
303.7273, 325.8094
304.2094, 313.2293
304.6915, 300.6446
305.1736, 287.8741
305.6558, 275.8303
306.1379, 265.2365
306.6200, 255.9020
307.1021, 247.5052
307.5842, 239.5915
308.0663, 232.6757
308.5485, 227.4242
309.0306, 223.8214
309.5127, 220.6582
309.9948, 217.1653
310.4769, 213.5984
310.9590, 210.2928
311.4412, 207.2746
311.9233, 204.5844
312.4054, 202.2923
312.8875, 200.3535
313.3696, 198.6420
313.8517, 197.2431
314.3339, 195.9838
314.8160, 194.7149
315.2981, 193.4508
315.7802, 192.1192
316.2623, 190.5340
316.7444, 188.8444
317.2266, 187.4169
317.7087, 186.6754
318.1908, 186.0824
318.6729, 185.2451
319.1550, 183.9344
319.6371, 182.8377
320.1193, 182.2926
320.6014, 182.0942
321.0835, 181.9013
321.5656, 181.5285
322.0477, 181.2154
322.5298, 181.0600
323.0120, 181.0834
323.4941, 181.1786
323.9762, 181.2294
324.4583, 181.3731
324.9404, 181.7583
325.4225, 182.5682
325.9047, 183.4692
326.3868, 184.3720
326.8689, 185.2819
327.3510, 186.2574
327.8331, 187.3820
328.3152, 188.5325
328.7974, 189.6220
329.2795, 190.2500
329.7616, 191.3086
330.2437, 193.1433
330.7258, 195.5563
331.2079, 197.4878
331.6901, 198.5912
332.1722, 199.5545
332.6543, 200.7079
333.1364, 202.1140
333.6185, 203.5767
334.1006, 205.1194
334.5828, 206.7020
335.0649, 208.1773
335.5470, 209.4734
336.0291, 210.8081
336.5112, 212.2759
336.9933, 213.9365
337.4755, 215.4607
337.9576, 216.7966
338.4397, 218.0397
338.9218, 219.4165
339.4039, 221.0596
339.8860, 222.2840
340.3681, 222.6557
340.8503, 222.2925
341.3324, 222.8495
341.8145, 224.5455
342.2966, 226.5691
342.7787, 228.2087
343.2608, 229.4304
343.7430, 230.6628
344.2251, 231.8487
344.7072, 233.1862
345.1893, 235.4151
345.6714, 238.6304
346.1535, 241.7913
346.6357, 243.7783
347.1178, 244.9004
347.5999, 247.1543
348.0820, 251.0075
348.5641, 255.5159
349.0462, 259.3676
349.5284, 262.6019
350.0105, 265.6570
350.4926, 268.9387
350.9747, 272.1812
351.4568, 274.7771
351.9389, 276.6753
352.4211, 278.1158
352.9032, 279.4764
353.3853, 280.5591
353.8674, 280.8824
354.3495, 280.1768
354.8316, 278.6703
355.3138, 276.4876
355.7959, 273.6619
356.2780, 270.5389
356.7601, 267.5490
357.2422, 264.3141
357.7243, 260.2081
358.2065, 254.4880
358.6886, 248.8189
359.1707, 244.4820
359.6528, 241.1643
360.1349, 237.9239
360.6170, 234.2491
361.0992, 230.5126
361.5813, 226.9897
362.0634, 223.8237
362.5455, 220.6396
363.0276, 216.8584
363.5097, 213.0536
363.9919, 210.0792
364.4740, 209.2039
364.9561, 208.2843
365.4382, 206.2891
365.9203, 203.0354
366.4024, 200.3088
366.8846, 198.7199
367.3667, 197.6368
367.8488, 196.5481
368.3309, 195.3295
368.8130, 194.1795
369.2951, 193.0667
369.7773, 192.0144
370.2594, 191.1892
370.7415, 190.7741
371.2236, 190.4151
371.7057, 189.9178
372.1878, 188.9676
372.6700, 188.5028
373.1521, 188.7290
373.6342, 189.3535
374.1163, 189.8251
374.5984, 190.1045
375.0805, 190.2914
375.5627, 190.3598
376.0448, 190.2791
376.5269, 190.4667
377.0090, 190.9877
377.4911, 191.6602
377.9732, 192.3692
378.4554, 193.1551
378.9375, 193.6402
379.4196, 193.6082
379.9017, 193.2733
380.3838, 193.5140
380.8659, 194.3992
381.3481, 195.3124
381.8302, 195.9135
382.3123, 196.1876
382.7944, 195.9006
383.2765, 194.8728
383.7586, 193.6770
384.2408, 193.2448
384.7229, 193.4760
385.2050, 193.7216
385.6871, 193.6296
386.1692, 193.3372
386.6513, 193.1615
387.1335, 193.1236
387.6156, 192.9226
388.0977, 191.9735
388.5798, 190.7043
389.0619, 189.9109
389.5440, 190.1353
390.0262, 190.6792
390.5083, 190.9674
390.9904, 191.0352
391.4725, 191.0412
391.9546, 190.9750
392.4367, 190.9419
392.9189, 191.0574
393.4010, 191.4107
393.8831, 191.7382
394.3652, 191.9150
394.8473, 191.9795
395.3294, 191.9942
395.8116, 191.6075
396.2937, 191.5031
396.7758, 192.1310
397.2579, 193.6108
397.7400, 194.8310
398.2221, 195.4280
398.7043, 195.7414
399.1864, 196.0435
399.6685, 195.8811
400.1506, 196.2685
400.6327, 197.6736
401.1148, 199.8165
401.5970, 201.3649
402.0791, 201.9361
402.5612, 202.3346
403.0433, 202.8510
403.5254, 203.3665
404.0075, 204.3647
404.4897, 206.0027
404.9718, 207.9935
405.4539, 209.9231
405.9360, 211.7996
406.4181, 213.6129
406.9002, 215.3405
407.3824, 216.9924
407.8645, 218.7850
408.3466, 220.7096
408.8287, 222.8047
409.3108, 225.1465
409.7929, 227.7162
410.2751, 230.2934
410.7572, 232.7734
411.2393, 235.3970
411.7214, 238.7456
412.2035, 242.7486
412.6856, 246.6489
413.1678, 249.7805
413.6499, 252.5396
414.1320, 255.7958
414.6141, 259.6334
415.0962, 263.8124
415.5783, 267.9576
416.0605, 272.3279
416.5426, 277.5073
417.0247, 284.1340
417.5068, 291.2905
417.9889, 298.1523
418.4710, 304.8073
418.9532, 311.8510
419.4353, 319.3803
419.9174, 327.4994
420.3995, 336.1563
420.8816, 345.3806
421.3637, 355.2802
421.8459, 366.4698
422.3280, 378.1951
422.8101, 389.4754
423.2922, 398.7982
423.7743, 408.7172
424.2564, 419.9081
424.7386, 432.3699
425.2207, 445.8052
425.7028, 460.2738
426.1849, 475.5797
426.6670, 491.5435
427.1491, 507.5529
427.6313, 525.1730
428.1134, 544.6311
428.5955, 565.6428
429.0776, 587.6837
429.5597, 612.2645
430.0418, 635.4349
430.5240, 655.6346
431.0061, 672.5801
431.4882, 689.7886
431.9703, 707.6912
432.4524, 724.6694
432.9345, 739.6832
433.4167, 752.7626
433.8988, 761.2990
434.3809, 764.4235
434.8630, 762.6202
435.3451, 756.6947
435.8272, 746.6669
436.3094, 733.1561
436.7915, 715.3845
437.2736, 694.4451
437.7557, 672.9257
438.2378, 650.7566
438.7199, 629.1601
439.2020, 609.0978
439.6841, 590.5324
440.1663, 573.3866
440.6484, 557.5439
441.1305, 543.1113
441.6126, 530.6679
442.0947, 519.9811
442.5768, 509.9998
443.0590, 500.0167
443.5411, 490.6041
444.0232, 482.0966
444.5053, 474.2232
444.9874, 467.9714
445.4695, 464.2638
445.9517, 462.3243
446.4338, 460.8639
446.9159, 459.6548
447.3980, 458.8890
447.8801, 458.5820
448.3622, 458.7258
448.8444, 459.5327
449.3265, 461.3954
449.8086, 463.5895
450.2907, 465.7317
450.7728, 468.1787
451.2549, 469.9316
451.7371, 471.3399
452.2192, 471.7815
452.7013, 469.8954
453.1834, 465.6735
453.6655, 459.2398
454.1476, 450.7461
454.6298, 440.2049
455.1119, 426.6810
455.5940, 409.9941
456.0761, 391.8626
456.5582, 373.5579
457.0403, 355.2156
457.5225, 337.7909
458.0046, 321.6410
458.4867, 306.8597
458.9688, 294.0908
459.4509, 283.1249
459.9330, 273.6397
460.4152, 265.8910
460.8973, 259.1467
461.3794, 252.5793
461.8615, 246.0449
462.3436, 240.0753
462.8257, 234.9056
463.3079, 230.4619
463.7900, 226.6651
464.2721, 223.8029
464.7542, 221.1431
465.2363, 218.3330
465.7184, 215.4898
466.2006, 212.9450
466.6827, 211.1344
467.1648, 209.3288
467.6469, 207.1602
468.1290, 204.3969
468.6111, 202.1340
469.0933, 200.6035
469.5754, 199.4207
470.0575, 198.2363
470.5396, 197.0515
471.0217, 195.8669
471.5038, 194.6594
471.9860, 193.4502
472.4681, 192.2532
472.9502, 191.0076
473.4323, 189.9744
473.9144, 189.4080
474.3965, 189.2812
474.8787, 188.8213
475.3608, 187.9811
475.8429, 187.0310
476.3250, 186.2925
476.8071, 185.7221
477.2892, 185.0864
477.7714, 184.2751
478.2535, 183.4558
478.7356, 182.9254
479.2177, 182.6236
479.6998, 182.3027
480.1819, 181.8109
480.6641, 181.2274
481.1462, 180.6243
481.6283, 180.0040
482.1104, 179.4063
482.5925, 178.8686
483.0746, 178.3628
483.5568, 177.8574
484.0389, 177.3083
484.5210, 176.8081
485.0031, 176.4709
485.4852, 176.2179
485.9673, 175.7911
486.4495, 174.9400
486.9316, 174.1117
487.4137, 173.4720
487.8958, 173.0687
488.3779, 172.6030
488.8600, 172.1058
489.3422, 171.5040
489.8243, 170.6831
490.3064, 169.5552
490.7885, 168.5466
491.2706, 167.7619
491.7527, 167.0863
492.2349, 166.1451
492.7170, 164.9134
493.1991, 163.8042
493.6812, 163.1045
494.1633, 162.7166
494.6454, 162.2715
495.1276, 161.7791
495.6097, 161.1399
496.0918, 160.2189
496.5739, 159.0876
497.0560, 157.8649
497.5381, 156.3840
498.0203, 155.1983
498.5024, 155.1400
498.9845, 155.7446
499.4666, 155.9790
499.9487, 154.9832
500.4308, 153.7920
500.9130, 153.0158
501.3951, 152.6842
501.8772, 152.3341
502.3593, 151.7879
502.8414, 151.2076
503.3235, 150.6901
503.8057, 150.2123
504.2878, 149.8572
504.7699, 149.6266
505.2520, 149.5164
505.7341, 149.5635
506.2162, 149.9835
506.6984, 150.1123
507.1805, 149.6633
507.6626, 148.7202
508.1447, 148.1049
508.6268, 147.8660
509.1089, 147.7681
509.5911, 147.6196
510.0732, 147.4399
510.5553, 147.5425
511.0374, 148.0390
511.5195, 148.4782
512.0016, 148.1248
512.4838, 147.2014
512.9659, 146.4577
513.4480, 146.1817
513.9301, 146.1771
514.4122, 146.3457
514.8943, 146.6303
515.3765, 146.7861
515.8586, 146.3887
516.3407, 145.9980
516.8228, 146.1628
517.3049, 147.0901
517.7870, 147.7526
518.2692, 147.5449
518.7513, 147.0168
519.2334, 146.6963
519.7155, 146.8231
520.1976, 146.9652
520.6797, 146.9860
521.1619, 146.9922
521.6440, 147.3259
522.1261, 148.2083
522.6082, 149.0240
523.0903, 149.5744
523.5724, 149.8592
524.0546, 149.9097
524.5367, 149.6441
525.0188, 149.4025
525.5009, 149.4981
525.9830, 149.9118
526.4651, 150.3883
526.9473, 150.8806
527.4294, 151.4628
527.9115, 152.3682
528.3936, 153.4723
528.8757, 154.3798
529.3578, 154.6172
529.8400, 154.7440
530.3221, 155.3985
530.8042, 156.5058
531.2863, 157.6265
531.7684, 158.4984
532.2505, 159.2872
532.7327, 160.0944
533.2148, 160.9210
533.6969, 161.8050
534.1790, 162.7238
534.6611, 163.7149
535.1432, 164.8058
535.6254, 166.1222
536.1075, 167.4089
536.5896, 168.6053
537.0717, 169.7578
537.5538, 170.9588
538.0359, 172.2217
538.5181, 173.5362
539.0002, 174.9856
539.4823, 176.5559
539.9644, 177.7061
540.4465, 178.3390
540.9286, 179.0424
541.4108, 180.4802
541.8929, 182.4977
542.3750, 184.3598
542.8571, 185.9225
543.3392, 187.3417
543.8214, 188.7695
544.3035, 190.2031
544.7856, 191.6852
545.2677, 193.4404
545.7498, 195.0840
546.2319, 196.2876
546.7141, 197.0927
547.1962, 197.7646
547.6783, 198.0430
548.1604, 198.4970
548.6425, 199.5291
549.1246, 201.4260
549.6068, 203.1398
550.0889, 204.4140
550.5710, 205.5708
551.0531, 206.9294
551.5352, 208.7028
552.0173, 210.2173
552.4995, 211.3244
552.9816, 212.1615
553.4637, 213.0169
553.9458, 213.8792
554.4279, 214.8375
554.9100, 215.8784
555.3922, 217.0486
555.8743, 218.6530
556.3564, 220.6800
556.8385, 222.6628
557.3206, 223.9750
557.8027, 225.0478
558.2849, 226.7045
558.7670, 229.1515
559.2491, 231.7813
559.7312, 234.0951
560.2133, 236.2925
560.6954, 238.6420
561.1776, 241.5202
561.6597, 244.2297
562.1418, 246.3370
562.6239, 248.0497
563.1060, 250.0782
563.5881, 252.7990
564.0703, 255.5942
564.5524, 258.4113
565.0345, 261.2684
565.5166, 263.5714
565.9987, 265.1317
566.4808, 266.4663
566.9630, 268.0439
567.4451, 269.8972
567.9272, 271.4554
568.4093, 272.6832
568.8914, 273.6191
569.3735, 274.3711
569.8557, 274.9075
570.3378, 275.1087
570.8199, 274.9743
571.3020, 274.4353
571.7841, 273.3731
572.2662, 271.8208
572.7484, 269.9094
573.2305, 267.4530
573.7126, 264.8387
574.1947, 262.4977
574.6768, 260.5281
575.1589, 257.7864
575.6411, 253.3226
576.1232, 248.3793
576.6053, 243.8799
577.0874, 240.2552
577.5695, 236.4861
578.0516, 232.5985
578.5338, 228.5893
579.0159, 224.2709
579.4980, 219.4859
579.9801, 215.2245
580.4622, 211.9003
580.9443, 209.1283
581.4265, 205.7158
581.9086, 201.6657
582.3907, 197.7934
582.8728, 194.6038
583.3549, 191.8919
583.8370, 189.1407
584.3192, 186.3414
584.8013, 183.5897
585.2834, 180.8600
585.7655, 178.2322
586.2476, 175.7598
586.7297, 173.3985
587.2118, 171.3338
587.6939, 169.7999
588.1760, 168.5312
588.6581, 167.1896
589.1403, 165.5767
589.6224, 164.0490
590.1045, 162.6183
590.5866, 161.3064
591.0687, 160.2195
591.5508, 159.4975
592.0330, 158.6979
592.5151, 157.5776
592.9972, 156.1879
593.4793, 155.1489
593.9614, 154.4830
594.4435, 154.0031
594.9257, 153.6434
595.4078, 153.3561
595.8899, 152.9931
596.3720, 152.5474
596.8541, 152.0014
597.3362, 151.1213
597.8184, 150.1879
598.3005, 149.6461
598.7826, 150.0005
599.2647, 150.3088
599.7468, 150.1111
600.2289, 149.5520
600.7111, 148.9479
601.1932, 147.9728
601.6753, 147.3880
602.1574, 147.5549
602.6395, 148.4049
603.1216, 149.0099
603.6038, 149.3018
604.0859, 149.4741
604.5680, 149.5564
605.0501, 149.5251
605.5322, 149.8206
606.0143, 150.4888
606.4965, 151.2875
606.9786, 151.8813
607.4607, 152.3872
607.9428, 153.1841
608.4249, 154.3323
608.9070, 155.8440
609.3892, 157.7610
609.8713, 160.0549
610.3534, 162.7287
610.8355, 165.7802
611.3176, 169.1398
611.7997, 172.9203
612.2819, 177.0077
612.7640, 181.1231
613.2461, 185.0306
613.7282, 189.0766
614.2103, 193.2925
614.6924, 197.5720
615.1746, 202.6501
615.6567, 208.4081
616.1388, 215.1030
616.6209, 223.2323
617.1030, 232.8085
617.5851, 242.3649
618.0673, 251.8430
618.5494, 261.1677
619.0315, 270.0245
619.5136, 278.4761
619.9957, 286.4730
620.4778, 293.8580
620.9600, 301.2932
621.4421, 309.2482
621.9242, 317.7861
622.4063, 326.8933
622.8884, 338.9781
623.3705, 349.3014
623.8527, 357.2560
624.3348, 362.3146
624.8169, 361.6321
625.2990, 354.2533
625.7811, 341.6617
626.2632, 323.3740
626.7454, 298.8559
627.2275, 275.2067
627.7096, 251.7734
628.1917, 230.9195
628.6738, 214.7985
629.1559, 203.1965
629.6381, 193.9436
630.1202, 187.0225
630.6023, 181.4734
631.0844, 175.9275
631.5665, 170.8848
632.0486, 167.5018
632.5308, 166.7843
633.0129, 166.7147
633.4950, 165.9623
633.9771, 164.8579
634.4592, 164.0218
634.9413, 163.7710
635.4235, 163.6840
635.9056, 163.5884
636.3877, 163.5208
636.8698, 163.7559
637.3519, 164.4259
637.8340, 165.1772
638.3162, 165.8652
638.7983, 166.4959
639.2804, 167.2488
639.7625, 168.1964
640.2446, 168.8750
640.7267, 168.7349
641.2089, 168.0030
641.6910, 167.4457
642.1731, 167.1584
642.6552, 166.8862
643.1373, 166.6378
643.6194, 166.1879
644.1016, 165.1957
644.5837, 163.3480
645.0658, 161.3429
645.5479, 159.2781
646.0300, 157.3083
646.5121, 155.7430
646.9943, 155.0973
647.4764, 154.2709
647.9585, 153.0241
648.4406, 151.4933
648.9227, 150.1105
649.4048, 148.8808
649.8870, 147.7946
650.3691, 146.8270
650.8512, 145.9860
651.3333, 145.2906
651.8154, 144.7415
652.2975, 144.2698
652.7797, 143.9046
653.2618, 143.5476
653.7439, 142.9884
654.2260, 142.2037
654.7081, 141.5140
655.1902, 141.1074
655.6724, 140.8931
656.1545, 140.8177
656.6366, 141.0246
657.1187, 141.0690
657.6008, 140.8097
658.0829, 140.4108
658.5651, 140.0157
659.0472, 139.5854
659.5293, 139.2833
660.0114, 139.1700
660.4935, 139.1470
660.9756, 139.0331
661.4578, 138.8298
661.9399, 138.5301
662.4220, 138.0041
662.9041, 137.5091
663.3862, 137.5137
663.8683, 137.9233
664.3505, 138.3614
664.8326, 138.8613
665.3147, 139.1179
665.7968, 138.7377
666.2789, 137.7500
666.7610, 137.0563
667.2432, 137.0261
667.7253, 137.2181
668.2074, 137.4434
668.6895, 137.7270
669.1716, 137.9305
669.6537, 138.0741
670.1359, 138.1013
670.6180, 137.8779
671.1001, 137.4205
671.5822, 137.2405
672.0643, 137.4463
672.5464, 137.6403
673.0286, 137.1479
673.5107, 136.3174
673.9928, 135.9023
674.4749, 136.2897
674.9570, 136.7839
675.4391, 136.9210
675.9213, 136.8422
676.4034, 136.7782
676.8855, 136.8650
677.3676, 136.8940
677.8497, 136.8199
678.3318, 136.6563
678.8140, 136.4125
679.2961, 136.0203
679.7782, 135.7079
680.2603, 135.5470
680.7424, 135.5252
681.2245, 135.5517
681.7067, 135.6268
682.1888, 135.8596
682.6709, 136.6178
683.1530, 137.4648
683.6351, 137.5700
684.1172, 136.9392
684.5994, 136.2525
685.0815, 135.8329
685.5636, 135.6001
686.0457, 135.5027
686.5278, 135.5489
687.0099, 135.6776
687.4921, 135.9612
687.9742, 136.2662
688.4563, 136.4965
688.9384, 136.6245
689.4205, 136.7567
689.9026, 136.8970
690.3848, 137.0410
690.8669, 137.2319
691.3490, 137.4474
691.8311, 137.4815
692.3132, 137.2505
692.7953, 136.9157
693.2775, 136.5636
693.7596, 136.2577
694.2417, 136.1230
694.7238, 136.2509
695.2059, 136.5176
695.6880, 137.1024
696.1702, 137.7948
696.6523, 138.0238
697.1344, 137.1421
697.6165, 136.5009
698.0986, 136.5223
698.5807, 137.0422
699.0629, 137.0514
699.5450, 136.3997
700.0271, 135.9459
700.5092, 136.2661
700.9913, 137.0901
701.4734, 137.4722
701.9556, 137.4375
702.4377, 137.3337
702.9198, 137.3287
703.4019, 137.4284
703.8840, 137.7490
704.3661, 138.3163
704.8483, 138.5886
705.3304, 138.0437
705.8125, 137.3590
706.2946, 136.9822
706.7767, 136.9812
707.2589, 137.1658
707.7410, 137.6788
708.2231, 138.1719
708.7052, 138.2641
709.1873, 137.9430
709.6694, 137.7767
710.1516, 137.8366
710.6337, 137.9993
711.1158, 138.1244
711.5979, 138.2360
712.0800, 138.3803
712.5621, 138.5590
713.0443, 138.7978
713.5264, 139.2521
714.0085, 139.7389
714.4906, 139.9928
714.9727, 139.7555
715.4548, 139.5070
715.9370, 139.3101
716.4191, 139.1541
716.9012, 139.0123
717.3833, 138.8879
717.8654, 138.7565
718.3475, 138.5455
718.8297, 138.3803
719.3118, 138.7156
719.7939, 139.4683
720.2760, 140.0892
720.7581, 140.2475
721.2402, 140.1495
721.7224, 139.8804
722.2045, 139.5058
722.6866, 139.3161
723.1687, 139.7671
723.6508, 140.1230
724.1329, 139.8552
724.6151, 138.9485
725.0972, 138.6953
725.5793, 139.5058
726.0614, 140.2786
726.5435, 140.3627
727.0256, 139.7990
727.5078, 139.6815
727.9899, 140.0427
728.4720, 140.4315
728.9541, 140.4629
729.4362, 140.2835
729.9183, 140.1245
730.4005, 140.0072
730.8826, 139.9637
731.3647, 140.1195
731.8468, 140.2907
732.3289, 140.3109
732.8110, 140.0702
733.2932, 139.9049
733.7753, 139.8798
734.2574, 139.8962
734.7395, 139.8402
735.2216, 139.6653
735.7037, 139.7305
736.1859, 140.1148
736.6680, 140.5763
737.1501, 140.8549
737.6322, 140.9644
738.1143, 140.9221
738.5964, 140.6954
739.0786, 140.4375
739.5607, 140.1623
740.0428, 139.9711
740.5249, 140.0050
741.0070, 140.6983
741.4891, 141.1321
741.9713, 140.9044
742.4534, 140.4211
742.9355, 140.2854
743.4176, 140.6207
743.8997, 140.9066
744.3818, 141.0176
744.8640, 141.0646
745.3461, 141.3134
745.8282, 141.7270
746.3103, 142.0571
746.7924, 142.1351
747.2745, 142.1772
747.7567, 142.4941
748.2388, 142.9546
748.7209, 143.2266
749.2030, 143.1245
749.6851, 142.8801
750.1672, 142.4355
750.6494, 141.8957
751.1315, 141.6577
751.6136, 141.8087
752.0957, 142.0759
752.5778, 142.3992
753.0599, 142.7651
753.5421, 143.2162
754.0242, 143.7291
754.5063, 144.0135
754.9884, 143.5647
755.4705, 142.9945
755.9526, 143.2260
756.4348, 144.1100
756.9169, 144.8216
757.3990, 144.6846
757.8811, 144.5436
758.3632, 144.9380
758.8453, 145.8845
759.3275, 146.3558
759.8096, 146.0152
760.2917, 145.7968
760.7738, 146.2289
761.2559, 147.2215
761.7380, 147.9681
762.2202, 148.4627
762.7023, 148.7734
763.1844, 148.8504
763.6665, 148.8245
764.1486, 148.8161
764.6307, 148.8430
765.1129, 149.1095
765.5950, 149.9452
766.0771, 150.8797
766.5592, 151.6362
767.0413, 152.1894
767.5234, 152.5911
768.0056, 152.8408
768.4877, 152.9408
768.9698, 152.7146
769.4519, 152.1755
769.9340, 152.4903
770.4161, 153.7511
770.8983, 155.0661
771.3804, 155.4925
771.8625, 155.5158
772.3446, 155.8573
772.8267, 156.6145
773.3088, 157.5943
773.7910, 158.9678
774.2731, 160.3448
774.7552, 161.3823
775.2373, 161.8409
775.7194, 162.5743
776.2015, 163.7296
776.6837, 164.9397
777.1658, 165.7645
777.6479, 166.2267
778.1300, 167.3195
778.6121, 169.1756
779.0942, 171.2504
779.5764, 173.1441
780.0585, 174.8653
780.5406, 176.3742
781.0227, 177.5488
781.5048, 179.0099
781.9869, 181.2866
782.4691, 183.8229
782.9512, 186.0688
783.4332, 187.5508
783.9153, 189.7283
784.3975, 192.7496
784.8796, 196.1463
785.3617, 199.3863
785.8438, 202.4736
786.3259, 205.8192
786.8080, 209.5005
787.2902, 213.3666
787.7723, 217.1722
788.2544, 221.1158
788.7365, 225.3967
789.2186, 230.0951
789.7007, 235.1518
790.1829, 240.7313
790.6650, 246.6304
791.1471, 252.5718
791.6292, 258.6125
792.1113, 264.6305
792.5934, 270.5609
793.0756, 276.7531
793.5577, 284.0439
794.0398, 292.1854
794.5219, 299.7040
795.0040, 306.3334
795.4861, 312.7435
795.9683, 319.9286
796.4504, 327.3134
796.9325, 334.3092
797.4146, 340.8593
797.8967, 346.6873
798.3788, 351.6170
798.8610, 355.9022
799.3431, 359.7820
799.8252, 363.4157
800.3073, 366.2992
800.7894, 368.4299
801.2715, 369.6945
801.7537, 369.5304
802.2358, 368.3336
802.7179, 367.5421
803.2000, 367.5655
803.6821, 367.6631
804.1642, 367.9457
804.6464, 367.6718
805.1285, 365.8867
805.6106, 361.0475
806.0927, 356.9146
806.5748, 354.0034
807.0569, 351.7559
807.5391, 349.6066
808.0212, 347.5949
808.5033, 345.4859
808.9854, 343.2692
809.4675, 340.9082
809.9496, 338.4955
810.4318, 335.8722
810.9139, 332.7504
811.3960, 329.0562
811.8781, 324.8279
812.3602, 319.8142
812.8423, 314.3895
813.3245, 309.0115
813.8066, 303.7436
814.2887, 298.4139
814.7708, 293.0912
815.2529, 287.6854
815.7350, 282.0206
816.2172, 276.1223
816.6993, 270.5139
817.1814, 265.3247
817.6635, 260.3249
818.1456, 255.1973
818.6277, 250.2232
819.1099, 245.8629
819.5920, 242.4208
820.0741, 239.0881
820.5562, 235.4836
821.0383, 231.9674
821.5204, 228.7766
822.0026, 225.8534
822.4847, 223.3897
822.9668, 221.3867
823.4489, 219.8508
823.9310, 219.0567
824.4131, 218.7674
824.8953, 218.0942
825.3774, 216.8811
825.8595, 215.7852
826.3416, 215.3864
826.8237, 215.3036
827.3058, 215.2095
827.7880, 215.0809
828.2701, 214.8437
828.7522, 214.5176
829.2343, 214.0682
829.7164, 213.5090
830.1985, 212.8685
830.6807, 211.9049
831.1628, 210.6242
831.6449, 209.0382
832.1270, 207.1731
832.6091, 205.0183
833.0912, 202.5053
833.5734, 199.6463
834.0555, 196.7516
834.5376, 193.7550
835.0197, 190.9848
835.5018, 188.7466
835.9839, 187.1598
836.4661, 185.2023
836.9482, 182.6941
837.4303, 180.2474
837.9124, 178.2998
838.3945, 176.7712
838.8766, 175.3141
839.3588, 173.9093
839.8409, 172.5032
840.3230, 170.9008
840.8051, 169.3860
841.2872, 168.2661
841.7693, 167.5514
842.2515, 166.8752
842.7336, 166.0450
843.2157, 165.3806
843.6978, 165.0885
844.1799, 165.1192
844.6620, 164.7403
845.1442, 163.9202
845.6263, 163.2003
846.1084, 163.0675
846.5905, 163.1503
847.0726, 162.7884
847.5547, 162.0759
848.0369, 161.4772
848.5190, 161.2725
849.0011, 161.1721
849.4832, 161.0549
849.9653, 160.9288
850.4474, 160.8713
850.9296, 160.9253
851.4117, 160.9035
851.8938, 160.6487
852.3759, 160.3574
852.8580, 160.7224
853.3401, 161.5777
853.8223, 162.1559
854.3044, 161.7970
854.7865, 161.3172
855.2686, 161.2338
855.7507, 161.4595
856.2328, 161.7804
856.7150, 162.2106
857.1971, 162.6572
857.6792, 163.0850
858.1613, 163.5343
858.6434, 164.1427
859.1255, 164.8947
859.6077, 165.4799
860.0898, 165.7217
860.5719, 165.9442
861.0540, 166.6469
861.5361, 167.5525
862.0182, 168.1990
862.5004, 168.0812
862.9825, 168.2040
863.4646, 169.1328
863.9467, 170.2228
864.4288, 170.6911
864.9109, 170.3176
865.3931, 170.5694
865.8752, 171.7369
866.3573, 173.0262
866.8394, 173.3497
867.3215, 173.1178
867.8036, 173.2086
868.2858, 173.8206
868.7679, 174.5704
869.2500, 175.5218
869.7321, 176.3613
870.2142, 176.7328
870.6964, 176.3920
871.1785, 176.4717
871.6606, 177.0534
872.1427, 177.8497
872.6248, 178.7312
873.1069, 179.6354
873.5891, 180.2855
874.0712, 180.6761
874.5533, 180.9143
875.0354, 180.7316
875.5175, 180.6904
875.9996, 181.3241
876.4818, 182.6897
876.9639, 184.0040
877.4460, 185.3180
877.9281, 186.3651
878.4102, 186.9105
878.8923, 187.0792
879.3745, 187.7049
879.8566, 188.7673
880.3387, 189.8773
880.8208, 190.7051
881.3029, 191.5524
881.7850, 192.8614
882.2672, 194.4822
882.7493, 195.8703
883.2314, 196.6787
883.7135, 197.4664
884.1956, 198.2977
884.6777, 199.2277
885.1599, 200.5143
885.6420, 202.2004
886.1241, 203.5262
886.6062, 204.1441
887.0883, 204.5602
887.5704, 205.5875
888.0526, 206.9069
888.5347, 207.9085
889.0168, 208.1674
889.4989, 208.4048
889.9810, 209.1130
890.4631, 209.7350
890.9453, 209.5838
891.4274, 208.4500
891.9095, 207.4988
892.3916, 206.8950
892.8737, 206.2058
893.3558, 204.8434
893.8380, 203.0445
894.3201, 201.2514
894.8022, 199.5077
895.2843, 197.8789
895.7664, 196.6800
896.2485, 195.3842
896.7307, 193.4920
897.2128, 190.8647
897.6949, 188.4937
898.1770, 186.3696
898.6591, 184.5364
899.1412, 183.1655
899.6234, 182.0799
900.1055, 180.6580
900.5876, 178.9506
901.0697, 177.3208
901.5518, 176.0441
902.0339, 174.9010
902.5161, 173.8544
902.9982, 172.8737
903.4803, 171.7134
903.9624, 170.2748
904.4445, 168.9110
904.9266, 167.7406
905.4088, 166.7198
905.8909, 165.7302
906.3730, 164.7895
906.8551, 163.9931
907.3372, 163.5639
907.8193, 163.0176
908.3015, 161.7876
908.7836, 160.2856
909.2657, 159.2348
909.7478, 159.0732
910.2299, 158.6812
910.7120, 157.9399
911.1942, 157.0248
911.6763, 156.1418
912.1584, 155.2800
912.6405, 154.3461
913.1226, 153.3275
913.6047, 152.3051
914.0869, 151.3210
914.5690, 150.3830
915.0511, 149.4754
915.5332, 148.5586
916.0153, 147.8640
916.4974, 147.4384
916.9796, 147.1604
917.4617, 147.0321
917.9438, 147.0070
918.4259, 146.7261
918.9080, 146.2018
919.3901, 145.6028
919.8723, 144.9061
920.3544, 144.2900
920.8365, 143.9581
921.3186, 143.8537
921.8007, 143.6388
922.2828, 143.1586
922.7650, 142.7506
923.2471, 142.5340
923.7292, 142.4109
924.2113, 142.0473
924.6934, 141.5094
925.1755, 141.2788
925.6577, 141.6856
926.1398, 142.1006
926.6219, 141.9201
927.1040, 141.4253
927.5861, 141.0110
928.0682, 140.7588
928.5504, 140.6181
929.0325, 140.6666
929.5146, 140.7110
929.9967, 140.5354
930.4788, 140.1650
930.9609, 139.7464
931.4431, 139.2827
931.9252, 138.9233
932.4073, 138.9378
932.8894, 138.9913
933.3715, 138.6356
933.8536, 137.7776
934.3358, 137.6305
934.8179, 138.8600
935.3000, 139.7761
935.7821, 139.5431
936.2642, 138.4696
936.7463, 137.7853
937.2285, 137.4527
937.7106, 137.2482
938.1927, 137.0134
938.6748, 136.8964
939.1569, 137.1241
939.6390, 137.5364
940.1212, 137.7725
940.6033, 137.7814
941.0854, 137.6059
941.5675, 137.1804
942.0496, 136.6774
942.5317, 136.3000
943.0139, 136.0670
943.4960, 136.1479
943.9781, 136.6348
944.4602, 137.0394
944.9423, 136.9691
945.4244, 136.6599
945.9066, 136.2677
946.3887, 135.7266
946.8708, 135.5106
947.3529, 135.7637
947.8350, 136.0095
948.3171, 135.8575
948.7993, 135.4632
949.2814, 135.5104
949.7635, 135.9318
950.2456, 136.2576
950.7277, 136.2599
951.2098, 136.0339
951.6920, 135.4482
952.1741, 134.6627
952.6562, 134.2258
953.1383, 134.1859
953.6204, 134.4337
954.1025, 135.0897
954.5847, 135.7541
955.0668, 135.5878
955.5489, 134.9030
956.0310, 134.5513
956.5131, 134.8532
956.9952, 135.2012
957.4774, 135.3215
957.9595, 135.3160
958.4416, 135.2565
958.9237, 135.0994
959.4058, 135.1141
959.8879, 135.3187
960.3701, 135.6166
960.8522, 136.0263
961.3343, 136.4451
961.8164, 136.6481
962.2985, 136.6509
962.7806, 136.5720
963.2628, 136.3664
963.7449, 136.1947
964.2270, 136.1281
964.7091, 136.1387
965.1912, 136.1531
965.6733, 136.1709
966.1555, 136.1819
966.6376, 136.1590
967.1197, 136.1900
967.6018, 136.5421
968.0839, 136.9838
968.5660, 137.0955
969.0482, 136.5354
969.5303, 136.1822
970.0124, 136.1959
970.4945, 136.4833
970.9766, 137.1266
971.4587, 138.1434
971.9409, 138.6103
972.4230, 138.5042
972.9051, 138.1635
973.3872, 137.5652
973.8693, 137.0593
974.3514, 137.0429
974.8336, 137.4724
975.3157, 137.9834
975.7978, 138.7475
976.2799, 139.1873
976.7620, 139.0491
977.2441, 138.6177
977.7263, 138.5888
978.2084, 138.8907
978.6905, 139.1148
979.1726, 139.0755
979.6547, 139.1144
980.1368, 139.5780
980.6190, 140.2129
981.1010, 140.7362
981.5831, 141.0858
982.0652, 141.4170
982.5474, 141.7031
983.0295, 142.0434
983.5116, 142.4524
983.9937, 142.9859
984.4758, 143.9533
984.9579, 145.2742
985.4401, 146.3221
985.9222, 146.4071
986.4043, 146.4942
986.8864, 147.1377
987.3685, 148.1374
987.8506, 148.8535
988.3328, 149.1788
988.8149, 149.9123
989.2970, 151.3274
989.7791, 153.0049
990.2612, 154.3837
990.7433, 155.6319
991.2255, 157.0038
991.7076, 158.4980
992.1897, 160.2709
992.6718, 162.2034
993.1539, 164.5648
993.6360, 167.3966
994.1182, 170.7112
994.6003, 175.3766
995.0824, 181.4287
995.5645, 188.0938
996.0466, 194.6138
996.5287, 201.8944
997.0109, 211.2937
997.4930, 222.1612
997.9751, 232.3267
998.4572, 240.2364
998.9393, 249.8475
999.4214, 261.7545
999.9036, 275.6510
1000.386, 290.6146
1000.868, 306.9520
1001.350, 325.6819
1001.832, 346.9581
1002.314, 370.0489
1002.796, 394.4166
1003.278, 419.9833
1003.760, 446.2806
1004.243, 473.4180
1004.725, 502.3367
1005.207, 533.8552
1005.689, 563.9128
1006.171, 594.2686
1006.653, 619.1126
1007.135, 631.1994
1007.617, 630.6893
1008.100, 618.3488
1008.582, 587.5942
1009.064, 553.3304
1009.546, 516.5114
1010.028, 479.9618
1010.510, 447.2173
1010.992, 418.2249
1011.474, 392.1201
1011.956, 368.6750
1012.439, 347.0415
1012.921, 326.3688
1013.403, 307.1691
1013.885, 289.8332
1014.367, 274.4956
1014.849, 261.1796
1015.331, 250.0593
1015.813, 240.4895
1016.296, 232.5507
1016.778, 225.8148
1017.260, 219.2093
1017.742, 212.9798
1018.224, 207.7116
1018.706, 204.0294
1019.188, 200.6497
1019.670, 197.0126
1020.152, 193.4958
1020.635, 190.4687
1021.117, 187.9599
1021.599, 185.7304
1022.081, 183.7773
1022.563, 181.9451
1023.045, 180.0690
1023.527, 178.2739
1024.009, 176.8005
1024.492, 175.5863
1024.974, 174.2010
1025.456, 172.4699
1025.938, 170.6762
1026.420, 168.8300
1026.902, 167.0396
1027.384, 165.5442
1027.866, 164.3054
1028.349, 163.1603
1028.831, 162.0829
1029.313, 161.0876
1029.795, 160.2789
1030.277, 159.4766
1030.759, 158.5006
1031.241, 157.3236
1031.723, 156.2276
1032.205, 155.1714
1032.688, 154.4091
1033.170, 154.3132
1033.652, 154.4053
1034.134, 153.8072
1034.616, 152.8240
1035.098, 152.2042
1035.580, 152.5791
1036.062, 152.8207
1036.544, 152.7851
1037.027, 152.5544
1037.509, 152.1133
1037.991, 151.5225
1038.473, 151.4151
1038.955, 151.8486
1039.437, 151.9290
1039.919, 150.4915
1040.401, 148.9350
1040.884, 148.2742
1041.366, 148.4492
1041.848, 148.5352
1042.330, 148.5134
1042.812, 148.5056
1043.294, 148.5845
1043.776, 148.6246
1044.258, 148.3454
1044.740, 147.9268
1045.223, 147.6998
1045.705, 147.8503
1046.187, 147.8869
1046.669, 147.5804
1047.151, 147.3176
1047.633, 147.4368
1048.115, 147.8525
1048.597, 147.7532
1049.079, 147.2130
1049.562, 146.8728
1050.044, 147.3945
1050.526, 147.9318
1051.008, 147.8860
1051.490, 147.4991
1051.972, 147.3034
1052.454, 147.3398
1052.936, 147.4680
1053.419, 147.7211
1053.901, 147.8471
1054.383, 147.4112
1054.865, 146.7663
1055.347, 146.2857
1055.829, 146.0214
1056.311, 146.2574
1056.793, 147.7620
1057.276, 148.8318
1057.758, 148.7996
1058.240, 148.1286
1058.722, 148.1125
1059.204, 148.6081
1059.686, 148.9727
1060.168, 148.9322
1060.650, 148.9433
1061.132, 149.3940
1061.615, 149.9434
1062.097, 150.2474
1062.579, 150.2497
1063.061, 150.4253
1063.543, 150.7705
1064.025, 151.2998
1064.507, 152.1839
1064.989, 153.1403
1065.471, 153.7405
1065.954, 154.1282
1066.436, 154.6743
1066.918, 155.7139
1067.400, 156.5074
1067.882, 156.8653
1068.364, 157.2342
1068.846, 158.3465
1069.328, 159.8808
1069.811, 160.6353
1070.293, 160.5583
1070.775, 160.8515
1071.257, 162.5295
1071.739, 164.3287
1072.221, 165.7535
1072.703, 166.8378
1073.185, 167.7124
1073.667, 168.3653
1074.150, 168.8165
1074.632, 168.9400
1075.114, 169.3111
1075.596, 170.6514
1076.078, 172.4250
1076.560, 174.1008
1077.042, 175.6282
1077.524, 176.9007
1078.006, 177.7893
1078.489, 178.8674
1078.971, 180.4322
1079.453, 182.3704
1079.935, 184.3965
1080.417, 186.5947
1080.899, 189.1714
1081.381, 192.7590
1081.863, 195.8990
1082.345, 198.0214
1082.828, 200.1616
1083.310, 203.3566
1083.792, 207.4730
1084.274, 211.5613
1084.756, 215.6064
1085.238, 219.9207
1085.720, 224.4959
1086.202, 229.6041
1086.685, 235.3793
1087.167, 241.8288
1087.649, 248.9932
1088.131, 256.8882
1088.613, 265.2410
1089.095, 273.9018
1089.577, 283.5840
1090.059, 295.4618
1090.542, 308.4734
1091.024, 321.1887
1091.506, 333.4479
1091.988, 347.8855
1092.470, 365.1838
1092.952, 383.1372
1093.434, 400.8196
1093.916, 418.8985
1094.398, 438.6690
1094.880, 460.0059
1095.363, 481.9962
1095.845, 504.7748
1096.327, 528.0014
1096.809, 552.0132
1097.291, 575.9800
1097.773, 599.6550
1098.255, 622.9819
1098.737, 645.1829
1099.220, 666.0285
1099.702, 684.6431
1100.184, 701.3185
1100.666, 714.7333
1101.148, 724.8451
1101.630, 730.9426
1102.112, 732.3239
1102.594, 728.8941
1103.077, 721.3855
1103.559, 709.6976
1104.041, 695.2374
1104.523, 678.5056
1105.005, 659.9067
1105.487, 638.8007
1105.969, 615.6815
1106.451, 593.5504
1106.933, 573.0304
1107.416, 552.2618
1107.898, 530.6608
1108.380, 508.8898
1108.862, 486.7644
1109.344, 465.1918
1109.826, 445.3315
1110.308, 427.7631
1110.790, 410.5424
1111.272, 392.9742
1111.755, 376.3524
1112.237, 361.1042
1112.719, 346.9554
1113.201, 332.4083
1113.683, 318.0652
1114.165, 305.4161
1114.647, 295.1095
1115.129, 285.5553
1115.612, 275.8881
1116.094, 266.8847
1116.576, 259.1732
1117.058, 252.7046
1117.540, 246.7522
1118.022, 241.3003
1118.504, 236.1800
1118.986, 231.1960
1119.469, 226.6455
1119.951, 222.8405
1120.433, 219.5517
1120.915, 216.4913
1121.397, 213.7204
1121.879, 210.8686
1122.361, 207.8851
1122.843, 205.2602
1123.325, 203.7088
1123.807, 202.4500
1124.290, 200.4389
1124.772, 197.9846
1125.254, 196.3375
1125.736, 195.9828
1126.218, 195.3839
1126.700, 194.2727
1127.182, 193.1842
1127.664, 192.8801
1128.147, 192.9489
1128.629, 192.6218
1129.111, 191.8751
1129.593, 191.3942
1130.075, 191.5754
1130.557, 191.7432
1131.039, 191.7001
1131.521, 191.6162
1132.004, 191.8296
1132.486, 192.2700
1132.968, 192.6828
1133.450, 192.9724
1133.932, 193.6260
1134.414, 195.1991
1134.896, 196.8383
1135.378, 198.0714
1135.860, 199.0671
1136.343, 200.6176
1136.825, 202.6519
1137.307, 204.6089
1137.789, 206.1615
1138.271, 207.9985
1138.753, 210.6971
1139.235, 213.7562
1139.717, 216.6185
1140.199, 219.2915
1140.682, 222.2858
1141.164, 225.5756
1141.646, 229.1670
1142.128, 232.9183
1142.610, 237.0954
1143.092, 242.1101
1143.574, 247.5671
1144.056, 252.7976
1144.539, 257.5395
1145.021, 263.1859
1145.503, 269.8284
1145.985, 276.5732
1146.467, 282.7676
1146.949, 288.6061
1147.431, 294.1668
1147.913, 299.5319
1148.396, 305.0309
1148.878, 310.8250
1149.360, 316.3748
1149.842, 321.7005
1150.324, 326.7253
1150.806, 331.6267
1151.288, 335.9780
1151.770, 338.9760
1152.252, 340.7094
1152.734, 342.2876
1153.217, 344.6867
1153.699, 345.6598
1154.181, 344.6938
1154.663, 342.3262
1155.145, 339.1858
1155.627, 335.2611
1156.109, 330.3915
1156.591, 324.5529
1157.074, 318.4959
1157.556, 312.3232
1158.038, 306.0436
1158.520, 299.6207
1159.002, 293.0568
1159.484, 286.1972
1159.966, 279.2060
1160.448, 272.6287
1160.931, 266.6462
1161.413, 260.6859
1161.895, 254.4235
1162.377, 248.3694
1162.859, 242.6358
1163.341, 237.3621
1163.823, 233.4389
1164.305, 230.5683
1164.787, 227.2798
1165.270, 222.9546
1165.752, 218.5649
1166.234, 214.4665
1166.716, 210.7069
1167.198, 207.3126
1167.680, 204.2707
1168.162, 201.6841
1168.644, 199.4851
1169.126, 197.2512
1169.609, 194.7533
1170.091, 192.1769
1170.573, 189.1230
1171.055, 186.3847
1171.537, 184.9416
1172.019, 184.9509
1172.501, 184.1881
1172.983, 182.6777
1173.466, 181.0083
1173.948, 179.4021
1174.430, 177.9412
1174.912, 176.8037
1175.394, 175.8074
1175.876, 174.5877
1176.358, 173.0931
1176.840, 171.9129
1177.323, 171.1017
1177.805, 170.0962
1178.287, 168.0346
1178.769, 166.0172
1179.251, 165.2411
1179.733, 165.2168
1180.215, 164.5376
1180.697, 162.9697
1181.179, 161.8232
1181.661, 161.2523
1182.144, 160.8618
1182.626, 160.4349
1183.108, 159.8970
1183.590, 159.1234
1184.072, 158.1649
1184.554, 157.2579
1185.036, 156.4011
1185.518, 155.6698
1186.001, 155.0925
1186.483, 154.5137
1186.965, 153.5965
1187.447, 152.7132
1187.929, 152.4013
1188.411, 152.6219
1188.893, 152.4712
1189.375, 151.8073
1189.858, 151.1428
1190.340, 150.5594
1190.822, 150.1175
1191.304, 149.9991
1191.786, 149.9917
1192.268, 149.8105
1192.750, 149.4196
1193.232, 149.1611
1193.714, 149.1094
1194.197, 149.0044
1194.679, 148.8004
1195.161, 148.4324
1195.643, 147.6298
1196.125, 146.6955
1196.607, 146.0444
1197.089, 145.7678
1197.571, 145.6257
1198.053, 145.6562
1198.536, 145.6384
1199.018, 145.4678
1199.500, 145.2544
1199.982, 145.2275
1200.464, 145.2508
1200.946, 145.0941
1201.428, 144.6526
1201.910, 144.3367
1202.393, 144.2694
1202.875, 143.9800
1203.357, 143.1165
1203.839, 142.1059
1204.321, 141.5626
1204.803, 141.4138
1205.285, 141.5886
1205.767, 142.3238
1206.250, 142.5799
1206.732, 142.1798
1207.214, 141.7625
1207.696, 141.6948
1208.178, 141.8179
1208.660, 141.9088
1209.142, 141.9700
1209.624, 142.0120
1210.106, 142.0786
1210.589, 142.0126
1211.071, 141.7761
1211.553, 141.5210
1212.035, 141.3158
1212.517, 141.1769
1212.999, 141.1693
1213.481, 141.2368
1213.963, 141.2570
1214.445, 141.1315
1214.928, 141.1077
1215.410, 141.2488
1215.892, 141.2952
1216.374, 140.9418
1216.856, 140.4424
1217.338, 140.1772
1217.820, 140.0993
1218.302, 140.0907
1218.785, 140.1003
1219.267, 140.2803
1219.749, 140.7310
1220.231, 141.0019
1220.713, 140.5092
1221.195, 139.7614
1221.677, 139.5145
1222.159, 139.6399
1222.641, 139.7043
1223.124, 139.3358
1223.606, 139.0027
1224.088, 139.7877
1224.570, 140.2248
1225.052, 140.3325
1225.534, 139.1245
1226.016, 139.6155
1226.498, 139.4256
1226.980, 139.2077
1227.463, 139.9378
1227.945, 138.9212
1228.427, 139.6362
1228.909, 139.6600
1229.391, 140.0002
1229.873, 139.6553
1230.355, 139.0216
1230.837, 138.4937
1231.320, 138.4760
1231.802, 139.2785
1232.284, 139.4718
1232.766, 138.8453
1233.248, 138.0225
1233.730, 137.4433
1234.212, 137.0950
1234.694, 137.0948
1235.177, 137.3353
1235.659, 137.3581
1236.141, 137.0576
1236.623, 137.0775
1237.105, 137.5418
1237.587, 137.9865
1238.069, 137.9791
1238.551, 137.7669
1239.033, 137.4673
1239.516, 137.1481
1239.998, 137.0319
1240.480, 137.1485
1240.962, 137.1846
1241.444, 137.0871
1241.926, 136.9679
1242.408, 136.9275
1242.890, 136.8924
1243.372, 136.6954
1243.855, 136.4742
1244.337, 136.7160
1244.819, 137.4419
1245.301, 137.9223
1245.783, 138.0486
1246.265, 137.8889
1246.747, 137.1090
1247.229, 136.4452
1247.712, 136.5595
1248.194, 137.1034
1248.676, 137.2619
1249.158, 137.0668
1249.640, 136.9019
1250.122, 136.8201
1250.604, 136.9208
1251.086, 137.6565
1251.568, 138.1503
1252.051, 137.8060
1252.533, 137.0283
1253.015, 136.7334
1253.497, 136.8305
1253.979, 136.8512
1254.461, 136.7178
1254.943, 136.5628
1255.425, 136.3117
1255.907, 136.2532
1256.390, 136.5891
1256.872, 137.0574
1257.354, 137.0578
1257.836, 136.7484
1258.318, 136.7334
1258.800, 137.1123
1259.282, 137.2736
1259.764, 136.5519
1260.247, 136.1564
1260.729, 136.5466
1261.211, 137.2199
1261.693, 137.2236
1262.175, 136.8589
1262.657, 136.8833
1263.139, 137.4031
1263.621, 137.4789
1264.104, 136.3926
1264.586, 135.8699
1265.068, 136.5014
1265.550, 137.4493
1266.032, 137.3823
1266.514, 136.8452
1266.996, 136.7592
1267.478, 137.2108
1267.960, 137.3276
1268.443, 136.9283
1268.925, 136.5404
1269.407, 136.2483
1269.889, 136.1484
1270.371, 136.5967
1270.853, 137.1386
1271.335, 137.2490
1271.817, 136.8839
1272.299, 136.3228
1272.782, 135.4644
1273.264, 135.1624
1273.746, 135.7033
1274.228, 136.3289
1274.710, 136.3061
1275.192, 136.0479
1275.674, 135.8348
1276.156, 135.7051
1276.639, 135.8117
1277.121, 136.1566
1277.603, 136.1786
1278.085, 135.7182
1278.567, 135.4036
1279.049, 136.0234
1279.531, 136.6136
1280.013, 136.4484
1280.495, 135.8860
1280.978, 135.8907
1281.460, 136.3689
1281.942, 136.7588
1282.424, 136.9712
1282.906, 137.0203
1283.388, 136.7686
1283.870, 136.5182
1284.352, 136.3305
1284.834, 136.2678
1285.317, 136.6270
1285.799, 137.1831
1286.281, 137.2695
1286.763, 136.8040
1287.245, 136.3209
1287.727, 135.8901
1288.209, 135.6584
1288.691, 135.7302
1289.173, 135.8629
1289.656, 135.5321
1290.138, 135.1168
1290.620, 135.4220
1291.102, 136.4426
1291.584, 136.8338
1292.066, 136.2283
1292.548, 135.7970
1293.030, 135.7634
1293.513, 135.9073
1293.995, 136.0347
1294.477, 136.1759
1294.959, 136.4093
1295.441, 136.6934
1295.923, 136.7877
1296.405, 136.6667
1296.887, 136.6034
1297.370, 136.6462
1297.852, 136.6649
1298.334, 136.3785
1298.816, 136.2140
1299.298, 136.6701
1299.780, 137.3297
1300.262, 137.4675
1300.744, 137.1288
1301.226, 136.7801
1301.708, 136.4730
1302.191, 136.3699
1302.673, 136.9900
1303.155, 137.2276
1303.637, 136.7542
1304.119, 135.5129
##END=



