##NAMES=Jarosite
##RRUFFID=R060113
##IDEAL CHEMISTRY=KFe^3+^_3_(S^6+^O_4_)_2_(OH)_6_
##LOCALITY=Iron Blossom mine, East Tintic District, Eureka, Utah, USA
##OWNER=RRUFF
##SOURCE=University of Arizona Mineral Museum
##DESCRIPTION=Amber-yellow to dark brown rhombohedral crystals
##STATUS=The identification of this mineral has been confirmed by X-ray diffraction and chemical analysis
##URL=rruff.info/R060113
##MEASURED CHEMISTRY=(K_0.88_Sr_0.12_)(Fe^3+^_0.96_Al_0.04_)_3_((S_0.94_P_0.06_)O_4_)_2_(OH)_6_
92.02539, 118.3098
92.50751, 121.1489
92.98962, 123.3487
93.47174, 122.3148
93.95386, 120.0725
94.43597, 117.6093
94.91809, 115.4796
95.40021, 113.6836
95.88232, 111.7994
96.36444, 109.8341
96.84656, 107.7826
97.32867, 105.6487
97.81078, 103.5139
98.29290, 101.5178
98.77502, 99.75706
99.25713, 98.16496
99.73925, 96.09904
100.2214, 92.99464
100.7035, 90.04813
101.1856, 87.59072
101.6677, 85.71831
102.1498, 84.55574
102.6320, 84.34131
103.1141, 85.65097
103.5962, 86.52783
104.0783, 86.86102
104.5604, 86.81504
105.0425, 86.60684
105.5247, 86.33231
106.0068, 85.78492
106.4889, 84.47293
106.9710, 82.33179
107.4531, 80.13937
107.9352, 78.12352
108.4173, 76.29533
108.8995, 74.71593
109.3816, 73.45638
109.8637, 72.44749
110.3458, 71.58379
110.8279, 70.84370
111.3100, 70.27200
111.7922, 69.92751
112.2743, 69.83138
112.7564, 69.91299
113.2385, 70.03901
113.7206, 70.35307
114.2027, 71.04955
114.6849, 72.24080
115.1670, 73.78343
115.6491, 75.13557
116.1312, 75.85850
116.6133, 76.93478
117.0954, 78.71054
117.5776, 80.91673
118.0597, 83.14394
118.5418, 85.11064
119.0239, 86.81493
119.5060, 88.64353
119.9881, 91.04744
120.4703, 93.14522
120.9524, 94.49043
121.4345, 95.13989
121.9166, 95.48975
122.3987, 95.87414
122.8808, 96.30028
123.3630, 96.65459
123.8451, 96.54874
124.3272, 96.56618
124.8093, 97.32903
125.2914, 98.98282
125.7735, 101.0876
126.2557, 103.1925
126.7378, 105.3073
127.2199, 107.6434
127.7020, 110.3122
128.1841, 113.2652
128.6662, 116.3387
129.1483, 119.6686
129.6305, 122.9235
130.1126, 125.7660
130.5947, 128.2514
131.0768, 130.8247
131.5589, 133.8114
132.0410, 137.2106
132.5232, 141.0319
133.0053, 145.1024
133.4874, 149.7669
133.9695, 155.2145
134.4516, 161.5055
134.9337, 168.5715
135.4159, 176.3508
135.8980, 184.9335
136.3801, 194.2923
136.8622, 206.6665
137.3443, 218.5665
137.8264, 227.9281
138.3086, 233.8657
138.7907, 235.5950
139.2728, 230.7240
139.7549, 214.5600
140.2370, 196.6980
140.7191, 175.6398
141.2013, 153.5931
141.6834, 133.5563
142.1655, 117.1169
142.6476, 104.0404
143.1297, 93.51451
143.6118, 85.80721
144.0939, 79.68713
144.5761, 75.06669
145.0582, 71.79536
145.5403, 69.16055
146.0224, 66.88681
146.5045, 64.96720
146.9866, 63.21714
147.4688, 61.65658
147.9509, 60.25060
148.4330, 58.97372
148.9151, 57.82605
149.3972, 56.79823
149.8793, 55.85276
150.3615, 55.02201
150.8436, 54.38317
151.3257, 54.01018
151.8078, 53.82540
152.2899, 53.67741
152.7720, 53.61573
153.2542, 53.49495
153.7363, 53.27677
154.2184, 52.97136
154.7005, 52.57041
155.1826, 52.01583
155.6647, 51.34336
156.1469, 50.94728
156.6290, 51.26942
157.1111, 51.44753
157.5932, 51.14486
158.0753, 50.50775
158.5574, 49.85951
159.0396, 49.45463
159.5217, 49.29713
160.0038, 49.37450
160.4859, 50.10087
160.9680, 50.66323
161.4501, 50.56741
161.9323, 49.90477
162.4144, 49.18982
162.8965, 48.97283
163.3786, 49.42627
163.8607, 49.65199
164.3428, 49.55667
164.8250, 49.32264
165.3071, 49.04118
165.7892, 48.73451
166.2713, 48.44238
166.7534, 48.20136
167.2355, 48.00816
167.7177, 47.92183
168.1998, 48.10978
168.6819, 48.35254
169.1640, 48.33512
169.6461, 47.95683
170.1282, 47.45304
170.6104, 47.07347
171.0925, 46.80156
171.5746, 46.63362
172.0567, 46.62529
172.5388, 46.72725
173.0209, 46.80317
173.5031, 46.84838
173.9852, 46.82607
174.4673, 46.66569
174.9494, 46.38603
175.4315, 46.16759
175.9136, 46.11599
176.3958, 46.23021
176.8779, 46.51568
177.3600, 47.22736
177.8421, 47.89879
178.3242, 48.20113
178.8063, 48.15042
179.2885, 48.04387
179.7706, 48.22302
180.2527, 48.78104
180.7348, 49.22023
181.2169, 49.33736
181.6990, 49.45546
182.1812, 49.78054
182.6633, 50.32818
183.1454, 50.93328
183.6275, 51.33287
184.1096, 51.30536
184.5917, 51.55555
185.0738, 52.27777
185.5560, 53.09625
186.0381, 53.72384
186.5202, 54.09744
187.0023, 54.38091
187.4844, 54.84636
187.9665, 55.57278
188.4487, 56.39253
188.9308, 57.28285
189.4129, 58.26525
189.8950, 59.42781
190.3771, 60.78900
190.8592, 62.18169
191.3414, 63.25431
191.8235, 63.76032
192.3056, 64.40714
192.7877, 65.24111
193.2698, 66.25999
193.7519, 67.52406
194.2341, 69.09309
194.7162, 70.78194
195.1983, 72.12704
195.6804, 72.93257
196.1625, 74.08732
196.6446, 75.97293
197.1268, 78.40660
197.6089, 80.98855
198.0910, 83.59005
198.5731, 86.29393
199.0552, 89.17882
199.5373, 92.22766
200.0195, 95.52108
200.5016, 99.16779
200.9837, 103.1387
201.4658, 107.2059
201.9479, 111.1834
202.4300, 115.4250
202.9122, 120.3688
203.3943, 126.1267
203.8764, 131.7492
204.3585, 136.3179
204.8406, 139.8502
205.3227, 143.6116
205.8048, 148.1288
206.2870, 152.8054
206.7691, 157.2456
207.2512, 161.3936
207.7333, 165.3250
208.2154, 168.8917
208.6975, 171.9259
209.1797, 175.6012
209.6618, 180.8140
210.1439, 186.2743
210.6260, 191.0771
211.1081, 195.1402
211.5902, 199.2904
212.0724, 204.6035
212.5545, 211.2485
213.0366, 218.5119
213.5187, 226.5105
214.0008, 234.8913
214.4829, 243.5368
214.9651, 252.3713
215.4472, 261.4297
215.9293, 270.7750
216.4114, 280.6158
216.8935, 290.3357
217.3756, 299.9809
217.8578, 309.5134
218.3399, 319.4153
218.8220, 329.5522
219.3041, 339.0066
219.7862, 346.3766
220.2683, 351.6977
220.7505, 354.2683
221.2326, 354.5019
221.7147, 352.1238
222.1968, 346.7918
222.6789, 338.4738
223.1610, 327.5509
223.6432, 314.4837
224.1253, 298.2767
224.6074, 281.5641
225.0895, 264.0566
225.5716, 246.1905
226.0537, 228.0672
226.5358, 209.7195
227.0180, 191.9949
227.5001, 176.0668
227.9822, 162.2689
228.4643, 149.7564
228.9464, 138.7171
229.4285, 128.8585
229.9107, 120.0955
230.3928, 112.4212
230.8749, 105.6381
231.3570, 99.67007
231.8391, 94.52331
232.3212, 89.97370
232.8034, 86.15811
233.2855, 82.88076
233.7676, 79.97453
234.2497, 77.44488
234.7318, 75.08195
235.2139, 72.52782
235.6961, 69.82452
236.1782, 67.58653
236.6603, 66.17765
237.1424, 65.26713
237.6245, 64.37733
238.1066, 63.45826
238.5888, 62.51265
239.0709, 61.45556
239.5530, 60.34415
240.0351, 59.38450
240.5172, 58.78634
240.9993, 58.35645
241.4815, 57.63447
241.9636, 56.39699
242.4457, 55.38328
242.9278, 55.43158
243.4099, 56.10109
243.8920, 56.48128
244.3742, 56.01644
244.8563, 55.02936
245.3384, 54.29102
245.8205, 53.95123
246.3026, 53.52150
246.7847, 52.59851
247.2668, 51.43097
247.7490, 50.40742
248.2311, 49.67929
248.7132, 49.22173
249.1953, 49.02734
249.6774, 49.29440
250.1595, 49.41640
250.6417, 49.11579
251.1238, 48.54929
251.6059, 47.88020
252.0880, 47.13739
252.5701, 46.39292
253.0522, 45.82829
253.5344, 45.51259
254.0165, 45.25879
254.4986, 44.99050
254.9807, 44.74874
255.4628, 44.57788
255.9449, 44.49940
256.4271, 44.49752
256.9092, 44.54850
257.3913, 44.70673
257.8734, 44.81182
258.3555, 44.76487
258.8376, 44.69142
259.3198, 44.69624
259.8019, 44.81985
260.2840, 45.05602
260.7661, 45.41154
261.2482, 45.99011
261.7303, 46.48942
262.2125, 46.84711
262.6946, 47.14521
263.1767, 47.43008
263.6588, 47.72282
264.1409, 48.04578
264.6230, 48.46147
265.1052, 49.09463
265.5873, 49.56714
266.0694, 49.63445
266.5515, 49.70823
267.0336, 50.12513
267.5157, 50.94255
267.9979, 51.93877
268.4800, 52.75704
268.9621, 53.14654
269.4442, 53.92488
269.9263, 55.39402
270.4084, 56.95065
270.8906, 58.16252
271.3727, 58.99606
271.8548, 59.74107
272.3369, 60.75072
272.8190, 62.08950
273.3011, 63.47781
273.7833, 64.91219
274.2654, 66.38557
274.7475, 67.88155
275.2296, 69.40613
275.7117, 70.96441
276.1938, 72.54317
276.6760, 74.10590
277.1581, 75.96056
277.6402, 78.21788
278.1223, 80.59440
278.6044, 82.93972
279.0865, 85.28968
279.5686, 87.79397
280.0508, 90.60118
280.5329, 93.71510
281.0150, 96.67003
281.4971, 99.27488
281.9792, 101.9553
282.4613, 104.9359
282.9435, 108.1251
283.4256, 111.2533
283.9077, 114.1066
284.3898, 116.7742
284.8719, 119.9112
285.3540, 123.9518
285.8362, 127.9090
286.3183, 131.4552
286.8004, 134.7460
287.2825, 138.0580
287.7646, 141.5316
288.2467, 145.1407
288.7289, 148.8654
289.2110, 152.7588
289.6931, 156.6774
290.1752, 160.7964
290.6573, 164.8613
291.1394, 168.5283
291.6216, 171.6767
292.1037, 174.2869
292.5858, 176.2948
293.0679, 177.4552
293.5500, 178.4674
294.0321, 179.2656
294.5143, 180.0051
294.9964, 180.9583
295.4785, 182.1997
295.9606, 183.3746
296.4427, 184.0161
296.9248, 184.0833
297.4070, 183.5609
297.8891, 182.3195
298.3712, 180.5626
298.8533, 178.6513
299.3354, 176.5941
299.8175, 173.7663
300.2997, 169.4917
300.7818, 163.5168
301.2639, 157.0410
301.7460, 149.8528
302.2281, 142.3959
302.7102, 134.5449
303.1924, 126.4925
303.6745, 119.0608
304.1566, 112.9393
304.6387, 108.1095
305.1208, 103.1158
305.6029, 97.56288
306.0851, 92.21453
306.5672, 87.38188
307.0493, 83.05679
307.5314, 79.15379
308.0135, 75.61903
308.4956, 72.48533
308.9778, 69.95451
309.4599, 68.31136
309.9420, 66.78518
310.4241, 65.10349
310.9062, 63.37185
311.3883, 61.84410
311.8705, 60.65421
312.3526, 59.64344
312.8347, 58.45514
313.3168, 56.94513
313.7989, 55.61084
314.2810, 54.52332
314.7632, 53.67653
315.2453, 53.13992
315.7274, 52.95032
316.2095, 52.82941
316.6916, 52.36934
317.1737, 51.46478
317.6559, 50.67903
318.1380, 49.94436
318.6201, 49.41345
319.1022, 49.42012
319.5843, 49.95758
320.0664, 50.35909
320.5485, 49.90487
321.0306, 48.50837
321.5128, 47.63862
321.9949, 47.55959
322.4770, 47.75991
322.9591, 48.06272
323.4412, 48.39680
323.9233, 48.53667
324.4055, 48.26782
324.8876, 47.68279
325.3697, 47.45962
325.8518, 47.81675
326.3339, 48.23407
326.8160, 48.59989
327.2982, 48.88232
327.7803, 48.97395
328.2624, 48.78196
328.7445, 48.47568
329.2266, 48.54029
329.7087, 49.20549
330.1909, 49.76910
330.6730, 49.90108
331.1551, 49.92997
331.6372, 50.33497
332.1193, 51.25952
332.6014, 52.38729
333.0836, 53.26117
333.5657, 53.74044
334.0478, 54.38074
334.5299, 55.39820
335.0120, 56.44873
335.4941, 57.17633
335.9763, 57.56999
336.4584, 57.98445
336.9405, 58.74789
337.4226, 59.89858
337.9047, 61.08302
338.3868, 62.36263
338.8690, 63.62622
339.3511, 64.82281
339.8332, 65.95969
340.3153, 67.04653
340.7974, 68.08041
341.2795, 69.07704
341.7617, 70.12841
342.2438, 71.11366
342.7259, 72.28049
343.2080, 73.74683
343.6901, 75.41697
344.1722, 77.14117
344.6544, 78.85074
345.1365, 80.59078
345.6186, 82.44885
346.1007, 84.50784
346.5828, 86.57773
347.0649, 88.84724
347.5471, 91.00249
348.0292, 92.72360
348.5113, 93.96104
348.9934, 94.97417
349.4755, 96.07962
349.9576, 97.41091
350.4398, 98.23312
350.9219, 98.49362
351.4040, 98.38804
351.8861, 98.05016
352.3682, 97.44217
352.8503, 96.41113
353.3325, 94.83332
353.8146, 92.72940
354.2967, 90.33263
354.7788, 87.45818
355.2609, 84.51150
355.7430, 81.45318
356.2252, 78.41041
356.7073, 75.58438
357.1894, 73.08123
357.6715, 70.72500
358.1536, 68.01094
358.6357, 64.35730
359.1179, 61.25482
359.5999, 58.99770
360.0821, 57.10646
360.5642, 55.18127
361.0463, 53.14669
361.5284, 51.25303
362.0105, 49.83673
362.4926, 49.04442
362.9748, 48.16875
363.4569, 47.10308
363.9390, 46.06144
364.4211, 45.07308
364.9032, 44.17815
365.3853, 43.48213
365.8675, 43.09688
366.3496, 42.97818
366.8317, 42.70170
367.3138, 42.18596
367.7959, 41.59907
368.2780, 40.84979
368.7602, 40.10034
369.2423, 39.57682
369.7244, 39.38648
370.2065, 39.35853
370.6886, 39.15487
371.1707, 38.71590
371.6529, 38.24555
372.1350, 37.70406
372.6171, 37.19043
373.0992, 36.78273
373.5813, 36.48605
374.0634, 36.21807
374.5456, 35.84794
375.0277, 35.36151
375.5098, 35.10213
375.9919, 35.28148
376.4740, 35.47460
376.9561, 35.57825
377.4383, 35.54607
377.9204, 35.28146
378.4025, 34.37089
378.8846, 34.58188
379.3667, 34.60815
379.8488, 34.45963
380.3310, 33.61267
380.8131, 33.66755
381.2952, 33.36105
381.7773, 33.03971
382.2594, 33.22153
382.7415, 32.69489
383.2237, 32.96078
383.7058, 33.76499
384.1879, 34.33704
384.6700, 34.44631
385.1521, 34.28883
385.6342, 33.96208
386.1164, 33.49422
386.5985, 33.19546
387.0806, 33.32907
387.5627, 33.74871
388.0448, 34.08172
388.5269, 34.25007
389.0091, 34.49502
389.4912, 35.13958
389.9733, 35.99561
390.4554, 36.63553
390.9375, 36.82690
391.4196, 36.90580
391.9018, 37.15759
392.3839, 37.57220
392.8660, 38.05600
393.3481, 38.59454
393.8302, 39.15598
394.3123, 39.67973
394.7945, 40.16191
395.2766, 40.62597
395.7587, 41.06918
396.2408, 41.50220
396.7229, 41.89186
397.2050, 42.21829
397.6872, 42.65724
398.1693, 43.46169
398.6514, 44.67310
399.1335, 45.74307
399.6156, 46.68480
400.0977, 47.45872
400.5798, 47.94183
401.0620, 48.20183
401.5441, 48.51378
402.0262, 49.05396
402.5083, 49.77629
402.9904, 50.43984
403.4725, 50.83461
403.9547, 51.43734
404.4368, 52.54311
404.9189, 53.82964
405.4010, 54.85818
405.8831, 55.49619
406.3652, 55.98458
406.8474, 56.70057
407.3295, 57.84258
407.8116, 58.59826
408.2937, 58.80527
408.7758, 58.82015
409.2579, 58.75208
409.7401, 58.66188
410.2222, 58.63124
410.7043, 58.72172
411.1864, 58.92524
411.6685, 59.17233
412.1506, 59.53112
412.6328, 59.84934
413.1149, 59.95908
413.5970, 60.08227
414.0791, 60.47486
414.5612, 61.22083
415.0433, 62.18293
415.5255, 63.11513
416.0076, 63.92314
416.4897, 65.04955
416.9718, 66.61765
417.4539, 68.43226
417.9360, 70.50230
418.4182, 72.77290
418.9003, 75.06987
419.3824, 77.30833
419.8645, 79.47665
420.3466, 81.52371
420.8287, 83.27894
421.3109, 85.25474
421.7930, 87.70081
422.2751, 90.42858
422.7572, 93.20845
423.2393, 95.95006
423.7214, 98.84242
424.2036, 102.0649
424.6857, 105.6111
425.1678, 109.4838
425.6499, 113.7928
426.1320, 118.3004
426.6141, 122.8091
427.0963, 127.3155
427.5784, 131.8784
428.0605, 136.4309
428.5426, 141.1016
429.0247, 146.0546
429.5068, 151.3333
429.9890, 156.8868
430.4711, 163.0215
430.9532, 169.2873
431.4353, 174.4270
431.9174, 178.4589
432.3995, 181.3393
432.8817, 183.0012
433.3638, 183.4884
433.8459, 182.8634
434.3280, 181.1338
434.8101, 178.3784
435.2922, 174.6167
435.7744, 169.6686
436.2565, 164.2509
436.7386, 157.9969
437.2207, 151.5867
437.7028, 145.5363
438.1849, 139.8094
438.6671, 133.9940
439.1492, 127.7308
439.6313, 121.2369
440.1134, 115.9582
440.5955, 112.4163
441.0776, 109.4726
441.5598, 107.1205
442.0418, 105.2674
442.5240, 103.8666
443.0061, 102.9021
443.4882, 102.3454
443.9703, 102.1749
444.4524, 102.4033
444.9345, 102.9644
445.4167, 103.9185
445.8988, 105.1536
446.3809, 106.6355
446.8630, 108.3665
447.3451, 110.4054
447.8272, 112.7972
448.3094, 115.4438
448.7915, 118.1387
449.2736, 120.9482
449.7557, 123.6054
450.2378, 126.4597
450.7199, 128.8678
451.2021, 130.5471
451.6842, 131.4037
452.1663, 131.0216
452.6484, 128.8520
453.1305, 125.1161
453.6126, 120.8632
454.0948, 116.3020
454.5769, 110.9263
455.0590, 103.5850
455.5411, 95.28753
456.0232, 87.80168
456.5053, 81.79540
456.9875, 76.36940
457.4696, 70.57303
457.9517, 64.63532
458.4338, 59.54851
458.9159, 55.73819
459.3980, 52.71947
459.8802, 49.78914
460.3623, 46.88692
460.8444, 44.44356
461.3265, 42.76411
461.8086, 41.43132
462.2907, 40.07489
462.7729, 38.68811
463.2550, 37.45475
463.7371, 36.49492
464.2192, 35.78949
464.7013, 35.20489
465.1834, 35.05896
465.6656, 34.62282
466.1477, 33.48431
466.6298, 32.15432
467.1119, 31.16279
467.5940, 30.63695
468.0761, 30.41523
468.5583, 30.34174
469.0404, 30.46116
469.5225, 30.43403
470.0046, 30.18101
470.4867, 29.85924
470.9688, 29.48156
471.4510, 29.07276
471.9331, 28.65185
472.4152, 28.22088
472.8973, 27.82467
473.3794, 27.53776
473.8615, 27.35368
474.3437, 27.31255
474.8258, 27.70843
475.3079, 28.01278
475.7900, 27.75790
476.2721, 27.04039
476.7542, 26.45452
477.2364, 26.47068
477.7185, 26.85342
478.2006, 27.09250
478.6827, 27.18177
479.1648, 27.14288
479.6469, 26.93240
480.1291, 26.61786
480.6112, 26.26071
481.0933, 25.71533
481.5754, 25.54347
482.0575, 26.50488
482.5396, 27.92520
483.0217, 28.41791
483.5038, 27.67656
483.9860, 26.68645
484.4681, 26.39808
484.9502, 26.84849
485.4323, 27.04506
485.9144, 26.72309
486.3965, 26.44442
486.8787, 26.58097
487.3608, 26.90308
487.8429, 26.92068
488.3250, 26.43838
488.8071, 25.79035
489.2892, 25.60090
489.7714, 26.17383
490.2535, 26.45684
490.7356, 26.20982
491.2177, 25.94612
491.6998, 25.91712
492.1819, 26.09073
492.6641, 26.34033
493.1462, 26.60325
493.6283, 26.84997
494.1104, 27.02926
494.5925, 27.22909
495.0746, 27.12014
495.5568, 26.15157
496.0389, 25.17730
496.5210, 24.92015
497.0031, 25.37762
497.4852, 25.81139
497.9673, 25.57542
498.4495, 24.93044
498.9316, 24.63931
499.4137, 24.80045
499.8958, 24.97526
500.3779, 24.96074
500.8600, 24.76892
501.3422, 24.40277
501.8243, 23.69747
502.3064, 23.17776
502.7885, 23.23256
503.2706, 23.61457
503.7527, 23.89966
504.2349, 23.99630
504.7170, 23.98579
505.1991, 23.94963
505.6812, 23.88826
506.1633, 23.71265
506.6454, 23.31911
507.1276, 22.94023
507.6097, 22.64353
508.0918, 22.42147
508.5739, 22.24884
509.0560, 22.11756
509.5381, 22.06057
510.0203, 22.15813
510.5024, 22.50175
510.9845, 22.68600
511.4666, 22.49232
511.9487, 22.35541
512.4308, 22.57288
512.9130, 22.95795
513.3951, 23.12072
513.8772, 22.83833
514.3593, 22.31371
514.8414, 21.86667
515.3235, 21.48138
515.8057, 21.28156
516.2878, 21.30414
516.7699, 21.52972
517.2520, 22.06487
517.7341, 22.83844
518.2162, 23.36442
518.6984, 23.34421
519.1805, 23.02110
519.6626, 22.56548
520.1447, 22.01433
520.6268, 21.77695
521.1089, 22.12124
521.5911, 22.81105
522.0732, 23.32598
522.5553, 23.68346
523.0374, 23.87807
523.5195, 23.69074
524.0016, 23.49064
524.4838, 23.64286
524.9659, 24.12571
525.4480, 24.66993
525.9301, 25.08701
526.4122, 25.39345
526.8943, 25.68203
527.3765, 25.95205
527.8586, 26.19938
528.3407, 26.36734
528.8228, 26.55368
529.3049, 26.85621
529.7870, 27.27185
530.2692, 27.70232
530.7513, 28.04492
531.2334, 28.32518
531.7155, 28.71280
532.1976, 29.25327
532.6797, 29.79281
533.1619, 30.21079
533.6440, 30.62212
534.1261, 31.19275
534.6082, 31.97454
535.0903, 32.68626
535.5724, 33.05904
536.0546, 33.25064
536.5367, 33.62889
537.0188, 34.25085
537.5009, 34.87546
537.9830, 35.28459
538.4651, 35.54737
538.9473, 36.03394
539.4294, 36.93150
539.9115, 37.79668
540.3936, 38.53101
540.8757, 39.15719
541.3578, 39.68150
541.8400, 40.11541
542.3221, 40.51141
542.8042, 40.90983
543.2863, 41.30929
543.7684, 41.79908
544.2505, 42.59374
544.7326, 43.21161
545.2147, 43.37595
545.6968, 43.41090
546.1790, 43.72222
546.6611, 44.39552
547.1432, 45.09078
547.6253, 45.37725
548.1074, 45.30141
548.5895, 45.42416
549.0717, 45.89751
549.5538, 46.28896
550.0359, 46.26480
550.5180, 46.01089
551.0001, 45.76328
551.4822, 45.50505
551.9644, 45.39204
552.4465, 45.54256
552.9286, 45.90361
553.4107, 46.42288
553.8928, 47.09489
554.3749, 47.73108
554.8571, 48.15726
555.3392, 48.37859
555.8213, 48.58482
556.3034, 48.78919
556.7855, 48.96480
557.2676, 49.01125
557.7498, 49.07094
558.2319, 49.32492
558.7140, 49.80732
559.1961, 50.39950
559.6782, 50.99152
560.1603, 51.58077
560.6425, 52.13044
561.1246, 52.68746
561.6067, 53.12039
562.0888, 53.22427
562.5709, 53.27975
563.0530, 53.66139
563.5352, 54.46817
564.0173, 55.30259
564.4994, 55.89544
564.9815, 56.24683
565.4636, 56.28310
565.9457, 55.93321
566.4279, 55.60905
566.9100, 55.60139
567.3921, 55.83827
567.8742, 56.02821
568.3563, 56.16411
568.8384, 56.26574
569.3206, 56.36039
569.8027, 56.41386
570.2848, 56.40223
570.7669, 56.31354
571.2490, 56.11556
571.7311, 55.78358
572.2133, 55.31670
572.6954, 54.71626
573.1775, 53.80046
573.6596, 52.99783
574.1417, 52.54231
574.6238, 52.09491
575.1060, 51.32846
575.5881, 50.22530
576.0702, 49.04840
576.5523, 48.02169
577.0344, 47.09453
577.5165, 46.04663
577.9987, 44.83019
578.4808, 43.72054
578.9629, 42.99860
579.4450, 42.34370
579.9271, 41.23663
580.4092, 39.57679
580.8914, 38.13087
581.3735, 37.36579
581.8556, 36.84989
582.3377, 36.09628
582.8198, 35.10689
583.3019, 34.09460
583.7841, 33.16158
584.2662, 32.33844
584.7483, 31.71270
585.2304, 31.47055
585.7125, 31.12033
586.1946, 30.59046
586.6768, 30.02138
587.1589, 29.45819
587.6410, 28.93021
588.1231, 28.47796
588.6052, 28.12612
589.0873, 27.86068
589.5695, 27.70857
590.0516, 27.71004
590.5337, 27.51271
591.0158, 26.68709
591.4979, 26.81832
591.9800, 26.82181
592.4622, 26.70739
592.9443, 25.95163
593.4264, 26.15461
593.9085, 26.05316
594.3906, 25.99386
594.8727, 26.49465
595.3549, 26.12531
595.8370, 26.73204
596.3191, 26.23750
596.8012, 26.24510
597.2833, 26.65655
597.7654, 26.89249
598.2476, 26.82489
598.7297, 26.75780
599.2118, 26.79414
599.6939, 26.88125
600.1760, 26.95437
600.6581, 26.99176
601.1403, 26.99482
601.6224, 26.89721
602.1045, 26.71329
602.5866, 26.81138
603.0687, 27.27599
603.5508, 27.83624
604.0330, 28.41696
604.5151, 28.99406
604.9972, 29.55114
605.4793, 30.11452
605.9614, 30.53121
606.4435, 30.56856
606.9257, 30.49234
607.4078, 30.66491
607.8899, 31.11097
608.3720, 31.73565
608.8541, 32.52352
609.3362, 33.36686
609.8184, 33.92422
610.3005, 33.95094
610.7826, 34.04262
611.2647, 34.33817
611.7468, 34.57555
612.2289, 34.49807
612.7111, 34.21626
613.1932, 34.05623
613.6753, 34.21918
614.1574, 34.55040
614.6395, 34.67133
615.1216, 34.53698
615.6038, 34.85339
616.0859, 35.95064
616.5680, 37.24644
617.0501, 38.28925
617.5322, 39.13552
618.0143, 39.94727
618.4965, 40.53627
618.9786, 41.34318
619.4607, 42.67360
619.9428, 44.39696
620.4249, 46.44201
620.9070, 48.75136
621.3892, 50.81360
621.8713, 52.05656
622.3534, 52.49840
622.8355, 53.17561
623.3176, 55.04047
623.7997, 55.86888
624.2819, 55.16154
624.7640, 53.41632
625.2461, 50.74845
625.7282, 47.37341
626.2103, 44.05701
626.6924, 41.44769
627.1745, 39.30925
627.6566, 37.07216
628.1387, 34.71986
628.6208, 32.41291
629.1030, 30.07016
629.5851, 27.95193
630.0672, 26.47328
630.5493, 25.61810
631.0314, 25.08035
631.5135, 25.18832
631.9957, 25.24283
632.4778, 24.64865
632.9599, 23.68756
633.4420, 22.95591
633.9241, 22.68279
634.4063, 22.68445
634.8884, 22.72052
635.3705, 22.78997
635.8526, 22.89814
636.3347, 22.97647
636.8168, 23.19747
637.2990, 23.88263
637.7811, 24.60225
638.2632, 24.77291
638.7453, 24.25278
639.2274, 23.63857
639.7095, 23.32482
640.1917, 23.19776
640.6738, 23.06418
641.1559, 22.91104
641.6380, 22.78632
642.1201, 22.75288
642.6022, 22.69990
643.0844, 22.35485
643.5665, 21.47737
644.0486, 20.80681
644.5307, 20.48678
645.0128, 20.23457
645.4949, 19.85950
645.9771, 19.43802
646.4592, 19.16643
646.9413, 19.13677
647.4234, 19.17503
647.9055, 19.02288
648.3876, 18.68438
648.8698, 18.36404
649.3519, 18.07910
649.8340, 17.81231
650.3161, 17.56315
650.7982, 17.32309
651.2803, 17.06176
651.7625, 16.71611
652.2446, 16.50794
652.7267, 16.62514
653.2088, 16.86108
653.6909, 17.05631
654.1730, 17.15915
654.6552, 17.03586
655.1373, 16.57558
655.6194, 15.97825
656.1015, 15.79115
656.5836, 16.22109
657.0657, 16.52794
657.5479, 16.65292
658.0300, 16.66338
658.5121, 16.50006
658.9942, 16.25465
659.4763, 16.11502
659.9584, 16.17310
660.4406, 16.24967
660.9227, 16.13869
661.4048, 15.92663
661.8869, 15.89562
662.3690, 16.09179
662.8511, 16.15820
663.3333, 15.78145
663.8154, 15.11253
664.2975, 14.78858
664.7796, 15.10324
665.2617, 15.35626
665.7438, 15.59972
666.2260, 15.72094
666.7081, 15.52345
667.1902, 15.14232
667.6723, 14.92929
668.1544, 15.08531
668.6365, 15.40280
669.1187, 15.58256
669.6008, 15.62705
670.0829, 15.58029
670.5650, 15.42562
671.0471, 15.23780
671.5292, 15.03352
672.0114, 14.84382
672.4935, 14.77470
672.9756, 14.90926
673.4577, 15.02137
673.9398, 15.06707
674.4219, 15.04427
674.9041, 14.89186
675.3862, 14.65761
675.8683, 14.49603
676.3504, 14.50019
676.8325, 14.64604
677.3146, 14.96747
677.7968, 15.59608
678.2789, 15.71994
678.7610, 14.79744
679.2431, 13.94343
679.7252, 13.98843
680.2073, 14.54147
680.6895, 14.77737
681.1716, 14.36701
681.6537, 14.02682
682.1358, 14.33359
682.6179, 14.88205
683.1000, 15.03679
683.5822, 14.78161
684.0643, 14.55988
684.5464, 14.66530
685.0285, 14.97878
685.5106, 15.17963
685.9927, 15.31832
686.4749, 15.22483
686.9570, 14.65186
687.4391, 14.08473
687.9212, 13.65266
688.4033, 13.39567
688.8854, 13.38814
689.3676, 13.69073
689.8497, 14.08419
690.3318, 14.46405
690.8139, 14.78015
691.2960, 14.90736
691.7781, 14.83649
692.2603, 14.65376
692.7424, 14.38521
693.2245, 14.08454
693.7066, 13.89290
694.1887, 13.87335
694.6708, 13.83906
695.1530, 13.69057
695.6351, 13.63002
696.1172, 13.84156
696.5993, 14.18394
697.0814, 14.41111
697.5635, 14.43513
698.0457, 14.37240
698.5278, 14.33240
699.0099, 14.30055
699.4920, 14.24633
699.9741, 14.17191
700.4562, 13.98786
700.9384, 13.60634
701.4205, 13.13636
701.9026, 12.78035
702.3847, 12.44947
702.8668, 12.51213
703.3489, 13.54352
703.8311, 14.37748
704.3132, 14.19613
704.7953, 13.51641
705.2774, 13.21744
705.7595, 13.56443
706.2416, 14.06721
706.7238, 14.18216
707.2059, 14.00430
707.6880, 13.98500
708.1701, 14.16218
708.6522, 14.23767
709.1343, 14.02320
709.6164, 13.71863
710.0985, 13.63775
710.5806, 13.80153
711.0627, 14.01266
711.5449, 14.44083
712.0270, 14.71645
712.5091, 14.54655
712.9912, 14.16693
713.4733, 13.91221
713.9554, 13.85649
714.4376, 13.83410
714.9197, 13.65411
715.4018, 13.38876
715.8839, 13.35087
716.3660, 13.57569
716.8481, 13.78263
717.3303, 13.94159
717.8124, 13.97052
718.2945, 13.63962
718.7766, 12.99231
719.2587, 12.70000
719.7408, 13.19390
720.2230, 13.61121
720.7051, 13.48031
721.1872, 13.16524
721.6693, 13.10678
722.1514, 13.34860
722.6335, 13.66215
723.1157, 13.89960
723.5978, 14.04283
724.0799, 14.01631
724.5620, 13.80280
725.0441, 13.57391
725.5262, 13.28401
726.0084, 13.13076
726.4905, 13.45632
726.9726, 14.07384
727.4547, 14.23141
727.9368, 13.47503
728.4189, 12.90932
728.9011, 12.99084
729.3832, 13.31255
729.8653, 13.57166
730.3474, 13.71054
730.8295, 13.71051
731.3116, 13.55160
731.7938, 13.33155
732.2759, 13.19763
732.7580, 13.14994
733.2401, 13.25833
733.7222, 13.62926
734.2043, 13.88536
734.6865, 13.71445
735.1686, 13.32129
735.6507, 13.17331
736.1328, 13.35782
736.6149, 13.48458
737.0970, 13.47165
737.5792, 13.37856
738.0613, 13.14980
738.5434, 12.89543
739.0255, 12.82904
739.5076, 13.01802
739.9897, 13.30902
740.4719, 13.56139
740.9540, 13.76451
741.4361, 13.82365
741.9182, 13.71153
742.4003, 13.57602
742.8824, 13.38804
743.3646, 13.29761
743.8467, 13.61733
744.3288, 14.35662
744.8109, 14.79100
745.2930, 14.72913
745.7751, 14.50746
746.2573, 14.07272
746.7394, 13.65930
747.2215, 13.60889
747.7036, 13.90693
748.1857, 14.18718
748.6678, 14.16379
749.1500, 13.96220
749.6321, 13.84113
750.1142, 13.80061
750.5963, 13.84133
751.0784, 13.98752
751.5605, 14.14859
752.0427, 14.28193
752.5248, 14.37060
753.0069, 14.32927
753.4890, 14.15497
753.9711, 13.86935
754.4532, 13.15294
754.9354, 12.60841
755.4175, 12.83765
755.8996, 13.56889
756.3817, 14.15207
756.8638, 14.31628
757.3459, 14.24614
757.8281, 14.03417
758.3102, 13.76421
758.7923, 13.85936
759.2744, 14.37084
759.7565, 14.64960
760.2386, 14.28130
760.7208, 13.70048
761.2029, 13.70996
761.6850, 14.57124
762.1671, 14.94684
762.6492, 14.43207
763.1313, 13.95411
763.6135, 13.80006
764.0956, 13.83399
764.5777, 13.97162
765.0598, 14.15568
765.5419, 14.19277
766.0240, 13.78512
766.5062, 13.31381
766.9883, 13.42872
767.4704, 13.97859
767.9525, 14.30601
768.4346, 14.24864
768.9167, 14.12023
769.3989, 14.21082
769.8810, 14.46504
770.3631, 14.52533
770.8452, 14.15409
771.3273, 14.02392
771.8094, 14.47104
772.2916, 14.87666
772.7737, 14.75229
773.2558, 14.36986
773.7379, 14.39218
774.2200, 15.13819
774.7021, 15.71745
775.1843, 15.33610
775.6664, 14.56314
776.1485, 14.13515
776.6306, 14.06031
777.1127, 14.10119
777.5948, 14.15385
778.0770, 14.22699
778.5591, 14.34082
779.0412, 14.49918
779.5233, 14.62349
780.0054, 14.72070
780.4875, 14.76730
780.9697, 14.68993
781.4518, 14.60856
781.9339, 14.65666
782.4160, 14.82411
782.8981, 14.96892
783.3802, 15.08459
783.8624, 15.13829
784.3445, 15.00068
784.8266, 14.85337
785.3087, 15.03526
785.7908, 15.48975
786.2729, 15.76411
786.7551, 15.53943
787.2372, 15.03777
787.7193, 14.65153
788.2014, 14.38292
788.6835, 14.38116
789.1656, 14.78220
789.6478, 15.00070
790.1299, 14.51104
790.6120, 13.70447
791.0941, 13.58832
791.5762, 14.49005
792.0583, 15.06036
792.5404, 15.04259
793.0225, 14.88139
793.5046, 14.73609
793.9868, 14.59756
794.4689, 14.36548
794.9510, 14.05363
795.4331, 13.92774
795.9152, 14.40095
796.3973, 15.03372
796.8795, 14.93691
797.3616, 14.29268
797.8437, 14.08625
798.3258, 14.57931
798.8079, 15.05976
799.2900, 14.84517
799.7722, 14.11407
800.2543, 13.90052
800.7364, 14.60122
801.2185, 15.00574
801.7006, 14.71992
802.1827, 14.42138
802.6649, 14.46846
803.1470, 14.70953
803.6291, 14.85992
804.1112, 14.85985
804.5933, 14.78762
805.0754, 14.57636
805.5576, 14.39519
806.0397, 14.41369
806.5218, 14.60346
807.0039, 14.96755
807.4860, 15.47483
807.9681, 15.79411
808.4503, 15.47972
808.9324, 14.67981
809.4145, 14.18621
809.8966, 14.01925
810.3787, 14.03958
810.8608, 14.27802
811.3430, 14.57953
811.8251, 14.85020
812.3072, 15.07124
812.7893, 15.13531
813.2714, 14.84385
813.7535, 14.69339
814.2357, 14.83725
814.7178, 15.06666
815.1999, 15.28436
815.6820, 15.46416
816.1641, 15.60037
816.6462, 15.69220
817.1284, 15.68712
817.6105, 15.47856
818.0926, 15.16380
818.5747, 14.90174
819.0568, 14.70558
819.5389, 14.61916
820.0211, 14.66120
820.5032, 14.76785
820.9853, 14.87044
821.4674, 14.96960
821.9495, 15.07219
822.4316, 15.18258
822.9138, 15.29064
823.3959, 15.47104
823.8780, 15.56947
824.3601, 15.40108
824.8422, 15.08000
825.3243, 14.91515
825.8065, 15.01697
826.2886, 15.13362
826.7707, 15.17904
827.2528, 15.19021
827.7349, 15.19752
828.2170, 15.19776
828.6992, 15.15601
829.1813, 15.06642
829.6634, 15.01957
830.1455, 15.17732
830.6276, 15.44213
831.1097, 15.41243
831.5919, 15.09602
832.0740, 14.97621
832.5561, 15.22104
833.0382, 15.57105
833.5203, 15.78080
834.0024, 15.87357
834.4846, 16.04356
834.9667, 16.46101
835.4488, 16.66950
835.9309, 16.45515
836.4130, 16.23732
836.8951, 16.24276
837.3773, 16.39174
837.8594, 16.54759
838.3415, 16.69221
838.8236, 16.74680
839.3057, 16.63256
839.7878, 16.44230
840.2700, 16.24248
840.7521, 16.04329
841.2342, 15.81596
841.7163, 15.57321
842.1984, 15.45695
842.6805, 15.62516
843.1627, 15.98158
843.6448, 16.29324
844.1269, 16.56508
844.6090, 16.53541
845.0911, 16.07486
845.5732, 15.60333
846.0554, 15.40735
846.5375, 15.41450
847.0196, 15.41614
847.5017, 15.35250
847.9838, 15.42538
848.4659, 15.81056
848.9481, 16.12360
849.4302, 16.24557
849.9123, 16.20028
850.3944, 15.95217
850.8765, 15.53133
851.3586, 15.20801
851.8408, 15.19082
852.3229, 15.25182
852.8050, 15.19130
853.2871, 15.07670
853.7692, 14.99660
854.2513, 14.97957
854.7335, 15.08283
855.2156, 15.35476
855.6977, 15.67564
856.1798, 15.82779
856.6619, 15.81445
857.1440, 15.70592
857.6262, 15.49110
858.1083, 15.24534
858.5904, 14.96238
859.0725, 14.72966
859.5546, 14.68217
860.0367, 14.83681
860.5189, 14.98204
861.0010, 15.21154
861.4831, 15.30476
861.9652, 15.11106
862.4473, 14.86967
862.9294, 14.75440
863.4116, 14.74463
863.8937, 14.74467
864.3758, 14.72694
864.8579, 14.70818
865.3400, 14.69603
865.8221, 14.69044
866.3043, 14.67977
866.7864, 14.67679
867.2685, 14.73094
867.7506, 14.85178
868.2327, 14.95753
868.7148, 14.95407
869.1970, 14.87374
869.6791, 14.82379
870.1612, 14.80430
870.6433, 14.77958
871.1254, 14.73801
871.6075, 14.71699
872.0897, 14.76983
872.5718, 14.84345
873.0539, 14.74016
873.5360, 14.21334
874.0181, 14.07599
874.5002, 14.97661
874.9823, 15.51551
875.4644, 14.80865
875.9465, 13.76361
876.4286, 13.49839
876.9108, 14.06674
877.3929, 14.50942
877.8750, 14.36533
878.3571, 14.17107
878.8392, 14.30781
879.3214, 14.50506
879.8035, 14.37702
880.2856, 13.98361
880.7677, 13.65189
881.2498, 13.54028
881.7319, 13.60672
882.2141, 13.89017
882.6962, 14.29575
883.1783, 14.57092
883.6604, 14.69881
884.1425, 14.57731
884.6246, 14.14958
885.1068, 13.65206
885.5889, 13.31940
886.0710, 13.16005
886.5531, 13.30668
887.0352, 13.97775
887.5173, 14.29988
887.9995, 13.96102
888.4816, 13.53894
888.9637, 13.35368
889.4458, 13.34109
889.9279, 13.41248
890.4100, 13.64015
890.8922, 13.64197
891.3743, 13.06542
891.8564, 12.59886
892.3385, 12.60055
892.8206, 12.85115
893.3027, 13.16289
893.7849, 13.46746
894.2670, 13.65510
894.7491, 13.62910
895.2312, 13.56002
895.7133, 13.66187
896.1954, 13.79578
896.6776, 13.68457
897.1597, 13.37180
897.6418, 13.12770
898.1239, 13.06853
898.6060, 13.07233
899.0881, 12.94286
899.5703, 12.74938
900.0524, 12.99364
900.5345, 13.72067
901.0166, 13.87687
901.4987, 13.04896
901.9808, 12.29079
902.4630, 12.55112
902.9451, 13.46168
903.4272, 13.69789
903.9093, 12.83158
904.3914, 12.28608
904.8735, 12.20265
905.3557, 12.27016
905.8378, 12.51582
906.3199, 12.76718
906.8020, 12.79719
907.2841, 12.61223
907.7662, 12.49756
908.2484, 12.61730
908.7305, 12.69669
909.2126, 12.63694
909.6947, 12.47907
910.1768, 12.13200
910.6589, 11.74062
911.1411, 11.68459
911.6232, 12.11632
912.1053, 12.51785
912.5874, 12.29900
913.0695, 11.86301
913.5516, 11.88382
914.0338, 12.22750
914.5159, 12.45857
914.9980, 12.46931
915.4801, 12.34686
915.9622, 12.14200
916.4443, 11.90505
916.9265, 11.71972
917.4086, 11.58660
917.8907, 11.70144
918.3728, 12.13426
918.8549, 12.50342
919.3370, 12.65995
919.8192, 12.61682
920.3013, 12.32965
920.7834, 11.78230
921.2655, 11.61138
921.7476, 12.21354
922.2297, 12.50552
922.7119, 12.02006
923.1940, 11.50049
923.6761, 11.37208
924.1582, 11.51342
924.6403, 11.67186
925.1224, 11.82025
925.6046, 11.99228
926.0867, 12.28949
926.5688, 12.50625
927.0509, 12.49453
927.5330, 12.36616
928.0151, 12.26614
928.4973, 12.19201
928.9794, 12.01054
929.4615, 11.58764
929.9436, 11.23666
930.4257, 11.30976
930.9078, 11.57668
931.3900, 11.73945
931.8721, 11.77810
932.3542, 11.69462
932.8363, 11.50369
933.3184, 11.34829
933.8005, 11.43731
934.2827, 11.59280
934.7648, 11.14715
935.2469, 10.21369
935.7290, 9.997048
936.2111, 10.71965
936.6932, 11.47942
937.1754, 11.76790
937.6575, 11.71500
938.1396, 11.52151
938.6217, 11.16554
939.1038, 10.94398
939.5859, 10.87957
940.0681, 10.89866
940.5502, 11.07428
941.0323, 11.19619
941.5144, 10.97696
941.9965, 10.55253
942.4786, 10.52081
942.9608, 11.12324
943.4429, 11.59954
943.9250, 12.01827
944.4071, 12.19142
944.8892, 11.82049
945.3713, 11.30804
945.8535, 11.10683
946.3356, 11.23172
946.8177, 11.42077
947.2998, 11.71849
947.7819, 11.86700
948.2640, 11.53800
948.7462, 11.17400
949.2283, 11.28967
949.7104, 11.67821
950.1925, 11.81545
950.6746, 11.55968
951.1567, 11.27118
951.6389, 11.25599
952.1210, 11.33634
952.6031, 11.24689
953.0852, 11.08697
953.5673, 11.07600
954.0494, 11.23326
954.5316, 11.48224
955.0137, 11.78771
955.4958, 12.05822
955.9779, 12.20921
956.4600, 12.21534
956.9421, 11.85494
957.4242, 11.14492
957.9063, 10.57799
958.3884, 10.26597
958.8705, 10.29597
959.3527, 10.79605
959.8348, 11.57191
960.3169, 12.04968
960.7990, 12.19769
961.2811, 12.18682
961.7632, 11.89948
962.2454, 11.80422
962.7275, 12.17684
963.2096, 12.67352
963.6917, 12.96949
964.1738, 13.06092
964.6559, 12.89373
965.1381, 12.12742
965.6202, 11.65663
966.1023, 11.67609
966.5844, 11.79497
967.0665, 11.84506
967.5486, 11.89602
968.0308, 12.10222
968.5129, 12.46715
968.9950, 12.63687
969.4771, 12.19595
969.9592, 12.00377
970.4413, 12.72726
970.9235, 13.47290
971.4056, 13.38092
971.8877, 12.78480
972.3698, 12.44138
972.8519, 12.55251
973.3340, 12.81878
973.8162, 13.22097
974.2983, 13.55534
974.7804, 13.52322
975.2625, 13.39150
975.7446, 13.59486
976.2267, 14.08437
976.7089, 14.50526
977.1910, 14.69205
977.6731, 14.74683
978.1552, 14.71808
978.6373, 14.66045
979.1194, 14.63498
979.6016, 14.66626
980.0837, 14.81385
980.5658, 15.09318
981.0479, 15.54033
981.5300, 16.20585
982.0121, 16.87672
982.4943, 17.06999
982.9764, 16.90130
983.4585, 17.09197
983.9406, 17.64813
984.4227, 17.96692
984.9048, 17.82071
985.3870, 17.92130
985.8691, 19.00238
986.3512, 20.67348
986.8333, 21.57130
987.3154, 21.55000
987.7975, 21.99071
988.2797, 23.06568
988.7618, 24.18633
989.2439, 25.09435
989.7260, 25.99812
990.2081, 27.09433
990.6902, 28.39757
991.1724, 30.08746
991.6545, 32.18551
992.1366, 34.61926
992.6187, 37.28826
993.1008, 40.46874
993.5829, 44.56810
994.0651, 49.05382
994.5472, 53.22329
995.0293, 57.06875
995.5114, 60.81554
995.9935, 64.31967
996.4756, 67.97182
996.9578, 71.55795
997.4399, 75.56065
997.9220, 80.18716
998.4041, 85.43363
998.8862, 91.22713
999.3683, 97.53800
999.8505, 104.5666
1000.333, 112.8429
1000.815, 121.1717
1001.297, 128.7317
1001.779, 136.4382
1002.261, 144.8692
1002.743, 154.0514
1003.225, 164.2029
1003.707, 175.3758
1004.190, 185.8086
1004.672, 196.2724
1005.154, 203.8188
1005.636, 207.6430
1006.118, 206.6834
1006.600, 198.9934
1007.082, 185.5617
1007.564, 168.4595
1008.046, 148.3225
1008.529, 128.5382
1009.011, 111.1053
1009.493, 96.04726
1009.975, 83.68822
1010.457, 73.63865
1010.939, 65.40724
1011.421, 58.81041
1011.903, 53.68227
1012.385, 49.99957
1012.868, 46.94179
1013.350, 43.66460
1013.832, 40.38186
1014.314, 37.43108
1014.796, 34.81587
1015.278, 32.51374
1015.760, 30.52334
1016.242, 28.97576
1016.725, 27.96680
1017.207, 27.15636
1017.689, 26.05256
1018.171, 24.73525
1018.653, 23.40718
1019.135, 22.12204
1019.617, 21.25724
1020.099, 20.88158
1020.581, 20.54497
1021.064, 19.92664
1021.546, 19.23809
1022.028, 18.93366
1022.510, 18.96573
1022.992, 18.73978
1023.474, 18.24867
1023.956, 17.64035
1024.438, 16.91809
1024.921, 16.45679
1025.403, 16.58999
1025.885, 17.02711
1026.367, 17.09856
1026.849, 16.79048
1027.331, 16.25846
1027.813, 15.40230
1028.295, 14.93807
1028.777, 15.17145
1029.260, 15.44339
1029.742, 15.18959
1030.224, 14.62368
1030.706, 14.38597
1031.188, 14.58814
1031.670, 14.46715
1032.152, 13.82607
1032.634, 13.45613
1033.116, 13.68917
1033.599, 14.05365
1034.081, 14.20105
1034.563, 14.15162
1035.045, 13.93561
1035.527, 13.41643
1036.009, 13.23123
1036.491, 13.65779
1036.973, 13.87375
1037.456, 13.47090
1037.938, 13.01026
1038.420, 12.95051
1038.902, 13.20696
1039.384, 13.51816
1039.866, 13.98095
1040.348, 14.22002
1040.830, 14.16272
1041.313, 13.98369
1041.795, 13.55536
1042.277, 13.17631
1042.759, 13.11574
1043.241, 13.29633
1043.723, 13.48656
1044.205, 13.69931
1044.687, 13.87648
1045.169, 14.08382
1045.651, 14.16556
1046.134, 14.08462
1046.616, 13.85464
1047.098, 13.27623
1047.580, 12.57716
1048.062, 12.43510
1048.544, 13.07930
1049.026, 13.67544
1049.508, 14.26251
1049.991, 14.59567
1050.473, 14.46519
1050.955, 14.16348
1051.437, 13.80157
1051.919, 13.48873
1052.401, 13.49852
1052.883, 13.96545
1053.365, 14.31851
1053.848, 14.34412
1054.330, 14.35632
1054.812, 14.43836
1055.294, 14.58950
1055.776, 14.82802
1056.258, 15.12736
1056.740, 15.45027
1057.222, 15.81351
1057.704, 16.04219
1058.187, 15.90825
1058.669, 15.85770
1059.151, 16.27593
1059.633, 16.68566
1060.115, 16.55384
1060.597, 16.10682
1061.079, 15.90918
1061.561, 16.08814
1062.043, 16.34106
1062.526, 16.51415
1063.008, 16.80376
1063.490, 17.49198
1063.972, 18.16504
1064.454, 18.37729
1064.936, 18.31312
1065.418, 18.41211
1065.900, 18.76737
1066.383, 19.09363
1066.865, 19.20807
1067.347, 19.36264
1067.829, 19.77771
1068.311, 20.18926
1068.793, 20.32933
1069.275, 20.30504
1069.757, 20.36108
1070.240, 20.53988
1070.722, 20.65982
1071.204, 20.43310
1071.686, 20.40960
1072.168, 21.11441
1072.650, 21.87324
1073.132, 22.04467
1073.614, 21.90695
1074.096, 22.00364
1074.578, 22.41369
1075.061, 22.84096
1075.543, 23.18283
1076.025, 23.49009
1076.507, 23.76018
1076.989, 24.03162
1077.471, 24.24913
1077.953, 24.53549
1078.435, 25.11717
1078.918, 25.97979
1079.400, 26.80864
1079.882, 27.40051
1080.364, 28.13018
1080.846, 29.32770
1081.328, 30.57524
1081.810, 31.51138
1082.292, 32.34807
1082.774, 33.30157
1083.257, 34.45393
1083.739, 35.99750
1084.221, 38.18405
1084.703, 40.21052
1085.185, 41.45000
1085.667, 42.68803
1086.149, 44.24809
1086.631, 46.23151
1087.114, 48.91915
1087.596, 52.11163
1088.078, 55.13301
1088.560, 57.72285
1089.042, 60.47924
1089.524, 63.68898
1090.006, 67.12956
1090.488, 70.82389
1090.970, 74.55621
1091.453, 77.97453
1091.935, 81.26763
1092.417, 84.86771
1092.899, 88.90185
1093.381, 93.12593
1093.863, 97.69567
1094.345, 102.1181
1094.827, 105.9890
1095.309, 109.7313
1095.792, 113.7967
1096.274, 117.9703
1096.756, 121.8713
1097.238, 125.4217
1097.720, 128.5905
1098.202, 131.6484
1098.684, 133.9326
1099.166, 135.3481
1099.649, 135.8126
1100.131, 135.0211
1100.613, 133.3798
1101.095, 131.5703
1101.577, 129.5993
1102.059, 126.6879
1102.541, 122.4856
1103.023, 117.6135
1103.505, 111.8446
1103.988, 105.8405
1104.470, 99.76302
1104.952, 93.79858
1105.434, 88.07221
1105.916, 82.62167
1106.398, 77.61083
1106.880, 73.18738
1107.362, 68.93543
1107.844, 64.68973
1108.327, 60.71939
1108.809, 57.02282
1109.291, 53.70539
1109.773, 50.91387
1110.255, 48.57527
1110.737, 46.54322
1111.219, 44.93123
1111.701, 43.14503
1112.184, 40.73327
1112.666, 38.72803
1113.148, 37.53949
1113.630, 36.62550
1114.112, 35.73255
1114.594, 34.84015
1115.076, 33.91005
1115.558, 32.94460
1116.041, 31.94827
1116.523, 30.86946
1117.005, 29.84678
1117.487, 28.77531
1117.969, 27.93395
1118.451, 27.54127
1118.933, 27.37258
1119.415, 27.18682
1119.897, 26.97468
1120.380, 26.61230
1120.862, 26.05506
1121.344, 25.42764
1121.826, 24.54601
1122.308, 24.03023
1122.790, 24.30054
1123.272, 24.65553
1123.754, 24.40677
1124.236, 23.73069
1124.719, 23.19378
1125.201, 22.75458
1125.683, 22.74652
1126.165, 23.37786
1126.647, 23.59163
1127.129, 23.01225
1127.611, 22.38426
1128.093, 22.20755
1128.576, 22.32872
1129.058, 22.51099
1129.540, 22.73965
1130.022, 22.58960
1130.504, 21.98953
1130.986, 21.95471
1131.468, 22.69941
1131.950, 23.32370
1132.432, 23.37393
1132.915, 23.25869
1133.397, 23.48895
1133.879, 23.93083
1134.361, 24.03553
1134.843, 23.85312
1135.325, 24.01088
1135.807, 24.53623
1136.289, 25.00578
1136.771, 25.28899
1137.254, 25.80327
1137.736, 26.93152
1138.218, 28.27637
1138.700, 29.10954
1139.182, 29.55878
1139.664, 29.93169
1140.146, 30.31437
1140.628, 31.04766
1141.111, 32.15774
1141.593, 33.35654
1142.075, 34.50468
1142.557, 35.57730
1143.039, 36.47976
1143.521, 37.34770
1144.003, 38.43433
1144.485, 39.64703
1144.968, 40.77447
1145.450, 41.84799
1145.932, 43.05235
1146.414, 44.44101
1146.896, 45.87217
1147.378, 47.25173
1147.860, 48.62537
1148.342, 50.27079
1148.824, 51.73856
1149.307, 52.33313
1149.789, 52.43298
1150.271, 52.68990
1150.753, 53.21196
1151.235, 53.88984
1151.717, 54.77681
1152.199, 55.33987
1152.681, 55.24743
1153.163, 54.76652
1153.646, 54.00628
1154.128, 53.00110
1154.610, 51.57385
1155.092, 49.98213
1155.574, 48.88276
1156.056, 48.41584
1156.538, 47.58123
1157.020, 45.81755
1157.503, 44.04292
1157.985, 42.47063
1158.467, 41.00692
1158.949, 39.62483
1159.431, 38.28382
1159.913, 36.98485
1160.395, 35.69814
1160.877, 34.27169
1161.359, 32.46105
1161.842, 30.97827
1162.324, 29.94827
1162.806, 29.06084
1163.288, 28.33609
1163.770, 27.59407
1164.252, 26.63364
1164.734, 25.61360
1165.216, 24.91091
1165.698, 24.55763
1166.181, 24.12389
1166.663, 23.62193
1167.145, 22.99459
1167.627, 22.21133
1168.109, 21.34013
1168.591, 20.34464
1169.073, 19.51545
1169.555, 19.22787
1170.037, 19.32040
1170.520, 19.22075
1171.002, 18.93035
1171.484, 18.36048
1171.966, 17.52825
1172.448, 17.25651
1172.930, 17.75110
1173.412, 18.07428
1173.894, 17.57390
1174.377, 16.79487
1174.859, 16.60581
1175.341, 16.74808
1175.823, 16.41109
1176.305, 15.80875
1176.787, 15.69669
1177.269, 16.00690
1177.751, 15.99385
1178.234, 15.42057
1178.716, 14.80425
1179.198, 14.51185
1179.680, 14.42445
1180.162, 14.56294
1180.644, 14.70703
1181.126, 14.57154
1181.608, 14.23431
1182.090, 13.77242
1182.573, 13.28036
1183.055, 12.98756
1183.537, 12.99297
1184.019, 13.11092
1184.501, 13.32096
1184.983, 13.52114
1185.465, 13.80809
1185.947, 13.91591
1186.429, 13.40776
1186.912, 12.65112
1187.394, 12.35052
1187.876, 12.55839
1188.358, 12.67744
1188.840, 12.53425
1189.322, 12.42347
1189.804, 12.36940
1190.286, 12.36115
1190.769, 12.48619
1191.251, 12.55221
1191.733, 12.31546
1192.215, 11.94043
1192.697, 11.90379
1193.179, 12.29128
1193.661, 12.22479
1194.143, 11.50138
1194.625, 11.11282
1195.108, 11.27194
1195.590, 11.50958
1196.072, 11.62172
1196.554, 11.62946
1197.036, 11.54807
1197.518, 11.39811
1198.000, 11.19468
1198.482, 10.96487
1198.964, 10.99595
1199.447, 11.26061
1199.929, 11.44287
1200.411, 11.47075
1200.893, 11.41316
1201.375, 11.30707
1201.857, 11.20412
1202.339, 11.15848
1202.821, 11.15831
1203.304, 11.20193
1203.786, 11.26612
1204.268, 11.38388
1204.750, 11.46681
1205.232, 11.19124
1205.714, 10.58210
1206.196, 10.30464
1206.678, 10.87415
1207.161, 11.27924
1207.643, 10.50091
1208.125, 9.788402
1208.607, 10.26106
1209.089, 11.04180
1209.571, 11.15378
1210.053, 10.79126
1210.535, 10.61782
1211.017, 10.74163
1211.500, 10.75773
1211.982, 10.29553
1212.464, 10.20537
1212.946, 11.06789
1213.428, 11.69633
1213.910, 11.53525
1214.392, 11.08338
1214.874, 10.71627
1215.356, 10.48778
1215.839, 10.60281
1216.321, 11.11733
1216.803, 11.44594
1217.285, 11.58597
1217.767, 11.54000
1218.249, 11.29688
1218.731, 10.95035
1219.213, 10.52774
1219.696, 10.19973
1220.178, 10.16430
1220.660, 10.33456
1221.142, 10.60789
1221.624, 10.89525
1222.106, 10.81041
1222.588, 10.46735
1223.070, 10.34589
1223.552, 10.48425
1224.035, 10.53805
1224.517, 10.34579
1224.999, 10.13809
1225.481, 10.17973
1225.963, 10.21262
1226.445, 9.909109
1226.927, 9.558017
1227.409, 9.478960
1227.891, 9.570443
1228.374, 9.647006
1228.856, 9.680526
1229.338, 9.686839
1229.820, 9.601920
1230.302, 9.717089
1230.784, 10.42052
1231.266, 10.88899
1231.748, 10.76026
1232.231, 10.42928
1232.713, 10.03140
1233.195, 9.679289
1233.677, 9.580455
1234.159, 9.689643
1234.641, 9.579422
1235.123, 9.173765
1235.605, 8.911819
1236.088, 8.823730
1236.570, 8.758434
1237.052, 8.664782
1237.534, 8.733871
1238.016, 9.110414
1238.498, 9.540200
1238.980, 9.643774
1239.462, 9.550543
1239.944, 9.612050
1240.427, 9.772900
1240.909, 9.901238
1241.391, 9.969076
1241.873, 9.934691
1242.355, 9.795406
1242.837, 9.561864
1243.319, 9.206387
1243.801, 8.996336
1244.283, 9.227059
1244.766, 9.568529
1245.248, 9.866008
1245.730, 10.06174
1246.212, 10.09106
1246.694, 9.989146
1247.176, 9.743468
1247.658, 9.394131
1248.140, 9.279052
1248.622, 9.655813
1249.105, 9.820860
1249.587, 9.511336
1250.069, 9.359560
1250.551, 9.608339
1251.033, 9.872409
1251.515, 9.913013
1251.997, 9.832673
1252.479, 9.775859
1252.962, 9.741130
1253.444, 9.749224
1253.926, 9.796430
1254.408, 9.630778
1254.890, 9.262961
1255.372, 9.058382
1255.854, 9.101785
1256.336, 9.275341
1256.818, 9.515422
1257.301, 9.705793
1257.783, 9.650270
1258.265, 9.550304
1258.747, 9.746638
1259.229, 10.01992
1259.711, 10.04039
1260.193, 9.910440
1260.675, 9.906932
1261.157, 10.01224
1261.640, 9.912918
1262.122, 9.449367
1262.604, 9.101440
1263.086, 8.969737
1263.568, 9.046134
1264.050, 9.537624
1264.532, 9.996283
1265.014, 10.12530
1265.497, 10.12265
1265.979, 10.26112
1266.461, 10.44332
1266.943, 10.16675
1267.425, 9.278855
1267.907, 9.184239
1268.389, 9.973575
1268.871, 10.59873
1269.354, 10.87640
1269.836, 10.84460
1270.318, 10.51647
1270.800, 10.21066
1271.282, 10.26671
1271.764, 10.43472
1272.246, 10.28122
1272.728, 9.980991
1273.210, 9.831249
1273.693, 9.778276
1274.175, 9.649748
1274.657, 9.500387
1275.139, 9.585692
1275.621, 9.962892
1276.103, 10.29117
1276.585, 10.40808
1277.067, 10.48989
1277.549, 10.67922
1278.032, 10.74150
1278.514, 10.42243
1278.996, 10.06469
1279.478, 9.967211
1279.960, 10.03372
1280.442, 10.09389
1280.924, 10.14589
1281.406, 10.11984
1281.889, 10.00387
1282.371, 9.847110
1282.853, 9.635656
1283.335, 9.840010
1283.817, 10.58839
1284.299, 11.27923
1284.781, 11.54045
1285.263, 11.34585
1285.745, 10.66610
1286.228, 9.498263
##END=



