##NAMES=Jensenite
##RRUFFID=R080008
##IDEAL CHEMISTRY=Cu^2+^_3_Te^6+^O_6_&#183;2H_2_O
##LOCALITY=Montezuma mine, Sonora, Mexico
##OWNER=RRUFF
##SOURCE=William W. Pinch
##DESCRIPTION=Bright green equant crystals found on the holotype specimen of cesbronite, R080003
##STATUS=The identification of this mineral has been confirmed by single-crystal X-ray diffraction.
##URL=rruff.info/R080008
142.7217, 22.92880
143.2038, 22.81970
143.6860, 22.86190
144.1681, 22.93728
144.6502, 22.95151
145.1323, 22.92443
145.6144, 22.89429
146.0965, 22.87042
146.5787, 22.85449
147.0608, 22.84844
147.5429, 22.83714
148.0250, 22.86238
148.5071, 22.97837
148.9892, 23.15188
149.4714, 23.29156
149.9535, 23.29910
150.4356, 23.16010
150.9177, 23.08087
151.3998, 23.17349
151.8819, 23.23946
152.3641, 23.18183
152.8462, 23.01150
153.3283, 22.81605
153.8104, 22.68838
154.2925, 22.63117
154.7746, 22.64749
155.2568, 22.83327
155.7389, 23.00910
156.2210, 23.04415
156.7031, 22.92065
157.1852, 22.72991
157.6673, 22.61173
158.1495, 22.59977
158.6316, 22.61977
159.1137, 22.75373
159.5958, 22.88332
160.0779, 22.84613
160.5600, 22.57924
161.0422, 22.23706
161.5243, 22.16411
162.0064, 22.48014
162.4885, 22.74114
162.9706, 22.83684
163.4527, 22.81218
163.9349, 22.74024
164.4170, 22.62520
164.8991, 22.51242
165.3812, 22.49211
165.8633, 22.59188
166.3454, 22.68858
166.8276, 22.70116
167.3097, 22.64077
167.7918, 22.59316
168.2739, 22.60138
168.7560, 22.63201
169.2381, 22.65405
169.7203, 22.67297
170.2024, 22.65653
170.6845, 22.53061
171.1666, 22.26086
171.6487, 22.08845
172.1308, 22.19328
172.6130, 22.38523
173.0951, 22.53248
173.5772, 22.59496
174.0593, 22.60074
174.5414, 22.60349
175.0235, 22.62870
175.5057, 22.59020
175.9878, 22.38641
176.4699, 22.15909
176.9520, 22.06742
177.4341, 22.19245
177.9162, 22.43501
178.3984, 22.47770
178.8805, 22.04058
179.3626, 21.75641
179.8447, 21.79963
180.3268, 22.00632
180.8089, 22.17964
181.2911, 22.21005
181.7732, 22.11723
182.2553, 22.00793
182.7374, 21.80492
183.2195, 21.67006
183.7016, 21.66243
184.1838, 21.74396
184.6659, 21.86185
185.1480, 21.99780
185.6301, 22.13641
186.1122, 22.11425
186.5943, 21.70511
187.0765, 21.40122
187.5586, 21.48933
188.0407, 21.86983
188.5228, 22.20119
189.0049, 22.25054
189.4870, 22.04740
189.9692, 21.88507
190.4513, 21.79381
190.9334, 21.71540
191.4155, 21.60019
191.8976, 21.45199
192.3797, 21.32628
192.8619, 21.24813
193.3440, 21.22771
193.8261, 21.27972
194.3082, 21.44919
194.7903, 21.66363
195.2724, 21.86002
195.7546, 22.04144
196.2367, 22.18418
196.7188, 22.29249
197.2009, 22.34738
197.6830, 22.29856
198.1651, 22.07527
198.6473, 21.77838
199.1294, 21.57907
199.6115, 21.49817
200.0936, 21.47024
200.5757, 21.48739
201.0578, 21.52718
201.5400, 21.56029
202.0221, 21.56601
202.5042, 21.56088
202.9863, 21.59699
203.4684, 21.69971
203.9505, 21.80377
204.4327, 21.93045
204.9148, 22.03681
205.3969, 22.04786
205.8790, 21.89623
206.3611, 21.63501
206.8432, 21.54111
207.3254, 21.82979
207.8075, 22.03591
208.2896, 21.99205
208.7717, 21.81396
209.2538, 21.67876
209.7359, 21.70470
210.2181, 21.86945
210.7002, 21.96464
211.1823, 21.87678
211.6644, 21.83426
212.1465, 21.94798
212.6286, 22.13355
213.1108, 22.23448
213.5929, 22.13740
214.0750, 21.86120
214.5571, 21.68655
215.0392, 21.70295
215.5213, 21.71382
216.0035, 21.64124
216.4856, 21.51991
216.9677, 21.43425
217.4498, 21.44334
217.9319, 21.53937
218.4140, 21.61485
218.8961, 21.66406
219.3783, 21.70338
219.8604, 21.73663
220.3425, 21.76479
220.8246, 21.79401
221.3067, 21.83596
221.7888, 21.87936
222.2710, 21.86040
222.7531, 21.41322
223.2352, 21.77576
223.7173, 21.97069
224.1994, 22.00700
224.6815, 21.40964
225.1637, 21.63054
225.6458, 21.52351
226.1279, 21.40304
226.6100, 21.73911
227.0921, 21.23391
227.5742, 21.56274
228.0564, 21.55863
228.5385, 21.70690
229.0206, 21.52523
229.5027, 21.44546
229.9848, 21.69575
230.4669, 21.76328
230.9491, 21.54362
231.4312, 21.70158
231.9133, 21.18486
232.3954, 21.32416
232.8775, 21.33049
233.3596, 21.34226
233.8418, 21.34535
234.3239, 21.33431
234.8060, 21.32195
235.2881, 21.32886
235.7702, 21.35914
236.2523, 21.36964
236.7345, 21.30596
237.2166, 21.23443
237.6987, 21.22127
238.1808, 21.28773
238.6629, 21.37927
239.1451, 21.44187
239.6272, 21.48033
240.1093, 21.46564
240.5914, 21.30934
241.0735, 21.14021
241.5556, 21.05457
242.0378, 21.07586
242.5199, 21.14665
243.0020, 21.19957
243.4841, 21.23423
243.9662, 21.24944
244.4483, 21.26143
244.9305, 20.97198
245.4126, 21.30061
245.8947, 21.26949
246.3768, 21.45600
246.8589, 21.54346
247.3410, 21.53720
247.8232, 21.15649
248.3053, 21.25930
248.7874, 21.16834
249.2695, 21.06943
249.7516, 21.24030
250.2337, 20.91405
250.7159, 21.39150
251.1980, 21.46335
251.6801, 21.44878
252.1622, 21.27386
252.6443, 21.08373
253.1264, 20.95754
253.6086, 20.90624
254.0907, 20.89339
254.5728, 20.87232
255.0549, 20.82648
255.5370, 20.82588
256.0191, 20.92219
256.5013, 21.01392
256.9834, 21.04318
257.4655, 21.00776
257.9476, 20.93985
258.4297, 20.86633
258.9118, 20.76654
259.3940, 20.75144
259.8761, 20.88284
260.3582, 21.02627
260.8403, 21.11923
261.3224, 21.15753
261.8045, 21.16635
262.2867, 21.16660
262.7688, 21.15543
263.2509, 21.15583
263.7330, 21.17738
264.2151, 21.19902
264.6972, 21.20994
265.1794, 21.21161
265.6615, 21.21299
266.1436, 21.22214
266.6257, 21.23981
267.1078, 21.24833
267.5899, 21.20362
268.0721, 21.19388
268.5542, 21.29372
269.0363, 21.46713
269.5184, 21.60807
270.0005, 21.63633
270.4826, 21.56182
270.9648, 21.53261
271.4469, 21.58739
271.9290, 21.63634
272.4111, 21.63190
272.8932, 21.59437
273.3753, 21.57891
273.8575, 21.62247
274.3396, 21.70893
274.8217, 21.75317
275.3038, 21.68655
275.7859, 21.66358
276.2680, 21.79904
276.7502, 22.01085
277.2323, 22.10527
277.7144, 21.96564
278.1965, 21.70165
278.6786, 21.66590
279.1607, 22.00996
279.6429, 22.25810
280.1250, 22.21637
280.6071, 22.00053
281.0892, 21.81385
281.5713, 21.72750
282.0534, 21.70620
282.5356, 21.68305
283.0177, 21.64567
283.4998, 21.64195
283.9819, 21.75041
284.4640, 21.88298
284.9461, 21.87425
285.4283, 21.66006
285.9104, 21.39674
286.3925, 21.31840
286.8746, 21.43359
287.3567, 21.55804
287.8388, 21.67742
288.3210, 21.77742
288.8031, 21.84621
289.2852, 21.88450
289.7673, 21.86986
290.2494, 21.73989
290.7315, 21.50300
291.2137, 21.34452
291.6958, 21.30076
292.1779, 21.34360
292.6600, 21.49512
293.1421, 21.76173
293.6242, 21.96558
294.1064, 21.92110
294.5885, 21.40265
295.0706, 21.74177
295.5527, 21.92851
296.0348, 21.97106
296.5169, 21.43754
296.9991, 21.64789
297.4812, 21.56013
297.9633, 21.46015
298.4454, 21.77519
298.9275, 21.32546
299.4096, 21.63393
299.8918, 21.63973
300.3739, 21.77420
300.8560, 21.81254
301.3381, 21.82162
301.8202, 21.87871
302.3023, 21.92249
302.7845, 21.81764
303.2666, 21.47042
303.7487, 21.20099
304.2308, 21.29315
304.7129, 21.63539
305.1950, 21.81274
305.6772, 21.63308
306.1593, 21.31420
306.6414, 21.16738
307.1235, 21.19596
307.6056, 21.28095
308.0877, 21.44335
308.5699, 21.62144
309.0520, 21.63921
309.5341, 21.40531
310.0162, 21.14319
310.4983, 21.14545
310.9804, 21.36893
311.4626, 21.55547
311.9447, 21.62014
312.4268, 21.59959
312.9089, 21.52435
313.3910, 21.38054
313.8731, 21.26881
314.3553, 21.33366
314.8374, 21.50913
315.3195, 21.57858
315.8016, 21.37732
316.2837, 21.12182
316.7658, 21.08104
317.2480, 21.26607
317.7301, 21.42740
318.2122, 21.38596
318.6943, 21.21927
319.1764, 21.12244
319.6585, 21.13093
320.1407, 21.18581
320.6228, 21.30084
321.1049, 21.45444
321.5870, 21.46492
322.0691, 21.16849
322.5512, 20.75874
323.0334, 20.61711
323.5155, 20.85167
323.9976, 21.00801
324.4797, 20.72538
324.9618, 20.15799
325.4439, 19.79189
325.9261, 19.79643
326.4082, 19.97601
326.8903, 20.08782
327.3724, 20.13307
327.8545, 20.17591
328.3366, 20.26312
328.8188, 20.35509
329.3009, 20.36507
329.7830, 20.26168
330.2651, 20.16558
330.7472, 20.24967
331.2293, 20.46811
331.7115, 20.55356
332.1936, 20.36417
332.6757, 20.07403
333.1578, 19.84759
333.6399, 19.69307
334.1220, 19.59026
334.6042, 19.54539
335.0863, 19.54198
335.5684, 19.51068
336.0505, 19.38117
336.5326, 19.29328
337.0147, 19.41131
337.4969, 19.67702
337.9790, 19.80442
338.4611, 19.61111
338.9432, 19.25825
339.4253, 19.11173
339.9074, 19.23548
340.3896, 19.36787
340.8717, 19.41231
341.3538, 19.39374
341.8359, 19.35446
342.3180, 19.30026
342.8001, 19.24998
343.2822, 19.23646
343.7643, 19.26283
344.2465, 19.28187
344.7286, 19.30462
345.2107, 19.30569
345.6928, 19.23901
346.1749, 19.09903
346.6570, 18.95452
347.1392, 18.84852
347.6213, 18.79128
348.1034, 18.84371
348.5855, 19.16897
349.0676, 19.46766
349.5497, 19.50424
350.0319, 19.32048
350.5140, 19.14394
350.9961, 19.11593
351.4782, 19.19812
351.9603, 19.20581
352.4424, 19.03560
352.9246, 18.92800
353.4067, 19.02419
353.8888, 19.22277
354.3709, 19.34036
354.8530, 19.30490
355.3351, 19.17237
355.8173, 19.03587
356.2994, 18.85038
356.7815, 18.76659
357.2636, 18.87360
357.7457, 19.04608
358.2278, 19.17803
358.7100, 19.24632
359.1921, 19.25781
359.6742, 19.20279
360.1563, 19.05392
360.6384, 19.02614
361.1205, 19.27512
361.6027, 19.49181
362.0848, 19.48812
362.5669, 19.29964
363.0490, 19.06237
363.5311, 18.85753
364.0132, 18.69205
364.4954, 18.63385
364.9775, 18.81889
365.4596, 18.94356
365.9417, 18.88188
366.4238, 18.74424
366.9059, 18.70257
367.3881, 18.82590
367.8702, 19.01438
368.3523, 19.05902
368.8344, 18.82945
369.3165, 18.66138
369.7986, 18.52192
370.2808, 18.45946
370.7629, 18.57032
371.2450, 18.83102
371.7271, 19.07061
372.2092, 19.08203
372.6913, 18.80481
373.1735, 18.69392
373.6556, 18.92920
374.1377, 19.14071
374.6198, 19.17396
375.1019, 19.08130
375.5840, 18.98776
376.0662, 18.97290
376.5483, 19.02195
377.0304, 19.06373
377.5125, 19.07220
377.9946, 19.11327
378.4767, 19.25374
378.9589, 19.40136
379.4410, 19.44496
379.9231, 19.35188
380.4052, 19.21419
380.8873, 19.18090
381.3694, 19.29108
381.8516, 19.37808
382.3337, 19.39138
382.8158, 19.40998
383.2979, 19.51349
383.7800, 19.67564
384.2621, 19.77581
384.7443, 19.67157
385.2264, 19.38781
385.7085, 19.23769
386.1906, 19.29306
386.6727, 19.38766
387.1548, 19.49356
387.6370, 19.58143
388.1191, 19.60272
388.6012, 19.52792
389.0833, 19.39543
389.5654, 19.25137
390.0475, 19.07583
390.5297, 18.98113
391.0118, 19.08795
391.4939, 19.24134
391.9760, 19.32648
392.4581, 19.32734
392.9402, 19.27736
393.4224, 19.16742
393.9045, 19.01515
394.3866, 18.93127
394.8687, 18.94032
395.3508, 19.00809
395.8329, 19.14567
396.3151, 19.32428
396.7972, 19.44417
397.2793, 19.43618
397.7614, 19.36263
398.2435, 19.31227
398.7256, 19.28869
399.2078, 19.25371
399.6899, 19.17523
400.1720, 19.07568
400.6541, 19.00055
401.1362, 18.94775
401.6183, 18.92753
402.1005, 18.98144
402.5826, 19.07543
403.0647, 19.11220
403.5468, 19.05788
404.0289, 18.94802
404.5110, 18.79932
404.9932, 18.59562
405.4753, 18.50024
405.9574, 18.61844
406.4395, 18.81128
406.9216, 18.96391
407.4037, 19.06198
407.8859, 19.10876
408.3680, 19.10177
408.8501, 19.04273
409.3322, 18.96888
409.8143, 18.86460
410.2964, 18.76460
410.7786, 18.68781
411.2607, 18.62229
411.7428, 18.53039
412.2249, 18.39462
412.7070, 18.26778
413.1891, 18.25977
413.6713, 18.48708
414.1534, 18.62654
414.6355, 18.59356
415.1176, 18.53894
415.5997, 18.59935
416.0818, 18.76348
416.5640, 18.90060
417.0461, 18.88444
417.5282, 18.71247
418.0103, 18.58939
418.4924, 18.49577
418.9745, 18.47677
419.4567, 18.62937
419.9388, 18.83710
420.4209, 18.93067
420.9030, 18.83142
421.3851, 18.63387
421.8672, 18.53156
422.3494, 18.55727
422.8315, 18.59551
423.3136, 18.66011
423.7957, 18.71377
424.2778, 18.73822
424.7599, 18.73035
425.2421, 18.69158
425.7242, 18.61869
426.2063, 18.51367
426.6884, 18.38754
427.1705, 18.18806
427.6526, 18.05970
428.1348, 18.08331
428.6169, 18.20208
429.0990, 18.35328
429.5811, 18.54079
430.0632, 18.69056
430.5453, 18.67706
431.0275, 18.49629
431.5096, 18.35169
431.9917, 18.31065
432.4738, 18.32058
432.9559, 18.30819
433.4380, 18.27429
433.9202, 18.28840
434.4023, 18.46767
434.8844, 18.69180
435.3665, 18.70662
435.8486, 18.46716
436.3307, 18.23422
436.8129, 18.23276
437.2950, 18.39578
437.7771, 18.42553
438.2592, 18.18635
438.7413, 17.94974
439.2234, 17.83831
439.7056, 17.84121
440.1877, 17.97152
440.6698, 18.25901
441.1519, 18.56008
441.6340, 18.62213
442.1161, 18.32502
442.5983, 18.13930
443.0804, 18.13809
443.5625, 18.21719
444.0446, 18.32733
444.5267, 18.44925
445.0089, 18.55639
445.4910, 18.63096
445.9731, 18.67184
446.4552, 18.66909
446.9373, 18.63646
447.4194, 18.54119
447.9016, 18.01314
448.3837, 18.35056
448.8658, 18.53559
449.3479, 18.57643
449.8300, 18.04120
450.3121, 18.24985
450.7943, 18.16038
451.2764, 18.05869
451.7585, 18.37203
452.2406, 17.92059
452.7227, 18.22735
453.2048, 18.23145
453.6870, 18.37407
454.1691, 18.21673
454.6512, 18.15205
455.1333, 18.38741
455.6154, 18.45663
456.0975, 18.26477
456.5797, 18.41619
457.0618, 17.95428
457.5439, 18.03057
458.0260, 18.33909
458.5081, 18.16231
458.9902, 18.31922
459.4724, 18.34904
459.9545, 17.80131
460.4366, 18.25800
460.9187, 18.28031
461.4008, 17.85661
461.8829, 18.27888
462.3651, 17.91667
462.8472, 17.83447
463.3293, 17.96300
463.8114, 17.87185
464.2935, 18.12705
464.7756, 18.04859
465.2578, 17.94032
465.7399, 17.96214
466.2220, 17.61531
466.7041, 17.95241
467.1862, 17.82232
467.6683, 17.92447
468.1505, 18.07925
468.6326, 17.79792
469.1147, 17.91064
469.5968, 17.99264
470.0789, 17.89808
470.5610, 17.66270
471.0432, 17.52901
471.5253, 17.54816
472.0074, 17.60950
472.4895, 17.78262
472.9716, 17.94950
473.4537, 17.95433
473.9359, 17.78127
474.4180, 17.59028
474.9001, 17.58988
475.3822, 17.81110
475.8643, 17.96520
476.3464, 18.03247
476.8286, 18.04575
477.3107, 17.99764
477.7928, 17.90730
478.2749, 17.78935
478.7570, 17.63766
479.2391, 17.50813
479.7213, 17.52069
480.2034, 17.69812
480.6855, 17.82130
481.1676, 17.82256
481.6497, 17.76929
482.1318, 17.71053
482.6140, 17.64800
483.0961, 17.58651
483.5782, 17.50905
484.0603, 17.44179
484.5424, 17.44659
485.0245, 17.52844
485.5067, 17.57933
485.9888, 17.53443
486.4709, 17.42035
486.9530, 17.30729
487.4351, 17.17562
487.9172, 17.08633
488.3994, 17.03050
488.8815, 17.04068
489.3636, 17.22512
489.8457, 17.58877
490.3278, 17.89676
490.8099, 17.90261
491.2921, 17.58883
491.7742, 17.41214
492.2563, 17.45579
492.7384, 17.51700
493.2205, 17.57991
493.7026, 17.60789
494.1848, 17.52497
494.6669, 17.30949
495.1490, 17.07070
495.6311, 16.99063
496.1132, 17.12484
496.5953, 17.23946
497.0775, 17.34358
497.5596, 17.41899
498.0417, 17.43814
498.5238, 17.42336
499.0059, 17.43029
499.4880, 17.50578
499.9702, 17.58531
500.4523, 17.14991
500.9344, 17.50989
501.4165, 17.70225
501.8986, 17.73600
502.3807, 17.13608
502.8629, 17.35441
503.3450, 17.24482
503.8271, 17.12179
504.3092, 17.45529
504.7913, 16.94753
505.2734, 17.27379
505.7556, 17.26712
506.2377, 17.41283
506.7198, 17.22859
507.2019, 17.14626
507.6840, 17.39398
508.1661, 17.45895
508.6482, 17.23673
509.1303, 17.39212
509.6125, 17.43100
510.0946, 17.59838
510.5767, 17.50970
511.0588, 17.35311
511.5409, 17.29529
512.0231, 17.33572
512.5052, 17.40424
512.9873, 17.65022
513.4694, 17.74589
513.9515, 17.46976
514.4337, 17.08384
514.9158, 16.90173
515.3979, 17.00648
515.8800, 17.21524
516.3621, 17.29468
516.8442, 17.22800
517.3264, 17.21346
517.8085, 17.32396
518.2906, 17.39223
518.7727, 17.31380
519.2548, 17.15499
519.7369, 17.02662
520.2191, 16.96815
520.7012, 16.94496
521.1833, 16.91658
521.6654, 16.88681
522.1475, 16.88570
522.6296, 16.92103
523.1118, 16.98557
523.5939, 17.12085
524.0760, 17.30796
524.5581, 17.36041
525.0402, 17.12823
525.5223, 16.85632
526.0045, 16.68732
526.4866, 16.62219
526.9687, 16.66594
527.4508, 16.83158
527.9329, 17.03724
528.4150, 17.12405
528.8972, 17.00804
529.3793, 16.96574
529.8614, 17.08418
530.3435, 17.19152
530.8256, 17.17391
531.3077, 17.06448
531.7899, 16.95589
532.2720, 16.89887
532.7541, 16.89339
533.2362, 16.96498
533.7183, 17.18555
534.2004, 17.27901
534.6826, 17.04519
535.1647, 16.79017
535.6468, 16.70127
536.1289, 16.76309
536.6110, 16.84335
537.0931, 16.84748
537.5753, 16.82886
538.0574, 16.90615
538.5395, 17.08521
539.0216, 17.23527
539.5037, 17.30939
539.9858, 17.31639
540.4680, 17.26097
540.9501, 17.13005
541.4322, 17.02154
541.9143, 17.01314
542.3964, 17.00676
542.8785, 16.85022
543.3607, 16.57619
543.8428, 16.40806
544.3249, 16.50856
544.8070, 16.78671
545.2891, 16.90416
545.7712, 16.64971
546.2534, 16.52235
546.7355, 16.64875
547.2176, 16.81828
547.6997, 16.86782
548.1818, 16.80024
548.6639, 16.71867
549.1461, 16.69637
549.6282, 16.72850
550.1103, 16.81861
550.5924, 17.03144
551.0745, 17.13440
551.5566, 16.93875
552.0388, 16.67683
552.5209, 16.50438
553.0030, 16.43917
553.4851, 16.47642
553.9672, 16.71270
554.4493, 17.01472
554.9315, 17.10729
555.4136, 16.97572
555.8957, 16.88269
556.3778, 17.01160
556.8599, 17.24396
557.3420, 17.23536
557.8242, 16.87694
558.3063, 16.58396
558.7884, 16.46168
559.2705, 16.42124
559.7526, 16.37933
560.2347, 16.33688
560.7169, 16.35999
561.1990, 16.50857
561.6811, 16.73850
562.1632, 16.84063
562.6453, 16.71536
563.1274, 16.62936
563.6096, 16.67264
564.0917, 16.71338
564.5738, 16.61702
565.0559, 16.40814
565.5380, 16.25537
566.0201, 16.29630
566.5023, 16.47006
566.9844, 16.63803
567.4665, 16.81021
567.9486, 16.91253
568.4307, 16.88419
568.9128, 16.79701
569.3950, 16.74281
569.8771, 16.72081
570.3592, 16.73422
570.8413, 16.84002
571.3234, 16.94407
571.8055, 16.89486
572.2877, 16.73100
572.7698, 16.68781
573.2519, 16.91664
573.7340, 17.28030
574.2161, 17.42343
574.6982, 17.18592
575.1804, 16.99665
575.6625, 16.89408
576.1446, 16.80335
576.6267, 16.62526
577.1088, 16.41925
577.5909, 16.35806
578.0731, 16.56846
578.5552, 16.90666
579.0373, 17.02729
579.5194, 16.87595
580.0015, 16.81506
580.4836, 17.00663
580.9658, 17.21334
581.4479, 17.22160
581.9300, 17.07932
582.4121, 17.00020
582.8942, 17.10770
583.3763, 17.27384
583.8585, 17.39324
584.3406, 17.46780
584.8227, 17.50495
585.3048, 17.50719
585.7869, 17.47107
586.2690, 17.38204
586.7512, 17.21910
587.2333, 17.11134
587.7154, 17.04653
588.1975, 17.04462
588.6796, 17.18054
589.1617, 17.36502
589.6438, 17.43699
590.1259, 17.34270
590.6080, 17.21712
591.0901, 17.29412
591.5723, 17.61345
592.0544, 17.73071
592.5365, 17.48937
593.0186, 17.26510
593.5007, 17.21196
593.9828, 17.29081
594.4650, 17.47688
594.9471, 17.80514
595.4292, 18.07883
595.9113, 18.10854
596.3934, 17.97662
596.8755, 17.86506
597.3577, 17.80103
597.8398, 17.76493
598.3219, 17.74781
598.8040, 17.74617
599.2861, 17.73523
599.7682, 17.68725
600.2504, 17.66835
600.7325, 17.70534
601.2146, 17.76515
601.6967, 17.81618
602.1788, 17.85680
602.6609, 17.90778
603.1431, 17.98945
603.6252, 18.09065
604.1073, 18.16189
604.5894, 18.20320
605.0715, 18.21395
605.5536, 18.14513
606.0358, 18.08179
606.5179, 18.08515
607.0000, 18.15476
607.4821, 18.25566
607.9642, 18.46199
608.4464, 18.63182
608.9285, 18.52759
609.4106, 18.19856
609.8927, 17.94833
610.3748, 17.90216
610.8569, 17.95331
611.3391, 17.94557
611.8212, 17.85946
612.3033, 17.78757
612.7854, 17.73587
613.2675, 17.69156
613.7496, 17.60795
614.2318, 17.53987
614.7139, 17.60372
615.1960, 17.83476
615.6781, 18.09291
616.1602, 18.18042
616.6423, 18.08969
617.1245, 17.99854
617.6066, 17.90068
618.0887, 17.81828
618.5708, 17.77048
619.0529, 17.74068
619.5350, 17.71611
620.0172, 17.70637
620.4993, 17.65247
620.9814, 17.43740
621.4635, 17.19144
621.9456, 17.15055
622.4277, 17.32258
622.9099, 17.51573
623.3920, 17.61691
623.8741, 17.63026
624.3562, 17.56683
624.8383, 17.32203
625.3204, 17.15310
625.8026, 17.13605
626.2847, 17.12784
626.7668, 16.98053
627.2489, 16.76012
627.7310, 16.67831
628.2131, 16.88114
628.6953, 17.19094
629.1774, 17.26800
629.6595, 17.10094
630.1416, 16.99276
630.6237, 17.00171
631.1058, 17.07592
631.5880, 17.22009
632.0701, 17.40137
632.5522, 17.50610
633.0343, 17.49688
633.5164, 17.43249
633.9985, 17.30514
634.4807, 17.15496
634.9628, 17.03773
635.4449, 16.96667
635.9270, 16.93701
636.4091, 16.94865
636.8912, 16.99755
637.3734, 17.04136
637.8555, 17.08652
638.3376, 17.11533
638.8197, 17.11495
639.3018, 17.10720
639.7839, 17.11833
640.2661, 17.14264
640.7482, 17.14081
641.2303, 17.07079
641.7124, 16.97476
642.1945, 16.90813
642.6766, 16.87250
643.1588, 16.89068
643.6409, 16.98045
644.1230, 17.09889
644.6051, 17.20175
645.0872, 17.28921
645.5693, 17.33738
646.0515, 17.32883
646.5336, 17.30115
647.0157, 17.24573
647.4978, 17.19025
647.9799, 17.16830
648.4620, 17.18861
648.9442, 17.24136
649.4263, 17.33027
649.9084, 17.44708
650.3905, 17.49860
650.8726, 17.45113
651.3547, 17.42819
651.8369, 17.47003
652.3190, 17.56147
652.8011, 17.73651
653.2832, 17.99723
653.7653, 18.11231
654.2474, 17.83856
654.7296, 17.50405
655.2117, 17.44261
655.6938, 17.59248
656.1759, 17.73385
656.6580, 17.78176
657.1401, 17.76937
657.6223, 17.73650
658.1044, 17.67180
658.5865, 17.65480
659.0686, 17.73387
659.5507, 17.80755
660.0328, 17.86556
660.5150, 17.89767
660.9971, 17.88596
661.4792, 17.82871
661.9613, 17.76060
662.4434, 17.69126
662.9255, 17.63588
663.4077, 17.64049
663.8898, 17.70619
664.3719, 17.77366
664.8540, 17.81632
665.3361, 17.84693
665.8182, 17.89064
666.3004, 17.95844
666.7825, 17.99834
667.2646, 18.06274
667.7467, 18.04426
668.2288, 17.74158
668.7109, 17.36828
669.1931, 17.30853
669.6752, 17.67349
670.1573, 18.14268
670.6394, 18.33781
671.1215, 18.27605
671.6036, 18.15509
672.0858, 17.94043
672.5679, 17.77665
673.0500, 17.75677
673.5321, 17.81052
674.0142, 17.83694
674.4963, 17.83535
674.9785, 17.80562
675.4606, 17.74512
675.9427, 17.65848
676.4248, 17.50046
676.9069, 17.32275
677.3890, 17.27549
677.8712, 17.41616
678.3533, 17.59564
678.8354, 17.57534
679.3175, 17.32177
679.7996, 17.19899
680.2817, 17.29694
680.7639, 17.39052
681.2460, 17.42373
681.7281, 17.40115
682.2102, 17.29510
682.6923, 17.09957
683.1744, 16.96697
683.6566, 17.00324
684.1387, 17.13156
684.6208, 17.28956
685.1029, 17.45796
685.5850, 17.57229
686.0671, 17.60129
686.5493, 17.59017
687.0314, 17.60793
687.5135, 17.66298
687.9956, 17.70130
688.4777, 17.71491
688.9598, 17.72039
689.4420, 17.75414
689.9241, 17.76421
690.4062, 17.65879
690.8883, 17.43323
691.3704, 17.24542
691.8525, 17.21920
692.3347, 17.30702
692.8168, 17.44778
693.2989, 17.63433
693.7810, 17.77855
694.2631, 17.84192
694.7452, 17.86676
695.2274, 17.91465
695.7095, 17.99626
696.1916, 18.03270
696.6737, 17.97182
697.1558, 17.93232
697.6379, 17.96457
698.1201, 18.03086
698.6022, 18.07633
699.0843, 18.09774
699.5664, 18.15310
700.0485, 18.33262
700.5306, 18.56156
701.0128, 18.63713
701.4949, 18.55655
701.9770, 18.38861
702.4591, 18.10556
702.9412, 17.83993
703.4233, 17.75086
703.9055, 17.84925
704.3876, 17.99969
704.8697, 18.33692
705.3518, 18.56366
705.8339, 18.48454
706.3160, 18.29137
706.7982, 18.20461
707.2803, 18.25039
707.7624, 18.31940
708.2445, 18.33483
708.7266, 18.29970
709.2087, 18.21758
709.6909, 18.08639
710.1730, 17.91842
710.6551, 17.66495
711.1372, 17.46012
711.6193, 17.46410
712.1014, 17.64085
712.5836, 17.77749
713.0657, 17.87274
713.5478, 17.91177
714.0299, 17.85502
714.5120, 17.76155
714.9941, 17.70386
715.4763, 17.67744
715.9584, 17.61868
716.4405, 17.48034
716.9226, 17.29613
717.4047, 17.13082
717.8868, 16.97745
718.3690, 16.91719
718.8511, 17.01879
719.3332, 17.11569
719.8153, 17.04633
720.2974, 16.88670
720.7795, 16.83863
721.2617, 17.01385
721.7438, 17.09842
722.2259, 16.88481
722.7080, 16.60775
723.1901, 16.49055
723.6722, 16.51980
724.1544, 16.58075
724.6365, 16.61587
725.1186, 16.61853
725.6007, 16.56787
726.0828, 16.45967
726.5649, 16.35830
727.0471, 16.25575
727.5292, 16.18348
728.0113, 16.18865
728.4934, 16.21995
728.9755, 16.19247
729.4576, 16.09138
729.9398, 15.99078
730.4219, 15.87706
730.9040, 15.80175
731.3861, 15.84581
731.8682, 15.95287
732.3503, 15.98412
732.8325, 15.89581
733.3146, 15.79995
733.7967, 15.85411
734.2788, 16.04425
734.7609, 16.14361
735.2430, 16.13357
735.7252, 16.08644
736.2073, 15.99235
736.6894, 15.90201
737.1715, 15.88056
737.6536, 15.92495
738.1357, 15.95929
738.6179, 15.98262
739.1000, 15.97622
739.5821, 15.90142
740.0642, 15.80360
740.5463, 15.73565
741.0284, 15.71350
741.5106, 15.74876
741.9927, 15.86960
742.4748, 16.02852
742.9569, 16.06013
743.4390, 15.94929
743.9211, 15.79340
744.4033, 15.55276
744.8854, 15.36034
745.3675, 15.37508
745.8496, 15.53073
746.3317, 15.60870
746.8138, 15.53611
747.2960, 15.47549
747.7781, 15.50595
748.2602, 15.54970
748.7423, 15.49864
749.2244, 15.39065
749.7065, 15.38170
750.1887, 15.56021
750.6708, 15.77762
751.1529, 15.76488
751.6350, 15.53079
752.1171, 15.40833
752.5992, 15.44662
753.0814, 15.49480
753.5635, 15.45605
754.0456, 15.39025
754.5277, 15.42896
755.0098, 15.60033
755.4919, 15.72989
755.9741, 15.78001
756.4562, 15.80026
756.9383, 15.82135
757.4204, 15.82874
757.9025, 15.77997
758.3846, 15.67391
758.8668, 15.58626
759.3489, 15.60292
759.8310, 15.68534
760.3131, 15.72729
760.7952, 15.72875
761.2773, 15.67540
761.7595, 15.54048
762.2416, 15.40688
762.7237, 15.36064
763.2058, 15.40025
763.6879, 15.44892
764.1700, 15.56797
764.6522, 15.61256
765.1343, 15.50051
765.6164, 15.35043
766.0985, 15.24019
766.5806, 15.17982
767.0627, 15.15785
767.5449, 15.16794
768.0270, 15.21750
768.5091, 15.34361
768.9912, 15.51739
769.4733, 15.65360
769.9554, 15.74244
770.4376, 15.72760
770.9197, 15.53888
771.4018, 15.29883
771.8839, 15.30293
772.3660, 15.70322
772.8481, 15.91139
773.3303, 15.79477
773.8124, 15.65023
774.2945, 15.56875
774.7766, 15.51890
775.2587, 15.45038
775.7408, 15.35642
776.2230, 15.28751
776.7051, 15.29292
777.1872, 15.32574
777.6693, 15.30739
778.1514, 15.26787
778.6335, 15.33438
779.1157, 15.53672
779.5978, 15.70530
780.0799, 15.66689
780.5620, 15.45388
781.0441, 15.27017
781.5262, 15.08840
782.0084, 15.00414
782.4905, 15.08841
782.9726, 15.21801
783.4547, 15.35183
783.9368, 15.46940
784.4189, 15.51890
784.9011, 15.46989
785.3832, 15.40291
785.8653, 15.32711
786.3474, 15.27260
786.8295, 15.28167
787.3116, 15.34131
787.7938, 15.40539
788.2759, 15.45343
788.7580, 15.50523
789.2401, 15.62304
789.7222, 15.79710
790.2043, 15.77590
790.6865, 15.50068
791.1686, 15.27392
791.6507, 15.22401
792.1328, 15.25571
792.6149, 15.23966
793.0970, 15.17486
793.5792, 15.18939
794.0613, 15.38174
794.5434, 15.54000
795.0255, 15.58914
795.5076, 15.57940
795.9897, 15.55023
796.4719, 15.51192
796.9540, 15.46293
797.4361, 15.39293
797.9182, 15.34200
798.4003, 15.37925
798.8824, 15.48474
799.3646, 15.58830
799.8467, 15.68214
800.3288, 15.74730
800.8109, 15.77585
801.2930, 15.76211
801.7751, 15.67926
802.2573, 15.46403
802.7394, 15.39264
803.2215, 15.69904
803.7036, 15.87489
804.1857, 15.66161
804.6678, 15.31957
805.1500, 15.12708
805.6321, 15.11091
806.1142, 15.14707
806.5963, 15.19465
807.0784, 15.25359
807.5605, 15.35309
808.0427, 15.45538
808.5248, 15.46384
809.0069, 15.37730
809.4890, 15.32218
809.9711, 15.40376
810.4532, 15.54740
810.9354, 15.53487
811.4175, 15.33958
811.8996, 15.20151
812.3817, 15.15802
812.8638, 15.13996
813.3459, 15.09401
813.8281, 15.05400
814.3102, 15.09854
814.7923, 15.25370
815.2744, 15.38197
815.7565, 15.49048
816.2386, 15.53975
816.7208, 15.47849
817.2029, 15.36062
817.6850, 15.24282
818.1671, 15.14349
818.6492, 15.07593
819.1313, 15.05093
819.6135, 15.06202
820.0956, 15.12966
820.5777, 15.23021
821.0598, 15.22498
821.5419, 15.08183
822.0240, 14.99162
822.5062, 15.11255
822.9883, 15.36594
823.4704, 15.48641
823.9525, 15.38321
824.4346, 15.37231
824.9167, 15.60320
825.3989, 15.75018
825.8810, 15.60787
826.3631, 15.34736
826.8452, 15.19039
827.3273, 15.16567
827.8094, 15.18669
828.2916, 15.27999
828.7737, 15.34970
829.2558, 15.29419
829.7379, 15.18104
830.2200, 15.12509
830.7021, 15.14245
831.1843, 15.16379
831.6664, 15.12752
832.1485, 15.08249
832.6306, 15.16016
833.1127, 15.35244
833.5948, 15.48139
834.0770, 15.51857
834.5591, 15.51086
835.0412, 15.47676
835.5233, 15.42776
836.0054, 15.39252
836.4875, 15.37788
836.9697, 15.35648
837.4518, 15.31079
837.9339, 15.27957
838.4160, 15.30372
838.8981, 15.33125
839.3802, 15.27671
839.8624, 15.14994
840.3445, 15.09286
840.8266, 15.23281
841.3087, 15.40203
841.7908, 15.46354
842.2729, 15.45754
842.7551, 15.44237
843.2372, 15.43037
843.7193, 15.43105
844.2014, 15.45489
844.6835, 15.45977
845.1656, 15.33887
845.6478, 15.09010
846.1299, 14.93923
846.6120, 14.91317
847.0941, 14.90485
847.5762, 14.84600
848.0583, 14.81189
848.5405, 14.94506
849.0226, 15.27967
849.5047, 15.44112
849.9868, 15.26514
850.4689, 15.13807
850.9510, 15.18537
851.4332, 15.28163
851.9153, 15.37357
852.3974, 15.41931
852.8795, 15.30941
853.3616, 14.93529
853.8438, 14.61783
854.3259, 14.66505
854.8080, 14.89176
855.2901, 15.06656
855.7722, 15.16967
856.2543, 15.23299
856.7365, 15.26864
857.2186, 15.24462
857.7007, 15.09919
858.1828, 14.85756
858.6649, 14.70869
859.1470, 14.65926
859.6292, 14.66330
860.1113, 14.72560
860.5934, 14.80598
861.0755, 14.87919
861.5576, 14.94139
862.0397, 14.97281
862.5219, 14.98080
863.0040, 14.94666
863.4861, 14.78155
863.9682, 14.66738
864.4503, 14.76559
864.9324, 14.94391
865.4146, 14.97969
865.8967, 14.83200
866.3788, 14.72086
866.8609, 14.82018
867.3430, 14.97016
867.8251, 15.01824
868.3073, 15.00222
868.7894, 14.99562
869.2715, 15.01304
869.7536, 15.04492
870.2357, 15.09163
870.7178, 15.11780
871.2000, 15.00679
871.6821, 14.76662
872.1642, 14.70778
872.6463, 14.89075
873.1284, 15.04601
873.6105, 15.03918
874.0927, 14.94997
874.5748, 14.89737
875.0569, 14.88562
875.5390, 14.87074
876.0211, 14.81754
876.5032, 14.80900
876.9854, 14.91941
877.4675, 15.02541
877.9496, 15.02327
878.4317, 14.93806
878.9138, 14.85640
879.3959, 14.79561
879.8781, 14.75828
880.3602, 14.73395
880.8423, 14.74420
881.3244, 14.86522
881.8065, 15.02545
882.2886, 15.04841
882.7708, 14.89365
883.2529, 14.73251
883.7350, 14.74822
884.2171, 14.84765
884.6992, 14.79497
885.1813, 14.61157
885.6635, 14.45195
886.1456, 14.34096
886.6277, 14.34796
887.1098, 14.55180
887.5919, 14.84107
888.0740, 14.91453
888.5562, 14.70209
889.0383, 14.53215
889.5204, 14.36858
890.0025, 14.31052
890.4846, 14.48698
890.9667, 14.72084
891.4489, 14.82584
891.9310, 14.80862
892.4131, 14.77837
892.8952, 14.75699
893.3773, 14.71620
893.8594, 14.59067
894.3416, 14.49115
894.8237, 14.58981
895.3058, 14.77528
895.7879, 14.74410
896.2700, 14.38286
896.7521, 14.05675
897.2343, 14.12253
897.7164, 14.35493
898.1985, 14.45601
898.6806, 14.44617
899.1627, 14.39433
899.6448, 14.32676
900.1270, 14.29607
900.6091, 14.35338
901.0912, 14.45746
901.5733, 14.50173
902.0554, 14.48556
902.5375, 14.43829
903.0197, 14.34949
903.5018, 14.29668
903.9839, 14.33473
904.4660, 14.40130
904.9481, 14.38982
905.4302, 14.28672
905.9124, 14.23878
906.3945, 14.31603
906.8766, 14.34661
907.3587, 14.23807
907.8408, 14.13537
908.3229, 14.12559
908.8051, 14.20308
909.2872, 14.37008
909.7693, 14.70204
910.2514, 14.87436
910.7335, 14.61179
911.2156, 14.30026
911.6978, 14.23147
912.1799, 14.30059
912.6620, 14.31412
913.1441, 14.23994
913.6262, 14.18383
914.1083, 14.23360
914.5905, 14.30791
915.0726, 14.28440
915.5547, 14.20563
916.0368, 14.18156
916.5189, 14.21649
917.0010, 14.24322
917.4832, 14.22780
917.9652, 14.19842
918.4473, 14.19539
918.9294, 14.21664
919.4116, 14.24514
919.8937, 14.28413
920.3758, 14.30064
920.8579, 14.27474
921.3400, 14.25969
921.8221, 14.31314
922.3043, 14.40598
922.7864, 14.42057
923.2685, 14.25914
923.7506, 14.23441
924.2327, 14.58946
924.7148, 14.79150
925.1970, 14.50493
925.6791, 14.08595
926.1612, 13.92638
926.6433, 14.02937
927.1254, 14.15308
927.6075, 14.30263
928.0897, 14.38103
928.5718, 14.31336
929.0539, 14.19329
929.5360, 14.05212
930.0181, 13.93760
930.5002, 13.95175
930.9824, 14.12321
931.4645, 14.28223
931.9466, 14.27698
932.4287, 14.20153
932.9108, 14.17799
933.3929, 14.17718
933.8751, 14.09372
934.3572, 13.93473
934.8393, 13.87043
935.3214, 14.01971
935.8035, 14.25186
936.2856, 14.35853
936.7678, 14.34678
937.2499, 14.22682
937.7320, 13.99463
938.2141, 13.85852
938.6962, 13.90022
939.1783, 14.01595
939.6605, 14.10462
940.1426, 14.16758
940.6247, 14.21150
941.1068, 14.23644
941.5889, 14.24740
942.0710, 14.28256
942.5532, 14.23516
943.0353, 13.96583
943.5174, 13.63485
943.9995, 13.50497
944.4816, 13.58642
944.9637, 13.71030
945.4459, 13.96807
945.9280, 14.13476
946.4101, 14.06923
946.8922, 13.97776
947.3743, 14.05171
947.8564, 14.21150
948.3386, 14.25069
948.8207, 14.10433
949.3028, 13.94807
949.7849, 13.82024
950.2670, 13.75403
950.7491, 13.82481
951.2313, 13.94408
951.7134, 13.98551
952.1955, 13.94133
952.6776, 13.87656
953.1597, 13.81654
953.6418, 13.78976
954.1240, 13.86737
954.6061, 13.97962
955.0882, 13.95363
955.5703, 13.83886
956.0524, 13.89523
956.5345, 14.18612
957.0167, 14.41533
957.4988, 14.28472
957.9809, 13.94487
958.4630, 13.77310
958.9451, 13.75951
959.4272, 13.76958
959.9094, 13.78853
960.3915, 13.83988
960.8736, 13.94225
961.3557, 14.05396
961.8378, 14.11565
962.3199, 14.12871
962.8021, 14.12199
963.2842, 14.08274
963.7663, 14.06804
964.2484, 14.10932
964.7305, 14.13474
965.2126, 14.08091
965.6948, 13.98950
966.1769, 13.95429
966.6590, 13.98541
967.1411, 14.03334
967.6232, 14.16887
968.1053, 14.22555
968.5875, 14.05293
969.0696, 13.88702
969.5517, 13.95935
970.0338, 14.18833
970.5159, 14.31271
970.9980, 14.25905
971.4802, 14.19323
971.9623, 14.16426
972.4444, 14.13495
972.9265, 14.05129
973.4086, 13.97522
973.8907, 14.00190
974.3729, 14.11955
974.8550, 14.23005
975.3371, 14.31096
975.8192, 14.31961
976.3013, 14.15070
976.7834, 13.95230
977.2656, 13.91971
977.7477, 13.98702
978.2298, 13.96907
978.7119, 13.83289
979.1940, 13.73010
979.6761, 13.80043
980.1583, 13.90743
980.6404, 13.84237
981.1225, 13.66327
981.6046, 13.44456
982.0867, 13.23768
982.5688, 13.28183
983.0510, 13.66591
983.5331, 14.06715
984.0152, 14.11507
984.4973, 13.91815
984.9794, 13.80983
985.4615, 13.78539
985.9437, 13.78035
986.4258, 13.78589
986.9079, 13.80253
987.3900, 13.83383
987.8721, 13.86043
988.3542, 13.84805
988.8364, 13.79900
989.3185, 13.77527
989.8006, 13.78162
990.2827, 13.78992
990.7648, 13.79223
991.2469, 13.80378
991.7291, 13.83773
992.2112, 13.88493
992.6933, 13.92917
993.1754, 13.97642
993.6575, 13.98525
994.1396, 13.92901
994.6218, 13.88165
995.1039, 13.84819
995.5860, 13.84090
996.0681, 13.88640
996.5502, 13.96322
997.0323, 14.01620
997.5145, 14.05035
997.9966, 14.04279
998.4787, 13.91292
998.9608, 13.84179
999.4429, 13.94068
999.9250, 14.07912
1000.407, 14.17480
1000.889, 14.20774
1001.371, 14.12354
1001.854, 13.83901
1002.336, 13.65611
1002.818, 13.74211
1003.300, 13.87058
1003.782, 13.95822
1004.264, 13.98451
1004.746, 13.87674
1005.228, 13.68301
1005.710, 13.61957
1006.193, 13.83092
1006.675, 13.99400
1007.157, 13.85087
1007.639, 13.63288
1008.121, 13.53463
1008.603, 13.51966
1009.085, 13.50191
1009.567, 13.47233
1010.049, 13.48604
1010.532, 13.57862
1011.014, 13.71037
1011.496, 13.91729
1011.978, 14.09056
1012.460, 14.01033
1012.942, 13.77451
1013.424, 13.64829
1013.906, 13.69287
1014.389, 13.78498
1014.871, 13.84944
1015.353, 13.87275
1015.835, 13.80365
1016.317, 13.68902
1016.799, 13.64136
1017.281, 13.65943
1017.763, 13.69806
1018.245, 13.74178
1018.728, 13.80781
1019.210, 13.93207
1019.692, 14.03777
1020.174, 13.90924
1020.656, 13.60679
1021.138, 13.40587
1021.620, 13.33347
1022.102, 13.44550
1022.585, 13.76719
1023.067, 14.09345
1023.549, 14.21306
1024.031, 14.16771
1024.513, 14.07792
1024.995, 13.94476
1025.477, 13.80156
1025.959, 13.64691
1026.442, 13.53635
1026.924, 13.48761
1027.406, 13.53619
1027.888, 13.75599
1028.370, 14.08413
1028.852, 14.15607
1029.334, 13.93190
1029.816, 13.73020
1030.298, 13.55880
1030.781, 13.50789
1031.263, 13.65208
1031.745, 13.85029
1032.227, 13.92778
1032.709, 13.89894
1033.191, 13.89555
1033.673, 13.93593
1034.155, 13.93536
1034.637, 13.86896
1035.120, 13.80416
1035.602, 13.77255
1036.084, 13.75488
1036.566, 13.72420
1037.048, 13.68272
1037.530, 13.66633
1038.012, 13.68870
1038.494, 13.70549
1038.977, 13.70621
1039.459, 13.71446
1039.941, 13.75416
1040.423, 13.79439
1040.905, 13.78324
1041.387, 13.72479
1041.869, 13.71759
1042.351, 13.77339
1042.833, 13.86180
1043.316, 14.12901
1043.798, 14.25156
1044.280, 13.94059
1044.762, 13.51297
1045.244, 13.35959
1045.726, 13.46687
1046.208, 13.54689
1046.690, 13.59880
1047.172, 13.60727
1047.655, 13.46826
1048.137, 13.40459
1048.619, 13.63591
1049.101, 13.91856
1049.583, 13.92155
1050.065, 13.66669
1050.547, 13.52110
1051.029, 13.60524
1051.512, 13.67763
1051.994, 13.66572
1052.476, 13.67826
1052.958, 13.85571
1053.440, 14.02981
1053.922, 13.93910
1054.404, 13.62456
1054.886, 13.46028
1055.369, 13.63344
1055.851, 13.74331
1056.333, 13.63223
1056.815, 13.51107
1057.297, 13.51204
1057.779, 13.55078
1058.261, 13.50218
1058.743, 13.38335
1059.225, 13.33642
1059.708, 13.43003
1060.190, 13.51837
1060.672, 13.54116
1061.154, 13.56601
1061.636, 13.64906
1062.118, 13.74216
1062.600, 13.79674
1063.082, 13.80731
1063.564, 13.77662
1064.047, 13.69480
1064.529, 13.60345
1065.011, 13.47959
1065.493, 13.39347
1065.975, 13.41288
1066.457, 13.47185
1066.939, 13.52160
1067.421, 13.54070
1067.904, 13.46718
1068.386, 13.23358
1068.868, 13.12623
1069.350, 13.37736
1069.832, 13.65441
1070.314, 13.82161
1070.796, 13.86915
1071.278, 13.72457
1071.760, 13.46809
1072.243, 13.31169
1072.725, 13.32070
1073.207, 13.38021
1073.689, 13.51023
1074.171, 13.59369
1074.653, 13.50975
1075.135, 13.38963
1075.617, 13.35450
1076.099, 13.40116
1076.582, 13.51888
1077.064, 13.71379
1077.546, 13.79430
1078.028, 13.52226
1078.510, 13.30248
1078.992, 13.44471
1079.474, 13.66672
1079.956, 13.71894
1080.439, 13.62756
1080.921, 13.47784
1081.403, 13.29216
1081.885, 13.14655
1082.367, 13.08409
1082.849, 13.05575
1083.331, 13.01969
1083.813, 13.02408
1084.295, 13.16021
1084.778, 13.34495
1085.260, 13.43950
1085.742, 13.42025
1086.224, 13.35147
1086.706, 13.17365
1087.188, 13.08507
1087.670, 13.27629
1088.152, 13.48998
1088.635, 13.53820
1089.117, 13.47332
1089.599, 13.34222
1090.081, 13.18411
1090.563, 13.14962
1091.045, 13.36356
1091.527, 13.54642
1092.009, 13.58105
1092.491, 13.54753
1092.974, 13.42596
1093.456, 13.31555
1093.938, 13.37378
1094.420, 13.55968
1094.902, 13.65610
1095.384, 13.58691
1095.866, 13.47970
1096.348, 13.32692
1096.830, 13.21331
1097.313, 13.20686
1097.795, 13.24345
1098.277, 13.24165
1098.759, 13.22604
1099.241, 13.31190
1099.723, 13.56287
1100.205, 13.66679
1100.687, 13.42189
1101.170, 13.15004
1101.652, 12.89319
1102.134, 12.74531
1102.616, 12.82501
1103.098, 13.05299
1103.580, 13.31567
1104.062, 13.60422
1104.544, 13.69964
1105.026, 13.32689
1105.509, 13.06914
1105.991, 13.17644
1106.473, 13.35413
1106.955, 13.42645
1107.437, 13.44379
1107.919, 13.51544
1108.401, 13.64055
1108.883, 13.66776
1109.365, 13.45386
1109.848, 13.32644
1110.330, 13.41981
1110.812, 13.50282
1111.294, 13.45923
1111.776, 13.35911
1112.258, 13.25820
1112.740, 13.16838
1113.222, 13.13672
1113.705, 13.20348
1114.187, 13.24601
1114.669, 13.20121
1115.151, 13.20683
1115.633, 13.39629
1116.115, 13.56540
1116.597, 13.51151
1117.079, 13.31940
1117.562, 13.21959
1118.044, 13.23853
1118.526, 13.23606
1119.008, 13.19624
1119.490, 13.16152
1119.972, 13.12522
1120.454, 13.11650
1120.936, 13.16820
1121.418, 13.24581
1121.901, 13.29250
1122.383, 13.30798
1122.865, 13.31047
1123.347, 13.28389
1123.829, 13.29146
1124.311, 13.37072
1124.793, 13.41016
1125.275, 13.34306
1125.757, 13.24284
1126.240, 13.18306
1126.722, 13.16868
1127.204, 13.24190
1127.686, 13.43926
1128.168, 13.53716
1128.650, 13.50361
1129.132, 13.48312
1129.614, 13.54064
1130.097, 13.53238
1130.579, 13.30912
1131.061, 13.00333
1131.543, 12.98242
1132.025, 13.25259
1132.507, 13.17050
1132.989, 12.69884
1133.471, 12.47776
1133.953, 12.64754
1134.436, 12.89810
1134.918, 13.05766
1135.400, 13.17263
1135.882, 13.32896
1136.364, 13.48262
1136.846, 13.38832
1137.328, 13.08705
1137.810, 12.93577
1138.292, 12.96858
1138.775, 13.09405
1139.257, 13.27495
1139.739, 13.43546
1140.221, 13.50927
1140.703, 13.51375
1141.185, 13.45723
1141.667, 13.36650
1142.149, 13.33102
1142.632, 13.33856
1143.114, 13.31405
1143.596, 13.24834
1144.078, 13.21800
1144.560, 13.27420
1145.042, 13.31631
1145.524, 13.13389
1146.006, 12.93104
1146.489, 13.10681
1146.971, 13.47234
1147.453, 13.66599
1147.935, 13.66342
1148.417, 13.54278
1148.899, 13.34585
1149.381, 13.25430
1149.863, 13.51812
1150.345, 13.77735
1150.828, 13.65091
1151.310, 13.38706
1151.792, 13.22077
1152.274, 13.15894
1152.756, 13.20452
1153.238, 13.32619
1153.720, 13.38434
1154.202, 13.29227
1154.684, 13.21660
1155.167, 13.28119
1155.649, 13.34602
1156.131, 13.30186
1156.613, 13.22548
1157.095, 13.21605
1157.577, 13.24744
1158.059, 13.20690
1158.541, 13.05372
1159.024, 13.01027
1159.506, 13.33643
1159.988, 13.48504
1160.470, 13.06863
1160.952, 12.68251
1161.434, 12.75014
1161.916, 13.04054
1162.398, 13.21887
1162.880, 13.28087
1163.363, 13.36632
1163.845, 13.59435
1164.327, 13.61716
1164.809, 13.23839
1165.291, 12.99600
1165.773, 13.14601
1166.255, 13.35635
1166.737, 13.34678
1167.219, 13.20135
1167.702, 13.13731
1168.184, 13.16777
1168.666, 13.12418
1169.148, 12.98119
1169.630, 12.88663
1170.112, 12.87082
1170.594, 12.87272
1171.076, 12.85847
1171.559, 12.85969
1172.041, 12.91485
1172.523, 13.01918
1173.005, 13.19519
1173.487, 13.42483
1173.969, 13.45444
1174.451, 13.28310
1174.933, 13.10920
1175.416, 12.99173
1175.898, 12.94051
1176.380, 12.96468
1176.862, 13.03684
1177.344, 13.14479
1177.826, 13.25649
1178.308, 13.29792
1178.790, 13.28090
1179.272, 13.21632
1179.755, 13.12533
1180.237, 13.07719
1180.719, 13.09195
1181.201, 13.08430
1181.683, 12.94877
1182.165, 12.84080
1182.647, 12.96956
1183.129, 13.15608
1183.611, 13.17474
1184.094, 13.11452
1184.576, 13.15976
1185.058, 13.30432
1185.540, 13.40066
1186.022, 13.40142
1186.504, 13.33578
1186.986, 13.10785
1187.468, 12.95611
1187.951, 13.07253
1188.433, 13.23969
1188.915, 13.26688
1189.397, 13.22127
1189.879, 13.25176
1190.361, 13.36956
1190.843, 13.44379
1191.325, 13.48668
1191.807, 13.44336
1192.290, 13.18122
1192.772, 13.03298
1193.254, 13.19025
1193.736, 13.39052
1194.218, 13.40316
1194.700, 13.29199
1195.182, 13.21377
1195.664, 13.16611
1196.146, 13.19979
1196.629, 13.34713
1197.111, 13.38128
1197.593, 13.24655
1198.075, 13.14413
1198.557, 13.17703
1199.039, 13.22107
1199.521, 13.12491
1200.003, 12.96591
1200.486, 13.00020
1200.968, 13.16735
1201.450, 13.10214
1201.932, 12.85010
1202.414, 12.75252
1202.896, 12.86655
1203.378, 13.02045
1203.860, 13.12134
1204.343, 13.20249
1204.825, 13.30332
1205.307, 13.40054
1205.789, 13.48588
1206.271, 13.53066
1206.753, 13.47705
1207.235, 13.35142
1207.717, 13.19092
1208.199, 13.02206
1208.682, 12.93171
1209.164, 12.99309
1209.646, 13.02724
1210.128, 12.89107
1210.610, 12.76684
1211.092, 12.74273
1211.574, 12.79765
1212.056, 12.96722
1212.538, 13.17724
1213.021, 13.25619
1213.503, 13.17628
1213.985, 13.17787
1214.467, 13.33767
1214.949, 13.48612
1215.431, 13.69058
1215.913, 13.74822
1216.395, 13.53666
1216.878, 13.22247
1217.360, 12.90736
1217.842, 12.65687
1218.324, 12.67560
1218.806, 12.97230
1219.288, 13.09987
1219.770, 13.04658
1220.252, 13.01248
1220.734, 13.02776
1221.217, 13.04771
1221.699, 13.05295
1222.181, 13.05332
1222.663, 13.05415
1223.145, 13.06945
1223.627, 13.14975
1224.109, 13.25336
1224.591, 13.28302
1225.073, 13.24961
1225.556, 13.18497
1226.038, 13.10142
1226.520, 13.00061
1227.002, 12.88455
1227.484, 12.82015
1227.966, 12.90152
1228.448, 12.99059
1228.930, 12.98854
1229.413, 12.95270
1229.895, 12.90449
1230.377, 12.87426
1230.859, 12.91987
1231.341, 13.02025
1231.823, 13.06965
1232.305, 13.03785
1232.787, 13.00025
1233.270, 12.93161
1233.752, 12.90969
1234.234, 12.93821
1234.716, 13.03546
1235.198, 13.27036
1235.680, 13.50446
1236.162, 13.57178
1236.644, 13.48322
1237.126, 13.22803
1237.609, 12.75187
1238.091, 12.73893
1238.573, 13.23399
1239.055, 13.61483
1239.537, 13.74467
1240.019, 13.65932
1240.501, 13.36965
1240.983, 13.08563
1241.465, 13.07156
1241.948, 13.19390
1242.430, 13.19505
1242.912, 13.14113
1243.394, 13.18309
1243.876, 13.28437
1244.358, 13.33839
1244.840, 13.32803
1245.322, 13.27716
1245.805, 13.18983
1246.287, 13.13453
1246.769, 13.19040
1247.251, 13.23830
1247.733, 13.19139
1248.215, 13.13055
1248.697, 13.12147
1249.179, 13.13737
1249.661, 13.13151
1250.144, 13.10773
1250.626, 13.11399
1251.108, 13.17789
1251.590, 13.18689
1252.072, 13.08405
1252.554, 13.06958
1253.036, 13.23808
1253.518, 12.96287
1254.000, 13.39665
1254.483, 13.63906
1254.965, 13.70038
1255.447, 13.03824
1255.929, 13.31031
1256.411, 13.20798
1256.893, 13.09031
1257.375, 13.49386
1257.857, 12.93694
1258.340, 13.33222
1258.822, 13.34740
1259.304, 13.53655
1259.786, 13.34899
1260.268, 13.27779
1260.750, 13.58341
1261.232, 13.68037
1261.714, 13.44946
1262.197, 13.64965
1262.679, 13.07958
1263.161, 13.18544
1263.643, 13.58292
1264.125, 13.37095
1264.607, 13.57804
1265.089, 13.62552
1265.571, 12.94768
1266.053, 13.53126
1266.536, 13.56931
1267.018, 13.04722
1267.500, 13.58758
1267.982, 13.14272
1268.464, 13.16249
1268.946, 13.03542
1269.428, 12.95285
1269.910, 12.91631
1270.392, 12.98419
1270.875, 13.15020
1271.357, 13.20095
1271.839, 13.12822
1272.321, 13.17232
1272.803, 13.39955
1273.285, 13.55421
1273.767, 13.44524
1274.249, 13.22353
1274.732, 12.96715
1275.214, 12.78790
1275.696, 12.90329
1276.178, 13.11737
1276.660, 13.16581
1277.142, 13.09311
1277.624, 13.05433
1278.106, 13.06794
1278.589, 13.01968
1279.071, 12.77155
1279.553, 12.72273
1280.035, 13.27405
1280.517, 13.54979
1280.999, 13.10773
1281.481, 12.65220
1281.963, 12.58888
1282.445, 12.73588
1282.927, 12.87278
1283.410, 12.98932
1283.892, 13.01951
1284.374, 12.96530
1284.856, 13.00544
1285.338, 13.13493
1285.820, 13.23481
1286.302, 13.28080
1286.784, 13.27303
1287.267, 13.21449
1287.749, 13.16168
1288.231, 13.15442
1288.713, 13.19256
##END=



