##NAMES=Jerrygibbsite
##RRUFFID=R100042
##IDEAL CHEMISTRY=Mn^2+^_9_(SiO_4_)_4_(OH)_2_
##LOCALITY=Kombat mine, Otavi Mountains, Namibia
##OWNER=RRUFF
##SOURCE=William W Pinch
##DESCRIPTION=Tan transparent cleavages, associated with hausmannite, calcite, and an orange-red granular vesuvianite-group mineral
##STATUS=The identification of this mineral has been confirmed by single-crystal X-ray diffraction.
##URL=rruff.info/R100042
92.49744, 1285.505
92.97955, 1304.626
93.46167, 1329.752
93.94379, 1339.586
94.42590, 1340.752
94.90802, 1337.569
95.39014, 1331.147
95.87225, 1321.033
96.35437, 1310.311
96.83649, 1301.790
97.31860, 1294.166
97.80072, 1285.690
98.28284, 1273.614
98.76495, 1257.853
99.24707, 1244.389
99.72919, 1234.288
100.2113, 1225.829
100.6934, 1218.477
101.1755, 1212.062
101.6577, 1206.639
102.1398, 1202.260
102.6219, 1199.062
103.1040, 1195.906
103.5861, 1192.467
104.0682, 1189.068
104.5504, 1185.855
105.0325, 1182.822
105.5146, 1179.732
105.9967, 1175.997
106.4788, 1170.719
106.9609, 1166.932
107.4431, 1165.430
107.9252, 1165.256
108.4073, 1165.200
108.8894, 1164.880
109.3715, 1164.427
109.8536, 1164.233
110.3358, 1164.485
110.8179, 1164.227
111.3000, 1162.469
111.7821, 1159.405
112.2642, 1156.945
112.7463, 1155.888
113.2285, 1155.830
113.7106, 1156.549
114.1927, 1158.235
114.6748, 1160.067
115.1569, 1160.882
115.6390, 1160.406
116.1212, 1159.541
116.6033, 1158.011
117.0854, 1156.467
117.5675, 1155.642
118.0496, 1155.965
118.5317, 1157.153
119.0139, 1157.859
119.4960, 1157.449
119.9781, 1157.168
120.4602, 1157.100
120.9423, 1157.317
121.4244, 1158.025
121.9066, 1159.520
122.3887, 1161.970
122.8708, 1162.659
123.3529, 1160.004
123.8350, 1157.423
124.3171, 1156.466
124.7993, 1157.201
125.2814, 1158.855
125.7635, 1160.878
126.2456, 1163.450
126.7277, 1164.960
127.2098, 1164.746
127.6920, 1163.731
128.1741, 1162.732
128.6562, 1161.848
129.1383, 1161.252
129.6204, 1161.335
130.1025, 1162.006
130.5847, 1162.679
131.0668, 1163.243
131.5489, 1163.649
132.0310, 1163.713
132.5131, 1163.269
132.9952, 1162.574
133.4774, 1161.580
133.9595, 1160.314
134.4416, 1159.643
134.9237, 1160.934
135.4058, 1164.690
135.8879, 1166.992
136.3701, 1165.320
136.8522, 1163.114
137.3343, 1162.426
137.8164, 1163.749
138.2985, 1165.985
138.7806, 1167.253
139.2628, 1166.976
139.7449, 1166.724
140.2270, 1166.209
140.7091, 1165.977
141.1912, 1166.871
141.6733, 1169.257
142.1555, 1172.364
142.6376, 1173.496
143.1197, 1170.339
143.6018, 1167.622
144.0839, 1165.862
144.5660, 1164.842
145.0482, 1164.417
145.5303, 1164.693
146.0124, 1165.319
146.4945, 1163.654
146.9766, 1158.644
147.4587, 1152.967
147.9409, 1147.298
148.4230, 1141.768
148.9051, 1136.811
149.3872, 1132.891
149.8693, 1129.868
150.3514, 1126.446
150.8336, 1122.156
151.3157, 1117.743
151.7978, 1113.914
152.2799, 1110.726
152.7620, 1107.671
153.2441, 1104.248
153.7263, 1100.692
154.2084, 1097.369
154.6905, 1094.474
155.1726, 1091.912
155.6547, 1089.521
156.1368, 1087.499
156.6190, 1085.288
157.1011, 1082.118
157.5832, 1078.547
158.0653, 1075.699
158.5474, 1074.955
159.0295, 1076.028
159.5117, 1074.992
159.9938, 1069.125
160.4759, 1063.699
160.9580, 1060.699
161.4401, 1059.765
161.9222, 1059.635
162.4044, 1059.267
162.8865, 1058.631
163.3686, 1057.887
163.8507, 1057.300
164.3328, 1056.390
164.8149, 1054.750
165.2971, 1052.467
165.7792, 1050.037
166.2613, 1047.945
166.7434, 1046.010
167.2255, 1045.208
167.7076, 1047.150
168.1898, 1048.989
168.6719, 1048.488
169.1540, 1045.280
169.6361, 1040.863
170.1182, 1037.245
170.6003, 1034.631
171.0825, 1032.492
171.5646, 1030.959
172.0467, 1029.846
172.5288, 1029.117
173.0109, 1028.831
173.4930, 1028.517
173.9752, 1027.137
174.4573, 1024.507
174.9394, 1022.318
175.4215, 1021.444
175.9036, 1021.349
176.3857, 1020.823
176.8679, 1019.405
177.3500, 1017.583
177.8321, 1016.059
178.3142, 1014.859
178.7963, 1013.591
179.2784, 1011.718
179.7606, 1009.373
180.2427, 1007.821
180.7248, 1007.860
181.2069, 1008.478
181.6890, 1008.854
182.1711, 1008.933
182.6533, 1008.761
183.1354, 1008.334
183.6175, 1007.626
184.0996, 1006.882
184.5817, 1006.084
185.0638, 1005.314
185.5460, 1004.634
186.0281, 1004.055
186.5102, 1003.537
186.9923, 1003.001
187.4744, 1002.365
187.9565, 1001.934
188.4387, 1001.735
188.9208, 1001.721
189.4029, 1002.110
189.8850, 1002.911
190.3671, 1003.572
190.8492, 1002.901
191.3314, 999.4117
191.8135, 997.0140
192.2956, 995.9268
192.7777, 995.8873
193.2598, 997.1033
193.7419, 999.5928
194.2241, 1002.508
194.7062, 1003.801
195.1883, 1001.614
195.6704, 999.8013
196.1525, 998.8790
196.6346, 998.2346
197.1168, 997.0038
197.5989, 994.7811
198.0810, 992.0737
198.5631, 990.3730
199.0452, 989.7324
199.5273, 989.9100
200.0095, 991.6517
200.4916, 994.0909
200.9737, 995.7225
201.4558, 995.7697
201.9379, 994.8287
202.4200, 994.6235
202.9022, 995.3046
203.3843, 996.2385
203.8664, 997.5953
204.3485, 999.0963
204.8306, 999.8712
205.3127, 999.3288
205.7949, 998.0600
206.2770, 997.3967
206.7591, 997.4709
207.2412, 997.7736
207.7233, 998.2580
208.2054, 998.8358
208.6876, 998.9000
209.1697, 997.9134
209.6518, 996.4733
210.1339, 995.4462
210.6160, 994.8720
211.0981, 994.6954
211.5803, 995.1016
212.0624, 996.0932
212.5445, 996.7711
213.0266, 996.3647
213.5087, 995.7819
213.9908, 995.8663
214.4730, 996.7797
214.9551, 998.1546
215.4372, 999.9857
215.9193, 1002.553
216.4014, 1003.889
216.8836, 1001.794
217.3657, 999.1514
217.8478, 997.8439
218.3299, 998.3348
218.8120, 999.8401
219.2941, 1001.518
219.7763, 1003.606
220.2584, 1005.034
220.7405, 1005.181
221.2226, 1004.911
221.7047, 1004.722
222.1868, 1004.760
222.6690, 1004.979
223.1511, 1005.304
223.6332, 1005.695
224.1153, 1006.307
224.5974, 1007.169
225.0795, 1008.205
225.5617, 1009.460
226.0438, 1010.920
226.5259, 1012.387
227.0080, 1013.495
227.4901, 1014.012
227.9722, 1014.586
228.4544, 1015.540
228.9365, 1016.388
229.4186, 1016.633
229.9007, 1016.180
230.3828, 1015.437
230.8649, 1015.132
231.3471, 1015.731
231.8292, 1016.023
232.3113, 1015.729
232.7934, 1015.312
233.2755, 1015.087
233.7576, 1015.159
234.2398, 1015.523
234.7219, 1016.216
235.2040, 1017.809
235.6861, 1018.630
236.1682, 1017.852
236.6503, 1016.757
237.1325, 1016.527
237.6146, 1017.464
238.0967, 1019.073
238.5788, 1020.744
239.0609, 1022.938
239.5430, 1023.910
240.0252, 1022.805
240.5073, 1020.832
240.9894, 1018.900
241.4715, 1017.227
241.9536, 1016.211
242.4357, 1016.672
242.9179, 1019.151
243.4000, 1020.662
243.8821, 1020.190
244.3642, 1018.955
244.8463, 1018.151
245.3284, 1018.001
245.8106, 1018.438
246.2927, 1019.768
246.7748, 1022.073
247.2569, 1023.323
247.7390, 1022.921
248.2211, 1021.436
248.7033, 1019.079
249.1854, 1015.700
249.6675, 1012.858
250.1496, 1012.794
250.6317, 1015.033
251.1138, 1016.355
251.5960, 1015.603
252.0781, 1013.793
252.5602, 1012.212
253.0423, 1011.028
253.5244, 1009.816
254.0065, 1007.985
254.4887, 1005.813
254.9708, 1004.117
255.4529, 1003.578
255.9350, 1003.446
256.4171, 1002.573
256.8992, 1000.766
257.3813, 998.9694
257.8635, 997.9078
258.3456, 997.3146
258.8277, 996.7858
259.3098, 995.9891
259.7919, 995.3255
260.2740, 995.5453
260.7562, 996.8646
261.2383, 998.1080
261.7204, 998.8376
262.2025, 999.0203
262.6846, 998.3751
263.1667, 996.3167
263.6489, 994.0050
264.1310, 993.2552
264.6131, 994.4247
265.0952, 995.5988
265.5773, 995.9622
266.0594, 995.8834
266.5416, 995.6892
267.0237, 995.5144
267.5058, 995.1395
267.9879, 994.1409
268.4700, 992.3627
268.9521, 990.7349
269.4343, 989.3598
269.9164, 988.3947
270.3985, 988.1121
270.8806, 988.6100
271.3627, 989.4664
271.8448, 990.3525
272.3270, 991.4072
272.8091, 991.7651
273.2912, 990.9213
273.7733, 989.4503
274.2554, 987.2415
274.7375, 984.3370
275.2197, 981.8240
275.7018, 981.1841
276.1839, 982.7669
276.6660, 983.9249
277.1481, 984.1711
277.6302, 983.9529
278.1124, 982.9633
278.5945, 981.4199
279.0766, 980.4506
279.5587, 981.8527
280.0408, 986.1312
280.5229, 988.2588
281.0051, 985.1528
281.4872, 982.2451
281.9693, 982.4030
282.4514, 985.0027
282.9335, 987.3573
283.4156, 986.8100
283.8978, 983.2714
284.3799, 981.0897
284.8620, 981.2497
285.3441, 981.9053
285.8262, 982.5878
286.3083, 983.2615
286.7905, 984.0049
287.2726, 984.9377
287.7547, 986.0001
288.2368, 986.5975
288.7189, 986.3118
289.2010, 986.0176
289.6832, 985.6864
290.1653, 985.5490
290.6474, 986.0600
291.1295, 987.6151
291.6116, 989.7881
292.0938, 990.7838
292.5759, 989.7721
293.0580, 988.6855
293.5401, 987.8325
294.0222, 987.1531
294.5043, 986.5496
294.9865, 985.9746
295.4686, 985.5092
295.9507, 985.3939
296.4328, 985.9728
296.9149, 986.2875
297.3970, 986.0897
297.8792, 985.6932
298.3613, 985.1943
298.8434, 984.6657
299.3255, 984.4393
299.8076, 985.2988
300.2897, 988.3404
300.7719, 989.9105
301.2540, 988.9394
301.7361, 987.3467
302.2182, 986.2878
302.7003, 985.9682
303.1824, 985.8904
303.6646, 985.3558
304.1467, 984.0325
304.6288, 983.4898
305.1109, 984.5206
305.5930, 985.5849
306.0751, 986.0814
306.5573, 985.9552
307.0394, 985.3649
307.5215, 984.3611
308.0036, 982.8844
308.4857, 981.7844
308.9678, 981.7112
309.4500, 981.3812
309.9321, 979.9101
310.4142, 977.8970
310.8963, 976.6659
311.3784, 977.2563
311.8605, 979.3302
312.3427, 980.2076
312.8248, 978.9563
313.3069, 977.4876
313.7890, 976.0436
314.2711, 974.6282
314.7532, 973.0593
315.2354, 971.2246
315.7175, 969.4778
316.1996, 969.0222
316.6817, 971.6614
317.1638, 972.6742
317.6459, 970.4865
318.1281, 967.2203
318.6102, 964.6979
319.0923, 963.5114
319.5744, 963.1288
320.0565, 962.6777
320.5386, 961.9902
321.0208, 961.6376
321.5029, 962.0530
321.9850, 962.4418
322.4671, 962.2224
322.9492, 961.3790
323.4313, 960.3740
323.9135, 959.6864
324.3956, 959.3522
324.8777, 959.1483
325.3598, 959.2626
325.8419, 959.3246
326.3240, 959.4333
326.8062, 959.3928
327.2883, 958.7328
327.7704, 956.9323
328.2525, 954.0925
328.7346, 951.9479
329.2167, 950.9082
329.6989, 950.1779
330.1810, 949.6569
330.6631, 949.2980
331.1452, 949.0721
331.6273, 948.9713
332.1094, 948.9739
332.5916, 948.9892
333.0737, 948.8755
333.5558, 949.0526
334.0379, 950.0391
334.5200, 951.0768
335.0021, 951.2452
335.4843, 950.2795
335.9664, 949.0427
336.4485, 949.0937
336.9306, 951.0986
337.4127, 952.3829
337.8948, 952.0987
338.3770, 951.4999
338.8591, 951.2179
339.3412, 951.3487
339.8233, 951.7178
340.3055, 952.2306
340.7876, 952.9166
341.2697, 953.4059
341.7518, 953.3870
342.2339, 953.4707
342.7160, 954.0876
343.1982, 955.0106
343.6803, 955.6551
344.1624, 955.4830
344.6445, 954.7402
345.1266, 954.7463
345.6087, 956.1807
346.0909, 957.2618
346.5730, 957.0343
347.0551, 956.3030
347.5372, 956.0882
348.0193, 956.8372
348.5014, 958.1674
348.9836, 959.4807
349.4657, 960.8511
349.9478, 961.9335
350.4299, 962.6605
350.9120, 963.0504
351.3941, 962.8593
351.8763, 962.0717
352.3584, 961.4440
352.8405, 961.8495
353.3226, 963.3170
353.8047, 964.8572
354.2868, 966.8337
354.7690, 968.2983
355.2511, 968.1520
355.7332, 966.8220
356.2153, 966.0990
356.6974, 967.8552
357.1795, 971.2706
357.6617, 972.9077
358.1438, 971.8353
358.6259, 970.8282
359.1080, 971.9676
359.5901, 974.1101
360.0722, 975.3615
360.5544, 974.6205
361.0365, 973.1917
361.5186, 972.9001
362.0007, 973.8472
362.4828, 975.2370
362.9649, 977.9795
363.4471, 980.2354
363.9292, 979.3474
364.4113, 974.2872
364.8934, 969.5039
365.3755, 968.7067
365.8576, 971.3028
366.3398, 974.1766
366.8219, 977.0156
367.3040, 979.3327
367.7861, 980.1762
368.2682, 979.7296
368.7503, 980.1152
369.2325, 982.8986
369.7146, 986.8513
370.1967, 989.9229
370.6788, 991.9099
371.1609, 993.2204
371.6430, 993.7638
372.1252, 993.8372
372.6073, 994.4255
373.0894, 996.4508
373.5715, 998.3975
374.0536, 998.6371
374.5357, 997.4952
375.0179, 996.9144
375.5000, 997.8021
375.9821, 999.8987
376.4642, 1002.654
376.9463, 1006.499
377.4284, 1009.912
377.9106, 1012.187
378.3927, 1013.688
378.8748, 1015.014
379.3569, 1016.317
379.8390, 1017.481
380.3211, 1018.108
380.8033, 1017.890
381.2854, 1019.175
381.7675, 1023.457
382.2496, 1028.340
382.7317, 1032.111
383.2138, 1034.637
383.6960, 1036.418
384.1781, 1037.749
384.6602, 1038.649
385.1423, 1039.557
385.6244, 1040.927
386.1065, 1041.793
386.5887, 1041.449
387.0708, 1040.445
387.5529, 1039.598
388.0350, 1039.245
388.5171, 1039.452
388.9992, 1040.404
389.4814, 1043.373
389.9635, 1045.090
390.4456, 1045.246
390.9277, 1044.391
391.4098, 1042.400
391.8919, 1039.586
392.3741, 1037.178
392.8562, 1036.557
393.3383, 1038.015
393.8204, 1039.082
394.3025, 1039.557
394.7846, 1039.894
395.2668, 1040.414
395.7489, 1040.894
396.2310, 1040.908
396.7131, 1040.199
397.1952, 1038.874
397.6773, 1037.222
398.1595, 1034.583
398.6416, 1032.741
399.1237, 1032.160
399.6058, 1032.207
400.0879, 1032.473
400.5700, 1032.813
401.0522, 1033.111
401.5343, 1033.237
402.0164, 1033.179
402.4985, 1032.996
402.9806, 1032.767
403.4627, 1032.309
403.9449, 1031.212
404.4270, 1029.792
404.9091, 1028.896
405.3912, 1029.372
405.8733, 1030.584
406.3554, 1030.459
406.8376, 1028.553
407.3197, 1026.390
407.8018, 1024.113
408.2839, 1022.106
408.7660, 1020.909
409.2481, 1020.717
409.7303, 1020.898
410.2124, 1021.001
410.6945, 1021.005
411.1766, 1020.492
411.6587, 1018.976
412.1408, 1017.439
412.6230, 1017.223
413.1051, 1018.073
413.5872, 1017.974
414.0693, 1014.755
414.5514, 1010.559
415.0335, 1009.271
415.5157, 1011.357
415.9978, 1013.540
416.4799, 1013.789
416.9620, 1012.466
417.4441, 1010.973
417.9262, 1009.174
418.4084, 1007.449
418.8905, 1006.029
419.3726, 1004.854
419.8547, 1003.727
420.3368, 1002.535
420.8189, 1001.527
421.3011, 1001.169
421.7832, 1001.595
422.2653, 1002.075
422.7474, 1003.183
423.2295, 1003.885
423.7116, 1002.794
424.1938, 1000.108
424.6759, 997.8122
425.1580, 997.6848
425.6401, 999.5099
426.1222, 999.2003
426.6043, 993.7539
427.0865, 989.9895
427.5686, 990.7313
428.0507, 993.8012
428.5328, 996.2225
429.0149, 996.8447
429.4970, 996.3467
429.9792, 995.8863
430.4613, 995.4344
430.9434, 995.0797
431.4255, 994.6663
431.9076, 994.4610
432.3897, 994.9915
432.8719, 995.9423
433.3540, 996.3713
433.8361, 995.5211
434.3182, 993.5175
434.8003, 991.0690
435.2824, 987.0238
435.7646, 984.4305
436.2467, 984.6361
436.7288, 986.1975
437.2109, 987.7571
437.6930, 988.8965
438.1751, 989.6583
438.6573, 990.3939
439.1394, 991.2070
439.6215, 990.2451
440.1036, 985.4293
440.5857, 980.8009
441.0678, 979.3010
441.5500, 980.2802
442.0321, 981.1396
442.5142, 980.1928
442.9963, 978.4440
443.4784, 977.8156
443.9605, 978.4410
444.4427, 979.1599
444.9248, 979.4494
445.4069, 979.4496
445.8890, 979.4185
446.3711, 979.3677
446.8532, 979.2908
447.3354, 979.4566
447.8175, 979.5656
448.2996, 978.9901
448.7817, 977.5992
449.2638, 975.4020
449.7459, 971.7546
450.2281, 966.5344
450.7102, 964.1330
451.1923, 967.4383
451.6744, 971.1804
452.1565, 971.9879
452.6386, 970.4151
453.1208, 968.5211
453.6029, 967.3195
454.0850, 966.6581
454.5671, 966.1193
455.0492, 965.6708
455.5313, 965.4083
456.0135, 965.9265
456.4956, 966.2371
456.9777, 965.1858
457.4598, 962.8712
457.9419, 960.6403
458.4240, 959.8528
458.9062, 960.5416
459.3883, 960.7000
459.8704, 959.7478
460.3525, 958.8997
460.8346, 958.4489
461.3167, 958.2400
461.7989, 958.1806
462.2810, 958.2429
462.7631, 958.0847
463.2452, 956.9797
463.7273, 954.6779
464.2094, 952.9090
464.6916, 952.4806
465.1737, 952.0668
465.6558, 950.5375
466.1379, 948.2665
466.6200, 946.6722
467.1021, 946.9541
467.5843, 948.2191
468.0664, 948.6827
468.5485, 948.2646
469.0306, 947.6522
469.5127, 947.2844
469.9948, 946.8015
470.4770, 945.4709
470.9591, 942.8707
471.4412, 940.9583
471.9233, 941.0997
472.4054, 942.5027
472.8875, 943.9308
473.3697, 945.2042
473.8518, 945.9571
474.3339, 945.7636
474.8160, 944.6044
475.2981, 943.4737
475.7802, 942.3558
476.2624, 941.2813
476.7445, 940.1779
477.2266, 939.1269
477.7087, 938.2958
478.1908, 937.7419
478.6729, 937.3779
479.1551, 937.0032
479.6372, 936.2454
480.1193, 936.4079
480.6014, 938.6306
481.0835, 940.6226
481.5656, 940.8867
482.0478, 939.7867
482.5299, 938.5937
483.0120, 938.1500
483.4941, 938.2399
483.9762, 938.0510
484.4583, 937.4304
484.9405, 936.8550
485.4226, 936.7484
485.9047, 936.5084
486.3868, 935.3976
486.8689, 933.4354
487.3510, 931.7278
487.8332, 931.3036
488.3153, 931.9568
488.7974, 932.8492
489.2795, 934.2996
489.7616, 935.1153
490.2437, 933.9008
490.7259, 931.7201
491.2080, 930.1885
491.6901, 929.8480
492.1722, 929.6962
492.6543, 928.8744
493.1364, 927.6603
493.6186, 926.8140
494.1007, 926.4941
494.5828, 926.7443
495.0649, 927.9724
495.5470, 930.3487
496.0291, 931.2272
496.5113, 929.3867
496.9934, 927.0911
497.4755, 925.5866
497.9576, 924.6965
498.4397, 923.8309
498.9218, 922.7184
499.4040, 921.4322
499.8861, 920.1346
500.3682, 918.7366
500.8503, 917.5185
501.3324, 916.3781
501.8145, 915.4723
502.2967, 915.1578
502.7788, 915.1949
503.2609, 914.8738
503.7430, 913.6435
504.2251, 911.7369
504.7072, 910.0253
505.1894, 908.4160
505.6715, 907.2089
506.1536, 907.0491
506.6357, 906.9374
507.1178, 905.9156
507.5999, 903.9205
508.0821, 902.0050
508.5642, 901.0522
509.0463, 900.7815
509.5284, 900.3373
510.0105, 899.6295
510.4926, 898.9775
510.9748, 898.7816
511.4569, 898.7239
511.9390, 897.9979
512.4211, 896.0190
512.9032, 894.3708
513.3853, 894.1564
513.8674, 894.7009
514.3495, 895.0170
514.8317, 894.8787
515.3138, 894.0421
515.7959, 892.0882
516.2780, 888.8793
516.7601, 886.5416
517.2422, 885.5618
517.7244, 884.7414
518.2065, 884.0280
518.6886, 883.1070
519.1707, 881.2313
519.6528, 878.2267
520.1349, 875.2803
520.6171, 874.4548
521.0992, 876.4929
521.5813, 877.6484
522.0634, 877.5107
522.5455, 876.8390
523.0276, 875.5484
523.5098, 873.9693
523.9919, 872.6965
524.4740, 872.0480
524.9561, 871.6318
525.4382, 870.7513
525.9203, 869.3947
526.4025, 868.4850
526.8846, 868.5013
527.3667, 868.6761
527.8488, 868.1843
528.3309, 867.1328
528.8130, 866.2126
529.2952, 865.9720
529.7773, 865.6793
530.2594, 864.3874
530.7415, 862.3466
531.2236, 860.7565
531.7057, 860.1942
532.1879, 860.2223
532.6700, 859.9770
533.1521, 859.0956
533.6342, 858.8144
534.1163, 859.9188
534.5984, 860.9830
535.0806, 860.9063
535.5627, 859.9510
536.0448, 859.0439
536.5269, 858.7479
537.0090, 858.9363
537.4911, 859.3274
537.9733, 860.3360
538.4554, 860.6120
538.9375, 859.1561
539.4196, 857.6484
539.9017, 857.2241
540.3839, 857.7663
540.8660, 858.3716
541.3481, 858.6142
541.8302, 858.4485
542.3123, 857.5022
542.7944, 855.6246
543.2766, 854.3902
543.7587, 854.8591
544.2408, 855.9445
544.7229, 856.0208
545.2050, 854.9901
545.6871, 853.9515
546.1693, 853.1330
546.6514, 852.5880
547.1335, 852.6018
547.6156, 853.0527
548.0977, 853.1503
548.5798, 852.3486
549.0620, 850.9403
549.5441, 849.9260
550.0262, 849.1050
550.5083, 848.9954
550.9904, 850.3989
551.4725, 851.8980
551.9547, 852.4267
552.4368, 851.9968
552.9189, 851.2255
553.4010, 850.5763
553.8831, 849.9388
554.3652, 848.4786
554.8474, 844.8995
555.3295, 843.8116
555.8116, 850.4083
556.2937, 857.1588
556.7758, 857.9743
557.2579, 852.8124
557.7401, 847.0624
558.2222, 843.3522
558.7043, 841.2869
559.1864, 840.5815
559.6685, 841.2348
560.1506, 841.5706
560.6328, 840.6800
561.1149, 839.0634
561.5970, 837.7422
562.0791, 836.6992
562.5612, 835.9092
563.0433, 835.8541
563.5255, 835.6830
564.0076, 834.3044
564.4897, 832.0228
564.9718, 830.2227
565.4539, 829.8130
565.9360, 830.4541
566.4182, 830.9905
566.9003, 831.1885
567.3824, 831.7601
567.8645, 833.9742
568.3466, 835.5273
568.8287, 834.2619
569.3109, 830.8620
569.7930, 828.0853
570.2751, 827.9052
570.7572, 829.1292
571.2393, 829.2793
571.7214, 828.2910
572.2036, 827.0179
572.6857, 825.5995
573.1678, 824.1478
573.6499, 822.6766
574.1320, 821.1885
574.6141, 820.1031
575.0963, 819.9332
575.5784, 819.8973
576.0605, 819.3927
576.5426, 818.4393
577.0247, 817.1989
577.5068, 815.7423
577.9890, 814.0705
578.4711, 812.1494
578.9532, 809.7524
579.4353, 807.7053
579.9174, 805.4254
580.3995, 804.0197
580.8817, 804.8178
581.3638, 806.7549
581.8459, 807.8090
582.3280, 806.9930
582.8101, 805.1749
583.2922, 803.6199
583.7744, 802.3305
584.2565, 801.3307
584.7386, 800.7468
585.2207, 800.2664
585.7029, 799.3033
586.1850, 798.2506
586.6671, 798.2582
587.1492, 800.5549
587.6313, 802.6949
588.1135, 802.0297
588.5956, 799.9366
589.0777, 800.3269
589.5598, 804.2707
590.0419, 807.9525
590.5240, 806.9931
591.0062, 801.1143
591.4883, 797.2078
591.9704, 796.1865
592.4525, 795.7714
592.9346, 795.6789
593.4167, 795.7645
593.8989, 796.0905
594.3810, 796.5793
594.8631, 796.7315
595.3452, 795.8805
595.8273, 794.1359
596.3094, 792.7211
596.7916, 791.7038
597.2737, 790.8593
597.7558, 790.0540
598.2379, 789.3954
598.7200, 789.0723
599.2021, 789.1393
599.6843, 789.1824
600.1664, 788.9459
600.6485, 788.5740
601.1306, 788.1420
601.6127, 787.7040
602.0948, 787.7072
602.5770, 788.5413
603.0591, 789.7528
603.5412, 790.0760
604.0233, 788.5342
604.5054, 787.6862
604.9875, 788.1764
605.4697, 788.7784
605.9518, 788.7549
606.4339, 788.1770
606.9160, 787.4503
607.3981, 786.8141
607.8802, 786.1105
608.3624, 784.8159
608.8445, 782.7617
609.3266, 781.5707
609.8087, 781.9980
610.2908, 782.7145
610.7729, 782.9628
611.2551, 782.7268
611.7372, 781.8710
612.2193, 779.7072
612.7014, 777.7304
613.1835, 777.3484
613.6656, 777.8934
614.1478, 777.8692
614.6299, 776.9075
615.1120, 775.6175
615.5941, 774.5305
616.0762, 773.6410
616.5583, 773.3184
617.0405, 774.1061
617.5226, 774.7678
618.0047, 775.6122
618.4868, 775.9276
618.9689, 774.4969
619.4510, 771.4854
619.9332, 768.8733
620.4153, 768.4709
620.8974, 769.7682
621.3795, 771.2716
621.8616, 773.2592
622.3438, 773.9061
622.8259, 771.6893
623.3080, 768.5364
623.7901, 767.1346
624.2722, 767.5714
624.7543, 767.8678
625.2365, 767.2689
625.7186, 766.5162
626.2007, 766.2208
626.6828, 766.2846
627.1649, 766.3093
627.6470, 766.1184
628.1292, 766.5767
628.6113, 766.4078
629.0934, 767.6192
629.5755, 768.4062
630.0576, 769.3887
630.5397, 769.1957
631.0219, 766.1521
631.5040, 762.1537
631.9861, 759.8826
632.4682, 760.1432
632.9503, 761.2180
633.4324, 761.8289
633.9146, 761.9953
634.3967, 761.5430
634.8788, 760.3546
635.3609, 759.6515
635.8430, 760.4477
636.3251, 762.0706
636.8073, 762.4729
637.2894, 761.0645
637.7715, 760.0633
638.2536, 760.5844
638.7357, 760.9909
639.2178, 759.3776
639.7000, 756.4985
640.1821, 754.8645
640.6642, 755.9156
641.1463, 758.2352
641.6284, 758.8647
642.1105, 757.4327
642.5927, 756.3002
643.0748, 756.1418
643.5569, 755.6854
644.0390, 753.6445
644.5211, 750.9185
645.0032, 749.3993
645.4854, 749.8416
645.9675, 750.7930
646.4496, 751.5370
646.9317, 752.0528
647.4138, 752.3893
647.8959, 752.5330
648.3781, 752.1295
648.8602, 750.8454
649.3423, 748.8715
649.8244, 747.1268
650.3065, 745.1961
650.7886, 744.1693
651.2708, 744.9666
651.7529, 745.8685
652.2350, 745.5300
652.7171, 744.2843
653.1992, 743.3828
653.6813, 743.5499
654.1635, 744.2000
654.6456, 744.5063
655.1277, 744.4802
655.6098, 744.3356
656.0919, 744.1885
656.5740, 743.6806
657.0562, 742.2576
657.5383, 740.1082
658.0204, 738.6513
658.5025, 738.4988
658.9846, 738.2795
659.4667, 737.5256
659.9489, 736.5634
660.4310, 735.5887
660.9131, 734.7275
661.3952, 734.2911
661.8773, 734.5967
662.3594, 735.3142
662.8416, 735.2527
663.3237, 734.1161
663.8058, 733.3163
664.2879, 733.5107
664.7700, 733.6844
665.2521, 732.8428
665.7343, 731.3514
666.2164, 730.4911
666.6985, 731.0105
667.1806, 731.7391
667.6627, 731.9007
668.1448, 731.6736
668.6270, 731.4163
669.1091, 731.1943
669.5912, 730.7939
670.0733, 730.0046
670.5554, 728.8839
671.0375, 727.7955
671.5197, 726.4092
672.0018, 725.6298
672.4839, 726.1293
672.9660, 726.7187
673.4481, 726.5173
673.9302, 725.6592
674.4124, 724.7786
674.8945, 724.0084
675.3766, 723.6699
675.8587, 724.7531
676.3408, 726.7704
676.8229, 727.2826
677.3051, 725.6125
677.7872, 723.3284
678.2693, 721.6346
678.7514, 720.5435
679.2335, 720.2223
679.7156, 721.3956
680.1978, 722.2889
680.6799, 722.8442
681.1620, 722.8881
681.6441, 721.8123
682.1262, 720.0128
682.6083, 718.8987
683.0905, 719.5101
683.5726, 720.9102
684.0547, 721.3500
684.5368, 720.8279
685.0189, 720.0447
685.5010, 719.0266
685.9832, 718.0107
686.4653, 717.2265
686.9474, 716.6226
687.4295, 715.9408
687.9116, 714.9059
688.3937, 714.1633
688.8759, 714.0634
689.3580, 714.2404
689.8401, 714.5098
690.3222, 714.7256
690.8043, 714.5116
691.2864, 713.5536
691.7686, 712.2764
692.2507, 711.8258
692.7328, 712.4033
693.2149, 712.5012
693.6970, 711.5803
694.1791, 710.6394
694.6613, 710.4900
695.1434, 710.8145
695.6255, 710.9688
696.1076, 711.0803
696.5897, 710.5485
697.0718, 708.2825
697.5540, 705.6930
698.0361, 704.6042
698.5182, 704.9887
699.0003, 705.7601
699.4824, 706.2994
699.9645, 706.5357
700.4467, 706.1832
700.9288, 704.9743
701.4109, 704.2110
701.8930, 704.4926
702.3751, 704.5820
702.8572, 703.3453
703.3394, 701.6888
703.8215, 701.3748
704.3036, 703.1776
704.7857, 704.6168
705.2678, 703.8257
705.7499, 702.0568
706.2321, 700.8406
706.7142, 700.3036
707.1963, 700.2302
707.6784, 700.5325
708.1605, 701.0770
708.6426, 701.6586
709.1248, 702.4341
709.6069, 702.6938
710.0890, 702.4544
710.5711, 701.6367
711.0532, 699.2465
711.5353, 696.7207
712.0175, 696.1828
712.4996, 698.1175
712.9817, 700.1750
713.4638, 701.1046
713.9459, 701.1849
714.4280, 700.5869
714.9102, 699.4453
715.3923, 698.2147
715.8744, 697.0652
716.3565, 696.1313
716.8386, 695.6350
717.3207, 695.6395
717.8029, 695.6315
718.2850, 695.5621
718.7671, 695.5421
719.2492, 695.6519
719.7313, 695.7868
720.2134, 695.7960
720.6956, 695.6866
721.1777, 695.6876
721.6598, 696.2831
722.1419, 696.8245
722.6240, 696.2376
723.1061, 694.8137
723.5883, 693.6119
724.0704, 692.9222
724.5525, 692.9304
725.0346, 694.0898
725.5167, 696.3227
725.9988, 696.8019
726.4810, 693.1730
726.9631, 691.1967
727.4452, 693.3678
727.9273, 695.8924
728.4094, 695.4130
728.8915, 692.5433
729.3737, 690.5105
729.8558, 691.1570
730.3379, 692.6308
730.8200, 693.1783
731.3021, 692.9636
731.7842, 692.3096
732.2664, 691.2883
732.7485, 690.2579
733.2306, 689.4647
733.7127, 688.9116
734.1948, 688.6298
734.6769, 688.9208
735.1591, 688.9344
735.6412, 688.4164
736.1233, 687.8705
736.6054, 687.4370
737.0875, 687.1882
737.5696, 687.3407
738.0518, 688.0670
738.5339, 688.5590
739.0160, 687.6794
739.4981, 686.3163
739.9802, 686.3880
740.4623, 687.8240
740.9445, 688.8871
741.4266, 688.6913
741.9087, 687.7183
742.3908, 686.7798
742.8729, 685.8056
743.3550, 685.1429
743.8372, 684.8676
744.3193, 684.8292
744.8014, 685.4054
745.2835, 685.9553
745.7656, 685.6542
746.2477, 684.4374
746.7299, 683.2275
747.2120, 681.9832
747.6941, 681.4174
748.1762, 683.1852
748.6583, 686.3698
749.1404, 687.9655
749.6226, 687.1324
750.1047, 685.4040
750.5868, 684.2779
751.0689, 683.7119
751.5510, 683.1876
752.0331, 682.6514
752.5153, 682.2656
752.9974, 681.9385
753.4795, 681.8692
753.9616, 682.4739
754.4437, 683.4590
754.9258, 683.9286
755.4080, 683.5370
755.8901, 682.7014
756.3722, 681.2499
756.8543, 679.7460
757.3364, 679.1613
757.8185, 679.4724
758.3007, 679.9136
758.7828, 680.0312
759.2649, 679.9649
759.7470, 679.9955
760.2291, 680.1151
760.7112, 680.3821
761.1934, 680.8151
761.6755, 681.3799
762.1576, 682.4268
762.6397, 683.4271
763.1218, 683.5019
763.6039, 682.4406
764.0861, 681.8041
764.5682, 682.4680
765.0503, 683.4486
765.5324, 684.2676
766.0145, 684.7473
766.4966, 684.5197
766.9788, 683.5407
767.4609, 682.3099
767.9430, 681.1490
768.4251, 680.2420
768.9072, 680.8480
769.3893, 683.4181
769.8715, 685.0371
770.3536, 684.3924
770.8357, 683.4425
771.3178, 684.4078
771.7999, 686.7780
772.2820, 687.8898
772.7642, 686.5587
773.2463, 685.3496
773.7284, 685.0282
774.2105, 685.0567
774.6926, 684.6982
775.1747, 684.2559
775.6569, 684.8448
776.1390, 687.0974
776.6211, 689.8605
777.1032, 691.8309
777.5853, 692.9799
778.0674, 692.7335
778.5496, 690.8044
779.0317, 689.6716
779.5138, 690.6418
779.9959, 692.9539
780.4780, 695.3206
780.9601, 697.7013
781.4423, 700.3513
781.9244, 703.8987
782.4065, 706.9396
782.8886, 708.2589
783.3707, 709.3140
783.8528, 711.8451
784.3350, 715.9160
784.8171, 720.0605
785.2992, 722.8153
785.7813, 725.8518
786.2634, 731.8137
786.7455, 739.9105
787.2277, 747.6545
787.7098, 754.5250
788.1919, 760.8722
788.6740, 766.6624
789.1561, 772.4615
789.6382, 780.4502
790.1204, 791.4701
790.6025, 802.5182
791.0846, 812.8163
791.5667, 823.8146
792.0488, 836.3964
792.5309, 849.9971
793.0131, 864.0599
793.4952, 878.6682
793.9773, 892.5519
794.4594, 903.3434
794.9415, 914.6354
795.4236, 930.7076
795.9058, 949.8729
796.3879, 967.8692
796.8700, 983.4502
797.3521, 998.5343
797.8342, 1014.946
798.3163, 1032.767
798.7985, 1052.746
799.2806, 1075.422
799.7627, 1097.237
800.2448, 1117.184
800.7269, 1136.617
801.2090, 1157.608
801.6912, 1179.297
802.1733, 1197.676
802.6554, 1210.891
803.1375, 1223.739
803.6196, 1237.280
804.1017, 1250.517
804.5839, 1263.594
805.0660, 1275.568
805.5481, 1284.633
806.0302, 1290.174
806.5123, 1293.123
806.9944, 1294.490
807.4766, 1293.986
807.9587, 1290.316
808.4408, 1283.690
808.9229, 1276.966
809.4050, 1271.399
809.8871, 1264.979
810.3693, 1255.118
810.8514, 1241.843
811.3335, 1228.452
811.8156, 1215.131
812.2977, 1201.307
812.7798, 1185.830
813.2620, 1170.747
813.7441, 1157.411
814.2262, 1145.627
814.7083, 1134.497
815.1904, 1123.484
815.6725, 1113.811
816.1547, 1107.010
816.6368, 1101.245
817.1189, 1094.039
817.6010, 1085.866
818.0831, 1078.909
818.5652, 1074.084
819.0474, 1070.375
819.5295, 1066.290
820.0116, 1062.022
820.4937, 1059.706
820.9758, 1059.746
821.4579, 1059.196
821.9401, 1056.633
822.4222, 1054.024
822.9043, 1053.704
823.3864, 1055.567
823.8685, 1056.471
824.3506, 1055.831
824.8328, 1055.109
825.3149, 1053.872
825.7970, 1053.211
826.2791, 1053.760
826.7612, 1055.553
827.2433, 1058.649
827.7255, 1063.211
828.2076, 1068.078
828.6897, 1072.121
829.1718, 1075.912
829.6539, 1080.557
830.1360, 1085.894
830.6182, 1091.012
831.1003, 1095.548
831.5824, 1099.748
832.0645, 1103.777
832.5466, 1107.710
833.0287, 1112.344
833.5109, 1118.024
833.9930, 1123.307
834.4751, 1127.844
834.9572, 1131.921
835.4393, 1136.314
835.9214, 1140.402
836.4036, 1142.155
836.8857, 1140.463
837.3678, 1138.346
837.8499, 1137.265
838.3320, 1135.337
838.8141, 1131.108
839.2963, 1125.066
839.7784, 1118.482
840.2605, 1111.678
840.7426, 1103.281
841.2247, 1091.956
841.7068, 1078.211
842.1890, 1062.134
842.6711, 1044.208
843.1532, 1028.012
843.6353, 1014.484
844.1174, 1000.783
844.5995, 984.1672
845.0817, 965.6483
845.5638, 950.6604
846.0459, 940.9229
846.5280, 929.9056
847.0101, 916.3214
847.4922, 902.5385
847.9744, 889.2362
848.4565, 876.7026
848.9386, 865.4240
849.4207, 855.5354
849.9028, 846.3066
850.3849, 838.0884
850.8671, 829.9513
851.3492, 821.1002
851.8313, 812.1434
852.3134, 803.9495
852.7955, 796.6124
853.2776, 789.4183
853.7598, 781.9187
854.2419, 774.2542
854.7240, 765.8885
855.2061, 757.4022
855.6882, 751.9846
856.1703, 749.9502
856.6525, 747.4258
857.1346, 742.2509
857.6167, 735.3740
858.0988, 728.4041
858.5809, 721.0258
859.0630, 715.7686
859.5452, 713.9471
860.0273, 711.9181
860.5094, 708.6163
860.9915, 704.6505
861.4736, 700.4982
861.9557, 696.1719
862.4379, 691.5771
862.9200, 685.9254
863.4021, 681.1268
863.8842, 678.1762
864.3663, 676.1114
864.8484, 674.6464
865.3306, 673.2595
865.8127, 670.8537
866.2948, 667.0351
866.7769, 663.0235
867.2590, 659.7774
867.7411, 657.3246
868.2233, 656.0886
868.7054, 655.8320
869.1875, 655.3542
869.6696, 654.3096
870.1517, 652.6776
870.6339, 650.2674
871.1160, 647.4608
871.5981, 646.1556
872.0802, 646.9301
872.5623, 647.0879
873.0444, 646.1459
873.5266, 644.9319
874.0087, 643.4908
874.4908, 642.2637
874.9729, 642.3510
875.4550, 644.2036
875.9371, 644.7629
876.4193, 642.2486
876.9014, 640.0045
877.3835, 640.1320
877.8656, 640.7708
878.3477, 639.4039
878.8298, 636.3920
879.3120, 634.4987
879.7941, 635.5088
880.2762, 637.0004
880.7583, 636.2800
881.2404, 634.5924
881.7225, 634.1989
882.2047, 635.0643
882.6868, 636.0370
883.1689, 636.6185
883.6510, 637.0541
884.1331, 637.7568
884.6152, 638.6097
885.0974, 638.5560
885.5795, 637.4413
886.0616, 636.6417
886.5437, 636.7136
887.0258, 636.5652
887.5079, 635.1217
887.9901, 632.7858
888.4722, 631.1579
888.9543, 630.5641
889.4364, 630.0719
889.9185, 629.9832
890.4006, 629.6550
890.8828, 628.5162
891.3649, 627.1846
891.8470, 626.3571
892.3291, 626.1213
892.8112, 626.2596
893.2933, 627.0129
893.7755, 627.7449
894.2576, 628.0284
894.7397, 628.0824
895.2218, 628.2893
895.7039, 628.5447
896.1860, 628.3492
896.6682, 627.4498
897.1503, 626.2317
897.6324, 624.6866
898.1145, 623.2771
898.5966, 623.8024
899.0787, 626.0552
899.5609, 627.6819
900.0430, 627.9340
900.5251, 627.5179
901.0072, 627.0657
901.4893, 626.5743
901.9714, 626.0208
902.4536, 625.3301
902.9357, 624.8699
903.4178, 624.8283
903.8999, 624.7556
904.3820, 624.5928
904.8641, 624.1613
905.3463, 623.1087
905.8284, 621.4017
906.3105, 619.5204
906.7926, 617.1381
907.2747, 615.0668
907.7568, 613.9197
908.2390, 612.8944
908.7211, 611.0046
909.2032, 608.6053
909.6853, 606.9918
910.1674, 606.8521
910.6495, 606.6354
911.1317, 604.9341
911.6138, 602.9007
912.0959, 601.8963
912.5780, 601.6428
913.0601, 601.4594
913.5422, 601.0784
914.0244, 600.2203
914.5065, 598.4623
914.9886, 596.3711
915.4707, 595.1155
915.9528, 594.6202
916.4349, 594.5097
916.9171, 594.7390
917.3992, 594.9669
917.8813, 595.0071
918.3634, 594.9321
918.8455, 594.7689
919.3276, 594.4653
919.8098, 595.1418
920.2919, 597.3016
920.7740, 599.2213
921.2561, 600.8954
921.7382, 601.7023
922.2203, 600.4922
922.7025, 597.9678
923.1846, 596.8777
923.6667, 597.7189
924.1488, 598.8991
924.6309, 600.7256
925.1130, 602.3515
925.5952, 603.3749
926.0773, 604.0010
926.5594, 604.2944
927.0415, 604.3782
927.5236, 604.8326
928.0057, 605.7045
928.4879, 607.3044
928.9700, 610.5695
929.4521, 614.1549
929.9342, 616.4467
930.4163, 617.6302
930.8984, 618.6701
931.3806, 619.9356
931.8627, 621.1533
932.3448, 622.0421
932.8269, 622.9214
933.3090, 623.4255
933.7911, 624.1159
934.2733, 624.5889
934.7554, 624.7321
935.2375, 623.2079
935.7196, 618.9260
936.2017, 613.3697
936.6838, 609.8876
937.1660, 608.6117
937.6481, 606.5252
938.1302, 603.4316
938.6123, 600.3765
939.0944, 597.7736
939.5765, 595.1596
940.0587, 591.9398
940.5408, 588.2569
941.0229, 585.3179
941.5050, 583.4156
941.9871, 581.7238
942.4692, 580.5295
942.9514, 579.1955
943.4335, 577.0446
943.9156, 574.8562
944.3977, 573.7661
944.8798, 573.8148
945.3619, 573.6701
945.8441, 572.5562
946.3262, 571.8531
946.8083, 572.4965
947.2904, 573.3596
947.7725, 573.7535
948.2546, 573.5209
948.7368, 572.3358
949.2189, 570.0690
949.7010, 568.1432
950.1831, 567.9521
950.6652, 568.1156
951.1473, 566.9777
951.6295, 565.2849
952.1116, 564.4678
952.5937, 564.6279
953.0758, 564.9564
953.5579, 564.9926
954.0400, 565.3551
954.5222, 565.3854
955.0043, 566.0119
955.4864, 566.5640
955.9685, 566.9698
956.4506, 566.7720
956.9327, 565.8343
957.4149, 564.6794
957.8970, 563.6641
958.3791, 562.9996
958.8612, 563.7341
959.3433, 566.0790
959.8254, 566.3991
960.3076, 563.9203
960.7897, 561.8191
961.2718, 561.5251
961.7539, 562.0912
962.2360, 562.4358
962.7181, 562.5547
963.2003, 562.2907
963.6824, 561.4716
964.1645, 560.6003
964.6466, 559.0807
965.1287, 558.3217
965.6108, 559.7927
966.0930, 562.1672
966.5751, 563.4728
967.0572, 563.5842
967.5393, 563.5678
968.0214, 563.6735
968.5035, 563.4681
968.9857, 562.6510
969.4678, 561.6439
969.9499, 560.5251
970.4320, 559.5244
970.9141, 559.1089
971.3962, 559.4459
971.8784, 559.8418
972.3605, 560.0360
972.8426, 560.1204
973.3247, 560.3712
973.8068, 560.4161
974.2889, 559.6327
974.7711, 558.1541
975.2532, 556.5477
975.7353, 554.9609
976.2174, 554.1113
976.6995, 555.3854
977.1816, 557.2775
977.6638, 557.4828
978.1459, 556.5554
978.6280, 556.1122
979.1101, 556.4638
979.5922, 556.8412
980.0743, 556.6609
980.5565, 556.4257
981.0386, 557.0038
981.5207, 558.2148
982.0028, 559.6446
982.4849, 561.1627
982.9670, 562.0247
983.4492, 561.9764
983.9313, 560.9865
984.4134, 558.8207
984.8955, 556.0682
985.3776, 554.6769
985.8597, 554.6819
986.3419, 554.8536
986.8240, 555.0969
987.3061, 555.5623
987.7882, 556.4415
988.2703, 557.1540
988.7524, 556.8680
989.2346, 557.2505
989.7167, 557.4415
990.1988, 556.8427
990.6809, 557.4083
991.1630, 556.7455
991.6451, 555.8763
992.1273, 554.9875
992.6094, 554.4825
993.0915, 555.2812
993.5736, 557.5285
994.0557, 558.3559
994.5378, 555.9793
995.0200, 554.8065
995.5021, 556.6082
995.9842, 558.2667
996.4663, 557.5900
996.9484, 555.8953
997.4305, 555.4603
997.9127, 556.5509
998.3948, 557.5436
998.8769, 557.9757
999.3590, 558.5411
999.8411, 560.5211
1000.323, 561.7354
1000.805, 559.3986
1001.287, 555.3115
1001.770, 553.5251
1002.252, 555.0378
1002.734, 556.2950
1003.216, 555.3437
1003.698, 554.2780
1004.180, 554.6488
1004.662, 555.3088
1005.144, 554.8135
1005.627, 553.4714
1006.109, 552.5325
1006.591, 552.4484
1007.073, 552.4362
1007.555, 551.7285
1008.037, 551.0605
1008.519, 551.6441
1009.001, 552.4979
1009.483, 551.5438
1009.966, 549.2031
1010.448, 547.9210
1010.930, 548.8769
1011.412, 550.6407
1011.894, 552.3904
1012.376, 553.6191
1012.858, 553.0764
1013.340, 551.4621
1013.823, 550.4694
1014.305, 550.4016
1014.787, 550.9498
1015.269, 551.9718
1015.751, 553.0154
1016.233, 553.3737
1016.715, 553.2916
1017.197, 553.5305
1017.679, 553.9905
1018.162, 554.1061
1018.644, 553.7715
1019.126, 553.2676
1019.608, 552.7516
1020.090, 552.4026
1020.572, 552.4420
1021.054, 552.9081
1021.536, 554.7521
1022.018, 557.8466
1022.501, 558.0272
1022.983, 554.1169
1023.465, 550.3190
1023.947, 549.7702
1024.429, 551.0355
1024.911, 550.9455
1025.393, 549.4490
1025.875, 549.1429
1026.358, 550.1625
1026.840, 551.3783
1027.322, 552.6517
1027.804, 553.2991
1028.286, 552.6220
1028.768, 551.2471
1029.250, 550.7407
1029.732, 551.1805
1030.214, 551.9933
1030.697, 553.3933
1031.179, 554.4208
1031.661, 554.7949
1032.143, 554.8114
1032.625, 554.7024
1033.107, 554.4020
1033.589, 553.6199
1034.071, 552.0255
1034.553, 551.5521
1035.036, 553.1026
1035.518, 553.7250
1036.000, 551.9572
1036.482, 550.0728
1036.964, 549.7974
1037.446, 550.8110
1037.928, 552.3791
1038.410, 555.2714
1038.893, 555.9753
1039.375, 552.5704
1039.857, 550.0563
1040.339, 550.2125
1040.821, 551.0151
1041.303, 550.9034
1041.785, 550.2639
1042.267, 550.2206
1042.750, 550.9763
1043.232, 551.6429
1043.714, 552.4396
1044.196, 552.8275
1044.678, 552.5685
1045.160, 551.9544
1045.642, 550.7134
1046.124, 549.3713
1046.606, 549.3372
1047.089, 551.1434
1047.571, 552.2953
1048.053, 552.0648
1048.535, 551.7766
1049.017, 551.8481
1049.499, 551.9363
1049.981, 551.9793
1050.463, 551.7859
1050.945, 550.6914
1051.428, 548.2929
1051.910, 547.2043
1052.392, 549.5400
1052.874, 551.0955
1053.356, 549.6382
1053.838, 547.7496
1054.320, 547.4000
1054.802, 548.1497
1055.285, 549.0060
1055.767, 549.8633
1056.249, 550.2237
1056.731, 549.6486
1057.213, 548.9599
1057.695, 548.3184
1058.177, 547.8101
1058.659, 547.5263
1059.141, 547.4072
1059.624, 547.2826
1060.106, 547.1246
1060.588, 547.2973
1061.070, 548.3168
1061.552, 549.1567
1062.034, 549.4399
1062.516, 549.3636
1062.998, 549.0703
1063.480, 548.5364
1063.963, 547.4630
1064.445, 545.8815
1064.927, 544.9594
1065.409, 545.2447
1065.891, 546.1013
1066.373, 548.3187
1066.855, 549.9793
1067.337, 548.5988
1067.820, 546.1536
1068.302, 546.1375
1068.784, 548.7603
1069.266, 550.7337
1069.748, 550.4896
1070.230, 549.9502
1070.712, 549.7106
1071.194, 549.7448
1071.677, 550.4380
1072.159, 551.1599
1072.641, 550.7731
1073.123, 549.4053
1073.605, 548.6054
1074.087, 549.1734
1074.569, 549.8083
1075.051, 549.8547
1075.533, 549.8085
1076.016, 550.3450
1076.498, 550.8019
1076.980, 549.7906
1077.462, 547.7663
1077.944, 547.0889
1078.426, 548.8734
1078.908, 550.8978
1079.390, 552.5621
1079.873, 553.6485
1080.355, 553.3779
1080.837, 552.8914
1081.319, 553.7808
1081.801, 555.6496
1082.283, 556.8533
1082.765, 556.8682
1083.247, 556.4999
1083.729, 555.6808
1084.212, 555.0975
1084.694, 555.2709
1085.176, 555.7798
1085.658, 556.2964
1086.140, 556.7443
1086.622, 556.9161
1087.104, 556.7273
1087.586, 557.2158
1088.068, 559.6198
1088.551, 561.7832
1089.033, 562.4173
1089.515, 562.5494
1089.997, 563.0919
1090.479, 563.8276
1090.961, 564.0378
1091.443, 563.6514
1091.925, 563.7866
1092.408, 565.6425
1092.890, 567.0359
1093.372, 566.6438
1093.854, 565.9436
1094.336, 566.3566
1094.818, 566.9763
1095.300, 565.8037
1095.782, 563.0612
1096.265, 562.0857
1096.747, 565.0061
1097.229, 567.5320
1097.711, 567.6708
1098.193, 567.6483
1098.675, 569.1968
1099.157, 570.9995
1099.639, 571.1622
1100.121, 570.0303
1100.604, 569.6762
1101.086, 570.7225
1101.568, 571.9627
1102.050, 573.2767
1102.532, 574.4733
1103.014, 575.2867
1103.496, 576.1031
1103.978, 577.5784
1104.460, 579.2879
1104.943, 580.1178
1105.425, 579.8295
1105.907, 579.1415
1106.389, 576.9877
1106.871, 576.0904
1107.353, 578.5457
1107.835, 581.1982
1108.317, 581.3917
1108.800, 580.5079
1109.282, 581.2028
1109.764, 583.7328
1110.246, 585.6474
1110.728, 586.8467
1111.210, 587.2407
1111.692, 586.2621
1112.174, 585.1277
1112.656, 583.7529
1113.139, 582.9749
1113.621, 584.4318
1114.103, 587.7969
1114.585, 589.4795
1115.067, 588.6158
1115.549, 587.5573
1116.031, 585.2804
1116.513, 584.3098
1116.995, 586.5437
1117.478, 589.1936
1117.960, 589.4865
1118.442, 588.3510
1118.924, 588.9684
1119.406, 592.2948
1119.888, 593.4948
1120.370, 591.3400
1120.852, 589.5634
1121.335, 588.6490
1121.817, 588.8994
1122.299, 591.1168
1122.781, 593.9571
1123.263, 594.8947
1123.745, 593.8844
1124.227, 592.9667
1124.709, 591.8177
1125.192, 592.0524
1125.674, 594.3477
1126.156, 596.5944
1126.638, 597.8959
1127.120, 598.4811
1127.602, 598.4629
1128.084, 598.0724
1128.566, 598.5649
1129.048, 600.0853
1129.531, 601.1057
1130.013, 601.4588
1130.495, 602.2565
1130.977, 603.9910
1131.459, 605.2265
1131.941, 604.6752
1132.423, 603.2182
1132.905, 602.6950
1133.387, 603.0773
1133.870, 603.8972
1134.352, 605.1497
1134.834, 606.8553
1135.316, 608.9939
1135.798, 610.0663
1136.280, 609.1610
1136.762, 608.3154
1137.244, 610.4845
1137.727, 614.4625
1138.209, 616.7262
1138.691, 617.5254
1139.173, 617.3240
1139.655, 616.5697
1140.137, 617.7243
1140.619, 621.4553
1141.101, 624.8796
1141.583, 625.5763
1142.066, 624.9382
1142.548, 624.8942
1143.030, 625.1821
1143.512, 625.0761
1143.994, 624.8753
1144.476, 625.5580
1144.958, 627.1611
1145.440, 628.9557
1145.922, 630.6117
1146.405, 631.8776
1146.887, 632.0587
1147.369, 632.1671
1147.851, 633.6625
1148.333, 635.6511
1148.815, 636.9619
1149.297, 637.4948
1149.779, 637.0297
1150.262, 635.7053
1150.744, 635.4764
1151.226, 637.9774
1151.708, 641.0279
1152.190, 643.7344
1152.672, 645.8791
1153.154, 646.9042
1153.636, 647.4929
1154.119, 648.6371
1154.601, 650.3380
1155.083, 652.0238
1155.565, 653.7106
1156.047, 654.7634
1156.529, 654.4343
1157.011, 654.1195
1157.493, 654.4173
1157.975, 654.9895
1158.458, 655.3963
1158.940, 655.8961
1159.422, 657.1780
1159.904, 659.3605
1160.386, 661.2482
1160.868, 662.5853
1161.350, 663.8554
1161.832, 665.2230
1162.314, 666.3691
1162.797, 666.8036
1163.279, 667.3223
1163.761, 669.0123
1164.243, 669.9064
1164.725, 671.0514
1165.207, 672.8697
1165.689, 673.5449
1166.171, 675.3006
1166.654, 676.9172
1167.136, 678.1977
1167.618, 678.8717
1168.100, 678.4377
1168.582, 678.0948
1169.064, 680.1749
1169.546, 684.2477
1170.028, 686.1136
1170.510, 685.7126
1170.993, 685.3412
1171.475, 685.2200
1171.957, 686.8764
1172.439, 690.9325
1172.921, 696.0886
1173.403, 701.4613
1173.885, 706.1051
1174.367, 708.0067
1174.849, 707.6317
1175.332, 705.8238
1175.814, 703.1976
1176.296, 701.8466
1176.778, 702.0670
1177.260, 703.1168
1177.742, 704.6351
1178.224, 706.3754
1178.706, 707.9807
1179.189, 709.8493
1179.671, 713.0429
1180.153, 716.4547
1180.635, 718.3226
1181.117, 719.0409
1181.599, 719.5536
1182.081, 720.1890
1182.563, 721.2549
1183.046, 723.0502
1183.528, 724.7656
1184.010, 725.8133
1184.492, 726.7396
1184.974, 728.0010
1185.456, 729.2599
1185.938, 729.7332
1186.420, 730.0167
1186.902, 731.6848
1187.385, 735.0504
1187.867, 738.2382
1188.349, 741.0204
1188.831, 743.3986
1189.313, 745.2817
1189.795, 746.8780
1190.277, 748.0004
1190.759, 749.1020
1191.241, 750.7591
1191.724, 752.7549
1192.206, 754.1860
1192.688, 754.7372
1193.170, 756.1838
1193.652, 759.0763
1194.134, 761.0635
1194.616, 761.4028
1195.098, 761.7039
1195.581, 762.8401
1196.063, 764.5745
1196.545, 766.7194
1197.027, 769.0504
1197.509, 770.2392
1197.991, 770.4570
1198.473, 772.7162
1198.955, 776.9691
1199.438, 779.7526
1199.920, 780.2159
1200.402, 780.7419
1200.884, 782.9117
1201.366, 785.7430
1201.848, 787.9738
1202.330, 789.9445
1202.812, 792.1899
1203.294, 794.7130
1203.776, 797.6133
1204.259, 800.7742
1204.741, 804.3895
1205.223, 808.1949
1205.705, 810.0548
1206.187, 808.0189
1206.669, 805.6747
1207.151, 804.6674
1207.633, 805.2531
1208.116, 808.5680
1208.598, 812.8752
1209.080, 816.9011
1209.562, 820.0532
1210.044, 820.9755
1210.526, 819.1662
1211.008, 818.7960
1211.490, 821.5392
1211.973, 824.4432
1212.455, 826.9387
1212.937, 829.5231
1213.419, 832.0982
1213.901, 835.9670
1214.383, 836.7764
1214.865, 839.5419
1215.347, 841.2917
1215.829, 842.4344
1216.312, 844.9953
1216.794, 845.0804
1217.276, 846.7502
1217.758, 851.0763
1218.240, 854.5865
1218.722, 855.5146
1219.204, 855.6521
1219.686, 857.0085
1220.168, 859.1046
1220.651, 860.6700
1221.133, 861.9094
1221.615, 863.4516
1222.097, 865.4244
1222.579, 868.3276
1223.061, 872.1031
1223.543, 875.9112
1224.025, 879.3510
1224.508, 882.7581
1224.990, 886.7369
1225.472, 890.4192
1225.954, 892.5953
1226.436, 894.2510
1226.918, 896.7639
1227.400, 899.4297
1227.882, 900.9042
1228.365, 901.1746
1228.847, 901.0101
1229.329, 900.1688
1229.811, 900.8282
1230.293, 904.9547
1230.775, 908.7885
1231.257, 911.0332
1231.739, 912.6862
1232.221, 914.1439
1232.703, 915.5710
1233.186, 917.0905
1233.668, 918.7449
1234.150, 920.8549
1234.632, 923.5749
1235.114, 926.2477
1235.596, 929.1130
1236.078, 930.4084
1236.560, 929.3819
1237.043, 929.3076
1237.525, 932.2363
1238.007, 932.7205
1238.489, 937.3951
1238.971, 937.7694
1239.453, 941.0487
1239.935, 945.9988
1240.417, 947.9323
1240.900, 947.5577
1241.382, 948.4990
1241.864, 951.2696
1242.346, 953.7664
1242.828, 954.9453
1243.310, 956.3004
1243.792, 959.0829
1244.274, 962.4669
1244.756, 966.4485
1245.239, 970.1051
1245.721, 972.4915
1246.203, 973.9805
1246.685, 975.1195
1247.167, 976.0139
1247.649, 976.5959
1248.131, 976.4104
1248.613, 977.4005
1249.095, 980.8789
1249.578, 983.9034
1250.060, 985.7840
1250.542, 987.3888
1251.024, 989.0750
1251.506, 990.8552
1251.988, 992.8268
1252.470, 994.8217
1252.952, 995.9651
1253.435, 996.2164
1253.917, 997.7297
1254.399, 1000.503
1254.881, 1003.769
1255.363, 1007.273
1255.845, 1009.564
1256.327, 1010.004
1256.809, 1010.163
1257.292, 1011.310
1257.774, 1013.472
1258.256, 1017.298
1258.738, 1021.670
1259.220, 1025.543
1259.702, 1028.486
1260.184, 1029.461
1260.666, 1029.069
1261.148, 1029.170
1261.630, 1030.264
1262.113, 1032.053
1262.595, 1034.765
1263.077, 1037.657
1263.559, 1041.001
1264.041, 1043.889
1264.523, 1045.924
1265.005, 1047.252
1265.487, 1047.858
1265.970, 1047.957
1266.452, 1047.923
1266.934, 1047.742
1267.416, 1048.389
1267.898, 1049.862
1268.380, 1052.685
1268.862, 1057.075
1269.344, 1059.361
1269.827, 1058.343
1270.309, 1057.164
1270.791, 1058.113
1271.273, 1060.024
1271.755, 1061.690
1272.237, 1062.863
1272.719, 1062.280
1273.201, 1061.343
1273.683, 1062.888
1274.166, 1066.133
1274.648, 1068.820
1275.130, 1070.580
1275.612, 1072.421
1276.094, 1074.800
1276.576, 1076.878
1277.058, 1077.980
1277.540, 1079.166
1278.022, 1081.225
1278.505, 1083.050
1278.987, 1083.521
1279.469, 1083.652
1279.951, 1084.394
1280.433, 1085.864
1280.915, 1088.915
1281.397, 1094.194
1281.879, 1096.978
1282.362, 1096.977
1282.844, 1097.893
1283.326, 1100.352
1283.808, 1101.441
1284.290, 1099.880
1284.772, 1098.098
1285.254, 1097.460
1285.736, 1097.932
##END=



