##NAMES=Jerrygibbsite
##RRUFFID=R100042
##IDEAL CHEMISTRY=Mn^2+^_9_(SiO_4_)_4_(OH)_2_
##LOCALITY=Kombat mine, Otavi Mountains, Namibia
##OWNER=RRUFF
##SOURCE=William W Pinch
##DESCRIPTION=Tan transparent cleavages, associated with hausmannite, calcite, and an orange-red granular vesuvianite-group mineral
##STATUS=The identification of this mineral has been confirmed by single-crystal X-ray diffraction.
##URL=rruff.info/R100042
90.49219, 21.33454
90.97430, 19.68256
91.45642, 19.09581
91.93854, 20.51273
92.42065, 22.72280
92.90277, 23.94154
93.38489, 23.99010
93.86700, 23.41480
94.34912, 22.61641
94.83124, 21.65293
95.31335, 20.88256
95.79547, 20.67329
96.27759, 20.88375
96.75970, 20.65361
97.24182, 19.32483
97.72394, 18.16227
98.20605, 21.15848
98.68817, 28.95624
99.17029, 35.74736
99.65240, 35.92597
100.1345, 28.94770
100.6166, 23.37899
101.0988, 21.07634
101.5809, 21.69188
102.0630, 22.25400
102.5451, 22.84101
103.0272, 23.24492
103.5093, 23.16272
103.9915, 22.37503
104.4736, 21.67160
104.9557, 21.28677
105.4378, 21.28341
105.9199, 21.23385
106.4020, 21.03233
106.8842, 20.83555
107.3663, 20.94286
107.8484, 21.70619
108.3305, 22.36420
108.8126, 22.62193
109.2947, 22.04178
109.7769, 21.79016
110.2590, 22.13258
110.7411, 22.85085
111.2232, 23.25770
111.7053, 22.77077
112.1874, 22.37152
112.6696, 22.50464
113.1517, 24.46523
113.6338, 25.61133
114.1159, 25.02121
114.5980, 22.98781
115.0801, 21.59976
115.5623, 21.66455
116.0444, 22.41631
116.5265, 23.25918
117.0086, 24.38528
117.4907, 25.28285
117.9728, 25.67627
118.4550, 25.54607
118.9371, 25.38328
119.4192, 25.52580
119.9013, 25.73569
120.3834, 25.70678
120.8655, 24.97716
121.3477, 24.17624
121.8298, 23.71226
122.3119, 23.61183
122.7940, 23.86754
123.2761, 24.79789
123.7582, 26.10953
124.2404, 27.14922
124.7225, 27.06001
125.2046, 26.68252
125.6867, 27.14256
126.1688, 28.80913
126.6509, 30.83565
127.1331, 32.22854
127.6152, 33.12153
128.0973, 34.17921
128.5794, 35.80305
129.0615, 37.92781
129.5436, 40.43901
130.0258, 43.44112
130.5079, 46.67911
130.9900, 49.65470
131.4721, 52.34273
131.9542, 55.27723
132.4363, 58.74835
132.9185, 62.78862
133.4006, 67.63009
133.8827, 73.44006
134.3648, 80.04332
134.8469, 87.10198
135.3290, 94.52188
135.8112, 102.8510
136.2933, 112.7933
136.7754, 124.4620
137.2575, 136.6063
137.7396, 148.8376
138.2217, 160.9670
138.7039, 174.0844
139.1860, 188.5559
139.6681, 203.4738
140.1502, 217.9131
140.6323, 231.8360
141.1144, 244.9317
141.5966, 256.8832
142.0787, 267.2720
142.5608, 278.1878
143.0429, 289.9698
143.5250, 302.0624
144.0071, 312.9099
144.4893, 321.3456
144.9714, 330.2811
145.4535, 340.8876
145.9356, 353.7060
146.4177, 367.3504
146.8998, 381.8691
147.3820, 397.2307
147.8641, 414.0070
148.3462, 432.5373
148.8283, 451.9482
149.3104, 472.0311
149.7925, 493.3259
150.2747, 514.4573
150.7568, 535.2109
151.2389, 555.5665
151.7210, 575.2020
152.2031, 593.7924
152.6852, 611.6661
153.1674, 629.2325
153.6495, 647.7241
154.1316, 664.4606
154.6137, 678.5660
155.0958, 689.9931
155.5779, 701.2875
156.0601, 713.3447
156.5422, 725.1531
157.0243, 735.7031
157.5064, 743.2841
157.9885, 751.0197
158.4706, 759.6377
158.9528, 769.1806
159.4349, 779.6539
159.9170, 791.7905
160.3991, 804.6432
160.8812, 817.1172
161.3633, 828.0673
161.8455, 839.2379
162.3276, 851.2177
162.8097, 863.7723
163.2918, 877.8090
163.7739, 894.8951
164.2560, 912.4568
164.7382, 922.2657
165.2203, 926.0543
165.7024, 929.9648
166.1845, 937.1910
166.6666, 949.4531
167.1487, 960.6858
167.6309, 967.1073
168.1130, 970.2333
168.5951, 973.1254
169.0772, 977.4283
169.5593, 982.0699
170.0414, 986.0220
170.5236, 988.7819
171.0057, 991.6181
171.4878, 996.4933
171.9699, 1002.490
172.4520, 1006.712
172.9341, 1006.008
173.4163, 1003.251
173.8984, 1001.837
174.3805, 1002.828
174.8626, 1004.748
175.3447, 1006.060
175.8268, 1006.977
176.3090, 1008.560
176.7911, 1012.759
177.2732, 1017.860
177.7553, 1020.837
178.2374, 1019.767
178.7195, 1017.560
179.2017, 1018.115
179.6838, 1021.197
180.1659, 1024.666
180.6480, 1026.812
181.1301, 1028.098
181.6122, 1029.669
182.0944, 1031.940
182.5765, 1034.593
183.0586, 1037.339
183.5407, 1040.129
184.0228, 1042.599
184.5049, 1044.351
184.9871, 1045.481
185.4692, 1046.223
185.9513, 1046.474
186.4334, 1046.463
186.9155, 1046.550
187.3976, 1046.692
187.8798, 1047.416
188.3619, 1049.655
188.8440, 1053.182
189.3261, 1056.440
189.8082, 1059.366
190.2903, 1061.639
190.7725, 1061.661
191.2546, 1059.101
191.7367, 1056.056
192.2188, 1054.842
192.7009, 1055.382
193.1830, 1056.579
193.6652, 1058.420
194.1473, 1060.709
194.6294, 1061.927
195.1115, 1061.859
195.5936, 1061.447
196.0757, 1061.982
196.5579, 1063.491
197.0400, 1065.097
197.5221, 1066.611
198.0042, 1068.008
198.4863, 1068.771
198.9684, 1068.723
199.4506, 1068.442
199.9327, 1068.796
200.4148, 1069.835
200.8969, 1071.030
201.3790, 1072.161
201.8611, 1073.207
202.3433, 1074.474
202.8254, 1076.023
203.3075, 1077.664
203.7896, 1079.135
204.2717, 1080.471
204.7538, 1081.405
205.2360, 1081.642
205.7181, 1081.053
206.2002, 1080.854
206.6823, 1081.079
207.1644, 1081.636
207.6465, 1082.466
208.1287, 1083.699
208.6108, 1084.752
209.0929, 1085.338
209.5750, 1085.395
210.0571, 1085.417
210.5392, 1085.373
211.0214, 1085.376
211.5035, 1085.662
211.9856, 1086.310
212.4677, 1087.080
212.9498, 1087.928
213.4319, 1088.927
213.9140, 1089.675
214.3962, 1090.071
214.8783, 1090.270
215.3604, 1090.673
215.8425, 1091.441
216.3246, 1092.011
216.8067, 1091.987
217.2889, 1091.015
217.7710, 1090.564
218.2531, 1090.564
218.7352, 1091.107
219.2173, 1092.704
219.6994, 1096.225
220.1816, 1099.111
220.6637, 1100.009
221.1458, 1097.928
221.6279, 1096.743
222.1100, 1096.731
222.5921, 1097.570
223.0743, 1098.442
223.5564, 1099.352
224.0385, 1100.337
224.5206, 1101.485
225.0027, 1103.102
225.4848, 1104.139
225.9670, 1104.339
226.4491, 1104.041
226.9312, 1104.086
227.4133, 1104.442
227.8954, 1105.189
228.3775, 1106.367
228.8597, 1108.093
229.3418, 1110.042
229.8239, 1112.730
230.3060, 1115.461
230.7881, 1115.949
231.2702, 1112.278
231.7524, 1109.200
232.2345, 1109.037
232.7166, 1113.226
233.1987, 1116.988
233.6808, 1120.577
234.1629, 1123.647
234.6451, 1125.172
235.1272, 1124.294
235.6093, 1123.187
236.0914, 1122.917
236.5735, 1124.269
237.0556, 1124.731
237.5378, 1124.031
238.0199, 1122.572
238.5020, 1121.284
238.9841, 1120.002
239.4662, 1119.156
239.9483, 1118.930
240.4305, 1119.394
240.9126, 1120.385
241.3947, 1122.442
241.8768, 1124.836
242.3589, 1125.566
242.8410, 1123.237
243.3232, 1121.331
243.8053, 1121.522
244.2874, 1125.154
244.7695, 1127.555
245.2516, 1128.329
245.7337, 1128.044
246.2159, 1127.881
246.6980, 1127.600
247.1801, 1127.843
247.6622, 1129.060
248.1443, 1131.968
248.6264, 1133.821
249.1086, 1134.223
249.5907, 1133.797
250.0728, 1133.888
250.5549, 1135.034
251.0370, 1135.773
251.5191, 1135.203
252.0013, 1132.327
252.4834, 1131.641
252.9655, 1134.356
253.4476, 1138.508
253.9297, 1140.251
254.4118, 1138.138
254.8940, 1136.260
255.3761, 1136.314
255.8582, 1139.111
256.3403, 1140.493
256.8224, 1139.830
257.3046, 1138.251
257.7867, 1137.748
258.2688, 1138.956
258.7509, 1139.926
259.2330, 1139.901
259.7151, 1138.651
260.1973, 1137.861
260.6794, 1137.508
261.1615, 1137.683
261.6436, 1138.777
262.1257, 1141.522
262.6078, 1143.377
263.0900, 1143.048
263.5721, 1140.096
264.0542, 1139.377
264.5363, 1141.745
265.0184, 1145.283
265.5005, 1147.601
265.9827, 1148.328
266.4648, 1148.804
266.9469, 1149.392
267.4290, 1150.090
267.9111, 1150.459
268.3932, 1150.388
268.8754, 1150.141
269.3575, 1149.950
269.8396, 1149.746
270.3217, 1149.905
270.8038, 1150.742
271.2859, 1152.197
271.7681, 1152.693
272.2502, 1151.878
272.7323, 1150.848
273.2144, 1150.817
273.6965, 1151.979
274.1786, 1153.118
274.6608, 1154.092
275.1429, 1154.854
275.6250, 1154.942
276.1071, 1154.153
276.5892, 1153.287
277.0714, 1153.096
277.5535, 1153.633
278.0356, 1154.406
278.5177, 1155.453
278.9998, 1156.647
279.4819, 1157.395
279.9641, 1157.642
280.4462, 1157.748
280.9283, 1157.990
281.4104, 1158.379
281.8925, 1158.731
282.3746, 1158.902
282.8568, 1159.112
283.3389, 1160.239
283.8210, 1162.424
284.3031, 1164.370
284.7852, 1164.707
285.2673, 1163.558
285.7495, 1163.596
286.2316, 1165.465
286.7137, 1168.162
287.1958, 1169.312
287.6779, 1168.839
288.1600, 1168.738
288.6422, 1170.955
289.1243, 1175.009
289.6064, 1177.051
290.0885, 1176.326
290.5706, 1174.692
291.0527, 1175.240
291.5349, 1177.859
292.0170, 1180.781
292.4991, 1183.611
292.9812, 1186.070
293.4633, 1186.765
293.9454, 1185.425
294.4276, 1183.278
294.9097, 1181.507
295.3918, 1180.180
295.8739, 1179.708
296.3560, 1180.809
296.8381, 1182.848
297.3203, 1184.395
297.8024, 1185.401
298.2845, 1185.950
298.7666, 1185.980
299.2487, 1185.583
299.7308, 1185.043
300.2130, 1183.738
300.6951, 1182.641
301.1772, 1183.995
301.6593, 1187.793
302.1414, 1191.282
302.6235, 1191.440
303.1057, 1189.570
303.5878, 1188.276
304.0699, 1188.627
304.5520, 1189.830
305.0341, 1191.340
305.5162, 1193.072
305.9984, 1194.319
306.4805, 1194.026
306.9626, 1193.053
307.4447, 1192.601
307.9268, 1193.072
308.4089, 1194.021
308.8911, 1195.292
309.3732, 1196.773
309.8553, 1198.036
310.3374, 1199.017
310.8195, 1199.560
311.3016, 1199.381
311.7838, 1198.068
312.2659, 1196.794
312.7480, 1196.015
313.2301, 1195.858
313.7122, 1196.597
314.1943, 1199.036
314.6765, 1202.019
315.1586, 1204.902
315.6407, 1207.756
316.1228, 1209.935
316.6049, 1210.730
317.0870, 1210.681
317.5692, 1210.667
318.0513, 1211.123
318.5334, 1211.565
319.0155, 1211.709
319.4976, 1211.475
319.9797, 1211.219
320.4619, 1210.892
320.9440, 1210.627
321.4261, 1210.581
321.9082, 1210.300
322.3903, 1210.684
322.8724, 1212.408
323.3546, 1215.516
323.8367, 1218.026
324.3188, 1218.867
324.8009, 1219.385
325.2830, 1220.601
325.7651, 1223.780
326.2473, 1226.464
326.7294, 1228.221
327.2115, 1229.150
327.6936, 1229.954
328.1757, 1231.743
328.6578, 1232.645
329.1400, 1231.695
329.6221, 1226.699
330.1042, 1222.818
330.5863, 1220.145
331.0684, 1218.584
331.5505, 1217.922
332.0327, 1218.468
332.5148, 1219.503
332.9969, 1220.926
333.4790, 1223.233
333.9611, 1224.314
334.4432, 1223.247
334.9254, 1221.469
335.4075, 1221.680
335.8896, 1225.234
336.3717, 1228.030
336.8538, 1228.424
337.3359, 1226.081
337.8180, 1225.102
338.3001, 1225.668
338.7823, 1227.339
339.2644, 1229.956
339.7465, 1233.957
340.2286, 1237.061
340.7107, 1238.550
341.1928, 1238.642
341.6750, 1238.619
342.1571, 1238.383
342.6392, 1238.353
343.1213, 1239.135
343.6034, 1240.736
344.0855, 1241.656
344.5677, 1241.523
345.0498, 1240.668
345.5319, 1239.549
346.0140, 1238.131
346.4961, 1237.496
346.9782, 1239.025
347.4604, 1242.171
347.9425, 1244.125
348.4246, 1244.538
348.9067, 1244.103
349.3888, 1243.506
349.8709, 1242.835
350.3531, 1242.506
350.8352, 1242.885
351.3173, 1243.727
351.7994, 1244.464
352.2815, 1245.041
352.7636, 1245.975
353.2458, 1248.182
353.7279, 1251.110
354.2100, 1253.563
354.6921, 1254.606
355.1742, 1255.254
355.6563, 1257.011
356.1385, 1259.688
356.6206, 1261.511
357.1027, 1259.609
357.5848, 1256.768
358.0669, 1256.515
358.5490, 1261.681
359.0312, 1266.782
359.5133, 1267.890
359.9954, 1266.007
360.4775, 1264.299
360.9596, 1264.698
361.4417, 1265.509
361.9239, 1265.351
362.4060, 1263.404
362.8881, 1262.268
363.3702, 1263.787
363.8523, 1266.563
364.3344, 1268.453
364.8166, 1268.045
365.2987, 1267.381
365.7808, 1267.072
366.2629, 1267.126
366.7450, 1267.843
367.2271, 1270.385
367.7093, 1273.088
368.1914, 1274.490
368.6735, 1273.411
369.1556, 1272.213
369.6377, 1270.810
370.1198, 1269.332
370.6020, 1269.111
371.0841, 1270.926
371.5662, 1273.281
372.0483, 1275.372
372.5304, 1277.060
373.0125, 1278.826
373.4947, 1281.042
373.9768, 1283.191
374.4589, 1283.842
374.9410, 1282.035
375.4231, 1280.710
375.9052, 1281.242
376.3874, 1283.988
376.8695, 1285.687
377.3516, 1285.991
377.8337, 1285.872
378.3158, 1286.619
378.7979, 1288.355
379.2801, 1290.120
379.7622, 1291.804
380.2443, 1293.302
380.7264, 1294.012
381.2085, 1293.813
381.6906, 1293.621
382.1728, 1294.270
382.6549, 1295.646
383.1370, 1296.984
383.6191, 1298.068
384.1012, 1299.216
384.5833, 1301.306
385.0655, 1304.175
385.5476, 1306.593
386.0297, 1307.665
386.5118, 1307.888
386.9939, 1308.183
387.4760, 1308.644
387.9582, 1309.036
388.4403, 1308.806
388.9224, 1308.359
389.4045, 1308.526
389.8866, 1310.761
390.3687, 1312.991
390.8509, 1313.004
391.3330, 1310.990
391.8151, 1309.219
392.2972, 1309.026
392.7793, 1309.733
393.2614, 1310.780
393.7436, 1312.695
394.2257, 1313.944
394.7078, 1313.092
395.1899, 1310.998
395.6720, 1309.915
396.1541, 1311.556
396.6363, 1313.596
397.1184, 1314.913
397.6005, 1315.144
398.0826, 1315.462
398.5647, 1316.262
399.0468, 1317.175
399.5290, 1317.752
400.0111, 1317.065
400.4932, 1317.033
400.9753, 1318.530
401.4574, 1321.544
401.9395, 1322.896
402.4217, 1321.436
402.9038, 1319.522
403.3859, 1318.715
403.8680, 1319.397
404.3501, 1320.295
404.8322, 1321.443
405.3144, 1322.682
405.7965, 1323.547
406.2786, 1323.976
406.7607, 1324.250
407.2428, 1324.466
407.7249, 1324.621
408.2071, 1324.754
408.6892, 1324.828
409.1713, 1324.981
409.6534, 1325.632
410.1355, 1326.725
410.6176, 1327.124
411.0998, 1326.018
411.5819, 1324.318
412.0640, 1324.655
412.5461, 1326.938
413.0282, 1328.948
413.5103, 1328.252
413.9925, 1326.131
414.4746, 1325.391
414.9567, 1326.812
415.4388, 1328.746
415.9209, 1329.674
416.4030, 1329.790
416.8852, 1329.600
417.3673, 1329.142
417.8494, 1328.624
418.3315, 1328.530
418.8136, 1328.900
419.2957, 1328.349
419.7779, 1324.221
420.2600, 1319.578
420.7421, 1317.556
421.2242, 1321.497
421.7063, 1325.625
422.1884, 1328.523
422.6706, 1330.231
423.1527, 1330.996
423.6348, 1330.218
424.1169, 1329.044
424.5990, 1327.983
425.0811, 1327.188
425.5633, 1326.276
426.0454, 1324.497
426.5275, 1322.911
427.0096, 1322.972
427.4917, 1326.203
427.9738, 1328.758
428.4560, 1329.558
428.9381, 1328.713
429.4202, 1328.783
429.9023, 1330.112
430.3844, 1331.686
430.8665, 1332.664
431.3487, 1332.868
431.8308, 1333.618
432.3129, 1335.284
432.7950, 1337.178
433.2771, 1337.459
433.7592, 1336.025
434.2414, 1335.226
434.7235, 1336.682
435.2056, 1339.717
435.6877, 1341.599
436.1698, 1342.270
436.6519, 1342.391
437.1341, 1342.417
437.6162, 1342.393
438.0983, 1342.444
438.5804, 1342.607
439.0625, 1342.869
439.5446, 1343.277
440.0268, 1343.801
440.5089, 1344.311
440.9910, 1344.372
441.4731, 1344.615
441.9552, 1346.061
442.4373, 1349.230
442.9195, 1351.255
443.4016, 1349.739
443.8837, 1346.566
444.3658, 1344.029
444.8479, 1342.780
445.3300, 1342.298
445.8122, 1342.721
446.2943, 1343.927
446.7764, 1344.934
447.2585, 1345.338
447.7406, 1345.699
448.2227, 1346.328
448.7049, 1347.541
449.1870, 1348.386
449.6691, 1348.632
450.1512, 1348.618
450.6333, 1348.862
451.1154, 1349.413
451.5976, 1350.139
452.0797, 1351.129
452.5618, 1352.336
453.0439, 1352.836
453.5260, 1352.355
454.0081, 1351.985
454.4903, 1352.940
454.9724, 1355.180
455.4545, 1356.336
455.9366, 1355.772
456.4187, 1354.727
456.9008, 1355.795
457.3830, 1358.655
457.8651, 1360.704
458.3472, 1360.138
458.8293, 1358.157
459.3114, 1356.591
459.7935, 1355.486
460.2757, 1355.296
460.7578, 1356.762
461.2399, 1359.273
461.7220, 1362.130
462.2041, 1365.854
462.6862, 1368.713
463.1684, 1368.876
463.6505, 1367.297
464.1326, 1366.183
464.6147, 1366.574
465.0968, 1367.508
465.5789, 1368.660
466.0611, 1370.062
466.5432, 1371.101
467.0253, 1371.489
467.5074, 1371.522
467.9895, 1371.445
468.4716, 1371.138
468.9538, 1370.889
469.4359, 1370.905
469.9180, 1371.002
470.4001, 1370.434
470.8822, 1368.530
471.3643, 1367.235
471.8465, 1367.740
472.3286, 1370.383
472.8107, 1371.296
473.2928, 1370.110
473.7749, 1368.159
474.2570, 1366.408
474.7392, 1364.876
475.2213, 1365.388
475.7034, 1369.230
476.1855, 1374.263
476.6676, 1375.551
477.1497, 1373.456
477.6319, 1371.441
478.1140, 1371.598
478.5961, 1373.144
479.0782, 1374.691
479.5603, 1376.090
480.0424, 1378.123
480.5246, 1382.740
481.0067, 1388.023
481.4888, 1391.234
481.9709, 1390.185
482.4530, 1388.391
482.9352, 1387.236
483.4173, 1386.718
483.8994, 1386.836
484.3815, 1388.935
484.8636, 1390.568
485.3457, 1390.181
485.8279, 1386.817
486.3100, 1384.696
486.7921, 1384.850
487.2742, 1386.039
487.7563, 1387.215
488.2384, 1388.266
488.7206, 1389.563
489.2027, 1391.423
489.6848, 1393.529
490.1669, 1394.694
490.6490, 1394.793
491.1311, 1394.340
491.6133, 1393.300
492.0954, 1391.697
492.5775, 1391.045
493.0596, 1391.511
493.5417, 1392.283
494.0238, 1392.354
494.5060, 1391.916
494.9881, 1391.855
495.4702, 1392.427
495.9523, 1393.422
496.4344, 1394.621
496.9165, 1396.000
497.3987, 1397.471
497.8808, 1399.223
498.3629, 1400.908
498.8450, 1402.282
499.3271, 1403.340
499.8092, 1403.831
500.2914, 1403.036
500.7735, 1401.877
501.2556, 1401.204
501.7377, 1401.073
502.2198, 1401.617
502.7019, 1403.598
503.1841, 1406.313
503.6662, 1407.866
504.1483, 1406.708
504.6304, 1405.904
505.1125, 1406.706
505.5946, 1409.383
506.0768, 1410.182
506.5589, 1408.151
507.0410, 1405.684
507.5231, 1404.865
508.0052, 1405.998
508.4873, 1406.755
508.9695, 1406.658
509.4516, 1406.435
509.9337, 1407.721
510.4158, 1410.424
510.8979, 1412.867
511.3800, 1414.315
511.8622, 1415.001
512.3443, 1415.248
512.8264, 1415.079
513.3085, 1415.099
513.7906, 1416.196
514.2728, 1417.588
514.7549, 1418.179
515.2370, 1417.551
515.7191, 1416.750
516.2012, 1416.041
516.6833, 1415.674
517.1655, 1416.019
517.6476, 1418.533
518.1297, 1420.468
518.6118, 1420.218
519.0939, 1418.064
519.5760, 1417.282
520.0582, 1420.542
520.5403, 1423.290
521.0224, 1423.270
521.5045, 1418.875
521.9866, 1416.393
522.4688, 1416.173
522.9509, 1417.459
523.4330, 1419.902
523.9151, 1424.034
524.3972, 1426.083
524.8793, 1424.364
525.3615, 1420.771
525.8436, 1420.907
526.3257, 1424.709
526.8078, 1427.929
527.2899, 1427.422
527.7720, 1424.684
528.2542, 1423.091
528.7363, 1422.820
529.2184, 1422.994
529.7005, 1423.028
530.1826, 1423.018
530.6647, 1423.026
531.1469, 1422.759
531.6290, 1423.045
532.1111, 1424.889
532.5932, 1427.577
533.0753, 1429.648
533.5574, 1430.245
534.0396, 1430.570
534.5217, 1430.773
535.0038, 1430.816
535.4859, 1431.785
535.9680, 1434.844
536.4501, 1437.672
536.9323, 1438.845
537.4144, 1437.697
537.8965, 1436.695
538.3786, 1435.742
538.8607, 1435.146
539.3428, 1435.583
539.8250, 1437.155
540.3071, 1438.643
540.7892, 1439.973
541.2713, 1440.801
541.7534, 1439.576
542.2355, 1436.537
542.7177, 1434.164
543.1998, 1434.566
543.6819, 1436.431
544.1640, 1437.945
544.6461, 1438.991
545.1282, 1439.368
545.6104, 1438.356
546.0925, 1436.813
546.5746, 1435.640
547.0567, 1434.383
547.5388, 1434.484
548.0209, 1437.344
548.5031, 1441.856
548.9852, 1445.642
549.4673, 1448.620
549.9494, 1450.506
550.4315, 1450.804
550.9136, 1449.526
551.3958, 1449.251
551.8779, 1450.441
552.3600, 1451.867
552.8421, 1452.648
553.3242, 1452.658
553.8063, 1453.429
554.2885, 1455.322
554.7706, 1457.158
555.2527, 1456.940
555.7348, 1455.031
556.2169, 1453.707
556.6990, 1453.792
557.1812, 1454.624
557.6633, 1455.511
558.1454, 1456.402
558.6275, 1457.105
559.1096, 1456.897
559.5917, 1456.876
560.0739, 1458.221
560.5560, 1461.039
561.0381, 1463.565
561.5202, 1465.136
562.0023, 1466.086
562.4844, 1466.667
562.9666, 1467.269
563.4487, 1466.881
563.9308, 1464.176
564.4129, 1461.003
564.8950, 1460.419
565.3771, 1463.789
565.8593, 1466.625
566.3414, 1467.776
566.8235, 1467.622
567.3056, 1467.811
567.7877, 1468.301
568.2698, 1469.361
568.7520, 1471.653
569.2341, 1474.698
569.7162, 1476.923
570.1983, 1478.289
570.6804, 1478.502
571.1625, 1476.017
571.6447, 1472.517
572.1268, 1470.934
572.6089, 1472.862
573.0910, 1474.907
573.5731, 1474.739
574.0552, 1473.240
574.5374, 1471.940
575.0195, 1471.454
575.5016, 1471.164
575.9837, 1470.661
576.4658, 1470.042
576.9479, 1470.453
577.4301, 1473.486
577.9122, 1475.682
578.3943, 1475.015
578.8764, 1470.501
579.3585, 1469.014
579.8406, 1471.431
580.3228, 1474.911
580.8049, 1476.306
581.2870, 1475.747
581.7691, 1475.976
582.2512, 1477.683
582.7333, 1479.752
583.2155, 1480.351
583.6975, 1479.856
584.1796, 1479.513
584.6617, 1479.941
585.1439, 1480.704
585.6260, 1481.368
586.1081, 1481.985
586.5902, 1482.876
587.0723, 1484.897
587.5544, 1486.674
588.0366, 1487.282
588.5187, 1486.278
589.0008, 1485.658
589.4829, 1486.309
589.9650, 1487.020
590.4471, 1486.849
590.9293, 1485.363
591.4114, 1483.969
591.8935, 1482.524
592.3756, 1481.474
592.8577, 1481.877
593.3398, 1483.827
593.8220, 1485.711
594.3041, 1487.191
594.7862, 1488.131
595.2683, 1487.875
595.7504, 1486.586
596.2325, 1485.466
596.7147, 1485.114
597.1968, 1485.430
597.6789, 1486.518
598.1610, 1488.400
598.6431, 1490.195
599.1252, 1491.801
599.6074, 1492.881
600.0895, 1493.078
600.5716, 1491.532
601.0537, 1490.519
601.5358, 1490.643
602.0179, 1491.391
602.5001, 1492.153
602.9822, 1493.027
603.4643, 1493.676
603.9464, 1493.943
604.4285, 1493.964
604.9106, 1494.142
605.3928, 1494.434
605.8749, 1495.072
606.3570, 1496.435
606.8391, 1498.196
607.3212, 1499.343
607.8033, 1499.875
608.2855, 1500.024
608.7676, 1499.408
609.2497, 1498.744
609.7318, 1499.102
610.2139, 1500.841
610.6960, 1502.615
611.1782, 1503.941
611.6603, 1504.803
612.1424, 1505.197
612.6245, 1505.051
613.1066, 1504.512
613.5887, 1502.943
614.0709, 1501.130
614.5530, 1500.745
615.0351, 1502.475
615.5172, 1504.211
615.9993, 1505.492
616.4814, 1506.336
616.9636, 1506.854
617.4457, 1507.057
617.9278, 1506.928
618.4099, 1506.231
618.8920, 1505.221
619.3741, 1504.636
619.8563, 1504.506
620.3384, 1504.381
620.8205, 1503.548
621.3026, 1502.644
621.7847, 1502.570
622.2668, 1503.889
622.7490, 1504.983
623.2311, 1504.749
623.7132, 1504.017
624.1953, 1503.853
624.6774, 1504.687
625.1595, 1505.800
625.6417, 1507.141
626.1238, 1508.701
626.6059, 1510.725
627.0880, 1513.925
627.5701, 1515.438
628.0522, 1513.521
628.5344, 1509.117
629.0165, 1506.746
629.4986, 1506.422
629.9807, 1507.633
630.4628, 1511.535
630.9449, 1516.280
631.4271, 1517.925
631.9092, 1516.054
632.3913, 1514.197
632.8734, 1515.388
633.3555, 1517.654
633.8376, 1518.934
634.3198, 1518.272
634.8019, 1517.528
635.2840, 1516.640
635.7661, 1516.120
636.2482, 1516.780
636.7303, 1520.332
637.2125, 1522.110
637.6946, 1520.759
638.1767, 1517.540
638.6588, 1515.986
639.1409, 1516.250
639.6230, 1517.212
640.1052, 1519.128
640.5873, 1521.208
641.0694, 1520.508
641.5515, 1517.273
642.0336, 1514.119
642.5157, 1512.527
642.9979, 1512.186
643.4800, 1512.881
643.9621, 1514.625
644.4442, 1516.999
644.9263, 1521.170
645.4084, 1525.080
645.8906, 1526.883
646.3727, 1524.391
646.8548, 1523.239
647.3369, 1524.289
647.8190, 1526.331
648.3011, 1527.969
648.7833, 1529.108
649.2654, 1530.080
649.7475, 1530.974
650.2296, 1531.633
650.7117, 1531.463
651.1938, 1530.565
651.6760, 1530.273
652.1581, 1531.379
652.6402, 1533.228
653.1223, 1535.188
653.6044, 1537.124
654.0865, 1538.534
654.5687, 1539.072
655.0508, 1539.047
655.5329, 1538.354
656.0150, 1536.971
656.4971, 1536.281
656.9792, 1537.141
657.4614, 1538.336
657.9435, 1539.069
658.4256, 1538.849
658.9077, 1540.075
659.3898, 1543.518
659.8719, 1547.020
660.3541, 1548.115
660.8362, 1546.871
661.3183, 1545.700
661.8004, 1544.911
662.2825, 1544.443
662.7646, 1544.309
663.2468, 1544.446
663.7289, 1544.720
664.2110, 1545.339
664.6931, 1545.786
665.1752, 1545.404
665.6573, 1544.597
666.1395, 1544.301
666.6216, 1545.305
667.1037, 1546.363
667.5858, 1547.258
668.0679, 1547.947
668.5500, 1547.845
669.0322, 1546.125
669.5143, 1545.272
669.9964, 1546.919
670.4785, 1550.804
670.9606, 1552.684
671.4427, 1552.436
671.9249, 1551.258
672.4070, 1549.013
672.8891, 1546.737
673.3712, 1547.197
673.8533, 1550.891
674.3354, 1554.556
674.8176, 1555.810
675.2997, 1555.841
675.7818, 1555.888
676.2639, 1556.432
676.7460, 1556.649
677.2281, 1555.830
677.7103, 1554.842
678.1924, 1554.787
678.6745, 1556.179
679.1566, 1557.363
679.6387, 1557.938
680.1208, 1558.361
680.6030, 1559.805
681.0851, 1562.231
681.5672, 1564.685
682.0493, 1567.318
682.5314, 1569.241
683.0135, 1567.969
683.4957, 1564.306
683.9778, 1561.510
684.4599, 1562.105
684.9420, 1563.548
685.4241, 1564.191
685.9063, 1564.001
686.3884, 1563.719
686.8705, 1562.808
687.3526, 1562.570
687.8347, 1563.932
688.3168, 1567.362
688.7990, 1569.112
689.2811, 1568.726
689.7632, 1567.806
690.2453, 1567.685
690.7274, 1568.273
691.2095, 1568.235
691.6917, 1567.416
692.1738, 1566.486
692.6559, 1565.841
693.1380, 1565.650
693.6201, 1566.329
694.1022, 1568.228
694.5844, 1570.203
695.0665, 1571.813
695.5486, 1572.995
696.0307, 1573.680
696.5128, 1572.572
696.9949, 1572.631
697.4771, 1574.966
697.9592, 1578.252
698.4413, 1579.606
698.9234, 1578.434
699.4055, 1577.799
699.8876, 1578.752
700.3698, 1580.539
700.8519, 1581.385
701.3340, 1581.344
701.8161, 1580.662
702.2982, 1578.349
702.7803, 1576.237
703.2625, 1576.984
703.7446, 1580.018
704.2267, 1582.341
704.7088, 1582.693
705.1909, 1581.969
705.6730, 1579.688
706.1552, 1575.564
706.6373, 1574.961
707.1194, 1580.025
707.6015, 1585.616
708.0836, 1588.890
708.5657, 1589.705
709.0479, 1590.374
709.5300, 1590.832
710.0121, 1591.324
710.4942, 1592.161
710.9763, 1593.151
711.4584, 1593.893
711.9406, 1594.297
712.4227, 1594.571
712.9048, 1594.981
713.3869, 1595.290
713.8690, 1595.200
714.3511, 1594.181
714.8333, 1593.662
715.3154, 1594.427
715.7975, 1595.620
716.2796, 1596.499
716.7617, 1597.417
717.2438, 1596.928
717.7260, 1594.375
718.2081, 1591.193
718.6902, 1589.880
719.1723, 1590.297
719.6544, 1591.555
720.1365, 1594.052
720.6187, 1596.183
721.1008, 1594.868
721.5829, 1591.706
722.0650, 1590.428
722.5471, 1594.901
723.0292, 1599.290
723.5114, 1600.758
723.9935, 1599.875
724.4756, 1599.408
724.9577, 1599.688
725.4398, 1599.995
725.9219, 1599.964
726.4041, 1599.775
726.8862, 1600.711
727.3683, 1602.910
727.8504, 1604.899
728.3325, 1605.922
728.8146, 1606.178
729.2968, 1605.897
729.7789, 1605.138
730.2610, 1604.295
730.7431, 1603.198
731.2252, 1602.433
731.7073, 1602.482
732.1895, 1603.423
732.6716, 1604.635
733.1537, 1606.071
733.6358, 1607.667
734.1179, 1609.686
734.6000, 1612.498
735.0822, 1612.991
735.5643, 1610.559
736.0464, 1607.829
736.5285, 1607.219
737.0106, 1608.311
737.4927, 1609.700
737.9749, 1611.301
738.4570, 1612.750
738.9391, 1613.930
739.4212, 1614.714
739.9033, 1614.958
740.3854, 1614.694
740.8676, 1613.851
741.3497, 1611.647
741.8318, 1609.324
742.3139, 1608.146
742.7960, 1608.595
743.2781, 1608.829
743.7603, 1608.254
744.2424, 1608.170
744.7245, 1611.469
745.2066, 1617.512
745.6887, 1621.080
746.1708, 1620.244
746.6530, 1618.256
747.1351, 1618.697
747.6172, 1620.657
748.0993, 1622.578
748.5814, 1624.500
749.0635, 1625.570
749.5457, 1624.917
750.0278, 1623.320
750.5099, 1622.457
750.9920, 1622.662
751.4741, 1623.132
751.9562, 1623.913
752.4384, 1624.777
752.9205, 1625.027
753.4026, 1624.694
753.8847, 1624.309
754.3668, 1623.872
754.8489, 1623.743
755.3311, 1624.847
755.8132, 1626.742
756.2953, 1628.099
756.7774, 1627.549
757.2595, 1627.052
757.7416, 1628.017
758.2238, 1630.023
758.7059, 1630.614
759.1880, 1628.303
759.6701, 1626.822
760.1522, 1627.641
760.6343, 1630.176
761.1165, 1631.162
761.5986, 1630.516
762.0807, 1629.897
762.5628, 1630.056
763.0449, 1630.892
763.5270, 1632.812
764.0092, 1635.483
764.4913, 1637.187
764.9734, 1635.883
765.4555, 1634.232
765.9376, 1633.721
766.4197, 1634.441
766.9019, 1635.824
767.3840, 1638.774
767.8661, 1641.005
768.3482, 1641.200
768.8303, 1639.488
769.3124, 1639.017
769.7946, 1639.872
770.2767, 1641.028
770.7588, 1642.046
771.2409, 1642.777
771.7230, 1642.769
772.2051, 1642.045
772.6873, 1641.395
773.1694, 1640.484
773.6515, 1640.402
774.1336, 1642.347
774.6157, 1646.966
775.0978, 1649.999
775.5800, 1650.656
776.0621, 1650.581
776.5442, 1650.632
777.0263, 1650.805
777.5084, 1650.944
777.9905, 1651.022
778.4727, 1651.281
778.9548, 1651.993
779.4369, 1653.008
779.9190, 1654.137
780.4011, 1655.368
780.8832, 1656.516
781.3654, 1657.904
781.8475, 1658.892
782.3296, 1658.828
782.8117, 1657.044
783.2938, 1656.264
783.7759, 1657.107
784.2581, 1658.137
784.7402, 1657.793
785.2223, 1656.079
785.7044, 1656.885
786.1865, 1660.582
786.6686, 1664.697
787.1508, 1666.498
787.6329, 1667.283
788.1150, 1669.316
788.5971, 1673.174
789.0792, 1676.558
789.5613, 1677.486
790.0435, 1678.058
790.5256, 1680.084
791.0077, 1684.243
791.4898, 1688.071
791.9719, 1691.154
792.4540, 1694.542
792.9362, 1699.709
793.4183, 1706.431
793.9004, 1710.747
794.3825, 1712.124
794.8646, 1713.600
795.3467, 1718.895
795.8289, 1725.829
796.3110, 1731.182
796.7931, 1734.029
797.2752, 1737.368
797.7573, 1742.314
798.2394, 1748.279
798.7216, 1754.709
799.2037, 1761.523
799.6858, 1769.221
800.1679, 1778.032
800.6500, 1787.191
801.1321, 1796.559
801.6143, 1805.851
802.0964, 1813.342
802.5785, 1818.538
803.0606, 1824.447
803.5427, 1835.584
804.0248, 1847.793
804.5070, 1856.320
804.9891, 1858.988
805.4712, 1861.957
805.9533, 1867.507
806.4354, 1873.161
806.9175, 1877.200
807.3997, 1879.479
807.8818, 1880.860
808.3639, 1881.357
808.8460, 1881.050
809.3281, 1880.078
809.8102, 1878.368
810.2924, 1875.350
810.7745, 1870.771
811.2566, 1866.617
811.7387, 1865.196
812.2208, 1864.321
812.7029, 1861.810
813.1851, 1856.128
813.6672, 1852.251
814.1493, 1851.973
814.6314, 1851.591
815.1135, 1847.438
815.5956, 1839.200
816.0778, 1834.427
816.5599, 1833.782
817.0420, 1833.381
817.5241, 1828.818
818.0062, 1822.319
818.4883, 1817.032
818.9705, 1813.358
819.4526, 1811.192
819.9347, 1811.564
820.4168, 1812.643
820.8989, 1813.198
821.3810, 1813.252
821.8632, 1812.485
822.3453, 1810.594
822.8274, 1808.552
823.3095, 1806.921
823.7916, 1805.776
824.2737, 1806.115
824.7559, 1808.007
825.2380, 1809.428
825.7201, 1807.974
826.2022, 1805.710
826.6843, 1804.690
827.1664, 1805.261
827.6486, 1806.124
828.1307, 1807.084
828.6128, 1808.187
829.0949, 1809.339
829.5770, 1810.472
830.0591, 1812.911
830.5413, 1816.909
831.0234, 1820.592
831.5055, 1822.258
831.9876, 1822.717
832.4697, 1823.247
832.9518, 1823.952
833.4340, 1825.533
833.9161, 1828.995
834.3982, 1832.927
834.8803, 1836.773
835.3624, 1840.490
835.8445, 1842.801
836.3267, 1843.172
836.8088, 1843.187
837.2909, 1843.707
837.7730, 1844.548
838.2551, 1844.375
838.7372, 1843.268
839.2194, 1842.234
839.7015, 1842.703
840.1836, 1843.028
840.6657, 1840.911
841.1478, 1836.843
841.6299, 1834.033
842.1121, 1835.748
842.5942, 1836.390
843.0763, 1833.617
843.5584, 1828.141
844.0405, 1824.234
844.5226, 1822.164
845.0048, 1819.534
845.4869, 1815.234
845.9690, 1809.697
846.4511, 1803.000
846.9332, 1795.709
847.4153, 1789.836
847.8975, 1786.418
848.3796, 1784.573
848.8617, 1785.226
849.3438, 1787.207
849.8259, 1786.814
850.3080, 1783.732
850.7902, 1778.615
851.2723, 1770.616
851.7544, 1761.908
852.2365, 1758.214
852.7186, 1758.678
853.2007, 1757.994
853.6829, 1753.118
854.1650, 1748.326
854.6471, 1747.780
855.1292, 1749.779
855.6113, 1751.465
856.0934, 1752.436
856.5756, 1752.457
857.0577, 1751.168
857.5398, 1749.217
858.0219, 1747.395
858.5040, 1745.674
858.9861, 1744.272
859.4683, 1743.266
859.9504, 1742.329
860.4325, 1740.975
860.9146, 1739.430
861.3967, 1738.066
861.8788, 1736.876
862.3610, 1736.122
862.8431, 1736.169
863.3252, 1736.555
863.8073, 1736.926
864.2894, 1737.562
864.7715, 1737.335
865.2537, 1736.178
865.7358, 1734.395
866.2179, 1731.523
866.7000, 1728.350
867.1821, 1727.248
867.6642, 1728.529
868.1464, 1730.176
868.6285, 1731.031
869.1106, 1731.635
869.5927, 1732.497
870.0748, 1733.829
870.5569, 1734.513
871.0391, 1734.350
871.5212, 1733.846
872.0033, 1732.859
872.4854, 1731.615
872.9675, 1732.543
873.4496, 1735.457
873.9318, 1737.695
874.4139, 1736.382
874.8960, 1734.357
875.3781, 1734.282
875.8602, 1735.978
876.3423, 1737.330
876.8245, 1737.943
877.3066, 1737.950
877.7887, 1737.113
878.2708, 1735.761
878.7529, 1735.453
879.2350, 1736.213
879.7172, 1736.521
880.1993, 1735.323
880.6814, 1733.849
881.1635, 1733.869
881.6456, 1734.881
882.1277, 1735.694
882.6099, 1735.574
883.0920, 1735.573
883.5741, 1736.409
884.0562, 1737.348
884.5383, 1736.810
885.0204, 1734.295
885.5026, 1733.780
885.9847, 1736.464
886.4668, 1739.901
886.9489, 1740.154
887.4310, 1738.756
887.9131, 1739.060
888.3953, 1742.675
888.8774, 1745.787
889.3595, 1746.761
889.8416, 1746.374
890.3237, 1745.152
890.8058, 1742.064
891.2880, 1741.630
891.7701, 1744.625
892.2522, 1747.847
892.7343, 1747.982
893.2164, 1746.119
893.6985, 1744.764
894.1807, 1744.142
894.6628, 1745.088
895.1449, 1750.965
895.6270, 1756.295
896.1091, 1756.756
896.5912, 1751.663
897.0734, 1747.847
897.5555, 1744.776
898.0376, 1744.462
898.5197, 1749.320
899.0018, 1757.249
899.4839, 1760.525
899.9661, 1759.684
900.4482, 1757.845
900.9303, 1756.323
901.4124, 1754.784
901.8945, 1752.076
902.3766, 1749.102
902.8588, 1748.977
903.3409, 1754.340
903.8230, 1758.075
904.3051, 1758.645
904.7872, 1757.321
905.2693, 1756.428
905.7515, 1755.898
906.2336, 1755.114
906.7157, 1753.474
907.1978, 1752.692
907.6799, 1755.414
908.1620, 1759.299
908.6442, 1761.472
909.1263, 1759.639
909.6084, 1759.135
910.0905, 1760.841
910.5726, 1762.901
911.0547, 1763.675
911.5369, 1763.255
912.0190, 1762.514
912.5011, 1761.503
912.9832, 1760.648
913.4653, 1760.107
913.9474, 1760.032
914.4296, 1760.539
914.9117, 1761.635
915.3938, 1763.469
915.8759, 1767.256
916.3580, 1770.035
916.8401, 1770.325
917.3223, 1768.557
917.8044, 1766.932
918.2865, 1765.501
918.7686, 1765.151
919.2507, 1767.334
919.7328, 1769.966
920.2150, 1771.028
920.6971, 1770.925
921.1792, 1770.697
921.6613, 1770.656
922.1434, 1770.488
922.6255, 1770.145
923.1077, 1769.701
923.5898, 1769.060
924.0719, 1768.286
924.5540, 1768.307
925.0361, 1769.322
925.5182, 1771.117
926.0004, 1774.814
926.4825, 1778.502
926.9646, 1779.556
927.4467, 1776.006
927.9288, 1774.014
928.4109, 1774.614
928.8931, 1776.375
929.3752, 1778.603
929.8573, 1781.275
930.3394, 1783.683
930.8215, 1785.822
931.3036, 1787.000
931.7858, 1785.719
932.2679, 1783.996
932.7500, 1783.926
933.2321, 1785.418
933.7142, 1786.897
934.1964, 1789.118
934.6785, 1789.747
935.1606, 1787.525
935.6427, 1783.676
936.1248, 1781.818
936.6069, 1781.842
937.0891, 1782.821
937.5712, 1784.764
938.0533, 1786.865
938.5354, 1788.758
939.0175, 1790.148
939.4996, 1790.580
939.9818, 1789.658
940.4639, 1788.013
940.9460, 1785.353
941.4281, 1782.473
941.9102, 1779.821
942.3923, 1777.541
942.8745, 1777.390
943.3566, 1779.558
943.8387, 1781.878
944.3208, 1782.331
944.8029, 1782.331
945.2850, 1783.174
945.7672, 1785.004
946.2493, 1786.574
946.7314, 1788.129
947.2135, 1788.775
947.6956, 1787.795
948.1777, 1785.812
948.6599, 1785.160
949.1420, 1785.667
949.6241, 1786.362
950.1062, 1786.329
950.5883, 1786.885
951.0704, 1790.390
951.5526, 1794.815
952.0347, 1796.018
952.5168, 1791.452
952.9989, 1788.338
953.4810, 1787.246
953.9631, 1787.665
954.4453, 1789.793
954.9274, 1792.937
955.4095, 1794.432
955.8916, 1793.802
956.3737, 1793.112
956.8558, 1793.723
957.3380, 1794.780
957.8201, 1795.570
958.3022, 1795.998
958.7843, 1797.231
959.2664, 1799.788
959.7485, 1801.428
960.2307, 1800.581
960.7128, 1798.375
961.1949, 1797.482
961.6770, 1797.580
962.1591, 1797.540
962.6412, 1796.265
963.1234, 1795.421
963.6055, 1795.857
964.0876, 1797.149
964.5697, 1798.924
965.0518, 1801.787
965.5339, 1801.952
966.0161, 1798.344
966.4982, 1794.325
966.9803, 1794.725
967.4624, 1797.151
967.9445, 1797.173
968.4266, 1793.706
968.9088, 1791.321
969.3909, 1791.713
969.8730, 1793.707
970.3551, 1797.361
970.8372, 1802.378
971.3193, 1804.080
971.8015, 1802.305
972.2836, 1800.887
972.7657, 1802.506
973.2478, 1805.081
973.7299, 1805.951
974.2120, 1805.827
974.6942, 1806.481
975.1763, 1809.858
975.6584, 1812.056
976.1405, 1811.945
976.6226, 1811.195
977.1047, 1812.487
977.5869, 1815.600
978.0690, 1817.939
978.5511, 1819.098
979.0332, 1819.805
979.5153, 1821.028
979.9974, 1821.859
980.4796, 1820.946
980.9617, 1817.742
981.4438, 1816.845
981.9259, 1819.393
982.4080, 1822.135
982.8901, 1823.817
983.3723, 1824.497
983.8544, 1823.905
984.3365, 1822.357
984.8186, 1821.173
985.3007, 1821.407
985.7828, 1821.687
986.2650, 1820.526
986.7471, 1819.300
987.2292, 1820.425
987.7113, 1824.836
988.1934, 1828.213
988.6755, 1830.183
989.1577, 1831.058
989.6398, 1830.308
990.1219, 1829.032
990.6040, 1829.561
991.0861, 1832.190
991.5682, 1833.858
992.0504, 1832.276
992.5325, 1830.653
993.0146, 1831.031
993.4967, 1832.679
993.9788, 1830.250
994.4609, 1823.791
994.9431, 1820.255
995.4252, 1824.121
995.9073, 1829.765
996.3894, 1831.825
996.8715, 1831.255
997.3536, 1829.641
997.8358, 1824.861
998.3179, 1823.007
998.8000, 1825.168
999.2821, 1828.716
999.7642, 1831.422
1000.246, 1833.322
1000.728, 1834.350
1001.211, 1834.545
1001.693, 1834.932
1002.175, 1836.035
1002.657, 1837.664
1003.139, 1840.112
1003.621, 1843.113
1004.103, 1845.035
1004.585, 1845.909
1005.068, 1845.337
1005.550, 1842.605
1006.032, 1839.584
1006.514, 1839.596
1006.996, 1841.512
1007.478, 1843.104
1007.960, 1843.800
1008.442, 1844.042
1008.924, 1843.210
1009.407, 1842.672
1009.889, 1843.654
1010.371, 1846.247
1010.853, 1847.034
1011.335, 1846.001
1011.817, 1845.415
1012.299, 1847.911
1012.781, 1850.614
1013.263, 1850.568
1013.746, 1848.452
1014.228, 1846.769
1014.710, 1845.244
1015.192, 1845.672
1015.674, 1849.399
1016.156, 1853.378
1016.638, 1851.462
1017.120, 1846.008
1017.603, 1844.806
1018.085, 1849.565
1018.567, 1855.018
1019.049, 1858.420
1019.531, 1861.091
1020.013, 1864.123
1020.495, 1867.479
1020.977, 1870.014
1021.459, 1871.939
1021.942, 1870.902
1022.424, 1863.888
1022.906, 1855.564
1023.388, 1852.393
1023.870, 1852.670
1024.352, 1853.051
1024.834, 1852.378
1025.316, 1851.932
1025.799, 1851.215
1026.281, 1851.593
1026.763, 1855.363
1027.245, 1861.774
1027.727, 1866.274
1028.209, 1868.634
1028.691, 1869.744
1029.173, 1870.728
1029.656, 1870.177
1030.138, 1865.511
1030.620, 1858.051
1031.102, 1854.679
1031.584, 1856.166
1032.066, 1858.708
1032.548, 1861.650
1033.030, 1864.495
1033.512, 1866.408
1033.995, 1867.708
1034.477, 1868.962
1034.959, 1870.392
1035.441, 1871.346
1035.923, 1871.681
1036.405, 1871.469
1036.887, 1870.622
1037.369, 1869.227
1037.851, 1867.776
1038.334, 1866.351
1038.816, 1865.378
1039.298, 1865.743
1039.780, 1866.046
1040.262, 1865.173
1040.744, 1863.644
1041.226, 1862.478
1041.708, 1861.748
1042.191, 1861.266
1042.673, 1860.963
1043.155, 1861.122
1043.637, 1862.561
1044.119, 1864.435
1044.601, 1865.226
1045.083, 1864.850
1045.565, 1864.281
1046.047, 1863.297
1046.530, 1862.817
1047.012, 1862.983
1047.494, 1863.906
1047.976, 1866.195
1048.458, 1869.712
1048.940, 1873.438
1049.422, 1877.762
1049.904, 1880.121
1050.386, 1876.189
1050.869, 1870.805
1051.351, 1869.233
1051.833, 1872.417
1052.315, 1874.814
1052.797, 1876.369
1053.279, 1877.358
1053.761, 1877.614
1054.243, 1877.636
1054.726, 1878.475
1055.208, 1879.786
1055.690, 1880.674
1056.172, 1880.341
1056.654, 1880.213
1057.136, 1880.491
1057.618, 1881.044
1058.100, 1881.993
1058.583, 1883.178
1059.065, 1883.272
1059.547, 1882.210
1060.029, 1881.271
1060.511, 1881.535
1060.993, 1882.059
1061.475, 1882.316
1061.957, 1882.356
1062.439, 1882.552
1062.922, 1883.059
1063.404, 1882.551
1063.886, 1880.238
1064.368, 1878.172
1064.850, 1879.770
1065.332, 1882.764
1065.814, 1883.730
1066.296, 1881.180
1066.778, 1880.675
1067.261, 1884.112
1067.743, 1886.990
1068.225, 1886.423
1068.707, 1883.852
1069.189, 1884.348
1069.671, 1887.138
1070.153, 1889.453
1070.635, 1889.757
1071.118, 1889.773
1071.600, 1890.501
1072.082, 1891.048
1072.564, 1890.099
1073.046, 1887.379
1073.528, 1886.928
1074.010, 1888.914
1074.492, 1891.484
1074.974, 1894.478
1075.457, 1896.321
1075.939, 1893.689
1076.421, 1888.401
1076.903, 1888.350
1077.385, 1896.829
1077.867, 1902.271
1078.349, 1902.182
1078.831, 1900.044
1079.313, 1900.348
1079.796, 1901.916
1080.278, 1902.572
1080.760, 1901.969
1081.242, 1901.530
1081.724, 1901.153
1082.206, 1901.855
1082.688, 1904.704
1083.170, 1908.497
1083.652, 1908.938
1084.135, 1906.624
1084.617, 1904.546
1085.099, 1903.709
1085.581, 1903.282
1086.063, 1901.892
1086.545, 1901.429
1087.027, 1904.209
1087.509, 1910.900
1087.992, 1913.703
1088.474, 1912.449
1088.956, 1910.281
1089.438, 1908.624
1089.920, 1907.428
1090.402, 1905.921
1090.884, 1904.906
1091.366, 1906.273
1091.849, 1912.038
1092.331, 1916.689
1092.813, 1920.131
1093.295, 1921.789
1093.777, 1919.509
1094.259, 1915.576
1094.741, 1915.295
1095.223, 1918.360
1095.705, 1920.568
1096.188, 1919.190
1096.670, 1918.099
1097.152, 1918.542
1097.634, 1919.627
1098.116, 1919.536
1098.598, 1918.573
1099.080, 1918.474
1099.562, 1919.661
1100.044, 1920.431
1100.527, 1918.853
1101.009, 1917.232
1101.491, 1916.891
1101.973, 1917.811
1102.455, 1920.633
1102.937, 1925.469
1103.419, 1928.534
1103.901, 1927.940
1104.384, 1926.529
1104.866, 1926.867
1105.348, 1928.255
1105.830, 1930.184
1106.312, 1933.118
1106.794, 1933.615
1107.276, 1930.803
1107.758, 1928.608
1108.240, 1929.998
1108.723, 1932.800
1109.205, 1933.200
1109.687, 1931.983
1110.169, 1930.963
1110.651, 1930.117
1111.133, 1930.631
1111.615, 1933.319
1112.097, 1936.136
1112.579, 1937.115
1113.062, 1936.694
1113.544, 1935.988
1114.026, 1935.234
1114.508, 1935.638
1114.990, 1939.855
1115.472, 1942.871
1115.954, 1942.201
1116.436, 1939.811
1116.919, 1938.421
1117.401, 1937.970
1117.883, 1937.806
1118.365, 1937.845
1118.847, 1938.082
1119.329, 1938.426
1119.811, 1939.016
1120.293, 1940.241
1120.776, 1941.801
1121.258, 1942.332
1121.740, 1941.637
1122.222, 1941.875
1122.704, 1943.847
1123.186, 1945.679
1123.668, 1945.120
1124.150, 1943.570
1124.632, 1942.476
1125.115, 1942.082
1125.597, 1941.863
1126.079, 1941.592
1126.561, 1942.468
1127.043, 1945.628
1127.525, 1949.156
1128.007, 1949.511
1128.489, 1948.124
1128.971, 1947.513
1129.454, 1948.829
1129.936, 1949.301
1130.418, 1948.135
1130.900, 1947.135
1131.382, 1947.603
1131.864, 1948.904
1132.346, 1948.943
1132.828, 1948.171
1133.311, 1948.037
1133.793, 1948.966
1134.275, 1950.922
1134.757, 1954.866
1135.239, 1958.676
1135.721, 1960.464
1136.203, 1960.392
1136.685, 1959.203
1137.167, 1957.192
1137.650, 1956.764
1138.132, 1961.516
1138.614, 1965.678
1139.096, 1966.197
1139.578, 1964.752
1140.060, 1962.878
1140.542, 1960.526
1141.024, 1961.999
1141.506, 1967.732
1141.989, 1971.843
1142.471, 1967.665
1142.953, 1962.413
1143.435, 1961.478
1143.917, 1963.737
1144.399, 1964.682
1144.881, 1964.120
1145.363, 1963.742
1145.846, 1963.902
1146.328, 1963.955
1146.810, 1962.839
1147.292, 1961.613
1147.774, 1961.420
1148.256, 1962.336
1148.738, 1962.867
1149.220, 1962.697
1149.703, 1963.451
1150.185, 1965.911
1150.667, 1968.488
1151.149, 1968.453
1151.631, 1967.549
1152.113, 1968.351
1152.595, 1971.547
1153.077, 1974.368
1153.559, 1977.084
1154.042, 1977.977
1154.524, 1975.393
1155.006, 1971.977
1155.488, 1973.344
1155.970, 1977.350
1156.452, 1979.758
1156.934, 1979.063
1157.416, 1978.074
1157.898, 1976.683
1158.381, 1976.015
1158.863, 1977.048
1159.345, 1979.067
1159.827, 1980.311
1160.309, 1980.806
1160.791, 1980.549
1161.273, 1979.206
1161.755, 1977.742
1162.238, 1975.751
1162.720, 1974.603
1163.202, 1975.825
1163.684, 1978.855
1164.166, 1980.729
1164.648, 1981.614
1165.130, 1982.182
1165.612, 1982.620
1166.094, 1982.904
1166.577, 1982.487
1167.059, 1982.346
1167.541, 1983.935
1168.023, 1986.875
1168.505, 1987.490
1168.987, 1985.939
1169.469, 1984.805
1169.951, 1985.421
1170.433, 1986.949
1170.916, 1990.195
1171.398, 1993.395
1171.880, 1994.176
1172.362, 1992.654
1172.844, 1990.251
1173.326, 1987.150
1173.808, 1984.708
1174.290, 1984.428
1174.773, 1984.600
1175.255, 1984.063
1175.737, 1983.399
1176.219, 1983.869
1176.701, 1985.498
1177.183, 1986.849
1177.665, 1987.716
1178.147, 1988.985
1178.630, 1992.587
1179.112, 1995.700
1179.594, 1995.935
1180.076, 1994.021
1180.558, 1992.214
1181.040, 1990.465
1181.522, 1989.147
1182.004, 1988.275
1182.486, 1988.099
1182.969, 1988.803
1183.451, 1990.286
1183.933, 1993.139
1184.415, 1996.888
1184.897, 1998.522
1185.379, 1997.861
1185.861, 1997.074
1186.343, 1996.719
1186.825, 1996.432
1187.308, 1995.449
1187.790, 1994.685
1188.272, 1995.541
1188.754, 1997.973
1189.236, 1998.518
1189.718, 1996.971
1190.200, 1995.719
1190.682, 1995.477
1191.165, 1996.039
1191.647, 1997.765
1192.129, 1999.800
1192.611, 2001.180
1193.093, 2001.749
1193.575, 2002.329
1194.057, 2002.877
1194.539, 2003.524
1195.021, 2004.150
1195.504, 2005.189
1195.986, 2007.959
1196.468, 2010.968
1196.950, 2011.801
1197.432, 2009.571
1197.914, 2010.469
1198.396, 2015.148
1198.878, 2018.394
1199.360, 2017.135
1199.843, 2014.136
1200.325, 2011.915
1200.807, 2010.398
1201.289, 2009.460
1201.771, 2008.935
1202.253, 2010.170
1202.735, 2013.581
1203.217, 2016.240
1203.700, 2016.015
1204.182, 2014.815
1204.664, 2014.552
1205.146, 2014.939
1205.628, 2015.588
1206.110, 2016.724
1206.592, 2016.857
1207.074, 2015.705
1207.557, 2015.196
1208.039, 2017.202
1208.521, 2019.817
1209.003, 2020.804
1209.485, 2020.911
1209.967, 2021.519
1210.449, 2022.937
1210.931, 2024.478
1211.413, 2026.303
1211.896, 2027.231
1212.378, 2025.456
1212.860, 2023.250
1213.342, 2023.617
1213.824, 2025.255
1214.306, 2025.174
1214.788, 2021.820
1215.270, 2021.929
1215.752, 2026.061
1216.235, 2030.299
1216.717, 2031.948
1217.199, 2032.139
1217.681, 2031.746
1218.163, 2030.828
1218.645, 2029.303
1219.127, 2026.667
1219.609, 2025.688
1220.092, 2026.580
1220.574, 2028.186
1221.056, 2030.213
1221.538, 2031.977
1222.020, 2032.717
1222.502, 2032.698
1222.984, 2032.696
1223.466, 2032.878
1223.948, 2031.981
1224.431, 2029.771
1224.913, 2028.512
1225.395, 2031.189
1225.877, 2034.486
1226.359, 2035.330
1226.841, 2034.758
1227.323, 2035.716
1227.805, 2038.634
1228.287, 2040.043
1228.770, 2039.636
1229.252, 2039.066
1229.734, 2039.855
1230.216, 2040.759
1230.698, 2040.201
1231.180, 2039.275
1231.662, 2040.912
1232.144, 2045.474
1232.627, 2047.088
1233.109, 2045.192
1233.591, 2042.899
1234.073, 2042.480
1234.555, 2042.517
1235.037, 2042.167
1235.519, 2041.604
1236.001, 2040.642
1236.484, 2039.303
1236.966, 2042.266
1237.448, 2049.907
1237.930, 2054.948
1238.412, 2048.819
1238.894, 2042.568
1239.376, 2043.363
1239.858, 2047.607
1240.340, 2050.043
1240.823, 2050.698
1241.305, 2049.719
1241.787, 2047.217
1242.269, 2045.889
1242.751, 2048.414
1243.233, 2051.425
1243.715, 2054.081
1244.197, 2055.822
1244.679, 2055.082
1245.162, 2052.496
1245.644, 2051.301
1246.126, 2051.779
1246.608, 2053.457
1247.090, 2057.708
1247.572, 2060.978
1248.054, 2061.726
1248.536, 2061.566
1249.019, 2063.089
1249.501, 2065.676
1249.983, 2067.245
1250.465, 2067.695
1250.947, 2068.470
1251.429, 2071.180
1251.911, 2072.714
1252.393, 2072.051
1252.875, 2070.661
1253.358, 2070.586
1253.840, 2071.286
1254.322, 2071.655
1254.804, 2071.605
1255.286, 2071.236
1255.768, 2070.811
1256.250, 2069.448
1256.732, 2066.415
1257.214, 2064.060
1257.697, 2066.493
1258.179, 2070.882
1258.661, 2072.606
1259.143, 2071.755
1259.625, 2070.850
1260.107, 2069.846
1260.589, 2070.027
1261.071, 2071.757
1261.554, 2073.952
1262.036, 2076.321
1262.518, 2077.852
1263.000, 2076.480
1263.482, 2073.010
1263.964, 2071.701
1264.446, 2073.256
1264.928, 2074.333
1265.411, 2074.414
1265.893, 2074.644
1266.375, 2075.816
1266.857, 2077.783
1267.339, 2081.013
1267.821, 2084.861
1268.303, 2087.555
1268.785, 2089.096
1269.267, 2089.324
1269.750, 2088.178
1270.232, 2087.014
1270.714, 2087.620
1271.196, 2087.746
1271.678, 2084.364
1272.160, 2080.384
1272.642, 2081.410
1273.124, 2086.942
1273.606, 2089.312
1274.089, 2088.086
1274.571, 2086.898
1275.053, 2088.860
1275.535, 2090.056
1276.017, 2088.410
1276.499, 2086.036
1276.981, 2086.034
1277.463, 2087.702
1277.946, 2088.043
1278.428, 2087.145
1278.910, 2087.080
1279.392, 2090.194
1279.874, 2092.097
1280.356, 2091.776
1280.838, 2090.544
1281.320, 2089.695
1281.802, 2089.044
1282.285, 2087.821
1282.767, 2086.339
1283.249, 2086.197
1283.731, 2089.162
1284.213, 2090.660
1284.695, 2090.025
1285.177, 2089.165
1285.659, 2090.328
1286.141, 2091.931
1286.624, 2091.417
1287.106, 2089.729
1287.588, 2089.806
1288.070, 2092.446
1288.552, 2094.124
1289.034, 2094.582
1289.516, 2095.093
1289.998, 2096.992
1290.481, 2098.966
1290.963, 2100.390
1291.445, 2100.869
1291.927, 2099.551
1292.409, 2096.190
1292.891, 2094.920
1293.373, 2095.830
1293.855, 2098.458
1294.338, 2105.161
1294.820, 2110.324
1295.302, 2110.069
1295.784, 2108.014
1296.266, 2106.502
1296.748, 2105.794
1297.230, 2108.130
1297.712, 2113.035
1298.194, 2117.998
1298.677, 2122.799
1299.159, 2124.674
1299.641, 2121.995
1300.123, 2119.021
1300.605, 2119.003
1301.087, 2120.855
1301.569, 2122.404
1302.051, 2123.147
1302.533, 2122.163
1303.016, 2117.509
##END=



