##NAMES=Jerrygibbsite
##RRUFFID=R070726
##IDEAL CHEMISTRY=Mn^2+^_9_(SiO_4_)_4_(OH)_2_
##LOCALITY=Parker Shaft, Franklin Mine, Franklin, Franklin Mining District, Sussex County, New Jersey, USA
##OWNER=RRUFF
##SOURCE=Michael Scott
##DESCRIPTION=Pale pink interlocking anhedral grains associated with zincite, franklinite, and hodgkinsonite.
##STATUS=The identification of this mineral is not yet confirmed.
##URL=rruff.info/R070726
80.59375, 2010.505
81.07587, 1989.400
81.55798, 1985.185
82.04010, 1994.554
82.52222, 2003.234
83.00433, 2011.586
83.48645, 2015.887
83.96857, 2013.237
84.45068, 1996.951
84.93280, 1978.259
85.41492, 1958.905
85.89703, 1937.821
86.37915, 1925.871
86.86127, 1939.794
87.34338, 1966.911
87.82550, 1984.126
88.30762, 1967.348
88.78973, 1940.499
89.27185, 1928.575
89.75397, 1942.626
90.23608, 1963.245
90.71820, 1970.192
91.20031, 1964.997
91.68243, 1959.297
92.16454, 1962.401
92.64666, 1971.898
93.12878, 1981.724
93.61089, 1983.936
94.09301, 1985.502
94.57513, 2003.930
95.05724, 2041.136
95.53936, 2088.704
96.02148, 2140.651
96.50359, 2196.746
96.98571, 2249.458
97.46783, 2287.110
97.94994, 2311.433
98.43206, 2355.188
98.91418, 2426.825
99.39629, 2516.843
99.87841, 2594.019
100.3605, 2652.625
100.8426, 2712.945
101.3248, 2793.969
101.8069, 2901.756
102.2890, 3010.001
102.7711, 3111.737
103.2532, 3206.184
103.7353, 3308.849
104.2175, 3419.956
104.6996, 3540.311
105.1817, 3674.590
105.6638, 3824.981
106.1459, 3984.815
106.6280, 4149.534
107.1102, 4308.407
107.5923, 4489.287
108.0744, 4697.764
108.5565, 4932.549
109.0386, 5168.848
109.5207, 5407.338
110.0029, 5648.923
110.4850, 5893.700
110.9671, 6155.885
111.4492, 6410.309
111.9313, 6653.635
112.4134, 6887.555
112.8956, 7113.363
113.3777, 7325.559
113.8598, 7530.187
114.3419, 7738.304
114.8240, 7935.196
115.3061, 8147.798
115.7883, 8386.958
116.2704, 8668.185
116.7525, 8958.378
117.2346, 9258.274
117.7167, 9561.404
118.1988, 9845.034
118.6810, 10076.80
119.1631, 10297.42
119.6452, 10541.93
120.1273, 10853.88
120.6094, 11171.57
121.0915, 11456.97
121.5737, 11709.74
122.0558, 11949.27
122.5379, 12206.94
123.0200, 12460.04
123.5021, 12667.60
123.9842, 12769.28
124.4664, 12830.61
124.9485, 12935.36
125.4306, 13105.02
125.9127, 13281.75
126.3948, 13390.48
126.8769, 13445.84
127.3591, 13518.53
127.8412, 13671.13
128.3233, 13876.61
128.8054, 14066.44
129.2875, 14209.68
129.7696, 14324.78
130.2518, 14460.49
130.7339, 14634.52
131.2160, 14809.67
131.6981, 14900.14
132.1802, 14915.65
132.6623, 14939.37
133.1445, 15001.36
133.6266, 15096.76
134.1087, 15198.64
134.5908, 15311.73
135.0729, 15420.21
135.5550, 15489.66
136.0372, 15513.32
136.5193, 15544.09
137.0014, 15614.74
137.4835, 15727.97
137.9656, 15835.09
138.4477, 15937.74
138.9299, 16029.55
139.4120, 16080.24
139.8941, 16067.59
140.3762, 16062.94
140.8583, 16134.33
141.3404, 16315.53
141.8226, 16468.30
142.3047, 16586.31
142.7868, 16672.40
143.2689, 16628.13
143.7510, 16373.93
144.2331, 16059.84
144.7152, 15883.28
145.1974, 15916.59
145.6795, 15970.77
146.1616, 15993.55
146.6437, 15974.60
147.1258, 15949.75
147.6079, 15912.14
148.0901, 15868.46
148.5722, 15838.72
149.0543, 15833.87
149.5364, 15832.36
150.0185, 15824.79
150.5006, 15801.76
150.9828, 15783.35
151.4649, 15771.15
151.9470, 15764.59
152.4291, 15758.87
152.9112, 15750.67
153.3933, 15744.45
153.8755, 15743.22
154.3576, 15755.46
154.8397, 15764.22
155.3218, 15769.03
155.8039, 15771.52
156.2860, 15757.16
156.7682, 15712.12
157.2503, 15651.92
157.7324, 15595.50
158.2145, 15511.88
158.6966, 15460.78
159.1787, 15483.13
159.6609, 15638.85
160.1430, 15743.28
160.6251, 15704.10
161.1072, 15570.56
161.5893, 15454.87
162.0714, 15408.19
162.5536, 15388.95
163.0357, 15369.53
163.5178, 15343.59
163.9999, 15316.36
164.4820, 15282.81
164.9641, 15246.04
165.4463, 15227.05
165.9284, 15252.69
166.4105, 15296.01
166.8926, 15327.91
167.3747, 15324.95
167.8568, 15315.78
168.3390, 15320.34
168.8211, 15339.69
169.3032, 15360.08
169.7853, 15377.75
170.2674, 15389.80
170.7495, 15391.31
171.2317, 15367.29
171.7138, 15337.62
172.1959, 15324.14
172.6780, 15332.66
173.1601, 15346.06
173.6422, 15349.32
174.1244, 15345.43
174.6065, 15343.52
175.0886, 15354.02
175.5707, 15368.90
176.0528, 15373.98
176.5349, 15358.27
177.0171, 15343.31
177.4992, 15359.74
177.9813, 15403.98
178.4634, 15448.16
178.9455, 15479.48
179.4276, 15494.44
179.9098, 15484.32
180.3919, 15424.14
180.8740, 15348.21
181.3561, 15318.13
181.8382, 15335.71
182.3203, 15363.95
182.8025, 15361.53
183.2846, 15336.80
183.7667, 15323.17
184.2488, 15354.84
184.7309, 15409.82
185.2130, 15418.61
185.6951, 15374.23
186.1773, 15310.67
186.6594, 15260.47
187.1415, 15225.36
187.6236, 15218.18
188.1057, 15270.63
188.5878, 15364.99
189.0700, 15413.62
189.5521, 15398.23
190.0342, 15348.93
190.5163, 15317.36
190.9984, 15303.73
191.4805, 15295.05
191.9627, 15274.56
192.4448, 15244.59
192.9269, 15244.18
193.4090, 15295.35
193.8911, 15370.91
194.3732, 15378.46
194.8554, 15307.58
195.3375, 15228.94
195.8196, 15217.59
196.3017, 15275.62
196.7838, 15317.98
197.2659, 15321.12
197.7481, 15290.54
198.2302, 15254.81
198.7123, 15209.30
199.1944, 15173.25
199.6765, 15168.30
200.1586, 15195.34
200.6408, 15248.86
201.1229, 15352.31
201.6050, 15506.79
202.0871, 15567.29
202.5692, 15511.02
203.0513, 15395.38
203.5335, 15307.13
204.0156, 15244.89
204.4977, 15213.78
204.9798, 15229.69
205.4619, 15303.04
205.9440, 15340.84
206.4262, 15328.60
206.9083, 15287.08
207.3904, 15272.15
207.8725, 15293.59
208.3546, 15313.78
208.8367, 15308.07
209.3189, 15268.95
209.8010, 15234.07
210.2831, 15205.46
210.7652, 15183.42
211.2473, 15169.67
211.7294, 15165.88
212.2116, 15167.97
212.6937, 15175.78
213.1758, 15194.76
213.6579, 15203.25
214.1400, 15195.06
214.6221, 15172.13
215.1043, 15157.05
215.5864, 15149.36
216.0685, 15151.02
216.5506, 15168.31
217.0327, 15213.75
217.5148, 15242.56
217.9970, 15234.68
218.4791, 15185.55
218.9612, 15179.24
219.4433, 15237.46
219.9254, 15315.55
220.4075, 15351.37
220.8897, 15320.99
221.3718, 15295.65
221.8539, 15299.81
222.3360, 15342.06
222.8181, 15370.16
223.3002, 15380.25
223.7824, 15378.02
224.2645, 15371.06
224.7466, 15350.24
225.2287, 15340.81
225.7108, 15357.44
226.1929, 15418.63
226.6750, 15452.40
227.1572, 15440.13
227.6393, 15406.06
228.1214, 15418.57
228.6035, 15513.76
229.0856, 15601.76
229.5677, 15633.20
230.0499, 15571.73
230.5320, 15536.66
231.0141, 15540.24
231.4962, 15573.99
231.9783, 15604.87
232.4604, 15633.15
232.9426, 15657.46
233.4247, 15679.61
233.9068, 15710.23
234.3889, 15714.11
234.8710, 15673.87
235.3531, 15597.19
235.8353, 15558.74
236.3174, 15578.54
236.7995, 15614.29
237.2816, 15633.37
237.7637, 15622.72
238.2458, 15621.63
238.7280, 15640.94
239.2101, 15680.17
239.6922, 15703.05
240.1743, 15703.56
240.6564, 15693.60
241.1385, 15680.99
241.6207, 15650.51
242.1028, 15644.95
242.5849, 15682.12
243.0670, 15767.56
243.5491, 15823.80
244.0313, 15842.09
244.5134, 15838.53
244.9955, 15829.45
245.4776, 15806.65
245.9597, 15792.97
246.4418, 15797.40
246.9240, 15825.20
247.4061, 15840.15
247.8882, 15834.19
248.3703, 15821.28
248.8524, 15824.19
249.3345, 15859.63
249.8167, 15881.63
250.2988, 15869.73
250.7809, 15807.31
251.2630, 15779.46
251.7451, 15805.97
252.2272, 15855.23
252.7094, 15867.42
253.1915, 15819.01
253.6736, 15773.10
254.1557, 15754.74
254.6378, 15775.69
255.1199, 15785.54
255.6021, 15776.24
256.0842, 15759.67
256.5663, 15764.69
257.0484, 15806.18
257.5305, 15843.67
258.0126, 15858.54
258.4948, 15842.93
258.9769, 15828.31
259.4590, 15817.53
259.9411, 15807.44
260.4232, 15787.29
260.9053, 15751.19
261.3875, 15716.22
261.8696, 15687.80
262.3517, 15661.51
262.8338, 15659.50
263.3159, 15691.44
263.7980, 15746.38
264.2802, 15788.18
264.7623, 15818.71
265.2444, 15832.46
265.7265, 15818.92
266.2086, 15764.58
266.6907, 15732.55
267.1729, 15731.51
267.6550, 15755.60
268.1371, 15785.10
268.6192, 15820.81
269.1013, 15858.73
269.5834, 15903.85
270.0656, 15965.51
270.5477, 15984.75
271.0298, 15938.21
271.5119, 15846.34
271.9940, 15796.79
272.4761, 15798.01
272.9583, 15821.69
273.4404, 15858.38
273.9225, 15917.06
274.4046, 15934.86
274.8867, 15887.49
275.3688, 15794.66
275.8510, 15748.88
276.3331, 15761.59
276.8152, 15788.35
277.2973, 15791.73
277.7794, 15769.20
278.2615, 15747.25
278.7437, 15729.53
279.2258, 15716.40
279.7079, 15708.54
280.1900, 15705.16
280.6721, 15710.28
281.1542, 15735.67
281.6364, 15783.13
282.1185, 15811.12
282.6006, 15806.17
283.0827, 15776.23
283.5648, 15748.76
284.0469, 15722.18
284.5291, 15706.72
285.0112, 15719.49
285.4933, 15759.34
285.9754, 15790.75
286.4575, 15804.48
286.9396, 15802.71
287.4217, 15787.53
287.9038, 15756.36
288.3860, 15727.86
288.8681, 15725.27
289.3502, 15745.19
289.8323, 15758.75
290.3144, 15755.82
290.7965, 15740.94
291.2787, 15724.79
291.7608, 15706.92
292.2429, 15691.77
292.7250, 15691.76
293.2071, 15701.66
293.6892, 15692.33
294.1714, 15632.37
294.6535, 15557.40
295.1356, 15558.07
295.6177, 15637.90
296.0998, 15726.40
296.5819, 15759.98
297.0641, 15749.02
297.5462, 15726.33
298.0283, 15696.10
298.5104, 15664.68
298.9925, 15643.10
299.4746, 15631.32
299.9568, 15622.87
300.4389, 15604.20
300.9210, 15583.79
301.4031, 15581.43
301.8852, 15612.30
302.3673, 15659.62
302.8495, 15714.29
303.3316, 15774.87
303.8137, 15810.19
304.2958, 15764.73
304.7779, 15678.13
305.2600, 15622.31
305.7422, 15652.55
306.2243, 15707.09
306.7064, 15720.24
307.1885, 15694.27
307.6706, 15671.70
308.1527, 15697.65
308.6349, 15742.61
309.1170, 15765.20
309.5991, 15724.29
310.0812, 15675.05
310.5633, 15659.73
311.0454, 15676.83
311.5276, 15699.70
312.0097, 15723.14
312.4918, 15740.15
312.9739, 15743.02
313.4560, 15709.24
313.9381, 15676.90
314.4203, 15668.21
314.9024, 15681.79
315.3845, 15701.63
315.8666, 15734.11
316.3487, 15763.21
316.8308, 15773.75
317.3130, 15743.87
317.7951, 15710.33
318.2772, 15683.30
318.7593, 15663.20
319.2414, 15654.91
319.7235, 15678.34
320.2057, 15704.95
320.6878, 15712.20
321.1699, 15670.47
321.6520, 15633.99
322.1341, 15620.97
322.6162, 15629.04
323.0984, 15632.57
323.5805, 15626.55
324.0626, 15614.92
324.5447, 15600.34
325.0268, 15552.93
325.5089, 15535.96
325.9911, 15577.18
326.4732, 15669.00
326.9553, 15734.52
327.4374, 15768.68
327.9195, 15774.99
328.4016, 15755.34
328.8838, 15664.69
329.3659, 15603.62
329.8480, 15589.33
330.3301, 15613.81
330.8122, 15627.39
331.2943, 15621.05
331.7765, 15612.43
332.2586, 15611.25
332.7407, 15620.14
333.2228, 15633.24
333.7049, 15659.42
334.1870, 15690.48
334.6692, 15688.57
335.1513, 15633.89
335.6334, 15578.88
336.1155, 15558.04
336.5976, 15590.00
337.0797, 15595.53
337.5619, 15562.65
338.0440, 15503.85
338.5261, 15452.92
339.0082, 15407.53
339.4903, 15376.33
339.9724, 15369.15
340.4546, 15389.26
340.9367, 15403.35
341.4188, 15410.33
341.9009, 15409.87
342.3830, 15396.95
342.8651, 15369.85
343.3473, 15349.26
343.8294, 15353.31
344.3115, 15379.55
344.7936, 15390.45
345.2757, 15382.50
345.7578, 15364.41
346.2400, 15339.41
346.7221, 15309.62
347.2042, 15302.29
347.6863, 15355.44
348.1684, 15443.96
348.6505, 15474.86
349.1327, 15433.29
349.6148, 15383.51
350.0969, 15424.53
350.5790, 15530.64
351.0611, 15603.63
351.5432, 15553.54
352.0254, 15454.45
352.5075, 15434.15
352.9896, 15503.86
353.4717, 15582.92
353.9538, 15603.64
354.4359, 15580.03
354.9181, 15538.46
355.4002, 15454.84
355.8823, 15380.69
356.3644, 15382.55
356.8465, 15462.18
357.3286, 15528.72
357.8108, 15504.22
358.2929, 15437.39
358.7750, 15391.49
359.2571, 15406.03
359.7392, 15434.18
360.2213, 15455.25
360.7035, 15468.71
361.1856, 15472.91
361.6677, 15459.21
362.1498, 15439.39
362.6319, 15423.49
363.1140, 15400.43
363.5962, 15395.01
364.0783, 15429.25
364.5604, 15495.39
365.0425, 15539.49
365.5246, 15539.04
366.0067, 15519.06
366.4889, 15495.15
366.9710, 15452.87
367.4531, 15425.81
367.9352, 15416.35
368.4173, 15424.34
368.8994, 15449.65
369.3815, 15517.22
369.8636, 15580.22
370.3458, 15617.80
370.8279, 15619.27
371.3100, 15612.59
371.7921, 15583.16
372.2742, 15548.55
372.7563, 15557.36
373.2385, 15640.17
373.7206, 15715.40
374.2027, 15742.23
374.6848, 15699.85
375.1669, 15698.17
375.6490, 15753.64
376.1312, 15832.59
376.6133, 15878.69
377.0954, 15885.01
377.5775, 15886.48
378.0596, 15892.24
378.5417, 15902.58
379.0239, 15933.19
379.5060, 15989.98
379.9881, 16048.96
380.4702, 16073.99
380.9523, 16066.64
381.4344, 16064.83
381.9166, 16079.86
382.3987, 16109.74
382.8808, 16156.41
383.3629, 16220.68
383.8450, 16279.60
384.3271, 16306.98
384.8093, 16309.95
385.2914, 16308.95
385.7735, 16303.80
386.2556, 16303.17
386.7377, 16329.15
387.2198, 16377.11
387.7020, 16412.78
388.1841, 16396.97
388.6662, 16358.61
389.1483, 16337.41
389.6304, 16351.75
390.1125, 16372.67
390.5947, 16383.66
391.0768, 16385.07
391.5589, 16376.81
392.0410, 16339.99
392.5231, 16305.76
393.0052, 16302.02
393.4874, 16351.07
393.9695, 16387.10
394.4516, 16378.74
394.9337, 16340.54
395.4158, 16299.28
395.8979, 16254.72
396.3801, 16214.20
396.8622, 16181.28
397.3443, 16157.29
397.8264, 16135.39
398.3085, 16111.78
398.7906, 16090.54
399.2728, 16077.19
399.7549, 16095.80
400.2370, 16094.99
400.7191, 16052.55
401.2012, 15963.20
401.6833, 15916.48
402.1655, 15934.42
402.6476, 15974.29
403.1297, 16003.14
403.6118, 16026.11
404.0939, 16024.12
404.5760, 15983.55
405.0582, 15914.98
405.5403, 15881.51
406.0224, 15895.21
406.5045, 15909.58
406.9866, 15883.70
407.4688, 15813.62
407.9509, 15772.71
408.4330, 15776.61
408.9151, 15801.36
409.3972, 15789.26
409.8793, 15740.25
410.3615, 15704.35
410.8436, 15726.33
411.3257, 15786.06
411.8078, 15812.99
412.2899, 15799.77
412.7720, 15767.84
413.2542, 15729.59
413.7363, 15691.57
414.2184, 15672.44
414.7005, 15702.46
415.1826, 15745.49
415.6647, 15759.08
416.1469, 15741.64
416.6290, 15710.47
417.1111, 15661.80
417.5932, 15610.74
418.0753, 15578.53
418.5574, 15576.05
419.0396, 15589.40
419.5217, 15625.68
420.0038, 15678.41
420.4859, 15707.61
420.9680, 15685.88
421.4501, 15642.13
421.9323, 15595.48
422.4144, 15527.85
422.8965, 15486.78
423.3786, 15503.80
423.8607, 15556.39
424.3428, 15579.16
424.8250, 15536.41
425.3071, 15491.35
425.7892, 15467.37
426.2713, 15475.09
426.7534, 15474.65
427.2355, 15459.22
427.7177, 15439.61
428.1998, 15432.44
428.6819, 15442.04
429.1640, 15452.57
429.6461, 15457.71
430.1282, 15457.23
430.6104, 15469.82
431.0925, 15502.05
431.5746, 15528.62
432.0567, 15513.20
432.5388, 15453.76
433.0209, 15419.99
433.5031, 15435.36
433.9852, 15478.28
434.4673, 15498.13
434.9494, 15495.42
435.4315, 15480.57
435.9136, 15454.22
436.3958, 15422.07
436.8779, 15398.35
437.3600, 15386.51
437.8421, 15381.52
438.3242, 15376.00
438.8063, 15372.71
439.2885, 15379.05
439.7706, 15419.31
440.2527, 15458.73
440.7348, 15458.62
441.2169, 15412.01
441.6990, 15367.11
442.1812, 15358.10
442.6633, 15363.05
443.1454, 15355.73
443.6275, 15295.12
444.1096, 15252.14
444.5917, 15269.22
445.0739, 15340.54
445.5560, 15380.75
446.0381, 15334.23
446.5202, 15277.64
447.0023, 15256.23
447.4844, 15322.53
447.9666, 15360.32
448.4487, 15358.10
448.9308, 15328.00
449.4129, 15300.40
449.8950, 15270.53
450.3771, 15252.53
450.8593, 15256.86
451.3413, 15290.31
451.8235, 15305.50
452.3056, 15297.22
452.7877, 15279.11
453.2698, 15267.83
453.7519, 15263.59
454.2340, 15264.90
454.7162, 15274.42
455.1983, 15288.36
455.6804, 15290.43
456.1625, 15279.72
456.6446, 15271.67
457.1267, 15291.36
457.6089, 15324.50
458.0910, 15327.98
458.5731, 15279.67
459.0552, 15222.63
459.5373, 15211.57
460.0194, 15236.15
460.5016, 15261.89
460.9837, 15229.36
461.4658, 15285.83
461.9479, 15315.71
462.4300, 15320.45
462.9121, 15224.72
463.3943, 15258.72
463.8764, 15240.73
464.3585, 15220.61
464.8406, 15272.88
465.3227, 15191.76
465.8048, 15242.88
466.2870, 15241.21
466.7691, 15263.70
467.2512, 15233.87
467.7333, 15220.21
468.2154, 15258.87
468.6975, 15268.56
469.1797, 15232.71
469.6618, 15256.74
470.1439, 15173.79
470.6260, 15184.71
471.1081, 15236.14
471.5902, 15202.92
472.0724, 15227.90
472.5545, 15230.72
473.0366, 15132.81
473.5187, 15210.07
474.0008, 15211.58
474.4829, 15135.30
474.9651, 15147.22
475.4472, 15137.63
475.9293, 15130.48
476.4114, 15126.51
476.8935, 15129.86
477.3756, 15140.01
477.8578, 15147.77
478.3399, 15142.01
478.8220, 15131.23
479.3041, 15129.38
479.7862, 15143.09
480.2683, 15156.58
480.7505, 15108.29
481.2326, 15168.63
481.7147, 15202.39
482.1968, 15211.00
482.6789, 15119.14
483.1610, 15157.02
483.6432, 15142.90
484.1253, 15126.65
484.6074, 15182.79
485.0895, 15105.54
485.5716, 15160.53
486.0537, 15162.74
486.5359, 15189.10
487.0180, 15163.15
487.5001, 15153.35
487.9822, 15195.89
488.4643, 15209.45
488.9464, 15177.48
489.4286, 15205.37
489.9107, 15126.30
490.3928, 15141.09
490.8749, 15196.39
491.3570, 15167.05
491.8391, 15195.90
492.3213, 15202.59
492.8034, 15108.55
493.2855, 15189.69
493.7676, 15195.07
494.2497, 15122.66
494.7318, 15197.80
495.2140, 15136.11
495.6961, 15123.26
496.1782, 15147.17
496.6603, 15132.76
497.1424, 15178.76
497.6245, 15166.56
498.1067, 15149.16
498.5888, 15154.46
499.0709, 15138.82
499.5530, 15155.74
500.0351, 15134.54
500.5172, 15153.84
500.9994, 15182.33
501.4815, 15154.33
501.9636, 15134.03
502.4457, 15103.17
502.9278, 15086.70
503.4099, 15102.11
503.8921, 15112.33
504.3742, 15116.41
504.8563, 15113.86
505.3384, 15099.05
505.8205, 15062.84
506.3026, 15033.66
506.7848, 15026.82
507.2669, 15045.40
507.7490, 15070.76
508.2311, 15108.24
508.7132, 15141.38
509.1953, 15144.00
509.6775, 15118.59
510.1596, 15093.20
510.6417, 15075.43
511.1238, 15063.81
511.6059, 15051.85
512.0880, 15040.31
512.5701, 15042.30
513.0522, 15082.29
513.5344, 15134.52
514.0165, 15165.38
514.4986, 15164.44
514.9807, 15154.20
515.4628, 15143.22
515.9449, 15133.30
516.4271, 15127.61
516.9092, 15138.96
517.3913, 15144.31
517.8734, 15127.40
518.3555, 15086.61
518.8376, 15067.41
519.3198, 15119.70
519.8019, 15163.58
520.2840, 15144.64
520.7661, 15001.57
521.2482, 14919.86
521.7303, 14928.91
522.2125, 14991.40
522.6946, 15024.71
523.1767, 15024.28
523.6588, 15014.01
524.1409, 14997.80
524.6230, 14978.09
525.1052, 14976.05
525.5873, 14993.96
526.0694, 15011.55
526.5515, 14996.02
527.0336, 14963.24
527.5157, 14965.27
527.9979, 15034.90
528.4800, 15107.56
528.9621, 15102.77
529.4442, 15042.05
529.9263, 14988.80
530.4084, 14982.69
530.8906, 14991.10
531.3727, 14989.19
531.8548, 14971.97
532.3369, 14967.13
532.8190, 15005.15
533.3011, 15048.85
533.7833, 15063.86
534.2654, 14997.40
534.7475, 14960.60
535.2296, 14978.44
535.7117, 15033.92
536.1938, 15068.80
536.6760, 15083.10
537.1581, 15077.76
537.6402, 15042.96
538.1223, 14973.91
538.6044, 14946.93
539.0865, 14970.98
539.5687, 15010.91
540.0508, 15023.75
540.5329, 15013.98
541.0150, 15013.67
541.4971, 15038.20
541.9792, 15067.34
542.4614, 15063.13
542.9435, 15032.28
543.4256, 15005.84
543.9077, 15009.45
544.3898, 15022.35
544.8719, 15023.51
545.3541, 15009.21
545.8362, 14994.60
546.3183, 14980.57
546.8004, 14972.34
547.2825, 14975.46
547.7646, 15010.53
548.2468, 15035.16
548.7289, 15035.59
549.2110, 15017.42
549.6931, 15004.57
550.1752, 14994.62
550.6573, 14993.16
551.1395, 15003.63
551.6216, 15027.85
552.1037, 15056.58
552.5858, 15094.94
553.0679, 15127.48
553.5500, 15130.83
554.0322, 15106.44
554.5143, 15088.19
554.9964, 15086.11
555.4785, 15092.11
555.9606, 15092.80
556.4427, 15088.74
556.9249, 15082.51
557.4070, 15071.32
557.8891, 15060.94
558.3712, 15054.66
558.8533, 15051.64
559.3354, 15064.07
559.8176, 15116.18
560.2997, 15179.20
560.7818, 15223.73
561.2639, 15215.07
561.7460, 15216.67
562.2281, 15252.51
562.7103, 15310.56
563.1924, 15344.05
563.6745, 15328.57
564.1566, 15320.54
564.6387, 15343.43
565.1208, 15401.92
565.6030, 15447.06
566.0851, 15476.14
566.5672, 15498.15
567.0493, 15524.05
567.5314, 15553.05
568.0135, 15569.27
568.4957, 15562.99
568.9778, 15554.81
569.4599, 15587.86
569.9420, 15652.37
570.4241, 15705.18
570.9063, 15713.12
571.3884, 15704.60
571.8705, 15706.74
572.3526, 15720.73
572.8347, 15740.51
573.3168, 15775.96
573.7990, 15808.44
574.2811, 15821.86
574.7632, 15810.08
575.2453, 15783.33
575.7274, 15727.52
576.2095, 15659.81
576.6917, 15617.36
577.1738, 15624.11
577.6559, 15615.81
578.1380, 15566.61
578.6201, 15480.60
579.1022, 15429.56
579.5844, 15420.10
580.0665, 15420.63
580.5486, 15409.93
581.0307, 15388.50
581.5128, 15358.44
581.9949, 15317.34
582.4771, 15277.12
582.9592, 15262.43
583.4413, 15260.71
583.9234, 15240.96
584.4055, 15165.11
584.8876, 15086.29
585.3698, 15046.11
585.8519, 15039.80
586.3340, 15039.27
586.8161, 15050.10
587.2982, 15051.01
587.7803, 15023.30
588.2625, 14938.95
588.7446, 14896.67
589.2267, 14936.66
589.7088, 14995.83
590.1909, 15000.84
590.6730, 14922.37
591.1552, 14870.46
591.6373, 14867.60
592.1194, 14900.04
592.6015, 14935.86
593.0836, 14976.38
593.5657, 14997.52
594.0479, 14975.88
594.5300, 14925.75
595.0121, 14880.57
595.4942, 14840.40
595.9763, 14817.54
596.4584, 14845.41
596.9406, 14888.50
597.4227, 14897.83
597.9048, 14840.00
598.3869, 14783.19
598.8690, 14758.58
599.3511, 14756.96
599.8333, 14759.84
600.3154, 14775.80
600.7975, 14782.91
601.2796, 14770.67
601.7617, 14740.05
602.2438, 14726.52
602.7260, 14745.70
603.2081, 14756.13
603.6902, 14721.12
604.1723, 14634.42
604.6544, 14590.52
605.1365, 14602.99
605.6187, 14632.28
606.1008, 14617.31
606.5829, 14570.99
607.0650, 14549.34
607.5471, 14588.42
608.0292, 14639.83
608.5114, 14641.25
608.9935, 14604.81
609.4756, 14573.74
609.9577, 14574.08
610.4398, 14584.31
610.9219, 14590.58
611.4041, 14590.02
611.8862, 14596.60
612.3683, 14616.16
612.8504, 14641.89
613.3325, 14670.33
613.8146, 14716.90
614.2968, 14733.12
614.7789, 14703.53
615.2610, 14653.81
615.7431, 14636.63
616.2252, 14655.04
616.7073, 14676.03
617.1895, 14692.71
617.6716, 14701.49
618.1537, 14687.06
618.6358, 14651.07
619.1179, 14615.40
619.6000, 14599.14
620.0822, 14590.59
620.5643, 14572.69
621.0464, 14540.31
621.5285, 14516.27
622.0106, 14514.58
622.4927, 14527.32
622.9749, 14546.13
623.4570, 14588.44
623.9391, 14613.62
624.4212, 14606.29
624.9033, 14579.12
625.3854, 14500.64
625.8676, 14576.52
626.3497, 14619.18
626.8318, 14630.40
627.3139, 14516.03
627.7960, 14563.84
628.2781, 14546.65
628.7603, 14526.80
629.2424, 14597.44
629.7245, 14501.33
630.2066, 14570.53
630.6887, 14573.75
631.1708, 14607.16
631.6530, 14575.18
632.1351, 14563.39
632.6172, 14617.02
633.0993, 14634.44
633.5814, 14594.93
634.0635, 14630.26
634.5457, 14531.87
635.0278, 14550.83
635.5099, 14620.41
635.9920, 14584.19
636.4741, 14620.71
636.9562, 14629.53
637.4384, 14512.44
637.9205, 14614.33
638.4026, 14621.51
638.8847, 14531.46
639.3668, 14625.84
639.8489, 14549.19
640.3311, 14533.59
640.8132, 14563.93
641.2953, 14546.38
641.7774, 14604.33
642.2595, 14589.55
642.7416, 14568.26
643.2238, 14575.34
643.7059, 14556.25
644.1880, 14577.85
644.6701, 14551.81
645.1522, 14576.40
645.6343, 14612.47
646.1165, 14560.66
646.5986, 14601.88
647.0807, 14498.84
647.5628, 14516.51
648.0449, 14521.18
648.5270, 14603.00
649.0092, 14500.66
649.4913, 14514.98
649.9734, 14578.96
650.4555, 14593.12
650.9376, 14584.14
651.4197, 14549.52
651.9019, 14544.09
652.3840, 14611.41
652.8661, 14684.95
653.3482, 14697.91
653.8303, 14663.78
654.3124, 14624.28
654.7946, 14588.25
655.2767, 14557.81
655.7588, 14532.64
656.2409, 14512.17
656.7230, 14502.54
657.2051, 14507.74
657.6872, 14518.92
658.1693, 14531.21
658.6514, 14544.53
659.1335, 14564.28
659.6157, 14597.96
660.0978, 14622.64
660.5799, 14595.39
661.0620, 14527.11
661.5441, 14478.33
662.0262, 14467.20
662.5084, 14479.64
662.9905, 14510.90
663.4726, 14553.08
663.9547, 14584.60
664.4368, 14593.51
664.9189, 14589.69
665.4011, 14568.88
665.8832, 14532.25
666.3653, 14514.30
666.8474, 14535.89
667.3295, 14563.00
667.8116, 14582.65
668.2938, 14595.58
668.7759, 14592.90
669.2580, 14568.62
669.7401, 14542.04
670.2222, 14538.91
670.7043, 14556.35
671.1865, 14562.15
671.6686, 14549.47
672.1507, 14527.20
672.6328, 14495.12
673.1149, 14462.18
673.5970, 14449.48
674.0792, 14487.27
674.5613, 14528.73
675.0434, 14549.33
675.5255, 14550.75
676.0076, 14544.74
676.4897, 14523.88
676.9719, 14504.94
677.4540, 14493.09
677.9361, 14488.12
678.4182, 14488.14
678.9003, 14493.70
679.3824, 14501.63
679.8646, 14511.01
680.3467, 14521.10
680.8288, 14523.96
681.3109, 14516.83
681.7930, 14510.69
682.2751, 14523.35
682.7573, 14545.88
683.2394, 14560.07
683.7215, 14553.06
684.2036, 14545.55
684.6857, 14556.79
685.1678, 14576.46
685.6500, 14580.65
686.1321, 14542.62
686.6142, 14511.56
687.0963, 14504.89
687.5784, 14519.37
688.0605, 14521.46
688.5427, 14506.98
689.0248, 14490.78
689.5069, 14481.73
689.9890, 14478.87
690.4711, 14468.13
690.9532, 14447.89
691.4354, 14435.61
691.9175, 14456.64
692.3996, 14493.55
692.8817, 14519.38
693.3638, 14529.45
693.8459, 14526.51
694.3281, 14502.14
694.8102, 14469.11
695.2923, 14444.70
695.7744, 14444.41
696.2565, 14437.86
696.7386, 14414.93
697.2208, 14385.04
697.7029, 14372.52
698.1850, 14379.26
698.6671, 14397.70
699.1492, 14431.07
699.6313, 14472.24
700.1135, 14493.88
700.5956, 14496.72
701.0777, 14495.11
701.5598, 14502.51
702.0419, 14508.78
702.5240, 14496.94
703.0062, 14464.67
703.4883, 14438.34
703.9704, 14429.22
704.4525, 14432.09
704.9346, 14444.03
705.4167, 14476.15
705.8989, 14496.68
706.3810, 14498.34
706.8631, 14494.87
707.3452, 14503.93
707.8273, 14527.70
708.3094, 14553.73
708.7916, 14586.69
709.2737, 14609.92
709.7558, 14574.68
710.2379, 14498.00
710.7200, 14445.95
711.2021, 14471.41
711.6843, 14517.24
712.1664, 14535.41
712.6485, 14530.76
713.1306, 14524.31
713.6127, 14526.51
714.0948, 14525.73
714.5770, 14507.83
715.0591, 14469.23
715.5412, 14472.34
716.0233, 14542.06
716.5054, 14608.84
716.9875, 14620.64
717.4697, 14577.83
717.9518, 14543.57
718.4339, 14520.71
718.9160, 14507.92
719.3981, 14507.35
719.8802, 14515.96
720.3624, 14530.73
720.8445, 14559.51
721.3266, 14574.77
721.8087, 14544.47
722.2908, 14494.51
722.7729, 14462.90
723.2551, 14470.55
723.7372, 14481.44
724.2193, 14493.16
724.7014, 14503.42
725.1835, 14502.23
725.6656, 14483.48
726.1478, 14478.10
726.6299, 14505.85
727.1120, 14550.58
727.5941, 14561.04
728.0762, 14539.88
728.5583, 14513.64
729.0405, 14497.53
729.5226, 14486.36
730.0047, 14471.16
730.4868, 14451.75
730.9689, 14446.82
731.4510, 14491.35
731.9332, 14533.13
732.4153, 14534.98
732.8974, 14480.36
733.3795, 14434.96
733.8616, 14397.17
734.3438, 14372.34
734.8259, 14370.21
735.3080, 14390.31
735.7901, 14408.53
736.2722, 14421.21
736.7543, 14432.03
737.2365, 14447.39
737.7186, 14463.74
738.2007, 14473.54
738.6828, 14467.56
739.1649, 14462.31
739.6470, 14471.14
740.1292, 14486.46
740.6113, 14490.89
741.0934, 14448.56
741.5755, 14438.38
742.0576, 14496.79
742.5397, 14598.64
743.0219, 14621.54
743.5040, 14552.53
743.9861, 14484.47
744.4682, 14464.22
744.9503, 14479.49
745.4324, 14502.39
745.9146, 14531.81
746.3967, 14555.49
746.8788, 14566.57
747.3609, 14567.00
747.8430, 14552.71
748.3251, 14519.72
748.8073, 14501.23
749.2894, 14520.86
749.7715, 14544.95
750.2536, 14551.25
750.7357, 14530.53
751.2178, 14521.12
751.7000, 14524.05
752.1821, 14535.91
752.6642, 14557.60
753.1463, 14586.20
753.6284, 14607.44
754.1105, 14619.76
754.5927, 14621.24
755.0748, 14606.58
755.5569, 14580.81
756.0390, 14551.47
756.5211, 14492.18
757.0032, 14463.39
757.4854, 14521.27
757.9675, 14616.68
758.4496, 14631.39
758.9317, 14512.67
759.4138, 14431.20
759.8959, 14437.94
760.3781, 14502.76
760.8602, 14535.33
761.3423, 14537.10
761.8244, 14529.54
762.3065, 14505.07
762.7886, 14488.74
763.2708, 14527.84
763.7529, 14612.37
764.2350, 14676.67
764.7171, 14679.91
765.1992, 14663.49
765.6813, 14640.88
766.1635, 14610.04
766.6456, 14606.71
767.1277, 14646.08
767.6098, 14687.73
768.0919, 14704.13
768.5740, 14695.67
769.0562, 14692.46
769.5383, 14695.00
770.0204, 14702.25
770.5025, 14714.68
770.9846, 14730.83
771.4667, 14751.00
771.9489, 14778.94
772.4310, 14795.10
772.9131, 14778.28
773.3952, 14750.53
773.8773, 14734.27
774.3594, 14740.88
774.8416, 14744.29
775.3237, 14738.38
775.8058, 14735.47
776.2879, 14758.65
776.7700, 14808.33
777.2521, 14843.92
777.7343, 14854.75
778.2164, 14853.72
778.6985, 14856.31
779.1806, 14861.20
779.6627, 14865.16
780.1448, 14851.13
780.6270, 14852.18
781.1091, 14907.03
781.5912, 14989.84
782.0733, 15019.21
782.5554, 14941.14
783.0375, 14890.01
783.5197, 14901.03
784.0018, 14959.35
784.4839, 15015.44
784.9660, 15069.33
785.4481, 15118.67
785.9302, 15159.54
786.4124, 15197.20
786.8945, 15237.47
787.3766, 15281.17
787.8587, 15330.87
788.3408, 15405.20
788.8229, 15471.25
789.3051, 15488.86
789.7872, 15450.10
790.2693, 15501.25
790.7514, 15693.00
791.2335, 15896.59
791.7156, 16040.32
792.1978, 16126.76
792.6799, 16221.72
793.1620, 16323.52
793.6441, 16451.11
794.1262, 16628.52
794.6083, 16836.96
795.0905, 17042.42
795.5726, 17239.33
796.0547, 17467.98
796.5368, 17753.33
797.0189, 18075.18
797.5010, 18417.92
797.9832, 18788.31
798.4653, 19153.50
798.9474, 19498.35
799.4295, 19859.74
799.9116, 20285.76
800.3937, 20771.44
800.8759, 21268.97
801.3580, 21773.85
801.8401, 22283.87
802.3222, 22805.67
802.8043, 23328.84
803.2864, 23842.11
803.7686, 24370.23
804.2507, 24835.98
804.7328, 25194.54
805.2149, 25486.09
805.6970, 25782.68
806.1791, 26126.42
806.6613, 26355.04
807.1434, 26421.77
807.6255, 26406.24
808.1076, 26456.28
808.5897, 26554.90
809.0718, 26603.54
809.5540, 26566.84
810.0361, 26473.58
810.5182, 26347.47
811.0003, 26185.35
811.4824, 25981.33
811.9645, 25686.26
812.4467, 25404.58
812.9288, 25174.53
813.4109, 24972.82
813.8930, 24747.87
814.3751, 24497.74
814.8572, 24226.19
815.3394, 23927.01
815.8215, 23612.47
816.3036, 23299.41
816.7857, 22990.11
817.2678, 22709.68
817.7499, 22469.91
818.2321, 22256.59
818.7142, 22066.65
819.1963, 21895.61
819.6784, 21729.50
820.1605, 21525.43
820.6426, 21373.14
821.1248, 21328.44
821.6068, 21360.08
822.0889, 21264.41
822.5710, 21029.51
823.0532, 20813.50
823.5353, 20707.75
824.0174, 20674.95
824.4995, 20655.50
824.9816, 20648.27
825.4637, 20644.71
825.9459, 20624.60
826.4280, 20621.03
826.9101, 20669.16
827.3922, 20772.17
827.8743, 20820.31
828.3564, 20779.71
828.8386, 20744.84
829.3207, 20761.41
829.8028, 20823.38
830.2849, 20886.43
830.7670, 20950.17
831.2491, 21023.44
831.7313, 21103.12
832.2134, 21200.73
832.6955, 21333.26
833.1776, 21501.40
833.6597, 21678.91
834.1418, 21919.77
834.6240, 22110.68
835.1061, 22185.26
835.5882, 22130.07
836.0703, 22103.23
836.5524, 22110.54
837.0345, 22126.30
837.5167, 22137.00
837.9988, 22141.28
838.4809, 22143.18
838.9630, 22142.49
839.4451, 22106.71
839.9272, 22001.18
840.4094, 21859.59
840.8915, 21705.29
841.3736, 21539.17
841.8557, 21368.49
842.3378, 21201.76
842.8199, 21020.10
843.3021, 20809.11
843.7842, 20566.85
844.2663, 20312.89
844.7484, 20044.64
845.2305, 19780.84
845.7126, 19534.38
846.1948, 19304.25
846.6769, 19091.32
847.1590, 18896.21
847.6411, 18708.40
848.1232, 18539.12
848.6053, 18362.14
849.0875, 18151.85
849.5696, 17886.96
850.0517, 17680.11
850.5338, 17543.96
851.0159, 17431.49
851.4980, 17299.81
851.9802, 17158.42
852.4623, 17041.73
852.9444, 16954.86
853.4265, 16863.72
853.9086, 16730.18
854.3907, 16588.87
854.8729, 16470.35
855.3550, 16383.82
855.8371, 16310.17
856.3192, 16251.71
856.8013, 16198.61
857.2834, 16146.43
857.7656, 16095.05
858.2477, 16029.00
858.7298, 15945.10
859.2119, 15870.00
859.6940, 15841.90
860.1761, 15832.57
860.6583, 15798.27
861.1404, 15724.96
861.6225, 15670.70
862.1046, 15689.73
862.5867, 15712.22
863.0688, 15684.21
863.5510, 15586.79
864.0331, 15509.84
864.5152, 15455.25
864.9973, 15412.08
865.4794, 15370.92
865.9615, 15332.29
866.4437, 15297.88
866.9258, 15267.96
867.4079, 15240.07
867.8900, 15215.05
868.3721, 15189.55
868.8542, 15161.29
869.3364, 15130.58
869.8185, 15093.10
870.3006, 15042.65
870.7827, 14997.16
871.2648, 14977.77
871.7469, 14981.14
872.2291, 14961.09
872.7112, 14913.54
873.1933, 14875.55
873.6754, 14892.20
874.1575, 14927.85
874.6396, 14945.96
875.1218, 14939.51
875.6039, 14924.23
876.0860, 14891.45
876.5681, 14861.32
877.0502, 14845.52
877.5323, 14845.32
878.0145, 14846.25
878.4966, 14848.21
878.9787, 14850.31
879.4608, 14844.74
879.9429, 14841.35
880.4250, 14863.68
880.9072, 14914.53
881.3893, 14953.57
881.8714, 14966.50
882.3535, 14956.19
882.8356, 14911.94
883.3177, 14824.57
883.7999, 14794.83
884.2820, 14836.57
884.7641, 14893.69
885.2462, 14934.17
885.7283, 14958.98
886.2104, 14975.60
886.6926, 14983.38
887.1747, 14968.17
887.6568, 14873.67
888.1389, 14790.27
888.6210, 14799.89
889.1031, 14919.68
889.5853, 14972.23
890.0674, 14925.70
890.5495, 14864.21
891.0316, 14825.19
891.5137, 14806.21
891.9958, 14792.38
892.4780, 14783.80
892.9601, 14781.82
893.4422, 14792.56
893.9243, 14806.17
894.4064, 14813.02
894.8885, 14813.33
895.3707, 14816.18
895.8528, 14820.57
896.3349, 14831.36
896.8170, 14856.15
897.2991, 14888.52
897.7813, 14886.22
898.2634, 14849.04
898.7455, 14818.91
899.2276, 14825.57
899.7097, 14847.69
900.1918, 14860.27
900.6740, 14865.94
901.1561, 14874.22
901.6382, 14899.95
902.1203, 14916.33
902.6024, 14915.72
903.0845, 14900.65
903.5667, 14873.54
904.0488, 14831.07
904.5309, 14809.41
905.0130, 14833.79
905.4951, 14870.43
905.9772, 14856.43
906.4594, 14810.73
906.9415, 14783.32
907.4236, 14818.79
907.9057, 14848.70
908.3878, 14835.91
908.8699, 14804.65
909.3521, 14807.47
909.8342, 14857.49
910.3163, 14887.95
910.7984, 14882.18
911.2805, 14856.69
911.7626, 14815.75
912.2448, 14778.48
912.7269, 14798.82
913.2090, 14957.15
913.6911, 15072.24
914.1732, 14999.06
914.6553, 14855.86
915.1375, 14816.78
915.6196, 14944.63
916.1017, 15011.58
916.5838, 14987.89
917.0659, 14925.90
917.5480, 14881.01
918.0302, 14854.03
918.5123, 14852.13
918.9944, 14882.19
919.4765, 14912.64
919.9586, 14918.08
920.4407, 14917.14
920.9229, 14928.60
921.4050, 14958.68
921.8871, 14991.75
922.3692, 15036.24
922.8513, 15066.04
923.3334, 15045.47
923.8156, 14989.10
924.2977, 14949.91
924.7798, 14932.10
925.2619, 14925.84
925.7440, 14923.79
926.2261, 14930.83
926.7083, 14955.08
927.1904, 15002.29
927.6725, 15032.20
928.1546, 15031.77
928.6367, 15040.40
929.1188, 15087.57
929.6010, 15164.03
930.0831, 15220.50
930.5652, 15257.68
931.0473, 15292.01
931.5294, 15332.86
932.0115, 15375.17
932.4937, 15413.96
932.9758, 15449.88
933.4579, 15488.96
933.9400, 15534.31
934.4221, 15577.30
934.9042, 15613.90
935.3864, 15647.19
935.8685, 15692.93
936.3506, 15747.44
936.8327, 15791.99
937.3148, 15808.35
937.7969, 15819.82
938.2791, 15850.05
938.7612, 15887.47
939.2433, 15904.70
939.7254, 15895.89
940.2075, 15871.27
940.6896, 15829.27
941.1718, 15775.82
941.6539, 15720.70
942.1360, 15663.63
942.6181, 15603.21
943.1002, 15541.82
943.5823, 15470.15
944.0645, 15352.72
944.5466, 15232.07
945.0287, 15161.23
945.5108, 15193.75
945.9929, 15202.09
946.4750, 15181.59
946.9572, 15144.00
947.4393, 15092.16
947.9214, 15031.54
948.4035, 14995.28
948.8856, 14987.84
949.3677, 14984.39
949.8499, 14964.21
950.3320, 14941.00
950.8141, 14927.84
951.2962, 14929.51
951.7783, 14923.77
952.2604, 14910.26
952.7426, 14889.73
953.2247, 14859.21
953.7068, 14821.92
954.1889, 14793.16
954.6710, 14772.40
955.1531, 14755.24
955.6353, 14737.11
956.1174, 14723.10
956.5995, 14716.90
957.0816, 14718.42
957.5637, 14726.06
958.0458, 14747.46
958.5280, 14755.49
959.0101, 14735.97
959.4922, 14704.94
959.9743, 14703.48
960.4564, 14725.11
960.9385, 14746.25
961.4207, 14758.05
961.9028, 14766.29
962.3849, 14781.60
962.8670, 14793.25
963.3491, 14778.77
963.8312, 14714.25
964.3134, 14689.67
964.7955, 14725.04
965.2776, 14773.96
965.7597, 14771.16
966.2418, 14733.39
966.7239, 14699.30
967.2061, 14673.32
967.6882, 14666.09
968.1703, 14708.80
968.6524, 14753.80
969.1345, 14756.05
969.6166, 14700.23
970.0988, 14689.51
970.5809, 14735.49
971.0630, 14777.05
971.5451, 14756.71
972.0272, 14704.46
972.5093, 14678.03
972.9915, 14677.37
973.4736, 14679.65
973.9557, 14662.93
974.4378, 14659.55
974.9199, 14700.87
975.4020, 14769.59
975.8842, 14773.26
976.3663, 14703.92
976.8484, 14649.79
977.3305, 14654.96
977.8126, 14680.55
978.2947, 14659.61
978.7769, 14615.65
979.2590, 14601.50
979.7411, 14681.07
980.2232, 14732.61
980.7053, 14721.98
981.1874, 14682.08
981.6696, 14650.51
982.1517, 14626.75
982.6338, 14629.56
983.1159, 14664.43
983.5980, 14708.05
984.0801, 14749.47
984.5623, 14779.51
985.0444, 14785.16
985.5265, 14757.38
986.0085, 14730.09
986.4907, 14701.56
986.9728, 14683.22
987.4549, 14684.67
987.9370, 14704.26
988.4191, 14731.03
988.9012, 14763.36
989.3834, 14775.63
989.8655, 14720.01
990.3476, 14664.69
990.8297, 14675.29
991.3118, 14738.84
991.7939, 14759.29
992.2761, 14703.86
992.7582, 14668.68
993.2403, 14687.18
993.7224, 14730.11
994.2045, 14730.78
994.6866, 14700.97
995.1688, 14678.31
995.6509, 14676.51
996.1330, 14683.67
996.6151, 14700.21
997.0972, 14719.10
997.5793, 14730.33
998.0615, 14728.74
998.5436, 14737.11
999.0257, 14757.41
999.5078, 14782.37
999.9899, 14813.70
1000.472, 14840.50
1000.954, 14836.94
1001.436, 14799.41
1001.918, 14769.67
1002.401, 14767.83
1002.883, 14774.82
1003.365, 14781.91
1003.847, 14789.66
1004.329, 14809.63
1004.811, 14842.97
1005.293, 14853.69
1005.775, 14804.13
1006.257, 14742.63
1006.740, 14727.27
1007.222, 14741.26
1007.704, 14742.34
1008.186, 14703.06
1008.668, 14672.11
1009.150, 14651.70
1009.632, 14645.73
1010.114, 14671.21
1010.596, 14719.76
1011.079, 14740.14
1011.561, 14717.06
1012.043, 14696.57
1012.525, 14724.93
1013.007, 14764.27
1013.489, 14777.22
1013.971, 14753.61
1014.453, 14744.06
1014.936, 14752.21
1015.418, 14762.56
1015.900, 14757.12
1016.382, 14749.12
1016.864, 14789.32
1017.346, 14862.89
1017.828, 14892.44
1018.310, 14782.67
1018.792, 14687.91
1019.275, 14679.14
1019.757, 14721.78
1020.239, 14733.50
1020.721, 14713.11
1021.203, 14688.59
1021.685, 14662.61
1022.167, 14646.61
1022.649, 14665.69
1023.132, 14698.18
1023.614, 14713.27
1024.096, 14695.83
1024.578, 14680.15
1025.060, 14667.35
1025.542, 14659.30
1026.024, 14653.19
1026.506, 14651.91
1026.989, 14684.48
1027.471, 14747.92
1027.953, 14795.42
1028.435, 14781.40
1028.917, 14755.49
1029.399, 14750.70
1029.881, 14762.85
1030.363, 14760.18
1030.845, 14735.52
1031.328, 14724.12
1031.810, 14740.83
1032.292, 14765.63
1032.774, 14763.53
1033.256, 14745.90
1033.738, 14735.83
1034.220, 14744.80
1034.702, 14754.12
1035.184, 14768.34
1035.667, 14773.31
1036.149, 14749.98
1036.631, 14698.10
1037.113, 14671.23
1037.595, 14671.04
1038.077, 14688.19
1038.559, 14727.80
1039.041, 14771.48
1039.524, 14800.96
1040.006, 14816.90
1040.488, 14850.73
1040.970, 14931.33
1041.452, 14958.30
1041.934, 14879.86
1042.416, 14757.38
1042.898, 14716.01
1043.380, 14731.78
1043.863, 14737.84
1044.345, 14699.65
1044.827, 14670.51
1045.309, 14674.30
1045.791, 14694.97
1046.273, 14724.37
1046.755, 14766.50
1047.237, 14769.33
1047.719, 14728.40
1048.202, 14685.21
1048.684, 14671.30
1049.166, 14674.47
1049.648, 14685.28
1050.130, 14702.64
1050.612, 14721.87
1051.094, 14740.87
1051.576, 14767.20
1052.059, 14814.83
1052.541, 14858.60
1053.023, 14824.87
1053.505, 14736.43
1053.987, 14663.18
1054.469, 14620.07
1054.951, 14612.66
1055.433, 14676.39
1055.916, 14756.01
1056.398, 14797.24
1056.880, 14794.31
1057.362, 14786.09
1057.844, 14773.01
1058.326, 14754.31
1058.808, 14713.87
1059.290, 14678.00
1059.772, 14683.81
1060.255, 14727.32
1060.737, 14757.86
1061.219, 14763.93
1061.701, 14762.68
1062.183, 14753.50
1062.665, 14744.95
1063.147, 14764.33
1063.629, 14800.51
1064.111, 14814.63
1064.594, 14785.39
1065.076, 14759.94
1065.558, 14765.48
1066.040, 14783.10
1066.522, 14796.76
1067.004, 14806.33
1067.486, 14815.43
1067.968, 14824.82
1068.450, 14826.47
1068.933, 14810.94
1069.415, 14787.83
1069.897, 14758.66
1070.379, 14729.18
1070.861, 14725.96
1071.343, 14777.93
1071.825, 14806.84
1072.307, 14791.35
1072.790, 14758.83
1073.272, 14752.65
1073.754, 14767.63
1074.236, 14792.74
1074.718, 14829.17
1075.200, 14859.58
1075.682, 14874.99
1076.164, 14881.15
1076.646, 14881.73
1077.129, 14876.46
1077.611, 14861.11
1078.093, 14835.33
1078.575, 14822.97
1079.057, 14854.13
1079.539, 14891.27
1080.021, 14902.62
1080.503, 14894.13
1080.985, 14880.22
1081.468, 14853.55
1081.950, 14847.62
1082.432, 14873.90
1082.914, 14902.57
1083.396, 14886.21
1083.878, 14848.02
1084.360, 14835.87
1084.842, 14858.05
1085.325, 14879.96
1085.807, 14901.06
1086.289, 14903.31
1086.771, 14868.65
1087.253, 14810.02
1087.735, 14798.18
1088.217, 14827.71
1088.699, 14856.03
1089.182, 14867.72
1089.664, 14867.48
1090.146, 14856.19
1090.628, 14835.48
1091.110, 14803.88
1091.592, 14748.19
1092.074, 14738.15
1092.556, 14784.06
1093.038, 14832.48
1093.521, 14827.83
1094.003, 14800.96
1094.485, 14788.11
1094.967, 14791.26
1095.449, 14804.48
1095.931, 14838.75
1096.413, 14862.43
1096.895, 14865.34
1097.377, 14856.08
1097.860, 14849.09
1098.342, 14845.43
1098.824, 14852.43
1099.306, 14880.59
1099.788, 14891.62
1100.270, 14839.53
1100.752, 14786.45
1101.234, 14780.09
1101.717, 14821.48
1102.199, 14866.14
1102.681, 14913.83
1103.163, 14927.22
1103.645, 14830.88
1104.127, 14737.49
1104.609, 14762.80
1105.091, 14861.76
1105.573, 14910.72
1106.056, 14889.17
1106.538, 14859.21
1107.020, 14823.75
1107.502, 14797.39
1107.984, 14803.02
1108.466, 14827.23
1108.948, 14851.12
1109.430, 14872.45
1109.912, 14890.88
1110.395, 14908.86
1110.877, 14918.57
1111.359, 14910.55
1111.841, 14896.30
1112.323, 14917.58
1112.805, 14964.25
1113.287, 15002.08
1113.769, 15020.90
1114.252, 15023.38
1114.734, 15000.73
1115.216, 14969.28
1115.698, 14943.30
1116.180, 14923.24
1116.662, 14907.64
1117.144, 14896.76
1117.626, 14887.20
1118.109, 14876.55
1118.591, 14866.70
1119.073, 14858.71
1119.555, 14853.21
1120.037, 14849.23
1120.519, 14842.39
1121.001, 14855.50
1121.483, 14896.58
1121.965, 14943.97
1122.448, 14973.21
1122.930, 14989.16
1123.412, 14996.77
1123.894, 14995.70
1124.376, 14994.94
1124.858, 14999.34
1125.340, 14996.60
1125.822, 14976.67
1126.304, 14949.25
1126.787, 14939.74
1127.269, 14945.97
1127.751, 14963.13
1128.233, 15007.79
1128.715, 15033.63
1129.197, 15011.96
1129.679, 14979.36
1130.161, 14963.25
1130.644, 14963.69
1131.126, 14989.21
1131.608, 15037.86
1132.090, 15070.67
1132.572, 15037.62
1133.054, 15004.30
1133.536, 15020.08
1134.018, 15065.47
1134.500, 15088.63
1134.983, 15088.90
1135.465, 15068.10
1135.947, 15021.41
1136.429, 14979.05
1136.911, 14976.98
1137.393, 14993.35
1137.875, 15008.99
1138.357, 15022.25
1138.839, 15022.80
1139.322, 15006.06
1139.804, 14993.41
1140.286, 14994.01
1140.768, 15004.34
1141.250, 15030.55
1141.732, 15059.24
1142.214, 15064.14
1142.696, 15023.25
1143.179, 14980.46
1143.661, 14928.79
1144.143, 14895.01
1144.625, 14911.32
1145.107, 14961.31
1145.589, 14986.79
1146.071, 14992.51
1146.553, 15014.01
1147.036, 15102.79
1147.518, 15164.82
1148.000, 15169.39
1148.482, 15138.33
1148.964, 15085.81
1149.446, 15023.38
1149.928, 15051.13
1150.410, 15192.44
1150.892, 15293.44
1151.375, 15210.79
1151.857, 15093.03
1152.339, 15030.89
1152.821, 15017.42
1153.303, 15012.22
1153.785, 15015.33
1154.267, 15013.63
1154.749, 14996.97
1155.231, 14987.80
1155.714, 15020.95
1156.196, 15064.34
1156.678, 15074.20
1157.160, 15037.08
1157.642, 15046.87
1158.124, 15112.52
1158.606, 15156.20
1159.088, 15097.07
1159.571, 15013.69
1160.053, 14993.62
1160.535, 15020.62
1161.017, 15057.58
1161.499, 15118.69
1161.981, 15142.20
1162.463, 15117.87
1162.945, 15075.37
1163.427, 15039.73
1163.910, 15010.81
1164.392, 14988.26
1164.874, 14972.44
1165.356, 14966.49
1165.838, 14983.99
1166.320, 14988.33
1166.802, 14964.08
1167.284, 14934.85
1167.766, 14943.57
1168.249, 14978.62
1168.731, 15015.40
1169.213, 15049.76
1169.695, 15081.32
1170.177, 15118.09
1170.659, 15141.56
1171.141, 15139.03
1171.623, 15118.73
1172.106, 15108.98
1172.588, 15107.38
1173.070, 15104.21
1173.552, 15094.66
1174.034, 15084.94
1174.516, 15081.46
1174.998, 15075.46
1175.480, 15037.27
1175.963, 14973.13
1176.445, 15076.96
1176.927, 15326.66
1177.409, 15492.64
1177.891, 15348.79
1178.373, 15177.39
1178.855, 15121.64
1179.337, 15126.75
1179.819, 15107.13
1180.302, 15061.84
1180.784, 15049.82
1181.266, 15077.79
1181.748, 15124.00
1182.230, 15205.00
1182.712, 15268.39
1183.194, 15252.02
1183.676, 15182.51
1184.158, 15117.10
1184.641, 15194.98
1185.123, 15239.63
1185.605, 15252.85
1186.087, 15140.48
1186.569, 15190.29
1187.051, 15175.10
1187.533, 15157.24
1188.015, 15229.87
1188.498, 15135.77
1188.980, 15206.97
1189.462, 15212.18
1189.944, 15247.58
1190.426, 15217.60
1190.908, 15207.81
1191.390, 15263.44
1191.872, 15282.85
1192.354, 15245.34
1192.837, 15282.67
1193.319, 15186.28
1193.801, 15207.23
1194.283, 15278.81
1194.765, 15244.58
1195.247, 15283.11
1195.729, 15293.93
1196.211, 15178.83
1196.693, 15282.71
1197.176, 15291.89
1197.658, 15203.84
1198.140, 15300.21
1198.622, 15225.56
1199.104, 15211.96
1199.586, 15244.29
1200.068, 15228.74
1200.550, 15288.69
1201.033, 15275.91
1201.515, 15256.62
1201.997, 15265.69
1202.479, 15248.61
1202.961, 15272.20
1203.443, 15248.16
1203.925, 15274.74
1204.407, 15312.80
1204.890, 15263.00
1205.372, 15306.21
1205.854, 15205.17
1206.336, 15224.84
1206.818, 15231.50
1207.300, 15315.32
1207.782, 15214.98
1208.264, 15231.29
1208.746, 15297.27
1209.229, 15293.75
1209.711, 15319.29
1210.193, 15258.81
1210.675, 15279.14
1211.157, 15277.19
1211.639, 15352.22
1212.121, 15366.47
1212.603, 15307.45
1213.085, 15248.74
1213.568, 15329.31
1214.050, 15277.86
1214.532, 15297.63
1215.014, 15243.86
1215.496, 15253.58
1215.978, 15262.30
1216.460, 15303.58
1216.942, 15298.95
1217.425, 15316.75
1217.907, 15313.35
1218.389, 15331.75
1218.871, 15347.73
1219.353, 15358.52
1219.835, 15345.61
1220.317, 15377.03
1220.799, 15313.94
1221.281, 15286.71
1221.764, 15284.97
1222.246, 15403.53
1222.728, 15410.27
1223.210, 15283.36
1223.692, 15396.61
1224.174, 15362.11
1224.656, 15371.52
1225.138, 15364.91
1225.620, 15363.04
1226.103, 15371.08
1226.585, 15318.15
1227.067, 15400.08
1227.549, 15371.83
1228.031, 15418.44
1228.513, 15328.61
1228.995, 15319.77
1229.477, 15332.42
1229.960, 15352.93
1230.442, 15310.78
1230.924, 15328.76
1231.406, 15326.17
1231.888, 15321.06
1232.370, 15326.91
1232.852, 15319.74
1233.334, 15304.57
1233.816, 15390.13
1234.299, 15318.95
1234.781, 15395.51
1235.263, 15424.71
1235.745, 15389.90
1236.227, 15389.10
1236.709, 15323.75
1237.191, 15357.39
1237.673, 15356.99
1238.156, 15412.68
1238.638, 15347.59
1239.120, 15421.54
1239.602, 15359.70
1240.084, 15439.27
1240.566, 15374.56
1241.048, 15438.38
1241.530, 15348.77
1242.012, 15370.21
1242.495, 15400.46
1242.977, 15459.14
1243.459, 15408.51
1243.941, 15473.93
1244.423, 15437.51
1244.905, 15467.38
1245.387, 15460.48
1245.869, 15407.59
1246.351, 15484.45
1246.834, 15442.97
1247.316, 15481.39
1247.798, 15390.39
1248.280, 15456.73
1248.762, 15489.19
1249.244, 15514.68
1249.726, 15510.81
1250.208, 15493.87
1250.691, 15497.45
1251.173, 15466.78
1251.655, 15386.10
1252.137, 15409.19
1252.619, 15463.67
1253.101, 15502.59
1253.583, 15436.16
1254.065, 15483.10
1254.547, 15479.00
1255.030, 15523.21
1255.512, 15474.81
1255.994, 15536.66
1256.476, 15450.28
1256.958, 15523.33
1257.440, 15553.12
1257.922, 15420.08
1258.404, 15554.46
1258.886, 15447.38
1259.369, 15482.65
1259.851, 15508.93
1260.333, 15465.33
1260.815, 15557.55
1261.297, 15432.99
1261.779, 15461.41
1262.261, 15546.58
1262.743, 15494.85
1263.226, 15577.31
1263.708, 15524.94
1264.190, 15444.24
1264.672, 15562.42
1265.154, 15475.98
1265.636, 15523.89
1266.118, 15460.12
1266.600, 15461.75
1267.083, 15527.33
1267.565, 15477.01
1268.047, 15529.37
1268.529, 15577.48
1269.011, 15505.24
1269.493, 15523.42
1269.975, 15507.42
1270.457, 15566.68
1270.939, 15608.45
1271.422, 15496.60
1271.904, 15576.77
1272.386, 15558.02
1272.868, 15587.93
1273.350, 15607.50
1273.832, 15588.84
1274.314, 15566.03
1274.796, 15560.68
1275.278, 15564.72
1275.761, 15564.60
1276.243, 15560.71
1276.725, 15567.16
1277.207, 15584.57
1277.689, 15594.03
1278.171, 15568.68
1278.653, 15550.48
1279.135, 15566.22
1279.618, 15594.50
1280.100, 15596.28
1280.582, 15578.15
1281.064, 15576.09
1281.546, 15593.91
1282.028, 15609.42
1282.510, 15604.54
1282.992, 15604.67
1283.474, 15621.90
1283.957, 15643.28
1284.439, 15643.64
1284.921, 15629.34
1285.403, 15613.82
1285.885, 15598.60
1286.367, 15600.24
1286.849, 15641.74
1287.331, 15671.92
1287.813, 15672.53
1288.296, 15662.83
1288.778, 15685.17
1289.260, 15717.94
1289.742, 15714.71
1290.224, 15663.44
1290.706, 15640.19
1291.188, 15657.03
1291.670, 15688.79
1292.153, 15736.51
1292.635, 15774.98
1293.117, 15752.75
1293.599, 15705.35
1294.081, 15680.61
1294.563, 15688.18
1295.045, 15708.31
1295.527, 15746.90
1296.010, 15760.57
1296.492, 15719.59
1296.974, 15679.80
1297.456, 15721.49
1297.938, 15785.92
1298.420, 15800.13
1298.902, 15762.71
1299.384, 15736.00
1299.866, 15720.06
1300.349, 15712.26
1300.831, 15717.36
1301.313, 15707.86
1301.795, 15673.39
##END=



