##NAMES=Jinshajiangite
##RRUFFID=R061018
##IDEAL CHEMISTRY=BaNaFe^2+^_4_Ti^4+^_2_(Si_2_O_7_)_2_O_2_(OH)_2_F
##LOCALITY=Jinshajiang River, western Sichuan Province, China
##OWNER=RRUFF
##SOURCE=Pingqiu Fu
##DESCRIPTION=Brownish red cleavage fragments, portion of the type sample
##STATUS=The identification of this mineral is confirmed by single-crystal X-ray diffraction and chemical analysis.
##URL=rruff.info/R061018
##MEASURED CHEMISTRY=Na_0.71_(Ba_0.58_K_0.39_Ce_0.14_)_Σ=1.11_(Fe_1.93_Mn_1.91_Mg_0.03_)_Σ=3.87_(Ti_1.77_Si_0.15_Zr_0.09_Al_0.004_)_Σ=2.01_(Si_2_O_7_)_2_O_2_(OH)_2_F_0.52_
125.3794, 2290.270
125.8615, 2409.171
126.3436, 2555.796
126.8257, 2722.328
127.3078, 2888.363
127.7900, 3045.643
128.2721, 3196.276
128.7542, 3349.107
129.2363, 3505.446
129.7184, 3658.495
130.2005, 3802.682
130.6826, 3936.478
131.1648, 4058.097
131.6469, 4162.249
132.1290, 4250.893
132.6111, 4342.086
133.0932, 4442.484
133.5753, 4538.595
134.0575, 4605.777
134.5396, 4643.696
135.0217, 4650.258
135.5038, 4619.459
135.9859, 4550.117
136.4680, 4464.296
136.9502, 4361.207
137.4323, 4243.697
137.9144, 4129.495
138.3965, 4017.236
138.8786, 3909.012
139.3607, 3806.422
139.8429, 3708.700
140.3250, 3616.592
140.8071, 3526.869
141.2892, 3436.915
141.7713, 3378.689
142.2534, 3359.863
142.7356, 3365.117
143.2177, 3371.574
143.6998, 3374.698
144.1819, 3386.841
144.6640, 3413.523
145.1461, 3460.460
145.6283, 3506.369
146.1104, 3552.745
146.5925, 3597.433
147.0746, 3634.933
147.5567, 3663.513
148.0388, 3686.463
148.5210, 3704.275
149.0031, 3700.391
149.4852, 3713.664
149.9673, 3755.010
150.4494, 3820.485
150.9315, 3872.428
151.4137, 3903.389
151.8958, 3926.761
152.3779, 3950.064
152.8600, 3961.677
153.3421, 3986.286
153.8242, 4034.235
154.3064, 4106.350
154.7885, 4169.768
155.2706, 4216.675
155.7527, 4253.789
156.2348, 4286.988
156.7169, 4298.803
157.1991, 4323.251
157.6812, 4373.825
158.1633, 4455.641
158.6454, 4540.904
159.1275, 4623.859
159.6096, 4704.394
160.0918, 4783.083
160.5739, 4852.278
161.0560, 4923.930
161.5381, 5005.898
162.0202, 5104.926
162.5023, 5199.366
162.9845, 5283.860
163.4666, 5356.982
163.9487, 5417.760
164.4308, 5473.588
164.9129, 5512.522
165.3950, 5524.463
165.8772, 5498.578
166.3593, 5458.969
166.8414, 5428.786
167.3235, 5400.769
167.8056, 5342.599
168.2877, 5219.901
168.7699, 5064.120
169.2520, 4908.404
169.7341, 4765.113
170.2162, 4623.674
170.6983, 4468.571
171.1804, 4302.773
171.6626, 4145.577
172.1447, 4007.768
172.6268, 3887.408
173.1089, 3783.326
173.5910, 3699.254
174.0731, 3627.789
174.5553, 3560.049
175.0374, 3495.920
175.5195, 3441.008
176.0016, 3403.633
176.4837, 3379.083
176.9658, 3356.523
177.4480, 3325.928
177.9301, 3295.248
178.4122, 3280.001
178.8943, 3283.283
179.3764, 3290.144
179.8585, 3280.594
180.3407, 3258.977
180.8228, 3242.429
181.3049, 3244.859
181.7870, 3259.261
182.2691, 3268.860
182.7512, 3270.371
183.2334, 3270.441
183.7155, 3279.771
184.1976, 3297.363
184.6797, 3315.819
185.1618, 3331.877
185.6439, 3345.067
186.1261, 3350.806
186.6082, 3342.972
187.0903, 3334.226
187.5724, 3354.069
188.0545, 3402.383
188.5366, 3454.182
189.0188, 3484.448
189.5009, 3497.338
189.9830, 3522.156
190.4651, 3568.478
190.9472, 3628.617
191.4293, 3684.162
191.9114, 3734.460
192.3936, 3779.176
192.8757, 3815.082
193.3578, 3842.489
193.8399, 3874.161
194.3220, 3915.256
194.8041, 3963.694
195.2863, 4009.881
195.7684, 4053.690
196.2505, 4096.036
196.7326, 4139.201
197.2147, 4183.571
197.6968, 4223.070
198.1790, 4256.097
198.6611, 4282.613
199.1432, 4303.460
199.6253, 4319.140
200.1074, 4327.717
200.5895, 4321.306
201.0717, 4296.087
201.5538, 4280.959
202.0359, 4295.080
202.5180, 4340.925
203.0001, 4356.551
203.4822, 4331.129
203.9644, 4289.943
204.4465, 4281.557
204.9286, 4313.875
205.4107, 4345.292
205.8928, 4355.052
206.3749, 4338.874
206.8571, 4330.150
207.3392, 4333.260
207.8213, 4340.775
208.3034, 4334.343
208.7855, 4309.576
209.2676, 4284.213
209.7498, 4267.559
210.2319, 4261.587
210.7140, 4256.684
211.1961, 4253.008
211.6782, 4250.083
212.1603, 4247.472
212.6425, 4247.653
213.1246, 4242.883
213.6067, 4225.617
214.0888, 4188.685
214.5709, 4163.568
215.0530, 4154.556
215.5352, 4159.005
216.0173, 4166.447
216.4994, 4178.356
216.9815, 4190.091
217.4636, 4197.161
217.9457, 4194.947
218.4279, 4201.324
218.9100, 4222.948
219.3921, 4256.301
219.8742, 4273.920
220.3563, 4268.339
220.8384, 4258.182
221.3206, 4256.597
221.8027, 4263.280
222.2848, 4280.179
222.7669, 4311.617
223.2490, 4356.030
223.7311, 4393.606
224.2132, 4423.889
224.6954, 4447.693
225.1775, 4463.494
225.6596, 4463.144
226.1417, 4472.768
226.6238, 4499.611
227.1059, 4543.454
227.5881, 4584.210
228.0702, 4625.615
228.5523, 4659.406
229.0344, 4674.112
229.5165, 4652.655
229.9986, 4645.939
230.4808, 4669.081
230.9629, 4724.298
231.4450, 4768.649
231.9271, 4798.336
232.4092, 4820.189
232.8913, 4841.702
233.3735, 4864.932
233.8556, 4883.889
234.3377, 4894.504
234.8198, 4894.514
235.3019, 4907.299
235.7840, 4942.089
236.2662, 4982.355
236.7483, 5006.067
237.2304, 4999.240
237.7125, 5000.510
238.1946, 5022.325
238.6767, 5069.377
239.1589, 5108.672
239.6410, 5140.344
240.1231, 5164.392
240.6052, 5178.637
241.0873, 5175.699
241.5694, 5175.757
242.0516, 5184.971
242.5337, 5205.350
243.0158, 5224.948
243.4979, 5244.300
243.9800, 5262.226
244.4621, 5276.922
244.9443, 5287.100
245.4264, 5295.508
245.9085, 5303.681
246.3906, 5313.205
246.8727, 5314.121
247.3548, 5300.187
247.8370, 5281.405
248.3191, 5274.324
248.8012, 5284.746
249.2833, 5297.266
249.7654, 5307.964
250.2475, 5317.455
250.7297, 5323.793
251.2118, 5328.033
251.6939, 5328.954
252.1760, 5322.932
252.6581, 5303.397
253.1402, 5289.311
253.6223, 5289.010
254.1045, 5308.457
254.5866, 5319.708
255.0687, 5320.321
255.5508, 5314.525
256.0329, 5308.563
256.5150, 5298.472
256.9972, 5295.533
257.4793, 5306.210
257.9614, 5336.229
258.4435, 5355.289
258.9256, 5356.930
259.4077, 5351.603
259.8899, 5359.313
260.3720, 5385.578
260.8541, 5413.145
261.3362, 5436.251
261.8183, 5455.133
262.3004, 5468.858
262.7826, 5477.687
263.2647, 5480.869
263.7468, 5473.823
264.2289, 5448.219
264.7110, 5431.833
265.1931, 5440.221
265.6753, 5482.208
266.1574, 5504.241
266.6395, 5500.268
267.1216, 5482.455
267.6037, 5471.890
268.0858, 5469.610
268.5680, 5472.314
269.0501, 5480.230
269.5322, 5494.741
270.0143, 5505.804
270.4964, 5512.761
270.9785, 5517.094
271.4607, 5521.182
271.9428, 5524.991
272.4249, 5528.775
272.9070, 5529.967
273.3891, 5526.783
273.8712, 5538.905
274.3534, 5570.299
274.8355, 5611.229
275.3176, 5644.406
275.7997, 5668.226
276.2818, 5691.660
276.7639, 5720.131
277.2461, 5754.174
277.7282, 5778.119
278.2103, 5788.326
278.6924, 5794.642
279.1745, 5814.837
279.6566, 5850.961
280.1388, 5884.116
280.6209, 5902.981
281.1030, 5908.120
281.5851, 5924.851
282.0672, 5956.004
282.5493, 5992.461
283.0315, 6019.294
283.5136, 6035.854
283.9957, 6056.650
284.4778, 6092.913
284.9599, 6142.109
285.4420, 6174.177
285.9242, 6186.510
286.4063, 6190.873
286.8884, 6203.942
287.3705, 6225.244
287.8526, 6240.930
288.3347, 6243.905
288.8169, 6236.216
289.2990, 6227.620
289.7811, 6218.013
290.2632, 6207.327
290.7453, 6198.973
291.2274, 6191.441
291.7096, 6172.970
292.1917, 6131.460
292.6738, 6076.127
293.1559, 6031.938
293.6380, 5999.417
294.1201, 5977.201
294.6023, 5970.024
295.0844, 5974.287
295.5665, 5974.951
296.0486, 5962.792
296.5307, 5944.901
297.0128, 5935.522
297.4950, 5935.021
297.9771, 5939.312
298.4592, 5941.032
298.9413, 5944.115
299.4234, 5959.350
299.9055, 5993.739
300.3876, 6040.251
300.8698, 6089.229
301.3519, 6139.802
301.8340, 6196.251
302.3161, 6268.153
302.7982, 6347.352
303.2803, 6416.128
303.7625, 6462.035
304.2446, 6500.914
304.7267, 6555.743
305.2088, 6623.380
305.6909, 6684.181
306.1730, 6718.445
306.6552, 6737.922
307.1373, 6759.279
307.6194, 6794.165
308.1015, 6825.363
308.5836, 6829.985
309.0657, 6813.904
309.5479, 6806.966
310.0300, 6837.565
310.5121, 6882.294
310.9942, 6917.348
311.4763, 6933.377
311.9584, 6942.430
312.4406, 6945.661
312.9227, 6946.403
313.4048, 6956.871
313.8869, 6995.556
314.3690, 7039.489
314.8511, 7069.023
315.3333, 7070.920
315.8154, 7074.258
316.2975, 7089.768
316.7796, 7116.703
317.2617, 7152.267
317.7438, 7205.134
318.2260, 7260.023
318.7081, 7306.893
319.1902, 7338.784
319.6723, 7374.756
320.1544, 7420.380
320.6365, 7473.921
321.1187, 7532.243
321.6008, 7591.495
322.0829, 7656.882
322.5650, 7731.942
323.0471, 7821.335
323.5292, 7908.001
324.0114, 7986.629
324.4935, 8061.300
324.9756, 8138.553
325.4577, 8214.997
325.9398, 8296.890
326.4219, 8387.886
326.9041, 8492.001
327.3862, 8590.632
327.8683, 8687.366
328.3504, 8777.022
328.8325, 8852.216
329.3146, 8893.988
329.7968, 8943.451
330.2789, 9010.037
330.7610, 9095.739
331.2431, 9183.214
331.7252, 9279.396
332.2073, 9371.307
332.6895, 9446.896
333.1716, 9506.748
333.6537, 9549.506
334.1358, 9573.557
334.6179, 9579.563
335.1000, 9577.994
335.5822, 9564.775
336.0643, 9549.711
336.5464, 9542.045
337.0285, 9546.172
337.5106, 9544.306
337.9927, 9538.813
338.4749, 9524.763
338.9570, 9474.903
339.4391, 9378.033
339.9212, 9275.963
340.4033, 9198.360
340.8854, 9146.816
341.3676, 9099.095
341.8497, 9053.043
342.3318, 9009.956
342.8139, 8973.420
343.2960, 8944.644
343.7781, 8916.318
344.2603, 8887.430
344.7424, 8857.193
345.2245, 8815.405
345.7066, 8759.230
346.1887, 8698.604
346.6708, 8648.891
347.1530, 8609.301
347.6351, 8576.823
348.1172, 8552.780
348.5993, 8534.168
349.0814, 8517.885
349.5635, 8506.144
350.0457, 8481.524
350.5278, 8413.356
351.0099, 8313.689
351.4920, 8221.526
351.9741, 8171.840
352.4562, 8131.481
352.9384, 8049.905
353.4205, 7928.207
353.9026, 7785.806
354.3847, 7629.922
354.8668, 7467.094
355.3489, 7308.186
355.8311, 7165.154
356.3132, 7021.425
356.7953, 6850.132
357.2774, 6659.017
357.7595, 6486.297
358.2416, 6369.514
358.7238, 6275.732
359.2059, 6171.512
359.6880, 6033.458
360.1701, 5904.156
360.6522, 5815.112
361.1343, 5753.842
361.6164, 5682.269
362.0985, 5564.740
362.5807, 5445.599
363.0628, 5352.167
363.5449, 5296.865
364.0270, 5250.373
364.5091, 5213.427
364.9912, 5179.423
365.4734, 5136.295
365.9555, 5067.531
366.4376, 5001.294
366.9197, 4948.351
367.4018, 4911.529
367.8839, 4879.650
368.3661, 4849.806
368.8482, 4825.476
369.3303, 4810.883
369.8124, 4814.643
370.2945, 4817.975
370.7766, 4816.138
371.2588, 4808.389
371.7409, 4806.087
372.2230, 4810.623
372.7051, 4818.982
373.1872, 4828.273
373.6693, 4836.212
374.1515, 4849.779
374.6336, 4871.018
375.1157, 4898.564
375.5978, 4928.249
376.0799, 4963.415
376.5620, 4992.878
377.0442, 5004.912
377.5263, 4995.789
378.0084, 5002.977
378.4905, 5035.277
378.9726, 5079.132
379.4547, 5102.039
379.9369, 5101.880
380.4190, 5108.466
380.9011, 5145.134
381.3832, 5206.436
381.8653, 5249.267
382.3474, 5270.416
382.8296, 5283.147
383.3117, 5300.692
383.7938, 5323.611
384.2759, 5355.026
384.7580, 5407.533
385.2401, 5465.772
385.7223, 5501.061
386.2044, 5512.771
386.6865, 5517.477
387.1686, 5520.880
387.6507, 5528.049
388.1328, 5548.706
388.6150, 5592.363
389.0971, 5644.333
389.5792, 5697.027
390.0613, 5748.251
390.5434, 5787.637
391.0255, 5791.638
391.5077, 5789.824
391.9898, 5809.688
392.4719, 5864.572
392.9540, 5927.111
393.4361, 5993.058
393.9182, 6057.018
394.4004, 6106.583
394.8825, 6123.319
395.3646, 6136.985
395.8467, 6159.912
396.3288, 6192.557
396.8109, 6237.735
397.2931, 6299.668
397.7752, 6372.585
398.2573, 6449.550
398.7394, 6539.453
399.2215, 6622.934
399.7036, 6694.721
400.1858, 6754.404
400.6679, 6814.463
401.1500, 6871.554
401.6321, 6932.091
402.1142, 7002.159
402.5963, 7088.321
403.0785, 7171.414
403.5606, 7253.771
404.0427, 7331.371
404.5248, 7384.917
405.0069, 7403.090
405.4890, 7425.027
405.9712, 7479.239
406.4533, 7572.112
406.9354, 7634.489
407.4175, 7659.205
407.8996, 7662.126
408.3817, 7669.605
408.8639, 7681.879
409.3460, 7683.113
409.8281, 7663.170
410.3102, 7626.739
410.7923, 7592.248
411.2744, 7559.767
411.7566, 7526.701
412.2387, 7496.060
412.7208, 7463.458
413.2029, 7414.909
413.6850, 7335.229
414.1671, 7250.416
414.6493, 7196.700
415.1314, 7169.990
415.6135, 7145.505
416.0956, 7106.776
416.5777, 7061.906
417.0598, 7022.562
417.5420, 6995.807
418.0241, 6960.872
418.5062, 6890.245
418.9883, 6803.247
419.4704, 6738.063
419.9525, 6734.668
420.4347, 6735.814
420.9168, 6712.968
421.3989, 6662.686
421.8810, 6603.675
422.3631, 6520.819
422.8452, 6441.690
423.3273, 6390.782
423.8094, 6417.777
424.2916, 6423.357
424.7737, 6380.334
425.2558, 6296.463
425.7379, 6225.573
426.2200, 6180.385
426.7021, 6136.056
427.1843, 6077.320
427.6664, 5988.083
428.1485, 5922.355
428.6306, 5892.740
429.1127, 5878.925
429.5948, 5839.389
430.0770, 5767.018
430.5591, 5692.293
431.0412, 5626.700
431.5233, 5570.091
432.0054, 5505.171
432.4875, 5429.449
432.9697, 5354.147
433.4518, 5292.623
433.9339, 5243.361
434.4160, 5200.334
434.8981, 5167.099
435.3802, 5134.246
435.8624, 5079.413
436.3445, 5004.395
436.8266, 4927.458
437.3087, 4859.986
437.7908, 4800.004
438.2729, 4744.864
438.7551, 4694.172
439.2372, 4648.126
439.7193, 4606.556
440.2014, 4569.692
440.6835, 4537.931
441.1656, 4518.607
441.6478, 4499.316
442.1299, 4469.773
442.6120, 4429.420
443.0941, 4392.351
443.5762, 4370.436
444.0583, 4351.791
444.5405, 4326.396
445.0226, 4283.568
445.5047, 4243.735
445.9868, 4212.269
446.4689, 4187.520
446.9510, 4161.329
447.4332, 4122.599
447.9153, 4091.959
448.3974, 4078.238
448.8795, 4088.161
449.3616, 4096.939
449.8438, 4105.239
450.3259, 4111.878
450.8080, 4114.988
451.2901, 4113.352
451.7722, 4111.228
452.2543, 4108.542
452.7365, 4105.907
453.2186, 4109.368
453.7007, 4120.031
454.1828, 4131.563
454.6649, 4136.728
455.1470, 4136.700
455.6292, 4142.129
456.1113, 4153.480
456.5934, 4173.147
457.0755, 4209.824
457.5576, 4260.123
458.0397, 4310.065
458.5219, 4351.548
459.0040, 4388.071
459.4861, 4422.746
459.9682, 4455.952
460.4503, 4490.438
460.9324, 4525.160
461.4146, 4563.491
461.8967, 4610.028
462.3788, 4678.294
462.8609, 4742.716
463.3430, 4786.292
463.8251, 4814.209
464.3073, 4847.213
464.7894, 4901.457
465.2715, 4955.841
465.7536, 4996.983
466.2357, 5012.429
466.7178, 5041.395
467.2000, 5102.625
467.6821, 5174.528
468.1642, 5229.061
468.6463, 5264.396
469.1284, 5285.173
469.6105, 5291.091
470.0927, 5282.455
470.5748, 5261.162
471.0569, 5214.526
471.5390, 5178.449
472.0211, 5187.892
472.5032, 5252.274
472.9854, 5284.545
473.4675, 5272.244
473.9496, 5235.061
474.4317, 5206.313
474.9138, 5185.755
475.3959, 5164.931
475.8781, 5139.891
476.3602, 5112.001
476.8423, 5082.604
477.3244, 5052.011
477.8065, 5025.910
478.2886, 5011.620
478.7708, 5004.757
479.2529, 4998.121
479.7350, 4989.909
480.2171, 4981.104
480.6992, 4979.537
481.1813, 4978.692
481.6635, 4961.380
482.1456, 4895.111
482.6277, 4828.846
483.1098, 4797.754
483.5919, 4815.103
484.0740, 4809.206
484.5562, 4734.160
485.0382, 4641.116
485.5204, 4577.884
486.0025, 4580.928
486.4846, 4575.967
486.9667, 4555.132
487.4488, 4521.030
487.9309, 4483.062
488.4131, 4436.708
488.8952, 4394.200
489.3773, 4361.386
489.8594, 4339.935
490.3415, 4319.466
490.8236, 4301.014
491.3058, 4281.393
491.7879, 4256.300
492.2700, 4225.447
492.7521, 4192.377
493.2342, 4155.510
493.7163, 4118.296
494.1985, 4086.235
494.6806, 4059.310
495.1627, 4039.519
495.6448, 4034.085
496.1269, 4034.615
496.6090, 4025.712
497.0912, 4002.539
497.5733, 3981.977
498.0554, 3982.115
498.5375, 3992.321
499.0196, 3995.683
499.5017, 3979.209
499.9839, 3960.247
500.4660, 3946.635
500.9481, 3938.198
501.4302, 3930.950
501.9123, 3928.250
502.3944, 3923.484
502.8766, 3911.779
503.3587, 3878.402
503.8408, 3863.101
504.3229, 3874.032
504.8050, 3898.894
505.2871, 3919.724
505.7693, 3936.293
506.2514, 3948.849
506.7335, 3956.164
507.2156, 3958.994
507.6977, 3962.897
508.1798, 3967.280
508.6620, 3975.703
509.1441, 3995.406
509.6262, 4023.841
510.1083, 4040.588
510.5904, 4040.415
511.0725, 4037.670
511.5547, 4054.825
512.0368, 4085.920
512.5189, 4112.648
513.0010, 4117.968
513.4832, 4120.479
513.9653, 4147.143
514.4474, 4194.241
514.9295, 4225.443
515.4116, 4203.854
515.8937, 4166.946
516.3758, 4146.664
516.8579, 4158.951
517.3400, 4167.192
517.8221, 4157.754
518.3043, 4139.004
518.7864, 4124.580
519.2685, 4127.825
519.7506, 4122.257
520.2327, 4097.612
520.7148, 4055.102
521.1970, 4028.076
521.6791, 4024.875
522.1612, 4023.683
522.6433, 4007.180
523.1254, 3971.572
523.6075, 3949.928
524.0897, 3946.813
524.5718, 3953.034
525.0539, 3957.215
525.5360, 3958.995
526.0181, 3953.589
526.5002, 3934.748
526.9824, 3910.157
527.4645, 3894.050
527.9466, 3885.927
528.4287, 3880.118
528.9108, 3868.498
529.3929, 3858.885
529.8751, 3861.958
530.3572, 3883.047
530.8393, 3904.247
531.3214, 3920.336
531.8035, 3929.386
532.2856, 3929.291
532.7678, 3902.461
533.2499, 3883.998
533.7320, 3891.494
534.2141, 3921.955
534.6962, 3935.888
535.1783, 3916.877
535.6605, 3897.810
536.1426, 3894.652
536.6247, 3912.610
537.1068, 3928.210
537.5889, 3940.927
538.0710, 3951.848
538.5532, 3962.564
539.0353, 3973.063
539.5174, 3981.456
539.9995, 3984.272
540.4816, 3987.275
540.9637, 4007.590
541.4459, 4043.716
541.9280, 4077.901
542.4101, 4091.830
542.8922, 4099.042
543.3743, 4122.434
543.8564, 4164.877
544.3386, 4208.935
544.8207, 4246.176
545.3028, 4276.557
545.7849, 4299.327
546.2670, 4303.492
546.7491, 4312.224
547.2313, 4337.210
547.7134, 4373.209
548.1955, 4404.819
548.6776, 4417.767
549.1597, 4438.467
549.6418, 4479.462
550.1240, 4545.751
550.6061, 4594.464
551.0882, 4618.902
551.5703, 4635.226
552.0524, 4655.080
552.5345, 4677.667
553.0167, 4710.335
553.4988, 4755.689
553.9809, 4808.531
554.4630, 4860.299
554.9451, 4911.094
555.4272, 4962.250
555.9094, 5010.531
556.3915, 5060.320
556.8736, 5117.598
557.3557, 5182.368
557.8378, 5254.186
558.3199, 5342.312
558.8021, 5433.303
559.2842, 5508.351
559.7663, 5556.968
560.2484, 5613.823
560.7305, 5690.619
561.2126, 5784.869
561.6948, 5891.892
562.1769, 6033.813
562.6590, 6163.188
563.1411, 6259.331
563.6232, 6330.308
564.1053, 6433.931
564.5875, 6583.346
565.0696, 6743.241
565.5517, 6896.881
566.0338, 7042.857
566.5159, 7200.596
566.9980, 7370.695
567.4802, 7556.448
567.9623, 7769.861
568.4444, 8008.948
568.9265, 8252.225
569.4086, 8491.014
569.8907, 8743.390
570.3729, 9043.129
570.8550, 9380.979
571.3371, 9731.096
571.8192, 10077.01
572.3013, 10432.58
572.7834, 10797.27
573.2656, 11174.73
573.7477, 11580.42
574.2298, 12038.52
574.7119, 12521.90
575.1940, 13005.91
575.6761, 13489.41
576.1583, 13986.17
576.6404, 14492.96
577.1225, 15015.83
577.6046, 15557.49
578.0867, 16122.82
578.5688, 16696.47
579.0510, 17278.46
579.5331, 17855.06
580.0152, 18370.24
580.4973, 18818.57
580.9794, 19243.16
581.4615, 19689.39
581.9437, 20130.04
582.4258, 20500.44
582.9079, 20791.78
583.3900, 21012.22
583.8721, 21160.39
584.3542, 21242.83
584.8364, 21269.01
585.3185, 21242.56
585.8006, 21158.65
586.2827, 21014.25
586.7648, 20811.00
587.2469, 20549.84
587.7291, 20247.63
588.2112, 19871.04
588.6933, 19376.11
589.1754, 18769.48
589.6575, 18213.19
590.1396, 17734.51
590.6218, 17264.96
591.1039, 16764.21
591.5860, 16221.18
592.0681, 15711.29
592.5502, 15239.23
593.0323, 14792.49
593.5145, 14358.38
593.9966, 13934.87
594.4787, 13520.29
594.9608, 13110.64
595.4429, 12716.59
595.9250, 12349.32
596.4072, 12010.36
596.8893, 11703.36
597.3714, 11455.53
597.8535, 11223.81
598.3356, 10974.44
598.8177, 10704.92
599.2999, 10464.52
599.7820, 10289.57
600.2641, 10136.75
600.7462, 9977.914
601.2283, 9802.204
601.7104, 9641.135
602.1926, 9499.077
602.6747, 9368.504
603.1568, 9233.561
603.6389, 9090.470
604.1210, 8959.183
604.6031, 8846.839
605.0853, 8744.759
605.5674, 8629.182
606.0495, 8499.699
606.5316, 8376.691
607.0137, 8270.369
607.4958, 8175.884
607.9780, 8086.540
608.4601, 8002.563
608.9422, 7914.429
609.4243, 7809.579
609.9064, 7701.120
610.3885, 7605.127
610.8707, 7528.354
611.3528, 7451.799
611.8349, 7366.900
612.3170, 7280.273
612.7991, 7202.813
613.2813, 7137.468
613.7634, 7076.007
614.2455, 7017.908
614.7276, 6962.965
615.2097, 6913.853
615.6918, 6871.713
616.1740, 6831.220
616.6561, 6789.115
617.1382, 6746.556
617.6203, 6706.954
618.1024, 6670.010
618.5845, 6644.863
619.0667, 6648.013
619.5488, 6665.361
620.0309, 6674.823
620.5130, 6672.022
620.9951, 6662.649
621.4772, 6645.068
621.9594, 6624.796
622.4415, 6608.916
622.9236, 6598.621
623.4057, 6593.685
623.8878, 6599.616
624.3699, 6611.616
624.8521, 6611.630
625.3342, 6587.563
625.8163, 6571.773
626.2984, 6577.432
626.7805, 6603.332
627.2626, 6624.410
627.7448, 6640.656
628.2269, 6652.497
628.7090, 6655.942
629.1911, 6654.780
629.6732, 6664.762
630.1553, 6688.714
630.6375, 6714.646
631.1196, 6735.030
631.6017, 6748.910
632.0838, 6753.997
632.5659, 6739.649
633.0480, 6729.916
633.5302, 6736.349
634.0123, 6755.508
634.4944, 6779.714
634.9765, 6825.261
635.4586, 6856.072
635.9407, 6858.910
636.4229, 6836.167
636.9050, 6816.918
637.3871, 6797.563
637.8692, 6789.672
638.3513, 6806.254
638.8334, 6845.891
639.3155, 6869.312
639.7976, 6875.653
640.2797, 6869.790
640.7618, 6842.051
641.2440, 6807.806
641.7261, 6803.515
642.2082, 6848.180
642.6903, 6896.227
643.1724, 6906.619
643.6545, 6898.256
644.1367, 6901.504
644.6188, 6938.581
645.1009, 6975.561
645.5830, 7002.825
646.0651, 7021.432
646.5472, 7040.305
647.0294, 7061.251
647.5115, 7078.491
647.9936, 7086.117
648.4757, 7084.406
648.9578, 7099.821
649.4399, 7134.561
649.9221, 7174.281
650.4042, 7209.365
650.8863, 7240.187
651.3684, 7264.641
651.8505, 7281.048
652.3326, 7301.469
652.8148, 7344.288
653.2969, 7395.714
653.7790, 7436.078
654.2611, 7447.702
654.7432, 7463.975
655.2253, 7501.308
655.7075, 7552.339
656.1896, 7601.580
656.6717, 7648.965
657.1538, 7691.840
657.6359, 7728.161
658.1180, 7759.175
658.6002, 7792.031
659.0823, 7824.813
659.5644, 7865.398
660.0465, 7923.037
660.5286, 7994.010
661.0107, 8051.352
661.4929, 8095.149
661.9750, 8139.216
662.4571, 8192.364
662.9392, 8254.432
663.4213, 8329.120
663.9034, 8422.546
664.3856, 8506.752
664.8677, 8554.548
665.3498, 8590.967
665.8319, 8643.672
666.3140, 8733.793
666.7961, 8820.659
667.2783, 8897.376
667.7604, 8968.838
668.2425, 9045.210
668.7246, 9125.539
669.2067, 9210.027
669.6888, 9298.064
670.1710, 9389.144
670.6531, 9484.359
671.1352, 9583.201
671.6173, 9674.803
672.0994, 9740.827
672.5815, 9799.459
673.0637, 9876.307
673.5458, 9972.707
674.0279, 10076.82
674.5100, 10194.92
674.9921, 10311.17
675.4742, 10411.40
675.9564, 10483.58
676.4385, 10566.42
676.9206, 10654.62
677.4027, 10763.40
677.8848, 10917.02
678.3669, 11142.28
678.8491, 11322.50
679.3312, 11434.07
679.8133, 11513.15
680.2954, 11620.30
680.7775, 11753.39
681.2596, 11902.40
681.7418, 12073.53
682.2239, 12245.10
682.7060, 12372.33
683.1881, 12470.48
683.6702, 12583.82
684.1523, 12747.41
684.6345, 12924.08
685.1166, 13096.11
685.5987, 13262.29
686.0808, 13430.92
686.5629, 13605.46
687.0450, 13783.22
687.5272, 13966.96
688.0093, 14155.88
688.4914, 14341.00
688.9735, 14522.79
689.4556, 14704.58
689.9377, 14888.55
690.4199, 15074.30
690.9020, 15267.16
691.3841, 15464.91
691.8662, 15668.16
692.3483, 15874.67
692.8304, 16087.29
693.3126, 16308.90
693.7947, 16556.39
694.2768, 16789.08
694.7589, 16963.38
695.2410, 17115.04
695.7231, 17308.17
696.2053, 17603.00
696.6874, 17876.19
697.1695, 18098.91
697.6516, 18285.84
698.1337, 18499.24
698.6158, 18746.99
699.0980, 18983.60
699.5801, 19169.47
700.0622, 19330.55
700.5443, 19556.23
701.0264, 19842.03
701.5085, 20127.79
701.9907, 20370.19
702.4728, 20591.41
702.9549, 20813.03
703.4370, 21035.19
703.9191, 21257.20
704.4012, 21499.70
704.8834, 21727.37
705.3655, 21909.49
705.8476, 22017.80
706.3297, 22144.53
706.8118, 22308.43
707.2939, 22468.80
707.7761, 22578.33
708.2582, 22635.62
708.7403, 22683.79
709.2224, 22731.42
709.7045, 22768.14
710.1866, 22774.48
710.6688, 22757.10
711.1509, 22734.21
711.6330, 22715.24
712.1151, 22690.12
712.5972, 22646.65
713.0793, 22591.61
713.5615, 22542.54
714.0436, 22506.94
714.5257, 22475.12
715.0078, 22445.10
715.4899, 22416.53
715.9720, 22386.82
716.4542, 22354.76
716.9363, 22324.99
717.4184, 22299.37
717.9005, 22277.95
718.3826, 22261.35
718.8647, 22249.70
719.3469, 22247.05
719.8290, 22255.73
720.3111, 22275.70
720.7932, 22308.34
721.2753, 22354.09
721.7574, 22406.87
722.2396, 22469.73
722.7217, 22534.29
723.2038, 22594.87
723.6859, 22658.48
724.1680, 22700.01
724.6501, 22703.97
725.1323, 22701.81
725.6144, 22738.23
726.0965, 22819.10
726.5786, 22862.32
727.0607, 22851.99
727.5428, 22812.89
728.0250, 22771.00
728.5071, 22729.58
728.9892, 22697.07
729.4713, 22684.69
729.9534, 22672.32
730.4355, 22647.04
730.9177, 22611.70
731.3998, 22572.49
731.8819, 22554.81
732.3640, 22504.04
732.8461, 22396.78
733.3282, 22246.57
733.8104, 22112.55
734.2925, 22001.62
734.7746, 21885.11
735.2567, 21750.58
735.7388, 21601.44
736.2209, 21455.63
736.7031, 21311.29
737.1852, 21144.53
737.6673, 20913.90
738.1494, 20671.55
738.6315, 20482.16
739.1136, 20348.64
739.5958, 20197.05
740.0779, 19975.68
740.5600, 19746.22
741.0421, 19549.97
741.5242, 19398.96
742.0063, 19229.39
742.4885, 19032.22
742.9706, 18828.50
743.4527, 18636.47
743.9348, 18454.22
744.4169, 18252.63
744.8990, 18023.92
745.3812, 17793.28
745.8633, 17581.24
746.3454, 17380.63
746.8275, 17179.42
747.3096, 16976.48
747.7917, 16773.85
748.2739, 16575.64
748.7560, 16376.80
749.2381, 16176.50
749.7202, 15985.23
750.2023, 15771.92
750.6844, 15530.81
751.1666, 15272.27
751.6487, 15009.37
752.1308, 14738.72
752.6129, 14510.50
753.0950, 14345.92
753.5771, 14222.29
754.0593, 14124.19
754.5414, 14037.47
755.0235, 13924.80
755.5056, 13742.57
755.9877, 13551.87
756.4698, 13390.00
756.9520, 13249.88
757.4341, 13090.48
757.9162, 12872.05
758.3983, 12676.86
758.8804, 12534.37
759.3625, 12435.22
759.8447, 12306.07
760.3268, 12144.80
760.8089, 11975.26
761.2910, 11802.87
761.7731, 11634.06
762.2552, 11486.50
762.7373, 11357.89
763.2194, 11237.53
763.7015, 11127.89
764.1837, 11016.23
764.6658, 10891.07
765.1479, 10750.27
765.6300, 10609.78
766.1121, 10466.68
766.5942, 10328.91
767.0764, 10202.31
767.5585, 10087.99
768.0406, 9971.851
768.5227, 9851.217
769.0048, 9736.707
769.4869, 9640.447
769.9691, 9555.961
770.4512, 9471.042
770.9333, 9385.438
771.4154, 9287.541
771.8975, 9157.444
772.3796, 9017.144
772.8618, 8886.560
773.3439, 8771.162
773.8260, 8662.419
774.3081, 8554.822
774.7902, 8456.826
775.2723, 8379.898
775.7545, 8331.114
776.2366, 8269.919
776.7187, 8190.155
777.2008, 8104.202
777.6829, 8032.455
778.1650, 7968.959
778.6472, 7894.302
779.1293, 7796.933
779.6114, 7704.401
780.0935, 7645.895
780.5756, 7604.104
781.0577, 7554.461
781.5399, 7482.976
782.0220, 7412.435
782.5041, 7337.768
782.9862, 7269.511
783.4683, 7232.608
783.9504, 7238.341
784.4326, 7209.130
784.9147, 7115.390
785.3968, 7000.148
785.8789, 6948.065
786.3610, 6942.264
786.8431, 6928.684
787.3253, 6876.544
787.8074, 6818.665
788.2895, 6773.346
788.7716, 6738.762
789.2537, 6709.282
789.7358, 6694.035
790.2180, 6671.120
790.7001, 6632.979
791.1822, 6584.762
791.6643, 6548.176
792.1464, 6524.690
792.6285, 6493.822
793.1107, 6439.903
793.5928, 6380.090
794.0749, 6351.727
794.5570, 6348.239
795.0391, 6342.600
795.5212, 6315.577
796.0034, 6287.014
796.4855, 6270.234
796.9676, 6263.438
797.4497, 6251.690
797.9318, 6236.085
798.4139, 6211.135
798.8961, 6169.439
799.3782, 6116.272
799.8603, 6089.964
800.3424, 6092.119
800.8245, 6088.738
801.3066, 6055.015
801.7888, 6005.781
802.2709, 5959.513
802.7530, 5918.480
803.2351, 5892.879
803.7172, 5905.668
804.1993, 5919.460
804.6815, 5910.899
805.1636, 5878.076
805.6457, 5854.208
806.1278, 5843.856
806.6099, 5834.508
807.0920, 5818.897
807.5742, 5798.683
808.0563, 5790.047
808.5384, 5792.850
809.0205, 5792.995
809.5026, 5780.143
809.9847, 5758.968
810.4669, 5729.610
810.9490, 5693.330
811.4311, 5671.547
811.9132, 5681.252
812.3953, 5700.475
812.8774, 5722.464
813.3596, 5748.419
813.8417, 5752.951
814.3238, 5732.454
814.8059, 5700.793
815.2880, 5652.732
815.7701, 5599.345
816.2523, 5600.578
816.7344, 5655.163
817.2165, 5700.353
817.6986, 5677.587
818.1807, 5632.777
818.6628, 5606.028
819.1450, 5602.744
819.6271, 5598.857
820.1092, 5591.156
820.5913, 5579.785
821.0734, 5562.724
821.5555, 5539.063
822.0377, 5524.214
822.5198, 5518.625
823.0019, 5518.347
823.4840, 5523.022
823.9661, 5529.876
824.4482, 5533.894
824.9304, 5534.637
825.4125, 5531.680
825.8946, 5525.688
826.3767, 5515.053
826.8588, 5495.084
827.3409, 5460.760
827.8231, 5444.150
828.3052, 5456.553
828.7873, 5468.881
829.2694, 5461.069
829.7515, 5434.268
830.2336, 5408.642
830.7158, 5383.890
831.1979, 5368.581
831.6800, 5379.883
832.1621, 5398.935
832.6442, 5400.506
833.1263, 5381.228
833.6085, 5366.550
834.0906, 5373.406
834.5727, 5380.692
835.0548, 5376.146
835.5369, 5358.116
836.0190, 5339.277
836.5012, 5317.583
836.9833, 5302.522
837.4654, 5308.843
837.9475, 5327.024
838.4296, 5324.820
838.9117, 5301.688
839.3939, 5285.595
839.8760, 5310.208
840.3581, 5339.002
840.8402, 5338.546
841.3223, 5299.978
841.8044, 5279.886
842.2866, 5289.969
842.7687, 5306.422
843.2508, 5316.880
843.7329, 5321.450
844.2150, 5326.808
844.6971, 5333.010
845.1793, 5338.215
845.6614, 5336.590
846.1435, 5335.569
846.6256, 5349.990
847.1077, 5379.615
847.5898, 5397.686
848.0720, 5377.767
848.5541, 5357.688
849.0362, 5357.251
849.5183, 5376.949
850.0004, 5399.033
850.4825, 5425.030
850.9647, 5448.180
851.4468, 5461.832
851.9289, 5469.836
852.4110, 5483.058
852.8931, 5501.516
853.3752, 5523.999
853.8574, 5549.261
854.3395, 5578.769
854.8216, 5616.021
855.3037, 5660.980
855.7858, 5702.389
856.2679, 5742.903
856.7501, 5772.401
857.2322, 5780.490
857.7143, 5773.014
858.1964, 5786.561
858.6785, 5821.010
859.1606, 5869.310
859.6428, 5947.812
860.1249, 6023.099
860.6070, 6051.223
861.0891, 6040.496
861.5712, 6036.893
862.0533, 6055.135
862.5355, 6085.277
863.0176, 6133.766
863.4997, 6192.342
863.9818, 6209.765
864.4639, 6178.358
864.9460, 6160.349
865.4282, 6189.098
865.9103, 6242.259
866.3924, 6283.322
866.8745, 6313.445
867.3566, 6337.231
867.8387, 6355.424
868.3209, 6369.511
868.8030, 6376.361
869.2851, 6379.517
869.7672, 6390.709
870.2493, 6410.318
870.7314, 6437.924
871.2136, 6474.165
871.6957, 6517.642
872.1778, 6571.398
872.6599, 6631.331
873.1420, 6677.392
873.6241, 6691.323
874.1063, 6702.717
874.5884, 6731.388
875.0705, 6774.103
875.5526, 6825.302
876.0347, 6895.433
876.5168, 6956.483
876.9990, 6996.071
877.4811, 7033.521
877.9632, 7108.099
878.4453, 7218.617
878.9274, 7320.160
879.4095, 7399.149
879.8917, 7477.938
880.3738, 7579.790
880.8559, 7698.540
881.3380, 7825.133
881.8201, 7960.012
882.3022, 8098.276
882.7844, 8234.438
883.2665, 8375.456
883.7486, 8529.654
884.2307, 8699.076
884.7128, 8862.203
885.1949, 9012.478
885.6770, 9178.789
886.1591, 9408.269
886.6412, 9672.631
887.1234, 9920.407
887.6055, 10138.19
888.0876, 10359.99
888.5697, 10589.67
889.0518, 10835.69
889.5339, 11105.60
890.0161, 11407.58
890.4982, 11704.01
890.9803, 11992.70
891.4624, 12293.60
891.9445, 12627.78
892.4266, 12985.29
892.9088, 13352.48
893.3909, 13730.71
893.8730, 14102.98
894.3551, 14451.52
894.8372, 14806.34
895.3193, 15184.60
895.8015, 15592.75
896.2836, 16005.61
896.7657, 16424.09
897.2478, 16852.88
897.7299, 17308.96
898.2120, 17776.27
898.6942, 18221.48
899.1763, 18644.21
899.6584, 19067.93
900.1405, 19520.01
900.6226, 19962.49
901.1047, 20350.62
901.5869, 20696.15
902.0690, 21066.96
902.5511, 21498.18
903.0332, 21913.79
903.5153, 22292.42
903.9974, 22644.62
904.4796, 22993.73
904.9617, 23337.47
905.4438, 23658.05
905.9259, 23939.64
906.4080, 24205.59
906.8901, 24493.73
907.3723, 24780.74
907.8544, 25024.52
908.3365, 25188.29
908.8186, 25342.66
909.3007, 25499.25
909.7828, 25643.25
910.2650, 25744.57
910.7471, 25805.19
911.2292, 25872.92
911.7113, 25965.44
912.1934, 26033.54
912.6755, 26020.67
913.1577, 25953.27
913.6398, 25864.73
914.1219, 25765.11
914.6040, 25636.66
915.0861, 25474.84
915.5682, 25287.26
916.0504, 25080.14
916.5325, 24853.38
917.0146, 24601.95
917.4967, 24325.68
917.9788, 24018.35
918.4609, 23652.71
918.9431, 23265.36
919.4252, 22905.10
919.9073, 22575.67
920.3894, 22232.94
920.8715, 21850.79
921.3536, 21458.34
921.8358, 21071.54
922.3179, 20687.37
922.8000, 20295.08
923.2821, 19894.09
923.7642, 19479.44
924.2463, 19044.66
924.7285, 18606.22
925.2106, 18191.12
925.6927, 17793.64
926.1748, 17402.66
926.6569, 17038.68
927.1390, 16645.52
927.6212, 16180.90
928.1033, 15691.16
928.5854, 15271.62
929.0675, 14926.26
929.5496, 14580.75
930.0317, 14205.84
930.5139, 13836.78
930.9960, 13525.45
931.4781, 13246.26
931.9602, 12951.67
932.4423, 12605.64
932.9244, 12274.89
933.4066, 11978.16
933.8887, 11697.76
934.3708, 11408.12
934.8529, 11106.47
935.3350, 10844.53
935.8171, 10633.82
936.2993, 10438.57
936.7814, 10229.36
937.2635, 10014.42
937.7456, 9804.880
938.2277, 9601.897
938.7098, 9415.586
939.1920, 9278.855
939.6741, 9135.926
940.1562, 8952.300
940.6383, 8730.898
941.1204, 8542.608
941.6025, 8387.124
942.0847, 8243.380
942.5668, 8104.582
943.0489, 7967.937
943.5310, 7826.383
944.0131, 7682.858
944.4952, 7546.479
944.9774, 7418.982
945.4595, 7301.974
945.9416, 7200.420
946.4237, 7107.406
946.9058, 7003.204
947.3879, 6887.113
947.8701, 6791.074
948.3522, 6730.288
948.8343, 6676.040
949.3164, 6585.866
949.7985, 6482.079
950.2806, 6402.647
950.7628, 6375.779
951.2449, 6338.708
951.7270, 6272.624
952.2091, 6204.317
952.6912, 6159.360
953.1733, 6137.809
953.6555, 6116.607
954.1376, 6094.564
954.6197, 6072.753
955.1018, 6043.701
955.5839, 6020.624
956.0660, 6023.294
956.5482, 6054.360
957.0303, 6071.737
957.5124, 6055.909
957.9945, 6042.903
958.4766, 6048.446
958.9587, 6067.837
959.4409, 6076.591
959.9230, 6075.594
960.4051, 6074.836
960.8872, 6075.964
961.3693, 6082.666
961.8514, 6105.288
962.3336, 6135.048
962.8157, 6151.225
963.2978, 6137.023
963.7799, 6132.103
964.2620, 6145.415
964.7441, 6163.380
965.2263, 6163.037
965.7084, 6147.799
966.1905, 6133.022
966.6726, 6121.373
967.1547, 6111.479
967.6368, 6108.937
968.1190, 6103.719
968.6011, 6086.397
969.0832, 6055.052
969.5653, 6012.705
970.0474, 5952.662
970.5295, 5897.681
971.0117, 5865.239
971.4938, 5849.443
971.9759, 5834.914
972.4580, 5819.987
972.9401, 5795.729
973.4222, 5746.067
973.9044, 5696.082
974.3865, 5662.687
974.8686, 5640.065
975.3507, 5602.873
975.8328, 5542.583
976.3149, 5505.653
976.7971, 5513.319
977.2792, 5533.085
977.7613, 5512.464
978.2434, 5464.315
978.7255, 5415.212
979.2076, 5370.068
979.6898, 5331.136
980.1719, 5298.571
980.6540, 5273.006
981.1361, 5255.688
981.6182, 5248.036
982.1003, 5239.998
982.5825, 5231.875
983.0646, 5219.800
983.5467, 5201.718
984.0288, 5177.242
984.5109, 5139.125
984.9930, 5089.250
985.4752, 5054.897
985.9573, 5062.028
986.4394, 5064.683
986.9215, 5046.234
987.4036, 5014.499
987.8857, 4999.365
988.3679, 4999.332
988.8500, 4999.413
989.3321, 4993.322
989.8142, 4986.236
990.2963, 4986.632
990.7784, 4987.866
991.2606, 4979.263
991.7427, 4945.962
992.2248, 4925.148
992.7069, 4919.169
993.1890, 4922.797
993.6711, 4934.444
994.1533, 4951.177
994.6354, 4960.411
995.1175, 4961.058
995.5996, 4964.318
996.0817, 4983.912
996.5638, 5002.773
997.0460, 5007.297
997.5281, 4998.483
998.0102, 4993.733
998.4923, 4991.574
998.9744, 5000.797
999.4565, 5030.718
999.9387, 5067.153
1000.421, 5081.230
1000.903, 5081.188
1001.385, 5086.098
1001.867, 5066.736
1002.349, 5118.594
1002.831, 5157.002
1003.313, 5182.683
1003.796, 5157.559
1004.278, 5198.053
1004.760, 5212.232
1005.242, 5225.333
1005.724, 5249.314
1006.206, 5252.755
1006.688, 5259.240
1007.170, 5282.341
1007.653, 5324.317
1008.135, 5353.560
1008.617, 5345.660
1009.099, 5363.158
1009.581, 5442.827
1010.063, 5558.249
1010.545, 5611.028
1011.027, 5613.821
1011.509, 5622.507
1011.992, 5661.998
1012.474, 5712.996
1012.956, 5767.394
1013.438, 5825.707
1013.920, 5886.695
1014.402, 5949.512
1014.884, 6016.347
1015.366, 6086.143
1015.848, 6167.048
1016.331, 6287.207
1016.813, 6416.833
1017.295, 6493.482
1017.777, 6511.935
1018.259, 6546.882
1018.741, 6638.978
1019.223, 6740.721
1019.705, 6836.411
1020.188, 6926.487
1020.670, 7013.527
1021.152, 7098.004
1021.634, 7182.410
1022.116, 7262.796
1022.598, 7352.776
1023.080, 7489.378
1023.562, 7636.391
1024.044, 7735.428
1024.527, 7740.029
1025.009, 7762.710
1025.491, 7814.513
1025.973, 7861.432
1026.455, 7862.010
1026.937, 7832.373
1027.419, 7829.429
1027.901, 7853.682
1028.384, 7856.521
1028.866, 7792.937
1029.348, 7719.038
1029.830, 7664.427
1030.312, 7623.925
1030.794, 7575.859
1031.276, 7520.720
1031.758, 7454.316
1032.240, 7374.999
1032.723, 7286.093
1033.205, 7183.973
1033.687, 7077.044
1034.169, 6976.036
1034.651, 6886.833
1035.133, 6798.560
1035.615, 6708.120
1036.097, 6620.653
1036.579, 6538.843
1037.062, 6463.084
1037.544, 6392.896
1038.026, 6328.459
1038.508, 6275.653
1038.990, 6250.042
1039.472, 6224.333
1039.954, 6182.426
1040.436, 6127.479
1040.919, 6069.151
1041.401, 6002.729
1041.883, 5958.918
1042.365, 5949.407
1042.847, 5946.842
1043.329, 5911.924
1043.811, 5861.958
1044.293, 5822.542
1044.776, 5800.245
1045.258, 5783.163
1045.740, 5781.979
1046.222, 5767.734
1046.704, 5716.724
1047.186, 5637.438
1047.668, 5585.241
1048.150, 5557.400
1048.632, 5536.849
1049.115, 5523.794
1049.597, 5505.576
1050.079, 5463.451
1050.561, 5414.266
1051.043, 5393.661
1051.525, 5412.852
1052.007, 5417.617
1052.489, 5400.919
1052.971, 5374.866
1053.454, 5347.828
1053.936, 5322.156
1054.418, 5302.733
1054.900, 5290.358
1055.382, 5275.058
1055.864, 5251.210
1056.346, 5227.614
1056.828, 5206.481
1057.311, 5188.170
1057.793, 5176.229
1058.275, 5169.071
1058.757, 5157.516
1059.239, 5133.564
1059.721, 5113.213
1060.203, 5114.189
1060.685, 5120.005
1061.167, 5108.368
1061.650, 5068.430
1062.132, 5055.373
1062.614, 5073.223
1063.096, 5094.076
1063.578, 5098.351
1064.060, 5090.617
1064.542, 5070.653
1065.024, 5042.308
1065.506, 5024.184
1065.989, 5026.264
1066.471, 5033.802
1066.953, 5047.065
1067.435, 5061.175
1067.917, 5068.461
1068.399, 5068.816
1068.881, 5058.368
1069.363, 5033.132
1069.846, 5015.691
1070.328, 5027.747
1070.810, 5045.589
1071.292, 5052.333
1071.774, 5047.967
1072.256, 5044.724
1072.738, 5042.805
1073.220, 5036.909
1073.702, 5018.340
1074.185, 5001.348
1074.667, 5007.152
1075.149, 5025.171
1075.631, 5035.460
1076.113, 5043.059
1076.595, 5021.842
1077.077, 4958.086
1077.559, 4896.211
1078.042, 4889.476
1078.524, 4918.228
1079.006, 4935.491
1079.488, 4938.768
1079.970, 4939.759
1080.452, 4946.800
1080.934, 4948.650
1081.416, 4936.186
1081.898, 4918.501
1082.380, 4925.171
1082.863, 4953.845
1083.345, 4966.968
1083.827, 4951.516
1084.309, 4932.212
1084.791, 4934.034
1085.273, 4938.864
1085.755, 4924.133
1086.237, 4883.219
1086.720, 4866.353
1087.202, 4878.405
1087.684, 4891.889
1088.166, 4892.748
1088.648, 4885.114
1089.130, 4876.008
1089.612, 4863.917
1090.094, 4845.136
1090.577, 4807.883
1091.059, 4779.655
1091.541, 4765.070
1092.023, 4756.807
1092.505, 4746.415
1092.987, 4735.434
1093.469, 4728.987
1093.951, 4727.442
1094.433, 4731.718
1094.916, 4753.780
1095.398, 4769.459
1095.880, 4763.118
1096.362, 4742.692
1096.844, 4728.277
1097.326, 4719.779
1097.808, 4721.763
1098.290, 4737.067
1098.772, 4756.547
1099.255, 4776.180
1099.737, 4792.057
1100.219, 4799.174
1100.701, 4795.803
1101.183, 4791.146
1101.665, 4785.161
1102.147, 4777.876
1102.629, 4768.113
1103.112, 4758.221
1103.594, 4752.789
1104.076, 4750.188
1104.558, 4746.740
1105.040, 4726.734
1105.522, 4729.893
1106.004, 4771.750
1106.486, 4816.564
1106.969, 4824.037
1107.451, 4804.792
1107.933, 4805.273
1108.415, 4824.767
1108.897, 4837.034
1109.379, 4821.833
1109.861, 4802.310
1110.343, 4786.208
1110.825, 4774.007
1111.307, 4766.875
1111.790, 4764.843
1112.272, 4767.235
1112.754, 4775.557
1113.236, 4777.194
1113.718, 4747.410
1114.200, 4716.244
1114.682, 4718.316
1115.164, 4754.476
1115.647, 4754.478
1116.129, 4708.871
1116.611, 4677.092
1117.093, 4688.633
1117.575, 4714.028
1118.057, 4718.812
1118.539, 4707.090
1119.021, 4683.917
1119.504, 4639.171
1119.986, 4609.565
1120.468, 4600.830
1120.950, 4597.075
1121.432, 4586.621
1121.914, 4572.663
1122.396, 4561.356
1122.878, 4553.933
1123.360, 4554.797
1123.843, 4587.840
1124.325, 4598.590
1124.807, 4561.479
1125.289, 4513.033
1125.771, 4500.342
1126.253, 4518.567
1126.735, 4541.397
1127.217, 4566.194
1127.699, 4578.550
1128.182, 4551.499
1128.664, 4526.369
1129.146, 4530.530
1129.628, 4554.104
1130.110, 4570.248
1130.592, 4578.774
1131.074, 4587.457
1131.556, 4599.923
1132.039, 4605.454
1132.521, 4584.535
1133.003, 4558.546
1133.485, 4548.737
1133.967, 4557.798
1134.449, 4573.060
1134.931, 4598.426
1135.413, 4609.221
1135.896, 4586.565
1136.378, 4554.960
1136.860, 4551.236
1137.342, 4560.799
1137.824, 4558.583
1138.306, 4524.829
1138.788, 4507.390
1139.270, 4511.117
1139.752, 4519.629
1140.234, 4519.961
1140.717, 4516.578
1141.199, 4520.620
1141.681, 4530.038
1142.163, 4537.505
1142.645, 4545.011
1143.127, 4542.586
1143.609, 4526.511
1144.091, 4504.600
1144.574, 4481.509
1145.056, 4460.887
1145.538, 4462.973
1146.020, 4487.722
1146.502, 4504.211
1146.984, 4485.003
1147.466, 4466.572
1147.948, 4466.109
1148.431, 4474.127
1148.913, 4465.412
1149.395, 4442.572
1149.877, 4429.514
1150.359, 4431.258
1150.841, 4440.932
1151.323, 4464.563
1151.805, 4484.469
1152.287, 4481.858
1152.770, 4461.668
1153.252, 4471.526
1153.734, 4511.851
1154.216, 4534.267
1154.698, 4512.022
1155.180, 4485.653
1155.662, 4497.325
1156.144, 4521.949
1156.626, 4527.596
1157.109, 4508.441
1157.591, 4502.370
1158.073, 4510.734
1158.555, 4521.840
1159.037, 4538.047
1159.519, 4544.616
1160.001, 4509.424
1160.483, 4455.526
1160.966, 4430.660
1161.448, 4455.168
1161.930, 4477.869
1162.412, 4499.449
1162.894, 4511.646
1163.376, 4500.642
1163.858, 4479.770
1164.340, 4467.582
1164.823, 4463.818
1165.305, 4464.795
1165.787, 4475.636
1166.269, 4479.493
1166.751, 4471.066
1167.233, 4463.038
1167.715, 4476.153
1168.197, 4499.498
1168.679, 4511.218
1169.161, 4509.504
1169.644, 4504.228
1170.126, 4490.958
1170.608, 4485.232
1171.090, 4493.009
1171.572, 4507.160
1172.054, 4513.388
1172.536, 4515.008
1173.018, 4523.588
1173.501, 4543.635
1173.983, 4553.246
1174.465, 4529.458
1174.947, 4510.165
1175.429, 4510.711
1175.911, 4526.803
1176.393, 4548.965
1176.875, 4574.518
1177.358, 4593.457
1177.840, 4600.406
1178.322, 4605.749
1178.804, 4616.084
1179.286, 4624.100
1179.768, 4624.974
1180.250, 4619.290
1180.732, 4611.737
1181.214, 4601.887
1181.697, 4586.746
1182.179, 4553.642
1182.661, 4530.420
1183.143, 4541.762
1183.625, 4560.936
1184.107, 4560.762
1184.589, 4541.011
1185.071, 4531.485
1185.553, 4531.722
1186.036, 4531.291
1186.518, 4527.927
1187.000, 4517.537
1187.482, 4486.021
1187.964, 4452.396
1188.446, 4449.002
1188.928, 4477.855
1189.410, 4488.972
1189.893, 4478.819
1190.375, 4465.709
1190.857, 4460.709
1191.339, 4460.293
1191.821, 4468.418
1192.303, 4477.882
1192.785, 4465.864
1193.267, 4429.370
1193.750, 4420.857
1194.232, 4451.006
1194.714, 4479.682
1195.196, 4462.055
1195.678, 4437.335
1196.160, 4444.194
1196.642, 4474.402
1197.124, 4475.477
1197.606, 4444.347
1198.089, 4422.318
1198.571, 4420.310
1199.053, 4424.911
1199.535, 4421.824
1200.017, 4420.261
1200.499, 4432.987
1200.981, 4459.274
1201.463, 4469.811
1201.945, 4462.371
1202.427, 4463.550
1202.910, 4488.528
1203.392, 4509.388
1203.874, 4486.504
1204.356, 4450.306
1204.838, 4439.616
1205.320, 4459.974
1205.802, 4462.892
1206.284, 4446.438
1206.767, 4430.681
1207.249, 4421.443
1207.731, 4422.870
1208.213, 4453.752
1208.695, 4491.628
1209.177, 4499.811
1209.659, 4465.313
1210.141, 4462.947
1210.624, 4498.281
1211.106, 4518.444
1211.588, 4468.118
1212.070, 4411.097
1212.552, 4424.817
1213.034, 4474.386
1213.516, 4495.500
1213.998, 4471.002
1214.480, 4465.522
1214.963, 4482.293
1215.445, 4497.076
1215.927, 4484.463
1216.409, 4467.803
1216.891, 4473.173
1217.373, 4492.523
1217.855, 4505.139
1218.337, 4507.997
1218.819, 4513.123
1219.302, 4522.042
1219.784, 4527.082
1220.266, 4516.219
1220.748, 4502.902
1221.230, 4500.307
1221.712, 4506.562
1222.194, 4512.899
1222.676, 4518.330
1223.159, 4527.235
1223.641, 4540.908
1224.123, 4551.972
1224.605, 4553.140
1225.087, 4548.995
1225.569, 4540.703
1226.051, 4530.485
1226.533, 4528.057
1227.016, 4535.032
1227.498, 4541.816
1227.980, 4547.160
1228.462, 4550.060
1228.944, 4546.770
1229.426, 4542.788
1229.908, 4542.106
1230.390, 4545.512
1230.872, 4557.871
1231.354, 4582.145
1231.837, 4584.665
1232.319, 4552.011
1232.801, 4525.229
1233.283, 4562.547
1233.765, 4610.095
1234.247, 4609.610
1234.729, 4567.255
1235.211, 4553.883
1235.694, 4571.068
1236.176, 4590.229
1236.658, 4605.692
1237.140, 4610.861
1237.622, 4587.869
1238.104, 4560.750
1238.586, 4552.918
1239.068, 4562.486
1239.551, 4572.075
1240.033, 4581.797
1240.515, 4583.457
1240.997, 4572.608
1241.479, 4558.493
1241.961, 4542.443
1242.443, 4531.716
1242.925, 4533.826
1243.407, 4547.496
1243.890, 4559.639
1244.372, 4569.739
1244.854, 4570.733
1245.336, 4550.692
1245.818, 4540.796
1246.300, 4581.990
1246.782, 4624.206
1247.264, 4620.478
1247.746, 4576.043
1248.229, 4563.736
1248.711, 4579.608
1249.193, 4589.967
1249.675, 4577.219
1250.157, 4562.291
1250.639, 4553.240
1251.121, 4549.345
1251.603, 4553.875
1252.086, 4564.510
1252.568, 4550.929
1253.050, 4519.407
1253.532, 4500.800
1254.014, 4519.648
1254.496, 4538.154
1254.978, 4539.681
1255.460, 4539.657
1255.943, 4555.354
1256.425, 4579.805
1256.907, 4570.301
1257.389, 4534.286
1257.871, 4502.891
1258.353, 4485.142
1258.835, 4481.964
1259.317, 4499.649
1259.799, 4520.519
1260.281, 4531.883
1260.764, 4534.029
1261.246, 4524.537
1261.728, 4505.926
1262.210, 4487.150
1262.692, 4466.413
1263.174, 4454.843
1263.656, 4455.708
1264.138, 4460.746
1264.621, 4465.612
1265.103, 4468.136
1265.585, 4460.188
1266.067, 4445.658
1266.549, 4437.468
1267.031, 4437.860
1267.513, 4449.630
1267.995, 4477.212
1268.478, 4501.553
1268.960, 4500.358
1269.442, 4488.798
1269.924, 4488.077
1270.406, 4495.651
1270.888, 4500.703
1271.370, 4499.628
1271.852, 4502.820
1272.334, 4511.324
1272.817, 4522.217
1273.299, 4540.912
1273.781, 4554.185
1274.263, 4543.822
1274.745, 4517.587
1275.227, 4499.240
1275.709, 4489.153
1276.191, 4491.534
1276.673, 4507.872
1277.156, 4520.894
1277.638, 4509.065
1278.120, 4496.530
1278.602, 4506.754
1279.084, 4527.337
1279.566, 4530.122
1280.048, 4514.815
1280.530, 4507.066
1281.013, 4509.057
1281.495, 4515.112
1281.977, 4531.748
1282.459, 4539.052
1282.941, 4517.104
1283.423, 4486.738
1283.905, 4482.601
1284.387, 4500.183
1284.870, 4508.975
1285.352, 4507.129
1285.834, 4512.732
1286.316, 4554.628
1286.798, 4578.273
1287.280, 4561.003
1287.762, 4530.063
1288.244, 4527.330
1288.726, 4542.499
1289.208, 4546.044
1289.691, 4537.287
1290.173, 4537.069
1290.655, 4569.936
1291.137, 4583.801
1291.619, 4565.293
1292.101, 4535.726
1292.583, 4515.771
1293.065, 4506.104
1293.548, 4515.615
1294.030, 4540.658
1294.512, 4547.593
1294.994, 4524.093
1295.476, 4510.357
1295.958, 4514.704
1296.440, 4528.717
1296.922, 4536.567
1297.405, 4535.051
1297.887, 4543.701
1298.369, 4559.740
1298.851, 4552.845
1299.333, 4516.972
1299.815, 4502.564
1300.297, 4515.665
1300.779, 4556.278
##END=



