##NAMES=Jinshajiangite
##RRUFFID=R060580
##IDEAL CHEMISTRY=BaNaFe^2+^_4_Ti^4+^_2_(Si_2_O_7_)_2_O_2_(OH)_2_F
##LOCALITY=Norra Karr, Sweden
##OWNER=RRUFF
##SOURCE=Michael Scott
##DESCRIPTION=Brownish red vein material with pronounced cleavage
##STATUS=The identification of this mineral is confirmed by single-crystal X-ray diffraction and chemical analysis.
##URL=rruff.info/R060580
##MEASURED CHEMISTRY=Na_0.94_(Ba_0.67_K_0.33_)_Σ=1.00_(Fe_2.97_Mn_0.71_Ca_0.33_Mg_0.03_)_Σ=4.04_(Ti_1.90_Zr_0.06_)_Σ=1.96_(Si_1.92_Fe^+3^_0.08_O_7_)_2_O_2_(OH)_2_F_0.83_
175.4918, 483.8109
175.9739, 475.8887
176.4561, 470.2122
176.9382, 467.6450
177.4203, 464.2654
177.9024, 458.6943
178.3845, 453.4660
178.8666, 450.2143
179.3488, 448.9991
179.8309, 448.5618
180.3130, 447.1942
180.7951, 444.2001
181.2772, 441.8420
181.7593, 439.8919
182.2415, 438.6173
182.7236, 438.4581
183.2057, 439.4423
183.6878, 440.9429
184.1699, 441.9968
184.6520, 442.1421
185.1342, 442.7870
185.6163, 444.3706
186.0984, 446.2911
186.5805, 447.8005
187.0626, 448.6501
187.5447, 449.3954
188.0269, 451.1201
188.5090, 454.1053
188.9911, 456.7513
189.4732, 458.0477
189.9553, 458.8727
190.4374, 460.9937
190.9196, 465.3592
191.4017, 470.2365
191.8838, 472.7989
192.3659, 472.8665
192.8480, 473.4873
193.3301, 476.6374
193.8123, 481.6101
194.2944, 485.8284
194.7765, 488.5261
195.2586, 490.3074
195.7407, 491.9845
196.2228, 493.5568
196.7050, 494.8034
197.1871, 495.0260
197.6692, 494.3242
198.1513, 495.0347
198.6334, 499.0267
199.1155, 503.4295
199.5977, 506.3119
200.0798, 507.5787
200.5619, 508.2450
201.0440, 509.3274
201.5261, 510.9545
202.0082, 512.1910
202.4904, 512.0598
202.9725, 512.1373
203.4546, 513.2460
203.9367, 515.4731
204.4188, 518.3729
204.9010, 521.5743
205.3831, 525.3975
205.8652, 528.4841
206.3473, 530.6301
206.8294, 532.2296
207.3115, 533.2047
207.7937, 533.6778
208.2758, 534.1427
208.7579, 535.4030
209.2400, 538.2987
209.7221, 540.0801
210.2042, 540.4384
210.6864, 540.1180
211.1685, 539.4993
211.6506, 538.7111
212.1327, 537.7947
212.6148, 536.7961
213.0969, 535.6908
213.5791, 534.5553
214.0612, 533.4187
214.5433, 532.2411
215.0254, 530.7507
215.5075, 528.9565
215.9896, 527.4548
216.4718, 527.2190
216.9539, 529.2148
217.4360, 530.1327
217.9181, 528.4520
218.4002, 526.3992
218.8823, 526.4610
219.3645, 529.2521
219.8466, 532.9343
220.3287, 534.8286
220.8108, 534.4420
221.2929, 535.2005
221.7750, 538.2068
222.2572, 542.3553
222.7393, 546.3648
223.2214, 549.9762
223.7035, 553.3818
224.1856, 556.7042
224.6677, 559.9386
225.1499, 563.3146
225.6320, 566.3033
226.1141, 569.6115
226.5962, 574.6604
227.0783, 582.0712
227.5604, 590.1110
228.0426, 597.0715
228.5247, 603.1629
229.0068, 609.4006
229.4889, 616.2092
229.9710, 623.3751
230.4531, 630.3595
230.9353, 636.7852
231.4174, 643.6852
231.8995, 651.8790
232.3816, 661.0893
232.8637, 670.6719
233.3458, 680.6605
233.8280, 690.8174
234.3101, 700.4910
234.7922, 709.3243
235.2743, 718.0974
235.7564, 727.4750
236.2385, 737.1120
236.7207, 746.3726
237.2028, 754.7870
237.6849, 762.4813
238.1670, 770.1783
238.6491, 778.1054
239.1312, 785.6448
239.6134, 792.7726
240.0955, 799.4170
240.5776, 805.5350
241.0597, 810.9855
241.5418, 815.8956
242.0239, 820.8129
242.5061, 826.3320
242.9882, 830.9709
243.4703, 833.4092
243.9524, 834.9773
244.4345, 837.6824
244.9166, 842.8108
245.3988, 849.8000
245.8809, 855.8941
246.3630, 860.4424
246.8451, 864.8421
247.3272, 869.1420
247.8093, 873.5400
248.2915, 878.2942
248.7736, 883.5754
249.2557, 889.2213
249.7378, 894.4985
250.2199, 898.9284
250.7020, 903.6037
251.1842, 908.7477
251.6663, 914.1580
252.1484, 919.4649
252.6305, 924.5126
253.1126, 929.5058
253.5947, 935.2647
254.0769, 943.8038
254.5590, 950.5394
255.0411, 954.2452
255.5232, 956.4160
256.0053, 958.9479
256.4874, 962.6201
256.9695, 966.4750
257.4517, 968.1974
257.9338, 966.3426
258.4159, 963.7925
258.8980, 960.9756
259.3801, 957.2930
259.8622, 952.0032
260.3444, 944.8617
260.8265, 936.3232
261.3086, 927.2476
261.7907, 917.5383
262.2728, 907.1889
262.7549, 896.1887
263.2371, 884.4984
263.7192, 871.8559
264.2013, 858.2004
264.6834, 844.3097
265.1655, 831.3156
265.6476, 819.5923
266.1298, 808.1096
266.6119, 796.8233
267.0940, 785.7307
267.5761, 774.6992
268.0582, 763.6883
268.5403, 753.3066
269.0225, 744.4297
269.5046, 737.5722
269.9867, 729.9847
270.4688, 719.8089
270.9509, 710.0315
271.4330, 703.6680
271.9152, 700.9642
272.3973, 699.3064
272.8794, 696.3107
273.3615, 691.8385
273.8436, 687.8437
274.3257, 683.4435
274.8079, 680.1447
275.2900, 679.8368
275.7721, 682.4002
276.2542, 685.1506
276.7363, 686.0441
277.2184, 685.2358
277.7006, 685.0051
278.1827, 685.6825
278.6648, 686.6764
279.1469, 686.9645
279.6290, 686.8077
280.1111, 688.4110
280.5933, 693.7336
281.0754, 701.7364
281.5575, 708.3461
282.0396, 712.6347
282.5217, 716.6676
283.0038, 721.5489
283.4860, 727.2239
283.9681, 733.4513
284.4502, 740.1562
284.9323, 747.3798
285.4144, 755.1869
285.8965, 763.8952
286.3787, 772.3924
286.8608, 779.6071
287.3429, 785.9789
287.8250, 793.4921
288.3071, 803.5308
288.7892, 813.9314
289.2714, 821.2853
289.7535, 825.2333
290.2356, 829.4372
290.7177, 835.6979
291.1998, 843.5087
291.6819, 851.8322
292.1641, 860.8699
292.6462, 869.5301
293.1283, 876.1391
293.6104, 880.9633
294.0925, 886.4569
294.5746, 893.1360
295.0568, 901.1932
295.5389, 911.3635
296.0210, 924.2224
296.5031, 937.7147
296.9852, 949.3877
297.4673, 960.1454
297.9495, 972.9420
298.4316, 989.7785
298.9137, 1008.741
299.3958, 1026.408
299.8779, 1042.090
300.3600, 1059.552
300.8422, 1082.395
301.3243, 1108.611
301.8064, 1134.630
302.2885, 1159.268
302.7706, 1184.139
303.2527, 1211.295
303.7349, 1240.955
304.2170, 1271.365
304.6991, 1301.717
305.1812, 1332.413
305.6633, 1363.940
306.1454, 1396.412
306.6276, 1429.380
307.1097, 1462.531
307.5918, 1495.800
308.0739, 1529.424
308.5560, 1563.717
309.0381, 1597.765
309.5203, 1630.516
310.0024, 1662.035
310.4845, 1692.722
310.9666, 1722.556
311.4487, 1751.664
311.9308, 1780.754
312.4130, 1810.859
312.8951, 1839.239
313.3772, 1862.854
313.8593, 1882.328
314.3414, 1900.767
314.8235, 1921.029
315.3057, 1941.383
315.7878, 1957.735
316.2699, 1969.645
316.7520, 1977.478
317.2341, 1981.398
317.7162, 1981.702
318.1984, 1978.153
318.6805, 1969.596
319.1626, 1957.634
319.6447, 1945.040
320.1268, 1932.212
320.6089, 1916.819
321.0911, 1895.696
321.5732, 1871.480
322.0553, 1847.859
322.5374, 1826.124
323.0195, 1804.073
323.5016, 1779.172
323.9838, 1751.253
324.4659, 1723.432
324.9480, 1696.383
325.4301, 1670.565
325.9122, 1646.907
326.3943, 1625.556
326.8765, 1604.731
327.3586, 1582.410
327.8407, 1559.097
328.3228, 1538.284
328.8050, 1521.515
329.2871, 1506.571
329.7692, 1491.448
330.2513, 1476.178
330.7334, 1460.554
331.2155, 1443.779
331.6977, 1426.695
332.1798, 1411.453
332.6619, 1398.659
333.1440, 1386.639
333.6261, 1373.813
334.1082, 1360.676
334.5904, 1348.423
335.0725, 1338.457
335.5546, 1329.149
336.0367, 1318.795
336.5188, 1307.499
337.0009, 1294.338
337.4831, 1277.599
337.9652, 1258.899
338.4473, 1241.456
338.9294, 1226.117
339.4115, 1211.305
339.8936, 1196.503
340.3758, 1181.478
340.8579, 1164.732
341.3400, 1144.714
341.8221, 1123.561
342.3042, 1104.654
342.7863, 1088.291
343.2685, 1071.906
343.7506, 1053.720
344.2327, 1034.589
344.7148, 1016.564
345.1969, 1000.129
345.6790, 984.7405
346.1612, 969.8184
346.6433, 955.3294
347.1254, 941.7751
347.6075, 930.2054
348.0896, 919.2141
348.5717, 907.0150
349.0539, 893.3561
349.5360, 879.9369
350.0181, 868.1073
350.5002, 857.5598
350.9823, 846.6761
351.4644, 835.0792
351.9466, 823.4365
352.4287, 812.0206
352.9108, 800.8941
353.3929, 790.1511
353.8750, 779.9918
354.3571, 770.1761
354.8393, 760.0392
355.3214, 749.3593
355.8035, 738.9249
356.2856, 729.3047
356.7677, 720.1037
357.2498, 710.6022
357.7320, 700.5607
358.2141, 690.2920
358.6962, 679.8572
359.1783, 669.0254
359.6604, 659.4747
360.1425, 652.1237
360.6247, 645.6402
361.1068, 638.7097
361.5889, 631.2042
362.0710, 624.1500
362.5531, 618.4099
363.0352, 614.0034
363.5174, 609.9168
363.9995, 606.0728
364.4816, 602.5651
364.9637, 599.3502
365.4458, 596.5092
365.9279, 594.3176
366.4101, 592.9863
366.8922, 592.2418
367.3743, 591.2145
367.8564, 589.2799
368.3385, 587.9504
368.8206, 587.3150
369.3028, 587.4249
369.7849, 588.5050
370.2670, 590.5784
370.7491, 593.1739
371.2312, 595.6166
371.7133, 597.6395
372.1955, 600.3673
372.6776, 604.7360
373.1597, 608.9641
373.6418, 611.4058
374.1239, 612.4993
374.6060, 614.3309
375.0882, 618.7668
375.5703, 625.6810
376.0524, 631.1092
376.5345, 633.1215
377.0166, 635.9232
377.4987, 641.1732
377.9809, 647.6340
378.4630, 653.6323
378.9451, 658.4023
379.4272, 662.0594
379.9093, 664.7920
380.3914, 665.8562
380.8736, 667.2215
381.3557, 669.1853
381.8378, 671.2803
382.3199, 673.2737
382.8020, 675.0792
383.2841, 676.6210
383.7663, 677.9142
384.2484, 679.0783
384.7305, 679.1525
385.2126, 677.1609
385.6947, 674.9545
386.1768, 673.1614
386.6590, 671.5842
387.1411, 669.6771
387.6232, 667.0239
388.1053, 663.9189
388.5874, 661.5142
389.0695, 660.3376
389.5517, 658.8705
390.0338, 656.1761
390.5159, 653.3810
390.9980, 651.5749
391.4801, 651.0533
391.9622, 651.1978
392.4444, 651.4092
392.9265, 651.7335
393.4086, 651.6775
393.8907, 650.5623
394.3728, 649.6547
394.8549, 650.0477
395.3371, 651.3936
395.8192, 652.3057
396.3013, 651.7581
396.7834, 650.1031
397.2655, 648.2597
397.7477, 645.7874
398.2298, 644.2930
398.7119, 645.9730
399.1940, 648.7211
399.6761, 649.7424
400.1582, 648.0233
400.6404, 645.0997
401.1225, 642.2969
401.6046, 639.5927
402.0867, 637.0850
402.5688, 635.1232
403.0509, 632.9797
403.5331, 629.6176
404.0152, 625.0087
404.4973, 620.6852
404.9794, 617.6650
405.4615, 615.2664
405.9436, 612.2990
406.4258, 608.6176
406.9079, 604.6077
407.3900, 600.5767
407.8721, 596.4941
408.3542, 592.1624
408.8363, 587.7021
409.3185, 582.8873
409.8006, 577.7987
410.2827, 572.2991
410.7648, 565.7137
411.2469, 557.4019
411.7290, 548.5310
412.2112, 541.9940
412.6933, 538.6425
413.1754, 535.0818
413.6575, 531.0291
414.1396, 526.3418
414.6217, 520.4605
415.1039, 513.4379
415.5860, 506.4531
416.0681, 500.6734
416.5502, 496.2030
417.0323, 491.9946
417.5144, 488.2919
417.9966, 484.5536
418.4787, 480.2536
418.9608, 475.7973
419.4429, 472.0015
419.9250, 469.3158
420.4071, 467.3432
420.8893, 464.9628
421.3714, 461.6035
421.8535, 458.7337
422.3356, 456.6322
422.8177, 454.8221
423.2998, 452.9088
423.7820, 450.8607
424.2641, 449.0074
424.7462, 447.8709
425.2283, 447.5712
425.7104, 446.0996
426.1925, 441.9792
426.6747, 438.2442
427.1568, 436.1180
427.6389, 434.8560
428.1210, 433.3364
428.6031, 431.0470
429.0852, 428.1268
429.5674, 424.5817
430.0495, 419.9282
430.5316, 416.3705
431.0137, 416.0883
431.4958, 415.9717
431.9779, 413.8597
432.4601, 409.6959
432.9422, 405.1993
433.4243, 401.5168
433.9064, 398.5533
434.3885, 396.1064
434.8706, 394.6992
435.3528, 392.5331
435.8349, 387.5380
436.3170, 381.1444
436.7991, 375.6924
437.2812, 372.0722
437.7633, 369.1416
438.2455, 365.8622
438.7276, 362.2993
439.2097, 359.0357
439.6918, 356.3729
440.1739, 353.9686
440.6560, 351.1816
441.1382, 347.9085
441.6203, 345.2078
442.1024, 343.7264
442.5845, 342.7812
443.0666, 341.7948
443.5487, 340.6632
444.0309, 339.0769
444.5130, 336.6395
444.9951, 333.5092
445.4772, 331.0971
445.9593, 330.4493
446.4414, 329.2165
446.9236, 326.0539
447.4057, 322.0429
447.8878, 318.6943
448.3699, 316.5338
448.8520, 315.3618
449.3341, 315.0246
449.8163, 316.2812
450.2984, 316.1427
450.7805, 313.6133
451.2626, 310.8338
451.7447, 308.6583
452.2268, 307.1735
452.7090, 306.2541
453.1911, 305.8568
453.6732, 305.8911
454.1553, 306.0090
454.6374, 306.3492
455.1195, 306.5277
455.6017, 306.2010
456.0838, 305.8873
456.5659, 305.9253
457.0480, 306.4140
457.5301, 307.4176
458.0122, 309.3588
458.4944, 312.2095
458.9765, 314.0640
459.4586, 314.3871
459.9407, 314.3869
460.4228, 314.3345
460.9049, 314.4831
461.3871, 315.3384
461.8692, 317.2247
462.3513, 319.6398
462.8334, 322.1457
463.3155, 324.7274
463.7976, 326.9615
464.2798, 328.6278
464.7619, 329.9848
465.2440, 331.2997
465.7261, 332.5664
466.2082, 333.9906
466.6903, 335.8087
467.1725, 337.7379
467.6546, 339.4181
468.1367, 340.8255
468.6188, 342.2041
469.1009, 343.7486
469.5830, 345.3729
470.0652, 346.6891
470.5473, 348.2303
471.0294, 348.8481
471.5115, 347.4833
471.9936, 345.3534
472.4757, 344.1467
472.9579, 344.2430
473.4400, 344.5320
473.9221, 343.5955
474.4042, 341.0800
474.8863, 339.3980
475.3684, 339.7082
475.8506, 339.5125
476.3327, 337.5362
476.8148, 334.4936
477.2969, 331.6741
477.7790, 329.7263
478.2611, 328.2032
478.7433, 326.0440
479.2254, 322.7163
479.7075, 320.3043
480.1896, 320.1895
480.6717, 320.1068
481.1538, 318.5755
481.6360, 315.8365
482.1181, 313.3150
482.6002, 312.3163
483.0823, 312.1322
483.5644, 310.6138
484.0465, 307.4618
484.5287, 304.0762
485.0108, 300.7339
485.4929, 297.6728
485.9750, 295.2404
486.4571, 293.5856
486.9392, 292.0637
487.4214, 290.2213
487.9035, 288.2382
488.3856, 286.6844
488.8677, 285.7228
489.3498, 284.4985
489.8319, 282.1586
490.3141, 278.7680
490.7962, 275.7585
491.2783, 272.8629
491.7604, 270.5970
492.2425, 269.6593
492.7246, 269.4209
493.2068, 268.5925
493.6889, 266.7245
494.1710, 264.6029
494.6531, 263.5259
495.1352, 264.0408
495.6173, 263.8761
496.0995, 262.2605
496.5816, 260.8144
497.0637, 260.4542
497.5458, 260.8759
498.0279, 261.4044
498.5100, 261.7022
498.9922, 261.6484
499.4743, 260.8187
499.9564, 258.7741
500.4385, 257.0672
500.9206, 255.8812
501.4027, 255.1109
501.8849, 254.8180
502.3670, 254.9410
502.8491, 255.2478
503.3312, 255.6837
503.8133, 256.1643
504.2954, 256.5467
504.7776, 256.9139
505.2597, 256.7636
505.7418, 255.4926
506.2239, 253.7599
506.7060, 252.4560
507.1881, 251.6327
507.6703, 251.2276
508.1524, 251.7259
508.6345, 252.4564
509.1166, 252.0202
509.5987, 250.2046
510.0808, 248.5336
510.5630, 248.3286
511.0451, 249.4520
511.5272, 250.1444
512.0093, 250.1721
512.4914, 250.1116
512.9735, 250.0420
513.4556, 250.0171
513.9377, 250.0163
514.4199, 250.0645
514.9020, 250.4380
515.3841, 251.7038
515.8662, 254.2497
516.3483, 255.0137
516.8304, 252.0382
517.3126, 249.3137
517.7947, 247.9919
518.2768, 247.6096
518.7589, 247.5340
519.2410, 247.5415
519.7231, 247.3717
520.2053, 246.5610
520.6874, 245.0632
521.1695, 243.5812
521.6516, 242.0082
522.1337, 240.7402
522.6158, 240.0605
523.0980, 239.8607
523.5801, 239.8470
524.0622, 240.0346
524.5443, 240.2498
525.0264, 240.3053
525.5085, 240.2214
525.9907, 240.0586
526.4728, 239.7539
526.9549, 239.5784
527.4370, 240.1577
527.9191, 241.7683
528.4012, 242.3750
528.8834, 240.9265
529.3655, 239.1425
529.8476, 237.9547
530.3297, 237.4382
530.8118, 237.6489
531.2939, 238.6687
531.7761, 240.0869
532.2582, 240.8440
532.7403, 240.5384
533.2224, 240.2777
533.7045, 239.8991
534.1866, 239.7160
534.6688, 240.1901
535.1509, 241.0543
535.6330, 241.4039
536.1151, 240.3342
536.5972, 238.7675
537.0793, 239.4951
537.5615, 243.1816
538.0436, 246.4147
538.5257, 248.0529
539.0078, 248.9202
539.4899, 249.6814
539.9720, 250.3661
540.4542, 250.8497
540.9363, 250.6743
541.4184, 250.4593
541.9005, 251.2330
542.3826, 252.9832
542.8647, 254.7769
543.3469, 256.1190
543.8290, 257.2155
544.3111, 258.6491
544.7932, 260.6826
545.2753, 262.3745
545.7574, 262.8835
546.2396, 263.5128
546.7217, 265.4649
547.2038, 268.6800
547.6859, 272.4087
548.1680, 276.2254
548.6501, 279.9737
549.1323, 282.8622
549.6144, 283.8169
550.0965, 285.7826
550.5786, 289.7885
551.0607, 294.2451
551.5428, 298.0328
552.0250, 301.0924
552.5071, 303.9456
552.9892, 306.6193
553.4713, 309.4924
553.9534, 313.9535
554.4355, 320.3203
554.9177, 326.6643
555.3998, 332.1801
555.8819, 337.3263
556.3640, 342.7101
556.8461, 348.3357
557.3282, 354.2096
557.8104, 360.5442
558.2925, 367.0424
558.7746, 373.2228
559.2567, 379.1600
559.7388, 385.3047
560.2209, 392.0403
560.7031, 399.0940
561.1852, 405.6009
561.6673, 410.4162
562.1494, 416.4366
562.6315, 424.4762
563.1136, 433.1257
563.5958, 441.6419
564.0779, 449.8646
564.5600, 457.5041
565.0421, 464.2466
565.5242, 470.5007
566.0063, 477.6671
566.4885, 485.8831
566.9706, 494.4800
567.4527, 502.9988
567.9348, 512.0776
568.4169, 522.2015
568.8990, 533.3007
569.3812, 545.1425
569.8633, 557.5390
570.3454, 570.5229
570.8275, 584.0802
571.3096, 598.2036
571.7917, 613.0350
572.2739, 628.7498
572.7560, 645.3060
573.2381, 662.6314
573.7202, 680.5654
574.2023, 700.1033
574.6844, 722.4184
575.1666, 745.5441
575.6487, 767.8251
576.1309, 789.7989
576.6130, 813.0292
577.0951, 838.4539
577.5772, 865.5137
578.0593, 893.1309
578.5414, 921.3455
579.0236, 949.9978
579.5057, 980.0900
579.9878, 1009.696
580.4699, 1038.611
580.9520, 1066.254
581.4341, 1091.950
581.9163, 1115.633
582.3984, 1136.704
582.8805, 1154.179
583.3626, 1168.187
583.8447, 1179.718
584.3268, 1189.626
584.8090, 1195.714
585.2911, 1195.295
585.7732, 1188.622
586.2553, 1177.876
586.7374, 1162.698
587.2195, 1144.066
587.7017, 1122.682
588.1838, 1098.197
588.6659, 1069.254
589.1480, 1035.630
589.6301, 999.9580
590.1122, 965.2141
590.5944, 931.5517
591.0765, 897.4424
591.5586, 861.6268
592.0407, 826.7229
592.5228, 793.0944
593.0049, 760.7800
593.4871, 730.0853
593.9692, 700.9255
594.4513, 672.9456
594.9334, 645.0072
595.4155, 617.6597
595.8976, 593.8419
596.3798, 574.1595
596.8619, 556.1722
597.3440, 538.9694
597.8261, 522.4741
598.3082, 506.3153
598.7903, 489.9067
599.2725, 475.3273
599.7546, 464.1273
600.2367, 454.5307
600.7188, 444.7969
601.2009, 434.7786
601.6830, 425.1743
602.1652, 416.4043
602.6473, 408.3893
603.1294, 400.8704
603.6115, 394.0872
604.0936, 387.3627
604.5757, 380.0519
605.0579, 373.3142
605.5400, 368.1967
606.0221, 364.3420
606.5042, 360.4095
606.9863, 355.5748
607.4684, 350.4355
607.9506, 346.0255
608.4327, 342.3157
608.9148, 338.3985
609.3969, 333.9150
609.8790, 329.3719
610.3611, 325.2164
610.8433, 321.4310
611.3254, 318.2371
611.8075, 316.1138
612.2896, 314.1119
612.7717, 311.7098
613.2538, 309.0962
613.7360, 306.5664
614.2181, 304.2163
614.7002, 302.0704
615.1823, 300.1355
615.6644, 298.4077
616.1465, 296.9490
616.6287, 295.7112
617.1108, 294.8458
617.5929, 294.7357
618.0750, 294.7954
618.5571, 294.2873
619.0392, 293.1072
619.5214, 292.1024
620.0035, 292.1820
620.4856, 292.8305
620.9677, 292.8779
621.4498, 292.2651
621.9319, 291.3877
622.4141, 290.2849
622.8962, 289.2018
623.3783, 288.6367
623.8604, 288.5237
624.3425, 289.0408
624.8246, 290.9743
625.3068, 292.8640
625.7889, 293.6628
626.2710, 293.5999
626.7531, 293.3181
627.2352, 293.1200
627.7173, 293.1812
628.1995, 293.9459
628.6816, 295.6027
629.1637, 296.9008
629.6458, 297.4688
630.1279, 298.0538
630.6100, 299.0713
631.0922, 300.3477
631.5743, 301.5812
632.0564, 302.7003
632.5385, 303.7574
633.0206, 304.8885
633.5027, 305.9593
633.9849, 306.5500
634.4670, 306.6210
634.9491, 306.9265
635.4312, 308.0917
635.9133, 309.8933
636.3954, 311.2824
636.8776, 311.2144
637.3597, 312.1551
637.8418, 315.2825
638.3239, 318.5392
638.8060, 320.2784
639.2881, 320.7762
639.7703, 321.3489
640.2524, 322.7632
640.7345, 324.7438
641.2166, 326.9861
641.6987, 329.5410
642.1808, 331.1682
642.6630, 330.9386
643.1451, 330.8519
643.6272, 333.2628
644.1093, 337.4395
644.5914, 340.6774
645.0735, 342.0765
645.5557, 343.0619
646.0378, 343.5794
646.5199, 344.3853
647.0020, 347.0507
647.4841, 351.5947
647.9662, 355.9654
648.4484, 358.2068
648.9305, 358.7097
649.4126, 360.3848
649.8947, 363.7079
650.3768, 367.3150
650.8589, 371.4991
651.3411, 375.4377
651.8232, 378.1836
652.3053, 380.0051
652.7874, 382.3956
653.2695, 386.5077
653.7516, 391.1666
654.2338, 394.8284
654.7159, 397.7101
655.1980, 400.8388
655.6801, 404.5279
656.1622, 408.3447
656.6443, 411.5908
657.1265, 414.1291
657.6086, 418.7324
658.0907, 428.0120
658.5728, 435.7870
659.0549, 439.2557
659.5370, 441.3614
660.0192, 445.1985
660.5013, 451.1992
660.9834, 457.8274
661.4655, 463.8785
661.9476, 469.5894
662.4297, 475.4565
662.9119, 481.4359
663.3940, 487.8770
663.8761, 495.0487
664.3582, 502.4948
664.8403, 509.6844
665.3224, 516.6334
665.8046, 523.4543
666.2867, 529.4792
666.7688, 536.0956
667.2509, 544.4382
667.7330, 553.7418
668.2151, 562.9147
668.6973, 571.6184
669.1794, 579.7103
669.6615, 586.9619
670.1436, 593.4893
670.6257, 600.9345
671.1078, 609.5715
671.5900, 618.6003
672.0721, 627.7065
672.5542, 637.2834
673.0363, 648.2656
673.5184, 660.4319
674.0005, 671.5986
674.4827, 679.9339
674.9648, 687.6877
675.4469, 697.2911
675.9290, 708.2216
676.4111, 718.6686
676.8932, 728.0323
677.3754, 737.5453
677.8575, 748.5753
678.3396, 761.1559
678.8217, 774.4240
679.3038, 790.8869
679.7859, 804.7556
680.2681, 812.5713
680.7502, 818.9775
681.2323, 828.1254
681.7144, 840.2898
682.1965, 853.3340
682.6786, 866.1813
683.1608, 878.7230
683.6429, 890.4299
684.1250, 901.4607
684.6071, 912.8668
685.0892, 925.1334
685.5714, 937.4182
686.0535, 948.6779
686.5356, 958.7441
687.0177, 969.9870
687.4998, 983.6813
687.9819, 996.7690
688.4641, 1008.097
688.9462, 1018.669
689.4283, 1029.433
689.9104, 1040.568
690.3925, 1052.012
690.8746, 1063.880
691.3568, 1075.791
691.8389, 1086.904
692.3210, 1097.234
692.8031, 1106.220
693.2852, 1112.864
693.7673, 1119.764
694.2495, 1130.382
694.7316, 1144.397
695.2137, 1156.076
695.6958, 1162.845
696.1779, 1170.195
696.6600, 1181.328
697.1422, 1193.244
697.6243, 1201.953
698.1064, 1207.475
698.5885, 1213.452
699.0706, 1222.899
699.5527, 1234.334
700.0349, 1243.395
700.5170, 1249.648
700.9991, 1256.276
701.4812, 1264.256
701.9633, 1272.279
702.4454, 1278.942
702.9276, 1284.692
703.4097, 1291.246
703.8918, 1300.050
704.3739, 1307.995
704.8560, 1313.359
705.3381, 1317.462
705.8203, 1322.440
706.3024, 1328.068
706.7845, 1331.898
707.2666, 1332.086
707.7487, 1329.911
708.2308, 1328.989
708.7130, 1329.808
709.1951, 1329.535
709.6772, 1327.288
710.1593, 1324.611
710.6414, 1323.302
711.1235, 1322.201
711.6057, 1318.546
712.0878, 1310.888
712.5699, 1303.034
713.0520, 1296.801
713.5341, 1291.459
714.0162, 1286.664
714.4984, 1282.050
714.9805, 1276.428
715.4626, 1269.022
715.9447, 1260.683
716.4268, 1252.862
716.9089, 1245.148
717.3911, 1239.879
717.8732, 1239.351
718.3553, 1238.129
718.8374, 1233.369
719.3195, 1226.524
719.8016, 1219.457
720.2838, 1212.311
720.7659, 1205.518
721.2480, 1199.292
721.7301, 1193.515
722.2122, 1188.413
722.6943, 1183.663
723.1765, 1178.288
723.6586, 1171.865
724.1407, 1164.524
724.6228, 1156.245
725.1049, 1146.722
725.5870, 1138.829
726.0692, 1133.819
726.5513, 1128.456
727.0334, 1121.027
727.5155, 1113.117
727.9976, 1106.510
728.4797, 1101.339
728.9619, 1096.055
729.4440, 1089.773
729.9261, 1083.333
730.4082, 1077.998
730.8903, 1073.078
731.3724, 1067.098
731.8546, 1059.590
732.3367, 1050.345
732.8188, 1038.642
733.3009, 1024.892
733.7830, 1014.081
734.2651, 1008.241
734.7473, 1000.953
735.2294, 989.0900
735.7115, 976.7138
736.1936, 966.7811
736.6757, 958.9547
737.1578, 951.0793
737.6400, 942.6621
738.1221, 933.7929
738.6042, 924.5432
739.0863, 914.8967
739.5684, 904.6721
740.0505, 893.9955
740.5327, 883.5583
741.0148, 873.8604
741.4969, 864.7608
741.9790, 855.7907
742.4611, 846.9445
742.9432, 838.3402
743.4254, 830.7419
743.9075, 822.4527
744.3896, 811.2361
744.8717, 799.0195
745.3538, 789.8624
745.8359, 785.7039
746.3181, 780.2640
746.8002, 769.2647
747.2823, 756.7200
747.7644, 746.8082
748.2465, 739.1683
748.7286, 731.2673
749.2108, 721.9837
749.6929, 712.2125
750.1750, 703.2537
750.6571, 695.1307
751.1392, 687.0623
751.6213, 679.0936
752.1035, 670.9908
752.5856, 662.6716
753.0677, 654.1400
753.5498, 645.3253
754.0319, 636.2073
754.5140, 627.5475
754.9962, 619.7737
755.4783, 612.2454
755.9604, 604.7934
756.4425, 597.2908
756.9246, 589.2650
757.4067, 580.7628
757.8889, 572.7789
758.3710, 566.2108
758.8531, 560.6158
759.3352, 554.5204
759.8173, 547.9037
760.2994, 541.1136
760.7816, 534.1252
761.2637, 527.2577
761.7458, 520.8797
762.2279, 514.9131
762.7100, 508.8769
763.1921, 502.6615
763.6743, 496.5749
764.1564, 490.7324
764.6385, 485.0509
765.1206, 479.4286
765.6027, 473.8818
766.0848, 468.5343
766.5670, 463.4357
767.0491, 458.3641
767.5312, 452.8504
768.0133, 447.0547
768.4954, 442.0099
768.9775, 437.8659
769.4597, 433.5603
769.9418, 428.3838
770.4239, 423.0140
770.9060, 418.7379
771.3881, 416.0210
771.8702, 412.5628
772.3524, 407.5941
772.8345, 402.8049
773.3166, 398.8536
773.7987, 395.3604
774.2808, 391.9439
774.7629, 388.5138
775.2451, 384.9839
775.7272, 381.1590
776.2093, 377.3551
776.6914, 374.3553
777.1735, 371.8566
777.6556, 368.4585
778.1378, 363.7932
778.6199, 359.0065
779.1020, 355.0121
779.5841, 351.7788
780.0662, 349.2558
780.5483, 348.0909
781.0305, 346.3995
781.5126, 343.5745
781.9947, 340.7164
782.4768, 338.3416
782.9589, 336.3089
783.4410, 334.3919
783.9232, 332.5957
784.4053, 330.5488
784.8874, 327.6363
785.3695, 324.6088
785.8516, 322.7448
786.3337, 321.6582
786.8159, 319.7053
787.2980, 316.2428
787.7801, 312.4541
788.2622, 309.8937
788.7443, 308.5376
789.2264, 307.0787
789.7086, 305.3363
790.1907, 304.0341
790.6728, 303.8792
791.1549, 303.7533
791.6370, 302.4691
792.1191, 300.1658
792.6013, 297.8158
793.0834, 295.2030
793.5655, 292.9954
794.0476, 291.4854
794.5297, 290.4836
795.0118, 290.1815
795.4940, 290.2283
795.9761, 289.5597
796.4582, 287.5163
796.9403, 284.9662
797.4224, 283.3459
797.9045, 282.4538
798.3867, 280.6710
798.8688, 277.6736
799.3509, 275.7819
799.8330, 276.6976
800.3151, 278.6000
800.7972, 278.0142
801.2794, 274.1177
801.7615, 270.9523
802.2436, 268.6078
802.7257, 266.7993
803.2078, 265.8725
803.6899, 265.1684
804.1721, 263.8866
804.6542, 262.0574
805.1363, 260.4997
805.6184, 259.8799
806.1005, 259.4715
806.5826, 258.4531
807.0648, 257.0896
807.5469, 256.0298
808.0290, 255.3498
808.5111, 254.6442
808.9932, 253.6328
809.4753, 252.3673
809.9575, 250.9483
810.4396, 249.3322
810.9217, 247.7296
811.4038, 246.1723
811.8859, 244.6007
812.3680, 242.7733
812.8502, 241.0166
813.3323, 239.7584
813.8144, 239.0096
814.2965, 238.8378
814.7786, 240.0548
815.2607, 241.0027
815.7429, 240.7886
816.2250, 239.6629
816.7071, 237.6433
817.1892, 235.0115
817.6713, 232.8958
818.1534, 232.3352
818.6356, 232.5636
819.1177, 232.0121
819.5998, 230.8145
820.0819, 230.1924
820.5640, 230.4542
821.0461, 230.4117
821.5283, 229.1512
822.0104, 227.0524
822.4925, 225.2441
822.9746, 223.5116
823.4567, 222.5295
823.9388, 222.9133
824.4210, 223.3332
824.9031, 223.7115
825.3852, 223.6578
825.8673, 222.4756
826.3494, 220.0999
826.8315, 217.8847
827.3137, 216.2450
827.7958, 215.2285
828.2779, 215.3496
828.7600, 215.9758
829.2421, 215.9671
829.7242, 215.1290
830.2064, 213.9187
830.6885, 212.6083
831.1706, 211.3586
831.6527, 210.6653
832.1348, 210.5558
832.6169, 210.1660
833.0991, 209.2870
833.5812, 208.4818
834.0633, 208.1406
834.5454, 208.0431
835.0275, 207.7388
835.5096, 207.2930
835.9918, 206.3996
836.4739, 203.9234
836.9560, 202.3289
837.4381, 203.3669
837.9202, 205.2361
838.4023, 205.9881
838.8845, 205.3965
839.3666, 204.3111
839.8487, 202.8869
840.3308, 201.5424
840.8129, 200.8645
841.2950, 200.5325
841.7772, 199.7777
842.2593, 198.5903
842.7414, 197.7053
843.2235, 197.6102
843.7056, 197.9778
844.1877, 198.3008
844.6699, 198.6384
845.1520, 197.9641
845.6341, 195.5979
846.1162, 194.1201
846.5983, 195.0325
847.0804, 196.9905
847.5626, 198.2856
848.0447, 198.9226
848.5268, 198.8938
849.0089, 197.3796
849.4910, 196.2534
849.9731, 196.1896
850.4553, 196.6139
850.9374, 197.1481
851.4195, 197.6820
851.9016, 198.0951
852.3837, 198.2945
852.8658, 198.5226
853.3480, 199.0694
853.8301, 199.7684
854.3122, 200.4342
854.7943, 200.9866
855.2764, 200.9771
855.7585, 200.2001
856.2407, 199.6727
856.7228, 200.9786
857.2049, 203.8882
857.6870, 205.3501
858.1691, 205.0030
858.6512, 204.5412
859.1334, 204.1470
859.6155, 204.1391
860.0976, 205.0732
860.5797, 206.6981
861.0618, 207.5823
861.5439, 206.8675
862.0261, 206.8618
862.5082, 208.5016
862.9903, 210.2181
863.4724, 211.0491
863.9545, 211.3329
864.4366, 211.6713
864.9188, 212.2211
865.4009, 212.9079
865.8830, 213.6941
866.3651, 214.5848
866.8472, 215.8023
867.3293, 217.0968
867.8115, 217.8141
868.2936, 217.8630
868.7757, 217.7320
869.2578, 217.7491
869.7399, 217.9832
870.2220, 218.7722
870.7042, 220.1639
871.1863, 220.8365
871.6684, 220.3391
872.1505, 220.4343
872.6326, 222.3891
873.1147, 225.0346
873.5969, 226.3790
874.0790, 226.1514
874.5611, 226.0588
875.0432, 226.2662
875.5253, 226.3847
876.0074, 226.1502
876.4896, 225.9335
876.9717, 226.0581
877.4538, 226.4897
877.9359, 227.0257
878.4180, 227.6976
878.9001, 228.2232
879.3823, 228.2757
879.8644, 228.2057
880.3465, 228.5341
880.8286, 229.0864
881.3107, 229.1337
881.7928, 228.4731
882.2750, 228.0722
882.7571, 229.1312
883.2392, 231.1973
883.7213, 232.7552
884.2034, 233.8548
884.6855, 235.4199
885.1677, 237.7148
885.6498, 240.0940
886.1319, 241.9958
886.6140, 243.6766
887.0961, 246.0300
887.5782, 249.2905
888.0604, 252.6276
888.5425, 255.8555
889.0246, 259.4018
889.5067, 263.4513
889.9888, 267.8982
890.4709, 272.6038
890.9531, 277.5801
891.4352, 282.9948
891.9173, 288.6611
892.3994, 295.0835
892.8815, 302.6974
893.3636, 310.9919
893.8458, 319.6326
894.3279, 328.4840
894.8100, 337.3941
895.2921, 346.2979
895.7742, 355.2753
896.2563, 364.0526
896.7385, 373.1111
897.2206, 383.0808
897.7027, 393.9903
898.1848, 405.7714
898.6669, 418.4221
899.1490, 431.3250
899.6312, 443.9190
900.1133, 456.3951
900.5954, 469.3483
901.0775, 482.7657
901.5596, 496.7885
902.0417, 511.8389
902.5239, 525.9254
903.0060, 537.2903
903.4881, 547.4984
903.9702, 559.9820
904.4523, 575.4821
904.9344, 590.1439
905.4166, 603.7174
905.8987, 616.7651
906.3808, 629.1022
906.8629, 641.3455
907.3450, 654.0706
907.8271, 667.1955
908.3093, 680.0948
908.7914, 693.1161
909.2735, 705.0848
909.7556, 714.5657
910.2377, 723.6570
910.7198, 734.8878
911.2020, 747.0291
911.6841, 757.4396
912.1662, 765.3362
912.6483, 771.8632
913.1304, 777.6194
913.6125, 782.9033
914.0947, 788.1652
914.5768, 793.3363
915.0589, 798.4934
915.5410, 803.5146
916.0231, 807.1230
916.5052, 808.5273
916.9874, 808.0320
917.4695, 806.3416
917.9516, 803.4798
918.4337, 798.2575
918.9158, 790.2732
919.3979, 781.6447
919.8801, 772.9963
920.3622, 764.2643
920.8443, 755.7627
921.3264, 747.2662
921.8085, 736.7259
922.2906, 722.7939
922.7728, 708.9312
923.2549, 694.8678
923.7370, 681.3502
924.2191, 669.5164
924.7012, 658.1338
925.1833, 645.3792
925.6655, 631.0049
926.1476, 616.2770
926.6297, 600.5428
927.1118, 585.8265
927.5939, 573.8235
928.0760, 562.8222
928.5582, 550.9999
929.0403, 538.3405
929.5224, 525.7042
930.0045, 513.3443
930.4866, 501.5167
930.9688, 490.8369
931.4509, 480.5042
931.9330, 469.0418
932.4151, 456.8591
932.8972, 445.2271
933.3793, 434.5800
933.8615, 425.0966
934.3436, 417.2354
934.8257, 410.1186
935.3078, 401.0831
935.7899, 390.3873
936.2720, 382.0257
936.7542, 376.7206
937.2363, 370.6168
937.7184, 361.5100
938.2005, 351.6234
938.6826, 344.3185
939.1647, 339.6378
939.6469, 335.2280
940.1290, 331.4165
940.6111, 327.0826
941.0932, 321.7272
941.5753, 316.2207
942.0574, 310.8669
942.5396, 305.8747
943.0217, 301.7704
943.5038, 298.8859
943.9859, 295.9150
944.4680, 293.0486
944.9501, 289.7313
945.4323, 284.8086
945.9144, 279.9961
946.3965, 277.1558
946.8786, 276.1406
947.3607, 275.5509
947.8428, 275.3417
948.3250, 274.5417
948.8071, 271.6814
949.2892, 268.8031
949.7713, 267.9420
950.2534, 268.5550
950.7355, 269.3019
951.2177, 269.8439
951.6998, 270.8518
952.1819, 273.1264
952.6640, 275.7463
953.1461, 277.1615
953.6282, 278.0100
954.1104, 279.7623
954.5925, 282.5360
955.0746, 285.8438
955.5567, 289.4756
956.0388, 293.0928
956.5209, 296.1821
957.0031, 298.8893
957.4852, 302.0001
957.9673, 305.5291
958.4494, 308.8387
958.9315, 311.7265
959.4136, 314.9997
959.8958, 319.3156
960.3779, 324.3554
960.8600, 329.5641
961.3421, 335.3761
961.8242, 338.8511
962.3063, 339.0346
962.7885, 339.2651
963.2706, 341.2126
963.7527, 342.8385
964.2348, 341.9703
964.7169, 338.8951
965.1990, 335.6917
965.6812, 332.4590
966.1633, 328.9487
966.6454, 325.6904
967.1275, 321.5551
967.6096, 315.6328
968.0917, 308.7930
968.5739, 302.1457
969.0560, 295.7307
969.5381, 288.9909
970.0202, 281.3300
970.5023, 273.8521
970.9844, 266.9556
971.4666, 260.3589
971.9487, 253.8003
972.4308, 247.3006
972.9129, 240.9371
973.3950, 234.7265
973.8771, 228.5263
974.3593, 221.8364
974.8414, 215.4573
975.3235, 210.1104
975.8056, 205.4922
976.2877, 201.3932
976.7698, 197.5761
977.2520, 193.4008
977.7341, 188.5469
978.2162, 183.8618
978.6983, 180.4689
979.1804, 177.7820
979.6625, 174.3936
980.1447, 170.7651
980.6268, 168.8382
981.1089, 168.8198
981.5910, 168.6334
982.0731, 166.8556
982.5552, 164.0872
983.0374, 161.2487
983.5195, 158.3649
984.0016, 155.3418
984.4837, 152.1784
984.9658, 150.4246
985.4479, 150.7269
985.9301, 150.9859
986.4122, 149.0395
986.8943, 145.8660
987.3764, 145.4440
987.8585, 148.5068
988.3406, 149.1917
988.8228, 146.3419
989.3049, 144.1442
989.7870, 144.5969
990.2691, 145.9327
990.7512, 146.0560
991.2333, 145.0826
991.7155, 144.4402
992.1976, 144.0394
992.6797, 144.1996
993.1618, 145.6154
993.6439, 146.6569
994.1260, 146.2265
994.6082, 145.1729
995.0903, 144.7052
995.5724, 144.8432
996.0545, 144.9551
996.5366, 144.7799
997.0187, 144.9194
997.5009, 145.8450
997.9830, 146.7308
998.4651, 146.9039
998.9472, 146.7658
999.4293, 146.8574
999.9114, 147.2214
1000.394, 148.4783
1000.876, 151.9586
1001.358, 154.8820
1001.840, 155.4952
1002.322, 155.5306
1002.804, 156.5385
1003.286, 158.2657
1003.768, 159.7679
1004.250, 160.7640
1004.733, 161.8783
1005.215, 163.0910
1005.697, 164.9179
1006.179, 168.2903
1006.661, 172.1534
1007.143, 175.0433
1007.625, 177.0859
1008.107, 179.3694
1008.590, 182.3445
1009.072, 185.5188
1009.554, 188.3579
1010.036, 191.7829
1010.518, 194.7727
1011.000, 198.6583
1011.482, 202.5056
1011.964, 206.1460
1012.446, 209.1198
1012.929, 211.0811
1013.411, 213.4881
1013.893, 218.6738
1014.375, 225.2816
1014.857, 230.4280
1015.339, 234.5196
1015.821, 239.3362
1016.303, 245.2318
1016.786, 251.4545
1017.268, 257.4882
1017.750, 263.6527
1018.232, 270.7746
1018.714, 277.4726
1019.196, 285.5464
1019.678, 291.8572
1020.160, 299.0949
1020.642, 306.4164
1021.125, 315.8122
1021.607, 321.6401
1022.089, 330.1994
1022.571, 338.1034
1023.053, 345.3159
1023.535, 354.5194
1024.017, 362.0264
1024.499, 369.2249
1024.981, 376.6420
1025.464, 383.2910
1025.946, 388.1315
1026.428, 391.7233
1026.910, 396.1544
1027.392, 401.7646
1027.874, 404.6875
1028.356, 404.3145
1028.838, 403.6880
1029.321, 404.0933
1029.803, 403.8980
1030.285, 401.4704
1030.767, 397.0989
1031.249, 392.2478
1031.731, 387.3546
1032.213, 379.9330
1032.695, 368.6544
1033.177, 358.1431
1033.660, 350.7412
1034.142, 343.7366
1034.624, 334.2334
1035.106, 322.5970
1035.588, 311.4585
1036.070, 300.4561
1036.552, 290.8994
1037.034, 283.6662
1037.516, 276.4080
1037.999, 268.2447
1038.481, 259.7540
1038.963, 251.2409
1039.445, 242.8644
1039.927, 235.8827
1040.409, 231.4050
1040.891, 226.3505
1041.373, 220.1262
1041.856, 214.0940
1042.338, 208.7234
1042.820, 203.8572
1043.302, 199.3712
1043.784, 195.2585
1044.266, 191.3394
1044.748, 187.8373
1045.230, 184.1684
1045.713, 179.8848
1046.195, 175.9541
1046.677, 172.6279
1047.159, 169.9198
1047.641, 168.1707
1048.123, 167.1652
1048.605, 165.4890
1049.087, 162.8191
1049.569, 159.7661
1050.052, 155.4800
1050.534, 151.9422
1051.016, 150.5582
1051.498, 150.0447
1051.980, 148.9953
1052.462, 147.4265
1052.944, 146.1223
1053.426, 145.6427
1053.908, 144.5635
1054.391, 141.6627
1054.873, 139.1368
1055.355, 138.7041
1055.837, 138.8155
1056.319, 137.3893
1056.801, 134.6873
1057.283, 132.8492
1057.765, 132.6920
1058.248, 132.6848
1058.730, 132.8286
1059.212, 132.4960
1059.694, 130.8982
1060.176, 128.9414
1060.658, 127.5761
1061.140, 126.8449
1061.622, 126.4184
1062.104, 126.2710
1062.587, 126.2501
1063.069, 126.9053
1063.551, 126.9868
1064.033, 125.0690
1064.515, 122.6673
1064.997, 121.5100
1065.479, 121.5431
1065.961, 121.8813
1066.443, 122.5029
1066.926, 122.5736
1067.408, 121.1135
1067.890, 119.7348
1068.372, 119.7683
1068.854, 120.1365
1069.336, 119.4321
1069.818, 117.8909
1070.301, 116.7872
1070.783, 116.6014
1071.265, 116.2673
1071.747, 115.0545
1072.229, 113.8495
1072.711, 113.1159
1073.193, 112.7242
1073.675, 112.5914
1074.157, 112.6517
1074.640, 112.9034
1075.122, 113.4336
1075.604, 113.4530
1076.086, 112.1284
1076.568, 110.7511
1077.050, 110.0546
1077.532, 109.7043
1078.014, 109.3102
1078.496, 108.9524
1078.979, 109.0276
1079.461, 109.6704
1079.943, 110.0747
1080.425, 109.7947
1080.907, 109.2706
1081.389, 108.6878
1081.871, 108.0251
1082.353, 107.1355
1082.836, 106.1817
1083.318, 105.4525
1083.800, 105.0169
1084.282, 104.9242
1084.764, 105.7036
1085.246, 106.1820
1085.728, 105.4470
1086.210, 104.4625
1086.693, 103.9706
1087.175, 103.8922
1087.657, 104.1745
1088.139, 104.7244
1088.621, 104.6389
1089.103, 102.5947
1089.585, 101.1981
1090.067, 102.4432
1090.549, 103.8973
1091.031, 103.4551
1091.514, 102.0940
1091.996, 101.4288
1092.478, 101.6300
1092.960, 101.9051
1093.442, 102.1583
1093.924, 102.1340
1094.406, 101.4217
1094.888, 100.7419
1095.371, 100.5932
1095.853, 100.7379
1096.335, 100.8330
1096.817, 100.8856
1097.299, 101.2656
1097.781, 102.7173
1098.263, 102.8330
1098.745, 98.76717
1099.228, 95.63581
1099.710, 97.34495
1100.192, 100.4242
1100.674, 100.9450
1101.156, 99.44935
1101.638, 98.90656
1102.120, 100.2172
1102.602, 101.1776
1103.084, 101.3015
1103.567, 100.9155
1104.049, 99.68468
1104.531, 98.40971
1105.013, 97.74593
1105.495, 97.56875
1105.977, 97.43906
1106.459, 97.24051
1106.941, 97.52573
1107.423, 99.03835
1107.906, 100.1376
1108.388, 99.65546
1108.870, 99.37296
1109.352, 101.4409
1109.834, 104.0751
1110.316, 103.6188
1110.798, 99.66866
1111.280, 97.57609
1111.763, 99.52021
1112.245, 100.6770
1112.727, 99.60924
1113.209, 98.60842
1113.691, 99.14553
1114.173, 100.1385
1114.655, 99.99026
1115.137, 98.83388
1115.620, 98.57508
1116.102, 100.5265
1116.584, 101.0154
1117.066, 98.78621
1117.548, 96.88650
1118.030, 96.49348
1118.512, 96.71059
1118.994, 96.69216
1119.476, 96.56935
1119.958, 96.94765
1120.441, 98.27773
1120.923, 98.57220
1121.405, 97.02983
1121.887, 96.26185
1122.369, 97.28048
1122.851, 98.61837
1123.333, 99.28164
1123.815, 99.41895
1124.298, 99.26353
1124.780, 98.73917
1125.262, 99.01179
1125.744, 100.4442
1126.226, 101.3121
1126.708, 101.2692
1127.190, 100.7553
1127.672, 99.87702
1128.155, 99.00310
1128.637, 98.71909
1129.119, 98.25128
1129.601, 98.00246
1130.083, 98.18406
1130.565, 98.15356
1131.047, 98.83225
1131.529, 99.79372
1132.011, 100.9521
1132.494, 101.6467
1132.976, 101.0671
1133.458, 101.5745
1133.940, 99.78008
1134.422, 100.8351
1134.904, 100.6879
1135.386, 99.34399
1135.868, 99.32457
1136.350, 101.2724
1136.833, 102.6647
1137.315, 101.6268
1137.797, 99.63074
1138.279, 99.00584
1138.761, 99.51001
1139.243, 100.7765
1139.725, 102.4384
1140.207, 102.6671
1140.690, 101.4402
1141.172, 100.7303
1141.654, 101.4674
1142.136, 102.5558
1142.618, 102.8976
1143.100, 102.7686
1143.582, 102.6146
1144.064, 102.3494
1144.547, 101.5578
1145.029, 100.5022
1145.511, 100.0030
1145.993, 100.2948
1146.475, 101.1595
1146.957, 102.7520
1147.439, 104.0719
1147.921, 103.8327
1148.403, 103.0144
1148.885, 102.4239
1149.368, 102.3250
1149.850, 103.5836
1150.332, 105.7181
1150.814, 106.3849
1151.296, 104.2959
1151.778, 102.6339
1152.260, 104.1801
1152.742, 105.7951
1153.225, 104.9921
1153.707, 103.4382
1154.189, 102.7113
1154.671, 102.8464
1155.153, 103.7237
1155.635, 105.3349
1156.117, 106.1899
1156.599, 104.9910
1157.082, 104.1514
1157.564, 104.4527
1158.046, 105.3011
1158.528, 106.9852
1159.010, 108.5773
1159.492, 108.7304
1159.974, 107.5604
1160.456, 106.5752
1160.938, 105.4127
1161.421, 105.3802
1161.903, 107.6783
1162.385, 109.4609
1162.867, 109.6427
1163.349, 109.4047
1163.831, 109.6229
1164.313, 110.1134
1164.795, 110.4144
1165.277, 110.4886
1165.760, 110.6717
1166.242, 110.8924
1166.724, 111.4923
1167.206, 112.6347
1167.688, 113.8496
1168.170, 115.0167
1168.652, 115.7597
1169.134, 115.4746
1169.617, 114.4506
1170.099, 114.0685
1170.581, 114.3357
1171.063, 114.5469
1171.545, 114.6559
1172.027, 115.5945
1172.509, 117.6730
1172.991, 119.2440
1173.474, 118.9977
1173.956, 117.8684
1174.438, 117.3614
1174.920, 117.3185
1175.402, 117.0411
1175.884, 116.7846
1176.366, 118.0494
1176.848, 120.5152
1177.330, 121.2078
1177.813, 118.9530
1178.295, 116.7693
1178.777, 117.6415
1179.259, 119.5266
1179.741, 119.7003
1180.223, 119.3857
1180.705, 120.3041
1181.187, 122.1907
1181.669, 124.5793
1182.152, 127.0565
1182.634, 128.4403
1183.116, 127.9780
1183.598, 127.1455
1184.080, 126.5104
1184.562, 126.1348
1185.044, 126.0796
1185.526, 126.2878
1186.009, 126.7019
1186.491, 127.3290
1186.973, 128.2387
1187.455, 129.4521
1187.937, 130.6958
1188.419, 132.5962
1188.901, 133.5137
1189.383, 132.2213
1189.865, 130.9465
1190.348, 130.5494
1190.830, 130.9568
1191.312, 132.4945
1191.794, 134.7933
1192.276, 136.0005
1192.758, 135.7853
1193.240, 135.6012
1193.722, 135.4637
1194.204, 135.2563
1194.687, 134.8076
1195.169, 134.7500
1195.651, 135.4944
1196.133, 136.8825
1196.615, 138.9200
1197.097, 141.2694
1197.579, 141.4086
1198.061, 139.5238
1198.544, 139.5316
1199.026, 141.6437
1199.508, 143.2237
1199.990, 143.3828
1200.472, 142.9286
1200.954, 142.3969
1201.436, 142.0915
1201.918, 142.6509
1202.401, 143.6641
1202.883, 144.2539
1203.365, 144.6312
1203.847, 145.4614
1204.329, 146.6377
1204.811, 147.6175
1205.293, 148.1659
1205.775, 147.7883
1206.257, 145.2198
1206.740, 142.8964
1207.222, 142.6143
1207.704, 143.3432
1208.186, 144.6148
1208.668, 145.9859
1209.150, 146.8221
1209.632, 147.2238
1210.114, 148.0587
1210.596, 149.8277
1211.079, 150.9923
1211.561, 150.8011
1212.043, 150.5969
1212.525, 150.7537
1213.007, 151.0518
1213.489, 151.2631
1213.971, 151.5824
1214.453, 152.3822
1214.936, 153.6227
1215.418, 154.5947
1215.900, 155.2715
1216.382, 155.7354
1216.864, 155.9164
1217.346, 156.1807
1217.828, 156.6289
1218.310, 157.2636
1218.792, 158.0931
1219.275, 159.1256
1219.757, 160.5632
1220.239, 162.1913
1220.721, 162.6180
1221.203, 162.2547
1221.685, 163.6036
1222.167, 166.4779
1222.649, 167.9496
1223.131, 167.1175
1223.614, 166.0665
1224.096, 166.3129
1224.578, 167.2088
1225.060, 168.0246
1225.542, 169.1026
1226.024, 171.2732
1226.506, 173.7292
1226.988, 175.2866
1227.471, 175.9227
1227.953, 175.9902
1228.435, 175.5567
1228.917, 175.3105
1229.399, 175.2429
1229.881, 175.7970
1230.363, 177.4129
1230.845, 179.3612
1231.328, 181.8269
1231.810, 183.9442
1232.292, 184.2724
1232.774, 183.3932
1233.256, 183.6924
1233.738, 185.6221
1234.220, 186.7015
1234.702, 186.4969
1235.184, 186.9008
1235.667, 188.4261
1236.149, 189.8674
1236.631, 190.5270
1237.113, 191.1647
1237.595, 192.7425
1238.077, 194.9258
1238.559, 196.9171
1239.041, 198.6329
1239.523, 199.5325
1240.006, 199.7425
1240.488, 199.5301
1240.970, 199.2497
1241.452, 200.5781
1241.934, 204.3734
1242.416, 208.2447
1242.898, 209.6447
1243.380, 210.4643
1243.863, 212.5703
1244.345, 215.1740
1244.827, 217.3703
1245.309, 219.4226
1245.791, 222.2104
1246.273, 225.5094
1246.755, 227.6420
1247.237, 227.6784
1247.719, 228.3054
1248.202, 230.3627
1248.684, 232.7652
1249.166, 235.6391
1249.648, 238.2332
1250.130, 239.7159
1250.612, 241.1053
1251.094, 243.9770
1251.576, 247.9880
1252.058, 250.8006
1252.541, 252.2227
1253.023, 253.7095
1253.505, 255.2493
1253.987, 257.7215
1254.469, 261.3519
1254.951, 265.2498
1255.433, 268.9317
1255.915, 272.1215
1256.398, 274.3418
1256.880, 276.0450
1257.362, 278.0558
1257.844, 280.2302
1258.326, 281.9821
1258.808, 283.7402
1259.290, 286.6500
1259.772, 290.7420
1260.255, 295.2306
1260.737, 299.8622
1261.219, 304.2574
1261.701, 308.2604
1262.183, 311.9152
1262.665, 314.8649
1263.147, 317.8987
1263.629, 321.6700
1264.111, 325.8289
1264.594, 330.0218
1265.076, 334.1425
1265.558, 337.6310
1266.040, 341.9548
1266.522, 343.7398
1267.004, 349.6340
1267.486, 354.4066
1267.968, 357.2246
1268.450, 359.8567
1268.933, 363.1271
1269.415, 367.1962
1269.897, 372.5346
1270.379, 378.2555
1270.861, 381.7379
1271.343, 384.0213
1271.825, 388.5659
1272.307, 394.6934
1272.790, 399.9567
1273.272, 404.1188
1273.754, 408.0010
1274.236, 411.9789
1274.718, 416.8041
1275.200, 423.9541
1275.682, 430.5892
1276.164, 433.9025
1276.646, 437.3467
1277.129, 443.7901
1277.611, 451.4272
1278.093, 458.5691
1278.575, 464.9409
1279.057, 469.5826
1279.539, 472.0651
1280.021, 476.6310
1280.503, 483.9901
1280.985, 491.1563
1281.468, 497.9598
1281.950, 504.5179
1282.432, 510.7558
1282.914, 517.3225
1283.396, 524.8270
1283.878, 532.9431
1284.360, 541.0817
1284.842, 549.1794
1285.325, 557.0660
1285.807, 564.8713
1286.289, 0.0000000E+00
1286.771, 0.0000000E+00
1287.253, 0.0000000E+00
1287.735, 0.0000000E+00
1288.217, 0.0000000E+00
1288.699, 0.0000000E+00
1289.182, 0.0000000E+00
1289.664, 0.0000000E+00
1290.146, 0.0000000E+00
1290.628, 0.0000000E+00
1291.110, 0.0000000E+00
1291.592, 0.0000000E+00
1292.074, 0.0000000E+00
1292.556, 0.0000000E+00
##END=



