##NAMES=Johachidolite
##RRUFFID=R070640
##IDEAL CHEMISTRY=CaAlB_3_O_7_
##LOCALITY=Pyant Gyi mine, Mogok Stone Tract, Mandalay Division, Burma
##OWNER=RRUFF
##SOURCE=Marcus Origlieri
##DESCRIPTION=Pale yellowish orange granular
##STATUS=The identification of this mineral has been confirmed by X-ray diffraction and chemical analysis
##URL=rruff.info/R070640
##MEASURED CHEMISTRY=Ca_1.00_Al_1.00_B_3.00_O_7_; B estimated by difference
129.2875, 1173.763
129.7696, 1169.603
130.2518, 1176.325
130.7339, 1195.971
131.2160, 1214.893
131.6981, 1210.842
132.1802, 1187.411
132.6623, 1173.434
133.1445, 1186.261
133.6266, 1220.291
134.1087, 1236.279
134.5908, 1230.735
135.0729, 1216.292
135.5550, 1211.907
136.0372, 1217.931
136.5193, 1230.390
137.0014, 1249.935
137.4835, 1277.292
137.9656, 1300.838
138.4477, 1321.576
138.9299, 1337.281
139.4120, 1339.310
139.8941, 1324.796
140.3762, 1303.116
140.8583, 1278.255
141.3404, 1245.838
141.8226, 1225.214
142.3047, 1225.064
142.7868, 1246.459
143.2689, 1250.180
143.7510, 1227.592
144.2331, 1194.973
144.7152, 1173.419
145.1974, 1168.818
145.6795, 1165.631
146.1616, 1158.521
146.6437, 1143.050
147.1258, 1135.104
147.6079, 1138.916
148.0901, 1150.120
148.5722, 1156.987
149.0543, 1160.384
149.5364, 1158.862
150.0185, 1151.713
150.5006, 1129.746
150.9828, 1112.993
151.4649, 1102.986
151.9470, 1099.347
152.4291, 1098.073
152.9112, 1096.275
153.3933, 1098.164
153.8755, 1106.727
154.3576, 1142.121
154.8397, 1164.790
155.3218, 1159.522
155.8039, 1119.887
156.2860, 1092.892
156.7682, 1095.349
157.2503, 1112.780
157.7324, 1127.294
158.2145, 1138.439
158.6966, 1142.960
159.1787, 1137.969
159.6609, 1118.076
160.1430, 1100.253
160.6251, 1091.112
161.1072, 1088.018
161.5893, 1084.872
162.0714, 1077.824
162.5536, 1070.981
163.0357, 1067.267
163.5178, 1070.391
163.9999, 1073.440
164.4820, 1073.073
164.9641, 1069.708
165.4463, 1065.860
165.9284, 1063.926
166.4105, 1061.788
166.8926, 1057.156
167.3747, 1042.925
167.8568, 1030.276
168.3390, 1028.093
168.8211, 1037.191
169.3032, 1047.898
169.7853, 1055.401
170.2674, 1060.127
170.7495, 1062.821
171.2317, 1063.002
171.7138, 1061.722
172.1959, 1059.688
172.6780, 1056.660
173.1601, 1054.079
173.6422, 1053.894
174.1244, 1055.416
174.6065, 1056.369
175.0886, 1054.566
175.5707, 1051.581
176.0528, 1049.928
176.5349, 1050.975
177.0171, 1052.302
177.4992, 1049.877
177.9813, 1044.250
178.4634, 1040.082
178.9455, 1043.684
179.4276, 1051.510
179.9098, 1055.283
180.3919, 1049.119
180.8740, 1039.094
181.3561, 1036.891
181.8382, 1042.926
182.3203, 1048.600
182.8025, 1040.443
183.2846, 1022.875
183.7667, 1013.491
184.2488, 1030.317
184.7309, 1061.489
185.2130, 1069.910
185.6951, 1051.740
186.1773, 1024.612
186.6594, 1009.187
187.1415, 1005.146
187.6236, 1007.908
188.1057, 1022.660
188.5878, 1044.665
189.0700, 1048.356
189.5521, 1025.475
190.0342, 993.1581
190.5163, 985.1241
190.9984, 1002.120
191.4805, 1022.342
191.9627, 1030.307
192.4448, 1026.815
192.9269, 1021.654
193.4090, 1015.482
193.8911, 1009.213
194.3732, 1005.173
194.8554, 1003.186
195.3375, 1004.241
195.8196, 1012.411
196.3017, 1028.028
196.7838, 1036.534
197.2659, 1032.142
197.7481, 1017.019
198.2302, 1004.086
198.7123, 992.4117
199.1944, 985.5934
199.6765, 990.9418
200.1586, 1010.526
200.6408, 1026.753
201.1229, 1031.932
201.6050, 1025.820
202.0871, 1023.903
202.5692, 1027.615
203.0513, 1033.269
203.5335, 1034.522
204.0156, 1030.594
204.4977, 1025.434
204.9798, 1019.739
205.4619, 1012.911
205.9440, 1010.706
206.4262, 1015.147
206.9083, 1022.916
207.3904, 1024.616
207.8725, 1017.762
208.3546, 1011.596
208.8367, 1013.220
209.3189, 1025.968
209.8010, 1032.270
210.2831, 1029.778
210.7652, 1019.910
211.2473, 1007.500
211.7294, 989.8960
212.2116, 974.9672
212.6937, 969.3187
213.1758, 974.9998
213.6579, 983.6995
214.1400, 996.9085
214.6221, 1013.751
215.1043, 1018.257
215.5864, 1003.792
216.0685, 986.7101
216.5506, 985.3948
217.0327, 1008.271
217.5148, 1025.132
217.9970, 1026.958
218.4791, 1012.431
218.9612, 1005.646
219.4433, 1010.407
219.9254, 1019.059
220.4075, 1020.864
220.8897, 1011.460
221.3718, 1004.077
221.8539, 1003.156
222.3360, 1010.018
222.8181, 1017.104
223.3002, 1025.938
223.7824, 1033.962
224.2645, 1035.862
224.7466, 1028.476
225.2287, 1020.446
225.7108, 1014.437
226.1929, 1009.388
226.6750, 1009.969
227.1572, 1019.882
227.6393, 1034.341
228.1214, 1040.396
228.6035, 1033.052
229.0856, 1024.689
229.5677, 1021.763
230.0499, 1028.031
230.5320, 1030.975
231.0141, 1028.413
231.4962, 1022.043
231.9783, 1019.120
232.4604, 1022.010
232.9426, 1025.307
233.4247, 1025.181
233.9068, 1017.741
234.3889, 1015.022
234.8710, 1019.358
235.3531, 1029.998
235.8353, 1040.304
236.3174, 1053.239
236.7995, 1062.539
237.2816, 1061.818
237.7637, 1041.181
238.2458, 1029.925
238.7280, 1035.283
239.2101, 1056.924
239.6922, 1073.194
240.1743, 1085.739
240.6564, 1091.307
241.1385, 1084.932
241.6207, 1054.770
242.1028, 1033.882
242.5849, 1031.644
243.0670, 1050.196
243.5491, 1059.376
244.0313, 1052.517
244.5134, 1041.858
244.9955, 1042.310
245.4776, 1060.975
245.9597, 1078.569
246.4418, 1091.081
246.9240, 1098.446
247.4061, 1100.957
247.8882, 1097.460
248.3703, 1089.961
248.8524, 1080.376
249.3345, 1064.611
249.8167, 1053.914
250.2988, 1053.149
250.7809, 1066.215
251.2630, 1073.421
251.7451, 1072.017
252.2272, 1066.301
252.7094, 1063.804
253.1915, 1065.105
253.6736, 1068.660
254.1557, 1074.527
254.6378, 1084.352
255.1199, 1091.158
255.6021, 1093.177
256.0842, 1092.978
256.5663, 1096.339
257.0484, 1104.861
257.5305, 1114.228
258.0126, 1123.433
258.4948, 1134.735
258.9769, 1138.870
259.4590, 1131.226
259.9411, 1118.032
260.4232, 1117.288
260.9053, 1134.793
261.3875, 1154.190
261.8696, 1166.953
262.3517, 1170.174
262.8338, 1174.998
263.3159, 1180.952
263.7980, 1189.101
264.2802, 1202.918
264.7623, 1223.262
265.2444, 1247.751
265.7265, 1274.499
266.2086, 1301.144
266.6907, 1337.144
267.1729, 1384.699
267.6550, 1441.470
268.1371, 1501.504
268.6192, 1566.874
269.1013, 1629.589
269.5834, 1684.108
270.0656, 1729.456
270.5477, 1766.987
271.0298, 1792.425
271.5119, 1810.364
271.9940, 1843.388
272.4761, 1896.163
272.9583, 1951.543
273.4404, 1992.641
273.9225, 2013.584
274.4046, 2054.816
274.8867, 2129.272
275.3688, 2227.635
275.8510, 2305.942
276.3331, 2356.687
276.8152, 2408.701
277.2973, 2485.246
277.7794, 2587.410
278.2615, 2702.580
278.7437, 2825.510
279.2258, 2959.896
279.7079, 3119.794
280.1900, 3303.251
280.6721, 3519.492
281.1542, 3781.505
281.6364, 4091.698
282.1185, 4427.535
282.6006, 4816.155
283.0827, 5223.076
283.5648, 5528.567
284.0469, 5740.923
284.5291, 5810.510
285.0112, 5656.533
285.4933, 5283.976
285.9754, 4847.321
286.4575, 4358.044
286.9396, 3842.628
287.4217, 3397.280
287.9038, 3023.667
288.3860, 2707.468
288.8681, 2438.444
289.3502, 2217.959
289.8323, 2037.463
290.3144, 1903.554
290.7965, 1806.637
291.2787, 1726.061
291.7608, 1662.194
292.2429, 1607.969
292.7250, 1553.934
293.2071, 1502.061
293.6892, 1462.696
294.1714, 1446.323
294.6535, 1441.999
295.1356, 1422.444
295.6177, 1386.818
296.0998, 1353.377
296.5819, 1344.196
297.0641, 1352.180
297.5462, 1353.480
298.0283, 1333.939
298.5104, 1306.312
298.9925, 1291.820
299.4746, 1290.498
299.9568, 1294.785
300.4389, 1301.514
300.9210, 1308.842
301.4031, 1312.534
301.8852, 1307.136
302.3673, 1299.491
302.8495, 1298.514
303.3316, 1304.117
303.8137, 1312.595
304.2958, 1320.938
304.7779, 1330.026
305.2600, 1341.329
305.7422, 1358.565
306.2243, 1376.224
306.7064, 1384.593
307.1885, 1384.548
307.6706, 1392.376
308.1527, 1431.273
308.6349, 1482.698
309.1170, 1520.218
309.5991, 1519.286
310.0812, 1512.204
310.5633, 1524.105
311.0454, 1554.169
311.5276, 1585.922
312.0097, 1607.345
312.4918, 1625.757
312.9739, 1649.634
313.4560, 1684.662
313.9381, 1723.646
314.4203, 1765.249
314.9024, 1809.310
315.3845, 1847.366
315.8666, 1856.235
316.3487, 1865.418
316.8308, 1902.780
317.3130, 2016.479
317.7951, 2123.176
318.2772, 2151.182
318.7593, 2114.021
319.2414, 2164.001
319.7235, 2492.942
320.2057, 2857.168
320.6878, 3063.628
321.1699, 2902.810
321.6520, 2748.256
322.1341, 2702.265
322.6162, 2755.428
323.0984, 2804.686
323.5805, 2844.259
324.0626, 2865.477
324.5447, 2862.496
325.0268, 2833.905
325.5089, 2781.843
325.9911, 2689.511
326.4732, 2563.376
326.9553, 2463.118
327.4374, 2404.701
327.9195, 2364.858
328.4016, 2329.184
328.8838, 2286.774
329.3659, 2262.187
329.8480, 2260.220
330.3301, 2278.700
330.8122, 2303.817
331.2943, 2336.537
331.7765, 2375.022
332.2586, 2418.760
332.7407, 2471.496
333.2228, 2522.755
333.7049, 2571.099
334.1870, 2617.730
334.6692, 2667.219
335.1513, 2716.569
335.6334, 2774.427
336.1155, 2844.577
336.5976, 2927.504
337.0797, 3022.036
337.5619, 3125.113
338.0440, 3240.741
338.5261, 3378.832
339.0082, 3541.582
339.4903, 3718.471
339.9724, 3895.632
340.4546, 4070.244
340.9367, 4280.702
341.4188, 4528.387
341.9009, 4816.686
342.3830, 5162.411
342.8651, 5567.644
343.3473, 5996.536
343.8294, 6450.651
344.3115, 6926.923
344.7936, 7349.942
345.2757, 7744.166
345.7578, 8027.592
346.2400, 8063.768
346.7221, 7858.028
347.2042, 7519.467
347.6863, 7047.093
348.1684, 6477.983
348.6505, 5917.084
349.1327, 5357.078
349.6148, 4834.178
350.0969, 4391.516
350.5790, 4021.780
351.0611, 3696.949
351.5432, 3395.959
352.0254, 3135.031
352.5075, 2944.488
352.9896, 2830.031
353.4717, 2750.819
353.9538, 2677.623
354.4359, 2612.655
354.9181, 2562.576
355.4002, 2532.998
355.8823, 2517.822
356.3644, 2513.456
356.8465, 2519.839
357.3286, 2531.954
357.8108, 2538.608
358.2929, 2551.342
358.7750, 2585.201
359.2571, 2662.710
359.7392, 2748.605
360.2213, 2825.094
360.7035, 2892.370
361.1856, 2956.985
361.6677, 3010.746
362.1498, 3068.247
362.6319, 3142.703
363.1140, 3257.886
363.5962, 3369.779
364.0783, 3463.362
364.5604, 3540.958
365.0425, 3619.612
365.5246, 3702.822
366.0067, 3788.791
366.4889, 3876.256
366.9710, 3954.138
367.4531, 4047.031
367.9352, 4149.245
368.4173, 4265.612
368.8994, 4418.586
369.3815, 4614.633
369.8636, 4840.664
370.3458, 5089.251
370.8279, 5369.214
371.3100, 5663.383
371.7921, 6002.365
372.2742, 6350.569
372.7563, 6630.673
373.2385, 6874.757
373.7206, 6993.528
374.2027, 6942.333
374.6848, 6701.617
375.1669, 6367.626
375.6490, 5911.599
376.1312, 5392.074
376.6133, 4885.754
377.0954, 4383.638
377.5775, 3925.404
378.0596, 3517.504
378.5417, 3166.469
379.0239, 2867.863
379.5060, 2627.915
379.9881, 2429.333
380.4702, 2259.632
380.9523, 2117.114
381.4344, 1995.217
381.9166, 1891.593
382.3987, 1806.648
382.8808, 1737.537
383.3629, 1685.247
383.8450, 1642.047
384.3271, 1604.264
384.8093, 1570.443
385.2914, 1537.014
385.7735, 1502.334
386.2556, 1468.461
386.7377, 1437.967
387.2198, 1411.148
387.7020, 1389.297
388.1841, 1375.961
388.6662, 1367.713
389.1483, 1360.031
389.6304, 1352.389
390.1125, 1344.319
390.5947, 1336.537
391.0768, 1328.225
391.5589, 1316.975
392.0410, 1294.587
392.5231, 1273.218
393.0052, 1262.970
393.4874, 1270.583
393.9695, 1277.081
394.4516, 1272.458
394.9337, 1261.963
395.4158, 1255.217
395.8979, 1258.609
396.3801, 1263.029
396.8622, 1264.435
397.3443, 1261.158
397.8264, 1259.595
398.3085, 1266.536
398.7906, 1273.582
399.2728, 1270.324
399.7549, 1239.884
400.2370, 1217.892
400.7191, 1214.343
401.2012, 1230.982
401.6833, 1239.729
402.1655, 1236.126
402.6476, 1229.017
403.1297, 1226.026
403.6118, 1228.915
404.0939, 1231.540
404.5760, 1232.145
405.0582, 1231.686
405.5403, 1237.296
406.0224, 1252.283
406.5045, 1263.577
406.9866, 1257.207
407.4688, 1231.418
407.9509, 1220.836
408.4330, 1233.372
408.9151, 1256.746
409.3972, 1263.023
409.8793, 1252.139
410.3615, 1243.585
410.8436, 1251.454
411.3257, 1270.908
411.8078, 1285.970
412.2899, 1295.815
412.7720, 1300.756
413.2542, 1299.699
413.7363, 1293.766
414.2184, 1286.176
414.7005, 1272.474
415.1826, 1260.974
415.6647, 1264.262
416.1469, 1282.824
416.6290, 1302.390
417.1111, 1310.291
417.5932, 1313.609
418.0753, 1321.327
418.5574, 1335.139
419.0396, 1355.415
419.5217, 1386.630
420.0038, 1426.567
420.4859, 1462.572
420.9680, 1481.652
421.4501, 1499.814
421.9323, 1527.881
422.4144, 1579.237
422.8965, 1625.501
423.3786, 1659.335
423.8607, 1684.525
424.3428, 1712.201
424.8250, 1746.840
425.3071, 1781.534
425.7892, 1812.818
426.2713, 1837.847
426.7534, 1868.197
427.2355, 1901.750
427.7177, 1941.973
428.1998, 1994.142
428.6819, 2061.812
429.1640, 2132.637
429.6461, 2200.774
430.1282, 2265.834
430.6104, 2350.018
431.0925, 2450.171
431.5746, 2576.410
432.0567, 2737.912
432.5388, 2934.807
433.0209, 3161.167
433.5031, 3422.823
433.9852, 3707.101
434.4673, 4024.502
434.9494, 4371.491
435.4315, 4637.396
435.9136, 4751.187
436.3958, 4720.501
436.8779, 4542.681
437.3600, 4189.910
437.8421, 3775.813
438.3242, 3390.207
438.8063, 3040.287
439.2885, 2746.414
439.7706, 2527.682
440.2527, 2364.495
440.7348, 2244.689
441.2169, 2168.530
441.6990, 2118.731
442.1812, 2092.498
442.6633, 2084.035
443.1454, 2085.991
443.6275, 2106.439
444.1096, 2126.867
444.5917, 2135.451
445.0739, 2133.933
445.5560, 2147.132
446.0381, 2184.804
446.5202, 2235.193
447.0023, 2291.395
447.4844, 2356.946
447.9666, 2423.263
448.4487, 2486.106
448.9308, 2550.269
449.4129, 2629.842
449.8950, 2727.327
450.3771, 2833.178
450.8593, 2944.652
451.3413, 3061.188
451.8235, 3184.020
452.3056, 3321.202
452.7877, 3452.265
453.2698, 3559.117
453.7519, 3642.964
454.2340, 3680.344
454.7162, 3658.110
455.1983, 3585.957
455.6804, 3494.588
456.1625, 3383.377
456.6446, 3255.669
457.1267, 3093.116
457.6089, 2915.387
458.0910, 2769.672
458.5731, 2673.885
459.0552, 2601.921
459.5373, 2518.605
460.0194, 2433.142
460.5016, 2374.785
460.9837, 2369.376
461.4658, 2394.086
461.9479, 2429.661
462.4300, 2473.413
462.9121, 2529.931
463.3943, 2608.719
463.8764, 2699.452
464.3585, 2787.646
464.8406, 2872.966
465.3227, 2951.375
465.8048, 3012.514
466.2870, 3056.662
466.7691, 3124.034
467.2512, 3235.956
467.7333, 3361.690
468.2154, 3480.816
468.6975, 3563.853
469.1797, 3689.618
469.6618, 3872.488
470.1439, 4095.466
470.6260, 4306.190
471.1081, 4483.757
471.5902, 4699.286
472.0724, 4982.529
472.5545, 5337.817
473.0366, 5729.598
473.5187, 6152.863
474.0008, 6615.167
474.4829, 7141.104
474.9651, 7724.954
475.4472, 8306.970
475.9293, 8918.763
476.4114, 9483.410
476.8935, 9881.797
477.3756, 10106.36
477.8578, 10099.62
478.3399, 9760.237
478.8220, 9179.316
479.3041, 8466.110
479.7862, 7594.374
480.2683, 6713.327
480.7505, 5893.911
481.2326, 5148.908
481.7147, 4499.810
482.1968, 3960.278
482.6789, 3507.490
483.1610, 3138.222
483.6432, 2855.763
484.1253, 2621.167
484.6074, 2445.222
485.0895, 2305.583
485.5716, 2181.489
486.0537, 2066.950
486.5359, 1973.870
487.0180, 1907.802
487.5001, 1864.618
487.9822, 1825.634
488.4643, 1792.134
488.9464, 1761.377
489.4286, 1733.127
489.9107, 1709.272
490.3928, 1676.464
490.8749, 1628.251
491.3570, 1582.460
491.8391, 1571.794
492.3213, 1596.150
492.8034, 1611.923
493.2855, 1599.887
493.7676, 1570.196
494.2497, 1544.503
494.7318, 1523.114
495.2140, 1510.220
495.6961, 1515.848
496.1782, 1531.174
496.6603, 1540.266
497.1424, 1537.848
497.6245, 1533.148
498.1067, 1531.357
498.5888, 1532.745
499.0709, 1537.876
499.5530, 1550.861
500.0351, 1564.470
500.5172, 1575.216
500.9994, 1582.475
501.4815, 1587.560
501.9636, 1588.809
502.4457, 1588.982
502.9278, 1590.552
503.4099, 1592.712
503.8921, 1597.526
504.3742, 1604.753
504.8563, 1614.757
505.3384, 1629.528
505.8205, 1651.277
506.3026, 1673.762
506.7848, 1694.451
507.2669, 1713.696
507.7490, 1729.758
508.2311, 1741.673
508.7132, 1752.889
509.1953, 1767.172
509.6775, 1784.532
510.1596, 1806.107
510.6417, 1831.192
511.1238, 1861.202
511.6059, 1904.044
512.0880, 1958.257
512.5701, 2005.931
513.0522, 2021.839
513.5344, 2029.102
514.0165, 2059.138
514.4986, 2123.370
514.9807, 2193.110
515.4628, 2252.655
515.9449, 2305.615
516.4271, 2357.275
516.9092, 2403.107
517.3913, 2454.550
517.8734, 2517.042
518.3555, 2591.114
518.8376, 2667.781
519.3198, 2753.411
519.8019, 2836.122
520.2840, 2907.910
520.7661, 2952.881
521.2482, 3017.906
521.7303, 3112.438
522.2125, 3224.273
522.6946, 3326.538
523.1767, 3420.322
523.6588, 3502.488
524.1409, 3573.513
524.6230, 3631.655
525.1052, 3676.206
525.5873, 3708.618
526.0694, 3716.050
526.5515, 3679.552
527.0336, 3607.593
527.5157, 3524.459
527.9979, 3440.354
528.4800, 3342.805
528.9621, 3208.252
529.4442, 3048.524
529.9263, 2894.239
530.4084, 2767.683
530.8906, 2649.127
531.3727, 2525.066
531.8548, 2391.507
532.3369, 2266.512
532.8190, 2153.661
533.3011, 2052.792
533.7833, 1965.520
534.2654, 1896.793
534.7475, 1835.142
535.2296, 1779.549
535.7117, 1729.730
536.1938, 1685.886
536.6760, 1650.955
537.1581, 1615.127
537.6402, 1570.022
538.1223, 1513.694
538.6044, 1479.488
539.0865, 1471.760
539.5687, 1472.458
540.0508, 1460.315
540.5329, 1437.041
541.0150, 1415.684
541.4971, 1398.481
541.9792, 1386.234
542.4614, 1384.039
542.9435, 1389.626
543.4256, 1392.389
543.9077, 1383.535
544.3898, 1370.204
544.8719, 1359.075
545.3541, 1351.024
545.8362, 1343.780
546.3183, 1336.699
546.8004, 1329.579
547.2825, 1322.140
547.7646, 1311.092
548.2468, 1303.406
548.7289, 1300.920
549.2110, 1303.016
549.6931, 1307.479
550.1752, 1318.320
550.6573, 1326.032
551.1395, 1325.954
551.6216, 1316.468
552.1037, 1308.121
552.5858, 1300.080
553.0679, 1294.857
553.5500, 1296.892
554.0322, 1305.849
554.5143, 1313.435
554.9964, 1316.814
555.4785, 1318.950
555.9606, 1325.883
556.4427, 1336.816
556.9249, 1347.255
557.4070, 1354.183
557.8891, 1359.301
558.3712, 1365.989
558.8533, 1375.189
559.3354, 1378.777
559.8176, 1363.507
560.2997, 1344.136
560.7818, 1335.786
561.2639, 1352.574
561.7460, 1369.254
562.2281, 1377.131
562.7103, 1380.339
563.1924, 1394.621
563.6745, 1429.807
564.1566, 1463.046
564.6387, 1485.394
565.1208, 1495.767
565.6030, 1506.778
566.0851, 1517.730
566.5672, 1530.735
567.0493, 1545.225
567.5314, 1561.434
568.0135, 1592.543
568.4957, 1645.290
568.9778, 1705.914
569.4599, 1744.681
569.9420, 1768.608
570.4241, 1805.745
570.9063, 1874.167
571.3884, 1961.490
571.8705, 2059.891
572.3526, 2168.044
572.8347, 2281.345
573.3168, 2394.136
573.7990, 2511.878
574.2811, 2637.471
574.7632, 2775.100
575.2453, 2917.994
575.7274, 3065.409
576.2095, 3218.866
576.6917, 3377.037
577.1738, 3532.382
577.6559, 3704.363
578.1380, 3898.216
578.6201, 4113.240
579.1022, 4334.024
579.5844, 4554.919
580.0665, 4802.310
580.5486, 5095.641
581.0307, 5435.154
581.5128, 5806.194
581.9949, 6208.893
582.4771, 6636.644
582.9592, 7077.650
583.4413, 7537.107
583.9234, 8027.948
584.4055, 8588.521
584.8876, 9156.359
585.3698, 9716.167
585.8519, 10253.02
586.3340, 10703.04
586.8161, 11112.19
587.2982, 11361.55
587.7803, 11380.04
588.2625, 11134.36
588.7446, 10715.84
589.2267, 10069.20
589.7088, 9299.483
590.1909, 8497.766
590.6730, 7632.835
591.1552, 6840.505
591.6373, 6142.129
592.1194, 5531.643
592.6015, 4994.616
593.0836, 4529.726
593.5657, 4132.261
594.0479, 3807.454
594.5300, 3542.577
595.0121, 3312.089
595.4942, 3114.315
595.9763, 2943.973
596.4584, 2802.878
596.9406, 2684.828
597.4227, 2580.070
597.9048, 2487.790
598.3869, 2405.516
598.8690, 2332.022
599.3511, 2267.308
599.8333, 2209.831
600.3154, 2159.963
600.7975, 2116.954
601.2796, 2081.648
601.7617, 2053.756
602.2438, 2025.040
602.7260, 1992.327
603.2081, 1964.426
603.6902, 1949.002
604.1723, 1947.104
604.6544, 1944.775
605.1365, 1943.234
605.6187, 1935.794
606.1008, 1905.700
606.5829, 1859.764
607.0650, 1827.676
607.5471, 1827.570
608.0292, 1835.623
608.5114, 1823.990
608.9935, 1796.768
609.4756, 1768.040
609.9577, 1740.124
610.4398, 1717.402
610.9219, 1704.096
611.4041, 1701.427
611.8862, 1700.360
612.3683, 1704.078
612.8504, 1705.417
613.3325, 1698.518
613.8146, 1676.353
614.2968, 1659.270
614.7789, 1647.840
615.2610, 1642.139
615.7431, 1645.130
616.2252, 1658.080
616.7073, 1666.825
617.1895, 1665.374
617.6716, 1656.423
618.1537, 1644.661
618.6358, 1630.517
619.1179, 1621.330
619.6000, 1626.471
620.0822, 1637.603
620.5643, 1644.642
621.0464, 1646.021
621.5285, 1645.463
622.0106, 1641.047
622.4927, 1637.457
622.9749, 1639.736
623.4570, 1657.702
623.9391, 1671.230
624.4212, 1678.885
624.9033, 1680.189
625.3854, 1671.227
625.8676, 1643.183
626.3497, 1624.825
626.8318, 1629.825
627.3139, 1655.052
627.7960, 1666.706
628.2781, 1662.488
628.7603, 1663.569
629.2424, 1699.321
629.7245, 1753.124
630.2066, 1778.452
630.6887, 1764.514
631.1708, 1744.814
631.6530, 1750.073
632.1351, 1768.800
632.6172, 1783.660
633.0993, 1783.143
633.5814, 1783.040
634.0635, 1787.577
634.5457, 1796.799
635.0278, 1810.976
635.5099, 1835.322
635.9920, 1858.411
636.4741, 1874.958
636.9562, 1884.280
637.4384, 1903.643
637.9205, 1936.244
638.4026, 1970.667
638.8847, 1997.952
639.3668, 2018.540
639.8489, 2032.745
640.3311, 2037.826
640.8132, 2046.779
641.2953, 2083.423
641.7774, 2135.225
642.2595, 2175.290
642.7416, 2178.474
643.2238, 2181.215
643.7059, 2207.461
644.1880, 2252.338
644.6701, 2300.405
645.1522, 2345.944
645.6343, 2393.645
646.1165, 2444.705
646.5986, 2499.448
647.0807, 2556.441
647.5628, 2611.470
648.0449, 2675.904
648.5270, 2760.494
649.0092, 2866.676
649.4913, 2972.095
649.9734, 3073.072
650.4555, 3182.422
650.9376, 3318.652
651.4197, 3479.311
651.9019, 3651.331
652.3840, 3830.408
652.8661, 4019.113
653.3482, 4212.496
653.8303, 4416.327
654.3124, 4647.265
654.7946, 4944.961
655.2767, 5245.650
655.7588, 5508.359
656.2409, 5724.002
656.7230, 5982.030
657.2051, 6292.120
657.6872, 6636.753
658.1693, 7005.560
658.6514, 7396.890
659.1335, 7819.787
659.6157, 8281.912
660.0978, 8770.556
660.5799, 9253.246
661.0620, 9740.523
661.5441, 10287.66
662.0262, 10933.61
662.5084, 11606.85
662.9905, 12228.00
663.4726, 12807.06
663.9547, 13372.94
664.4368, 14013.79
664.9189, 14571.69
665.4011, 14992.12
665.8832, 15268.44
666.3653, 15334.46
666.8474, 15146.21
667.3295, 14765.45
667.8116, 14196.44
668.2938, 13412.69
668.7759, 12555.96
669.2580, 11600.50
669.7401, 10619.56
670.2222, 9663.717
670.7043, 8739.852
671.1865, 7914.718
671.6686, 7210.838
672.1507, 6601.488
672.6328, 6055.354
673.1149, 5570.250
673.5970, 5149.441
674.0792, 4812.715
674.5613, 4517.521
675.0434, 4233.720
675.5255, 3968.289
676.0076, 3753.632
676.4897, 3615.752
676.9719, 3510.643
677.4540, 3421.273
677.9361, 3346.611
678.4182, 3296.245
678.9003, 3273.487
679.3824, 3266.613
679.8646, 3263.714
680.3467, 3266.015
680.8288, 3292.740
681.3109, 3348.958
681.7930, 3415.909
682.2751, 3485.743
682.7573, 3549.252
683.2394, 3591.455
683.7215, 3624.120
684.2036, 3610.048
684.6857, 3515.979
685.1678, 3360.132
685.6500, 3181.964
686.1321, 2957.888
686.6142, 2749.736
687.0963, 2572.637
687.5784, 2427.431
688.0605, 2303.408
688.5427, 2204.951
689.0248, 2118.596
689.5069, 2034.189
689.9890, 1953.368
690.4711, 1892.378
690.9532, 1852.211
691.4354, 1821.794
691.9175, 1795.352
692.3996, 1770.540
692.8817, 1742.636
693.3638, 1708.107
693.8459, 1677.544
694.3281, 1661.489
694.8102, 1651.381
695.2923, 1636.081
695.7744, 1602.948
696.2565, 1577.402
696.7386, 1564.819
697.2208, 1561.367
697.7029, 1557.747
698.1850, 1554.434
698.6671, 1549.062
699.1492, 1539.514
699.6313, 1527.684
700.1135, 1521.645
700.5956, 1521.005
701.0777, 1519.127
701.5598, 1508.738
702.0419, 1495.921
702.5240, 1488.002
703.0062, 1485.735
703.4883, 1486.195
703.9704, 1492.883
704.4525, 1498.669
704.9346, 1497.684
705.4167, 1482.747
705.8989, 1472.293
706.3810, 1468.106
706.8631, 1467.028
707.3452, 1464.975
707.8273, 1461.520
708.3094, 1460.704
708.7916, 1464.824
709.2737, 1469.255
709.7558, 1462.969
710.2379, 1448.874
710.7200, 1438.249
711.2021, 1436.850
711.6843, 1440.729
712.1664, 1448.365
712.6485, 1458.844
713.1306, 1468.304
713.6127, 1478.419
714.0948, 1484.272
714.5770, 1482.282
715.0591, 1472.144
715.5412, 1461.618
716.0233, 1449.719
716.5054, 1439.350
716.9875, 1431.418
717.4697, 1426.004
717.9518, 1428.053
718.4339, 1438.320
718.9160, 1452.461
719.3981, 1471.017
719.8802, 1489.192
720.3624, 1496.250
720.8445, 1486.210
721.3266, 1473.406
721.8087, 1463.894
722.2908, 1458.027
722.7729, 1456.576
723.2551, 1449.407
723.7372, 1460.710
724.2193, 1506.614
724.7014, 1570.004
725.1835, 1598.300
725.6656, 1581.750
726.1478, 1570.816
726.6299, 1588.609
727.1120, 1622.781
727.5941, 1636.656
728.0762, 1631.451
728.5583, 1617.979
729.0405, 1591.289
729.5226, 1567.577
730.0047, 1563.698
730.4868, 1580.885
730.9689, 1604.872
731.4510, 1641.436
731.9332, 1674.795
732.4153, 1693.956
732.8974, 1695.597
733.3795, 1692.597
733.8616, 1679.815
734.3438, 1670.397
734.8259, 1679.212
735.3080, 1705.905
735.7901, 1736.284
736.2722, 1771.114
736.7543, 1800.035
737.2365, 1799.482
737.7186, 1784.164
738.2007, 1784.645
738.6828, 1822.742
739.1649, 1864.708
739.6470, 1892.280
740.1292, 1910.986
740.6113, 1933.604
741.0934, 1964.780
741.5755, 1997.216
742.0576, 2032.175
742.5397, 2067.180
743.0219, 2088.917
743.5040, 2095.555
743.9861, 2100.226
744.4682, 2110.387
744.9503, 2123.286
745.4324, 2130.386
745.9146, 2132.293
746.3967, 2134.809
746.8788, 2146.426
747.3609, 2157.233
747.8430, 2157.756
748.3251, 2145.735
748.8073, 2133.504
749.2894, 2127.516
749.7715, 2119.231
750.2536, 2101.943
750.7357, 2068.708
751.2178, 2050.626
751.7000, 2054.044
752.1821, 2057.557
752.6642, 2031.127
753.1463, 1981.229
753.6284, 1940.948
754.1105, 1916.935
754.5927, 1900.886
755.0748, 1889.615
755.5569, 1879.264
756.0390, 1863.405
756.5211, 1833.157
757.0032, 1805.114
757.4854, 1782.084
757.9675, 1764.894
758.4496, 1756.585
758.9317, 1763.642
759.4138, 1764.897
759.8959, 1753.406
760.3781, 1733.965
760.8602, 1721.766
761.3423, 1716.423
761.8244, 1711.088
762.3065, 1700.161
762.7886, 1688.459
763.2708, 1681.364
763.7529, 1678.834
764.2350, 1680.089
764.7171, 1693.082
765.1992, 1702.537
765.6813, 1696.342
766.1635, 1670.849
766.6456, 1660.163
767.1277, 1672.011
767.6098, 1686.067
768.0919, 1688.755
768.5740, 1680.258
769.0562, 1676.061
769.5383, 1676.870
770.0204, 1677.631
770.5025, 1670.119
770.9846, 1660.588
771.4667, 1661.479
771.9489, 1678.077
772.4310, 1689.661
772.9131, 1682.381
773.3952, 1666.545
773.8773, 1652.338
774.3594, 1637.144
774.8416, 1630.216
775.3237, 1635.233
775.8058, 1644.885
776.2879, 1649.457
776.7700, 1648.948
777.2521, 1647.138
777.7343, 1644.506
778.2164, 1641.686
778.6985, 1639.964
779.1806, 1638.746
779.6627, 1636.608
780.1448, 1634.453
780.6270, 1629.743
781.1091, 1617.699
781.5912, 1601.933
782.0733, 1593.599
782.5554, 1595.039
783.0375, 1601.022
783.5197, 1613.133
784.0018, 1628.035
784.4839, 1631.441
784.9660, 1622.945
785.4481, 1616.109
785.9302, 1620.115
786.4124, 1628.896
786.8945, 1632.921
787.3766, 1632.694
787.8587, 1630.369
788.3408, 1620.837
788.8229, 1614.946
789.3051, 1621.172
789.7872, 1641.054
790.2693, 1655.368
790.7514, 1659.949
791.2335, 1664.670
791.7156, 1676.344
792.1978, 1694.810
792.6799, 1704.359
793.1620, 1704.652
793.6441, 1700.974
794.1262, 1693.155
794.6083, 1686.002
795.0905, 1688.898
795.5726, 1704.125
796.0547, 1716.141
796.5368, 1709.745
797.0189, 1701.911
797.5010, 1707.116
797.9832, 1732.505
798.4653, 1754.506
798.9474, 1772.168
799.4295, 1787.830
799.9116, 1801.688
800.3937, 1814.353
800.8759, 1838.175
801.3580, 1877.510
801.8401, 1914.858
802.3222, 1924.852
802.8043, 1922.817
803.2864, 1932.142
803.7686, 1964.078
804.2507, 1998.824
804.7328, 2032.807
805.2149, 2065.005
805.6970, 2093.682
806.1791, 2114.089
806.6613, 2142.537
807.1434, 2182.707
807.6255, 2228.898
808.1076, 2270.389
808.5897, 2308.406
809.0718, 2351.248
809.5540, 2404.043
810.0361, 2457.390
810.5182, 2500.020
811.0003, 2536.654
811.4824, 2576.538
811.9645, 2625.588
812.4467, 2674.896
812.9288, 2722.093
813.4109, 2768.353
813.8930, 2813.311
814.3751, 2853.539
814.8572, 2909.260
815.3394, 2991.330
815.8215, 3088.387
816.3036, 3168.171
816.7857, 3238.150
817.2678, 3328.081
817.7499, 3473.672
818.2321, 3628.189
818.7142, 3746.543
819.1963, 3842.456
819.6784, 3976.307
820.1605, 4191.872
820.6426, 4413.886
821.1248, 4616.019
821.6068, 4806.096
822.0889, 5023.986
822.5710, 5269.358
823.0532, 5524.078
823.5353, 5776.903
824.0174, 6031.980
824.4995, 6294.501
824.9816, 6564.491
825.4637, 6870.798
825.9459, 7268.647
826.4280, 7666.765
826.9101, 8010.256
827.3922, 8290.675
827.8743, 8587.740
828.3564, 8922.876
828.8386, 9233.119
829.3207, 9499.889
829.8028, 9720.429
830.2849, 9902.654
830.7670, 10044.57
831.2491, 10101.28
831.7313, 10039.18
832.2134, 9873.565
832.6955, 9604.112
833.1776, 9232.399
833.6597, 8828.018
834.1418, 8396.683
834.6240, 7948.819
835.1061, 7486.228
835.5882, 7001.930
836.0703, 6532.655
836.5524, 6079.123
837.0345, 5655.241
837.5167, 5264.810
837.9988, 4910.806
838.4809, 4593.628
838.9630, 4313.414
839.4451, 4082.390
839.9272, 3944.340
840.4094, 3834.343
840.8915, 3702.612
841.3736, 3539.496
841.8557, 3368.949
842.3378, 3177.423
842.8199, 2999.023
843.3021, 2857.118
843.7842, 2751.998
844.2663, 2658.748
844.7484, 2576.698
845.2305, 2504.724
845.7126, 2444.074
846.1948, 2391.905
846.6769, 2345.633
847.1590, 2305.392
847.6411, 2265.521
848.1232, 2222.997
848.6053, 2180.254
849.0875, 2138.981
849.5696, 2099.564
850.0517, 2060.100
850.5338, 2019.978
851.0159, 1981.509
851.4980, 1945.796
851.9802, 1913.818
852.4623, 1889.852
852.9444, 1874.783
853.4265, 1860.314
853.9086, 1835.536
854.3907, 1811.461
854.8729, 1800.318
855.3550, 1812.312
855.8371, 1810.622
856.3192, 1784.958
856.8013, 1755.553
857.2834, 1740.241
857.7656, 1739.357
858.2477, 1726.455
858.7298, 1698.925
859.2119, 1672.021
859.6940, 1660.214
860.1761, 1657.875
860.6583, 1659.802
861.1404, 1667.066
861.6225, 1667.807
862.1046, 1651.660
862.5867, 1631.513
863.0688, 1617.202
863.5510, 1609.873
864.0331, 1603.363
864.5152, 1597.649
864.9973, 1592.579
865.4794, 1588.719
865.9615, 1585.249
866.4437, 1580.942
866.9258, 1575.971
867.4079, 1565.939
867.8900, 1535.328
868.3721, 1506.492
868.8542, 1500.854
869.3364, 1534.025
869.8185, 1552.043
870.3006, 1549.604
870.7827, 1540.164
871.2648, 1533.697
871.7469, 1529.850
872.2291, 1522.670
872.7112, 1511.470
873.1933, 1504.075
873.6754, 1514.618
874.1575, 1528.311
874.6396, 1527.156
875.1218, 1504.945
875.6039, 1489.029
876.0860, 1489.581
876.5681, 1495.010
877.0502, 1499.786
877.5323, 1503.941
878.0145, 1506.737
878.4966, 1508.041
878.9787, 1508.732
879.4608, 1510.151
879.9429, 1511.216
880.4250, 1509.534
880.9072, 1504.828
881.3893, 1500.683
881.8714, 1501.657
882.3535, 1501.480
882.8356, 1494.470
883.3177, 1478.961
883.7999, 1473.121
884.2820, 1480.910
884.7641, 1486.167
885.2462, 1471.538
885.7283, 1446.131
886.2104, 1440.243
886.6926, 1453.607
887.1747, 1466.646
887.6568, 1466.214
888.1389, 1461.177
888.6210, 1456.829
889.1031, 1453.676
889.5853, 1451.773
890.0674, 1449.409
890.5495, 1451.626
891.0316, 1463.480
891.5137, 1482.635
891.9958, 1492.992
892.4780, 1495.093
892.9601, 1496.052
893.4422, 1504.897
893.9243, 1511.425
894.4064, 1501.630
894.8885, 1477.552
895.3707, 1464.512
895.8528, 1475.441
896.3349, 1489.365
896.8170, 1501.417
897.2991, 1511.025
897.7813, 1513.774
898.2634, 1509.616
898.7455, 1505.888
899.2276, 1507.900
899.7097, 1511.716
900.1918, 1513.556
900.6740, 1513.220
901.1561, 1509.932
901.6382, 1496.644
902.1203, 1488.297
902.6024, 1490.670
903.0845, 1501.040
903.5667, 1510.095
904.0488, 1517.863
904.5309, 1524.112
905.0130, 1528.389
905.4951, 1531.534
905.9772, 1530.145
906.4594, 1528.627
906.9415, 1538.408
907.4236, 1594.249
907.9057, 1628.809
908.3878, 1596.844
908.8699, 1533.323
909.3521, 1510.004
909.8342, 1539.061
910.3163, 1558.163
910.7984, 1552.611
911.2805, 1534.782
911.7626, 1518.930
912.2448, 1507.638
912.7269, 1508.643
913.2090, 1535.924
913.6911, 1556.975
914.1732, 1550.936
914.6553, 1531.626
915.1375, 1517.915
915.6196, 1509.276
916.1017, 1510.207
916.5838, 1523.423
917.0659, 1540.741
917.5480, 1550.879
918.0302, 1556.258
918.5123, 1565.620
918.9944, 1582.776
919.4765, 1594.446
919.9586, 1584.177
920.4407, 1568.904
920.9229, 1565.740
921.4050, 1581.426
921.8871, 1594.491
922.3692, 1604.151
922.8513, 1612.956
923.3334, 1626.479
923.8156, 1641.297
924.2977, 1639.564
924.7798, 1619.389
925.2619, 1606.938
925.7440, 1630.617
926.2261, 1662.767
926.7083, 1680.856
927.1904, 1679.766
927.6725, 1683.452
928.1546, 1693.418
928.6367, 1705.693
929.1188, 1717.991
929.6010, 1730.623
930.0831, 1747.489
930.5652, 1767.487
931.0473, 1781.617
931.5294, 1775.107
932.0115, 1767.879
932.4937, 1775.176
932.9758, 1796.418
933.4579, 1818.050
933.9400, 1841.680
934.4221, 1860.992
934.9042, 1874.448
935.3864, 1882.246
935.8685, 1882.606
936.3506, 1877.024
936.8327, 1874.810
937.3148, 1887.222
937.7969, 1897.844
938.2791, 1884.342
938.7612, 1860.966
939.2433, 1863.737
939.7254, 1932.565
940.2075, 1964.480
940.6896, 1937.383
941.1718, 1877.080
941.6539, 1822.324
942.1360, 1774.506
942.6181, 1742.813
943.1002, 1734.090
943.5823, 1729.852
944.0645, 1715.627
944.5466, 1697.157
945.0287, 1681.466
945.5108, 1672.969
945.9929, 1661.171
946.4750, 1642.140
946.9572, 1626.049
947.4393, 1628.003
947.9214, 1643.457
948.4035, 1646.657
948.8856, 1634.374
949.3677, 1620.767
949.8499, 1617.175
950.3320, 1616.420
950.8141, 1611.624
951.2962, 1600.371
951.7783, 1595.258
952.2604, 1599.218
952.7426, 1603.812
953.2247, 1604.449
953.7068, 1601.655
954.1889, 1597.085
954.6710, 1590.938
955.1531, 1585.048
955.6353, 1574.673
956.1174, 1570.142
956.5995, 1585.329
957.0816, 1615.632
957.5637, 1627.667
958.0458, 1610.810
958.5280, 1598.685
959.0101, 1601.503
959.4922, 1614.604
959.9743, 1630.743
960.4564, 1647.882
960.9385, 1658.600
961.4207, 1656.239
961.9028, 1651.575
962.3849, 1645.916
962.8670, 1643.326
963.3491, 1651.552
963.8312, 1676.413
964.3134, 1697.761
964.7955, 1714.586
965.2776, 1725.031
965.7597, 1721.583
966.2418, 1710.174
966.7239, 1706.251
967.2061, 1713.620
967.6882, 1723.615
968.1703, 1727.684
968.6524, 1735.395
969.1345, 1757.902
969.6166, 1802.218
970.0988, 1822.005
970.5809, 1813.700
971.0630, 1796.513
971.5451, 1779.477
972.0272, 1765.706
972.5093, 1764.464
972.9915, 1774.199
973.4736, 1778.512
973.9557, 1760.049
974.4378, 1744.629
974.9199, 1748.864
975.4020, 1766.405
975.8842, 1765.342
976.3663, 1743.831
976.8484, 1721.926
977.3305, 1707.708
977.8126, 1696.894
978.2947, 1683.784
978.7769, 1669.057
979.2590, 1654.723
979.7411, 1637.333
980.2232, 1625.815
980.7053, 1623.579
981.1874, 1626.199
981.6696, 1629.512
982.1517, 1633.646
982.6338, 1630.522
983.1159, 1618.341
983.5980, 1602.630
984.0801, 1583.980
984.5623, 1567.593
985.0444, 1559.908
985.5265, 1563.934
986.0085, 1570.052
986.4907, 1580.263
986.9728, 1587.485
987.4549, 1585.652
987.9370, 1576.005
988.4191, 1571.632
988.9012, 1572.351
989.3834, 1574.383
989.8655, 1578.756
990.3476, 1580.493
990.8297, 1570.979
991.3118, 1553.641
991.7939, 1551.006
992.2761, 1573.047
992.7582, 1589.862
993.2403, 1592.612
993.7224, 1586.904
994.2045, 1582.359
994.6866, 1579.478
995.1688, 1579.970
995.6509, 1584.388
996.1330, 1592.364
996.6151, 1612.085
997.0972, 1630.882
997.5793, 1631.619
998.0615, 1605.974
998.5436, 1590.663
999.0257, 1587.877
999.5078, 1592.296
999.9899, 1601.345
1000.472, 1612.720
1000.954, 1624.283
1001.436, 1635.682
1001.918, 1639.833
1002.401, 1622.691
1002.883, 1608.959
1003.365, 1612.576
1003.847, 1630.940
1004.329, 1637.931
1004.811, 1633.409
1005.293, 1627.435
1005.775, 1622.973
1006.257, 1621.594
1006.740, 1627.746
1007.222, 1638.191
1007.704, 1645.081
1008.186, 1640.808
1008.668, 1640.914
1009.150, 1649.652
1009.632, 1660.236
1010.114, 1662.552
1010.596, 1657.366
1011.079, 1647.466
1011.561, 1632.166
1012.043, 1618.771
1012.525, 1610.261
1013.007, 1608.146
1013.489, 1616.761
1013.971, 1640.637
1014.453, 1650.977
1014.936, 1644.577
1015.418, 1634.941
1015.900, 1627.635
1016.382, 1624.623
1016.864, 1634.194
1017.346, 1653.659
1017.828, 1669.070
1018.310, 1674.484
1018.792, 1673.616
1019.275, 1663.584
1019.757, 1649.777
1020.239, 1648.205
1020.721, 1659.906
1021.203, 1658.689
1021.685, 1632.347
1022.167, 1608.021
1022.649, 1625.413
1023.132, 1660.845
1023.614, 1681.084
1024.096, 1672.490
1024.578, 1662.602
1025.060, 1649.743
1025.542, 1641.987
1026.024, 1649.880
1026.506, 1669.747
1026.989, 1676.258
1027.471, 1669.675
1027.953, 1662.346
1028.435, 1660.800
1028.917, 1662.290
1029.399, 1667.075
1029.881, 1673.852
1030.363, 1676.723
1030.845, 1676.037
1031.328, 1668.623
1031.810, 1650.029
1032.292, 1630.788
1032.774, 1628.422
1033.256, 1638.096
1033.738, 1650.697
1034.220, 1667.922
1034.702, 1679.393
1035.184, 1681.881
1035.667, 1678.852
1036.149, 1671.907
1036.631, 1660.999
1037.113, 1648.670
1037.595, 1634.717
1038.077, 1627.602
1038.559, 1643.616
1039.041, 1661.527
1039.524, 1660.557
1040.006, 1641.461
1040.488, 1631.876
1040.970, 1639.930
1041.452, 1640.169
1041.934, 1620.156
1042.416, 1594.051
1042.898, 1592.971
1043.380, 1609.111
1043.863, 1621.109
1044.345, 1620.283
1044.827, 1617.205
1045.309, 1611.049
1045.791, 1608.091
1046.273, 1616.889
1046.755, 1639.772
1047.237, 1648.253
1047.719, 1640.484
1048.202, 1630.717
1048.684, 1629.200
1049.166, 1632.727
1049.648, 1641.721
1050.130, 1655.002
1050.612, 1657.150
1051.094, 1640.356
1051.576, 1625.213
1052.059, 1616.822
1052.541, 1614.169
1053.023, 1617.965
1053.505, 1625.588
1053.987, 1603.308
1054.469, 1632.769
1054.951, 1649.211
1055.433, 1653.337
1055.916, 1608.161
1056.398, 1626.718
1056.880, 1619.777
1057.362, 1611.821
1057.844, 1639.436
1058.326, 1601.590
1058.808, 1628.704
1059.290, 1629.930
1059.772, 1643.049
1060.255, 1630.512
1060.737, 1625.941
1061.219, 1647.094
1061.701, 1654.051
1062.183, 1638.682
1062.665, 1652.740
1063.147, 1614.305
1063.629, 1621.992
1064.111, 1649.595
1064.594, 1635.672
1065.076, 1650.354
1065.558, 1654.184
1066.040, 1608.585
1066.522, 1649.032
1067.004, 1652.312
1067.486, 1617.427
1067.968, 1655.020
1068.450, 1625.462
1068.933, 1619.917
1069.415, 1632.446
1069.897, 1626.195
1070.379, 1649.634
1070.861, 1644.530
1071.343, 1636.905
1071.825, 1640.451
1072.307, 1612.458
1072.790, 1643.066
1073.272, 1633.697
1073.754, 1644.244
1074.236, 1659.331
1074.718, 1639.933
1075.200, 1657.106
1075.682, 1617.646
1076.164, 1625.629
1076.646, 1628.539
1077.129, 1661.786
1077.611, 1622.725
1078.093, 1629.515
1078.575, 1655.845
1079.057, 1654.908
1079.539, 1665.415
1080.021, 1642.165
1080.503, 1648.152
1080.985, 1650.092
1081.468, 1664.677
1081.950, 1674.263
1082.432, 1676.306
1082.914, 1674.502
1083.396, 1673.461
1083.878, 1671.997
1084.360, 1665.847
1084.842, 1653.791
1085.325, 1647.814
1085.807, 1661.103
1086.289, 1672.261
1086.771, 1671.436
1087.253, 1661.146
1087.735, 1650.499
1088.217, 1640.546
1088.699, 1640.492
1089.182, 1661.575
1089.664, 1683.485
1090.146, 1693.594
1090.628, 1695.274
1091.110, 1692.693
1091.592, 1683.675
1092.074, 1679.481
1092.556, 1680.694
1093.038, 1685.704
1093.521, 1694.345
1094.003, 1705.083
1094.485, 1718.315
1094.967, 1733.079
1095.449, 1740.105
1095.931, 1730.456
1096.413, 1723.775
1096.895, 1724.143
1097.377, 1730.966
1097.860, 1747.173
1098.342, 1768.863
1098.824, 1782.440
1099.306, 1782.050
1099.788, 1780.729
1100.270, 1784.217
1100.752, 1789.473
1101.234, 1793.950
1101.717, 1797.620
1102.199, 1804.137
1102.681, 1813.484
1103.163, 1822.643
1103.645, 1831.694
1104.127, 1837.869
1104.609, 1836.550
1105.091, 1830.715
1105.573, 1828.359
1106.056, 1830.950
1106.538, 1833.421
1107.020, 1834.596
1107.502, 1837.559
1107.984, 1848.670
1108.466, 1862.745
1108.948, 1871.588
1109.430, 1874.104
1109.912, 1875.199
1110.395, 1876.639
1110.877, 1875.759
1111.359, 1870.830
1111.841, 1863.321
1112.323, 1858.643
1112.805, 1855.633
1113.287, 1849.708
1113.769, 1835.742
1114.252, 1825.137
1114.734, 1825.772
1115.216, 1830.091
1115.698, 1831.875
1116.180, 1831.260
1116.662, 1825.173
1117.144, 1813.570
1117.626, 1803.979
1118.109, 1806.656
1118.591, 1809.190
1119.073, 1797.273
1119.555, 1776.543
1120.037, 1770.277
1120.519, 1785.269
1121.001, 1789.950
1121.483, 1776.536
1121.965, 1759.657
1122.448, 1760.030
1122.930, 1767.833
1123.412, 1768.495
1123.894, 1758.849
1124.376, 1750.317
1124.858, 1742.013
1125.340, 1739.527
1125.822, 1747.833
1126.304, 1761.781
1126.787, 1765.273
1127.269, 1762.016
1127.751, 1763.610
1128.233, 1786.518
1128.715, 1795.654
1129.197, 1768.564
1129.679, 1734.296
1130.161, 1716.792
1130.644, 1715.518
1131.126, 1719.828
1131.608, 1729.099
1132.090, 1737.781
1132.572, 1739.509
1133.054, 1742.123
1133.536, 1753.049
1134.018, 1768.185
1134.500, 1777.171
1134.983, 1780.010
1135.465, 1776.010
1135.947, 1763.980
1136.429, 1750.412
1136.911, 1741.371
1137.393, 1734.888
1137.875, 1727.311
1138.357, 1717.427
1138.839, 1721.778
1139.322, 1746.198
1139.804, 1764.636
1140.286, 1764.374
1140.768, 1754.009
1141.250, 1744.002
1141.732, 1735.951
1142.214, 1733.082
1142.696, 1741.720
1143.179, 1745.950
1143.661, 1743.611
1144.143, 1738.732
1144.625, 1733.386
1145.107, 1728.214
1145.589, 1724.771
1146.071, 1723.259
1146.553, 1724.650
1147.036, 1731.576
1147.518, 1739.131
1148.000, 1748.991
1148.482, 1755.886
1148.964, 1745.615
1149.446, 1722.386
1149.928, 1714.923
1150.410, 1728.340
1150.892, 1744.385
1151.375, 1754.628
1151.857, 1760.111
1152.339, 1759.485
1152.821, 1754.567
1153.303, 1755.163
1153.785, 1761.201
1154.267, 1764.054
1154.749, 1759.273
1155.231, 1754.107
1155.714, 1757.555
1156.196, 1762.791
1156.678, 1759.323
1157.160, 1742.411
1157.642, 1745.521
1158.124, 1771.688
1158.606, 1794.901
1159.088, 1794.545
1159.571, 1785.467
1160.053, 1782.643
1160.535, 1784.874
1161.017, 1789.417
1161.499, 1797.513
1161.981, 1804.452
1162.463, 1810.593
1162.945, 1813.482
1163.427, 1807.787
1163.910, 1798.563
1164.392, 1792.540
1164.874, 1790.371
1165.356, 1793.140
1165.838, 1805.829
1166.320, 1815.348
1166.802, 1817.489
1167.284, 1817.434
1167.766, 1828.085
1168.249, 1842.835
1168.731, 1844.936
1169.213, 1828.488
1169.695, 1815.015
1170.177, 1811.269
1170.659, 1812.506
1171.141, 1817.673
1171.623, 1826.015
1172.106, 1834.696
1172.588, 1844.048
1173.070, 1856.314
1173.552, 1878.426
1174.034, 1892.737
1174.516, 1884.816
1174.998, 1872.116
1175.480, 1867.136
1175.963, 1869.644
1176.445, 1875.356
1176.927, 1883.638
1177.409, 1888.525
1177.891, 1876.559
1178.373, 1870.932
1178.855, 1891.873
1179.337, 1922.396
1179.819, 1937.300
1180.302, 1936.202
1180.784, 1931.122
1181.266, 1922.535
1181.748, 1922.459
1182.230, 1950.068
1182.712, 1980.808
1183.194, 1997.194
1183.676, 2000.946
1184.158, 1997.845
1184.641, 1986.458
1185.123, 1988.322
1185.605, 2012.168
1186.087, 2035.469
1186.569, 2031.833
1187.051, 2019.927
1187.533, 2019.359
1188.015, 2032.094
1188.498, 2041.309
1188.980, 2046.747
1189.462, 2049.706
1189.944, 2050.609
1190.426, 2049.461
1190.908, 2047.844
1191.390, 2043.554
1191.872, 2031.513
1192.354, 2003.200
1192.837, 1994.781
1193.319, 2010.481
1193.801, 2025.237
1194.283, 2014.173
1194.765, 1997.750
1195.247, 2010.918
1195.729, 2040.557
1196.211, 2050.363
1196.693, 2021.816
1197.176, 2003.334
1197.658, 1999.145
1198.140, 2001.371
1198.622, 2007.081
1199.104, 2011.350
1199.586, 2001.753
1200.068, 1981.156
1200.550, 1975.276
1201.033, 1997.745
1201.515, 2015.124
1201.997, 2021.025
1202.479, 2021.103
1202.961, 2021.077
1203.443, 2021.722
1203.925, 2025.615
1204.407, 2033.446
1204.890, 2036.112
1205.372, 2027.936
1205.854, 2023.179
1206.336, 2026.644
1206.818, 2035.990
1207.300, 2051.929
1207.782, 2068.660
1208.264, 2072.832
1208.746, 2056.927
1209.229, 2044.242
1209.711, 2039.138
1210.193, 2035.496
1210.675, 2030.142
1211.157, 2023.878
1211.639, 2015.535
1212.121, 2007.933
1212.603, 2008.610
1213.085, 2030.028
1213.568, 2043.413
1214.050, 2045.890
1214.532, 2040.160
1215.014, 2022.359
1215.496, 1999.367
1215.978, 1997.275
1216.460, 2010.360
1216.942, 2014.588
1217.425, 1987.160
1217.907, 1968.493
1218.389, 1967.784
1218.871, 1973.145
1219.353, 1971.290
1219.835, 1964.578
1220.317, 1958.381
1220.799, 1953.399
1221.281, 1952.163
1221.764, 1965.454
1222.246, 1967.983
1222.728, 1947.894
1223.210, 1923.605
1223.692, 1933.892
1224.174, 1962.953
1224.656, 1961.917
1225.138, 1922.371
1225.620, 1898.159
1226.103, 1927.590
1226.585, 1953.710
1227.067, 1960.146
1227.549, 1952.989
1228.031, 1940.478
1228.513, 1926.074
1228.995, 1921.634
1229.477, 1933.587
1229.960, 1936.142
1230.442, 1911.081
1230.924, 1889.970
1231.406, 1888.813
1231.888, 1900.062
1232.370, 1903.507
1232.852, 1901.438
1233.334, 1899.682
1233.816, 1897.481
1234.299, 1902.952
1234.781, 1925.973
1235.263, 1943.429
1235.745, 1935.093
1236.227, 1911.307
1236.709, 1906.192
1237.191, 1914.328
1237.673, 1918.542
1238.156, 1902.760
1238.638, 1896.949
1239.120, 1907.531
1239.602, 1922.940
1240.084, 1932.885
1240.566, 1939.432
1241.048, 1949.375
1241.530, 1961.259
1242.012, 1968.529
1242.495, 1964.902
1242.977, 1961.640
1243.459, 1961.110
1243.941, 1960.038
1244.423, 1953.345
1244.905, 1943.823
1245.387, 1936.083
1245.869, 1931.052
1246.351, 1932.745
1246.834, 1953.694
1247.316, 1963.186
1247.798, 1952.370
1248.280, 1936.542
1248.762, 1937.111
1249.244, 1947.559
1249.726, 1956.837
1250.208, 1963.763
1250.691, 1968.499
1251.173, 1970.244
1251.655, 1972.002
1252.137, 1974.823
1252.619, 1977.304
1253.101, 1977.295
1253.583, 1975.449
1254.065, 1971.561
1254.547, 1964.942
1255.030, 1965.594
1255.512, 1978.448
1255.994, 1985.661
1256.476, 1978.687
1256.958, 1967.381
1257.440, 1966.623
1257.922, 1971.711
1258.404, 1975.592
1258.886, 1976.352
1259.369, 1979.891
1259.851, 1987.619
1260.333, 1992.481
1260.815, 1990.503
1261.297, 1985.101
1261.779, 1980.438
1262.261, 1975.517
1262.743, 1967.440
1263.226, 1952.090
1263.708, 1951.714
1264.190, 1968.580
1264.672, 1985.354
1265.154, 1991.450
1265.636, 1992.861
1266.118, 1993.965
1266.600, 1995.172
1267.083, 1998.028
1267.565, 2005.283
1268.047, 1999.128
1268.529, 1978.020
1269.011, 1966.087
1269.493, 1992.091
1269.975, 2021.199
1270.457, 2026.057
1270.939, 2014.769
1271.422, 2001.522
1271.904, 1984.312
1272.386, 1988.078
1272.868, 2013.539
1273.350, 2034.274
1273.832, 2027.289
1274.314, 2014.174
1274.796, 2008.768
1275.278, 2005.476
1275.761, 1992.306
1276.243, 1970.085
1276.725, 1962.016
1277.207, 1969.613
1277.689, 1983.272
1278.171, 2005.182
1278.653, 2022.141
1279.135, 2027.704
1279.618, 2025.597
1280.100, 2018.276
1280.582, 2007.964
1281.064, 2009.909
##END=



